Ax,Ay,Az,Gx,Gy,Gz,Mx,My,Mz
3.051,-8.7851,1.076,0.23335,0.32345,0.30757,8.76,51.0,1.32
2.9965,-7.9815,0.92618,0.21258,0.2529,0.39309,8.88,50.94,1.08
2.9556,-7.4231,0.98067,0.1628,0.11698,0.42028,9.12,50.88,0.9
2.6423,-6.1292,1.0215,0.14355,0.07086,0.39462,9.66,50.94,0.72
2.5198,-5.5162,0.89894,0.14508,0.045509,0.32895,9.78,50.94,0.48
2.4108,-5.2575,0.96704,0.17318,-0.0036652,0.27031,10.38,50.58,-0.18
2.4517,-5.5299,1.0488,0.17196,-0.020464,0.24709,10.74,50.46,-0.42
2.3972,-5.6252,0.9398,0.16127,-0.035125,0.19578,11.04,50.28,-0.6
2.3291,-5.7069,1.0079,0.15852,-0.029016,0.15669,11.16,50.22,-0.9
2.1112,-6.1836,1.1305,0.13531,0.048869,0.15302,11.7,50.04,-1.38
2.0022,-7.0962,1.0896,0.1127,0.17837,0.17929,12.06,49.8,-1.56
2.152,-7.6819,0.78998,0.062003,0.38087,0.20372,12.36,49.62,-1.8
2.7104,-7.9679,0.35413,0.032681,0.5959,0.2135,13.02,49.08,-2.28
3.0782,-8.2267,0.28603,0.03543,0.73273,0.23671,13.5,48.78,-2.58
3.6366,-8.9486,0.28603,0.068722,0.63377,0.32895,13.74,48.54,-2.82
4.6718,-11.141,0.1362,0.045204,0.40256,0.38057,14.34,47.76,-3.18
5.094,-11.863,-0.19068,0.0051924,0.10904,0.45173,14.76,47.4,-3.36
5.2438,-12.068,-0.44947,-0.021686,-0.13592,0.49419,15.18,47.04,-3.42
5.0804,-13.988,-0.55843,0.075442,-0.21319,0.53817,15.96,46.08,-3.66
5.5707,-15.772,-0.95342,0.077885,-0.086743,0.51435,16.26,45.66,-3.72
6.0202,-15.99,-1.1169,0.0054978,-0.010996,0.37813,16.68,45.18,-3.84
6.1973,-14.029,-1.4165,0.010996,-0.070555,0.17898,17.46,44.16,-4.14
5.9657,-12.708,-1.3484,0.0030543,-0.13775,-0.098044,17.7,43.8,-4.2
5.884,-12.0,-1.58,-0.016799,-0.1686,-0.38393,17.94,43.44,-4.32
5.8295,-10.924,-1.866,-0.029627,-0.37141,-0.81245,18.06,42.72,-4.44
5.5435,-10.542,-1.7706,-0.072998,-0.44043,-0.92149,17.88,42.42,-4.62
5.38,-10.215,-1.6208,-0.14752,-0.52229,-1.0916,17.82,42.18,-4.8
4.6718,-8.9622,-1.1032,-0.31521,-0.47831,-1.2758,17.28,42.0,-5.22
4.304,-8.1313,-0.99429,-0.36438,-0.34483,-1.4413,16.92,42.06,-5.46
3.9908,-7.4095,-0.88532,-0.36102,-0.19028,-1.5925,16.44,42.06,-5.88
3.7184,-6.1973,-0.58567,-0.30391,-0.051924,-1.784,14.82,42.3,-6.48
3.6503,-6.1292,-0.55843,-0.15272,-0.0058032,-1.8384,13.86,42.42,-6.9
3.8137,-6.2245,-0.40861,-0.069333,-0.10782,-1.8543,12.66,42.6,-7.2
3.8273,-6.4697,-0.19068,0.002138,-0.31337,-1.8567,9.9,42.96,-7.86
3.6366,-6.4152,-0.027241,0.040623,-0.54703,-1.8167,8.22,43.26,-8.46
3.4051,-6.4969,0.081722,0.085827,-0.77336,-1.7474,6.54,43.44,-8.94
2.7922,-6.7285,0.31327,0.12584,-0.99571,-1.5898,2.94,43.62,-10.08
2.7922,-6.7285,0.31327,0.12584,-0.99571,-1.5898,2.94,43.62,-10.08
2.3427,-6.7285,0.50395,0.12492,-1.0116,-1.4056,1.32,43.8,-10.62
2.2337,-7.0009,0.47671,0.1686,-0.84696,-1.1671,-2.46,43.56,-11.82
2.2746,-7.9543,0.7355,0.18082,-0.70219,-0.92913,-6.48,43.32,-13.2
2.7377,-10.379,0.85808,0.16493,-0.562,-0.6017,-10.14,42.78,-14.34
3.1599,-11.482,0.85808,0.099571,-0.45448,-0.18448,-11.76,42.66,-14.94
4.3858,-13.076,0.99429,-0.06689,-0.46853,0.39218,-14.34,42.24,-16.26
4.5356,-12.926,1.4574,-0.12248,-0.52565,0.72204,-16.74,41.88,-17.46
4.3858,-13.757,1.9613,-0.12981,-0.5058,0.96425,-18.24,41.22,-18.54
4.2632,-14.029,1.8932,-0.11668,-0.38729,1.1078,-19.32,40.86,-19.2
4.1542,-13.035,1.5527,-0.018631,-0.20372,1.2336,-19.98,40.68,-19.68
3.9908,-11.414,1.362,0.16371,-0.041844,1.3436,-19.86,40.56,-19.8
3.7456,-10.12,1.1169,0.3708,0.086743,1.4071,-19.32,40.62,-19.74
3.6503,-9.7385,1.0351,0.5846,0.21014,1.4988,-19.02,40.68,-19.62
3.6775,-9.1937,0.57205,0.67867,0.22083,1.576,-18.42,40.62,-19.5
4.0044,-8.9349,0.21793,0.71746,0.11881,1.6918,-17.4,40.44,-19.5
4.4675,-8.7443,-0.081722,0.69516,-0.12339,1.8005,-16.8,40.38,-19.5
4.699,-8.5127,-0.27241,0.5959,-0.45265,1.8369,-16.14,40.38,-19.32
4.0316,-7.1779,0.040861,0.41569,-0.70402,1.7486,-14.7,40.44,-19.44
3.4459,-6.5241,0.29965,0.2587,-0.7648,1.5843,-13.92,40.38,-19.5
2.9556,-6.0066,0.44947,0.15302,-0.63163,1.3576,-13.02,40.14,-19.68
2.3427,-5.3119,0.57205,0.081856,-0.16402,0.95173,-11.4,40.08,-19.98
2.3155,-5.4618,0.58567,0.11087,0.17349,0.71502,-10.56,39.9,-20.04
2.438,-5.7886,0.70826,0.10599,0.46487,0.56077,-9.54,39.66,-20.22
2.4653,-5.7342,0.47671,0.043066,0.8097,0.40348,-7.68,39.06,-20.76
2.5061,-5.9249,0.64016,0.018326,0.90225,0.38607,-6.48,38.94,-21.0
2.656,-6.279,0.64016,-0.046731,1.1212,0.4105,-5.46,38.58,-21.18
3.2416,-7.3005,0.24517,-0.09896,1.1982,0.4105,-3.3,38.04,-21.72
3.5277,-7.5865,0.44947,-0.17807,1.1661,0.35033,-2.16,37.56,-21.78
3.5413,-8.3629,0.6674,-0.17623,1.0852,0.39248,-1.08,37.14,-21.9
4.1678,-10.651,0.31327,-0.18082,0.96486,0.55589,1.32,36.36,-22.14
4.8625,-12.612,0.1362,-0.21961,0.74159,0.65637,2.46,35.76,-22.2
5.5435,-14.111,0.040861,-0.2474,0.67592,0.697,3.54,35.34,-22.14
5.489,-14.056,0.10896,-0.26878,0.67073,0.7138,5.82,34.26,-21.96
5.4345,-14.397,-0.054481,-0.1857,0.84238,0.53023,6.84,33.78,-21.84
5.8431,-15.037,-0.31327,-0.087965,1.0128,0.208,7.86,33.36,-21.72
7.0553,-14.451,-1.2531,-0.020769,1.004,-0.38546,9.84,32.64,-21.12
7.2869,-13.266,-1.7298,0.075136,0.58643,-0.71716,10.56,32.28,-20.76
7.1915,-12.354,-2.0022,0.096822,0.40531,-0.86743,11.28,31.98,-20.4
6.5105,-11.741,-1.7979,0.082772,-0.083383,-1.2321,12.24,31.62,-19.5
5.7886,-11.373,-1.6753,-0.024129,-0.24954,-1.4267,12.54,31.62,-19.14
5.2711,-10.774,-1.4438,-0.16432,-0.24709,-1.5666,12.6,31.5,-18.72
4.9306,-9.1529,-0.96704,-0.27611,-0.15516,-1.6469,12.06,31.62,-17.88
4.9033,-8.3493,-0.8036,-0.30391,-0.071471,-1.7568,11.64,31.74,-17.46
4.985,-7.8726,-0.68102,-0.25198,-0.10751,-1.8561,11.04,32.04,-17.1
4.9714,-7.0281,-0.49033,-0.15333,-0.21838,-1.9502,10.26,32.22,-16.8
4.7399,-6.4152,-0.38137,-0.02474,-0.3937,-2.0223,8.1,32.82,-16.32
4.6582,-6.279,-0.28603,0.081551,-0.62247,-2.0583,6.66,33.12,-15.96
4.5901,-6.4152,-0.38137,0.14416,-0.87354,-2.0568,5.1,33.48,-15.84
4.1814,-6.6195,-0.20431,0.12553,-1.171,-1.9862,1.74,33.84,-15.36
3.9908,-6.6059,-0.095342,0.080023,-1.3011,-1.9267,-0.12,34.26,-15.18
3.7728,-6.5514,-0.095342,0.055283,-1.3454,-1.9028,-1.98,34.38,-14.88
3.3234,-6.4152,-0.054481,0.03543,-1.3448,-1.835,-5.94,34.5,-14.58
3.0646,-6.3743,-0.12258,0.020464,-1.2624,-1.7669,-7.86,34.62,-14.46
3.0237,-6.5378,-0.17706,0.022907,-1.1246,-1.6915,-9.66,34.62,-14.16
3.2961,-7.6819,0.054481,0.0097738,-1.0024,-1.5794,-13.26,34.5,-13.86
3.1463,-8.6353,0.24517,-0.05681,-0.82742,-1.248,-15.0,34.26,-13.56
3.1463,-10.025,0.44947,-0.096211,-0.74098,-1.0721,-16.5,34.08,-13.32
4.0589,-12.612,0.68102,-0.27428,-0.47434,-0.3879,-19.2,33.72,-12.9
4.5492,-12.776,0.85808,-0.3769,-0.343,0.058338,-20.4,33.54,-12.72
4.6173,-12.776,1.1169,-0.38149,-0.21166,0.50916,-21.42,33.3,-12.3
4.3177,-12.967,1.5391,-0.32803,-0.062614,0.84513,-22.92,33.0,-11.76
4.1542,-12.817,1.6072,-0.16463,0.25015,1.2312,-23.4,32.7,-11.4
4.2223,-12.572,1.4438,-0.072082,0.33689,1.3656,-23.7,32.52,-11.04
4.413,-10.842,0.95342,0.23488,0.41478,1.7242,-24.0,32.58,-10.44
4.2495,-9.9565,0.83084,0.4444,0.33017,1.9193,-24.12,32.52,-10.26
4.1133,-9.4117,0.65378,0.60506,0.21655,2.0406,-24.06,32.52,-9.96
3.8818,-9.1937,0.27241,0.76572,0.047342,2.1774,-23.64,32.52,-9.42
4.018,-9.2482,0.054481,0.78527,-0.10629,2.2718,-23.16,32.64,-9.36
4.1814,-9.0303,-0.01362,0.71502,-0.28863,2.3384,-22.68,32.82,-9.3
4.127,-8.54,-0.23155,0.60751,-0.44532,2.3369,-21.96,32.7,-9.12
3.8273,-7.3141,-0.24517,0.49572,-0.53634,2.2743,-20.46,32.94,-9.0
3.7047,-6.7966,-0.38137,0.40287,-0.52015,2.1325,-19.44,33.0,-9.12
3.2144,-6.2109,-0.36775,0.29291,-0.31307,1.8506,-17.46,33.36,-9.36
3.0646,-6.3198,-0.24517,0.2645,-0.068417,1.6671,-16.5,33.54,-9.6
3.0373,-6.6059,0.28603,0.21197,0.23824,1.5174,-15.42,33.6,-9.66
3.2553,-6.9464,0.36775,0.16646,0.49236,1.3952,-14.22,33.72,-9.9
3.9363,-7.2324,0.16344,0.12431,0.57391,1.2956,-11.64,33.6,-10.32
4.1814,-7.2324,0.16344,0.10507,0.51588,1.1567,-10.38,33.66,-10.74
3.8954,-7.246,0.17706,0.075747,0.45754,1.0131,-9.24,33.6,-10.92
3.5277,-7.9815,0.16344,0.0036652,0.65027,0.85368,-6.54,33.6,-11.46
3.4459,-8.4038,0.20431,-0.087354,0.92638,0.70677,-5.1,33.42,-11.64
3.4187,-8.7443,0.20431,-0.12584,1.2086,0.57085,-3.9,33.42,-11.88
4.0452,-10.651,0.38137,-0.12431,1.3705,0.49969,-1.08,33.06,-12.3
4.5764,-12.217,0.16344,-0.1518,1.3885,0.49633,-1.08,32.88,-12.36
4.9578,-13.634,0.095342,-0.21625,1.2877,0.52351,1.32,32.64,-12.36
5.7069,-14.533,0.095342,-0.28619,1.1344,0.55131,2.4,32.52,-12.42
5.9521,-13.988,0.095342,-0.27672,0.99205,0.478,3.54,32.4,-12.42
5.3528,-11.577,-0.42223,-0.046731,0.94531,0.063835,5.58,31.8,-12.12
5.6661,-11.741,-0.76274,0.1799,0.91844,-0.34789,6.42,31.68,-11.88
6.5241,-13.321,-1.1441,0.38271,0.70585,-0.71044,7.14,31.62,-11.64
7.8317,-14.383,-1.8387,0.34819,0.28436,-0.99021,8.64,31.5,-11.04
7.7908,-13.076,-1.8251,0.13531,-0.35949,-1.2052,9.12,31.56,-10.86
6.7012,-10.978,-1.4029,0.11026,-0.62033,-1.3308,9.48,31.44,-10.44
5.5162,-9.902,-1.5391,0.08827,-0.54886,-1.6118,9.96,31.56,-9.66
5.2575,-9.6704,-1.4982,0.066584,-0.28558,-1.9227,9.66,31.74,-9.42
5.4073,-9.4117,-1.4165,0.044593,-0.038179,-2.157,9.42,31.98,-9.06
5.7205,-8.717,-1.2939,0.0082467,0.089186,-2.3653,8.46,32.28,-8.52
5.7342,-8.1858,-1.0896,-0.019242,-0.054978,-2.4936,7.74,32.4,-8.16
5.489,-7.8181,-0.88532,0.011301,-0.31521,-2.5867,6.84,32.46,-7.86
4.7944,-7.641,-0.84446,0.0058032,-0.62827,-2.5861,4.44,32.94,-7.32
4.7263,-7.8726,-0.83084,0.036346,-0.86804,-2.5638,3.12,33.18,-7.02
4.522,-8.0905,-0.6674,0.065668,-1.0018,-2.5152,1.74,33.24,-6.72
3.8546,-8.0496,-0.44947,0.089797,-1.1765,-2.354,-1.56,33.3,-6.42
3.6639,-7.927,-0.38137,0.065973,-1.3311,-2.2428,-3.3,33.36,-6.3
2.8739,-7.5729,-0.42223,0.052534,-1.3525,-2.1783,-5.1,33.48,-6.36
2.6015,-7.4503,-0.49033,0.029932,-1.3292,-1.9367,-8.94,33.6,-6.48
2.3836,-7.3686,-0.54481,0.012523,-1.2477,-1.7703,-10.68,33.54,-6.48
2.2882,-7.0962,-0.50395,-0.01405,-1.1267,-1.6057,-12.42,33.66,-6.42
1.8932,-6.7148,-0.36775,-0.033903,-0.98258,-1.4383,-15.6,33.6,-6.54
1.9341,-7.1507,-0.20431,-0.015577,-0.73609,-1.1047,-17.1,33.54,-6.54
2.0431,-8.0632,-0.054481,-0.038179,-0.65118,-0.94073,-18.42,33.48,-6.54
2.5061,-9.902,0.1362,-0.14294,-0.47128,-0.25656,-20.52,33.12,-6.66
3.0646,-10.937,0.25879,-0.18906,-0.42974,-0.0027489,-21.42,33.0,-6.66
3.5277,-11.455,0.64016,-0.28405,-0.2978,0.83078,-22.74,32.94,-6.66
3.6775,-11.972,1.1032,-0.28986,-0.14997,1.3522,-23.1,32.76,-6.54
3.6775,-12.735,1.362,-0.23915,0.16371,2.0473,-23.4,32.76,-6.24
3.8137,-13.157,1.5663,-0.14813,0.41386,2.4126,-23.64,32.88,-5.7
4.3177,-12.708,1.2531,0.0088575,0.5901,2.6948,-23.76,32.82,-5.28
4.4402,-12.217,1.1305,0.197,0.65546,2.9004,-23.46,32.82,-5.1
4.413,-10.746,0.89894,0.42028,0.63866,3.0186,-22.92,32.94,-4.5
4.5356,-10.529,0.64016,0.624,0.5681,3.0659,-22.44,33.12,-4.14
4.8216,-10.515,-0.01362,0.77458,0.41417,3.0959,-21.06,33.48,-3.54
5.9521,-10.283,-0.49033,0.87262,-0.068722,3.0235,-20.16,33.78,-3.24
5.9385,-9.8611,-0.38137,0.82925,-0.478,2.9209,-19.08,34.14,-3.0
5.7886,-9.3844,-0.32689,0.73579,-0.79535,2.6967,-17.82,34.5,-3.0
4.6854,-8.322,-0.25879,0.61881,-0.92943,2.3995,-15.3,34.92,-2.88
4.127,-7.8317,-0.24517,0.52137,-0.80298,2.0809,-13.98,35.22,-2.88
3.8001,-7.4367,-0.64016,0.4612,-0.46181,1.763,-12.42,35.4,-2.88
3.6366,-7.246,-0.7355,0.41753,-0.027794,1.4835,-9.36,35.76,-3.06
3.7728,-7.4776,-0.64016,0.32193,0.62644,1.1396,-7.56,35.76,-3.12
3.9363,-7.641,-0.69464,0.26664,0.80665,1.055,-5.94,35.82,-3.24
4.1133,-7.6683,-0.55843,0.06689,1.2165,0.83291,-4.38,35.82,-3.3
4.3313,-7.5729,-0.34051,-0.047953,1.4053,0.72632,-1.2,35.76,-3.6
4.4266,-7.5593,-0.16344,-0.16341,1.5574,0.58643,0.42,35.82,-3.9
4.8625,-7.7091,-0.10896,-0.1967,1.5745,0.5006,3.0,35.76,-4.2
5.0259,-7.5729,-0.27241,-0.2416,1.5153,0.405,4.02,35.64,-4.38
5.1213,-7.3686,-0.28603,-0.23885,1.4587,0.34819,4.98,35.64,-4.32
5.3119,-7.1915,-0.43585,-0.18815,1.1445,0.1518,6.66,35.64,-4.32
5.4618,-7.9407,-0.16344,-0.094684,0.85552,0.025656,7.44,35.64,-4.14
5.8431,-9.3299,-0.81722,-0.054062,0.5565,-0.041539,8.04,35.58,-4.2
6.8919,-11.809,-1.0215,-0.1408,0.059254,-0.17929,9.12,35.4,-4.08
7.1371,-12.435,-0.96704,-0.21075,-0.22571,-0.36163,9.36,35.58,-3.96
7.0009,-12.599,-0.84446,-0.24496,-0.31948,-0.47556,9.42,35.76,-3.6
6.6059,-13.607,-0.7355,-0.20281,-0.38149,-0.92577,9.54,36.0,-3.12
6.6195,-15.337,-0.76274,-0.17654,-0.3146,-1.3127,9.24,36.18,-2.94
6.6331,-16.739,-0.83084,-0.20128,-0.22419,-1.6924,8.88,36.24,-2.46
6.6467,-15.391,-1.1577,-0.31826,-0.15149,-2.1374,7.98,36.48,-1.92
6.5241,-13.974,-1.2531,-0.25107,-0.23793,-2.3213,7.38,36.6,-1.56
6.2517,-13.443,-1.2531,-0.18387,-0.32437,-2.4123,6.6,36.6,-1.26
5.4345,-12.476,-1.2531,-0.01741,-0.62736,-2.6899,4.74,36.54,-0.54
5.1485,-12.149,-1.0896,0.021686,-0.83261,-2.8399,3.6,36.66,-0.18
4.9306,-12.054,-1.4846,-0.030543,-1.0721,-2.8842,2.46,36.66,0.36
4.0861,-11.305,-1.2395,-0.23213,-1.781,-2.6029,-0.24,36.72,1.2
2.6423,-10.079,-1.2939,-0.36652,-1.8937,-2.5888,-1.74,36.48,1.56
2.4517,-8.5808,-1.0351,-0.17287,-1.2804,-2.8081,-3.06,36.3,1.92
2.4925,-7.8453,-0.77636,-0.077885,-0.91874,-2.8683,-6.3,35.94,2.34
2.5334,-7.5048,-0.77636,-0.09163,-0.69394,-2.722,-7.62,35.82,2.7
2.2746,-6.9872,-0.96704,-0.12309,-0.47525,-2.7193,-9.06,35.58,2.88
2.2882,-6.6331,-0.9398,-0.11423,-0.43738,-2.4905,-11.64,34.98,3.06
2.3291,-6.7693,-0.81722,-0.10324,-0.47953,-2.3888,-12.9,34.74,3.06
2.3699,-6.9191,-0.7355,-0.13011,-0.5846,-2.1735,-14.04,34.5,3.06
2.0975,-6.5105,-0.74912,-0.18265,-0.75198,-1.7623,-15.96,33.96,3.42
1.9341,-6.279,-0.74912,-0.19273,-0.80054,-1.4933,-16.86,33.54,3.54
1.5936,-6.1292,-0.8036,-0.20495,-0.76358,-1.219,-17.64,33.06,3.66
1.4982,-5.993,-0.7355,-0.21044,-0.65607,-0.84208,-18.36,32.7,3.9
1.3757,-5.9521,-0.62654,-0.20647,-0.43127,-0.58918,-19.2,32.04,4.38
1.2803,-6.4424,-0.57205,-0.16127,-0.24312,-0.29749,-19.62,31.62,4.56
1.3348,-7.1779,-0.39499,-0.13622,-0.13347,-0.098044,-19.8,31.26,4.86
2.3018,-9.507,-0.24517,-0.16432,0.1069,0.59254,-20.1,30.72,5.34
2.9011,-10.351,-0.20431,-0.19975,0.2022,1.0886,-20.34,30.42,5.58
3.5277,-11.673,0.54481,-0.20769,0.28711,1.5852,-20.46,30.3,6.06
3.8273,-12.381,1.0215,-0.1967,0.51526,2.3353,-20.22,30.0,6.72
4.4266,-13.389,1.5119,-0.17746,0.78924,2.7483,-20.04,29.88,7.26
4.7535,-13.62,1.7025,-0.10782,1.025,3.1014,-19.74,29.88,7.32
5.2575,-12.803,1.3348,0.065973,1.1955,3.3738,-19.26,30.24,7.86
5.4073,-12.204,1.0896,0.32651,1.2895,3.5476,-18.9,30.42,7.86
5.7478,-11.795,0.92618,0.60292,1.346,3.6124,-18.48,30.6,8.1
6.3335,-11.713,0.51757,0.85704,1.2474,3.6499,-17.52,31.32,8.34
6.7421,-11.809,0.40861,0.91111,1.0528,3.594,-16.92,31.68,8.52
6.8374,-11.673,0.44947,0.89858,0.91721,3.5418,-16.2,32.04,8.76
6.7693,-11.087,0.23155,0.77458,0.48442,3.2956,-14.46,32.7,9.36
6.5514,-10.569,0.081722,0.66829,0.25137,3.0928,-13.32,33.12,9.54
6.1836,-9.9292,-0.20431,0.59682,0.10873,2.8546,-12.18,33.48,9.78
5.4754,-8.4855,-0.44947,0.54581,0.1292,2.4261,-9.78,34.38,10.08
4.9578,-7.8317,-0.53119,0.48533,0.33048,2.1386,-8.64,34.8,10.08
4.7671,-7.6002,-0.54481,0.46792,0.46884,1.9933,-7.5,35.16,10.26
4.6445,-7.7364,-0.40861,0.35064,0.90439,1.6573,-4.74,35.64,10.2
4.8216,-7.8998,-0.38137,0.19975,1.1426,1.4716,-3.42,36.06,10.32
4.9442,-7.8453,-0.24517,0.03146,1.2819,1.281,-2.16,36.3,10.14
4.7944,-7.3414,0.040861,-0.15791,1.4218,0.98655,0.36,36.66,10.02
4.7671,-7.464,0.027241,-0.19761,1.5067,0.80634,1.5,36.96,9.9
4.7944,-7.7364,-0.040861,-0.20831,1.5501,0.70585,2.58,37.14,9.78
4.9306,-7.8589,0.14982,-0.24038,1.6411,0.42699,4.38,37.62,9.3
5.0531,-7.8589,0.21793,-0.21258,1.5571,0.27458,4.92,37.74,9.24
5.203,-8.322,0.35413,-0.12828,1.3247,0.13408,5.4,37.98,9.0
5.775,-11.06,-0.01362,-0.024129,0.77244,-0.029627,6.18,38.1,8.94
5.9793,-12.463,-0.17706,-0.062308,0.40378,-0.18509,6.54,38.22,9.0
5.8159,-12.503,-0.35413,-0.091935,0.26328,-0.27733,6.72,38.46,9.06
5.3937,-12.054,-0.68102,-0.054062,0.016188,-0.57941,6.96,38.7,9.06
4.985,-12.749,-0.96704,0.033598,0.007025,-0.86163,6.78,39.0,9.42
4.9987,-14.506,-1.1441,0.092241,0.09163,-1.1603,6.72,39.06,9.54
6.2381,-16.004,-1.6344,0.036652,0.13256,-1.4197,6.36,39.6,9.9
6.4833,-14.778,-1.8115,-0.059559,-0.068722,-1.6839,6.18,39.78,10.02
5.9112,-13.103,-1.8796,-0.031765,-0.32162,-1.872,5.88,39.9,10.5
5.4345,-12.531,-1.7434,-0.015577,-0.41233,-2.0131,5.52,39.78,10.74
4.7944,-11.945,-1.2531,-0.014355,-0.44013,-2.4554,5.1,39.78,11.04
4.522,-11.536,-1.2667,-0.040928,-0.36408,-2.6618,4.44,39.84,11.64
4.7535,-11.06,-1.6072,-0.12278,-0.44471,-2.7449,3.9,39.96,11.94
4.6173,-9.9565,-1.4846,-0.13042,-0.54703,-2.7248,2.58,39.84,12.54
4.4266,-9.2891,-1.0896,-0.1408,-0.92882,-2.7003,1.86,39.6,12.96
4.0452,-8.8124,-0.81722,-0.12004,-1.0947,-2.7009,1.08,39.36,13.44
3.4459,-8.0224,-0.6674,-0.097738,-1.1915,-2.6997,-0.42,39.0,14.04
3.3642,-7.4912,-0.76274,0.05284,-1.1509,-2.7205,-1.38,38.88,14.28
3.6366,-7.5048,-1.185,0.18662,-1.1283,-2.7465,-2.16,38.58,14.4
3.6775,-7.7091,-1.1986,0.25809,-1.1558,-2.7489,-4.2,38.16,14.4
3.4732,-7.6546,-1.0624,0.2419,-1.1304,-2.726,-5.28,38.1,14.1
3.3097,-7.4912,-1.0488,0.13317,-1.0256,-2.6319,-6.3,38.28,13.74
3.5277,-7.464,-1.2531,0.065668,-0.94867,-2.5513,-8.16,38.34,12.78
3.732,-7.3822,-1.2531,-0.002138,-0.89125,-2.4462,-9.06,38.22,12.12
3.8001,-7.2869,-1.0624,-0.12798,-0.84238,-2.2715,-10.86,38.46,10.68
3.7184,-7.2188,-0.81722,-0.18631,-0.72174,-2.1154,-11.58,38.52,9.78
3.8682,-7.7091,-0.61292,-0.21105,-0.55344,-1.8433,-12.24,38.64,8.94
4.5628,-8.431,-0.39499,-0.24862,-0.40287,-1.4328,-12.96,38.7,8.16
5.6116,-10.488,-0.31327,-0.31734,-0.30391,-0.92057,-14.28,38.88,6.66
6.17,-10.992,-0.12258,-0.36499,-0.32345,-0.39523,-14.82,39.0,5.94
6.5105,-11.032,0.50395,-0.41722,-0.33934,0.085216,-15.9,39.24,4.92
6.279,-11.496,0.70826,-0.50671,-0.079718,0.64416,-16.14,39.36,4.68
6.0611,-11.659,0.8036,-0.52748,0.054978,0.7984,-16.38,39.36,4.38
5.8704,-11.237,0.68102,-0.53726,0.36072,1.0715,-16.56,39.24,4.32
5.1349,-9.0303,0.21793,-0.41142,0.76938,1.3806,-16.8,39.36,4.2
4.7807,-7.9543,0.16344,-0.29352,0.98746,1.5424,-16.86,39.48,4.38
4.1814,-7.1915,0.39499,-0.20311,1.1622,1.6948,-16.8,39.54,4.5
3.6366,-6.7693,0.64016,-0.12645,1.3167,1.8909,-16.44,39.84,4.56
3.8818,-6.7421,0.53119,-0.061392,1.3873,2.1166,-16.14,40.2,4.5
4.2223,-6.7012,0.25879,0.014661,1.1793,2.4395,-15.54,40.5,4.38
4.5901,-6.674,0.32689,0.051313,0.83811,2.5983,-15.18,40.98,4.26
4.7671,-6.5105,0.40861,0.037874,0.41508,2.6841,-13.56,42.06,4.56
4.7126,-6.2654,0.54481,0.0054978,0.038179,2.6655,-12.6,42.54,4.56
4.2904,-5.8567,0.96704,-0.016799,-0.20281,2.6075,-11.58,42.96,4.74
4.0316,-5.993,1.0079,0.017104,-0.29444,2.4636,-9.42,43.98,5.34
3.8954,-6.4969,0.89894,0.076358,-0.19609,2.3665,-8.04,44.4,5.82
3.8682,-7.1234,0.88532,0.12217,-0.0061087,2.2602,-6.84,44.82,6.3
3.8409,-7.8045,1.2531,0.13836,0.27978,2.1909,-3.72,45.54,7.92
3.9908,-8.1722,1.5527,0.16616,0.59529,2.1573,-2.16,45.84,8.88
4.6718,-8.9622,1.2395,0.22297,0.91141,2.1295,1.08,46.68,10.92
5.0531,-9.5479,0.88532,0.32406,1.281,2.0608,2.64,47.1,11.94
5.489,-9.9565,0.49033,0.36041,1.4328,1.989,4.08,47.46,13.2
5.6388,-10.025,0.44947,0.33445,1.5275,1.9083,5.7,47.76,14.34
5.8295,-11.809,0.44947,0.2926,1.5812,1.832,8.52,48.48,16.26
6.2245,-13.525,0.21793,0.19059,1.5892,1.8213,9.66,48.84,17.04
7.2324,-15.35,-0.081722,0.023824,1.4951,1.8332,11.88,49.56,18.42
7.8862,-15.677,-0.34051,-0.12278,1.2825,1.8977,12.96,50.04,18.66
7.8589,-15.514,-0.1362,-0.25015,1.0385,1.8408,13.98,50.4,18.9
6.3198,-15.868,0.28603,-0.28039,1.014,1.3069,15.9,51.3,19.02
5.6116,-16.344,0.095342,-0.22388,1.3754,0.70372,16.68,51.6,18.78
5.6116,-16.344,0.095342,-0.22388,1.3754,0.70372,16.68,51.6,18.78
5.094,-10.556,-1.5663,0.11393,2.5336,-1.1136,18.42,52.14,18.18
5.0531,-9.6023,-1.7706,0.22938,2.6356,-1.3845,18.66,52.32,18.0
5.0804,-8.6353,-2.1929,0.4163,2.624,-1.8143,18.78,52.32,17.76
5.0804,-8.4446,-2.2201,0.51038,2.339,-2.109,18.78,52.26,17.46
4.9033,-8.1995,-2.5879,0.44593,1.6503,-2.2895,18.18,52.02,16.8
4.9306,-8.0224,-2.5198,0.26298,1.2055,-2.2199,17.88,51.9,16.62
4.6445,-6.9872,-2.5061,0.039095,0.79412,-2.0327,16.92,51.72,15.78
4.5083,-6.6059,-2.5334,-0.092546,0.4105,-1.8195,16.26,51.66,15.54
4.2632,-6.2245,-2.4108,-0.13042,0.12828,-1.682,15.36,51.66,15.3
4.1678,-6.1836,-2.2882,-0.10568,0.13378,-1.7239,14.34,51.6,15.06
5.203,-6.5378,-1.6481,-0.019548,0.38729,-1.7935,11.88,51.54,14.34
6.1292,-7.3414,-1.4438,0.047342,0.31154,-1.8005,10.56,51.66,14.04
6.7012,-9.0712,-1.1577,0.054062,-0.0024435,-1.7642,7.8,51.72,13.2
6.6604,-9.7794,-0.91256,0.067501,-0.54123,-1.6915,6.48,51.6,12.6
6.6059,-10.569,-0.7355,0.089797,-0.70891,-1.6228,4.98,51.66,12.0
6.2245,-11.455,-0.7355,0.12737,-1.0354,-1.4325,2.1,51.66,10.62
5.7069,-11.319,-0.55843,0.16707,-1.0675,-1.3622,0.78,51.54,10.02
5.0531,-11.577,-0.17706,0.17013,-0.89339,-1.2923,-0.54,51.48,9.42
4.699,-13.43,0.31327,0.092852,-0.54947,-1.1637,-3.48,51.3,8.34
4.7944,-13.879,0.40861,-0.045815,-0.056505,-0.82925,-5.04,51.06,7.86
5.1621,-13.62,0.28603,-0.19517,0.052229,-0.73884,-6.54,50.94,7.2
4.7399,-9.7658,0.31327,-0.25504,0.22235,-0.63469,-9.36,50.58,6.06
4.2223,-8.0224,0.50395,-0.21655,0.25962,-0.67317,-10.74,50.22,5.7
3.228,-7.0553,0.46309,0.0058032,0.33842,-0.83658,-13.5,49.62,4.68
3.2961,-7.5729,0.43585,0.15821,0.31521,-0.85063,-14.88,49.32,4.14
3.5958,-8.6217,0.35413,0.19487,0.17104,-0.57635,-16.26,48.96,3.72
4.3858,-9.8066,0.19068,0.14478,-0.11698,-0.42241,-18.6,48.3,2.82
4.304,-9.507,0.29965,-0.087048,-0.61789,0.054062,-19.56,47.94,2.52
3.9635,-8.8805,0.38137,-0.28222,-0.72571,0.2865,-20.58,47.7,2.28
3.6366,-8.0224,0.44947,-0.46242,-0.61728,0.37721,-22.38,47.1,1.74
3.4459,-7.6002,0.42223,-0.59132,-0.31246,0.36102,-23.04,46.8,1.68
3.3506,-6.9736,0.28603,-0.66676,0.10201,0.29108,-24.3,46.44,1.44
3.4187,-6.7693,0.20431,-0.67562,0.74342,0.15516,-25.02,46.38,1.32
3.8954,-6.7829,0.12258,-0.6521,0.90958,0.1066,-25.32,46.2,1.14
4.2223,-6.96,0.17706,-0.61392,1.139,0.089797,-25.56,46.2,0.96
4.9306,-7.3822,0.35413,-0.63805,1.1124,0.17959,-26.04,46.14,0.6
5.0395,-7.5729,0.40861,-0.67928,1.014,0.31215,-26.28,46.2,0.72
5.2166,-7.6274,0.50395,-0.73915,0.89339,0.50396,-26.34,46.38,0.72
5.3528,-7.6819,0.6674,-0.74862,0.89828,0.55955,-26.34,46.74,0.9
5.4345,-7.6002,0.7355,-0.73976,0.92241,0.55955,-26.46,46.98,1.14
5.4481,-7.5048,0.5993,-0.68783,1.0403,0.52595,-26.46,47.16,1.2
5.2847,-7.3958,0.5993,-0.64324,1.1002,0.48869,-26.58,47.52,1.44
5.203,-7.464,0.70826,-0.59651,1.146,0.46151,-26.58,47.76,1.5
5.3119,-7.9679,0.57205,-0.57177,1.1924,0.49175,-26.58,47.88,1.56
5.4618,-8.2539,0.44947,-0.59315,1.2669,0.64721,-26.46,48.12,1.98
5.7205,-8.5808,0.51757,-0.63377,1.2651,0.78527,-26.58,48.18,2.28
5.9249,-8.717,0.57205,-0.65363,1.2443,0.84055,-26.7,48.3,2.46
6.1292,-9.0575,0.64016,-0.72693,1.1912,0.93523,-26.64,48.36,3.3
6.0474,-9.5342,0.7355,-0.7703,1.2297,0.9331,-26.4,48.3,3.54
5.6933,-10.161,1.0488,-0.84666,1.3375,0.90439,-26.34,48.24,3.9
5.38,-12.204,1.4301,-0.95967,1.6463,0.92852,-26.04,48.18,4.8
5.4754,-12.898,1.4982,-1.077,1.8518,1.0116,-25.74,48.12,5.1
5.775,-12.926,1.4029,-1.1561,1.9988,1.1069,-25.38,48.06,5.7
6.0474,-10.733,1.185,-1.1619,1.9887,1.0907,-24.54,47.82,6.66
5.5571,-8.8668,1.0896,-1.1038,1.8421,0.90866,-24.12,47.64,7.2
4.4811,-7.2869,1.5663,-0.97738,1.693,0.5678,-23.58,47.52,7.8
3.2008,-7.5729,1.2395,-0.69028,1.6548,0.075442,-22.44,47.28,8.94
2.8739,-8.7579,1.2258,-0.6408,1.7593,-0.12523,-21.78,47.16,9.36
2.9011,-9.3163,1.0215,-0.68692,1.8567,-0.093462,-21.3,47.04,9.96
2.9965,-9.7385,0.99429,-0.81031,1.9554,0.090408,-20.64,46.92,10.8
2.9556,-9.1256,1.1986,-0.94043,2.0794,0.34911,-20.16,46.86,11.22
2.7513,-8.2539,1.2258,-1.0339,2.3207,0.6692,-19.5,46.74,11.94
2.656,-6.7693,1.1169,-0.96975,2.4667,0.75808,-19.14,46.68,12.24
2.8875,-6.3743,0.89894,-0.90897,2.5168,0.77366,-18.96,46.5,12.54
3.2961,-6.4833,0.64016,-0.61545,2.4349,0.85399,-18.78,46.44,12.72
4.2495,-6.8238,0.14982,-0.44776,2.1371,0.93218,-18.36,46.32,12.96
4.5764,-7.069,-0.040861,-0.32529,1.6832,1.0336,-18.3,46.38,13.02
4.7671,-7.4776,-0.28603,-0.25107,1.2,1.1423,-18.24,46.32,12.96
4.699,-8.1177,-0.40861,-0.21472,0.79932,1.2196,-17.76,46.44,12.78
4.6173,-8.4446,-0.5993,-0.19853,0.52504,1.2324,-17.58,46.56,12.72
4.5083,-8.6353,-0.7355,-0.18845,0.4383,1.2058,-17.28,46.68,12.54
4.2087,-8.7715,-0.7355,-0.15669,0.64935,1.0849,-16.5,46.74,12.6
4.1542,-8.9894,-0.70826,-0.11057,0.91783,0.95936,-16.08,46.86,12.48
4.3313,-9.3436,-0.74912,-0.047037,1.1784,0.82131,-15.48,46.98,12.36
4.9306,-10.256,-1.0215,0.019242,1.3164,0.60292,-14.58,47.34,12.0
5.3119,-10.774,-1.1032,0.062308,1.2526,0.49877,-14.1,47.64,11.76
5.3937,-11.264,-1.0215,0.074526,1.1695,0.45326,-13.56,47.88,11.58
5.4345,-12.027,-0.88532,0.040928,0.84055,0.37415,-13.02,48.12,11.4
5.9521,-13.729,-1.0488,-0.03207,0.60842,0.32834,-12.18,48.48,10.98
5.9112,-13.62,-1.0624,-0.08827,0.4835,0.27733,-11.76,48.78,10.86
5.598,-12.34,-0.91256,-0.21716,0.13531,-0.15852,-11.58,49.02,10.68
5.0123,-10.964,-0.85808,-0.26909,0.031154,-0.33323,-11.46,49.08,10.5
4.0316,-8.7443,-0.92618,-0.25931,0.041844,-0.75136,-10.98,49.08,10.32
3.5958,-8.7987,-0.99429,-0.17532,0.069944,-1.1808,-10.92,49.2,10.14
3.5277,-9.5206,-1.0079,-0.081245,0.1689,-1.6649,-11.16,49.2,9.78
3.4323,-11.945,-0.83084,-0.24771,0.26542,-1.8729,-12.18,49.08,9.54
3.3778,-12.381,-0.65378,-0.66645,0.3937,-2.0333,-12.72,48.9,9.42
2.9829,-11.836,-0.1362,-0.81642,0.44624,-2.0592,-13.44,48.48,9.36
2.833,-10.883,-0.10896,-1.0647,0.57208,-2.0736,-15.42,47.58,9.36
2.7104,-10.025,-0.14982,-1.175,0.71196,-2.0687,-16.62,47.04,9.42
2.6423,-9.221,-0.12258,-1.142,0.92974,-2.1087,-17.82,46.38,9.48
2.4925,-8.2539,-0.19068,-1.0461,1.0873,-2.1649,-20.76,45.0,9.42
2.547,-7.9679,-0.24517,-0.93126,1.2553,-2.2135,-22.26,44.1,9.48
2.7649,-8.0632,-0.38137,-0.87048,1.2853,-2.197,-25.8,42.3,9.06
2.8058,-7.927,-0.47671,-0.88148,1.222,-2.021,-27.78,41.28,8.88
2.8739,-7.8181,-0.46309,-0.90072,1.1518,-1.9215,-29.64,40.08,8.58
2.8467,-7.8317,-0.31327,-1.0052,0.92393,-1.5409,-31.5,39.0,8.22
2.8058,-7.7636,-0.28603,-1.0785,0.79596,-1.2584,-34.98,36.6,7.38
2.7513,-7.5457,-0.1362,-1.1258,0.73884,-0.96975,-36.6,35.58,6.96
2.5879,-7.1915,-0.01362,-1.1387,0.759,-0.68936,-39.6,33.54,5.88
2.6151,-6.9736,0.16344,-1.1099,0.91233,-0.31062,-40.86,32.46,5.22
2.8875,-7.1779,0.054481,-1.0727,0.96028,-0.17623,-42.0,31.5,4.5
3.0646,-7.641,0.054481,-0.98746,1.0156,0.21747,-43.02,30.66,3.78
3.4187,-8.0224,0.16344,-0.94745,0.9954,0.48717,-44.7,29.1,2.76
3.514,-8.2539,0.24517,-0.91691,0.94501,0.7648,-45.48,28.5,2.04
3.6639,-9.1937,0.42223,-0.89064,0.89889,1.0235,-45.9,27.9,1.44
3.5685,-9.9292,0.89894,-0.9053,0.91752,1.3671,-46.74,27.06,0.42
3.4868,-10.474,1.2531,-0.96364,1.0241,1.6228,-46.92,26.76,0.06
3.4187,-10.76,1.5255,-1.0006,1.1979,1.8989,-46.98,26.58,-0.12
3.5004,-12.721,2.0294,-1.0024,1.4093,2.2431,-46.86,26.46,-0.72
3.9635,-13.13,1.9477,-0.99143,1.6451,2.5232,-46.62,26.64,-0.96
4.699,-10.27,1.3757,-0.7981,1.7504,2.6957,-45.78,27.24,-1.08
4.6718,-8.9349,1.4301,-0.55283,1.6438,2.6081,-45.24,27.78,-1.14
4.4947,-8.4855,1.5391,-0.2642,1.4239,2.3912,-44.7,28.32,-1.14
4.2359,-9.1393,1.4301,-0.017715,1.1909,2.1255,-43.86,28.98,-1.2
4.4402,-11.019,0.62654,0.15821,0.97891,1.8573,-42.24,30.36,-1.38
4.7535,-11.237,0.14982,0.27642,0.76786,1.6851,-41.04,31.02,-1.44
4.7399,-10.937,0.14982,0.29505,0.5681,1.6133,-40.08,31.86,-1.38
3.8546,-9.6432,0.14982,0.21014,0.51496,1.4768,-37.5,33.54,-1.62
3.5549,-8.7987,0.19068,0.15882,0.66645,1.3531,-36.12,34.56,-1.8
3.337,-8.3629,0.095342,0.15272,0.78954,1.2807,-34.68,35.4,-1.98
3.3506,-7.927,-0.28603,0.22877,1.1738,1.0864,-33.48,36.12,-2.22
4.0725,-7.8998,-0.76274,0.29169,1.2428,0.98807,-30.66,37.8,-2.52
4.5901,-8.1586,-1.1032,0.32437,1.0186,0.94684,-29.4,38.52,-2.94
4.8352,-8.6625,-1.2803,0.31521,0.89736,0.92699,-27.0,39.48,-3.96
4.7399,-8.8124,-1.185,0.25412,0.67776,0.88728,-25.8,39.96,-4.26
4.5492,-8.7851,-1.0351,0.12889,0.52962,0.74678,-24.9,40.38,-4.5
4.413,-8.4174,-1.1986,0.097738,0.55253,0.59437,-22.8,41.16,-5.46
4.3994,-8.2267,-1.362,0.13195,0.60781,0.40195,-22.08,41.7,-5.94
4.5356,-8.5808,-1.471,0.19273,0.64416,0.19884,-20.64,42.24,-6.84
4.9306,-9.5751,-1.4438,0.25901,0.52412,-0.088881,-19.98,42.36,-7.26
4.9578,-10.079,-1.4029,0.2474,0.32803,-0.2584,-19.44,42.48,-7.74
4.9987,-10.324,-1.3893,0.19761,0.10201,-0.40348,-18.9,42.54,-8.16
4.6718,-11.768,-1.0488,0.20159,-0.11668,-0.46976,-18.18,42.72,-9.0
4.9306,-13.566,-1.2395,0.18662,-0.31612,-0.4441,-17.88,42.6,-9.48
5.3256,-14.492,-1.4438,-0.017715,-0.49388,-0.53909,-17.76,42.6,-9.78
4.7944,-12.054,-0.42223,-0.26176,-0.68111,-0.74403,-17.7,42.48,-10.38
4.2223,-10.488,0.01362,-0.32987,-0.6973,-1.0314,-17.52,42.36,-10.56
3.6094,-9.221,0.1362,-0.33598,-0.66737,-1.222,-17.7,42.36,-10.86
3.3506,-9.2891,0.095342,-0.15516,-0.63255,-1.7947,-18.3,41.88,-11.16
3.4596,-10.529,0.21793,-0.097433,-0.67837,-2.0824,-18.9,41.52,-11.22
3.3778,-12.054,0.57205,-0.29474,-0.67501,-2.2944,-20.22,40.74,-11.04
3.1735,-12.258,0.76274,-0.50335,-0.59498,-2.2938,-21.06,40.2,-10.92
2.9556,-11.468,0.83084,-0.59895,-0.54672,-2.2718,-22.08,39.6,-10.74
2.8467,-10.787,0.88532,-0.75625,-0.36957,-2.1762,-23.22,39.0,-10.56
2.4244,-9.3572,1.185,-0.79199,-0.19853,-2.1866,-25.8,37.86,-9.9
2.3155,-8.9213,1.2803,-0.81062,0.01069,-2.2153,-27.3,37.32,-9.66
2.4108,-8.9894,1.3893,-0.78832,0.22938,-2.2141,-28.8,36.6,-9.42
2.2474,-8.4582,1.3212,-0.78221,0.43616,-2.197,-31.74,35.22,-8.82
2.3291,-8.1177,1.185,-0.75686,0.58551,-2.1686,-33.48,34.38,-8.76
2.3155,-7.4912,0.89894,-0.69119,0.63988,-2.0821,-34.98,33.42,-8.7
2.3972,-6.5786,0.57205,-0.62827,0.57696,-1.894,-38.1,31.56,-8.7
2.5742,-6.2654,0.43585,-0.58857,0.45845,-1.7306,-39.48,30.72,-8.82
2.5061,-6.1292,0.28603,-0.57146,0.29047,-1.5327,-40.68,29.94,-9.0
2.5198,-6.1973,0.12258,-0.62736,0.043982,-1.2269,-42.96,28.2,-9.48
2.3836,-5.9657,0.16344,-0.69394,-0.073304,-1.0269,-44.04,27.3,-9.66
2.2201,-5.775,0.12258,-0.74312,-0.10599,-0.82925,-44.94,26.7,-10.02
1.7298,-5.5707,0.28603,-0.78649,-0.016188,-0.60231,-46.14,25.2,-10.56
1.5119,-5.5707,0.27241,-0.79901,0.17654,-0.34361,-46.56,24.24,-10.86
1.6889,-5.5707,0.34051,-0.80573,0.42699,-0.077885,-46.98,23.52,-11.22
2.4653,-5.5843,0.1362,-0.78802,0.6521,0.32926,-47.64,22.32,-11.7
2.8603,-5.4481,0.16344,-0.73884,0.77702,0.55314,-47.88,21.9,-11.88
3.4323,-5.2166,0.20431,-0.70799,0.75808,0.63683,-47.94,21.48,-12.12
4.5764,-6.1836,0.55843,-0.57666,0.58887,0.89706,-48.0,20.64,-12.36
4.7263,-7.1371,0.58567,-0.50091,0.45845,1.12,-47.94,20.4,-12.42
5.1757,-8.6081,0.58567,-0.46304,0.39645,1.3497,-47.94,20.34,-12.54
5.9385,-10.379,0.91256,-0.43127,0.48717,1.7495,-47.88,20.4,-12.84
5.6524,-11.496,1.1169,-0.36835,0.63286,2.0983,-47.52,20.52,-13.14
5.4345,-12.313,1.2939,-0.33048,0.74373,2.2996,-47.34,20.52,-13.26
5.5707,-14.506,1.4301,-0.19212,1.2248,2.8604,-46.98,20.7,-13.44
6.8919,-15.309,0.38137,-0.0024435,1.4184,3.1554,-46.14,21.54,-13.98
7.6002,-12.871,-1.0624,0.31826,1.2953,3.3097,-45.36,22.14,-14.22
7.7908,-11.114,-1.6072,0.6805,0.81489,3.2834,-44.46,22.74,-14.46
7.6683,-9.8611,-1.7979,1.0137,-0.21716,2.8567,-42.24,24.12,-15.06
7.4503,-9.9973,-1.6344,1.0889,-0.92882,2.5433,-41.22,24.96,-15.18
7.246,-10.025,-1.58,1.0482,-1.4652,2.2535,-39.9,25.92,-15.54
5.9385,-8.8941,-1.7979,0.93218,-1.7788,1.971,-36.96,27.66,-15.9
5.0259,-8.0905,-1.6617,0.7648,-1.8347,1.6625,-35.64,28.44,-16.08
4.2495,-7.3414,-1.6753,0.67195,-1.617,1.3555,-34.14,29.22,-16.14
3.4187,-6.5786,-1.8115,0.63194,-0.91874,0.93982,-31.56,30.72,-16.38
3.5549,-6.565,-2.0567,0.59254,-0.49511,0.67623,-30.12,31.44,-16.44
3.8682,-6.5786,-1.9341,0.56352,-0.36011,0.55161,-28.8,32.1,-16.5
4.2223,-7.0145,-1.9477,0.46609,-0.22999,0.27397,-26.46,33.18,-16.56
4.5356,-7.3414,-2.0158,0.32467,-0.29841,0.14691,-25.56,33.54,-16.62
4.4947,-6.9872,-1.8796,0.18631,-0.4215,0.025045,-24.9,33.72,-16.68
4.0589,-7.2324,-1.2531,0.12553,-0.56016,-0.15608,-23.82,34.08,-16.92
4.0452,-8.322,-0.83084,0.16829,-0.62736,-0.24251,-23.28,33.96,-16.98
4.2495,-9.4798,-0.5993,0.16402,-0.70585,-0.27,-22.98,33.84,-16.98
4.9987,-14.369,0.027241,-0.045509,-0.74617,-0.29993,-23.16,33.6,-17.22
5.2166,-16.358,0.72188,-0.49358,-0.62583,-0.42333,-23.04,33.3,-17.22
5.2847,-16.453,1.8115,-0.97677,-0.18204,-0.63316,-23.28,32.94,-17.4
5.3664,-16.372,1.8932,-1.0617,0.20983,-0.76358,-23.46,32.76,-17.28
5.7069,-16.658,1.471,-0.99938,0.56047,-0.98533,-23.7,32.58,-17.28
6.6331,-16.304,1.185,-0.94654,0.68753,-1.1359,-24.06,32.28,-17.28
6.9464,-13.906,1.362,-0.79321,0.72143,-1.5889,-25.02,31.62,-17.16
5.8976,-11.836,1.5936,-0.74678,0.64874,-1.9261,-25.5,31.38,-17.1
5.0123,-10.529,1.6617,-0.71777,0.64782,-2.3213,-26.04,31.08,-16.98
3.7728,-8.9758,1.0896,-0.58246,0.76938,-2.791,-27.54,30.36,-16.68
3.514,-8.2948,0.64016,-0.46517,0.83078,-2.905,-28.68,30.06,-16.56
3.514,-7.75,0.43585,-0.34789,0.78985,-2.9062,-29.64,29.52,-16.5
3.6094,-7.3822,0.28603,-0.28253,0.58857,-2.8408,-30.54,29.04,-16.5
3.5549,-6.6876,0.19068,-0.28619,0.27122,-2.7477,-32.82,28.02,-16.74
3.2553,-6.1836,0.20431,-0.33903,-0.091935,-2.6472,-34.14,27.36,-16.86
2.8603,-5.9657,0.19068,-0.39645,-0.42883,-2.5436,-35.52,26.58,-17.04
2.3699,-5.9112,0.25879,-0.54581,-0.69394,-2.3274,-38.04,24.84,-17.64
2.1384,-5.6388,0.1362,-0.65668,-0.73854,-2.1545,-39.36,23.94,-17.76
1.866,-5.4073,0.14982,-0.70952,-0.72815,-2.0663,-40.5,23.04,-18.0
1.2122,-4.3585,0.23155,-0.79046,-0.53603,-1.795,-42.78,20.88,-18.3
0.96704,-4.0044,0.20431,-0.77733,-0.30513,-1.6005,-43.8,19.8,-18.48
0.84446,-4.0589,0.14982,-0.65027,0.058338,-1.2767,-45.6,17.64,-18.6
0.76274,-4.5764,0.054481,-0.52809,0.23152,-0.93951,-46.2,16.56,-18.6
0.84446,-5.2711,0.054481,-0.46242,0.30513,-0.40195,-46.68,15.6,-18.54
1.7298,-7.3822,-0.095342,-0.4499,0.29932,-0.07422,-47.1,14.52,-18.54
3.9499,-10.665,0.61292,-0.58002,0.15394,1.0244,-47.64,12.42,-18.3
5.1757,-12.381,1.185,-0.70158,0.12309,1.7975,-47.58,11.64,-18.06
5.38,-13.021,1.6072,-0.74984,0.26053,2.5152,-47.46,11.04,-17.7
5.094,-14.819,1.6072,-0.61789,0.84025,3.1319,-47.1,10.44,-17.1
5.4073,-14.492,0.83084,-0.25687,1.3601,3.3262,-46.86,10.44,-16.92
5.884,-13.757,-0.10896,0.0094684,1.5391,3.4083,-46.62,10.68,-16.86
7.8589,-11.182,-2.4244,0.82436,1.3292,3.5381,-45.84,11.52,-16.8
8.0496,-10.569,-2.3836,1.1264,0.73059,3.4807,-45.3,12.18,-16.8
7.7364,-10.379,-1.7706,1.1814,0.063225,3.3793,-44.58,12.9,-16.86
6.96,-10.256,-1.185,1.0687,-0.43768,3.2614,-42.84,14.76,-16.98
6.6331,-9.7249,-1.2803,0.76389,-0.90866,3.0598,-41.94,15.78,-17.04
6.4424,-9.0031,-1.4165,0.69761,-0.9841,2.9795,-40.92,16.86,-16.98
6.0202,-7.7636,-1.5119,0.66523,-1.2495,2.6567,-38.58,19.44,-16.86
5.5843,-7.0553,-1.6753,0.74281,-1.3494,2.4315,-37.5,20.76,-17.04
5.3937,-6.7421,-1.9613,0.8543,-1.3357,2.1756,-36.36,22.02,-17.1
5.4481,-6.4424,-2.2882,0.95112,-1.2743,1.8912,-33.9,24.06,-17.22
5.489,-6.2517,-2.2201,0.97647,-1.2599,1.5769,-32.7,24.78,-17.16
5.4618,-6.2245,-2.2474,0.94684,-1.4172,1.1442,-31.44,25.44,-16.92
5.2575,-6.6331,-2.1929,0.91202,-1.5641,0.88117,-29.04,26.82,-16.5
5.1076,-7.1915,-2.1112,0.84819,-1.6793,0.63561,-27.96,27.24,-16.26
4.9987,-8.1858,-1.8387,0.74892,-1.7553,0.33323,-26.28,28.02,-16.02
5.0395,-11.795,-1.7162,0.70433,-1.7419,0.27184,-25.62,28.32,-15.84
5.3528,-14.179,-1.362,0.33537,-1.5769,0.10751,-25.2,28.5,-15.66
5.6524,-16.767,-0.91256,0.1069,-1.4581,0.02474,-24.84,28.86,-15.48
5.5435,-18.156,0.027241,-0.91477,-0.83536,-0.39584,-24.66,28.86,-15.12
5.2438,-16.413,1.4846,-1.3225,-0.29749,-0.70005,-24.42,29.04,-14.4
5.38,-15.936,1.3348,-1.4636,0.12859,-1.0208,-24.36,28.98,-13.98
5.5162,-14.124,0.83084,-1.4444,0.34911,-1.3961,-24.84,28.8,-13.08
5.1894,-12.626,0.92618,-1.2113,0.46701,-1.9609,-25.2,28.86,-12.66
4.7263,-11.319,1.0896,-1.0608,0.49755,-2.2669,-25.56,28.68,-12.18
4.2495,-10.161,1.1986,-0.95387,0.53298,-2.5275,-26.16,28.32,-11.82
3.5413,-8.6762,1.076,-0.89278,0.59956,-2.7565,-27.9,27.96,-10.5
3.2144,-7.6683,0.85808,-0.85124,0.68814,-2.9346,-28.86,27.48,-9.9
3.0646,-7.3141,0.76274,-0.81215,0.73182,-3.0574,-29.88,27.06,-9.24
3.0918,-6.7693,0.55843,-0.79229,0.71105,-3.0934,-32.1,26.04,-8.34
3.2553,-6.7693,0.54481,-0.78282,0.58521,-3.0723,-33.18,25.44,-7.86
3.3097,-6.851,0.42223,-0.79412,0.48381,-3.032,-34.38,24.72,-7.68
3.3234,-7.1779,0.19068,-0.80176,0.067195,-2.8662,-35.64,23.88,-7.5
2.942,-7.1915,0.14982,-0.86315,-0.24709,-2.6796,-38.34,21.9,-7.26
2.7649,-7.1098,0.19068,-0.91996,-0.59987,-2.3259,-39.42,20.82,-7.32
2.3836,-6.7829,0.068102,-0.95478,-0.66432,-2.1875,-40.62,19.8,-7.2
2.1248,-7.0417,0.068102,-0.94318,-0.73243,-1.8809,-42.48,17.46,-7.2
1.7434,-7.4095,0.027241,-0.88148,-0.76602,-1.5333,-43.38,16.2,-7.02
1.5663,-7.6683,0.027241,-0.80115,-0.60353,-0.9557,-43.98,15.0,-6.96
1.3212,-8.7443,0.32689,-0.78191,-0.34453,-0.49083,-45.0,12.66,-6.96
1.3212,-9.398,0.64016,-0.77916,0.23549,0.29505,-45.48,11.52,-6.84
1.5119,-10.774,1.4438,-0.76847,0.49114,0.59865,-45.78,9.66,-6.3
2.2337,-11.836,1.6344,-0.58521,1.2504,1.6811,-45.96,8.82,-6.24
3.051,-12.286,1.5527,-0.46945,1.4371,2.0559,-45.9,8.16,-6.06
5.1757,-10.76,0.65378,0.086437,1.6136,2.9774,-45.48,7.56,-5.82
5.3392,-9.3572,-0.19068,0.62522,1.332,3.3546,-45.3,7.62,-5.7
5.4345,-8.717,-0.9398,1.1359,0.87293,3.4975,-45.12,7.86,-5.58
5.9657,-10.093,-1.1032,1.6246,0.009163,3.5226,-44.58,8.7,-5.76
6.6059,-11.005,-0.92618,1.6832,-0.6747,3.4969,-44.22,9.42,-5.7
7.0281,-11.114,-1.2258,1.5241,-1.3448,3.4037,-43.74,10.32,-5.76
6.279,-9.2755,-1.362,1.277,-1.8302,3.2877,-42.66,12.24,-6.0
5.0259,-7.9951,-1.0351,1.1151,-1.982,3.0302,-42.0,13.44,-6.0
3.9227,-7.5729,-1.1986,1.0708,-1.7086,2.6869,-41.16,14.82,-6.0
3.1191,-7.8589,-1.6889,1.1194,-0.60231,2.186,-39.42,17.28,-5.88
3.7047,-8.1995,-1.9341,1.1096,-0.16616,2.0174,-38.46,18.54,-5.76
4.5356,-8.3629,-1.9613,1.0669,0.72571,1.6194,-37.38,19.92,-5.64
4.9442,-8.826,-2.0839,1.0076,0.93462,1.3885,-36.36,21.06,-5.64
5.6116,-9.1529,-2.0839,0.85307,0.93951,1.1503,-34.2,23.04,-5.64
5.9521,-8.7443,-2.3155,0.69914,0.78282,0.91385,-32.94,24.0,-5.64
6.3198,-9.1937,-2.438,0.62797,0.46914,0.71471,-30.36,25.44,-5.34
6.8783,-10.896,-2.6696,0.62675,0.037568,0.53573,-29.22,26.04,-5.4
6.9464,-12.19,-2.5879,0.37996,-0.6579,0.26725,-28.32,26.58,-5.46
6.8238,-12.926,-2.2474,0.087659,-0.99815,0.076664,-27.18,27.12,-5.58
5.9657,-14.655,-1.3484,-0.22541,-1.0956,-0.14111,-25.68,27.96,-5.88
5.4345,-15.936,-0.85808,-0.54581,-0.8995,-0.39523,-25.02,28.08,-6.06
5.4481,-17.352,-0.58567,-0.84849,-0.50793,-0.70402,-24.48,28.44,-6.06
6.0202,-16.44,-0.20431,-1.3219,-0.029016,-1.1692,-23.82,28.68,-6.3
5.4618,-13.988,0.57205,-1.4627,0.15333,-1.4881,-23.64,28.68,-6.18
5.0668,-11.918,0.76274,-1.4346,0.29566,-1.8512,-23.52,28.68,-6.0
4.3994,-10.202,0.8036,-1.2923,0.41142,-2.2242,-23.76,28.38,-5.22
4.2904,-9.8475,0.57205,-1.1454,0.49999,-2.5574,-24.24,28.2,-4.92
4.1814,-9.7385,0.54481,-1.0269,0.53878,-2.7715,-24.9,27.9,-4.62
4.0997,-9.1393,0.65378,-0.96242,0.54856,-2.9092,-26.64,27.12,-3.84
3.9771,-8.5536,0.7355,-0.97158,0.49511,-2.9065,-27.54,26.76,-3.42
3.8682,-8.3357,0.6674,-0.98471,0.44776,-2.8906,-28.56,26.28,-2.88
3.8273,-7.927,0.31327,-0.99418,0.19426,-2.9001,-30.66,24.84,-2.34
3.5822,-7.4776,0.38137,-1.0116,-0.020159,-2.9306,-31.74,24.18,-2.04
2.6151,-6.9736,0.40861,-1.0299,-0.25962,-2.8726,-34.02,22.74,-1.92
2.2201,-6.8919,0.5993,-1.0653,-0.29993,-2.7788,-35.04,21.72,-1.98
1.8932,-6.7966,0.43585,-1.0928,-0.27397,-2.6261,-36.06,20.82,-2.1
1.58,-6.7557,0.47671,-1.0974,-0.24923,-2.5155,-37.08,19.8,-2.16
1.5119,-6.6059,0.40861,-1.0653,-0.14813,-2.1194,-38.04,18.72,-2.28
1.6617,-6.5378,0.24517,-0.99388,-0.098349,-1.7987,-39.54,16.56,-2.22
1.6481,-7.1234,0.19068,-0.88362,-0.054367,-1.397,-40.02,15.42,-2.28
2.0567,-8.1177,0.57205,-0.84299,0.032376,-0.89186,-40.8,13.08,-2.22
2.261,-8.4174,0.70826,-0.82833,0.17807,-0.34697,-41.22,11.94,-2.34
2.3972,-8.6217,0.8036,-0.77091,0.36805,0.23854,-41.46,10.86,-2.46
2.5742,-9.221,0.9398,-0.58887,0.69364,1.1442,-41.64,9.9,-2.4
3.337,-11.822,1.0896,-0.3934,0.93737,1.8005,-42.0,8.46,-2.34
3.7456,-12.217,0.9398,-0.1631,1.1768,2.4679,-42.0,7.86,-2.4
4.7535,-10.706,-0.068102,0.18815,1.2098,3.0464,-41.88,7.32,-2.22
5.0123,-9.616,-1.1577,0.83169,0.80634,3.5971,-41.82,7.14,-2.34
5.1621,-9.4934,-1.7025,1.0266,0.62217,3.6768,-41.58,7.5,-2.4
5.1757,-9.7385,-1.7979,1.3842,0.075136,3.7981,-41.34,7.86,-2.7
5.6116,-11.182,-1.471,1.4004,-0.2642,3.802,-40.92,9.24,-3.24
5.9249,-11.196,-1.2258,1.2572,-0.56444,3.7461,-40.62,10.2,-3.42
6.0611,-10.42,-1.4438,1.0938,-0.78007,3.6832,-40.02,11.34,-3.48
5.993,-9.6023,-1.5527,1.0626,-0.96975,3.3906,-38.88,13.86,-3.72
5.6524,-9.3299,-2.1248,1.1878,-1.2126,3.1029,-38.16,15.3,-3.72
5.6116,-9.4661,-2.3427,1.2856,-1.2587,2.7947,-37.32,16.56,-3.84
5.4754,-9.4117,-2.9011,1.2752,-1.1472,2.4786,-35.22,19.38,-4.08
5.38,-9.0303,-2.8194,1.2089,-0.9444,2.1225,-34.2,20.82,-4.02
5.3937,-8.3765,-2.7786,1.1026,-0.80787,1.74,-33.18,22.2,-4.08
5.3937,-8.2131,-2.9011,0.99815,-0.85094,1.1487,-30.78,24.54,-4.02
5.2302,-8.54,-2.9556,0.91783,-0.93554,0.74434,-29.52,25.44,-3.9
5.0395,-8.5808,-3.0101,0.76938,-0.94531,0.40714,-28.38,26.4,-3.72
4.9306,-9.6023,-2.942,0.64416,-0.92638,0.15027,-26.04,27.96,-3.54
5.3937,-10.624,-3.1872,0.53298,-0.97005,-0.018631,-25.08,28.44,-3.48
5.9657,-12.844,-2.9011,0.29627,-1.1408,-0.15852,-24.24,28.92,-3.54
6.0474,-13.906,-2.0975,-0.12034,-1.4154,-0.33292,-22.5,29.76,-3.72
5.8023,-16.004,-0.65378,-0.38087,-1.4743,-0.45021,-22.08,29.88,-3.78
5.8023,-17.72,-0.35413,-0.49724,-1.4267,-0.49816,-21.54,30.18,-3.6
5.9657,-19.477,-0.19068,-1.5623,-0.9218,-0.89095,-21.36,30.18,-3.42
5.6388,-17.911,0.095342,-2.0653,-0.37813,-1.3806,-21.06,30.06,-3.0
3.5004,-12.612,0.92618,-2.1658,0.72204,-2.1191,-21.0,30.06,-2.64
2.3836,-10.992,1.2395,-2.098,1.6558,-2.7516,-21.24,29.82,-2.28
2.261,-10.052,1.3757,-1.8943,2.5885,-3.332,-21.84,29.52,-1.8
2.4925,-9.7658,1.3484,-1.7379,2.974,-3.5552,-22.5,29.28,-1.5
3.4323,-9.2074,1.3757,-1.2132,3.4828,-3.9773,-23.1,28.74,-1.26
5.4073,-9.0439,0.8036,-0.90469,3.1744,-4.0717,-24.96,27.6,-0.96
5.9521,-9.0712,0.25879,-0.60079,1.8292,-3.8897,-26.1,27.06,-0.96
5.5299,-8.3629,0.14982,-0.5733,1.2541,-3.8063,-28.5,25.26,-1.38
4.6854,-8.0496,0.38137,-0.59956,0.19273,-3.5986,-29.82,24.18,-1.62
3.5822,-7.6002,0.54481,-0.80298,-0.74556,-3.2452,-30.84,23.16,-2.1
2.3836,-6.8374,0.50395,-0.90164,-0.97066,-3.0079,-32.94,21.0,-3.0
1.4438,-6.1836,-0.12258,-0.94928,-0.96242,-2.7419,-34.08,19.86,-3.42
0.8717,-5.8023,-0.35413,-0.95417,-0.7535,-2.4517,-34.98,18.72,-3.96
-0.027241,-5.38,-0.57205,-0.93707,-0.13867,-1.9621,-36.84,16.02,-5.1
-0.16344,-5.1485,-0.44947,-0.96181,0.33995,-1.5675,-37.44,14.82,-5.52
-0.068102,-4.9987,-0.40861,-1.0293,0.75595,-1.1625,-37.98,13.56,-5.94
0.8717,-4.7126,0.12258,-1.0693,1.0098,-0.73426,-39.0,11.4,-6.9
1.975,-5.203,0.35413,-1.084,1.058,-0.25901,-39.36,10.38,-7.08
3.2144,-6.1155,0.61292,-1.0614,0.88637,0.24465,-39.24,9.36,-7.32
4.6445,-7.355,0.7355,-1.029,0.57452,0.78649,-39.18,7.92,-7.32
4.9306,-7.4776,0.64016,-0.90744,0.2813,1.3118,-39.12,7.5,-7.2
5.2302,-7.5184,0.69464,-0.52412,0.054367,2.0461,-39.12,7.08,-7.02
5.2302,-9.6704,1.2258,-0.22205,0.040623,2.6188,-39.24,6.6,-7.08
5.2847,-12.381,1.2803,0.01069,0.22388,3.2519,-39.06,6.48,-7.14
5.8976,-13.103,0.76274,0.2306,0.49908,3.795,-39.12,6.78,-7.14
6.674,-11.564,-0.7355,0.51129,0.60537,4.1695,-38.58,7.86,-7.38
6.5786,-11.21,-0.95342,0.81123,0.48472,4.4016,-38.34,8.7,-7.62
6.5786,-11.346,-0.85808,1.1035,0.16921,4.5122,-38.04,9.54,-7.86
6.5105,-12.217,-0.70826,1.19,-0.15119,4.3998,-37.08,11.7,-8.04
6.9464,-12.381,-1.0624,1.1576,-0.613,4.1863,-36.42,12.72,-8.16
7.246,-11.645,-1.471,1.0421,-1.1099,3.8894,-35.76,14.04,-8.1
5.884,-9.0984,-1.2803,0.94928,-1.4181,3.5354,-34.2,16.74,-8.04
5.1485,-8.5672,-1.0624,1.0165,-1.4184,2.9676,-33.18,17.94,-7.92
4.5356,-8.1041,-1.2939,1.0867,-1.3042,2.7852,-32.1,19.26,-7.86
4.6037,-8.6353,-2.5061,1.215,-0.77916,2.2318,-29.52,21.78,-7.56
4.9578,-8.8805,-2.9011,1.1487,-0.40348,1.8857,-28.26,22.98,-7.56
5.1213,-8.9622,-3.0101,0.98807,-0.10629,1.6136,-26.82,25.02,-7.68
5.884,-8.3765,-3.0237,0.81825,0.06353,1.3839,-24.3,25.74,-7.74
6.3198,-8.0905,-3.1463,0.63744,-0.07758,1.0599,-22.86,26.52,-7.86
6.6467,-8.0632,-3.1735,0.59346,-0.21166,0.9447,-21.66,27.3,-7.8
6.9872,-9.3436,-2.9011,0.51038,-0.75747,0.61178,-19.08,28.32,-7.98
7.3141,-10.924,-3.0646,0.45601,-1.15,0.42058,-17.88,28.8,-8.04
7.5321,-12.435,-2.9148,0.19914,-1.4936,0.20556,-16.98,29.1,-8.16
6.4152,-14.465,-1.3757,-0.36835,-1.7385,-0.22755,-15.24,29.7,-8.28
5.3528,-15.35,0.01362,-0.69516,-1.5021,-0.60506,-14.52,30.0,-8.52
4.4947,-17.066,0.54481,-0.8436,-1.2559,-0.7984,-13.92,30.3,-8.64
5.2575,-19.436,0.47671,-1.6683,-0.30146,-1.4591,-13.2,30.54,-8.94
5.3937,-16.862,0.72188,-2.0235,0.12156,-1.9645,-12.96,30.66,-9.0
4.7944,-14.111,1.0624,-1.9648,0.40592,-2.3075,-13.02,30.72,-8.7
3.8137,-11.496,1.471,-1.7281,0.66462,-2.7003,-13.38,30.96,-8.1
3.5822,-11.019,1.2395,-1.2724,1.0266,-3.3084,-13.8,30.9,-7.68
3.6366,-10.774,1.0079,-0.99113,1.201,-3.6322,-14.28,30.84,-7.38
3.732,-9.9292,0.57205,-0.77672,1.2648,-3.8335,-16.08,30.6,-6.72
3.9227,-9.3844,0.40861,-0.64843,1.197,-3.9266,-17.22,30.42,-6.6
3.8954,-8.717,0.40861,-0.60628,0.96089,-3.9663,-18.3,30.18,-6.42
3.9635,-8.1858,-0.027241,-0.57696,0.56261,-3.9392,-21.0,29.4,-6.54
3.8954,-8.2131,-0.19068,-0.61789,-0.15882,-3.8536,-22.44,28.98,-6.6
3.4187,-8.322,-0.19068,-0.71441,-0.56719,-3.707,-24.0,28.32,-6.72
2.4517,-8.2403,-0.14982,-0.85888,-0.79138,-3.4847,-26.94,27.0,-6.84
1.9341,-7.927,-0.20431,-1.0131,-0.82711,-3.1847,-28.44,26.1,-6.9
1.7025,-7.4503,-0.29965,-1.1518,-0.74739,-2.8753,-29.88,25.14,-7.08
1.58,-7.0145,-0.35413,-1.233,-0.58918,-2.5308,-31.32,24.06,-7.44
1.0624,-6.1019,-0.25879,-1.2352,-0.25931,-2.0461,-34.08,21.66,-7.98
0.96704,-6.3198,-0.14982,-1.244,-0.11148,-1.876,-35.28,20.52,-8.16
1.1305,-6.9464,-0.01362,-1.2969,0.42608,-1.2242,-36.36,19.26,-8.28
1.7706,-7.3414,0.35413,-1.328,0.75533,-0.70372,-38.1,16.98,-8.16
2.2065,-7.2188,0.53119,-1.2868,0.99449,-0.10599,-38.94,15.78,-8.1
2.4244,-7.1915,0.70826,-1.1692,1.1664,0.52962,-39.42,14.88,-7.98
2.8603,-9.0031,1.5936,-0.85368,1.3919,1.6774,-40.44,13.08,-7.62
3.8273,-10.665,1.5936,-0.59529,1.5388,2.5501,-40.56,12.48,-7.68
4.5083,-11.073,1.1713,-0.4386,1.5611,2.967,-40.68,12.0,-7.74
5.993,-9.7113,-0.38137,0.29596,1.1188,4.0812,-40.98,11.82,-8.04
6.0202,-9.3027,-0.8036,0.79412,0.57727,4.5161,-41.04,12.0,-8.4
5.7614,-9.398,-0.78998,1.1594,0.071777,4.7272,-40.98,12.54,-8.46
5.6388,-11.346,-0.57205,1.4215,-0.39156,4.8194,-40.02,14.28,-9.24
6.1292,-12.136,-0.64016,1.4887,-1.1115,4.652,-39.6,15.36,-9.78
6.8783,-12.531,-0.8036,1.4212,-1.3302,4.5381,-38.94,16.74,-10.32
6.5241,-11.645,-0.88532,1.1823,-1.7862,4.1279,-38.16,18.06,-10.68
5.094,-9.7658,-1.4438,1.1112,-1.7141,3.6997,-36.18,21.18,-11.1
4.413,-9.3027,-1.6072,1.0537,-1.2743,3.2681,-35.1,22.68,-11.28
3.6775,-9.1393,-1.8115,1.0702,-0.50855,2.8307,-33.66,24.24,-11.46
3.8001,-9.9292,-1.9477,1.0883,0.9221,2.3237,-30.54,27.42,-11.76
4.8897,-10.651,-2.2065,1.0043,1.6735,2.047,-28.92,28.86,-11.82
5.5571,-10.855,-2.3563,0.84025,1.9844,1.7804,-27.0,30.18,-12.0
6.674,-10.637,-2.4789,0.66004,1.8641,1.5858,-25.08,31.32,-12.12
7.4367,-10.079,-2.6015,0.4609,1.4752,1.4148,-21.06,33.42,-12.36
7.4095,-9.7522,-2.4925,0.17074,0.79748,1.12,-18.96,34.32,-12.42
6.4424,-9.9292,-2.0975,0.1069,0.56597,0.85827,-15.3,35.58,-12.72
6.2381,-11.223,-2.1112,0.1182,0.5174,0.73609,-13.5,35.94,-12.9
6.2517,-12.122,-1.866,0.03207,0.53542,0.45082,-11.82,36.3,-13.26
5.8431,-13.743,-0.8036,-0.36713,0.72449,-0.050702,-8.82,37.02,-14.28
5.38,-13.77,-0.068102,-0.59987,0.92241,-0.36133,-7.56,37.32,-14.58
5.0531,-14.492,0.8036,-0.75472,1.1723,-0.6521,-6.6,37.62,-14.88
5.38,-16.59,0.89894,-0.94592,1.5476,-1.1368,-4.86,38.04,-15.66
5.5299,-15.241,0.70826,-0.99663,1.6603,-1.536,-4.2,38.34,-15.96
5.4618,-13.866,0.61292,-0.93676,1.6386,-1.6994,-3.78,38.64,-16.02
4.8352,-11.128,0.57205,-0.54275,1.3555,-2.1118,-3.54,39.06,-16.02
4.6309,-10.542,0.35413,-0.30146,1.1173,-2.3717,-3.72,39.3,-16.08
4.5764,-9.9429,0.040861,-0.15272,0.88239,-2.6038,-4.02,39.36,-15.84
4.2223,-9.902,-0.57205,-0.007025,0.52657,-2.8811,-4.98,39.6,-15.78
3.8818,-9.8066,-0.57205,-0.048564,0.38698,-3.0687,-5.82,39.66,-15.6
3.4187,-9.6023,-0.65378,-0.14875,0.37874,-3.2058,-6.78,39.6,-15.48
3.1735,-9.3163,-0.65378,-0.25595,0.45051,-3.2553,-9.3,39.3,-15.42
3.228,-9.2755,-0.92618,-0.3656,0.5061,-3.2492,-10.92,39.0,-15.54
3.3097,-9.1529,-1.0215,-0.46487,0.50366,-3.2101,-12.6,38.82,-15.78
3.1054,-9.221,-0.9398,-0.58613,0.40745,-3.0317,-16.56,37.92,-16.26
2.9284,-9.7658,-0.85808,-0.61911,0.36408,-2.9282,-18.66,37.32,-16.8
2.7649,-10.079,-0.78998,-0.77855,0.26695,-2.5192,-20.76,36.84,-17.46
2.5198,-10.665,-0.65378,-0.91721,0.23457,-2.1652,-24.9,35.82,-18.9
2.3972,-10.474,-0.50395,-1.051,0.26817,-1.763,-26.76,35.22,-19.68
2.152,-9.507,-0.21793,-1.2043,0.46029,-1.1185,-30.66,33.96,-21.36
1.3757,-9.0031,0.095342,-1.2547,0.69944,-0.65515,-32.52,33.42,-22.02
1.3484,-9.0031,0.19068,-1.2755,0.97097,-0.1518,-34.2,32.88,-22.74
1.3893,-9.2074,0.57205,-1.2963,1.2339,0.42364,-35.52,32.4,-23.46
1.7706,-10.174,0.98067,-1.3283,1.4841,1.1035,-36.66,31.92,-24.12
3.1327,-10.42,1.1577,-1.3219,1.6851,1.7422,-38.1,31.32,-25.32
3.5822,-10.161,1.1713,-1.2682,1.7856,2.2996,-38.58,31.14,-25.92
4.2632,-9.1937,0.91256,-1.0208,1.5779,2.8026,-38.76,31.2,-26.46
4.4402,-9.0031,0.76274,-0.88973,1.4209,2.8512,-38.76,31.38,-26.46
4.4675,-9.1529,0.54481,-0.48961,0.77733,2.8011,-37.98,31.98,-26.16
4.2768,-9.8066,0.35413,-0.26878,0.30085,2.6322,-36.6,32.88,-25.62
3.8682,-10.937,0.17706,-0.17837,-0.052229,2.4798,-34.68,33.84,-24.84
3.3642,-11.155,0.23155,-0.20678,-0.17318,2.3906,-31.92,35.16,-24.06
2.8058,-10.692,0.23155,-0.31368,-0.043066,2.3451,-29.16,36.6,-22.86
2.5742,-10.311,0.28603,-0.45937,0.66462,2.299,-27.84,37.26,-22.2
2.261,-9.4117,0.20431,-0.49724,1.361,2.2089,-25.02,38.52,-21.12
2.4517,-8.7715,0.28603,-0.47159,2.0385,2.0519,-22.02,39.66,-20.22
3.0646,-8.3765,0.21793,-0.42333,2.456,1.8692,-18.72,40.56,-19.44
3.7047,-8.2812,0.40861,-0.39279,2.6649,1.6961,-15.66,41.16,-18.78
4.2223,-8.2131,0.42223,-0.38057,2.6689,1.5663,-12.66,41.82,-18.36
4.7126,-8.5127,0.39499,-0.35522,2.3311,1.4722,-9.9,42.48,-18.06
4.8761,-8.5536,0.40861,-0.32651,1.9697,1.4224,-8.4,42.66,-17.88
4.9578,-8.8805,0.50395,-0.27794,1.5925,1.3799,-5.7,43.14,-17.76
4.8625,-9.0439,0.47671,-0.2025,1.2886,1.325,-4.26,43.5,-17.82
4.6037,-8.9077,0.57205,-0.094684,1.1142,1.2361,-2.76,43.8,-17.76
4.4675,-8.9622,0.28603,0.057116,1.0629,1.0712,-1.38,44.1,-17.7
4.4675,-9.5751,0.20431,0.2755,1.102,0.93279,1.26,44.22,-17.64
4.6854,-10.27,-0.081722,0.37018,1.138,0.79901,2.52,44.4,-17.52
5.1894,-11.114,-0.65378,0.44196,1.1325,0.67012,5.16,44.58,-17.58
5.4073,-11.155,-0.81722,0.46548,1.0684,0.54275,6.24,44.76,-17.64
5.4481,-11.482,-0.8717,0.52748,0.95845,0.40225,7.44,44.7,-17.58
6.1292,-13.375,-1.5527,0.56872,0.78924,0.21075,9.54,44.76,-17.88
6.6195,-13.62,-2.0839,0.50855,0.41569,0.018937,10.62,44.64,-17.88
7.0417,-13.348,-2.547,0.45876,0.24374,-0.10049,11.4,44.58,-17.94
6.1564,-11.427,-2.3699,0.16371,-0.26145,-0.551,12.84,44.34,-18.24
5.0395,-9.9565,-1.9613,0.030238,-0.44349,-0.9615,13.44,44.22,-18.42
4.6718,-9.6704,-1.8387,0.082467,-0.56383,-1.3989,13.62,43.98,-18.42
4.5083,-10.093,-1.7843,0.099571,-0.64263,-1.8161,13.92,43.92,-18.72
3.9227,-12.871,-1.5936,-0.15394,-0.64232,-2.2929,13.92,43.62,-18.96
3.732,-13.416,-1.4846,-0.5287,-0.49358,-2.5656,13.74,43.5,-19.08
3.0646,-13.076,-1.0215,-0.74037,-0.35888,-2.6866,13.14,43.38,-19.32
2.5198,-11.005,-0.7355,-1.033,0.15669,-2.9563,11.76,43.32,-19.5
2.3836,-9.9156,-0.61292,-0.98624,0.44196,-3.0501,10.56,43.2,-19.62
2.4517,-9.7385,-0.54481,-0.88514,0.62644,-3.1102,9.24,43.2,-19.5
2.3836,-9.4798,-0.36775,-0.78007,0.75564,-3.1707,5.7,43.38,-19.5
2.3699,-9.2618,-0.32689,-0.74923,0.72296,-3.1081,3.9,43.5,-19.68
2.3836,-9.2482,-0.21793,-0.74648,0.67653,-3.0488,1.86,43.56,-19.8
2.2746,-9.0303,-0.14982,-0.80084,0.46426,-2.755,-2.58,43.62,-20.1
2.1248,-8.9894,-0.16344,-0.85582,0.33139,-2.4939,-4.74,43.62,-20.34
1.866,-9.0303,-0.16344,-0.93249,0.25534,-2.1777,-6.9,43.44,-20.34
1.4301,-8.5808,0.12258,-1.0214,0.26206,-1.6515,-10.98,43.26,-20.7
1.3212,-8.2539,0.24517,-1.095,0.40164,-1.2813,-12.96,43.2,-20.76
1.2258,-7.5321,0.36775,-1.0898,0.54978,-0.93707,-15.0,43.2,-20.7
1.4029,-6.8102,0.25879,-1.0128,0.66493,-0.59437,-18.42,42.96,-20.82
1.5936,-6.8238,0.25879,-0.89461,0.74373,-0.23671,-19.92,42.84,-20.82
1.8796,-6.9328,0.01362,-0.78282,0.75625,0.12065,-21.24,42.6,-21.06
2.5334,-7.0962,-0.12258,-0.67287,0.624,0.61606,-22.92,42.36,-21.12
2.6151,-7.2188,-0.095342,-0.66829,0.50641,0.91111,-23.58,42.12,-21.06
2.6151,-7.641,0.068102,-0.68386,0.48747,1.0623,-24.12,42.0,-21.06
2.4789,-9.8748,0.8036,-0.8656,0.62492,1.5916,-24.54,41.88,-20.82
2.4789,-11.496,1.2803,-1.0507,0.86254,2.0559,-24.72,42.06,-20.64
2.942,-13.729,1.5391,-1.2443,1.2107,2.6087,-24.78,42.18,-20.34
4.0861,-13.321,1.3757,-1.3854,1.8014,3.2025,-24.24,42.54,-19.26
4.5764,-11.046,1.0624,-1.2727,2.0821,3.3567,-23.64,42.9,-18.84
4.6173,-10.134,1.0351,-1.1493,2.178,3.3408,-22.74,43.26,-18.24
4.522,-9.4253,0.99429,-0.6411,2.2403,3.0216,-21.66,43.5,-17.58
4.2223,-10.583,0.76274,-0.30452,2.0714,2.6646,-19.02,44.4,-16.32
4.413,-11.427,0.65378,-0.074526,1.7843,2.2684,-17.46,44.88,-15.42
4.6718,-11.645,0.28603,-0.011301,1.3873,2.0223,-14.04,45.42,-13.98
4.5356,-11.25,0.39499,-0.078802,1.2456,2.0412,-12.18,45.84,-13.26
4.0589,-10.188,0.51757,-0.17898,1.2611,2.0797,-10.08,46.26,-12.48
3.9227,-9.6432,0.47671,-0.2251,1.3066,2.0748,-7.98,46.74,-11.7
3.9227,-8.1858,0.31327,-0.19914,1.4853,1.9416,-3.36,47.16,-9.9
4.0589,-7.8726,0.095342,-0.083078,1.5379,1.7975,-1.02,47.4,-9.12
4.2495,-7.8317,-0.10896,0.033292,1.493,1.6478,1.2,47.52,-8.52
4.699,-8.1858,-0.32689,0.11179,1.3964,1.5137,5.82,47.64,-7.56
4.699,-8.3493,-0.31327,0.13989,1.2297,1.3344,7.86,47.46,-7.26
4.7535,-8.6762,-0.47671,0.14019,1.1988,1.2782,9.66,47.34,-6.84
4.5764,-8.7715,-0.44947,0.1292,1.1903,1.0302,13.2,47.04,-6.42
4.4266,-9.0031,-0.44947,0.13714,1.2608,0.84147,14.88,46.8,-6.3
4.3449,-9.5206,-0.44947,0.16829,1.3806,0.66798,16.2,46.62,-6.06
4.7671,-9.7522,-0.77636,0.2022,1.5,0.44838,18.78,46.38,-5.46
5.094,-9.902,-0.98067,0.23793,1.4826,0.40317,19.92,46.08,-5.28
5.38,-10.202,-1.2667,0.31887,1.3415,0.32926,21.06,45.78,-4.98
5.7205,-10.215,-1.471,0.40195,0.98044,0.15058,22.5,45.3,-4.68
5.7614,-10.311,-1.5119,0.4499,0.70036,-0.0042761,23.16,45.12,-4.56
5.8023,-12.272,-1.8387,0.57024,0.36011,-0.12889,23.76,45.06,-4.44
6.1292,-14.152,-1.9886,0.56597,0.020159,-0.24404,24.24,44.7,-4.08
6.3471,-14.928,-2.0431,0.34117,-0.45479,-0.48808,24.54,44.7,-3.96
6.0747,-14.805,-1.9886,0.21075,-0.57757,-0.61361,24.72,44.7,-3.96
4.6173,-11.346,-1.4165,-0.22449,-0.6521,-1.1897,24.54,44.58,-3.96
3.9908,-9.5615,-1.2122,-0.2755,-0.51801,-1.7061,24.18,44.52,-4.02
3.3778,-8.9894,-1.1169,-0.095906,-0.40989,-2.2217,23.94,44.76,-4.14
3.4732,-11.536,-1.2531,0.076053,-0.3488,-2.8439,22.86,44.94,-4.44
3.514,-12.83,-1.185,-0.17074,-0.28802,-3.0806,22.08,45.06,-4.44
3.3506,-14.533,-0.83084,-0.50885,-0.18906,-3.2489,20.94,45.12,-4.56
2.8058,-13.116,-0.095342,-0.82956,-0.019853,-3.2779,18.42,45.54,-4.74
2.656,-11.931,0.068102,-0.98746,0.14844,-3.1835,16.8,45.6,-4.74
2.4653,-11.128,0.054481,-1.0107,0.29688,-3.0846,14.94,45.66,-4.56
2.1384,-10.174,0.095342,-0.89736,0.52687,-3.0549,10.86,45.78,-4.38
2.152,-9.6704,0.23155,-0.8039,0.65454,-3.0244,8.4,45.66,-4.2
2.0567,-9.0575,0.29965,-0.7535,0.7138,-2.9774,5.76,45.48,-4.02
2.152,-8.5263,0.24517,-0.6576,0.74617,-2.7519,3.12,45.42,-3.78
2.4789,-7.7091,-0.19068,-0.60659,0.62736,-2.5311,-2.1,44.94,-3.3
2.9284,-7.5729,-0.49033,-0.57971,0.38393,-2.2568,-4.74,44.52,-3.24
3.051,-7.5321,-0.47671,-0.63011,0.087048,-1.9529,-7.38,44.22,-3.06
3.0646,-7.0962,-0.27241,-0.79321,-0.20831,-1.4652,-12.48,43.44,-2.88
2.9829,-6.8102,-0.21793,-0.84727,-0.23824,-1.3192,-14.64,42.9,-2.58
2.9011,-6.3335,-0.21793,-0.93615,-0.17135,-0.86682,-16.74,42.42,-2.52
3.2416,-6.3471,-0.16344,-0.95661,-0.065668,-0.57971,-20.28,41.4,-2.22
3.4187,-6.7693,-0.23155,-0.94684,0.033292,-0.2926,-21.78,40.74,-2.22
3.4459,-7.4231,-0.095342,-0.9783,0.14905,-0.025962,-23.1,40.14,-2.04
3.2689,-7.6546,0.14982,-1.0898,0.41417,0.31521,-25.02,39.18,-1.74
2.9965,-7.6546,0.38137,-1.1475,0.65515,0.56047,-25.68,38.76,-1.44
2.9148,-8.0496,0.64016,-1.1646,0.78435,0.72296,-26.1,38.34,-1.08
2.7649,-10.025,1.6344,-1.2798,1.2208,1.3292,-26.82,37.8,-0.3
3.2553,-10.774,1.8251,-1.3732,1.5272,1.8247,-27.06,37.5,0.24
4.0316,-10.651,1.7025,-1.3305,1.8054,2.4425,-27.06,37.26,1.44
4.6854,-8.8805,1.4029,-1.0983,1.7449,2.7391,-27.12,37.08,2.16
4.6582,-8.4719,1.2258,-0.93432,1.6762,2.8274,-26.94,37.08,2.52
4.4811,-8.8532,1.1169,-0.55528,1.4667,2.9199,-26.64,37.14,3.06
4.6854,-10.869,0.5993,-0.0073304,1.0211,2.9483,-25.74,37.38,4.08
4.9578,-11.741,0.29965,0.23396,0.67531,2.9777,-25.14,37.68,4.44
5.4073,-11.959,0.054481,0.3543,0.31765,3.0323,-24.42,38.1,4.86
5.1076,-11.25,0.01362,0.3934,-0.068111,3.076,-22.56,38.88,5.82
4.7399,-10.351,0.01362,0.39523,-0.11148,3.0003,-21.42,39.36,6.3
4.5356,-9.8748,-0.095342,0.41172,-0.072082,2.9144,-20.04,39.84,6.54
4.2904,-9.2346,-0.50395,0.53695,0.23366,2.6063,-18.6,40.44,6.66
4.699,-8.7306,-1.0351,0.62094,0.43768,2.3683,-15.36,41.64,7.26
4.9714,-8.5536,-1.0351,0.67012,0.47037,2.1212,-13.5,42.12,7.32
5.1213,-8.5127,-1.1986,0.67134,0.24587,1.7883,-11.58,42.42,7.38
5.1757,-8.145,-1.4165,0.58368,0.058948,1.5879,-7.44,43.32,7.62
5.0531,-7.9134,-1.362,0.51191,-0.070555,1.3781,-5.46,43.68,7.62
4.9033,-7.6819,-1.3348,0.4777,-0.10599,1.1597,-3.6,44.04,7.38
4.6173,-7.5321,-1.58,0.45296,-0.058338,0.92821,0.06,44.64,7.26
4.6718,-7.4912,-1.9068,0.43524,0.025351,0.67928,1.86,44.76,7.2
4.7399,-7.4503,-2.0975,0.41386,0.075747,0.42241,3.72,44.82,6.96
4.8625,-7.1507,-2.3427,0.37446,-0.036652,-0.051007,6.54,44.88,6.24
4.8625,-7.1507,-2.3427,0.29077,-0.096517,-0.16616,6.54,44.88,6.24
4.7944,-6.7693,-2.0703,0.24099,-0.23518,-0.36133,7.62,44.82,5.94
4.8352,-7.0009,-2.1656,0.21289,-0.42547,-0.52962,9.18,44.82,5.52
4.8352,-7.5457,-2.0567,0.1405,-0.65485,-0.66737,9.9,44.88,5.1
4.8625,-8.1041,-1.975,0.03146,-0.86407,-0.78649,10.26,44.94,4.86
4.6037,-8.7306,-1.5255,-0.18601,-1.0348,-0.978,10.56,45.24,4.5
4.7399,-9.4389,-1.1169,-0.26603,-1.0828,-1.1243,10.5,45.12,4.5
4.8761,-10.324,-0.95342,-0.27703,-1.0886,-1.204,10.32,45.12,4.32
5.4209,-14.369,-0.27241,-0.48381,-1.0363,-1.489,9.6,45.12,4.44
5.8976,-16.222,0.44947,-0.87079,-0.91813,-1.7791,8.94,45.06,4.62
6.2517,-17.216,1.58,-1.3186,-0.73976,-2.2058,7.32,45.12,5.16
5.8295,-18.347,1.6617,-1.471,-0.60353,-2.3531,6.3,45.18,5.64
5.6933,-18.319,1.4301,-1.4926,-0.39492,-2.4764,5.22,45.18,6.18
5.8023,-17.216,1.1577,-1.4126,-0.22938,-2.5305,3.96,45.06,6.84
5.2575,-14.152,1.2258,-1.2565,-0.14966,-2.5455,1.38,44.28,8.22
4.3177,-12.572,1.5391,-1.1038,-0.055894,-2.5824,-0.06,43.98,8.88
3.514,-11.046,1.6208,-0.9841,0.068111,-2.66,-1.5,43.56,9.6
2.5061,-9.0303,1.3348,-0.80451,0.35277,-2.7006,-4.74,42.54,10.44
2.1793,-8.3765,1.0896,-0.67165,0.53451,-2.6328,-6.42,42.18,10.92
2.1248,-7.8589,0.8036,-0.61423,0.59498,-2.573,-7.92,41.76,11.22
2.2882,-6.5786,0.57205,-0.46304,0.62308,-2.2739,-11.28,40.68,11.64
2.3427,-6.0611,0.46309,-0.39798,0.48381,-2.0351,-12.78,40.08,11.7
2.1656,-5.8159,0.39499,-0.37629,0.25931,-1.7895,-14.28,39.42,11.76
1.8524,-5.3392,0.28603,-0.38973,0.0027489,-1.5632,-16.86,38.1,11.52
1.6889,-5.3119,0.19068,-0.4441,-0.21105,-1.3491,-18.06,37.44,11.28
1.3757,-5.2302,0.19068,-0.49816,-0.35247,-1.0305,-19.14,36.9,11.04
0.77636,-5.2847,0.25879,-0.60262,-0.30665,-0.81612,-20.76,35.76,10.38
0.50395,-5.2166,0.24517,-0.69975,-0.10751,-0.57299,-21.54,35.16,10.2
0.39499,-4.985,0.1362,-0.7422,0.17807,-0.33506,-22.08,34.74,9.9
0.8036,-4.8352,-0.19068,-0.73059,0.624,0.1011,-23.04,33.72,9.6
1.3893,-5.0668,-0.12258,-0.71319,0.82375,0.42089,-23.4,33.18,9.48
1.866,-5.4754,0.027241,-0.7025,0.8717,0.59376,-23.88,32.64,9.48
3.4323,-7.3005,0.34051,-0.68692,0.85216,1.2171,-24.42,31.8,9.54
4.699,-8.5127,0.51757,-0.67287,0.70311,1.7028,-24.72,31.62,9.54
5.9249,-9.793,0.42223,-0.6182,0.51038,2.1115,-25.02,31.32,9.6
6.8919,-11.741,0.57205,-0.4499,0.27214,2.6411,-25.44,30.9,10.2
6.5514,-13.293,0.8717,-0.31429,0.39615,2.9624,-25.5,30.84,10.5
6.3335,-14.764,1.0351,-0.26114,0.60109,3.1209,-25.5,30.78,10.8
7.7091,-15.023,0.19068,-0.043677,1.3873,3.4465,-25.44,31.08,11.7
7.7636,-13.089,-0.64016,0.23182,1.5944,3.5018,-25.14,31.2,12.06
7.5593,-11.06,-1.0351,0.54825,1.6075,3.3814,-24.78,31.44,12.48
7.641,-10.433,-1.4574,0.8769,1.2682,3.0931,-23.82,32.1,13.32
7.7364,-10.787,-1.4438,0.94379,0.74617,2.9215,-23.22,32.58,13.5
7.8862,-11.087,-1.58,0.92454,0.44043,2.8482,-22.44,33.06,13.86
7.5321,-9.4389,-1.3484,0.81886,-0.47525,2.6594,-20.46,34.08,14.52
6.7966,-8.3629,-1.2395,0.79138,-0.98533,2.4538,-19.2,34.44,14.76
5.8704,-7.75,-1.3212,0.83475,-1.2523,2.1695,-17.82,35.04,14.94
4.9033,-7.4503,-1.5527,0.92821,-1.1921,1.715,-14.94,36.24,15.12
5.0259,-7.4095,-1.7843,0.92729,-1.0107,1.4093,-13.5,36.78,15.12
5.1485,-7.3958,-1.8796,0.90347,-0.89614,1.0965,-11.94,37.32,15.0
5.1485,-7.4231,-1.8932,0.84055,-0.83322,0.79382,-10.38,37.86,14.7
4.9714,-7.3822,-2.0158,0.7535,-0.76877,0.51129,-7.44,39.12,14.28
4.9169,-7.4503,-1.975,0.67165,-0.73182,0.24832,-6.24,39.48,13.92
4.9987,-7.6683,-2.0294,0.5623,-0.72601,0.028405,-5.04,39.84,13.44
4.8488,-8.2539,-2.0431,0.39156,-0.72601,-0.25504,-2.58,40.26,12.66
4.8625,-9.0031,-1.9341,0.28833,-0.68447,-0.39737,-1.56,40.44,12.36
5.1894,-10.283,-1.8115,0.24984,-0.67714,-0.45754,-0.54,40.74,12.12
6.7421,-13.348,-1.6072,-0.023824,-0.77152,-0.60323,0.78,41.04,11.46
7.1915,-14.887,-0.8717,-0.33842,-0.9893,-0.77488,1.2,41.16,10.92
6.7285,-15.8,0.53119,-0.67806,-1.1454,-0.9444,1.74,41.16,10.74
5.2575,-16.916,1.0896,-0.98594,-1.1157,-1.1518,2.16,40.92,10.26
5.3119,-17.516,0.89894,-1.3091,-0.71563,-1.4777,2.22,40.74,10.14
5.6388,-17.148,0.76274,-1.3775,-0.56139,-1.5892,2.22,40.56,10.08
5.4345,-14.043,1.2803,-1.3607,-0.40256,-1.8341,1.86,40.14,10.14
4.8625,-12.612,1.7298,-1.2651,-0.42913,-2.0305,1.56,39.9,10.2
4.2632,-11.346,1.8932,-1.0922,-0.36988,-2.3305,0.48,39.54,10.5
3.1735,-9.6023,1.6889,-0.94867,-0.24435,-2.4743,-0.18,39.42,10.68
2.7649,-8.8668,1.3348,-0.86987,-0.15669,-2.5198,-1.08,39.24,10.86
2.5334,-8.3493,1.0351,-0.73273,0.040928,-2.5464,-1.92,38.94,10.98
2.5061,-7.5457,0.96704,-0.62858,0.27917,-2.4758,-3.66,38.58,11.16
2.5334,-6.7829,0.8717,-0.61911,0.35797,-2.3885,-4.62,38.34,11.34
2.438,-6.2381,0.64016,-0.64935,0.30329,-2.2245,-6.6,38.04,10.98
2.3836,-5.9793,0.47671,-0.67592,0.17135,-2.0965,-7.68,37.86,10.8
2.2474,-5.8023,0.42223,-0.71777,0.040317,-1.9923,-8.64,37.68,10.68
2.0975,-5.7342,0.40861,-0.7477,-0.083383,-1.8286,-9.72,37.44,10.62
1.6481,-5.4073,0.42223,-0.79718,-0.14905,-1.6451,-11.82,37.02,10.08
1.3212,-5.2575,0.44947,-0.82436,-0.15485,-1.4364,-12.84,36.84,9.84
1.0896,-5.3119,0.46309,-0.84025,-0.08491,-1.1866,-13.68,36.54,9.66
0.96704,-5.5707,0.27241,-0.83933,0.048869,-0.88056,-15.06,36.06,9.36
1.1577,-5.8295,0.28603,-0.80359,0.21655,-0.551,-15.78,35.76,9.18
1.5936,-6.3879,0.21793,-0.73457,0.35827,-0.20953,-16.5,35.52,9.12
2.152,-7.6002,0.47671,-0.63225,0.49602,0.40775,-17.64,34.8,9.12
2.7377,-8.7987,0.7355,-0.5959,0.57605,0.88514,-18.06,34.56,9.3
3.4459,-9.6023,0.88532,-0.53665,0.64232,1.3748,-18.6,34.32,9.6
5.5026,-11.25,1.2258,-0.32284,0.57941,2.0342,-19.14,33.9,10.08
6.0338,-11.455,1.0896,-0.11942,0.47067,2.3579,-19.32,33.84,10.32
6.0338,-11.441,1.0079,0.21502,0.32712,2.5962,-19.44,33.84,10.44
5.5299,-12.517,0.78998,0.55894,0.21197,2.733,-19.38,33.72,10.74
5.5299,-12.667,0.44947,0.85491,0.21808,2.7947,-19.26,33.78,11.04
5.6252,-12.272,0.12258,1.0971,0.26084,2.879,-18.96,33.96,11.28
5.3392,-11.019,-1.0079,1.2514,0.34819,2.9419,-17.88,34.5,11.46
5.1894,-10.896,-1.2258,1.3323,0.44776,2.9511,-17.16,34.92,11.52
5.0804,-10.869,-1.3484,1.2281,0.55955,2.9172,-16.32,35.4,11.58
5.2847,-11.087,-1.362,1.0269,0.61789,2.8503,-14.34,36.36,11.64
5.8295,-10.665,-1.4029,0.80756,0.57238,2.7248,-13.26,36.78,11.58
6.1019,-9.9973,-1.4574,0.69058,0.36988,2.5479,-11.88,37.26,11.34
5.6661,-8.6762,-1.6208,0.6524,0.1631,2.3085,-9.18,38.04,10.98
5.3937,-8.0905,-1.8932,0.76511,0.0033598,1.8231,-7.92,38.46,10.74
5.3664,-7.7364,-1.9886,0.80329,-0.037874,1.6674,-6.3,38.7,10.62
5.2847,-7.75,-2.1929,0.93707,-0.20983,1.2474,-3.12,39.24,10.14
5.2575,-7.8862,-2.3155,0.93737,-0.37874,1.0006,-1.5,39.48,9.78
5.2847,-7.8998,-2.4108,0.82192,-0.57024,0.77946,0.06,39.72,9.3
5.1213,-7.5729,-2.2882,0.68814,-0.75198,0.45998,2.58,40.14,8.58
4.9714,-7.4503,-2.2474,0.49388,-0.8995,0.27153,4.02,40.2,8.1
4.7944,-7.3958,-2.1793,0.42608,-0.89614,0.079107,5.28,40.14,7.56
5.3664,-8.8941,-2.2474,0.36408,-0.90042,-0.085216,7.56,40.32,6.54
6.3471,-10.311,-2.2337,0.28405,-1.0015,-0.24893,8.64,40.5,6.18
6.674,-12.258,-1.8387,0.095295,-1.1719,-0.3992,9.36,40.5,5.64
6.7829,-14.887,-1.1032,-0.14569,-1.3173,-0.60384,10.56,40.74,4.5
6.7557,-16.617,-0.50395,-0.78405,-1.2538,-0.81337,11.16,40.92,4.08
6.279,-17.175,0.25879,-1.2416,-0.95906,-1.0843,11.52,41.16,3.3
5.8976,-16.331,0.5993,-1.6002,-0.5565,-1.3595,11.52,41.34,3.06
5.38,-15.214,0.77636,-1.7752,-0.1237,-1.6545,11.52,41.58,2.88
5.1894,-14.71,0.77636,-1.8384,0.30421,-2.0204,11.28,41.64,2.88
4.5083,-12.83,0.99429,-1.7923,0.71746,-2.3699,10.5,41.82,3.06
4.4539,-12.258,1.2258,-1.6686,1.1585,-2.7223,9.66,42.0,3.18
4.3858,-11.427,1.2803,-1.6099,1.2297,-2.8014,8.7,42.24,3.54
4.1542,-10.038,1.2939,-1.4615,1.2437,-2.9083,7.74,42.36,3.72
4.018,-9.6023,1.1441,-1.1976,0.97494,-2.9355,4.86,42.36,4.44
3.8682,-9.0167,0.99429,-1.0348,0.65088,-2.8851,3.42,42.48,4.92
3.7047,-8.5808,0.96704,-0.93187,0.27947,-2.7804,1.86,42.48,5.34
2.9556,-7.0417,0.92618,-0.81489,-0.23152,-2.565,-1.68,42.3,5.88
2.6832,-6.6604,0.9398,-0.75289,-0.48136,-2.4114,-3.42,42.12,6.06
2.2474,-6.1836,0.95342,-0.72265,-0.57177,-2.3482,-5.1,42.06,6.36
2.2474,-6.1836,0.95342,-0.65973,-0.73273,-2.0165,-10.44,41.22,7.14
1.362,-5.993,0.8036,-0.65973,-0.73273,-2.0165,-10.44,41.22,7.14
1.1713,-5.9521,0.83084,-0.65607,-0.6973,-1.8201,-11.94,40.86,7.44
0.5993,-5.6524,0.65378,-0.66859,-0.5959,-1.5666,-15.0,39.9,7.8
0.46309,-5.5026,0.6674,-0.66157,-0.42761,-1.2871,-16.2,39.36,7.98
0.40861,-5.4073,0.47671,-0.59743,-0.2248,-0.9725,-17.46,38.88,8.16
0.28603,-6.2926,0.54481,-0.44471,0.13286,-0.35522,-19.5,37.8,8.52
0.77636,-7.6955,0.50395,-0.36835,0.42333,0.19303,-20.4,37.26,8.64
1.6481,-9.3299,0.8036,-0.37965,0.7422,0.78557,-21.06,36.66,9.0
3.3506,-10.052,0.95342,-0.37721,1.0198,1.3689,-22.08,35.88,9.6
3.7456,-9.8066,0.95342,-0.22907,1.2147,1.9725,-22.5,35.52,9.9
4.4539,-9.8884,0.72188,0.051007,1.3366,2.4291,-22.98,35.16,10.08
4.8761,-11.891,0.38137,0.55711,1.3583,3.0146,-23.34,35.1,10.2
5.6252,-13.334,-0.27241,0.83139,1.2529,3.28,-23.52,35.22,10.2
6.3335,-13.293,-0.7355,1.0614,1.0595,3.4722,-23.46,35.4,10.14
7.1643,-12.286,-1.2531,1.2144,0.63041,3.7153,-22.8,36.36,9.84
7.4503,-11.85,-1.2939,1.2107,0.33323,3.7119,-22.26,36.9,9.66
7.5729,-11.577,-1.4438,1.1921,0.17226,3.6756,-21.36,37.38,9.48
7.7908,-11.141,-1.9886,1.1252,-0.43799,3.3653,-20.46,38.04,8.94
7.4231,-10.447,-1.9886,1.0547,-0.74678,3.0204,-17.94,39.36,8.46
6.6331,-9.3844,-1.9205,0.94409,-0.78069,2.6582,-16.62,40.14,8.04
5.993,-8.6353,-1.8796,0.84055,-0.55528,2.3277,-13.32,41.34,6.9
5.9249,-7.4776,-2.4108,0.81673,-0.12156,1.8439,-11.46,42.06,6.36
6.1973,-7.2869,-2.4517,0.86224,-0.030238,1.5458,-9.6,42.6,5.88
6.3471,-7.1915,-2.5061,0.85491,-0.12065,1.2767,-7.68,43.02,5.34
6.6195,-7.3822,-2.5198,0.85735,-0.35247,1.0516,-3.78,43.86,4.56
6.6876,-7.5729,-2.6015,0.81673,-0.67195,0.82436,-2.04,44.1,3.96
6.5378,-7.6138,-2.4108,0.70188,-0.9893,0.58826,-0.12,44.28,3.6
5.6661,-7.1507,-2.2201,0.54917,-1.2013,0.32987,3.0,44.4,2.4
5.38,-7.2869,-2.0294,0.45845,-1.2474,0.07422,4.26,44.64,1.92
5.2847,-8.2403,-1.975,0.45998,-1.1991,-0.24251,5.58,44.76,1.44
6.674,-11.632,-1.9341,0.38393,-1.2178,-0.34483,7.38,44.94,0.3
7.2869,-14.996,-1.5119,0.069639,-1.3207,-0.43433,7.98,44.88,-0.18
7.464,-16.985,-0.21793,-0.39798,-1.4135,-0.53603,8.46,45.0,-0.6
6.674,-18.646,1.2395,-1.1683,-1.2776,-0.79932,8.82,45.0,-1.2
6.2517,-18.823,1.6889,-1.4004,-1.1283,-0.90194,8.94,45.12,-1.32
5.884,-18.415,1.6481,-1.7837,-0.6411,-1.1936,8.76,45.18,-1.62
5.3528,-14.547,1.3212,-1.9096,0.040012,-1.7514,8.1,45.06,-1.44
4.6718,-13.116,1.1577,-1.6918,0.30879,-2.1451,7.5,45.0,-1.26
4.0316,-11.959,1.2803,-1.4505,0.57238,-2.5644,6.72,45.06,-0.96
3.3915,-10.351,1.4982,-1.1545,0.93401,-2.9688,4.68,44.88,-0.36
3.4459,-9.7522,1.1169,-1.0049,1.0864,-3.0873,3.48,44.64,-0.12
3.4732,-9.1801,0.96704,-0.87659,1.1585,-3.1145,2.04,44.64,0.3
3.337,-8.1177,0.77636,-0.80512,1.1109,-3.0797,-0.9,44.58,1.02
3.0918,-7.0962,0.9398,-0.7648,0.9728,-3.0201,-2.34,44.46,1.44
3.0373,-6.5105,0.8036,-0.71868,0.73915,-2.9349,-4.02,44.28,1.8
2.6423,-6.0883,0.46309,-0.68295,0.4386,-2.7104,-7.5,43.92,2.34
2.5061,-6.0883,0.47671,-0.65424,-0.069333,-2.5052,-9.12,43.62,2.4
2.3699,-6.0611,0.35413,-0.67287,-0.35461,-2.2694,-10.92,43.14,2.46
2.0294,-5.8023,0.39499,-0.69608,-0.46181,-2.1435,-12.66,42.72,2.58
0.99429,-5.3528,0.6674,-0.77397,-0.58521,-1.7807,-15.9,41.82,2.52
0.57205,-5.2166,0.78998,-0.84238,-0.489,-1.5269,-17.4,41.16,2.34
0.28603,-5.1213,0.78998,-0.86957,-0.10049,-1.1481,-19.86,40.14,2.4
0.24517,-4.7399,0.43585,-0.8375,0.21105,-0.8323,-20.94,39.54,2.4
0.77636,-4.808,0.38137,-0.73762,0.4444,-0.48839,-21.66,38.82,2.4
1.4301,-5.0395,0.31327,-0.64385,0.54764,-0.079718,-22.62,37.98,2.64
2.3018,-6.851,0.55843,-0.54764,0.53054,0.43738,-24.12,36.84,2.88
2.7513,-7.8317,0.96704,-0.5058,0.50152,1.0238,-24.66,36.36,3.06
4.0997,-8.9213,1.1713,-0.42944,0.48594,1.6154,-24.96,35.82,3.42
5.7069,-10.774,0.81722,-0.17532,0.39737,2.4725,-25.56,34.86,3.84
6.3198,-11.931,0.8036,-0.064141,0.35339,2.7367,-25.74,34.68,4.2
6.5105,-13.539,0.62654,0.3543,0.37018,3.5329,-25.68,34.5,4.32
7.8862,-14.819,-0.65378,0.66157,0.49327,3.9083,-25.44,34.62,4.56
8.1586,-13.702,-1.4165,0.94104,0.44715,4.112,-25.02,34.86,4.74
7.6955,-12.64,-1.6481,1.1377,0.32956,4.1304,-24.54,35.1,4.62
7.0962,-12.245,-1.185,1.2107,0.36346,3.9547,-23.1,36.0,4.68
7.1915,-12.313,-1.1986,1.1872,0.33139,3.7455,-22.26,36.54,4.68
7.3822,-12.217,-1.4846,1.1585,0.22571,3.6307,-20.94,37.14,4.44
7.8317,-10.583,-2.0431,1.0745,-0.37874,3.2364,-18.0,38.1,4.2
7.4776,-9.4525,-1.866,1.0379,-0.85338,2.9099,-16.44,38.46,4.02
6.6604,-8.4719,-1.6072,1.0098,-1.1933,2.5418,-14.7,39.0,3.72
5.0804,-7.1098,-1.6889,1.0324,-1.175,1.9584,-11.04,40.2,3.12
4.7263,-6.7148,-2.3699,1.0379,-1.0647,1.7584,-9.0,40.62,2.88
4.7671,-6.7012,-2.547,1.0525,-0.81978,1.3812,-6.9,41.04,2.52
4.8761,-7.0281,-2.7241,0.9728,-0.47586,0.94776,-3.0,41.52,1.74
4.9987,-7.0962,-2.6287,0.80909,-0.34697,0.71868,-1.26,41.58,1.26
5.2575,-7.0009,-2.547,0.6463,-0.34208,0.53909,0.6,41.7,0.84
5.8295,-7.4367,-2.6832,0.53145,-0.47892,0.36285,3.6,41.64,-0.12
5.993,-7.9679,-2.8603,0.40073,-0.71899,0.20831,5.04,41.52,-0.6
5.9249,-8.3493,-2.7377,0.15272,-1.0696,-0.062003,6.24,41.46,-1.02
5.1485,-10.025,-2.1656,0.020159,-1.0889,-0.2361,8.1,41.34,-2.1
5.2847,-11.618,-2.0975,-0.10415,-0.99082,-0.37477,8.82,41.22,-2.52
5.8976,-13.893,-1.7979,-0.35216,-0.89797,-0.53542,9.36,41.16,-2.88
5.7614,-17.407,-0.21793,-1.1869,-0.64813,-0.96517,9.78,40.92,-3.48
4.9033,-17.597,1.5391,-1.6878,-0.24068,-1.3534,9.84,40.86,-3.78
4.6854,-17.897,1.7025,-1.9236,0.28527,-1.6619,9.54,40.8,-3.84
5.3119,-17.938,0.88532,-1.9835,0.69578,-1.996,8.88,40.62,-3.72
5.5026,-16.413,0.70826,-1.8039,0.80573,-2.2575,8.46,40.44,-3.54
5.1485,-14.805,0.92618,-1.5214,0.78191,-2.4618,7.74,40.32,-3.3
4.0452,-11.918,1.471,-1.2624,0.71929,-2.766,6.3,40.2,-2.58
3.6639,-11.141,1.4165,-0.99785,0.67348,-2.9248,5.28,40.14,-2.28
3.2825,-10.256,0.98067,-0.91477,0.66126,-2.985,4.2,40.02,-1.92
2.9556,-9.112,0.38137,-0.73609,0.65301,-3.0836,1.8,39.96,-1.2
2.833,-8.54,0.40861,-0.697,0.58338,-3.0348,0.36,39.9,-0.9
2.656,-7.8317,0.40861,-0.71502,0.45112,-2.9181,-1.14,39.84,-0.6
2.4925,-6.4152,0.14982,-0.7309,0.27397,-2.7929,-3.84,39.6,-0.18
2.2474,-5.5435,0.14982,-0.72968,-0.031154,-2.5528,-5.28,39.48,-0.18
1.9886,-5.3119,0.14982,-0.70372,-0.18326,-2.357,-6.6,39.42,-0.18
1.6617,-5.2575,0.29965,-0.7196,-0.24343,-2.1383,-7.86,39.18,0.06
1.0896,-5.3256,0.44947,-0.73945,-0.22235,-1.9141,-10.44,39.0,0.3
0.89894,-5.3392,0.57205,-0.76786,-0.13256,-1.6533,-11.76,38.76,0.24
0.72188,-5.3528,0.57205,-0.78527,0.016493,-1.3589,-13.08,38.52,0.36
0.70826,-5.0395,0.54481,-0.76908,0.27642,-0.87568,-15.24,37.8,0.48
0.7355,-4.8897,0.44947,-0.71838,0.43616,-0.53145,-16.14,37.56,0.6
0.91256,-4.8625,0.50395,-0.65851,0.56261,-0.17074,-16.98,37.26,0.6
1.185,-5.2983,0.57205,-0.59651,0.6182,0.24251,-17.88,36.9,0.78
2.1112,-6.9191,0.85808,-0.56413,0.63774,0.73334,-18.78,36.18,1.02
2.9148,-8.1177,0.98067,-0.54214,0.60812,1.5067,-19.26,36.0,1.26
4.5356,-9.9973,1.076,-0.49724,0.48686,1.7767,-19.86,35.58,1.92
4.9306,-10.869,1.2803,-0.38179,0.35552,2.3231,-20.04,35.28,2.28
4.9442,-11.7,1.6072,-0.20189,0.34667,2.8176,-20.04,35.1,2.4
4.6718,-14.383,1.8115,0.14019,0.62705,3.6435,-20.04,34.98,2.64
5.5435,-16.344,0.8036,0.41203,0.9893,4.0613,-19.32,35.16,2.88
6.3879,-15.159,-0.29965,0.78802,1.1466,4.3295,-18.66,35.16,2.76
7.0962,-12.994,-1.3212,1.1692,0.9951,4.4495,-17.22,35.64,2.88
7.5184,-11.877,-2.0294,1.434,0.64904,4.3616,-16.14,35.88,2.94
7.5729,-11.632,-1.975,1.5446,0.065057,4.1123,-14.94,36.06,2.94
7.3141,-11.427,-1.8932,1.2782,-0.75075,3.4676,-11.76,36.66,2.76
7.4776,-10.665,-1.3484,1.1616,-1.4597,2.9609,-10.2,36.72,2.58
6.4152,-9.5751,-1.0215,1.0177,-2.1218,2.6395,-8.4,36.78,2.52
3.337,-8.5808,-1.4029,1.0043,-1.7028,2.0125,-4.68,36.9,1.8
2.8058,-8.1722,-1.7979,0.98288,-1.303,1.781,-2.7,37.02,1.38
2.7513,-7.7364,-1.9886,0.90469,-0.40012,1.357,-0.84,37.08,1.14
3.1735,-7.3141,-2.0975,0.88881,0.73395,0.81367,0.84,37.2,0.54
3.9908,-7.5457,-2.3155,0.8323,1.2019,0.55314,4.14,37.14,-0.48
4.6582,-7.6274,-2.3018,0.70616,1.3555,0.35613,5.64,36.96,-0.9
5.1757,-7.5457,-2.2201,0.53267,1.2153,0.21686,7.02,36.84,-1.44
5.8023,-7.246,-2.0158,0.29505,0.61942,0.058032,9.6,36.42,-2.58
5.5707,-7.3822,-1.8796,0.2025,0.15485,-0.030849,10.68,36.3,-2.88
5.4481,-8.2131,-1.5936,0.17501,-0.18692,-0.11209,11.58,36.06,-3.48
5.4481,-11.182,-1.4846,0.10934,-0.34697,-0.19517,12.6,35.52,-4.14
5.7478,-13.293,-1.2531,-0.12889,-0.36224,-0.29535,13.08,35.34,-4.5
5.9793,-15.568,-0.21793,-0.79474,-0.13836,-0.62766,13.74,35.16,-4.86
5.2166,-16.413,0.61292,-1.237,0.23702,-0.98533,13.8,35.16,-4.98
4.7399,-16.29,1.0351,-1.5027,0.78221,-1.4056,13.86,35.1,-4.98
4.7671,-16.344,0.99429,-1.5815,1.0568,-1.6194,14.1,34.98,-4.74
5.4754,-14.764,0.51757,-1.5516,1.6328,-2.2984,14.04,34.86,-4.26
5.5162,-13.498,0.36775,-1.3485,1.6826,-2.6658,13.86,34.92,-3.84
5.3256,-12.599,0.5993,-1.1194,1.5663,-2.9859,13.68,35.1,-3.24
4.808,-11.577,0.76274,-0.96578,1.3686,-3.2632,12.54,35.52,-2.28
4.7263,-11.223,0.54481,-0.86437,1.1741,-3.4376,11.76,35.64,-1.62
4.4402,-10.542,0.12258,-0.7703,0.99968,-3.5152,10.62,35.94,-0.84
4.1133,-9.3299,0.027241,-0.69028,0.76328,-3.4508,8.16,36.66,0.72
3.7592,-8.7306,-0.14982,-0.66004,0.58429,-3.2971,6.72,37.08,1.44
3.4459,-7.8045,-0.38137,-0.66157,0.28955,-3.022,3.6,37.68,2.7
3.0918,-6.8374,-0.43585,-0.67806,0.035125,-2.7837,1.92,37.98,3.3
2.833,-6.1292,-0.64016,-0.70341,-0.2306,-2.5088,0.18,38.28,3.78
2.6832,-5.8295,-0.70826,-0.76144,-0.42669,-2.2462,-1.68,38.64,4.26
2.2065,-5.3119,-0.6674,-0.83261,-0.56444,-1.9939,-5.22,39.42,5.04
1.9477,-5.3256,-0.39499,-0.92027,-0.6127,-1.7507,-6.78,39.72,5.4
1.6344,-5.6116,-0.21793,-1.0501,-0.42944,-1.3182,-9.78,40.14,6.12
1.5391,-6.17,-0.47671,-1.153,-0.19609,-0.99205,-11.1,40.32,6.54
1.8932,-6.1836,-0.53119,-1.2153,0.033903,-0.6857,-12.12,40.44,6.9
2.1656,-6.4424,-0.29965,-1.2297,0.11484,-0.52229,-12.84,40.62,7.32
2.4108,-8.2812,0.54481,-1.2324,0.32437,0.076969,-14.16,40.62,8.16
2.9556,-9.7385,0.99429,-1.3262,0.52718,0.54367,-14.7,40.74,8.82
3.8409,-11.005,1.3484,-1.3686,0.76236,1.219,-15.48,40.98,10.14
4.5764,-10.896,1.4438,-1.222,0.89125,1.6115,-15.66,40.98,10.92
4.5764,-10.665,1.185,-1.0797,0.95295,1.7923,-15.6,40.98,11.82
4.413,-11.128,1.076,-0.67867,1.044,2.1594,-15.48,41.04,12.72
4.2223,-13.035,1.076,-0.086132,1.1915,2.7776,-15.36,41.28,13.8
4.6173,-14.655,0.85808,0.17013,1.2486,3.2083,-14.94,41.64,15.18
5.2166,-14.342,0.47671,0.33628,1.2083,3.6169,-14.64,41.88,15.9
5.7069,-12.422,-0.1362,0.50121,0.96669,3.9123,-13.62,42.24,17.22
5.2983,-11.346,-0.36775,0.60018,0.85918,3.9108,-13.08,42.54,17.82
5.0395,-10.855,-0.38137,0.69486,0.81581,3.7434,-12.24,42.96,18.36
5.1213,-10.678,-0.50395,0.75595,0.77946,3.4813,-11.1,43.26,18.78
6.3335,-10.501,-0.95342,0.77061,0.69578,3.2092,-8.46,43.74,19.02
6.3743,-10.093,-0.9398,0.72021,0.55283,2.9163,-6.78,44.04,19.02
6.0883,-9.5479,-0.76274,0.6466,0.43219,2.6298,-5.16,44.34,19.2
5.3119,-8.3901,-0.76274,0.54,0.54856,2.1799,-1.68,44.7,18.78
5.094,-7.9407,-0.85808,0.57146,0.75198,1.9123,0.18,44.76,18.54
5.1349,-8.2948,-1.0624,0.6243,0.8601,1.8118,2.1,44.82,18.24
5.4754,-9.902,-1.5119,0.61575,1.1704,1.5293,6.0,44.82,17.52
5.7205,-10.637,-1.471,0.4945,1.281,1.4035,7.8,44.7,17.22
6.2245,-11.645,-1.2122,0.3372,1.3231,1.317,11.34,44.52,16.56
6.4152,-12.054,-1.0624,0.089492,1.3143,1.1683,12.9,44.46,15.96
6.5105,-12.762,-0.99429,0.033598,1.2398,0.98716,14.46,44.04,15.6
6.7557,-13.62,-1.1986,0.033292,1.1008,0.77458,15.72,43.92,15.36
7.5048,-14.955,-1.362,-0.079412,0.90805,0.45418,17.7,43.92,15.3
7.355,-13.988,-1.2258,-0.18937,0.67287,0.020464,18.48,43.68,15.42
5.598,-10.801,-1.2258,-0.33384,0.46273,-0.81642,19.86,43.38,15.66
4.7263,-8.5127,-1.0896,-0.24862,0.45754,-1.4044,20.22,43.56,15.84
4.3177,-8.1722,-1.1032,-0.0094684,0.43158,-1.9572,20.46,43.8,16.26
4.3994,-9.3027,-1.3212,0.1182,0.33598,-2.3622,20.52,43.92,16.68
4.5901,-12.108,-1.4165,0.026878,0.16096,-2.5827,20.34,44.22,18.0
4.4266,-13.688,-1.0351,-0.31643,0.010079,-2.7135,20.22,44.58,18.72
3.8137,-13.974,-0.29965,-0.78954,0.02138,-2.8307,19.8,44.94,19.62
3.0646,-12.177,0.14982,-1.2413,0.27061,-2.8665,18.6,45.72,21.3
2.8058,-10.828,0.10896,-1.2633,0.49083,-2.8781,17.7,46.14,22.2
2.656,-10.365,0.027241,-1.2168,0.58613,-2.9187,16.62,46.68,22.98
2.4925,-9.398,-0.27241,-0.90744,0.85857,-3.1139,14.1,47.22,24.54
2.5334,-9.1801,-0.28603,-0.66401,0.92852,-3.215,12.42,47.52,25.26
2.7104,-9.0848,-0.6674,-0.49205,0.89706,-3.2449,10.56,47.88,25.98
3.1191,-8.8396,-0.69464,-0.41325,0.72479,-3.1857,6.6,48.36,26.52
3.0918,-8.8668,-0.70826,-0.43433,0.43555,-3.0223,4.38,48.42,26.58
3.051,-8.7715,-0.57205,-0.57605,0.013134,-2.6667,2.22,48.54,26.46
2.7922,-8.4719,-0.62654,-0.71807,-0.12706,-2.3549,-2.28,48.84,25.86
2.5879,-8.0905,-0.58567,-0.83383,-0.15455,-2.0119,-4.5,48.66,25.5
2.4517,-7.5457,-0.76274,-0.90469,-0.094073,-1.69,-6.72,48.54,25.14
2.547,-7.2733,-0.70826,-0.95081,0.06353,-1.2517,-10.68,47.94,24.24
2.547,-7.355,-0.55843,-0.98594,0.18754,-0.98105,-12.78,47.7,23.76
2.5061,-7.3822,-0.44947,-1.0165,0.25168,-0.83872,-14.58,47.16,23.28
2.5198,-7.7636,-0.24517,-1.1313,0.5003,-0.39248,-17.64,46.2,22.26
2.5061,-8.0769,-0.17706,-1.2083,0.69028,-0.089492,-18.9,45.66,21.84
2.5742,-8.1586,0.040861,-1.2853,0.85582,0.2251,-20.1,45.12,21.48
2.4653,-8.8941,1.0215,-1.3897,1.113,0.81856,-22.08,43.92,21.3
2.3836,-9.6296,1.5527,-1.4887,1.3412,1.3179,-22.8,43.14,21.36
3.1054,-11.809,2.1248,-1.5913,1.6316,1.8503,-23.46,42.54,21.6
3.7047,-11.931,2.0703,-1.5996,1.8521,2.2911,-24.0,41.82,21.84
5.094,-10.188,1.4029,-1.4374,1.8696,2.6209,-25.14,40.5,22.26
5.1076,-9.221,1.1577,-1.1044,1.7425,2.7736,-25.5,40.02,22.44
4.8761,-9.3027,1.0896,-0.69639,1.5342,2.7403,-26.4,39.48,23.22
4.8216,-10.992,1.0215,-0.17226,1.1713,2.5461,-26.64,39.3,23.46
4.9442,-11.577,0.83084,-0.029627,0.97036,2.3903,-26.82,39.3,23.76
5.0259,-11.4,0.81722,-0.027794,0.894,2.3359,-26.94,39.42,24.0
4.5764,-10.283,0.8717,-0.11698,0.93554,2.3396,-26.94,39.78,24.54
4.0997,-9.5615,1.1713,-0.2306,1.1503,2.3259,-26.76,39.9,24.9
3.7047,-8.826,1.0351,-0.33872,1.4914,2.2639,-26.34,40.2,25.5
3.9908,-8.4719,1.0624,-0.36163,2.0617,2.1005,-24.96,40.86,26.34
4.5083,-8.2403,1.0351,-0.31521,2.3066,1.9929,-24.36,41.22,26.76
4.8352,-7.9951,0.8717,-0.27,2.3576,1.9447,-23.88,41.58,27.24
5.2847,-7.641,0.44947,-0.12431,2.2324,1.8439,-23.1,41.94,27.6
5.8295,-7.7908,0.054481,-0.019853,1.9587,1.8243,-21.72,42.78,28.2
5.993,-8.2131,-0.19068,0.035125,1.4441,1.7975,-20.88,43.14,28.32
6.1564,-8.8668,-0.6674,0.06017,1.1723,1.7275,-19.14,43.8,28.38
6.0066,-9.1256,-0.72188,0.043066,0.98869,1.6157,-18.18,44.16,28.56
5.598,-9.2074,-0.64016,0.026573,0.94379,1.551,-17.28,44.46,28.86
5.0395,-9.7113,-0.44947,0.02138,1.0684,1.3491,-15.66,45.06,28.86
5.1213,-10.161,-0.47671,0.025045,1.2541,1.1664,-15.06,45.48,28.74
5.6797,-10.637,-0.89894,0.11668,1.3952,0.85338,-13.92,46.26,28.14
6.1564,-11.223,-1.0215,0.20189,1.2956,0.59804,-13.44,46.62,27.78
6.0611,-11.25,-1.0215,0.26176,1.1335,0.28497,-13.02,46.92,27.36
5.8704,-11.25,-1.0079,0.33475,0.95142,-0.024129,-12.54,47.28,27.06
5.6661,-12.258,-0.91256,0.37415,0.76389,-0.26176,-12.12,47.76,26.64
5.6661,-13.838,-1.0624,0.30024,0.55833,-0.489,-11.52,48.3,25.86
5.5843,-14.07,-1.185,0.13531,0.3821,-0.80512,-11.22,48.42,25.5
5.1213,-12.503,-1.3484,-0.09896,0.23335,-1.0437,-10.8,48.78,25.2
4.5083,-10.869,-1.1577,-0.20892,0.25168,-1.3848,-10.86,48.78,24.78
3.9227,-9.6977,-1.1441,-0.20067,0.34025,-1.7871,-11.04,48.72,24.48
3.6775,-9.221,-1.1169,-0.13073,0.40867,-2.1527,-11.34,48.66,24.24
3.9635,-10.61,-1.3076,-0.12339,0.39065,-2.4432,-12.12,48.36,23.7
4.0452,-11.536,-1.2531,-0.25656,0.26573,-2.6163,-12.78,48.0,23.4
4.1133,-12.354,-0.76274,-0.47403,0.10293,-2.6731,-13.68,47.64,23.22
3.8273,-12.177,-0.50395,-0.86926,-0.077885,-2.6127,-15.48,46.5,22.86
3.4187,-11.673,-0.21793,-1.0767,-0.037568,-2.5491,-16.62,45.72,22.56
3.0237,-10.828,-0.12258,-1.2022,0.15608,-2.5302,-17.76,44.82,22.5
2.5879,-9.5479,-0.23155,-1.208,0.45937,-2.5485,-20.46,43.08,22.2
2.3836,-8.9894,-0.27241,-1.135,0.78679,-2.5833,-21.96,42.06,21.9
2.8603,-8.7443,-0.38137,-1.0403,1.0253,-2.5947,-23.7,40.98,21.6
3.1054,-8.6353,-0.38137,-0.99235,1.1118,-2.5391,-27.0,38.82,20.7
3.1327,-8.3493,-0.40861,-0.97983,0.94867,-2.3595,-28.68,37.56,20.1
3.0646,-8.1586,-0.47671,-0.99876,0.75167,-2.1744,-30.36,36.36,19.26
2.6968,-7.641,-0.47671,-1.0296,0.55925,-1.9609,-33.3,33.78,17.52
2.547,-7.355,-0.36775,-1.0614,0.42364,-1.6973,-34.86,32.64,16.68
2.3155,-7.2324,-0.21793,-1.1081,0.37935,-1.2245,-37.2,30.18,15.18
2.2065,-6.8783,-0.1362,-1.1264,0.4383,-0.88881,-38.28,28.8,14.34
2.1929,-6.7829,0.12258,-1.1124,0.51374,-0.55864,-39.18,27.78,13.56
2.3836,-7.0962,0.19068,-1.0626,0.56658,-0.22663,-40.02,26.58,12.78
3.0237,-7.8589,0.50395,-1.0153,0.55528,0.083994,-41.4,24.54,11.52
3.2825,-8.1041,0.61292,-0.96425,0.49663,0.36744,-41.94,23.58,10.98
3.2553,-8.2539,0.65378,-0.90286,0.45662,0.62644,-42.3,22.74,10.32
3.3778,-8.54,0.74912,-0.82161,0.48778,0.96883,-42.78,21.3,9.36
3.2144,-8.9077,1.0488,-0.80909,0.54306,1.193,-42.84,20.76,9.0
3.0918,-9.3436,1.1986,-0.82314,0.59559,1.3076,-42.9,20.28,8.7
3.0101,-10.392,1.6072,-0.94409,0.93462,1.7498,-43.2,19.98,8.46
3.514,-12.34,2.1929,-1.0611,1.2303,2.1377,-43.38,19.38,8.04
4.304,-12.122,2.4108,-1.19,1.5699,2.416,-43.44,19.26,7.74
4.6445,-11.06,2.3972,-1.2205,1.8387,2.5736,-43.68,19.44,7.44
4.5356,-10.311,2.4108,-1.0989,2.0357,2.6502,-43.8,19.92,7.08
4.5356,-10.597,2.261,-0.8656,2.1759,2.6029,-43.86,20.28,6.78
4.7535,-11.06,1.9886,-0.38698,2.1933,2.4664,-43.74,20.88,6.48
5.6661,-10.992,0.85808,-0.065973,2.0049,2.4144,-43.32,22.02,5.94
6.1019,-10.46,0.43585,0.18204,1.3809,2.4007,-43.08,22.68,5.58
5.9793,-9.0303,-0.054481,0.29993,0.89706,2.343,-42.3,24.18,4.98
5.4754,-8.4855,0.040861,0.24832,0.55589,2.2275,-41.76,25.08,4.8
5.094,-8.1586,0.12258,0.18723,0.4386,2.0565,-41.1,26.04,4.56
4.1814,-7.4912,0.32689,0.13347,0.53848,1.857,-39.36,27.78,4.32
4.2087,-7.4095,0.054481,0.12217,0.75625,1.6909,-38.46,28.68,4.2
4.6037,-7.5184,-0.23155,0.18418,0.91477,1.5354,-36.3,30.3,3.66
5.3392,-7.5048,-0.76274,0.27336,0.91049,1.3494,-35.16,31.14,3.24
5.5026,-7.246,-0.91256,0.3094,0.80146,1.2058,-34.08,31.86,2.94
5.5299,-7.0145,-0.9398,0.30482,0.71532,0.99999,-33.0,32.64,2.52
5.4073,-6.4424,-0.85808,0.29932,0.66523,0.75442,-31.8,33.3,2.22
5.2302,-5.7342,-1.1441,0.35644,0.55955,0.52657,-29.88,34.68,1.44
5.4073,-5.7342,-1.3757,0.41936,0.35094,0.29566,-28.92,35.34,1.14
5.5026,-6.2245,-1.5936,0.43188,-0.08827,0.027184,-27.18,36.18,0.24
5.4073,-6.6467,-1.6889,0.3769,-0.40897,-0.10415,-26.58,36.48,-0.18
5.2575,-6.7421,-1.7706,0.30391,-0.64599,-0.2364,-25.8,36.78,-0.66
4.8352,-7.1234,-1.757,0.24801,-0.76053,-0.35277,-24.78,37.26,-1.68
4.7807,-7.5457,-1.7298,0.21472,-0.79596,-0.45051,-24.42,37.38,-2.34
4.8761,-8.2948,-1.8387,0.15394,-0.77733,-0.58002,-24.18,37.56,-2.7
4.9578,-9.7658,-1.3757,0.010385,-0.69425,-0.85307,-24.0,37.44,-3.24
5.0259,-10.583,-1.0896,-0.014661,-0.6689,-0.93004,-24.0,37.32,-3.66
6.17,-12.313,-0.89894,-0.094684,-0.71838,-1.0571,-24.18,37.2,-3.9
7.6819,-16.985,-0.19068,-0.42455,-1.1475,-1.3137,-24.6,36.78,-4.32
7.355,-18.837,0.6674,-0.71471,-1.5372,-1.4441,-24.84,36.42,-4.38
6.6331,-19.491,1.4438,-0.9841,-1.6762,-1.547,-25.26,36.0,-4.44
6.2109,-18.769,1.3484,-1.3537,-1.5247,-1.7309,-26.34,35.22,-4.14
5.38,-15.214,1.2803,-1.3463,-1.3711,-1.8283,-27.0,34.68,-4.02
4.6854,-13.988,1.3757,-1.2944,-1.255,-1.9038,-27.9,34.32,-3.6
2.7649,-11.986,1.6208,-1.1619,-0.65424,-2.3124,-29.76,33.36,-2.88
2.2882,-11.427,1.5119,-1.0895,-0.10324,-2.5797,-30.72,32.7,-2.52
2.0839,-10.815,1.2531,-1.0611,0.41753,-2.7119,-31.62,32.1,-2.22
2.2201,-8.7443,0.8717,-1.022,0.78618,-2.7232,-33.78,30.78,-1.8
2.2882,-7.6955,0.64016,-0.93646,0.99724,-2.6597,-34.86,30.18,-1.56
2.3972,-6.5786,0.40861,-0.88789,0.96303,-2.5812,-35.88,29.34,-1.44
2.3427,-5.6252,0.35413,-0.82039,0.80756,-2.5278,-37.02,28.38,-1.5
2.0294,-4.8352,0.44947,-0.7535,0.55283,-2.4703,-39.18,26.4,-1.62
1.9205,-4.7807,0.43585,-0.7367,0.28894,-2.4004,-40.14,25.38,-1.8
1.7162,-4.7944,0.58567,-0.73793,0.037874,-2.2874,-42.12,23.22,-2.22
1.0215,-4.9987,0.47671,-0.78466,-0.19273,-1.9645,-42.84,22.02,-2.64
0.61292,-5.1485,0.50395,-0.84849,-0.18234,-1.6344,-43.56,20.64,-3.06
0.35413,-5.1485,0.47671,-0.90927,-0.025962,-1.2199,-44.16,19.38,-3.48
0.24517,-5.094,0.58567,-0.96211,0.21075,-0.76664,-45.24,16.8,-3.96
0.49033,-5.094,0.84446,-0.97005,0.48839,-0.29413,-45.6,15.6,-4.32
0.95342,-5.5299,1.0079,-0.92454,0.91996,0.42699,-46.08,13.44,-4.92
2.8603,-7.0962,1.3757,-0.8488,1.0989,0.91141,-46.32,12.48,-5.22
3.6911,-8.1177,1.4165,-0.74067,1.1814,1.4169,-46.44,11.58,-5.46
4.127,-8.7306,1.4301,-0.65271,1.1863,1.678,-46.44,10.86,-5.64
5.3256,-10.787,1.6072,-0.34086,1.1209,2.4771,-46.44,10.02,-6.3
5.8023,-12.844,1.6481,-0.10354,1.0354,3.0995,-46.32,9.9,-6.72
6.4152,-14.928,1.6344,0.24587,0.90347,3.9819,-46.02,9.96,-7.44
7.9951,-15.241,0.12258,0.50396,0.67042,4.3775,-45.72,10.56,-7.8
7.8998,-13.702,-0.61292,0.66065,0.49877,4.47,-45.24,11.4,-8.04
7.5457,-12.286,-1.1441,0.95539,0.18876,4.4566,-44.76,12.24,-8.46
7.1507,-11.482,-1.1577,1.2892,-0.22846,4.0421,-43.56,14.28,-9.3
7.1915,-11.863,-1.0896,1.3622,-0.56719,3.6802,-42.78,15.42,-9.54
7.0281,-11.795,-1.5119,1.1985,-0.95936,3.1383,-40.68,17.94,-10.08
6.5241,-10.188,-1.7434,1.0941,-1.2126,2.8405,-39.54,19.26,-10.26
5.8704,-8.7443,-1.866,1.0452,-1.284,2.5711,-38.28,20.7,-10.44
5.5707,-8.2812,-1.9613,1.0583,-1.1832,2.2743,-37.14,22.14,-10.5
5.0668,-7.4503,-2.6287,1.0831,-0.96059,1.9548,-34.32,24.84,-10.5
5.094,-7.4095,-2.8058,1.0821,-0.75289,1.6188,-32.88,26.04,-10.32
5.203,-7.5184,-2.9011,1.0189,-0.57482,1.281,-31.32,27.3,-10.2
5.1894,-7.4231,-2.6696,0.80481,-0.45387,0.82284,-28.38,28.92,-10.02
5.094,-7.4367,-2.4244,0.6744,-0.47953,0.52626,-27.12,29.52,-10.14
5.1757,-7.4912,-2.3563,0.51526,-0.54,0.25809,-25.8,30.0,-10.08
5.2166,-7.5184,-2.5061,0.33506,-0.64691,0.025962,-23.64,30.72,-10.26
5.1621,-7.7227,-2.4517,0.22449,-0.76511,-0.16554,-22.68,31.02,-10.44
5.1485,-8.9349,-2.152,0.19242,-0.85277,-0.32345,-22.02,31.2,-10.56
6.674,-13.035,-1.5663,0.12859,-0.92271,-0.48747,-20.88,31.26,-10.98
7.3822,-15.691,-1.4438,-0.28527,-1.0883,-0.65454,-20.52,31.2,-10.98
7.3686,-17.025,-0.76274,-0.95784,-1.0592,-0.90347,-20.16,31.02,-11.1
6.5378,-17.448,0.70826,-1.4685,-0.73854,-1.2135,-20.04,30.78,-11.16
5.6933,-18.428,1.4846,-1.7694,-0.15272,-1.4792,-20.22,30.42,-11.1
6.5922,-18.673,1.2803,-1.9923,0.44166,-1.8283,-20.58,30.18,-11.04
6.8374,-16.644,1.3484,-2.022,0.73884,-2.1704,-21.06,30.06,-10.98
5.4754,-12.708,1.9341,-1.6945,0.76205,-2.6435,-22.26,29.58,-10.38
4.7671,-11.754,2.2337,-1.3934,0.69547,-2.9932,-23.1,29.28,-10.14
4.4402,-11.373,2.0567,-1.1249,0.62369,-3.2565,-24.0,28.98,-9.9
4.0316,-11.005,1.6344,-0.8772,0.53145,-3.3763,-25.08,28.74,-9.66
3.7456,-9.902,1.0624,-0.70219,0.4102,-3.3537,-27.42,27.9,-9.0
3.6094,-9.1256,1.1169,-0.62003,0.1631,-3.1227,-28.62,27.54,-8.7
2.9556,-7.7091,1.0215,-0.62033,0.074831,-3.0415,-31.38,26.4,-8.46
2.5879,-7.0553,0.99429,-0.65943,-0.17349,-2.8204,-32.76,25.74,-8.34
2.1929,-6.5786,0.83084,-0.67042,-0.29596,-2.6832,-33.96,25.08,-8.16
1.8251,-5.9249,0.7355,-0.69394,-0.37141,-2.558,-36.42,23.34,-8.16
1.5391,-5.6116,0.6674,-0.70127,-0.40073,-2.4377,-37.44,22.5,-8.22
1.076,-5.3528,0.70826,-0.71716,-0.38362,-2.2797,-38.4,21.48,-8.16
0.7355,-5.0259,0.76274,-0.7419,-0.25931,-2.0232,-40.38,19.44,-8.1
0.57205,-4.9306,0.6674,-0.72968,-0.14569,-1.7828,-41.1,18.36,-7.98
0.29965,-4.8352,0.64016,-0.71013,-0.073609,-1.6356,-41.76,17.28,-7.8
0.44947,-4.9306,0.31327,-0.62247,0.13592,-1.0934,-42.72,14.94,-7.5
0.76274,-5.1485,0.20431,-0.56719,0.19914,-0.6298,-43.2,13.98,-7.38
0.85808,-5.6797,0.1362,-0.53206,0.22144,-0.065973,-43.44,12.9,-7.08
1.7843,-7.5729,0.64016,-0.54642,0.28986,0.90591,-43.74,11.1,-6.48
2.7104,-8.8532,0.99429,-0.58307,0.33201,1.222,-43.86,10.38,-6.24
3.3097,-9.7794,1.185,-0.59193,0.51649,2.1951,-43.92,9.72,-6.12
4.127,-11.223,1.4165,-0.45357,0.73395,2.7947,-44.04,9.06,-5.88
5.5026,-12.939,1.4438,-0.24801,1.0314,3.3152,-43.98,8.82,-5.76
7.464,-14.083,0.84446,0.041539,1.1955,3.6728,-43.8,9.24,-6.06
7.5593,-12.967,0.84446,0.54489,0.96059,3.9376,-43.5,9.66,-6.36
7.5457,-12.34,-0.39499,0.72235,0.82833,3.915,-43.02,10.2,-6.66
7.4912,-12.204,-0.50395,1.1362,0.56536,3.8002,-42.66,11.16,-6.96
7.5321,-12.027,-0.65378,1.2129,0.47892,3.7703,-42.24,12.06,-7.32
7.8589,-11.972,-0.7355,1.2248,0.072388,3.5885,-41.64,13.2,-7.5
7.8589,-10.202,-1.4301,1.0544,-0.28833,3.368,-39.9,15.84,-8.16
7.5184,-9.507,-1.2395,0.9502,-0.42791,2.8198,-38.76,17.04,-8.46
6.4424,-8.0088,-0.88532,1.0116,-0.54917,2.6551,-37.62,18.48,-8.76
5.6116,-7.5729,-1.2258,1.0608,-0.62675,2.3824,-35.22,21.06,-9.3
5.4345,-7.4503,-1.6344,1.0974,-0.19028,1.945,-33.78,22.38,-9.42
5.7342,-7.3141,-1.7979,1.0577,0.012828,1.6802,-32.34,23.52,-9.78
6.3198,-7.0553,-2.0431,0.97311,0.023824,1.3885,-29.46,25.74,-10.02
6.4152,-7.1779,-2.1929,0.87476,-0.052534,1.1298,-27.9,26.58,-10.14
6.3743,-7.4367,-2.0431,0.74526,-0.135,0.88973,-25.02,28.2,-10.44
6.3335,-7.5729,-2.0022,0.50977,-0.30482,0.55436,-23.52,28.68,-10.56
6.3062,-7.7908,-1.8251,0.36713,-0.42638,0.37599,-22.2,29.1,-10.68
6.3198,-8.6217,-1.6481,0.26603,-0.57818,0.22327,-19.98,29.7,-10.98
6.5378,-10.243,-1.3484,0.21197,-0.70738,0.06353,-18.96,29.82,-11.1
6.7966,-12.054,-1.1169,0.089797,-0.80329,-0.099571,-17.64,30.18,-11.52
7.2324,-15.514,-0.29965,-0.18906,-0.86865,-0.27458,-17.04,30.3,-11.58
7.0553,-15.854,0.5993,-0.73884,-0.83169,-0.72449,-16.56,30.36,-11.76
6.7966,-15.854,1.1441,-1.0492,-0.64263,-1.0516,-16.32,30.54,-11.88
6.0883,-15.895,1.6344,-1.2385,-0.35033,-1.3882,-16.14,30.6,-11.82
6.2517,-15.854,1.362,-1.244,-0.12095,-1.7214,-16.26,30.48,-11.76
6.6059,-14.833,0.83084,-1.127,-0.058948,-2.0107,-16.5,30.48,-11.34
6.1292,-13.661,1.0624,-0.93157,-0.1069,-2.3359,-17.58,30.36,-10.5
5.3528,-12.258,1.3212,-0.93187,-0.061697,-2.5806,-18.3,30.36,-10.14
4.6445,-10.869,1.5391,-0.93982,-0.011912,-2.6921,-19.02,30.36,-9.6
4.0589,-9.7658,1.4301,-0.9221,0.23152,-2.989,-20.04,30.24,-9.24
3.3915,-8.6081,0.78998,-0.83872,0.3937,-3.1148,-22.44,29.82,-8.28
3.3642,-8.2948,0.68102,-0.77152,0.45448,-3.1777,-23.76,29.4,-7.92
3.2825,-7.6683,0.54481,-0.67653,0.30635,-3.0965,-26.64,28.44,-7.26
3.2553,-7.3141,0.5993,-0.66279,0.065668,-2.9734,-28.38,27.9,-6.96
3.1327,-6.7966,0.50395,-0.65088,-0.23396,-2.8265,-29.88,27.12,-6.66
2.9148,-6.674,0.50395,-0.65424,-0.52015,-2.6542,-31.32,26.34,-6.54
2.5061,-6.6059,0.58567,-0.68906,-0.67195,-2.4661,-32.76,25.5,-6.24
1.7025,-6.456,0.54481,-0.72662,-0.65851,-2.2709,-35.34,23.64,-6.12
1.5255,-6.2381,0.47671,-0.77305,-0.46151,-1.9456,-36.6,22.56,-6.0
1.4846,-5.6116,0.28603,-0.77274,-0.38759,-1.8234,-37.74,21.48,-5.82
1.6481,-5.7069,0.31327,-0.75106,-0.17532,-1.4389,-39.48,19.14,-5.58
1.9613,-6.3335,0.38137,-0.74281,-0.049786,-1.1435,-40.2,17.94,-5.34
2.1248,-6.9328,0.43585,-0.76022,0.065668,-0.77855,-40.8,16.68,-5.1
2.7786,-8.2812,0.96704,-0.80634,0.21319,-0.36255,-41.58,14.52,-4.68
2.9965,-8.717,1.1577,-0.80879,0.49358,0.34178,-41.88,13.44,-4.32
2.9556,-9.1256,1.5936,-0.76389,0.62583,0.57879,-42.18,11.76,-3.66
3.2961,-10.297,1.8524,-0.61606,0.97494,1.1206,-42.24,10.98,-3.36
4.1406,-11.319,1.8932,-0.32803,1.4419,2.0766,-42.36,10.38,-3.18
4.985,-11.591,1.5119,-0.051618,1.4569,2.7263,-42.3,9.96,-3.12
6.0611,-10.025,0.78998,0.33567,1.1588,3.2913,-42.42,9.96,-3.18
6.2245,-9.7249,-0.34051,0.94654,0.32956,3.7626,-42.3,10.2,-3.36
6.3335,-9.8611,-0.50395,1.091,0.05681,3.8313,-42.06,10.62,-3.54
6.4424,-10.447,-0.44947,1.3042,-0.44838,3.8866,-41.7,12.06,-4.02
6.17,-10.324,-0.32689,1.3451,-1.0653,3.7553,-41.34,12.96,-4.32
5.9793,-9.9292,-0.29965,1.303,-1.3124,3.5482,-40.8,14.1,-4.56
4.9033,-8.8805,-0.57205,1.2752,-1.339,3.3088,-39.6,16.74,-4.92
4.522,-8.6353,-0.55843,1.3021,-0.97097,2.8784,-38.82,18.24,-5.1
4.0589,-8.6625,-0.85808,1.3433,-0.52962,2.5892,-37.14,21.06,-5.1
4.413,-9.1256,-1.2803,1.3534,-0.30574,2.4682,-36.06,22.68,-5.16
4.8897,-9.1937,-1.5119,1.3424,0.12859,2.1619,-34.8,24.18,-5.34
5.5435,-9.1937,-1.9886,1.296,0.17623,1.9853,-33.48,25.56,-5.22
5.993,-9.0575,-2.5606,1.2104,0.10079,1.7944,-30.48,28.02,-5.1
6.2245,-9.0303,-2.6696,1.0641,-0.028711,1.4215,-28.98,28.98,-5.1
6.4152,-9.0848,-2.6696,0.91874,-0.22449,1.273,-27.36,29.94,-5.22
6.4833,-10.27,-2.8739,0.82681,-0.42211,1.0189,-24.48,31.5,-5.52
6.8647,-11.931,-3.0782,0.73884,-0.52748,0.81367,-23.04,32.28,-5.58
7.3005,-13.77,-3.1872,0.33353,-0.76389,0.47525,-21.78,32.82,-5.88
7.2188,-15.35,-1.9205,-0.16341,-0.92668,0.21197,-19.44,33.6,-6.36
6.1155,-15.05,-0.8717,-0.62033,-0.72174,-0.27122,-18.48,33.96,-6.66
4.8625,-16.222,0.19068,-0.97189,-0.49633,-0.45357,-16.92,34.62,-7.26
5.6388,-17.597,0.068102,-1.39,0.16952,-1.047,-16.32,34.74,-7.38
6.5786,-17.23,0.21793,-1.5974,0.30207,-1.3738,-15.96,34.92,-7.38
6.0611,-13.634,0.95342,-1.6044,0.23366,-1.587,-15.78,35.28,-7.5
5.1757,-11.618,1.3757,-1.504,0.22174,-1.8696,-16.08,35.4,-7.2
4.6037,-10.12,1.3212,-1.361,0.31062,-2.2132,-16.26,35.46,-6.84
4.2768,-9.4117,1.0896,-1.1295,0.54031,-2.6347,-17.64,35.16,-6.0
4.3177,-8.9213,0.98067,-1.003,0.6857,-2.8109,-18.48,35.1,-5.28
4.3177,-8.7851,1.0215,-0.93523,0.7535,-2.9114,-19.5,34.8,-4.86
4.2904,-8.1858,1.0624,-0.90591,0.70524,-2.9917,-21.84,34.08,-3.78
4.018,-7.6002,1.1441,-0.89156,0.55039,-3.069,-23.22,33.54,-3.3
3.5822,-7.8317,1.0488,-0.85827,0.21961,-3.0174,-26.1,32.22,-2.64
3.3506,-7.7364,0.92618,-0.87445,0.013439,-2.9267,-27.42,31.44,-2.28
2.8739,-7.355,0.85808,-0.88881,-0.078802,-2.8622,-30.3,29.82,-1.92
2.5198,-7.0145,0.85808,-0.89797,-0.25656,-2.5788,-31.74,28.8,-1.8
1.9613,-6.5786,0.83084,-0.89583,-0.25748,-2.3546,-34.02,26.58,-1.44
1.4846,-6.4424,0.96704,-0.88911,-0.14936,-2.1255,-36.42,24.6,-1.44
1.2395,-6.4424,0.91256,-0.88239,0.016493,-1.8781,-38.34,22.38,-1.56
1.2122,-6.0474,0.89894,-0.88239,0.20128,-1.6099,-39.78,20.34,-1.74
1.2258,-6.1564,0.95342,-0.81337,0.39126,-1.1585,-40.68,18.54,-1.98
1.5255,-6.4424,1.0079,-0.73151,0.42699,-0.7981,-41.16,16.8,-1.8
1.8387,-6.8783,1.1441,-0.65179,0.405,-0.38423,-41.46,16.14,-1.62
2.0839,-7.3686,1.2803,-0.56872,0.35888,0.086743,-41.94,14.76,-1.44
2.3836,-7.8726,1.3076,-0.46365,0.35216,0.59987,-42.3,13.62,-1.32
2.8603,-8.2131,1.1577,-0.29077,0.39828,1.1228,-42.54,12.84,-1.74
3.5685,-8.7306,0.99429,0.064446,0.46578,1.8561,-42.6,12.6,-1.8
3.8954,-9.4798,1.1577,0.32193,0.47067,2.3549,-42.48,12.54,-1.86
4.7944,-12.408,1.185,0.5229,0.39737,2.9007,-42.54,12.84,-1.86
5.8159,-13.893,0.50395,0.68356,0.21197,3.4138,-42.36,13.5,-1.92
6.5105,-13.035,-0.068102,0.86926,-0.13317,3.7461,-42.18,14.82,-2.22
6.3062,-11.509,-0.54481,1.0583,-0.5284,3.9077,-41.76,16.32,-2.52
5.7614,-10.379,-1.0488,1.252,-0.83597,3.8659,-40.86,18.54,-2.4
5.5435,-10.569,-1.0624,1.4875,-1.0406,3.5271,-40.44,19.62,-2.52
5.3528,-11.182,-1.2258,1.5195,-1.0702,3.1866,-39.24,21.84,-2.22
5.2302,-11.141,-1.2803,1.4419,-0.99754,2.8662,-38.4,23.04,-2.28
4.9578,-10.338,-1.2939,1.3097,-0.80084,2.5565,-36.6,25.44,-2.1
4.5492,-9.2482,-1.7162,1.2223,-0.54611,2.2611,-34.44,27.72,-1.8
4.4947,-8.9894,-1.8524,1.1909,-0.24282,1.9633,-33.3,28.92,-1.8
4.6854,-8.4446,-2.6287,1.1689,0.091324,1.6561,-31.14,30.72,-1.74
4.9033,-8.2812,-3.0646,1.0611,0.51404,1.2596,-28.68,32.4,-1.92
5.1621,-8.1858,-3.0646,0.90164,0.69516,1.0226,-27.36,33.24,-2.1
5.4754,-8.036,-2.8194,0.71685,0.7477,0.83994,-25.14,34.5,-2.82
6.4016,-8.0224,-2.6423,0.55222,0.61484,0.67501,-23.04,35.64,-3.36
7.0145,-8.2131,-2.8603,0.38943,0.30391,0.53787,-21.12,36.54,-4.14
7.1098,-8.322,-2.8058,0.16799,-0.32834,0.34239,-20.46,36.9,-4.38
6.6059,-9.0984,-2.3427,0.10354,-0.64171,0.14905,-19.2,37.38,-5.4
6.674,-10.733,-2.1248,0.032987,-0.81795,-0.022297,-18.18,37.68,-6.06
7.2596,-12.476,-1.866,-0.10965,-0.98441,-0.22633,-17.52,38.16,-6.66
7.5865,-15.418,-0.88532,-0.49816,-1.1454,-0.48442,-17.4,38.16,-6.78
5.6933,-14.928,0.92618,-1.0021,-1.0565,-0.85155,-17.34,38.28,-6.84
4.6445,-14.846,1.6617,-1.4502,-0.24007,-1.4948,-17.7,38.1,-6.54
5.3119,-16.794,1.1169,-1.4786,0.10232,-1.6799,-18.0,37.98,-6.18
7.1098,-17.053,0.53119,-1.4954,0.78557,-2.2416,-18.96,37.74,-5.58
7.0281,-14.642,1.362,-1.3644,0.75839,-2.4633,-20.22,37.14,-4.68
6.3198,-13.593,1.8796,-1.2538,0.65699,-2.7061,-21.06,36.84,-4.26
5.2166,-11.727,2.3155,-1.2104,0.65729,-3.0226,-22.8,36.0,-3.3
4.4266,-10.338,1.6208,-1.088,0.71044,-3.3207,-24.84,34.92,-2.22
4.1542,-9.7794,0.99429,-0.7981,0.73334,-3.5794,-27.18,33.6,-1.62
3.8682,-9.3027,0.81722,-0.65424,0.64477,-3.5687,-28.44,32.76,-1.32
3.6094,-8.3765,0.88532,-0.58429,0.48381,-3.441,-30.96,31.14,-1.14
3.0646,-7.5729,0.92618,-0.54978,0.28191,-3.2394,-33.54,29.34,-1.5
2.9148,-7.2733,0.8036,-0.56016,0.058948,-2.9984,-34.74,28.26,-1.62
2.4789,-6.4152,0.57205,-0.55131,-0.18418,-2.7629,-36.72,26.04,-2.1
2.152,-5.8023,0.34051,-0.562,-0.47647,-2.3973,-38.64,23.76,-2.82
2.0294,-5.4345,0.19068,-0.5733,-0.61148,-2.1683,-39.48,22.62,-3.0
1.6072,-5.1757,0.12258,-0.61575,-0.6634,-1.9548,-40.92,20.46,-3.54
1.1169,-5.2166,0.29965,-0.67195,-0.62278,-1.7089,-41.7,18.3,-3.72
0.95342,-5.2575,0.35413,-0.73793,-0.48564,-1.4169,-42.06,17.22,-3.72
0.76274,-5.1894,0.20431,-0.78374,-0.27611,-1.1011,-42.48,15.12,-3.6
0.95342,-4.9578,-0.027241,-0.76633,0.044593,-0.57574,-42.96,13.38,-3.42
1.362,-5.1894,-0.01362,-0.7138,0.18692,-0.21747,-42.96,11.76,-3.0
1.7298,-6.1564,0.44947,-0.68325,0.31643,0.18662,-43.08,11.22,-2.82
2.3155,-8.4991,0.88532,-0.72968,0.49114,0.67867,-42.96,10.08,-2.4
3.6911,-10.215,1.2531,-0.80329,0.66798,1.1958,-43.08,9.24,-2.04
4.1678,-10.447,1.3757,-0.81703,0.8042,1.7135,-43.14,9.24,-1.92
4.8488,-10.297,1.0488,-0.54031,0.91538,2.4609,-42.96,9.12,-1.74
5.1213,-10.924,1.0624,-0.19273,0.95967,2.9184,-42.9,9.3,-1.92
5.9249,-13.879,1.2803,0.13775,0.91935,3.3631,-42.9,9.96,-2.22
6.5378,-14.669,0.70826,0.42394,0.76541,3.6786,-42.78,11.4,-2.76
7.1779,-13.797,0.23155,0.71288,0.55864,3.8866,-42.42,12.96,-3.18
7.0826,-13.28,0.14982,0.91324,0.37446,3.9822,-42.3,13.8,-3.48
6.8374,-12.217,0.040861,1.047,0.27947,3.9214,-41.46,15.9,-3.9
7.2869,-11.673,-0.46309,1.1985,0.064141,3.7977,-40.5,18.6,-4.5
7.9679,-11.319,-0.8717,1.3054,-0.40134,3.5913,-39.9,19.86,-4.56
8.1858,-10.569,-1.0624,1.3592,-0.98044,3.2819,-38.52,22.44,-4.98
6.9328,-9.0439,-0.64016,1.3635,-1.3879,2.8943,-36.9,24.6,-5.04
5.4618,-8.0632,-1.0351,1.3775,-1.4652,2.4322,-36.06,26.82,-5.16
5.1213,-7.8998,-1.4165,1.3906,-0.97189,1.7849,-33.9,27.72,-5.22
4.8897,-7.8589,-2.0839,1.3885,-0.45754,1.4532,-31.62,29.52,-5.28
4.9578,-7.8862,-2.3155,1.3149,0.034208,1.2025,-29.22,31.26,-5.22
5.0531,-7.7227,-2.4517,1.1729,0.41692,0.9893,-28.26,32.04,-5.46
5.5162,-7.4231,-2.6287,1.0067,0.63255,0.82192,-26.04,33.12,-5.76
6.3879,-7.355,-2.6968,0.84758,0.62675,0.68936,-24.18,33.78,-6.42
6.7557,-7.4912,-2.656,0.5846,0.23885,0.48136,-22.68,34.44,-7.08
6.7285,-7.7227,-2.6423,0.40378,-0.077274,0.34941,-22.02,34.68,-7.32
6.6876,-8.4446,-2.5061,0.24893,-0.35736,0.1912,-20.82,35.1,-8.1
6.674,-10.542,-2.4244,0.11026,-0.54642,0.036041,-19.74,35.22,-8.82
6.7966,-12.858,-1.9341,-0.082467,-0.64385,-0.11148,-19.08,35.4,-9.6
6.7557,-14.111,-1.4982,-0.38637,-0.63713,-0.31643,-18.78,35.46,-9.72
6.0747,-15.241,-0.25879,-0.91233,-0.46273,-0.59254,-18.54,35.34,-10.02
5.6116,-14.819,0.054481,-1.493,0.1405,-1.1332,-18.72,35.28,-10.2
5.6116,-14.914,0.14982,-1.642,0.55405,-1.4838,-18.84,35.1,-10.26
6.1155,-15.609,0.31327,-1.6857,0.75686,-1.8185,-19.38,34.8,-9.78
6.6467,-15.732,0.64016,-1.6808,0.78221,-2.1246,-20.1,34.56,-9.42
6.3471,-15.214,0.89894,-1.6897,0.84971,-2.4343,-20.76,34.44,-9.18
4.808,-13.198,1.6481,-1.6524,1.0415,-2.7199,-22.02,34.08,-8.64
4.3177,-11.904,1.5391,-1.4377,1.4358,-3.1038,-23.88,33.3,-8.28
4.1678,-11.128,1.1305,-1.2159,1.616,-3.2733,-24.72,32.88,-8.22
4.304,-10.093,0.68102,-0.98777,1.6215,-3.3207,-26.88,31.92,-8.4
4.8625,-9.2074,0.53119,-0.82131,1.4566,-3.3045,-29.04,30.78,-8.76
4.9169,-8.8532,0.50395,-0.73915,1.1787,-3.2287,-30.0,30.06,-9.12
4.5764,-7.75,0.44947,-0.74648,0.80298,-3.138,-31.98,28.92,-10.08
4.0725,-6.3198,0.24517,-0.72815,0.25779,-3.1121,-33.66,27.18,-11.52
3.5004,-5.6116,0.12258,-0.67378,-0.025962,-3.061,-35.22,25.44,-12.84
2.9284,-5.1894,-0.027241,-0.62278,-0.22846,-2.9593,-35.94,24.42,-13.62
2.3972,-5.2438,-0.10896,-0.60812,-0.31215,-2.7877,-37.08,22.5,-14.76
1.757,-5.2302,-0.19068,-0.61636,-0.28558,-2.529,-38.04,20.22,-15.84
1.6072,-5.2847,-0.21793,-0.64263,-0.16249,-2.051,-38.52,17.94,-16.68
1.6208,-5.4073,-0.1362,-0.67714,0.0045815,-1.8708,-38.88,16.86,-16.92
1.975,-5.7069,-0.19068,-0.78771,0.21625,-1.3002,-39.06,14.7,-17.22
2.4517,-6.4424,-0.095342,-0.8436,0.26848,-0.9166,-39.24,13.62,-17.22
3.0646,-8.0769,0.38137,-0.92882,0.18631,-0.45448,-39.36,11.64,-17.28
3.623,-10.134,1.1577,-1.0815,0.14172,0.078191,-39.66,10.08,-17.28
3.8682,-10.569,1.3757,-1.2312,0.20036,0.66126,-39.6,9.18,-17.22
4.2495,-10.869,1.6753,-1.2538,0.35552,1.2511,-39.54,8.58,-17.22
4.7535,-10.624,1.3076,-1.0287,0.82406,2.0058,-39.42,7.8,-17.4
4.699,-10.801,0.99429,-0.72021,1.1631,2.4123,-39.3,7.56,-17.58
4.8625,-12.013,0.81722,-0.39676,1.3986,2.8136,-39.12,7.56,-17.7
5.9249,-13.947,0.5993,-0.1909,1.4765,3.2141,-38.64,7.98,-18.3
6.7421,-14.043,0.64016,-0.13317,1.2798,3.7666,-38.34,8.46,-18.72
7.5457,-13.443,0.61292,-0.17104,1.1637,3.8863,-38.16,9.06,-19.08
7.1779,-10.583,0.20431,-0.095295,0.78954,4.04,-37.32,10.5,-20.04
7.2188,-9.9292,-0.054481,0.079412,0.60842,3.908,-36.96,11.64,-20.4
7.7908,-9.8611,-0.6674,0.26786,0.36408,3.6414,-35.88,13.92,-20.76
7.464,-9.8203,-0.99429,0.36041,0.058948,3.3091,-34.92,15.12,-20.88
6.9328,-9.5887,-0.89894,0.35003,-0.093462,2.9682,-34.2,16.5,-21.12
5.3528,-9.1937,-0.20431,0.22571,-0.000916,2.6435,-32.16,19.14,-21.6
4.6173,-8.6762,0.10896,-0.0033598,0.38026,2.3723,-31.02,20.4,-21.72
4.3585,-8.4719,0.16344,-0.23885,1.5345,2.051,-29.82,21.66,-21.84
6.0202,-7.9407,-0.24517,-0.2474,2.2801,1.857,-27.36,23.94,-21.72
6.5514,-7.9134,-0.34051,-0.16432,2.5586,1.6542,-25.86,25.08,-21.66
7.3277,-8.3901,-0.28603,0.013744,2.2232,1.5061,-24.48,26.04,-21.48
8.2403,-10.147,-0.40861,0.061087,1.9923,1.4807,-21.3,28.02,-21.6
8.54,-10.828,-0.50395,0.044288,1.1093,1.3628,-19.62,28.8,-21.54
8.2948,-11.196,-0.38137,-0.0058032,0.57544,1.2037,-18.0,29.4,-21.66
7.246,-13.089,-0.17706,-0.010996,0.29963,1.0205,-14.82,30.6,-22.02
6.8783,-14.547,-0.12258,-0.1066,0.3259,0.76114,-13.5,31.2,-22.32
5.7886,-13.416,0.081722,-0.40867,0.8772,0.036346,-10.68,32.04,-22.56
5.1485,-11.332,0.35413,-0.45571,1.335,-0.52076,-9.48,32.34,-22.86
4.5083,-9.3163,0.44947,-0.42028,1.5336,-0.80726,-8.28,32.58,-23.04
4.3994,-8.8941,0.24517,-0.22235,1.795,-1.3686,-7.26,32.82,-23.22
4.9578,-10.243,-0.50395,0.13164,1.7159,-2.0421,-5.58,33.06,-24.0
5.0259,-11.278,-0.72188,0.21472,1.3864,-2.2856,-4.92,33.36,-24.3
4.9987,-12.503,-0.50395,0.13806,0.99205,-2.3958,-4.08,33.12,-24.9
4.4811,-12.0,-0.027241,-0.27886,0.50427,-2.4239,-3.84,32.88,-25.2
3.9635,-11.114,-0.027241,-0.50396,0.35736,-2.3787,-3.72,32.76,-25.5
3.5004,-10.379,-0.14982,-0.63897,0.33934,-2.3586,-3.96,32.52,-25.68
3.1054,-9.7658,-0.35413,-0.62919,0.45662,-2.4126,-4.26,32.16,-25.86
2.6696,-8.7715,-0.6674,-0.53817,0.66645,-2.4853,-5.16,31.56,-26.64
2.8058,-8.5263,-0.72188,-0.37263,0.89767,-2.5323,-6.0,31.26,-27.12
3.5549,-8.717,-0.88532,-0.32834,0.86682,-2.4804,-7.8,30.3,-27.84
3.9908,-8.826,-1.0624,-0.34483,0.6524,-2.3821,-8.94,29.88,-28.32
4.1406,-8.826,-1.1713,-0.42058,0.35552,-2.2825,-10.08,29.46,-28.98
3.9363,-8.6353,-1.2258,-0.53145,0.19303,-2.1716,-11.16,29.04,-29.58
3.514,-8.145,-0.92618,-0.66126,0.20036,-2.0727,-13.56,28.14,-30.84
3.3778,-7.6955,-0.85808,-0.8436,0.42058,-1.8213,-14.94,27.9,-31.5
3.3778,-7.3277,-0.8717,-0.91874,0.61025,-1.6313,-17.22,27.6,-32.7
3.514,-7.2869,-0.81722,-0.93676,0.73884,-1.4129,-18.48,27.48,-33.42
3.6366,-7.355,-0.70826,-0.96059,0.78099,-1.1393,-19.38,27.3,-34.2
3.6911,-7.5729,-0.42223,-1.0064,0.77855,-0.8323,-20.88,27.0,-35.34
3.732,-7.6819,-0.19068,-1.0699,0.7645,-0.49816,-21.54,26.88,-35.88
3.7456,-7.8726,0.027241,-1.1313,0.74067,0.007025,-22.44,26.7,-37.14
3.8682,-8.0088,0.23155,-1.1603,0.75136,0.15516,-22.74,26.82,-37.44
3.8273,-8.0905,0.57205,-1.1912,0.78496,0.54459,-22.92,26.88,-37.8
3.7047,-8.2812,0.8717,-1.2113,0.80512,0.68447,-23.1,27.06,-38.04
3.6775,-9.6432,1.8387,-1.2737,0.99999,1.1759,-22.92,27.54,-38.4
4.3313,-11.182,2.0975,-1.3494,1.1542,1.5992,-22.74,27.72,-38.46
5.0259,-11.741,1.9477,-1.4645,1.284,1.9694,-22.5,28.02,-38.22
5.0668,-9.0303,1.8932,-1.3586,1.3638,2.2437,-21.66,28.5,-37.8
4.7126,-8.431,1.9341,-1.1264,1.4203,2.2055,-21.0,28.8,-37.44
4.3449,-8.4991,1.9341,-0.81673,1.4615,2.0409,-20.28,29.4,-36.9
4.0861,-9.507,1.7979,-0.5116,1.5146,1.8573,-19.5,30.06,-36.42
4.8352,-11.223,1.1577,-0.33017,1.514,1.777,-17.64,30.96,-35.46
5.094,-11.101,0.8717,-0.21533,1.3873,1.8396,-16.5,31.5,-34.74
5.1076,-9.9973,0.8036,-0.22358,1.0782,1.9868,-15.36,32.04,-33.9
4.7535,-8.9894,0.84446,-0.23946,1.0186,1.9862,-13.98,32.64,-33.36
4.4811,-8.4174,0.88532,-0.24862,1.109,1.8604,-12.54,33.12,-32.76
3.3778,-7.2733,0.64016,-0.25137,1.2611,1.7953,-9.24,33.72,-31.32
3.3778,-7.2733,0.64016,-0.14111,1.7123,1.5821,-9.24,33.72,-31.32
3.3778,-7.2733,0.64016,-0.027489,1.6713,1.5101,-9.24,33.72,-31.32
4.9987,-7.8317,0.19068,0.024435,1.4233,1.5385,-7.38,34.08,-30.6
5.0123,-8.1177,0.23155,0.040317,1.1719,1.566,-5.28,34.38,-29.7
4.9578,-8.4719,0.10896,0.033598,0.86468,1.562,-0.78,34.38,-28.5
4.9169,-8.54,0.054481,0.062308,0.78496,1.5159,1.38,34.44,-27.96
4.8897,-8.8941,-0.23155,0.10079,0.79168,1.4352,5.64,34.2,-26.94
4.9169,-9.1665,-0.27241,0.16066,0.85368,1.3182,9.66,33.78,-25.98
5.0531,-9.5479,-0.57205,0.2135,0.91996,1.1884,13.56,33.36,-25.32
5.4754,-10.297,-0.89894,0.32101,0.9331,0.93523,16.86,32.58,-24.9
5.6933,-11.005,-0.88532,0.36011,0.85765,0.73884,18.54,32.28,-24.54
5.6797,-11.645,-1.0624,0.36438,0.74648,0.49175,21.36,31.8,-24.24
5.4345,-11.645,-1.1577,0.33567,0.67409,0.1967,23.28,31.2,-24.06
5.0531,-12.095,-1.0079,0.3598,0.60903,-0.0956,24.66,30.9,-23.76
4.9578,-12.926,-1.0215,0.33201,0.55864,-0.35216,25.8,30.24,-23.82
4.8625,-13.144,-0.84446,0.12523,0.49511,-0.72021,26.58,30.06,-23.76
4.8352,-13.184,-0.7355,-0.027794,0.41936,-0.89278,27.0,29.82,-23.76
4.522,-12.217,-0.7355,-0.23121,0.37263,-1.1283,27.06,29.76,-23.88
3.8137,-10.188,-0.47671,-0.35247,0.39737,-1.4004,27.18,29.94,-24.0
3.1599,-9.1256,-0.27241,-0.36988,0.48747,-1.6915,27.12,30.12,-24.18
3.1054,-9.8475,-0.40861,-0.35186,0.6127,-1.9792,26.46,30.78,-24.18
3.2416,-10.556,-0.50395,-0.40256,0.72235,-2.2034,26.22,30.96,-24.06
3.5685,-12.122,-0.64016,-0.54153,0.74678,-2.3063,25.14,31.8,-24.18
3.732,-12.34,-0.29965,-0.90775,0.72662,-2.3482,23.46,32.76,-24.0
3.7728,-12.149,0.054481,-1.1799,0.74831,-2.3387,22.56,33.42,-24.0
3.4323,-10.869,0.49033,-1.3876,0.80207,-2.3072,20.52,34.62,-23.7
3.1327,-9.6023,0.44947,-1.4453,0.88942,-2.3381,18.06,36.18,-23.22
3.1054,-9.2755,0.43585,-1.3769,0.97738,-2.3946,16.74,36.84,-22.86
3.1735,-8.9213,0.24517,-1.2223,0.9725,-2.4264,13.74,38.4,-22.26
3.1191,-8.8396,0.24517,-1.0122,0.83261,-2.3543,10.62,40.14,-21.6
3.0918,-8.6217,0.21793,-0.9447,0.66065,-2.2287,8.88,40.86,-21.24
2.8739,-8.145,-0.01362,-0.90225,0.43188,-2.0433,5.64,42.48,-20.64
2.3972,-7.9679,-0.027241,-0.91508,0.25901,-1.8265,2.58,44.16,-19.86
2.1656,-7.8998,0.040861,-0.98624,0.19303,-1.6072,1.2,45.0,-19.44
1.7706,-7.6138,0.35413,-1.0815,0.26695,-1.383,-1.62,46.32,-18.48
1.6072,-7.3141,0.39499,-1.2208,0.56505,-1.0244,-4.08,47.4,-17.46
1.7025,-7.1915,0.40861,-1.2507,0.78343,-0.76572,-5.16,47.94,-16.8
2.1929,-7.1098,0.49033,-1.2147,0.91783,-0.5058,-7.44,48.84,-15.6
3.0918,-7.8998,0.64016,-1.186,0.91966,-0.22633,-9.18,49.26,-14.4
3.337,-8.2676,0.76274,-1.1512,0.7984,0.053145,-9.9,49.38,-13.98
3.337,-8.1586,0.91256,-1.1442,0.6463,0.29077,-11.04,49.62,-12.36
3.0237,-7.9407,1.1577,-1.102,0.59162,0.56291,-11.88,49.86,-10.98
2.8875,-8.3357,1.2803,-1.0583,0.69211,0.78527,-12.3,49.92,-10.44
2.6151,-9.9156,1.7162,-1.0907,0.92424,1.0513,-13.02,50.16,-9.3
3.3234,-11.046,1.9613,-1.1457,1.1912,1.3967,-13.2,50.22,-8.28
3.5413,-10.447,1.9341,-1.2089,1.452,1.6344,-13.08,50.22,-7.86
3.5549,-8.7443,2.0294,-1.1442,1.6026,1.8583,-12.96,50.28,-7.08
3.3234,-8.6081,2.0022,-0.88698,1.7758,1.996,-12.36,50.46,-6.3
3.4868,-9.6432,1.9613,-0.67959,1.8766,2.0934,-11.64,50.7,-5.34
3.8954,-10.801,1.866,-0.48289,1.8714,2.2284,-11.16,50.7,-4.86
4.9987,-11.959,1.58,-0.3427,1.7355,2.3815,-9.66,50.82,-4.08
5.6116,-10.992,1.2531,-0.21105,1.4841,2.5204,-7.92,50.7,-3.12
5.4481,-9.9973,1.1169,-0.10446,1.2138,2.6078,-6.84,50.58,-2.52
5.38,-9.0575,0.88532,0.064446,1.0205,2.5113,-4.32,50.34,-1.32
5.5162,-8.4174,0.40861,0.19395,0.956,2.386,-1.5,49.68,-0.12
5.6388,-8.2539,0.21793,0.2926,0.88026,2.2413,0.06,49.5,0.36
5.8976,-8.0769,-0.14982,0.34147,0.7364,2.1057,3.42,48.84,1.38
5.9385,-7.641,-0.64016,0.34544,0.54672,1.9642,6.66,48.12,2.28
5.9249,-7.3822,-0.61292,0.30146,0.3766,1.8546,10.02,47.22,2.76
5.8023,-7.246,-0.68102,0.25504,0.28253,1.7303,11.7,46.74,3.18
5.8023,-7.246,-0.8717,0.18601,0.27336,1.5204,14.82,46.08,3.36
5.8159,-7.2596,-1.076,0.197,0.26603,1.3265,16.32,45.66,3.78
6.1019,-7.3414,-1.2939,0.20433,0.21686,1.095,19.2,44.88,3.9
5.9385,-6.7693,-1.4301,0.18051,0.1124,0.79993,21.54,44.16,3.96
5.6661,-6.3335,-1.3348,0.16829,0.0027489,0.48167,22.68,43.86,4.02
5.1621,-5.9793,-1.3757,0.2364,-0.12034,0.16646,24.54,43.2,4.02
5.1894,-6.8647,-1.5119,0.3485,-0.33964,-0.20067,25.98,42.66,3.84
5.2847,-7.4776,-1.6072,0.32009,-0.53603,-0.35583,26.64,42.3,3.66
5.2847,-8.54,-1.5527,0.20281,-0.72632,-0.52382,27.84,41.94,3.72
4.8625,-8.7851,-1.0624,0.067501,-0.83139,-0.68875,28.26,41.7,3.36
4.7671,-9.4525,-0.89894,0.025656,-0.86254,-0.80634,28.56,41.46,3.06
5.4073,-12.939,-1.185,-0.025045,-0.87018,-0.87751,28.62,41.28,2.34
5.7886,-15.922,-0.29965,-0.41814,-0.8375,-1.1741,28.38,41.46,1.68
5.094,-17.706,1.6208,-0.83383,-0.68509,-1.456,27.54,41.46,1.02
4.8216,-18.115,1.975,-1.1848,-0.28161,-1.755,27.0,41.46,0.72
4.7535,-18.578,2.0158,-1.3977,0.30238,-2.1133,25.56,41.7,0.06
5.4618,-16.413,1.2531,-1.3693,0.79351,-2.4838,23.7,42.12,-0.12
5.4618,-16.413,1.2531,-1.2743,0.93432,-2.6237,23.7,42.12,-0.12
5.6388,-12.354,1.1032,-0.65332,0.96731,-3.0772,19.68,42.9,-0.3
5.598,-11.25,1.0624,-0.45357,0.82803,-3.2898,18.24,43.26,-0.3
5.1213,-9.793,0.9398,-0.34361,0.62797,-3.4251,14.1,43.92,-0.06
4.9306,-8.9213,0.83084,-0.28619,0.43097,-3.4792,9.6,44.64,0.18
4.6582,-8.4719,0.8036,-0.27611,0.20983,-3.423,7.02,44.94,0.06
4.1406,-7.8045,0.65378,-0.31429,-0.061087,-3.2926,1.86,45.42,0.06
3.6639,-7.4912,0.65378,-0.40073,-0.39156,-3.0308,-0.78,45.66,-0.12
2.8739,-6.7966,0.61292,-0.47647,-0.50549,-2.81,-6.0,45.9,-0.06
2.2337,-6.1292,0.57205,-0.55741,-0.55222,-2.5855,-8.58,45.9,-0.12
1.8387,-5.7478,0.54481,-0.62553,-0.53298,-2.3515,-13.62,45.66,-0.24
1.3757,-4.9033,0.24517,-0.68111,-0.45845,-2.1279,-18.12,45.0,-0.36
1.0896,-4.5083,0.25879,-0.70921,-0.34239,-1.9361,-22.02,44.1,-0.12
1.0488,-4.3994,0.21793,-0.73395,-0.14752,-1.5956,-23.82,43.56,0.12
1.4438,-4.5492,0.24517,-0.73854,-0.0079412,-1.3311,-26.82,42.06,0.72
1.8387,-4.7671,0.20431,-0.74984,0.058643,-1.0507,-27.96,41.28,1.26
2.4108,-4.7671,0.20431,-0.73182,0.062919,-0.7645,-30.24,39.78,1.92
3.2144,-5.1621,0.28603,-0.69852,0.057116,-0.41905,-31.86,38.4,2.76
3.6503,-5.6661,0.42223,-0.66432,0.062308,-0.0061087,-32.58,37.62,2.94
4.4947,-7.1643,0.61292,-0.66768,0.076053,0.79412,-33.66,36.3,3.66
4.7671,-8.1177,0.95342,-0.66981,0.23091,1.3457,-34.44,35.22,4.14
5.2166,-8.5127,1.1986,-0.63347,0.54459,1.85,-34.68,34.68,4.38
5.7886,-8.8668,0.8036,-0.53878,0.94562,2.3509,-34.86,34.02,4.56
6.5786,-9.4389,0.19068,-0.27642,1.2055,2.8393,-34.38,33.66,4.38
7.8589,-10.692,-0.32689,0.01069,1.2358,3.2452,-33.78,33.9,3.72
8.431,-11.019,-0.53119,0.30329,0.93615,3.6065,-33.06,34.08,3.54
8.4174,-10.815,-0.51757,0.66798,0.12737,4.051,-31.38,34.86,3.12
8.0224,-10.338,-0.72188,0.87751,-0.38332,4.1701,-29.4,35.64,2.88
7.7364,-9.8611,-0.95342,1.0708,-0.83291,4.1685,-26.64,36.72,2.16
7.2596,-9.1665,-1.3212,1.2492,-1.2132,4.0247,-25.02,37.02,2.04
6.4697,-8.4719,-1.3212,1.3671,-1.4865,3.7806,-21.12,38.16,1.5
5.5707,-8.1858,-1.185,1.3955,-1.5834,3.3744,-16.98,38.7,0.78
5.1757,-8.1586,-0.89894,1.3341,-1.4707,3.1163,-14.82,39.0,0.6
6.0202,-8.2948,-0.95342,1.2874,-1.4456,2.8421,-9.9,39.48,0.24
7.0962,-8.3493,-1.4029,1.3283,-1.7269,2.5128,-7.5,39.42,-0.06
7.0553,-7.4503,-1.9477,1.4019,-2.2226,2.116,-2.58,39.12,-0.66
6.0338,-7.1234,-2.0703,1.4642,-2.5308,1.6139,-0.12,38.88,-1.08
4.808,-6.9191,-2.152,1.4478,-2.3069,1.0794,2.22,38.46,-1.5
3.9635,-7.8317,-2.2201,1.3894,-1.6469,0.57605,6.6,37.32,-2.76
4.4947,-9.3163,-2.6015,1.2254,-0.66065,0.019548,8.4,36.48,-3.36
5.8295,-12.027,-2.9692,0.98624,-0.46731,-0.1127,10.2,35.82,-4.14
6.9328,-16.113,-2.1656,0.59865,-0.67989,-0.059865,12.96,34.2,-5.4
7.0826,-19.137,-0.8036,0.073609,-1.0571,0.083994,14.16,33.6,-6.18
6.8102,-19.436,-0.027241,-0.58704,-1.1918,0.1799,15.18,32.76,-6.78
5.2166,-17.611,1.9477,-2.0134,-0.67348,-0.0045815,16.5,31.26,-8.16
4.1951,-14.451,2.3427,-2.5113,0.082467,-0.38882,16.74,30.72,-8.88
3.4187,-12.0,1.9886,-2.5259,0.91996,-0.96425,16.8,30.24,-9.3
2.8467,-9.6296,1.0488,-2.1429,1.7199,-1.7083,16.08,29.76,-9.96
3.2825,-9.902,0.8717,-1.5333,2.6408,-2.6081,15.48,29.46,-10.08
4.3858,-10.42,0.61292,-0.95112,2.7764,-2.7599,14.52,29.46,-10.2
6.3743,-10.447,0.54481,-0.44746,2.4746,-2.9016,12.18,29.82,-9.72
6.6876,-9.9292,0.8036,-0.46273,1.7727,-2.8549,10.8,30.24,-9.18
6.3743,-8.9894,1.0624,-0.63774,0.89614,-2.8747,9.0,30.72,-8.88
5.8976,-8.1041,1.0624,-0.80543,0.099876,-2.9935,7.26,31.32,-8.58
4.7399,-6.7148,0.69464,-0.93676,-0.51313,-3.123,2.94,32.22,-7.98
4.5356,-6.674,0.57205,-0.97922,-0.67134,-3.0378,0.6,32.76,-7.5
3.9499,-6.6195,0.34051,-1.0067,-0.76205,-2.8708,-1.86,33.36,-6.96
2.9965,-6.5378,0.49033,-1.0324,-0.80023,-2.6957,-6.9,34.2,-5.64
2.5742,-6.3471,0.72188,-1.0559,-0.73212,-2.4737,-9.36,34.44,-5.1
2.2065,-6.1155,0.7355,-1.0812,-0.56658,-2.2318,-11.7,34.5,-4.5
1.7706,-5.775,0.89894,-1.1295,-0.18906,-1.8726,-16.26,34.56,-3.3
1.58,-5.4073,0.92618,-1.1411,0.11729,-1.6374,-18.3,34.38,-2.58
1.5663,-5.2847,0.89894,-1.1106,0.43158,-1.3708,-20.22,34.2,-1.98
1.471,-5.2438,0.91256,-1.0461,0.70769,-1.062,-22.02,33.78,-1.32
2.0567,-5.9385,0.92618,-0.98594,0.90744,-0.64752,-25.26,32.7,-0.06
2.7377,-6.7966,1.076,-0.90103,0.99907,-0.13408,-26.52,32.04,0.72
3.337,-7.5184,1.3348,-0.78405,0.98533,0.44563,-28.62,31.14,2.04
3.8409,-8.2403,1.3212,-0.60476,0.93798,1.0605,-29.22,30.6,2.64
4.2359,-9.4798,1.2531,-0.16402,0.89064,2.0104,-29.7,30.12,3.24
4.5901,-10.569,1.2258,-0.009163,0.84819,2.3683,-29.76,29.7,3.6
5.4754,-12.217,0.8036,0.45845,0.56841,3.357,-29.88,29.28,3.66
6.6059,-11.85,-0.6674,0.77885,0.15944,3.7785,-29.52,29.16,4.14
6.6059,-11.019,-1.4846,1.1448,-0.47037,4.0137,-29.04,29.16,4.2
5.8567,-10.243,-2.3155,1.2135,-0.58643,3.9923,-27.36,29.64,3.84
5.3528,-10.052,-2.3018,1.2187,-0.66768,3.8668,-26.34,29.76,3.78
5.0395,-10.025,-2.0839,0.8885,-0.5681,3.5137,-25.08,30.24,3.54
5.094,-9.8884,-1.4165,0.63072,-0.36896,3.2507,-21.96,31.14,3.06
5.2575,-9.4934,-1.3757,0.41875,-0.10018,2.989,-20.22,31.5,2.7
5.3256,-8.9486,-1.2395,0.34056,0.15485,2.6154,-15.9,32.22,2.16
6.0066,-8.2676,-1.6072,0.42974,0.099571,2.3888,-13.8,32.46,1.92
6.3879,-8.0632,-2.1929,0.60934,-0.14019,2.1747,-11.52,32.76,1.74
6.3879,-8.0632,-2.1929,0.80207,-0.48442,1.8931,-11.52,32.76,1.74
6.3879,-8.0632,-2.1929,0.83719,-0.68936,1.5828,-11.52,32.76,1.74
5.2847,-7.8998,-2.261,0.73151,-0.6408,1.2969,-6.84,32.94,1.44
4.8761,-7.6002,-2.1384,0.59071,-0.45479,0.92088,-2.22,32.7,0.9
4.9987,-7.7636,-2.0975,0.50641,-0.28894,0.66584,0.12,32.46,0.72
5.2166,-9.0848,-2.1656,0.44349,-0.37141,0.41447,4.26,31.62,0.54
5.9521,-10.869,-2.2882,0.34147,-0.54978,0.20403,7.8,30.72,0.06
6.5241,-13.089,-1.9341,0.19884,-0.75808,0.0042761,10.8,29.76,-0.24
5.9521,-15.255,-0.92618,-0.023518,-0.84941,-0.2306,12.96,28.8,-0.84
5.0668,-16.399,0.55843,-0.46304,-0.63988,-0.54459,14.16,27.96,-0.96
4.9987,-16.821,0.84446,-0.86651,-0.092241,-0.92974,14.46,27.6,-1.26
5.8159,-17.529,0.43585,-1.1332,0.67378,-1.4762,14.46,27.18,-1.5
6.9055,-16.126,0.25879,-1.0941,0.80543,-1.8014,13.98,26.82,-1.56
6.5378,-13.866,0.76274,-0.95906,0.7645,-2.0745,12.72,26.88,-1.44
5.5435,-12.122,1.1305,-0.76328,0.74159,-2.3677,11.22,27.0,-0.84
4.8625,-10.855,0.8036,-0.56902,0.77672,-2.6997,9.36,27.24,-0.42
4.6309,-10.256,0.14982,-0.36102,0.84605,-2.9706,6.96,27.9,0.24
4.9578,-9.8066,-0.34051,-0.12339,0.84819,-3.1915,4.44,28.32,0.96
5.1894,-9.0848,-0.49033,-0.10446,0.67928,-3.2507,1.86,28.68,1.56
5.0123,-8.5127,-0.40861,-0.16616,0.36011,-3.2639,-0.96,29.04,2.22
4.8625,-8.2676,-0.35413,-0.27794,0.051924,-3.262,-2.34,29.34,2.64
4.7399,-7.7364,-0.14982,-0.43035,-0.1854,-3.259,-5.22,29.7,3.18
4.2904,-7.246,-0.44947,-0.56627,-0.3317,-3.2745,-8.28,29.7,3.12
3.9771,-6.9464,-0.58567,-0.6802,-0.3824,-3.2849,-9.72,29.76,3.3
3.2144,-6.279,-0.50395,-0.85338,-0.2926,-3.2177,-12.48,29.58,3.54
2.9284,-6.0202,-0.40861,-1.0122,-0.079718,-3.1255,-13.8,29.34,3.6
2.261,-5.5843,-0.17706,-1.1674,0.16096,-2.9535,-16.26,28.92,3.78
1.8115,-5.38,0.10896,-1.2947,0.41783,-2.7245,-18.06,28.44,3.9
2.0431,-5.1349,0.40861,-1.3873,0.66493,-2.4728,-19.92,27.54,4.32
2.0158,-4.9987,0.47671,-1.4322,0.84208,-2.2006,-20.52,27.06,4.56
2.0975,-5.3256,1.1441,-1.408,0.98013,-1.8091,-22.02,25.8,5.04
2.6151,-6.4424,1.3076,-1.3631,1.138,-0.99449,-23.1,24.36,5.46
3.0237,-6.8102,1.4165,-1.3427,1.1286,-0.31276,-23.94,22.86,6.18
3.8546,-6.8374,1.5527,-1.2043,1.0376,0.40531,-24.3,22.26,6.3
4.7399,-6.6876,1.1713,-0.9444,0.93126,1.1707,-24.78,21.18,6.84
5.2302,-7.0962,0.64016,-0.33995,0.5003,2.1945,-24.96,20.22,6.96
5.6661,-8.2539,0.27241,-0.10751,0.27764,2.5378,-24.9,19.74,7.08
6.3743,-9.9292,-0.47671,0.49236,-0.41233,3.4578,-24.96,19.44,7.08
6.4152,-10.025,-0.85808,0.77274,-0.8433,3.9419,-24.66,19.56,7.2
5.775,-9.8339,-0.49033,0.93157,-1.0934,4.3109,-23.94,19.98,7.2
5.0668,-10.12,0.01362,0.97189,-1.062,4.5604,-22.74,20.58,7.44
5.2166,-10.188,-0.29965,0.98502,-0.8714,4.6368,-21.9,21.0,7.5
6.4152,-10.46,-1.6753,0.99388,-0.73762,4.5598,-20.28,22.32,7.74
7.1234,-10.283,-1.7843,1.0211,-0.91508,4.2776,-18.0,23.58,7.86
6.7966,-9.9565,-1.4301,0.98899,-1.0742,3.9831,-16.74,24.06,8.04
6.0202,-9.2891,-1.0215,0.94073,-1.1139,3.6976,-14.28,25.02,8.7
5.9793,-9.1256,-0.99429,0.98471,-1.0159,3.394,-12.9,25.62,8.94
6.2926,-9.0984,-1.6208,1.0495,-0.94837,3.0665,-9.66,26.52,9.48
6.7148,-8.826,-2.0294,1.1096,-1.0195,2.6909,-6.42,26.94,9.84
6.96,-8.5808,-2.5334,1.1887,-1.2898,2.1551,-3.06,27.3,9.96
6.9464,-8.6762,-2.7649,1.1927,-1.5302,1.7663,-1.5,27.3,10.14
6.7012,-9.0439,-2.8058,1.1637,-1.7437,1.3546,1.62,27.24,9.9
6.4288,-9.6704,-2.7649,1.1133,-1.8509,0.97158,3.18,27.18,9.78
6.3743,-11.414,-2.5742,0.98349,-1.8335,0.61636,5.94,27.06,9.66
6.7285,-14.887,-2.1929,0.78802,-1.7578,0.32651,8.4,27.06,9.18
7.0962,-18.701,-1.9477,0.1799,-1.5375,0.084605,10.56,27.0,8.46
7.069,-19.436,-1.2803,-0.71502,-1.091,-0.18295,11.52,26.76,8.34
5.884,-18.306,0.1362,-1.4584,-0.3485,-0.60873,12.9,26.64,8.04
4.7399,-14.655,1.1441,-1.9358,0.58551,-1.0702,13.8,26.34,7.92
4.2904,-13.089,1.2939,-2.1344,1.5944,-1.6887,13.98,26.28,7.92
4.3994,-10.161,0.92618,-1.9236,2.481,-2.3622,13.86,26.22,8.28
5.3256,-9.3163,0.49033,-1.2336,3.1484,-3.2348,13.08,26.22,9.0
6.0611,-9.1393,0.31327,-0.74984,3.0369,-3.6368,12.6,25.98,9.36
