Ax,Ay,Az,Gx,Gy,Gz,Mx,My,Mz
1.58,-7.5321,-11.141,-0.23946,1.7284,0.79474,-8.82,70.62,6.84
-0.65378,-7.5184,-8.2948,-0.4444,0.82131,1.1591,-7.2,69.12,7.62
-0.92618,-7.3414,-6.2517,-0.4218,1.3149,0.97341,-6.3,68.34,8.1
-0.28603,-7.6546,-5.1621,-0.28955,1.5666,0.85735,-4.38,66.72,9.06
0.01362,-8.2403,-5.5435,-0.19914,1.0205,0.96944,-3.54,65.04,10.02
-1.3757,-8.6898,-6.3607,-0.12401,0.15516,1.2236,-1.68,64.2,10.5
-2.7649,-8.3629,-6.456,-0.10782,-0.32406,1.3265,-0.06,62.46,11.58
-1.7979,-8.1586,-5.9657,-0.093157,-0.43494,1.2963,1.5,60.96,12.66
-1.0624,-8.1177,-5.6388,-0.097738,-0.41508,1.1878,2.4,60.12,13.08
-0.16344,-7.4776,-5.3528,-0.13408,-0.64507,1.0773,4.14,58.98,14.4
-0.74912,-6.6059,-5.2302,-0.18998,-0.59284,1.0369,5.7,58.02,15.48
-0.70826,-5.993,-5.0259,-0.2926,-0.3543,1.0043,6.48,57.6,15.96
-0.27241,-5.5026,-4.6173,-0.40348,-0.13928,0.9615,8.22,56.82,16.74
-0.28603,-5.1349,-4.0997,-0.51496,-0.021991,0.90713,10.02,55.92,17.58
-0.6674,-5.0395,-3.8954,-0.70616,0.19273,0.83994,11.64,54.96,18.12
-1.5391,-5.5162,-3.9771,-0.88575,0.48472,0.79565,12.48,54.54,18.54
-1.4301,-6.279,-4.0725,-1.0403,0.80634,0.77916,13.98,54.0,19.08
-1.4165,-6.6604,-5.5707,-1.0965,0.99266,0.75136,15.12,53.28,19.68
-1.6889,-6.7966,-6.5922,-1.233,1.0537,0.73884,15.84,52.86,20.04
-1.9886,-6.9464,-7.7908,-1.4398,1.0696,0.72785,16.62,52.02,20.64
-1.2531,-7.5184,-8.0496,-1.6558,1.2456,0.64294,17.4,51.18,21.12
-0.081722,-7.6955,-8.1586,-1.6744,1.3864,0.5229,18.0,50.34,22.14
0.10896,-7.4231,-8.6353,-1.5394,1.336,0.56383,18.18,49.92,22.56
0.35413,-6.3335,-9.6704,-1.3656,1.3201,0.6185,18.18,48.96,23.58
1.0351,-5.2847,-8.826,-1.1197,1.3592,0.60384,18.18,47.88,24.72
2.0294,-5.2438,-9.0303,-0.86407,1.3515,0.42547,18.18,46.5,25.8
2.7786,-5.4481,-9.8884,-0.62033,1.1423,0.38668,18.06,45.3,27.06
2.6832,-5.489,-10.46,-0.36346,0.68753,0.39676,17.82,44.64,27.54
1.866,-5.2847,-9.8339,-0.26114,0.28558,0.36835,17.46,43.32,28.62
1.1713,-5.0804,-7.4776,-0.11881,-0.2813,0.26237,17.04,42.12,29.88
0.95342,-4.9442,-4.5356,0.089186,-0.81092,0.13561,16.8,40.98,30.66
1.0351,-4.9169,-3.732,0.32345,-1.0339,-0.0024435,16.56,40.32,30.96
2.2201,-4.9033,-3.7728,0.48411,-1.0895,-0.18387,16.74,39.42,31.56
1.9886,-4.2223,-4.0316,0.76419,-0.86071,-0.24923,16.74,38.64,31.98
-0.54481,-3.3506,-2.3699,0.94073,-0.72815,-0.14478,16.92,38.16,31.92
-0.96704,-3.3097,-1.8524,1.0632,-0.55222,-0.36133,17.22,38.04,31.74
1.2258,-3.7456,-1.7706,1.1096,-0.15547,-0.83536,17.4,37.8,31.26
4.3313,-2.6287,-2.6696,1.3253,-0.1909,-1.0608,17.7,37.92,30.54
4.7671,-2.3427,-3.3778,1.5409,-1.2199,-1.2349,17.82,37.92,29.88
3.4051,-3.0646,-3.4732,1.6304,-2.2929,-1.365,18.24,38.34,28.38
1.471,-3.9771,-3.9771,1.4068,-2.116,-1.511,18.3,39.12,26.16
0.99429,-4.6037,-4.3177,1.1448,-0.99143,-1.7556,18.36,39.36,24.84
1.076,-5.8159,-4.2359,0.97769,0.30574,-1.8986,18.0,40.08,22.02
2.1929,-6.1973,-3.8818,1.0079,1.146,-1.9972,17.58,40.5,19.08
2.9284,-6.3062,-3.7047,1.2685,1.2046,-1.9862,17.16,40.74,17.58
3.1735,-7.4367,-3.5822,1.5159,0.81489,-1.8243,15.84,40.62,14.52
3.0918,-8.6898,-3.5958,2.1399,0.09163,-1.4713,14.64,40.26,11.46
3.1191,-9.5887,-3.9363,2.4716,-0.10263,-1.3561,14.16,39.72,9.96
3.4868,-11.414,-5.4754,2.7403,-0.23488,-1.2752,12.66,38.4,7.26
3.6366,-12.326,-6.9872,2.8335,-0.49144,-1.2569,11.94,37.5,6.06
3.5277,-13.607,-7.8045,2.6912,-0.83017,-1.2792,10.68,35.46,4.38
3.7047,-16.603,-5.6116,2.5803,-1.1719,-1.3647,9.6,33.42,3.06
4.2223,-18.401,-4.4811,2.6637,-2.0779,-1.3292,9.3,32.34,2.82
3.6094,-19.504,-2.4517,2.5751,-2.6628,-1.2349,8.7,30.18,2.4
2.0703,-19.137,-1.7706,2.1903,-3.0427,-0.88331,8.46,28.44,2.34
0.83084,-16.835,-2.0294,1.4713,-2.9633,-0.9276,8.64,27.06,2.52
0.40861,-15.554,-2.0567,0.8265,-2.5837,-1.4285,8.76,26.4,2.82
0.40861,-12.626,-1.9341,0.37538,-1.7501,-2.2009,9.12,25.8,3.66
-0.19068,-11.087,-2.6151,0.18998,-1.4145,-2.3427,9.84,25.56,4.14
-0.57205,-10.746,-2.9556,0.029932,-1.2343,-2.2617,10.08,25.56,4.5
-1.3076,-9.9565,-3.7592,-0.18967,-1.3454,-2.0537,10.56,25.44,5.34
-1.9886,-9.3163,-3.8954,-0.30971,-1.8357,-1.5959,10.68,25.62,6.0
-2.2201,-9.1529,-3.4596,-0.38637,-2.2214,-1.3341,10.86,25.74,6.3
-2.3972,-8.1313,-2.9284,-0.61484,-2.5192,-1.357,11.1,25.86,7.02
-2.547,-6.8647,-2.2201,-0.7871,-1.8842,-1.0446,11.28,26.04,7.8
-1.9477,-6.1836,-2.0975,-0.81306,-1.1555,-0.83414,11.16,26.1,8.64
-1.7979,-5.9657,-2.1929,-0.9447,0.18784,-0.52443,10.98,26.1,9.06
0.99429,-7.0962,-1.9613,-1.0825,1.0318,-0.14783,10.32,26.16,10.08
1.8932,-8.9758,-1.2939,-1.153,1.9517,-0.048869,9.66,26.28,11.04
1.6344,-9.0984,-0.88532,-1.2685,2.1319,0.14875,9.36,26.4,11.34
1.4846,-8.2539,0.081722,-1.4441,2.3482,0.44104,8.64,26.58,12.0
1.4846,-7.7364,0.6674,-1.416,2.6389,0.62278,7.98,26.64,12.66
2.0567,-8.0088,1.1169,-1.277,2.8708,0.72662,7.62,27.0,13.38
2.2882,-8.3084,1.2531,-1.0852,3.0247,0.83017,7.32,27.12,13.62
3.0373,-9.6568,1.2395,-0.84452,3.1108,1.0104,6.96,27.24,14.52
3.337,-10.283,1.1305,-0.57879,3.0998,1.2862,6.78,27.18,14.7
4.3449,-11.4,0.8036,-0.35064,3.091,1.6582,6.84,27.36,15.06
4.7126,-12.926,0.85808,0.053145,3.4205,2.1701,6.9,27.24,15.3
5.4754,-16.426,0.54481,0.42516,3.5956,2.5443,7.02,27.24,15.48
7.9815,-17.938,-1.9341,0.47342,3.4948,2.726,6.96,27.36,16.26
8.322,-15.01,-3.5685,0.26817,2.9416,3.0329,7.02,27.42,16.44
8.0632,-10.351,-4.7263,0.33384,1.5122,3.0271,7.38,27.36,16.62
5.7069,-5.8023,-3.4596,0.63316,-0.22846,2.6307,7.98,27.6,16.86
4.127,-6.4016,-2.5061,0.90164,-1.7966,2.1896,8.4,27.72,16.86
3.1599,-7.5321,-1.7979,1.212,-3.6612,1.7349,8.82,27.6,16.74
3.4596,-8.826,-1.3893,1.2171,-4.2354,1.6298,10.14,27.54,16.32
4.3858,-8.1995,-1.7979,1.1765,-4.2183,1.4496,10.86,27.54,15.84
3.7865,-6.7012,-2.656,1.0696,-3.6145,1.1478,12.54,27.66,14.94
3.228,-6.3743,-3.0918,0.94776,-2.5867,0.98105,13.44,27.66,14.28
3.0101,-6.7557,-3.4187,0.7532,-1.6658,0.75564,14.58,27.72,13.62
2.8058,-8.2267,-3.3097,0.62797,-1.1252,0.34697,16.86,27.6,12.12
2.7377,-8.9213,-3.514,0.47098,-0.89767,0.24587,18.0,27.54,11.16
2.9556,-8.9894,-3.7728,0.27092,-0.69242,0.12492,19.02,27.54,10.38
3.0646,-8.2812,-3.3097,-0.01069,-0.48106,-0.18815,20.88,27.6,8.7
3.1599,-8.0769,-3.0373,-0.067501,-0.46517,-0.30971,21.96,27.54,7.8
3.2144,-8.0632,-2.8875,-0.2025,-0.58674,-0.5678,22.74,27.54,7.14
3.0918,-8.6081,-2.5198,-0.27917,-0.67256,-0.67898,24.18,27.9,5.94
3.0782,-9.3163,-2.2882,-0.37813,-0.69058,-0.78435,24.6,28.02,5.28
3.0646,-10.188,-2.0567,-0.49633,-0.61148,-0.86224,25.08,28.2,4.8
3.3506,-12.149,-1.7025,-0.67867,-0.35827,-0.94104,25.74,28.56,3.9
3.4051,-13.103,-1.3348,-0.74709,-0.23976,-0.96975,25.98,28.86,3.66
3.5413,-13.961,-0.96704,-0.86834,0.051924,-1.0724,26.16,29.16,3.54
3.9771,-16.481,-0.47671,-0.93065,0.50183,-1.2627,26.16,29.7,3.42
4.2223,-17.802,-0.01362,-0.9108,0.71593,-1.3427,26.1,30.18,3.6
4.018,-16.385,-0.25879,-1.2007,0.93523,-1.4013,26.04,30.54,3.9
3.4051,-12.408,-0.44947,-1.321,1.0528,-1.6976,25.8,31.26,4.62
3.3234,-10.869,-0.57205,-1.0974,0.8885,-1.9542,25.32,31.74,5.16
3.3234,-10.515,-0.47671,-1.0434,0.7422,-2.0647,24.78,32.1,5.64
3.0782,-10.433,-0.34051,-0.8714,0.1967,-2.2981,24.3,32.52,6.3
2.7649,-10.188,-0.19068,-0.7761,-0.089492,-2.2947,22.86,33.18,7.56
2.7513,-9.2618,-0.12258,-0.76938,-0.30665,-2.2721,21.96,33.42,8.28
2.4108,-7.6955,0.01362,-0.73029,-0.47128,-2.1286,19.8,34.02,9.96
2.4108,-7.2052,0.01362,-0.67378,-0.4945,-2.0409,18.6,34.32,10.74
2.1384,-6.4969,0.027241,-0.60231,-0.60231,-1.8091,17.28,34.56,11.34
1.9613,-5.38,0.054481,-0.52626,-0.64171,-1.5715,14.52,35.1,12.54
1.866,-4.8897,-0.054481,-0.45601,-0.66309,-1.2944,13.14,35.34,13.08
1.8115,-4.3858,-0.027241,-0.39401,-0.63805,-1.0229,11.64,35.58,13.38
1.8524,-4.3585,-0.28603,-0.24496,-0.48045,-0.52718,8.7,35.88,13.74
2.0158,-4.7671,-0.31327,-0.18265,-0.36041,-0.17074,7.26,35.94,13.92
2.0567,-5.0123,-0.54481,-0.16677,-0.29719,-0.0079412,6.06,36.18,13.92
1.8387,-5.6661,-0.8717,-0.15058,-0.039095,0.44654,3.78,36.36,13.98
1.6072,-5.6797,-0.95342,-0.1631,0.20067,0.71105,2.94,36.48,14.22
1.6753,-5.8023,-0.96704,-0.13408,0.43707,0.94592,2.28,36.66,14.16
2.4108,-7.2324,-1.2803,-0.020159,0.80512,1.3018,1.5,36.78,14.34
2.6287,-8.0905,-1.4846,0.12645,0.97708,1.5647,1.32,36.9,14.4
2.9556,-9.5887,-1.6208,0.25748,1.1332,1.8802,1.32,37.02,14.64
4.0725,-13.716,-1.58,0.47098,1.3085,2.2523,1.98,37.26,15.12
4.9033,-15.8,-1.6481,0.61758,1.5162,2.5669,2.46,37.26,15.18
5.7886,-17.706,-2.0567,0.67165,1.7034,2.7327,3.3,37.38,15.3
6.6604,-16.658,-3.4051,0.59804,1.7694,2.8778,5.34,37.74,15.66
6.3471,-13.702,-4.2223,0.37263,1.2666,2.5296,6.42,37.92,15.84
5.598,-10.964,-4.522,0.45112,0.48564,2.0989,7.62,37.98,15.96
4.8625,-9.3708,-3.6775,0.48625,0.044899,1.8903,10.32,38.04,16.02
4.6718,-10.515,-3.1599,0.62675,-1.1188,1.2746,11.64,38.16,15.72
4.5764,-11.414,-2.6832,0.64904,-1.5531,1.0018,12.96,38.16,15.54
3.7728,-10.351,-2.1656,0.54214,-1.6157,0.87293,15.72,38.28,14.88
3.5277,-9.3844,-2.152,0.33201,-1.1958,0.69944,16.92,38.22,14.4
3.2553,-8.0632,-2.4244,0.23152,-0.79932,0.51404,19.5,38.28,13.2
2.4789,-6.3471,-2.4925,0.15638,-0.41294,0.33475,20.7,38.22,12.66
2.0839,-5.8704,-2.5334,0.10599,-0.10232,0.16005,21.72,38.22,12.12
1.9613,-5.7342,-2.6015,0.079412,0.11668,0.051924,22.56,38.16,11.64
2.5606,-5.9249,-2.6423,0.076969,0.21686,0.032987,24.0,37.98,10.74
3.0101,-6.2654,-2.6696,0.079107,0.079718,0.1408,24.78,37.98,10.2
3.8001,-7.1643,-2.7104,0.07086,-0.16493,0.22358,25.68,38.04,9.3
3.7728,-7.4095,-2.6015,0.054978,-0.354,0.29291,26.1,38.16,8.82
3.5413,-7.5048,-2.4789,0.0033598,-0.36957,0.30116,26.4,38.16,8.64
2.9556,-7.7636,-2.0567,-0.064141,-0.25962,0.2645,26.94,38.28,7.92
2.9556,-8.1586,-1.9613,-0.1011,-0.081245,0.14966,27.18,38.4,7.86
3.0646,-9.7658,-1.5936,-0.135,0.076358,0.000916,27.48,38.64,7.68
3.2825,-10.828,-1.6072,-0.18265,0.24771,-0.19578,27.48,38.82,7.68
3.3915,-11.441,-1.4846,-0.23671,0.36285,-0.28008,27.48,38.88,7.56
3.7184,-12.299,-0.8036,-0.26237,0.48839,-0.4047,27.84,39.18,7.56
4.0316,-13.362,-0.72188,-0.22785,0.54764,-0.54123,27.84,39.3,7.56
4.5083,-14.506,-0.81722,-0.2248,0.48319,-0.62553,27.78,39.48,7.62
4.3449,-13.702,-1.1169,-0.38576,0.23182,-0.70891,27.66,39.84,7.8
3.9908,-12.612,-1.2258,-0.42425,0.090408,-0.85521,27.54,40.08,8.1
3.514,-11.427,-1.2395,-0.3656,0.011912,-1.062,27.48,40.26,8.22
3.0918,-11.496,-1.1169,-0.3488,-0.024435,-1.233,27.24,40.8,8.7
2.8739,-11.155,-1.3212,-0.3934,-0.045204,-1.3601,26.82,40.98,9.18
2.5334,-10.311,-1.5255,-0.43158,-0.0281,-1.4245,26.52,41.16,9.42
2.2882,-8.826,-1.8932,-0.4945,0.022297,-1.4013,25.62,41.58,9.9
2.152,-7.7364,-1.8932,-0.60262,0.10385,-1.3079,25.26,41.94,10.26
1.9341,-6.5105,-1.9886,-0.63377,0.10354,-1.274,24.66,42.18,10.74
1.9613,-5.094,-2.0567,-0.65973,-0.0018326,-1.2052,24.0,42.42,11.1
2.0022,-4.3858,-1.8524,-0.67104,-0.13806,-1.1417,22.74,43.02,12.36
1.9477,-4.6173,-1.5391,-0.67684,-0.26542,-1.0663,22.02,43.26,12.84
1.8932,-4.9987,-1.2258,-0.76389,-0.28375,-0.85674,20.58,43.8,13.62
1.6889,-5.6797,-0.8717,-0.8375,-0.1631,-0.68234,19.86,43.8,14.1
1.6753,-6.0202,-0.55843,-0.84788,0.038179,-0.48808,18.96,43.92,14.7
1.7434,-6.4424,-0.44947,-0.80176,0.29963,-0.27,18.24,44.1,15.18
2.3427,-8.036,-0.24517,-0.71807,0.62339,-0.0079412,16.62,44.52,16.2
2.8058,-8.8668,-0.17706,-0.58704,0.99113,0.26328,15.84,44.7,16.68
3.4868,-9.9837,-0.28603,-0.40378,1.3384,0.62492,15.12,44.88,17.28
4.304,-11.305,-0.89894,-0.1014,1.8033,0.77794,13.86,45.12,18.42
4.6718,-11.686,-1.4301,0.097738,1.9138,0.82589,13.38,45.36,18.9
4.9033,-12.286,-2.0839,0.35155,1.7315,0.91721,12.9,45.48,19.26
5.8023,-13.77,-3.1599,0.56994,1.2092,1.0919,12.0,45.72,19.68
6.1019,-12.163,-3.9908,0.64507,0.34178,1.1649,11.7,45.72,19.92
5.6388,-10.283,-4.0316,0.6973,-0.65088,1.0849,11.46,45.9,20.22
4.2223,-7.641,-3.3234,0.85491,-1.7425,0.88484,11.28,46.2,20.58
3.5277,-7.2052,-2.9556,0.91966,-2.1121,0.72235,11.34,46.44,20.46
3.2689,-7.246,-2.6968,0.94348,-2.1921,0.6411,11.58,46.68,20.22
2.9284,-8.1177,-2.7377,0.93737,-2.1176,0.53909,12.42,47.04,19.44
2.9011,-8.6762,-3.0373,0.89736,-1.9432,0.63011,13.02,47.28,18.96
2.7377,-8.7579,-3.5413,0.83536,-1.6344,0.76541,13.68,47.58,18.3
1.866,-8.4582,-3.7184,0.62736,-0.76969,0.88881,15.06,47.94,16.8
1.757,-8.1858,-3.7865,0.57696,-0.42791,0.88392,15.84,48.18,16.02
2.0294,-8.4038,-3.8273,0.46059,0.17379,0.8323,16.68,48.3,15.18
2.4925,-8.7034,-3.8409,0.3262,0.63438,0.74098,17.64,48.48,14.4
3.3778,-8.7034,-3.8682,0.23305,0.60537,0.66554,19.44,48.84,12.48
3.6639,-8.8668,-3.732,0.15149,0.44715,0.59193,20.34,48.96,11.64
4.2087,-10.052,-2.8467,0.011912,0.11026,0.43799,21.96,49.14,10.08
4.2223,-10.229,-2.7241,-0.051007,-0.022602,0.3769,22.74,49.38,9.48
4.0316,-9.9973,-2.5061,-0.25809,-0.35308,0.1127,23.16,49.5,9.12
3.5277,-11.713,-1.5255,-0.2193,-0.41172,-0.1182,24.24,49.68,8.4
3.9908,-14.805,-1.5663,-0.19914,-0.4667,-0.30543,24.6,49.62,8.1
3.9771,-15.772,-1.5255,-0.44288,-0.38179,-0.35552,24.84,49.62,7.86
2.2474,-10.065,-0.88532,-1.0085,0.2532,-0.59773,25.08,49.92,7.68
2.2474,-9.1937,-0.17706,-0.83017,0.63835,-0.84758,25.02,50.04,7.62
2.656,-10.569,-0.027241,-0.73884,0.96761,-1.0165,24.9,50.28,7.74
3.0918,-12.463,0.027241,-0.71654,1.1322,-1.0314,24.24,50.7,8.34
3.2008,-12.245,-0.38137,-0.74037,1.2584,-0.96303,23.7,51.0,8.88
3.4051,-11.223,-0.47671,-0.77794,1.3803,-0.83719,23.1,51.18,9.3
3.8273,-9.8203,-0.14982,-0.74434,1.5043,-0.70066,21.9,51.66,10.14
3.8137,-9.1256,-0.29965,-0.63652,1.5663,-0.53878,21.12,51.72,10.56
3.6366,-8.4174,-0.31327,-0.51313,1.3867,-0.42638,20.46,51.72,11.04
3.2553,-7.2596,-0.5993,-0.36285,1.0559,-0.30543,18.78,52.02,12.18
3.1191,-6.8374,-0.64016,-0.25198,0.63072,-0.17959,17.88,52.32,12.96
3.0646,-6.5378,-0.76274,-0.14905,0.18265,-0.082772,17.1,52.44,13.56
2.9965,-5.9249,-0.92618,-0.069944,-0.37874,0.041233,15.54,52.5,14.88
2.9148,-5.993,-0.98067,-0.045815,-0.62522,0.11332,14.82,52.56,15.48
2.7377,-6.0474,-0.91256,-0.092546,-0.76144,0.15821,14.04,52.5,16.02
2.2474,-6.3879,-0.61292,-0.14386,-0.77091,0.18418,13.02,52.44,16.74
1.8932,-6.4424,-0.32689,-0.21105,-0.59407,0.20586,12.72,52.44,16.98
1.7162,-6.3743,-0.14982,-0.27458,-0.26359,0.23366,12.66,52.44,17.22
1.471,-6.4288,0.20431,-0.28588,0.19242,0.26878,12.3,52.44,17.52
1.7434,-7.1234,0.31327,-0.21441,0.92271,0.34911,12.24,52.44,17.58
2.1656,-8.1041,0.47671,-0.11484,1.3118,0.48655,12.12,52.62,17.64
3.1872,-10.76,0.44947,0.027489,1.6255,0.7254,12.06,52.8,17.52
3.8682,-11.972,0.19068,0.16829,1.876,1.0266,12.18,52.74,17.34
4.304,-12.258,-0.01362,0.24984,2.0513,1.2859,12.24,52.8,17.34
5.0531,-11.427,-1.3893,0.33445,2.0604,1.4361,12.42,52.8,17.1
5.4073,-11.141,-1.9205,0.61117,1.4337,1.5473,12.48,52.86,17.04
5.8704,-11.768,-2.5606,0.61117,1.4337,1.5473,12.72,52.92,17.04
6.2381,-13.757,-3.0237,1.0782,-1.2984,1.2996,13.32,53.04,16.62
6.2381,-13.757,-3.0237,1.0782,-1.2984,1.2996,13.32,53.04,16.62
5.4481,-12.027,-3.0237,1.0348,-2.8094,0.64599,13.92,52.92,16.14
3.5549,-9.902,-2.8875,1.0192,-2.945,0.46701,14.4,52.86,15.54
2.1929,-10.351,-2.7241,0.95539,-2.9224,0.10171,16.02,52.68,14.1
1.7025,-10.624,-2.833,0.67989,-2.3363,-0.32559,16.56,52.68,13.26
1.1169,-10.433,-2.8739,0.42394,-1.7349,-0.43035,18.12,52.56,11.4
0.58567,-9.4253,-2.8194,0.19884,-1.0296,-0.43646,19.5,52.32,9.72
0.47671,-8.6489,-2.7104,0.013439,-0.2529,-0.45265,20.64,52.5,7.8
0.64016,-8.3357,-2.8467,-0.17196,0.52351,-0.46578,21.06,52.62,6.9
1.1577,-7.8453,-2.8603,-0.30329,1.1157,-0.49205,22.14,52.5,5.1
1.7025,-7.5048,-2.9011,-0.38546,1.4817,-0.50519,22.44,52.32,3.48
2.2882,-7.6274,-3.0237,-0.4047,1.4484,-0.48717,22.2,52.56,2.64
2.8194,-7.7908,-3.1735,-0.42486,1.2562,-0.46976,21.06,52.74,2.52
3.2825,-7.7908,-2.9965,-0.43738,0.97769,-0.4331,20.22,52.74,2.64
3.337,-7.8998,-2.6696,-0.43616,0.64477,-0.40439,19.08,52.86,3.06
3.2689,-8.2812,-2.5742,-0.44563,0.32803,-0.36591,18.18,52.74,3.18
3.0646,-8.6489,-2.4789,-0.46884,0.075747,-0.32132,17.82,52.86,3.6
2.6832,-8.7715,-2.3427,-0.54336,-0.046426,-0.2978,17.28,52.74,4.08
2.547,-8.7715,-2.1656,-0.624,0.03207,-0.31276,16.98,52.86,4.38
2.1248,-8.3901,-1.6072,-0.68356,0.17165,-0.33781,16.26,53.28,4.98
2.0703,-8.4582,-1.3484,-0.71807,0.33964,-0.3821,15.66,53.34,5.28
2.3155,-9.1937,-1.1986,-0.72235,0.54825,-0.37018,15.06,53.58,5.94
2.5061,-9.8611,-1.1713,-0.72724,0.64752,-0.29169,14.82,53.64,6.24
2.8194,-10.665,-1.0215,-0.71349,0.72571,-0.15669,14.4,53.64,6.48
3.3506,-12.708,-0.47671,-0.69394,0.86224,-0.012828,13.74,53.88,7.32
3.5004,-13.089,-0.28603,-0.72357,1.095,0.13195,13.32,53.94,7.74
3.514,-12.149,-0.068102,-0.80115,1.3662,0.19609,12.84,54.12,8.28
3.4868,-10.42,-0.34051,-0.74312,1.547,0.21228,12.0,54.12,9.18
3.8273,-10.992,-0.57205,-0.49266,1.4627,0.23366,11.4,54.18,9.72
3.9908,-11.7,-0.83084,-0.36896,1.1457,0.2926,10.98,54.18,10.26
4.0997,-11.931,-0.92618,-0.30971,0.75564,0.36163,10.38,54.24,10.68
3.7865,-10.324,-0.89894,-0.29749,0.4554,0.40012,9.6,54.06,11.64
3.4187,-9.3844,-0.70826,-0.26114,0.3821,0.40195,9.42,54.06,12.18
2.7786,-8.6489,-0.34051,-0.21014,0.58277,0.33811,8.76,54.0,13.08
2.6015,-8.4719,-0.38137,-0.20647,0.78771,0.2697,8.52,53.88,13.5
2.4789,-8.2812,-0.58567,-0.19823,0.97341,0.22327,8.4,53.88,13.92
2.4108,-8.0496,-0.83084,-0.19914,1.1225,0.21136,8.16,53.76,14.22
2.5742,-7.8589,-1.0624,-0.2248,1.2404,0.20831,7.62,53.58,14.64
2.7104,-7.5457,-0.98067,-0.26328,1.3033,0.25137,7.56,53.52,14.76
2.8058,-7.3141,-0.92618,-0.27886,1.2798,0.31062,7.44,53.58,14.94
2.9829,-7.0553,-0.92618,-0.25656,1.1781,0.40134,7.14,53.52,15.54
2.9965,-7.1779,-0.92618,-0.22174,1.0101,0.51313,7.08,53.4,15.66
2.9556,-7.3141,-0.96704,-0.18784,0.85032,0.64996,7.14,53.34,15.96
3.051,-7.7636,-1.0624,-0.15394,0.72571,0.87629,7.02,53.4,16.02
3.1054,-8.322,-0.89894,-0.15669,0.75595,1.0305,6.96,53.4,16.2
2.9284,-8.3765,-0.92618,-0.17837,0.88881,1.1637,7.08,53.34,16.26
2.9284,-8.322,-0.89894,-0.20831,1.0956,1.2309,7.26,53.28,16.32
2.547,-9.112,-0.51757,-0.33231,1.5715,1.1545,7.32,53.22,16.5
2.2474,-9.1937,-0.17706,-0.46762,2.0684,1.0299,7.5,53.28,16.62
2.0975,-8.9349,0.054481,-0.59376,2.6234,0.87873,7.74,53.46,16.86
2.547,-7.6955,-0.24517,-0.62217,3.0452,0.75411,7.92,53.28,17.28
2.7513,-7.8862,-0.38137,-0.60445,3.2458,0.65637,7.98,53.22,17.58
3.228,-8.8668,-0.027241,-0.5455,3.2416,0.65699,8.1,52.98,17.76
4.2768,-12.885,0.6674,-0.50244,3.1554,0.84269,8.04,53.04,17.82
4.8625,-14.574,1.4165,-0.46365,3.1511,1.1078,7.8,52.92,17.94
5.3392,-15.214,1.866,-0.52534,3.2858,1.383,7.86,52.8,18.18
5.993,-13.157,1.7979,-0.51252,3.4092,1.5482,7.44,52.56,18.9
6.1292,-10.924,1.1305,-0.21075,3.3182,1.5064,7.2,52.44,19.14
6.1973,-11.155,-0.99429,0.49938,2.4926,1.1319,6.54,52.14,19.62
7.2052,-14.288,-3.4596,0.71532,1.2514,0.80634,6.3,52.14,19.8
7.0553,-13.13,-3.8818,0.83902,-0.34972,0.3769,5.88,52.02,19.98
6.279,-11.768,-3.5277,0.95967,-1.7788,-0.20983,5.52,51.78,19.86
3.9227,-9.5479,-2.2201,1.0327,-2.6353,-0.74312,4.98,51.54,19.62
3.2825,-9.4525,-2.0294,0.99113,-2.9725,-1.2764,4.8,51.66,19.38
2.8194,-9.507,-1.7843,0.87109,-3.0485,-1.7229,4.32,51.6,18.54
2.2474,-9.616,-1.6344,0.70219,-2.7657,-1.8903,4.14,51.54,18.24
2.0158,-9.5751,-1.362,0.56597,-2.5073,-1.7092,3.9,51.54,17.88
1.6481,-9.0031,-1.0624,0.43982,-2.1832,-1.4364,3.48,51.54,17.58
0.1362,-7.4503,-1.2531,0.42394,-1.8091,-1.2123,2.82,51.48,16.56
-0.49033,-6.96,-1.7979,0.42852,-1.335,-0.89431,2.4,51.42,16.08
0.040861,-7.1915,-2.6968,0.33078,-0.71196,-0.52443,1.56,51.48,14.88
1.2803,-7.5593,-3.228,0.23488,0.0097738,-0.19028,1.14,51.54,14.28
2.152,-7.9407,-3.2553,0.1912,0.072998,-0.015577,0.78,51.6,13.8
2.4789,-8.2403,-3.3234,0.22113,-0.20128,0.09896,0.3,51.6,13.44
2.5606,-8.8396,-3.1054,0.26328,-0.60537,0.16554,-0.18,51.78,12.9
2.0567,-9.4389,-2.6423,0.28802,-1.1313,0.24984,-0.9,51.66,12.18
1.5255,-9.6977,-2.4244,0.33475,-1.573,0.38026,-1.14,51.72,11.76
0.8717,-10.46,-2.261,0.26512,-1.6151,0.42394,-1.74,51.96,11.16
0.50395,-10.733,-2.0022,0.083689,-1.1387,0.38271,-1.92,52.02,10.86
0.55843,-11.005,-1.757,-0.22633,-0.045815,0.37813,-2.04,52.08,10.38
1.1169,-11.087,-1.1577,-0.43768,0.62705,0.43585,-2.52,52.14,9.48
1.58,-11.182,-0.7355,-0.6127,1.1512,0.49175,-2.7,52.14,9.12
1.8932,-11.836,-0.61292,-0.70402,1.5864,0.50855,-2.94,52.14,8.82
3.0237,-13.375,-0.47671,-0.80481,2.208,0.56077,-3.66,52.02,8.22
3.6094,-13.702,-0.34051,-0.85307,2.3695,0.58093,-4.08,51.9,8.1
3.7456,-13.484,-0.35413,-0.94715,2.6066,0.61636,-4.62,52.02,7.98
4.1542,-10.188,-0.44947,-1.1606,2.7089,0.54734,-6.12,51.6,7.92
4.2495,-8.2812,-0.5993,-1.1576,2.5641,0.37018,-7.2,51.42,7.92
4.1542,-6.8374,-0.50395,-1.0385,2.1509,0.10446,-8.22,51.18,8.1
3.732,-7.7364,-0.55843,-0.74862,1.1606,-0.3262,-10.62,50.58,8.76
3.6503,-9.0031,-0.5993,-0.57849,0.39554,-0.53634,-12.06,50.28,9.24
3.909,-10.025,-0.50395,-0.52962,-0.000916,-0.61025,-13.32,49.92,9.9
4.6445,-10.774,-0.42223,-0.41386,-1.1493,-0.72082,-15.9,49.14,11.52
4.6718,-10.61,-0.25879,-0.3375,-1.7507,-0.74678,-17.28,48.78,12.42
4.1542,-10.324,-0.21793,-0.29688,-2.0815,-0.79871,-18.42,48.42,13.44
3.0237,-10.134,-0.29965,-0.30085,-2.0391,-0.90713,-20.4,47.64,15.84
2.4108,-9.8475,-0.095342,-0.37721,-1.7706,-1.0055,-21.42,47.1,16.98
2.0839,-9.3844,-0.23155,-0.4163,-1.6014,-1.0647,-22.08,46.56,18.12
1.8251,-8.9622,-0.14982,-0.46273,-1.2272,-1.1726,-22.56,46.02,19.62
1.7025,-8.6081,-0.36775,-0.53237,-0.64019,-1.2764,-22.98,45.54,21.0
1.7706,-8.5944,-0.64016,-0.5846,-0.28863,-1.306,-23.82,44.52,24.06
1.9341,-8.5944,-0.7355,-0.67012,0.11148,-1.2184,-24.06,43.92,25.44
2.0975,-8.5127,-0.89894,-0.68295,0.20617,-1.1686,-24.24,42.54,28.08
2.1929,-8.3493,-0.84446,-0.71288,0.405,-0.97647,-24.48,41.76,29.28
2.1929,-8.2948,-0.8036,-0.70616,0.50091,-0.82864,-24.84,41.16,30.3
2.3155,-7.8453,-0.7355,-0.65882,0.55405,-0.67501,-25.32,39.72,32.28
2.3291,-7.7636,-0.65378,-0.61697,0.55803,-0.50702,-25.8,38.82,33.0
2.2474,-8.0224,-0.89894,-0.55405,0.53695,-0.31582,-26.76,37.08,34.44
2.2474,-8.145,-0.92618,-0.46395,0.54581,-0.019548,-27.3,36.36,35.04
2.3699,-8.2948,-0.8717,-0.40287,0.64813,0.18998,-27.96,35.4,35.64
2.3018,-8.6625,-0.85808,-0.32651,0.78832,0.40989,-28.62,34.62,35.82
2.547,-9.1937,-0.83084,-0.27428,0.91019,0.63163,-30.0,33.0,36.42
2.5606,-9.6023,-0.88532,-0.20617,1.0146,0.84208,-30.6,32.4,36.6
2.7786,-10.161,-1.0896,-0.1295,1.102,1.054,-31.26,31.8,36.6
3.0782,-10.896,-1.0079,-0.066279,1.1698,1.2837,-32.4,30.9,36.48
3.2825,-11.536,-0.92618,0.0082467,1.2294,1.5088,-32.58,30.72,36.42
3.4187,-12.0,-0.91256,0.12431,1.347,1.8259,-32.76,30.48,36.3
3.6366,-12.83,-1.1169,0.15547,1.4749,1.992,-32.76,30.48,35.88
3.5958,-12.34,-1.3757,0.11393,1.675,2.062,-32.58,30.72,35.64
3.4868,-11.577,-1.6753,0.047953,1.8949,2.0046,-32.52,31.14,35.16
3.1191,-9.5479,-2.0839,-0.085827,2.0192,1.6099,-31.98,32.04,34.14
2.8875,-8.7851,-2.1929,-0.11698,2.0006,1.4432,-31.68,32.64,33.54
2.7377,-8.6625,-2.1793,-0.14264,1.8433,1.0611,-31.5,33.36,32.88
2.3836,-9.1801,-1.9613,-0.1967,1.5198,0.55467,-30.84,34.8,31.32
2.1929,-9.5751,-1.4438,-0.2697,1.4667,0.35491,-30.6,35.4,30.66
2.1793,-9.7385,-1.0624,-0.33659,1.5284,0.17868,-30.24,36.0,29.94
2.5198,-9.5887,-0.65378,-0.39187,1.7217,0.0562,-29.82,37.32,28.26
2.6696,-9.3163,-0.88532,-0.40531,1.7865,0.0562,-29.88,37.92,27.42
2.7649,-9.0712,-0.99429,-0.4102,1.8955,0.10385,-29.88,38.4,26.52
3.1191,-8.145,-1.471,-0.37721,2.0253,0.26298,-30.48,39.0,24.72
3.2961,-7.5457,-1.5391,-0.35949,2.0559,0.3766,-30.84,39.24,23.88
3.3234,-7.1779,-1.7025,-0.30574,2.0174,0.47983,-31.2,39.36,23.1
3.2416,-6.8783,-1.7706,-0.19884,1.9022,0.66157,-32.04,39.6,21.6
3.1599,-6.9464,-1.7434,-0.1124,1.7828,0.76389,-32.46,39.72,20.94
3.1327,-7.3141,-1.5119,-0.054062,1.7196,0.82467,-32.88,39.66,20.1
3.3097,-7.9543,-1.6072,0.098349,1.5495,0.97891,-33.72,39.78,18.6
3.6775,-8.54,-1.6208,0.21319,1.4041,1.076,-34.2,39.84,17.58
3.8273,-8.8396,-1.7025,0.30299,1.2382,1.1451,-34.56,40.02,16.8
3.9908,-9.3436,-2.0567,0.42211,0.97769,1.1561,-35.16,40.32,15.06
4.0044,-9.4661,-2.1793,0.47953,0.79199,1.0907,-35.34,40.5,14.16
4.0316,-9.4934,-2.2882,0.49816,0.68783,1.0421,-35.46,40.8,13.38
3.8409,-9.7522,-2.6151,0.53909,0.36835,0.83963,-35.1,41.58,11.7
3.7047,-10.106,-2.6287,0.52412,0.19731,0.68509,-34.8,42.0,10.98
3.6094,-10.392,-2.5742,0.47739,0.10996,0.54245,-34.38,42.48,10.32
3.2553,-10.229,-2.3155,0.38668,0.219,0.30727,-33.72,43.32,8.88
3.1463,-10.256,-2.1793,0.2251,0.43249,0.13897,-33.36,43.74,8.04
3.0101,-10.324,-1.8524,0.12339,0.71746,-0.051007,-33.06,44.1,7.44
3.1327,-11.25,-1.7843,0.012523,0.9783,-0.26786,-32.4,44.64,6.06
3.2825,-11.795,-1.7434,-0.10537,1.1493,-0.47434,-32.16,44.88,5.52
3.3642,-12.108,-1.7025,-0.22663,1.2816,-0.6579,-31.86,45.12,5.04
3.2144,-11.918,-1.4574,-0.35094,1.4444,-0.86101,-31.74,45.12,4.02
2.9692,-11.101,-1.6617,-0.58246,1.7688,-1.1411,-31.74,45.06,3.6
2.7104,-10.025,-1.7706,-0.67959,1.9835,-1.3402,-31.86,45.0,3.12
2.0975,-8.3629,-1.7843,-0.74587,2.288,-1.5,-32.7,44.52,2.22
1.8932,-7.8589,-1.8796,-0.82161,2.7587,-1.6368,-33.18,44.16,1.86
1.9613,-7.6819,-1.8387,-0.86712,3.1343,-1.7535,-33.66,43.56,1.2
3.4051,-8.717,-1.6208,-0.84208,3.2019,-1.8766,-34.92,42.42,-0.06
4.0044,-9.2891,-1.6072,-0.77244,2.5782,-1.8778,-35.52,41.64,-0.72
4.7944,-10.27,-1.6072,-0.7251,2.2162,-1.865,-36.18,40.92,-1.32
5.0259,-11.891,-1.3757,-0.59895,1.051,-1.7602,-37.62,39.3,-2.7
4.6173,-12.0,-1.4438,-0.57513,0.41172,-1.7,-38.34,38.34,-3.36
4.2768,-11.741,-1.471,-0.55772,-0.082772,-1.6674,-39.24,37.26,-4.02
3.5685,-11.25,-1.2122,-0.55314,-0.44318,-1.624,-40.86,35.22,-4.98
3.228,-10.855,-1.2122,-0.54856,-0.81276,-1.511,-41.46,34.2,-5.34
2.8603,-10.27,-0.98067,-0.5736,-0.87598,-1.4511,-42.06,32.94,-5.46
2.5606,-9.7522,-0.83084,-0.56688,-0.9108,-1.2828,-42.78,31.74,-5.7
2.4517,-8.9758,-0.91256,-0.57452,-0.81245,-1.0473,-44.34,29.34,-5.82
2.3155,-8.6762,-0.91256,-0.59804,-0.61881,-0.83414,-45.3,28.02,-5.58
2.438,-8.4582,-0.83084,-0.62461,-0.36194,-0.59956,-47.52,25.62,-5.04
2.3155,-8.0088,-0.50395,-0.65301,-0.012828,-0.28741,-48.72,24.72,-4.8
2.3427,-7.927,-0.46309,-0.65851,0.15669,-0.076053,-49.68,23.88,-4.5
2.3427,-8.0769,-0.44947,-0.66554,0.2193,0.018631,-50.76,23.1,-4.14
2.1929,-8.2539,-0.19068,-0.71135,0.48747,0.30421,-52.68,22.08,-3.6
2.2882,-8.0769,-0.17706,-0.74617,0.71502,0.48717,-53.58,21.66,-3.3
2.4789,-8.0224,-0.081722,-0.7254,0.90133,0.68631,-54.36,21.36,-3.3
2.7377,-8.5127,-0.12258,-0.7028,1.0592,0.98471,-55.8,20.88,-3.3
2.7513,-8.6762,-0.12258,-0.65637,1.0925,1.0818,-56.4,20.94,-3.36
2.7649,-8.9486,0.21793,-0.62064,1.1567,1.2837,-56.82,21.12,-3.6
2.8194,-8.9758,0.40861,-0.52168,1.2981,1.554,-57.42,21.72,-4.32
2.9011,-9.0848,0.42223,-0.47189,1.4642,1.7245,-57.3,22.2,-4.74
3.1872,-9.0575,0.21793,-0.44471,1.6267,1.8992,-56.94,22.98,-5.1
3.7592,-9.2755,0.12258,-0.39065,1.763,2.0959,-55.62,24.24,-5.7
4.0589,-9.4798,0.01362,-0.38301,1.7498,2.1493,-54.78,24.78,-6.12
4.2904,-9.7658,-0.14982,-0.35919,1.5629,2.3109,-53.64,25.44,-6.42
4.699,-10.542,-0.17706,-0.33872,1.3408,2.4163,-51.18,26.7,-7.2
4.8216,-11.659,0.054481,-0.28558,1.0821,2.5357,-49.74,27.6,-7.74
5.094,-13.239,0.38137,-0.17868,0.81886,2.6557,-48.3,28.5,-7.98
5.6116,-15.418,0.8717,-0.068111,0.70677,2.7162,-45.0,30.78,-8.76
5.0531,-13.579,0.7355,-0.1518,1.0104,2.6637,-43.2,31.98,-9.3
4.699,-11.387,0.21793,-0.076358,1.3833,2.4047,-41.22,33.0,-9.84
4.1542,-8.7306,-0.96704,-0.084605,1.741,1.9731,-37.2,35.34,-10.8
3.7728,-7.4776,-1.8524,-0.10049,1.9297,1.4688,-35.22,36.54,-11.4
3.8273,-7.2052,-2.1112,-0.093157,1.8262,0.97891,-33.24,37.62,-12.0
4.2223,-7.8045,-2.1112,-0.10965,1.5379,0.54153,-29.52,39.6,-13.2
4.2495,-8.3765,-1.8524,-0.096517,0.90042,-0.007025,-27.78,40.62,-13.74
4.1678,-8.8396,-1.4438,-0.083994,0.54825,-0.27153,-26.28,41.52,-14.4
3.732,-9.4117,-0.95342,-0.068417,0.34911,-0.44746,-23.58,43.08,-15.42
3.514,-9.616,-0.92618,-0.08094,0.3317,-0.55558,-22.44,43.8,-15.78
3.4187,-9.6704,-1.0488,-0.11423,0.43127,-0.60201,-21.24,44.34,-16.14
3.3097,-8.7443,-1.6889,-0.17379,0.5681,-0.60964,-19.74,44.76,-16.8
3.2553,-8.2948,-1.8932,-0.20647,0.72052,-0.6295,-19.26,44.88,-16.98
3.0646,-7.6546,-2.1384,-0.18723,0.76633,-0.66768,-18.96,44.94,-17.22
2.9011,-7.246,-2.2201,-0.16921,0.7813,-0.69944,-18.42,44.7,-17.58
3.0918,-7.4095,-2.2201,-0.12553,0.73029,-0.74434,-18.3,44.64,-17.7
3.1735,-7.6274,-2.2474,-0.089797,0.60537,-0.76786,-18.36,44.34,-17.88
3.228,-7.8453,-2.3291,-0.059254,0.42638,-0.78099,-18.96,44.04,-18.06
3.1599,-8.036,-2.4517,-0.0045815,0.15913,-0.81795,-19.26,43.92,-17.94
3.0237,-7.9951,-2.4653,0.012523,-0.01069,-0.84635,-19.38,43.62,-17.88
2.7377,-7.4231,-2.7377,0.025962,-0.16921,-0.89614,-20.1,43.32,-17.58
2.547,-7.0009,-2.833,0.026878,-0.33109,-0.98074,-20.46,42.9,-17.7
2.5198,-6.674,-2.8875,0.041539,-0.49663,-1.0528,-20.94,42.6,-17.7
2.4517,-6.6876,-2.8058,0.043982,-0.67317,-1.113,-21.78,41.94,-17.58
2.4517,-6.96,-2.8058,0.036652,-0.94867,-1.1121,-22.38,41.58,-17.52
2.3427,-7.3141,-2.7649,-0.011301,-1.0986,-1.0715,-22.86,41.22,-17.34
2.2201,-7.7091,-2.5879,-0.072388,-1.2043,-1.0153,-24.0,40.62,-17.1
1.9068,-8.0905,-2.2065,-0.12248,-1.1701,-0.93004,-24.78,40.2,-16.86
1.7706,-8.3493,-2.152,-0.19914,-0.98074,-0.79748,-25.44,39.84,-16.44
1.6753,-8.7715,-1.866,-0.25381,-0.67562,-0.67195,-26.52,39.06,-15.9
1.757,-9.0712,-1.7298,-0.27397,-0.17807,-0.47495,-27.18,38.64,-15.72
2.1112,-9.8066,-1.6481,-0.27,0.082772,-0.33475,-28.5,37.92,-15.06
2.1929,-9.8339,-1.7025,-0.26786,0.27519,-0.16524,-29.22,37.62,-14.88
2.2746,-9.3844,-1.6617,-0.27519,0.41722,-0.045509,-29.76,37.44,-14.4
2.5334,-9.221,-1.4846,-0.25534,0.55803,0.036652,-30.72,37.02,-13.86
2.7786,-10.161,-1.3757,-0.16921,0.66218,0.1295,-30.96,36.84,-13.62
3.1054,-11.291,-1.3484,-0.10843,0.69394,0.38973,-31.32,36.6,-13.38
3.514,-12.735,-1.2122,-0.078191,0.67806,0.57879,-31.98,36.36,-13.14
3.623,-12.898,-1.1169,-0.11698,0.7309,0.67684,-32.28,36.36,-12.9
3.5277,-12.503,-0.83084,-0.16005,0.85979,0.7086,-32.28,36.36,-12.96
4.0861,-14.669,-0.42223,-0.045509,0.95051,0.75411,-32.34,36.66,-13.02
4.3449,-15.418,-0.47671,0.038179,0.88942,0.85094,-32.1,36.84,-13.2
4.4402,-14.873,-0.8036,-0.064141,0.79504,0.88606,-32.1,37.08,-13.5
3.6094,-10.842,-1.2531,-0.11484,0.64049,0.75228,-31.62,37.32,-14.28
3.5685,-9.4798,-1.185,-0.062308,0.50732,0.61148,-31.2,37.56,-14.46
3.5004,-8.8668,-0.96704,-0.000305,0.3146,0.43127,-30.9,37.74,-14.76
2.9284,-8.2812,-0.85808,0.10507,0.097128,0.25443,-30.3,38.22,-15.36
2.7786,-8.8805,-0.88532,0.18082,-0.013134,0.17715,-29.94,38.4,-15.72
2.9965,-9.4117,-0.89894,0.1854,-0.039706,0.2474,-29.28,39.0,-16.26
3.3778,-9.2074,-0.96704,0.17685,-0.049175,0.3882,-28.86,39.36,-16.56
3.5004,-8.8124,-1.0624,0.17349,-0.089797,0.50396,-28.44,39.6,-16.92
3.4459,-8.5808,-1.1032,0.16768,-0.10599,0.58765,-28.14,39.78,-17.1
3.1463,-8.6353,-1.1305,0.13714,-0.094073,0.64019,-27.54,40.14,-17.7
2.9965,-8.7306,-1.0351,0.065363,-0.040928,0.63561,-27.42,40.38,-17.94
3.0782,-8.8668,-0.81722,0.0064141,0.058032,0.54978,-26.64,40.92,-18.18
3.0373,-8.9077,-0.7355,-0.12217,0.16249,0.44715,-26.4,41.28,-18.3
2.9829,-8.9349,-0.50395,-0.19823,0.28894,0.31796,-26.34,41.28,-18.48
2.9556,-9.221,-0.42223,-0.27245,0.42302,0.17623,-25.86,41.7,-18.78
2.9284,-9.4525,-0.28603,-0.33139,0.53756,0.050091,-25.74,41.76,-18.72
3.051,-9.398,-0.38137,-0.40531,0.63866,-0.058948,-25.56,41.94,-18.48
3.0918,-8.9213,-0.50395,-0.44563,0.69883,-0.14966,-25.26,42.24,-18.72
3.0918,-8.4719,-0.51757,-0.48136,0.70433,-0.27886,-25.02,42.24,-18.72
3.0237,-8.036,-0.64016,-0.49511,0.64935,-0.3598,-24.84,42.54,-18.78
2.9148,-7.5865,-0.72188,-0.47953,0.55375,-0.43585,-24.42,42.84,-18.66
2.9148,-7.5865,-0.72188,-0.48839,0.44593,-0.46395,-24.42,42.84,-18.66
2.4925,-7.5184,-0.70826,-0.49969,0.35827,-0.4496,-24.06,43.02,-18.6
2.3836,-7.3141,-0.5993,-0.47525,0.33139,-0.43494,-24.12,42.96,-18.48
2.6423,-7.3822,-0.51757,-0.38026,0.38485,-0.42089,-24.18,42.84,-18.18
2.833,-7.5048,-0.38137,-0.33934,0.39798,-0.39156,-24.0,42.96,-18.12
3.1191,-7.7908,-0.57205,-0.2529,0.41264,-0.24862,-24.0,42.84,-17.88
3.2416,-8.0632,-0.81722,-0.20708,0.36744,-0.11606,-24.0,42.96,-17.88
3.2553,-8.0224,-1.0215,-0.17837,0.2868,0.024129,-24.06,43.02,-17.82
2.9965,-7.4367,-1.3348,-0.15211,0.18112,0.13714,-24.12,42.84,-17.64
2.7377,-6.8647,-1.4438,-0.14691,0.077274,0.19945,-24.24,42.84,-17.52
2.6696,-6.851,-1.3348,-0.11423,-0.02474,0.21777,-24.24,42.72,-17.46
2.7377,-7.6955,-1.1169,-0.048869,-0.058948,0.24832,-24.18,42.78,-17.52
3.0918,-9.5615,-0.99429,0.028405,-0.10018,0.35155,-24.0,42.84,-17.76
3.4596,-11.25,-1.1713,0.07086,-0.13073,0.50427,-23.82,42.78,-17.64
3.6639,-12.286,-1.3212,0.098044,-0.10293,0.64202,-23.64,42.78,-17.64
3.5549,-12.544,-1.5119,0.11515,0.10476,0.74984,-23.16,42.84,-17.94
3.5413,-12.068,-1.7025,0.14416,0.27061,0.67837,-22.86,42.96,-17.82
3.4732,-11.373,-1.9341,0.18631,0.29932,0.60292,-22.74,42.96,-17.76
3.8954,-11.713,-2.6696,0.405,0.011606,0.28924,-22.2,42.96,-17.94
4.1542,-12.381,-2.8875,0.52504,-0.42638,0.13744,-21.96,43.02,-18.0
4.127,-12.612,-3.337,0.58093,-0.95692,0.034208,-21.72,43.02,-18.42
3.8818,-12.231,-3.4596,0.58979,-1.4371,0.021686,-21.42,43.2,-18.42
3.1599,-10.733,-3.4459,0.54428,-1.755,0.013134,-21.36,43.2,-18.36
2.5334,-9.616,-3.2416,0.44868,-1.8121,0.015882,-21.18,43.2,-18.48
1.8387,-8.3493,-3.1872,0.36713,-1.6234,0.050702,-21.24,43.14,-18.54
1.4846,-7.7908,-3.2008,0.17807,-1.0131,0.10873,-21.3,43.2,-18.42
1.2122,-6.3743,-3.0373,0.04612,-0.59376,0.1069,-21.36,43.02,-18.42
1.1986,-5.7069,-2.9965,-0.015577,-0.26512,0.09896,-21.54,42.9,-18.3
1.3212,-4.9442,-2.6287,-0.053451,-0.04612,0.091019,-21.72,42.72,-18.42
1.6753,-4.7944,-2.5742,-0.059559,0.068722,0.090713,-21.9,42.78,-18.18
1.9205,-4.9578,-2.6696,-0.036041,0.07086,0.096211,-22.14,42.84,-18.0
2.7104,-6.17,-2.9829,0.016799,-0.17746,0.16127,-22.5,42.84,-17.64
2.8603,-6.8647,-3.0237,0.025656,-0.45173,0.23335,-22.92,42.9,-17.34
2.9011,-8.0224,-2.7513,-0.009163,-0.71838,0.35705,-23.4,42.84,-17.1
2.7786,-8.6081,-2.3291,-0.076969,-0.68509,0.39462,-23.58,42.78,-16.74
2.6968,-8.6081,-2.1248,-0.17776,-0.54672,0.37965,-23.7,42.78,-16.56
2.6151,-8.5944,-1.9886,-0.23305,-0.405,0.33017,-23.58,42.9,-16.5
2.6832,-8.826,-1.9613,-0.25992,-0.26634,0.20128,-23.7,43.32,-16.32
2.8603,-9.3436,-1.8387,-0.30574,-0.18357,0.05284,-23.82,43.56,-16.2
3.1735,-10.256,-1.6344,-0.3488,-0.13408,-0.081856,-23.76,43.68,-16.02
3.514,-12.163,-0.91256,-0.46059,-0.012828,-0.28711,-24.06,44.1,-15.42
3.514,-13.171,-0.51757,-0.50488,0.055894,-0.35919,-24.24,44.1,-15.18
3.514,-13.784,-0.24517,-0.63286,0.36011,-0.54947,-24.42,44.28,-14.94
3.6503,-14.438,0.39499,-0.67592,0.63805,-0.69425,-24.72,44.4,-14.46
3.9499,-16.167,0.49033,-0.55192,0.85704,-0.83566,-24.78,44.46,-14.28
4.3177,-17.243,0.24517,-0.50549,0.98899,-0.90286,-24.96,44.52,-13.86
3.9363,-13.988,-0.38137,-0.70799,1.1484,-1.1506,-25.44,44.64,-13.2
3.6775,-11.713,-0.68102,-0.66035,1.1341,-1.2941,-25.8,44.64,-12.9
3.6775,-10.706,-0.92618,-0.4273,0.95631,-1.5513,-26.4,44.64,-12.54
3.4459,-10.243,-0.92618,-0.064752,0.36927,-1.8036,-27.36,44.04,-11.76
3.4596,-10.147,-1.0079,0.11759,-0.12706,-1.8357,-28.02,43.68,-11.52
3.3097,-9.8339,-0.92618,0.22083,-0.58307,-1.7498,-28.8,43.44,-11.22
3.1191,-8.8668,-0.6674,0.31246,-1.0348,-1.4416,-30.3,42.42,-10.74
2.9829,-7.927,-0.70826,0.32132,-1.1594,-1.2098,-31.08,42.06,-10.38
2.6968,-6.9328,-0.58567,0.32803,-1.1851,-1.1032,-31.86,41.52,-9.96
2.2474,-5.4209,-0.72188,0.35827,-1.2135,-0.82375,-33.36,40.32,-9.06
1.8932,-4.8216,-0.83084,0.38943,-1.2208,-0.7196,-34.14,39.54,-8.52
1.5391,-4.6582,-0.9398,0.39767,-1.1854,-0.61972,-34.92,38.82,-8.16
1.5391,-4.7807,-1.0624,0.35155,-1.0687,-0.44257,-36.42,37.56,-7.14
1.5936,-4.6309,-1.2395,0.28802,-0.99876,-0.28802,-37.08,36.96,-6.54
1.6072,-4.5764,-1.2122,0.24282,-0.98105,-0.21594,-37.74,36.24,-5.94
1.58,-4.9306,-0.99429,0.091019,-0.82314,-0.018021,-38.34,35.46,-5.4
0.9398,-5.8295,-1.0488,-0.035125,-0.46304,0.14997,-39.12,34.62,-3.96
0.98067,-6.3198,-1.0351,-0.19395,0.14416,0.26786,-39.48,34.2,-3.24
1.7298,-6.8647,-0.95342,-0.33139,0.67531,0.39309,-39.72,33.9,-2.64
2.1793,-7.6002,-0.85808,-0.44196,1.1503,0.61361,-39.84,33.48,-1.74
2.5606,-8.7034,-0.51757,-0.41478,1.3033,0.86071,-39.84,33.3,-1.5
2.7513,-9.6296,-0.24517,-0.36255,1.5012,1.1655,-39.9,33.24,-1.32
3.6366,-12.531,0.38137,-0.2755,1.6163,1.4575,-39.6,33.48,-1.26
4.2632,-13.634,0.61292,-0.083994,1.6585,1.7419,-39.3,33.9,-1.2
4.699,-14.342,-0.17706,0.086437,1.7834,1.905,-38.4,34.62,-1.8
5.094,-14.547,-0.76274,0.36744,1.9129,1.9313,-37.92,34.98,-2.16
5.7205,-14.655,-1.6344,0.62461,1.4991,1.8329,-37.32,35.46,-2.76
6.0611,-14.669,-2.1656,0.75503,1.0599,1.7675,-36.36,36.24,-3.42
6.3198,-14.056,-3.1463,1.0938,-0.85338,1.4639,-35.64,36.66,-4.32
5.7886,-11.891,-3.2689,1.2257,-2.1255,1.1897,-33.66,37.98,-5.94
5.1076,-10.542,-2.9284,1.2868,-3.0436,0.76755,-32.88,38.64,-6.78
3.4187,-9.0848,-2.2065,1.3179,-3.4862,0.67867,-30.96,39.78,-8.22
2.4653,-8.8396,-2.1656,1.2795,-3.3915,0.58582,-30.18,40.32,-8.88
1.9477,-8.5808,-2.3018,1.1371,-2.9184,0.51191,-29.28,40.92,-9.6
0.61292,-7.5729,-2.6968,0.84941,-1.7333,0.4722,-27.72,41.94,-10.44
0.29965,-6.9872,-2.7649,0.66798,-0.81856,0.46487,-27.24,42.12,-10.86
0.34051,-6.4288,-2.9692,0.49694,-0.007025,0.40867,-26.58,42.48,-11.16
1.1169,-5.8159,-3.1054,0.35094,0.7025,0.25015,-25.32,42.96,-11.58
1.3893,-5.884,-3.0646,0.31215,0.84819,0.18906,-24.78,43.14,-11.76
2.0975,-6.1973,-3.1599,0.29871,0.84391,0.17043,-24.48,43.14,-11.88
3.2008,-7.5048,-3.4732,0.23915,0.52504,0.16616,-24.18,43.56,-11.94
4.0316,-8.8941,-3.4732,0.14813,0.13531,0.19487,-24.06,43.56,-11.94
4.1542,-9.902,-3.0782,0.027184,-0.24404,0.22235,-23.82,43.62,-11.94
3.4459,-9.616,-2.4925,-0.2251,-0.40928,0.17501,-23.58,43.8,-12.24
3.0237,-9.3572,-2.0294,-0.37751,-0.21502,0.068417,-23.34,43.92,-12.18
2.9011,-9.3844,-1.9205,-0.50213,0.033903,-0.11881,-23.1,44.1,-12.12
2.6015,-9.3436,-1.6072,-0.60262,0.21838,-0.34697,-23.1,44.22,-12.18
2.4653,-9.902,-1.6072,-0.67684,0.34117,-0.52901,-22.74,44.34,-12.3
2.4789,-10.42,-1.471,-0.76694,0.46304,-0.65699,-22.68,44.46,-12.24
2.7649,-11.536,-1.1577,-0.90194,0.7648,-0.83261,-22.92,44.58,-12.12
3.1463,-12.572,-0.76274,-0.97616,0.99907,-0.94012,-22.98,44.58,-11.94
3.3778,-13.688,-0.57205,-1.1008,1.2792,-0.99907,-23.28,44.7,-11.58
3.4732,-13.375,-0.027241,-1.2553,1.6093,-1.0776,-23.76,44.58,-10.8
3.4596,-12.735,0.25879,-1.3079,1.9004,-1.2184,-24.12,44.58,-10.44
3.514,-13.184,0.34051,-1.1591,2.0546,-1.3295,-24.36,44.52,-10.14
4.0861,-13.974,0.24517,-1.0033,2.0446,-1.3809,-25.32,44.22,-9.3
4.0316,-12.626,-0.27241,-0.88087,1.6167,-1.4988,-25.86,44.04,-9.06
4.018,-11.536,-0.46309,-0.67623,1.1069,-1.5773,-26.46,43.62,-8.7
3.8273,-9.4934,-0.8036,-0.45754,0.54489,-1.5733,-27.72,43.02,-8.16
3.6775,-9.2891,-0.74912,-0.27733,0.014661,-1.5601,-28.44,42.66,-7.8
3.3234,-9.5342,-0.54481,-0.10507,-0.46914,-1.5153,-29.28,42.18,-7.56
2.833,-9.9156,-0.40861,0.054978,-0.91569,-1.1613,-30.78,41.1,-6.9
2.7649,-9.4798,-0.53119,0.071777,-1.065,-0.85032,-31.56,40.56,-6.54
2.6968,-8.7034,-0.51757,0.076969,-1.0913,-0.56444,-32.28,39.84,-6.12
2.4653,-6.96,-0.64016,0.062308,-0.98807,-0.32681,-33.78,38.76,-5.34
2.2882,-6.3879,-0.57205,0.034208,-0.84391,-0.14325,-34.44,38.1,-4.98
2.0022,-5.9112,-0.6674,-0.0048869,-0.68814,-0.0015272,-35.22,37.44,-4.44
1.6753,-5.6388,-0.53119,-0.036652,-0.54092,0.10965,-36.36,36.36,-3.42
1.4846,-5.5435,-0.50395,-0.078802,-0.27947,0.26084,-36.72,35.88,-2.76
1.4438,-5.38,-0.47671,-0.10293,-0.18234,0.31887,-37.26,35.58,-2.34
1.8524,-5.4073,-0.34051,-0.15211,0.10354,0.50793,-37.86,34.8,-1.32
2.1112,-5.7069,-0.31327,-0.16249,0.29474,0.64752,-38.1,34.62,-0.78
2.261,-5.884,-0.23155,-0.17593,0.4722,0.80298,-38.16,34.5,-0.54
2.833,-6.5378,-0.47671,-0.17623,0.66859,1.0437,-38.1,34.38,0.06
3.1191,-6.3879,-0.53119,-0.13867,0.70005,1.1469,-38.04,34.44,0.12
3.514,-5.9521,-0.39499,-0.011301,0.64324,1.1845,-37.86,34.8,0.12
3.9499,-6.9055,-0.040861,0.09499,0.59101,1.1771,-37.2,35.28,-0.24
4.3177,-9.1801,0.054481,0.43646,0.30543,1.1845,-36.84,35.76,-0.42
4.6582,-11.21,0.027241,0.64874,0.014355,1.2669,-36.42,36.24,-0.72
5.0804,-14.41,-0.35413,0.80543,-0.27733,1.3974,-35.52,37.26,-1.68
5.094,-14.369,-0.64016,0.8717,-0.46334,1.4673,-34.98,37.98,-2.22
5.0668,-13.62,-0.70826,0.8885,-0.45418,1.383,-34.38,38.52,-2.64
4.9306,-12.149,-1.0215,0.93493,-0.46701,1.3057,-33.84,39.24,-3.0
4.7399,-11.972,-1.6753,1.0983,-0.64843,1.0073,-32.46,40.44,-3.9
4.4947,-12.435,-2.1248,1.1448,-0.90072,0.77977,-31.8,41.16,-4.38
4.4402,-13.321,-2.3836,1.1496,-1.1689,0.60323,-30.48,42.42,-5.4
4.2632,-12.708,-2.5198,1.0372,-1.408,0.4554,-29.82,42.96,-5.88
3.909,-11.441,-2.4925,0.92974,-1.3955,0.34056,-29.16,43.26,-6.24
3.4187,-10.188,-2.7649,0.89186,-1.3396,0.28588,-28.56,43.68,-6.72
2.8058,-8.826,-3.1191,0.70555,-1.0886,0.095295,-27.54,44.22,-7.32
2.5879,-8.4855,-3.2008,0.58215,-0.92485,-0.011301,-27.18,44.58,-7.62
2.4789,-8.3765,-3.2144,0.44043,-0.80451,-0.078191,-26.76,44.76,-7.62
2.3155,-8.3084,-2.8603,0.23274,-0.61178,-0.1066,-26.04,45.06,-7.86
2.3155,-8.3084,-2.8603,0.15211,-0.50885,-0.11912,-26.04,45.06,-7.86
2.0703,-7.927,-2.2882,-0.06689,-0.12217,-0.18357,-25.56,45.18,-8.28
2.1384,-8.0224,-2.3563,-0.19823,0.078191,-0.25534,-25.38,45.0,-8.4
2.4789,-8.1995,-2.656,-0.32101,0.1408,-0.33231,-25.32,45.0,-8.64
2.4789,-8.322,-2.8058,-0.4328,0.10934,-0.42302,-25.38,45.0,-8.52
2.4517,-8.4446,-2.7377,-0.59101,0.0094684,-0.58124,-25.74,45.0,-8.34
2.3836,-8.9486,-2.2882,-0.65424,-0.000916,-0.63163,-25.86,44.94,-8.1
2.152,-9.2618,-1.975,-0.8262,0.06689,-0.75411,-26.16,44.82,-7.74
2.0294,-9.4525,-1.6072,-0.95112,0.23152,-0.78741,-26.64,44.52,-7.44
1.866,-9.3708,-1.185,-1.0849,0.4722,-0.8207,-27.24,44.22,-6.9
1.8932,-9.1665,-0.77636,-1.1952,0.78985,-0.83566,-27.96,43.86,-6.3
1.975,-8.8396,0.040861,-1.2431,1.1307,-0.86315,-28.5,43.74,-5.64
2.0567,-8.826,0.38137,-1.1894,1.5968,-0.84605,-28.86,43.5,-5.16
2.438,-9.112,0.85808,-1.1038,1.7947,-0.81001,-29.64,43.02,-4.62
2.7786,-9.7385,0.7355,-0.99815,1.8995,-0.76511,-30.24,42.42,-4.2
3.0237,-10.488,0.5993,-0.91477,1.9215,-0.64507,-31.14,41.88,-3.9
3.4868,-11.06,0.51757,-0.84269,1.8744,-0.48319,-32.04,41.34,-3.54
3.9908,-11.482,0.70826,-0.74739,1.7929,-0.26359,-32.58,40.92,-3.78
4.2495,-12.395,0.81722,-0.50916,1.605,0.10812,-33.18,40.44,-3.96
4.5356,-13.375,0.62654,-0.32895,1.3231,0.38423,-33.6,40.14,-4.32
4.5901,-13.212,0.35413,-0.23243,0.91844,0.55955,-33.78,39.9,-4.44
4.1814,-11.809,-0.095342,-0.13286,0.46487,0.61728,-34.08,39.72,-5.04
3.6775,-10.215,-0.32689,-0.012523,0.058948,0.54764,-34.02,39.72,-5.58
3.4732,-9.8066,-0.32689,0.069028,-0.28191,0.40836,-33.9,39.78,-5.76
2.6015,-9.2891,-0.095342,0.16005,-0.54153,0.29138,-33.78,39.9,-6.12
2.3427,-9.3844,-0.12258,0.28772,-0.76328,0.23427,-33.54,39.96,-6.72
2.4108,-9.2482,-0.25879,0.29566,-0.78099,0.29566,-33.36,40.08,-6.78
2.5742,-8.3357,-0.50395,0.25504,-0.72785,0.40959,-33.0,40.2,-6.78
2.7513,-7.0009,-0.83084,0.20617,-0.61514,0.55039,-32.46,40.56,-6.84
2.6287,-6.1292,-0.99429,0.14966,-0.44838,0.66248,-32.22,40.8,-6.96
2.4789,-5.8295,-0.98067,0.10293,-0.2587,0.72052,-32.04,40.98,-6.84
2.1248,-5.8704,-0.83084,0.05681,-0.081856,0.7535,-31.62,41.28,-6.6
2.2201,-6.279,-0.6674,-0.012523,0.097128,0.80848,-31.2,41.52,-6.66
2.3836,-6.5378,-0.62654,-0.078496,0.14905,0.84147,-30.96,41.64,-6.54
2.5742,-6.8374,-0.31327,-0.14111,0.20586,0.86987,-30.36,42.18,-6.6
2.7104,-7.3958,0.12258,-0.17929,0.33537,0.86682,-29.76,42.6,-6.66
2.8603,-7.927,0.42223,-0.18906,0.60781,0.84696,-29.16,43.08,-6.66
2.9148,-8.0632,0.31327,-0.18082,0.78741,0.80909,-28.86,43.2,-6.66
3.0101,-7.6546,0.14982,-0.13897,0.90316,0.74587,-28.14,43.68,-6.72
3.1054,-7.5184,-0.068102,-0.050396,0.93249,0.65271,-27.54,44.16,-6.96
3.2825,-8.3084,-0.095342,0.082772,0.84849,0.57085,-27.12,44.4,-7.2
3.6366,-10.324,0.10896,0.208,0.74281,0.55955,-26.4,44.76,-7.5
4.0725,-13.375,-0.16344,0.3262,0.69272,0.60964,-25.56,45.18,-7.92
4.6718,-14.465,-1.0351,0.30146,0.63652,0.76022,-24.66,45.42,-8.34
5.0123,-13.757,-1.6208,0.24282,0.47922,0.7813,-24.3,45.54,-8.76
5.1485,-12.503,-1.9613,0.34025,0.19181,0.67287,-23.64,45.72,-9.12
4.8625,-11.768,-2.261,0.42455,-0.22969,0.4102,-22.86,46.02,-9.84
4.5764,-11.4,-2.2882,0.49266,-0.77977,0.062919,-22.5,46.02,-10.26
3.7865,-11.06,-2.6696,0.57482,-1.4047,-0.31307,-21.96,46.02,-10.74
3.2008,-11.25,-2.3972,0.60628,-1.9758,-0.6973,-21.72,45.78,-11.16
3.0101,-11.032,-2.2746,0.47983,-2.4578,-0.8265,-21.66,45.6,-11.22
2.3699,-9.9973,-1.8251,0.35216,-2.4493,-0.90072,-21.54,45.54,-11.28
2.1384,-9.6568,-1.7025,0.20097,-2.1371,-0.91752,-21.72,45.3,-11.28
1.7706,-8.7443,-1.4846,0.028405,-1.616,-0.92454,-22.14,45.0,-10.86
1.471,-8.1858,-1.5527,-0.12217,-1.0201,-0.88087,-22.8,44.7,-10.32
1.2531,-7.7364,-1.5391,-0.2419,-0.47006,-0.83108,-23.58,44.22,-10.08
1.471,-7.4776,-1.5119,-0.30513,-0.043371,-0.80207,-24.48,43.62,-9.48
1.6072,-7.3822,-1.5391,-0.33781,0.35675,-0.70983,-24.84,43.32,-9.18
2.2065,-7.2733,-1.757,-0.33201,0.39401,-0.63897,-25.56,42.84,-8.7
2.656,-7.3414,-1.9886,-0.33048,0.27061,-0.57208,-26.58,42.6,-8.16
2.9148,-7.6002,-2.1112,-0.33384,0.046426,-0.50671,-27.24,42.3,-7.8
2.9148,-7.6955,-2.0294,-0.35736,-0.22266,-0.45387,-27.54,42.06,-7.56
2.6696,-8.0905,-1.6889,-0.36011,-0.45937,-0.41539,-28.08,41.52,-7.14
2.4108,-8.431,-1.2939,-0.40745,-0.58796,-0.39767,-28.62,40.98,-7.02
2.2882,-8.7443,-1.0215,-0.44013,-0.54398,-0.3989,-28.68,40.74,-6.84
2.1656,-9.5206,-0.72188,-0.48075,-0.3992,-0.38729,-28.98,40.38,-6.24
2.3291,-11.169,-0.46309,-0.51252,-0.18815,-0.35003,-29.46,40.14,-5.7
2.5198,-11.931,-0.31327,-0.57666,0.072998,-0.25779,-29.52,39.9,-5.4
2.9556,-13.157,0.068102,-0.61239,0.50244,-0.054978,-29.94,39.6,-4.86
3.3234,-12.681,0.23155,-0.66248,0.76755,0.018631,-30.3,39.24,-4.38
3.4323,-12.122,0.24517,-0.64538,0.89858,0.046426,-30.48,39.0,-4.08
3.5822,-11.414,0.054481,-0.55741,0.89767,0.0085521,-30.72,38.94,-3.84
3.6503,-11.918,-0.25879,-0.43494,0.75075,-0.072998,-30.84,38.88,-3.42
3.5004,-12.231,-0.70826,-0.31154,0.33017,-0.14936,-31.14,38.76,-3.0
3.5004,-12.163,-0.7355,-0.28314,0.16707,-0.16157,-31.32,38.7,-3.06
3.4596,-11.482,-0.7355,-0.20036,-0.23305,-0.14142,-31.62,38.46,-3.0
3.1191,-10.188,-0.40861,-0.18234,-0.32529,-0.09896,-32.04,38.22,-2.82
2.9148,-9.6432,-0.35413,-0.17074,-0.30635,-0.06689,-32.04,38.34,-2.88
2.547,-8.5263,-0.32689,-0.15699,-0.22205,-0.043066,-32.34,38.1,-2.64
2.3699,-7.7636,-0.46309,-0.11454,-0.11301,-0.0012217,-32.58,37.98,-2.34
2.3018,-7.2869,-0.72188,-0.080634,0.019548,0.10232,-32.88,37.98,-2.16
2.3291,-7.1371,-0.81722,-0.083689,0.085827,0.20159,-32.88,37.86,-1.98
2.4517,-7.0145,-0.99429,-0.095906,0.10171,0.31765,-32.82,37.8,-1.68
2.5198,-7.1371,-0.92618,-0.12126,0.12004,0.42822,-32.76,37.68,-1.56
2.5606,-7.2052,-0.7355,-0.17318,0.16035,0.5452,-32.7,37.74,-1.26
2.5334,-7.0826,-0.57205,-0.2135,0.22235,0.63072,-32.58,38.04,-1.26
2.4925,-6.8919,-0.42223,-0.24923,0.38546,0.71166,-32.22,38.28,-1.38
2.3836,-6.7693,-0.46309,-0.30391,0.53237,0.72204,-32.04,38.4,-1.38
2.4789,-6.7012,-0.47671,-0.32712,0.65301,0.70738,-31.68,38.94,-1.56
2.5606,-6.7421,-0.44947,-0.31551,0.72235,0.68203,-31.5,39.36,-1.8
2.7922,-7.2052,-0.39499,-0.29932,0.76328,0.66096,-30.96,39.48,-1.98
3.0237,-8.2131,-0.43585,-0.27031,0.78832,0.65851,-30.48,39.9,-2.28
3.3097,-9.6432,-0.17706,-0.24648,0.82803,0.6692,-30.12,40.38,-2.82
3.3778,-10.678,-0.095342,-0.16921,0.94073,0.72937,-29.88,40.62,-2.94
3.6094,-11.891,0.027241,-0.090713,1.0589,0.78038,-29.46,41.04,-3.6
3.7047,-12.19,-0.19068,-0.036957,1.2,0.82009,-29.04,41.28,-3.66
3.8001,-11.645,-0.68102,0.039095,1.2825,0.78007,-28.2,41.7,-4.08
4.1133,-11.632,-1.4438,0.18387,1.2382,0.71868,-27.18,42.06,-4.8
4.3177,-11.986,-1.7298,0.34422,0.99174,0.64935,-26.88,42.18,-4.98
4.699,-12.422,-2.2337,0.51618,0.5284,0.54947,-25.98,42.6,-5.58
4.7399,-12.517,-2.6423,0.75198,-0.43219,0.39492,-25.56,42.6,-5.94
4.5492,-12.64,-2.9692,0.84208,-1.0931,0.28894,-24.66,42.9,-6.6
3.9227,-12.177,-3.1735,0.86896,-1.6215,0.14111,-23.88,43.26,-7.26
2.8194,-10.815,-3.1735,0.84147,-1.9377,0.011912,-23.04,43.32,-7.98
2.3427,-10.338,-3.051,0.8042,-2.0107,-0.080329,-22.74,43.44,-8.28
1.4165,-9.507,-2.7922,0.68967,-1.7837,-0.17898,-22.26,43.62,-8.88
1.3212,-9.2482,-2.7786,0.54642,-1.4239,-0.26939,-22.38,43.56,-8.88
1.4982,-8.5944,-2.6832,0.44471,-0.97586,-0.33537,-22.14,43.44,-9.06
1.6753,-8.0632,-2.9965,0.32437,-0.53481,-0.35339,-22.26,42.96,-9.24
1.5936,-7.3686,-3.2825,0.17929,-0.12523,-0.37629,-22.38,42.78,-9.48
1.6481,-7.1234,-3.3506,0.055589,0.25381,-0.37385,-22.68,42.66,-9.54
1.9477,-6.6604,-3.1872,-0.035125,0.45479,-0.38973,-22.74,42.54,-9.6
2.1793,-6.5105,-3.0646,-0.078802,0.38515,-0.36682,-22.8,42.36,-9.54
2.656,-6.7012,-2.942,-0.073609,0.15882,-0.33689,-23.1,41.94,-9.66
2.8194,-6.8919,-2.8875,-0.068722,-0.15882,-0.30177,-23.22,41.7,-9.72
2.7513,-7.3141,-2.7241,-0.068722,-0.4948,-0.24099,-23.76,41.28,-9.66
2.6287,-7.6955,-2.4108,-0.083994,-0.75442,-0.18051,-24.0,41.16,-9.72
2.4925,-8.0224,-2.3699,-0.13531,-0.84299,-0.12492,-24.18,40.98,-9.78
2.1248,-8.2676,-1.9886,-0.281,-0.69455,-0.08094,-24.9,40.86,-9.6
1.9341,-8.3765,-1.7979,-0.38393,-0.46242,-0.073609,-25.02,41.04,-9.6
1.8387,-8.4446,-1.5663,-0.49724,-0.14142,-0.08094,-25.14,40.98,-9.66
1.8524,-9.0984,-1.4029,-0.59346,0.20097,-0.080023,-25.62,40.92,-9.24
2.1656,-9.9156,-1.6072,-0.69761,0.6127,-0.040317,-25.8,40.8,-9.06
2.7649,-11.509,-1.3757,-0.81642,0.73029,-0.0079412,-26.28,40.74,-8.82
2.8603,-12.122,-1.0624,-0.93371,0.9896,0.037568,-26.52,40.68,-8.64
2.8875,-12.231,-0.77636,-1.1038,1.5079,0.019242,-26.7,40.8,-8.28
2.9965,-12.367,-0.12258,-1.1542,1.8918,-0.064752,-27.0,40.92,-8.04
3.1191,-12.408,0.027241,-1.1622,2.1948,-0.19548,-27.12,41.04,-7.8
3.4459,-12.599,-0.10896,-1.0489,2.3616,-0.3598,-27.18,40.92,-7.56
3.8001,-12.64,-0.42223,-0.92027,2.2819,-0.44013,-27.24,40.8,-7.62
4.0044,-12.313,-0.70826,-0.85368,2.1765,-0.46823,-27.3,40.86,-7.5
4.127,-11.795,-1.0624,-0.6463,1.6029,-0.53542,-27.3,40.74,-7.56
4.1542,-10.706,-1.362,-0.46884,1.0263,-0.53176,-27.48,40.74,-7.62
3.9635,-10.052,-1.471,-0.29199,0.42486,-0.46578,-27.54,40.8,-7.68
3.9635,-10.052,-1.471,-0.13256,-0.22571,-0.34728,-27.54,40.8,-7.68
3.4732,-8.5944,-1.757,-0.099571,-0.37232,-0.29871,-27.54,40.8,-7.74
3.4732,-8.5944,-1.757,-0.045815,-0.65149,-0.10965,-27.54,40.8,-7.74
3.2144,-7.8045,-1.9341,-0.036957,-0.67073,0.031154,-27.66,40.74,-7.74
2.6287,-7.3822,-2.0839,-0.059254,-0.52229,0.16371,-27.78,40.8,-7.86
2.4517,-7.2188,-2.0839,-0.12126,-0.21594,0.27061,-27.9,40.74,-7.86
2.2746,-6.9464,-1.9613,-0.18876,0.40806,0.38362,-28.14,40.5,-7.74
2.5198,-6.9464,-1.6481,-0.24557,0.61636,0.40806,-28.14,40.56,-7.86
2.7922,-6.9464,-1.6481,-0.26145,0.86224,0.46792,-28.26,40.56,-7.8
3.1872,-7.3141,-1.6617,-0.24893,0.95967,0.58124,-28.2,40.62,-7.74
3.3778,-7.641,-1.4574,-0.23763,0.93585,0.66065,-28.08,40.74,-7.86
3.4596,-7.8045,-1.3212,-0.21686,0.87598,0.75014,-28.2,40.74,-7.8
3.5413,-8.0088,-1.1713,-0.2138,0.80268,0.83291,-27.9,40.98,-7.8
3.4187,-8.1313,-1.0215,-0.18967,0.76633,0.90133,-27.72,41.22,-7.74
3.3778,-8.2676,-0.96704,-0.15852,0.79657,0.95142,-27.54,41.46,-7.92
3.3915,-8.4446,-0.76274,-0.10629,0.88514,1.0104,-26.82,42.0,-8.34
3.4596,-8.431,-0.7355,-0.071471,0.92638,1.0235,-26.52,42.12,-8.64
3.4732,-8.322,-0.78998,-0.043371,0.94867,1.0366,-26.16,42.42,-8.7
3.5413,-8.145,-0.92618,-0.016493,0.93187,1.0409,-25.2,43.14,-9.3
3.5822,-7.9951,-0.95342,-0.023213,0.89339,1.015,-24.54,43.38,-9.48
3.4596,-7.7636,-1.1305,-0.034514,0.86743,0.96333,-23.94,43.68,-9.9
3.3778,-8.6762,-0.88532,-0.021075,0.87384,0.92393,-22.8,44.52,-10.44
3.6775,-11.278,-0.64016,0.007025,0.95723,0.92882,-22.14,44.7,-10.56
4.0316,-13.607,-0.24517,0.010079,1.1518,1.0113,-21.36,44.94,-10.86
4.5492,-16.072,0.36775,-0.014661,1.5687,1.1383,-19.86,45.36,-11.46
4.2087,-15.391,0.40861,-0.28039,2.594,1.1344,-18.96,45.6,-11.7
4.0316,-13.334,0.01362,-0.32529,2.9102,1.0293,-17.28,46.14,-12.36
3.8954,-10.161,-0.81722,-0.17776,3.4193,0.48258,-16.38,46.44,-12.54
4.1133,-9.8339,-1.7298,0.010385,3.1808,0.055283,-15.42,46.68,-12.78
4.5901,-10.12,-2.4244,0.21564,2.3723,-0.30085,-14.4,46.98,-13.32
5.7069,-11.005,-3.2825,0.33903,1.1313,-0.59223,-12.72,47.16,-13.98
5.5299,-11.032,-3.1599,0.45112,-0.76755,-0.85735,-12.12,47.28,-14.52
4.4811,-10.951,-2.6015,0.52168,-1.2016,-0.93646,-11.52,47.4,-14.7
3.0237,-10.678,-2.7649,0.41569,-1.7107,-1.0907,-10.62,47.34,-15.48
2.1929,-10.515,-2.9692,0.25259,-1.4792,-1.022,-10.26,47.34,-15.9
1.6344,-9.8611,-3.1191,0.10232,-0.99113,-0.90378,-10.08,47.34,-16.26
0.76274,-8.431,-3.4051,0.012828,-0.40836,-0.82833,-9.9,47.16,-16.74
0.74912,-7.7091,-3.5822,-0.034819,0.47281,-0.64568,-10.14,46.92,-17.04
1.1441,-7.3141,-3.5549,-0.054062,0.70524,-0.53603,-10.74,46.56,-17.28
1.6481,-7.0553,-3.623,-0.034208,0.99571,-0.32162,-11.04,46.32,-17.46
2.0294,-6.8647,-3.7047,0.023824,0.95234,0.000611,-11.58,46.02,-17.7
2.2882,-6.5378,-3.7456,0.081856,0.72754,0.19578,-12.42,45.66,-17.88
2.4244,-6.5378,-3.6503,0.15424,0.45448,0.37874,-12.84,45.42,-18.18
2.6423,-7.3414,-3.623,0.2364,0.0085521,0.59773,-13.44,44.94,-18.42
2.7513,-7.9951,-3.5685,0.3094,-0.28314,0.71563,-13.8,44.88,-18.6
2.7377,-8.5944,-3.7184,0.28924,-0.51282,0.81734,-13.8,44.88,-18.72
2.6287,-10.093,-3.3642,0.22144,-0.59559,0.88392,-13.86,44.64,-18.96
2.4789,-11.087,-3.0646,0.12523,-0.49908,0.90836,-13.74,44.46,-19.2
2.8603,-12.858,-2.6832,0.012828,-0.27794,0.95081,-13.56,44.4,-19.44
2.9692,-14.533,-2.4517,-0.16829,0.081856,0.96272,-13.32,44.46,-19.62
2.6015,-12.108,-1.6072,-0.63927,0.85613,0.81245,-12.42,44.46,-19.86
2.438,-9.8748,-1.3484,-0.76541,1.3103,0.54062,-12.0,44.52,-19.92
2.6832,-8.5536,-1.2803,-0.77672,1.4691,0.38454,-11.58,44.7,-20.04
2.9556,-8.431,-1.3076,-0.72968,1.6044,-0.14142,-11.04,44.76,-20.04
3.6775,-10.774,-1.5119,-0.68722,1.4218,-0.38362,-10.14,44.82,-19.8
4.1542,-11.305,-1.6208,-0.69272,1.117,-0.52443,-9.6,44.94,-19.62
4.5083,-10.992,-1.2803,-0.6576,0.478,-0.62736,-8.76,45.18,-19.08
4.3177,-10.27,-1.185,-0.58979,-0.017715,-0.7254,-8.4,45.3,-18.84
4.0861,-9.9565,-1.1032,-0.51526,-0.46487,-0.85674,-8.16,45.54,-18.66
3.1327,-9.6023,-1.2939,-0.49633,-0.75595,-1.0113,-8.04,45.96,-17.82
2.9011,-9.4389,-1.2258,-0.52748,-0.87384,-1.1915,-8.04,46.14,-17.4
2.5742,-9.2346,-0.92618,-0.59559,-0.82528,-1.3436,-7.92,46.14,-16.92
2.3155,-8.8396,-1.0079,-0.70341,-0.56444,-1.4771,-8.34,46.38,-16.02
2.2065,-8.7715,-0.89894,-0.76328,-0.34117,-1.4972,-8.82,46.44,-15.42
2.2065,-8.4446,-0.99429,-0.82253,-0.16218,-1.5043,-9.3,46.56,-14.88
2.152,-8.6489,-0.96704,-0.86743,0.011912,-1.4526,-10.68,46.5,-13.8
2.1248,-8.5808,-0.8036,-0.905,0.18234,-1.339,-11.28,46.32,-13.2
2.0975,-8.2948,-0.69464,-0.93615,0.36621,-1.1964,-11.94,46.2,-12.48
2.2201,-8.145,-0.69464,-0.90897,0.6017,-0.9163,-13.68,46.08,-11.46
2.261,-8.1586,-0.62654,-0.88728,0.70555,-0.72724,-14.64,45.78,-10.74
2.2201,-8.2812,-0.65378,-0.86682,0.74434,-0.62094,-15.48,45.48,-10.08
2.2882,-8.3493,-0.5993,-0.81612,0.89339,-0.27428,-17.04,45.06,-9.06
2.3155,-8.1722,-0.53119,-0.76389,1.0131,-0.03207,-17.82,44.76,-8.58
2.3836,-8.2131,-0.46309,-0.69669,1.1277,0.20556,-18.54,44.64,-7.92
2.4244,-8.4174,-0.54481,-0.59834,1.2428,0.44776,-19.14,44.28,-7.44
2.6423,-8.8941,-0.70826,-0.489,1.3744,0.69516,-20.04,43.98,-6.78
2.833,-9.4117,-0.84446,-0.31185,1.5702,1.087,-20.34,43.8,-6.48
2.9965,-9.8066,-0.8036,-0.17287,1.6674,1.3631,-20.34,43.98,-6.3
3.2961,-11.101,-0.50395,0.017104,1.7373,1.6496,-20.1,44.22,-6.0
3.6639,-11.346,-0.57205,0.17471,1.8036,1.9221,-19.92,44.34,-6.12
4.0044,-10.474,-1.1169,0.35003,1.6842,2.2226,-18.78,44.46,-6.3
4.2223,-10.215,-2.0839,0.51954,1.4239,2.3298,-18.0,44.88,-6.48
4.3721,-10.256,-2.6968,0.63072,0.96425,2.375,-17.1,45.18,-6.84
4.5764,-10.351,-3.4051,0.71502,0.40103,2.317,-16.14,45.48,-7.14
4.2223,-9.9292,-3.4732,0.76877,-0.071777,2.1344,-13.56,46.26,-7.98
3.9635,-10.093,-3.3097,0.79504,-0.43952,1.8867,-12.36,46.68,-8.64
3.4459,-10.651,-3.3097,0.75533,-0.69669,1.5812,-9.66,47.52,-9.66
2.8739,-10.828,-3.3778,0.5736,-0.65363,1.088,-8.1,47.76,-10.2
2.3018,-10.774,-3.2961,0.39859,-0.24923,0.76786,-6.78,47.88,-10.8
1.5391,-10.42,-3.4187,0.16127,0.36011,0.48045,-4.32,48.12,-12.0
1.3484,-10.065,-3.5277,-0.087354,1.0033,0.20372,-3.12,48.3,-12.36
1.7298,-9.3299,-3.5413,-0.30055,1.5217,0.030238,-2.04,48.42,-12.78
2.1656,-8.1858,-3.2825,-0.45876,1.8842,-0.072998,-1.02,48.72,-13.74
2.3699,-7.8589,-3.1599,-0.61025,2.1738,-0.14294,0.9,48.66,-14.16
2.5742,-7.4095,-2.8875,-0.63897,2.1906,-0.14722,1.68,48.78,-14.16
3.0237,-7.2869,-2.3155,-0.61087,2.0876,-0.12706,2.82,48.78,-14.46
3.1872,-7.4095,-2.2474,-0.54886,1.901,-0.062308,3.12,48.96,-14.34
3.3778,-7.5729,-2.152,-0.45754,1.6753,0.036041,3.72,48.96,-14.16
3.7047,-8.145,-2.0839,-0.35522,1.4276,0.23824,4.44,49.02,-13.86
3.8001,-8.54,-2.1112,-0.16493,0.99785,0.34819,4.8,49.08,-13.8
3.9227,-8.7851,-2.2065,-0.03207,0.71135,0.45021,5.1,49.2,-13.44
3.8273,-9.0575,-2.4517,0.080023,0.42791,0.50183,5.82,49.38,-12.78
3.7047,-8.8668,-2.7922,0.16982,0.15455,0.49114,6.12,49.44,-12.6
3.514,-8.7443,-3.1054,0.22449,-0.079107,0.45998,6.54,49.56,-12.36
3.051,-8.431,-3.2008,0.23305,-0.23366,0.4273,7.02,49.68,-11.82
2.8603,-8.4446,-3.051,0.22235,-0.22724,0.36682,7.38,49.56,-11.58
2.6696,-8.54,-2.9829,0.20189,-0.071471,0.33475,7.68,49.68,-11.46
2.4653,-9.1937,-3.0101,0.15333,0.17501,0.32467,8.4,49.8,-11.04
2.4517,-9.3708,-3.0237,0.043371,0.50793,0.30391,8.76,49.74,-11.1
2.5606,-9.1393,-2.8467,-0.067806,0.81948,0.24557,9.0,49.68,-11.16
3.3506,-10.42,-2.5879,-0.085216,0.98685,0.14691,9.6,49.68,-11.16
3.8273,-11.822,-2.4108,-0.05284,0.98044,0.06017,9.84,49.62,-11.16
4.0997,-12.531,-2.3155,-0.11698,0.88789,0.068417,10.14,49.56,-11.28
4.3858,-12.871,-2.261,-0.16616,0.8436,0.072998,10.38,49.38,-11.34
4.127,-11.25,-1.9477,-0.343,0.72418,-0.044899,10.74,49.38,-11.22
3.8273,-9.3436,-1.8796,-0.38087,0.59498,-0.2645,10.92,49.38,-11.22
3.3097,-8.0224,-1.7298,-0.39187,0.37324,-0.56566,11.34,49.38,-10.98
3.2144,-8.6625,-1.8251,-0.28314,0.040928,-1.0159,11.46,49.5,-10.8
3.3642,-9.2482,-1.8387,-0.27917,-0.10965,-1.219,11.46,49.32,-10.74
3.4459,-9.9701,-1.9613,-0.28711,-0.18418,-1.2868,11.46,49.38,-10.62
3.6366,-11.06,-2.1929,-0.32132,-0.45204,-1.3818,11.22,49.38,-10.38
3.5685,-11.673,-2.3699,-0.34728,-0.66859,-1.4435,10.86,49.38,-10.08
3.3778,-11.768,-2.3291,-0.42577,-0.88362,-1.5165,10.32,49.38,-9.9
3.228,-11.645,-2.3427,-0.47709,-0.98563,-1.5653,9.9,49.62,-9.66
2.261,-11.046,-2.2337,-0.7251,-1.1985,-1.7639,8.1,49.8,-8.64
2.0839,-10.883,-2.0567,-0.78985,-1.1814,-1.7645,7.44,49.92,-8.22
1.6753,-10.474,-1.9613,-0.93249,-1.0571,-1.8127,6.54,49.92,-7.92
1.4165,-10.106,-1.58,-1.0363,-0.76969,-1.8121,5.64,49.92,-7.44
1.0488,-9.4389,-1.3893,-1.1478,-0.35613,-1.6924,3.3,49.92,-6.3
1.0488,-8.9622,-1.3757,-1.2068,0.025656,-1.5748,2.1,49.8,-5.76
1.1169,-8.3629,-1.4438,-1.1988,0.36499,-1.409,0.72,49.8,-5.04
1.3757,-7.4503,-1.1169,-1.1631,0.64599,-1.1918,-2.04,49.56,-3.66
1.6753,-7.069,-1.1169,-1.0779,0.81581,-0.95112,-3.36,49.44,-2.88
1.9068,-6.7829,-0.9398,-0.90011,0.92027,-0.52137,-5.82,49.08,-1.44
1.9886,-6.6876,-0.99429,-0.77946,0.91935,-0.22755,-7.14,48.72,-0.72
2.2474,-6.8783,-0.99429,-0.61117,0.85552,0.25809,-8.46,48.42,-0.72
2.3972,-7.1915,-0.91256,-0.55008,0.83139,0.42241,-10.56,48.3,1.32
2.4789,-7.2733,-0.6674,-0.44563,0.81764,0.74251,-11.46,48.18,1.86
2.5061,-7.2869,-0.57205,-0.26786,0.92546,1.197,-12.24,48.0,2.52
2.6968,-7.6683,-0.38137,-0.12217,1.0183,1.4606,-13.44,47.88,3.36
2.9011,-8.0496,-0.43585,0.039706,1.1145,1.715,-13.56,47.82,3.72
3.228,-8.7579,-0.53119,0.25412,1.237,2.1005,-13.2,47.94,4.2
3.7047,-9.793,-0.77636,0.36621,1.2743,2.3295,-12.84,48.06,4.26
4.0316,-10.379,-1.2258,0.41111,1.2795,2.4377,-12.18,48.3,4.38
4.1814,-10.583,-1.3757,0.44043,1.2153,2.6603,-11.4,48.54,4.08
4.3177,-11.482,-1.9205,0.43219,1.1072,2.718,-9.06,48.96,3.9
4.3585,-12.599,-1.7162,0.44196,0.9838,2.7355,-7.5,49.44,3.72
4.4811,-14.587,-1.0896,0.53573,1.033,2.7901,-4.38,49.92,3.12
4.413,-14.628,-0.99429,0.43188,1.285,2.7397,-2.64,50.1,2.82
4.5356,-14.233,-1.0215,0.29749,1.5052,2.5388,-0.9,50.28,2.7
4.6718,-12.122,-1.9613,0.33109,1.6493,2.2755,2.88,50.64,1.86
4.5356,-10.488,-2.6696,0.24038,1.6423,1.8922,4.8,50.7,1.5
4.2904,-8.5808,-3.2553,0.17532,1.4132,1.4004,6.6,50.7,1.32
4.0997,-7.5321,-3.623,0.15882,1.0143,0.94226,8.34,50.88,1.02
3.6366,-7.2188,-3.3778,0.090103,0.4328,0.26848,11.76,50.76,0.66
3.4732,-7.7636,-3.1463,0.038485,0.30482,0.069639,13.32,50.7,0.48
3.1599,-9.0303,-2.0294,-0.13073,0.083383,-0.39187,15.9,50.52,0.3
2.9692,-9.398,-1.5663,-0.22663,0.077885,-0.66096,16.86,50.34,0.24
2.7377,-9.8611,-1.2667,-0.32895,0.20739,-0.88514,17.7,50.22,0.12
2.4108,-9.9156,-1.1441,-0.43188,0.4609,-1.0608,19.02,50.16,0.24
2.3155,-9.6023,-1.1986,-0.54764,0.90286,-1.2443,19.5,50.16,0.3
2.2882,-8.431,-1.4982,-0.56047,1.0461,-1.2859,19.92,50.28,0.9
2.3563,-7.8317,-1.9341,-0.54642,1.3885,-1.3894,19.62,50.4,1.14
2.6015,-7.5457,-2.1929,-0.5006,1.492,-1.431,19.38,50.52,1.5
2.9011,-7.4095,-2.2201,-0.41783,1.4786,-1.4163,19.02,50.7,1.68
3.1735,-7.3686,-2.4653,-0.32926,1.3476,-1.299,17.64,51.12,2.58
3.3506,-7.246,-2.5742,-0.219,0.93004,-1.0458,16.86,51.3,2.94
3.4732,-7.4095,-2.6696,-0.000916,0.51038,-0.85735,15.36,51.78,3.84
3.4868,-7.927,-2.6696,0.12065,0.10018,-0.624,14.58,51.96,4.5
3.228,-8.4719,-2.7786,0.20556,-0.2474,-0.42028,13.74,52.14,4.92
2.9556,-9.0031,-2.833,0.25412,-0.52595,-0.24557,11.88,52.44,5.76
2.6968,-9.0848,-2.8194,0.26878,-0.69914,-0.12706,11.1,52.62,5.94
2.547,-9.0575,-2.8875,0.26389,-0.73762,-0.030849,10.32,52.8,6.36
2.0703,-8.9758,-2.7377,0.2416,-0.61514,0.021075,9.06,53.16,6.6
1.7979,-8.826,-2.7649,0.20311,-0.42608,0.058338,8.64,53.28,6.66
1.7298,-8.7987,-2.7241,0.16616,-0.20647,0.10018,8.28,53.46,6.72
1.6753,-8.8532,-2.6151,0.12584,0.041844,0.16432,7.56,53.52,6.6
1.8115,-9.0303,-2.6015,0.082161,0.2865,0.26481,7.38,53.58,6.6
1.9886,-9.3163,-2.5334,0.029627,0.51191,0.38332,7.26,53.58,6.48
2.4517,-9.8066,-2.3836,-0.032681,0.80329,0.56108,7.14,53.64,6.36
2.5606,-10.12,-2.3563,-0.066584,0.97464,0.68509,7.14,53.64,6.18
2.7649,-10.256,-2.2474,-0.10018,1.1051,0.78466,7.26,53.82,6.06
2.942,-9.9292,-2.0975,-0.12217,1.2184,0.85888,7.62,53.94,5.94
3.051,-9.9701,-1.7979,-0.10873,1.3161,0.93126,7.92,53.82,5.88
3.4323,-11.032,-1.6344,-0.029932,1.3625,1.029,8.34,53.88,5.94
4.0589,-12.136,-1.5527,-0.058643,1.3354,1.1292,8.64,53.76,5.88
4.1542,-12.108,-1.4982,-0.083689,1.2892,1.175,8.94,53.76,6.0
4.3313,-11.972,-1.4165,-0.11393,1.2034,1.1606,9.3,53.76,6.06
4.3585,-10.215,-1.1986,-0.16188,1.0852,1.0534,10.14,53.64,6.3
4.0861,-9.1393,-1.2667,-0.17043,0.89217,0.83169,10.68,53.58,6.3
3.8409,-8.2539,-1.2803,-0.11973,0.47312,0.37813,11.7,53.52,6.54
3.3506,-8.2539,-1.2258,-0.059865,0.15882,0.094073,12.12,53.4,6.66
3.1327,-8.9486,-1.1032,-0.031765,-0.076053,-0.15547,12.42,53.4,6.78
3.1735,-9.616,-0.99429,-0.051924,-0.21686,-0.31857,12.66,53.28,7.02
3.6094,-10.311,-1.0215,-0.08827,-0.28986,-0.4383,13.38,53.04,7.5
3.7728,-10.76,-1.0351,-0.13134,-0.33659,-0.53817,13.62,53.16,7.62
3.5822,-11.346,-0.88532,-0.22724,-0.3204,-0.63744,13.92,53.04,7.68
3.2553,-11.441,-0.76274,-0.31337,-0.24251,-0.78313,13.98,52.92,7.86
2.9965,-11.155,-0.74912,-0.40989,-0.1347,-0.95417,13.86,52.86,7.98
3.0101,-10.924,-0.72188,-0.47586,-0.087354,-1.1961,13.62,52.92,8.1
2.9556,-10.706,-0.61292,-0.49236,-0.20525,-1.6561,12.9,52.92,8.46
2.833,-11.114,-0.58567,-0.46609,-0.35369,-1.897,12.3,52.8,8.7
2.656,-10.719,-0.64016,-0.45723,-0.48258,-2.1063,11.76,52.8,8.88
1.975,-10.351,-0.38137,-0.47434,-0.62766,-2.2773,10.2,52.86,9.36
1.7025,-10.106,-0.28603,-0.4835,-0.62094,-2.2486,9.36,52.86,9.48
1.3348,-9.5751,-0.38137,-0.62583,-0.4945,-2.055,8.22,52.86,9.66
0.89894,-7.1915,-0.25879,-0.71319,-0.31398,-1.8158,5.52,52.92,10.02
0.99429,-6.2381,-0.14982,-0.76205,-0.022907,-1.4795,4.14,52.86,10.56
1.2939,-5.5435,-0.054481,-0.78863,0.30116,-1.1328,2.88,52.68,11.04
1.6344,-5.0531,0.12258,-0.80481,0.71654,-0.60995,0.24,52.56,12.18
1.757,-4.8488,0.14982,-0.79871,0.86163,-0.26176,-1.08,52.5,12.66
1.9886,-4.4402,0.054481,-0.79657,0.87995,-0.10476,-2.34,52.2,13.26
2.0294,-4.6718,-0.12258,-0.71288,0.82589,0.31185,-4.86,51.78,14.04
2.2337,-4.9578,-0.16344,-0.65821,0.78343,0.57238,-5.94,51.66,14.58
2.547,-4.9714,-0.16344,-0.58918,0.72082,0.79168,-7.08,51.54,15.06
2.9284,-4.9987,-0.36775,-0.51282,0.67928,0.96975,-8.52,51.12,16.2
2.8739,-4.9987,-0.55843,-0.36744,0.71502,1.1747,-9.06,50.7,16.74
2.8467,-5.1485,-0.83084,-0.27581,0.85888,1.2636,-9.48,50.4,17.16
3.2825,-6.4833,-1.1441,-0.20159,1.0644,1.3378,-9.6,49.98,17.94
3.732,-7.246,-1.2803,-0.17257,1.2159,1.4251,-9.6,49.8,18.06
4.1542,-8.1586,-1.3757,-0.15791,1.2969,1.5281,-9.66,49.56,18.24
4.4811,-8.7443,-1.3484,-0.14569,1.3024,1.616,-9.12,49.44,18.36
4.4947,-8.8668,-1.185,-0.1744,1.273,1.6182,-8.64,49.38,18.42
4.413,-9.112,-0.92618,-0.17135,1.262,1.598,-8.16,49.38,18.48
4.6718,-10.025,-0.51757,-0.1463,1.2651,1.5589,-6.9,49.5,18.66
4.8352,-10.488,-0.49033,-0.14539,1.2706,1.478,-6.24,49.5,18.78
4.8625,-10.951,-0.50395,-0.12553,1.3332,1.3693,-5.52,49.5,18.6
4.8625,-11.795,-0.44947,0.014661,1.4759,1.1622,-4.5,49.5,18.6
5.0531,-12.776,-0.32689,0.22724,1.5275,1.0272,-3.96,49.74,18.54
5.6388,-15.568,-0.7355,0.48991,1.4615,0.97586,-3.18,49.74,18.42
6.1564,-16.59,-1.3484,0.52931,1.2801,0.9893,-2.64,49.86,18.42
5.9249,-12.681,-3.6639,0.37782,0.89919,0.94867,-1.5,49.8,18.48
5.2847,-10.311,-3.9771,0.50213,0.22388,0.73976,-1.02,49.92,18.42
4.5083,-9.1393,-3.1463,0.56688,-0.62919,0.39798,-0.18,49.92,18.6
3.0373,-8.2131,-2.7922,0.52534,-0.89003,0.22205,0.18,49.86,18.36
2.7513,-7.8726,-2.6151,0.48258,-0.93676,0.12309,0.66,49.86,18.36
2.7377,-7.5321,-2.7377,0.42241,-0.81092,0.11698,0.9,49.92,18.12
2.5879,-6.7148,-2.942,0.35247,-0.59437,0.19181,1.74,50.04,17.58
2.4108,-6.2381,-3.1327,0.30971,-0.34117,0.23274,2.04,49.98,17.4
2.4789,-6.3198,-3.2689,0.29658,-0.13286,0.22724,2.52,50.16,17.16
3.0237,-7.4912,-3.3915,0.25962,-0.047342,0.25443,3.18,50.1,16.5
3.3506,-7.9543,-3.4459,0.19517,-0.15852,0.29413,3.48,50.22,16.2
3.4187,-8.1177,-3.3097,0.13225,-0.30299,0.29719,3.96,50.16,15.84
3.2553,-7.6955,-2.5879,0.086743,-0.3824,0.24984,4.32,50.28,15.12
3.4323,-8.3765,-2.2746,0.071471,-0.43738,0.19914,4.62,50.28,14.7
3.9363,-9.9429,-2.5198,0.062614,-0.60781,0.19212,4.74,50.28,14.28
4.8761,-14.274,-2.6015,-0.08491,-1.0977,0.32254,5.22,50.4,13.74
4.9578,-15.609,-2.0839,-0.1854,-1.2275,0.41264,5.28,50.28,13.44
4.9578,-16.126,-1.5527,-0.4777,-1.0372,0.38729,5.46,50.1,13.14
4.7126,-16.317,-0.35413,-0.76633,-0.63438,0.23793,5.94,49.74,12.72
4.3177,-15.445,0.19068,-1.0238,-0.16738,-0.093157,6.12,49.5,12.66
3.4732,-13.988,0.31327,-1.2303,0.31337,-0.82833,6.36,48.72,12.48
2.7241,-12.503,0.12258,-1.2361,0.38882,-1.0944,6.54,48.48,12.6
2.3972,-11.836,0.12258,-1.1939,0.49114,-1.8503,6.6,48.18,12.6
2.3155,-11.536,-0.12258,-1.127,0.5284,-2.1994,6.42,47.88,12.78
2.4653,-10.924,-0.24517,-1.0449,0.58521,-2.4218,6.3,47.52,13.08
2.8739,-10.542,-0.20431,-0.98716,0.63652,-2.4438,5.76,46.8,13.68
3.3915,-9.5887,-0.39499,-0.95539,0.59651,-2.2199,5.28,46.38,13.98
3.4187,-7.3822,-0.49033,-0.9331,0.36316,-2.1154,3.96,45.48,14.64
3.3097,-6.6604,-0.43585,-0.81306,-0.014355,-1.7291,3.12,45.18,15.0
2.9965,-5.9112,-0.40861,-0.77855,-0.28497,-1.5088,2.34,44.7,15.36
2.3563,-4.9578,-0.32689,-0.72968,-0.50091,-1.3063,0.12,43.92,16.38
2.0839,-4.6445,-0.35413,-0.686,-0.62614,-1.1344,-0.96,43.68,16.74
1.866,-4.5764,-0.28603,-0.64324,-0.66615,-0.95753,-2.28,43.32,17.28
1.9613,-5.5026,-0.19068,-0.60109,-0.63561,-0.77916,-4.68,42.72,18.0
1.9886,-5.6661,-0.24517,-0.62766,-0.48839,-0.47525,-5.94,42.42,18.36
1.8932,-5.4073,-0.25879,-0.6466,-0.31582,-0.30727,-7.98,41.76,18.78
1.8115,-5.4618,-0.36775,-0.63622,-0.10324,-0.19212,-8.88,41.34,19.02
1.7298,-5.598,-0.32689,-0.60598,0.11668,-0.099571,-9.66,41.04,19.32
1.9341,-6.17,-0.40861,-0.57879,0.34514,-0.018021,-10.92,40.44,19.86
2.1793,-6.6467,-0.35413,-0.48839,0.52993,0.08491,-11.46,40.2,19.92
2.7377,-7.8453,-0.28603,-0.28741,0.75289,0.39034,-11.82,39.78,20.16
3.2008,-9.1256,-0.24517,-0.20617,0.821,0.54459,-12.18,39.48,20.4
4.2904,-11.141,-0.54481,0.086743,1.0027,1.0773,-12.42,38.88,20.64
4.7944,-11.359,-1.2122,0.32895,1.0006,1.3714,-12.36,38.4,20.76
5.8295,-11.523,-2.8058,0.60445,0.74862,1.5992,-12.0,37.98,20.64
6.3743,-11.822,-4.0997,0.91599,0.15669,1.7562,-11.82,37.86,20.64
6.7966,-12.408,-5.3119,1.1161,-0.78832,1.8298,-11.46,37.74,20.58
6.4424,-12.735,-5.2983,1.2385,-1.8903,1.8341,-10.38,37.56,20.52
5.5162,-11.768,-4.8488,1.3995,-2.7394,1.7883,-9.66,37.62,20.4
4.8625,-10.992,-4.6037,1.4447,-3.237,1.6365,-8.7,37.62,20.1
3.6503,-10.61,-3.7728,1.4939,-3.1493,1.5272,-6.48,37.62,19.2
3.1872,-11.55,-3.3778,1.5638,-2.8408,1.4899,-5.22,37.74,18.72
2.0294,-11.605,-3.4868,1.3522,-1.9923,1.4105,-2.4,38.1,17.58
1.6208,-10.311,-3.9363,1.2187,-1.6115,1.3845,-1.02,38.4,16.92
1.3757,-9.507,-4.2087,0.80817,-0.41294,1.2324,0.54,38.7,16.26
1.0624,-7.1234,-4.413,0.51954,0.36774,0.99693,3.48,39.06,14.58
1.2803,-6.4833,-4.3177,0.31246,0.95112,0.69914,4.92,39.18,13.98
2.3427,-6.3743,-4.2768,0.14783,1.2541,0.45448,6.3,39.42,13.38
2.9965,-6.1564,-4.2904,-0.10018,1.2553,0.14386,8.76,39.66,12.12
3.337,-5.9521,-3.9908,-0.2532,1.0931,-0.029932,9.66,39.78,11.58
3.6639,-5.9112,-3.6503,-0.31643,0.9838,-0.1127,10.68,39.9,10.98
3.6775,-6.4424,-2.7786,-0.41692,0.68173,-0.30146,12.06,40.02,10.26
3.6775,-7.0417,-2.6151,-0.44776,0.52321,-0.35736,12.48,39.9,10.14
3.8409,-7.9951,-2.656,-0.45784,0.41172,-0.38546,12.78,39.72,10.02
3.9227,-8.7715,-2.7377,-0.50427,0.3937,-0.35491,13.14,39.6,9.66
3.8682,-8.6625,-2.6151,-0.58246,0.5061,-0.37385,13.26,39.42,9.66
3.7456,-8.2267,-2.438,-0.59284,0.59712,-0.405,13.2,39.18,9.72
3.6911,-8.5808,-2.1929,-0.55925,0.81581,-0.54367,13.02,39.12,9.9
4.3313,-10.474,-1.8932,-0.52565,0.84086,-0.58429,12.66,39.06,10.26
5.0804,-12.217,-1.975,-0.44868,0.63469,-0.62033,12.42,38.94,10.44
5.4481,-13.089,-1.8115,-0.36469,0.27245,-0.57513,12.06,38.88,10.68
5.3664,-13.702,-1.4574,-0.35247,0.20189,-0.57544,11.58,38.64,10.92
5.2711,-13.471,-1.6072,-0.35369,0.13928,-0.72601,11.22,38.46,11.16
5.2302,-13.212,-2.1112,-0.3598,0.11301,-0.83627,10.92,38.28,11.22
5.1757,-13.103,-2.6287,-0.33292,-0.084605,-1.2086,10.68,38.22,11.46
5.2438,-12.626,-3.7728,-0.43646,-0.25259,-1.5149,9.72,38.34,11.88
5.0259,-12.027,-3.9227,-0.56261,-0.21564,-2.0675,9.3,38.28,12.12
5.2166,-12.503,-3.8682,-0.68081,-0.15058,-2.2593,7.98,38.22,12.78
5.8023,-13.225,-3.7047,-0.91599,-0.031154,-2.6435,7.08,38.1,13.02
6.6467,-12.994,-3.6911,-1.0757,-0.13408,-2.8304,6.24,37.98,13.26
7.246,-12.299,-3.9771,-1.1634,-0.4102,-3.0723,4.26,37.74,13.86
6.96,-12.108,-4.2495,-1.2144,-0.66371,-3.0873,3.12,37.56,14.22
6.5105,-11.087,-4.1814,-1.4609,-1.0708,-3.0061,0.42,37.08,15.0
4.8352,-8.2131,-3.7047,-1.5382,-1.2541,-2.8818,-1.26,36.66,15.48
3.6094,-6.5241,-3.2416,-1.5693,-1.2727,-2.6539,-2.88,36.24,15.96
2.833,-5.4618,-3.0101,-1.5971,-1.0928,-2.2926,-4.68,35.7,16.5
1.1577,-2.3836,-2.2882,-1.5666,-0.72204,-1.9917,-8.04,34.5,17.46
0.81722,-1.4438,-1.9341,-1.4468,-0.30452,-1.6463,-9.66,33.78,18.0
1.185,-1.1169,-1.6072,-1.3127,0.11942,-1.2602,-11.28,33.0,18.66
1.6617,-1.2122,-1.58,-1.1897,0.4218,-0.92699,-14.34,31.56,19.38
2.0975,-1.3212,-1.4982,-1.0702,0.60506,-0.61209,-15.6,30.9,19.98
2.3699,-1.2531,-1.3076,-0.93737,0.6408,-0.29199,-16.86,30.12,20.34
2.3155,-1.4029,-1.1169,-0.71166,0.43371,0.18754,-19.2,28.8,21.18
2.4108,-1.7025,-0.9398,-0.54825,0.24557,0.5006,-20.22,28.08,21.42
2.8194,-2.3427,-1.0215,-0.37813,0.092241,0.80298,-20.88,27.54,21.84
3.732,-3.1463,-1.1986,-0.15821,-0.049786,1.1997,-21.78,26.58,22.2
4.3994,-3.9635,-1.5119,0.0064141,-0.12981,1.4334,-21.96,26.34,22.5
4.8216,-4.5083,-1.7706,0.081551,-0.15699,1.5635,-22.02,26.1,22.56
5.884,-6.1292,-1.9886,0.34025,-0.27458,1.9435,-21.96,25.98,22.8
6.8647,-8.4174,-1.8932,0.62766,-0.32559,2.2214,-21.66,25.98,22.92
6.9872,-9.4661,-1.7843,0.9841,-0.15974,2.4694,-21.24,26.22,22.92
6.4424,-10.27,-2.3972,1.3665,0.14966,2.6371,-20.22,26.58,22.98
6.279,-9.8611,-3.0237,1.6887,0.76969,2.5262,-19.56,27.0,22.92
6.3335,-9.3844,-3.5958,1.9285,1.1182,2.2813,-18.78,27.48,22.92
6.7012,-9.7385,-4.7671,2.1279,1.1765,2.0953,-16.98,28.44,22.74
7.1234,-10.869,-5.5435,2.1628,0.90133,2.0097,-15.9,29.16,22.5
7.641,-12.081,-5.775,2.0571,0.29658,2.021,-14.94,29.76,22.26
7.5048,-12.19,-4.8625,1.9731,-0.72601,2.167,-12.54,31.2,21.48
6.7421,-11.278,-4.3177,1.9196,-1.1597,2.1762,-11.22,31.8,20.94
6.2517,-11.032,-4.3721,1.9041,-1.2666,2.1356,-9.9,32.58,20.4
4.8761,-10.801,-5.3528,1.649,-1.266,1.8879,-7.02,34.02,19.08
4.2223,-10.283,-5.3119,1.4233,-1.0623,1.6347,-5.52,34.62,18.48
3.7865,-9.6432,-4.9987,1.2208,-0.69425,1.3262,-4.14,35.04,17.64
3.337,-8.3629,-4.5492,1.0076,-0.044593,0.88973,-1.32,36.12,16.2
3.3234,-8.0632,-4.6718,0.75075,0.20892,0.64202,-1.32,36.54,15.42
3.4732,-7.6819,-4.7671,0.61453,0.28039,0.43127,1.26,36.9,14.64
3.623,-7.5865,-4.7126,0.46609,0.24221,0.25595,2.46,37.44,13.92
3.7184,-7.4367,-4.0725,0.33598,0.11606,0.12981,4.8,37.98,12.6
3.8546,-7.4503,-3.6775,0.26878,-0.064752,0.04948,5.88,38.28,11.94
4.0725,-7.8589,-3.2689,0.20739,-0.27397,-0.01741,7.74,38.52,10.8
3.8682,-8.0632,-3.1191,0.095906,-0.56902,-0.089492,8.4,38.82,10.26
3.7184,-7.9543,-3.1191,0.016799,-0.64019,-0.13011,9.06,38.94,9.84
3.2689,-7.8181,-2.9692,-0.057727,-0.57513,-0.17868,9.36,39.0,9.42
2.9284,-7.4776,-2.6696,-0.13592,-0.43188,-0.23793,10.14,39.12,8.88
2.8467,-7.6002,-2.3563,-0.17562,-0.26848,-0.29474,10.44,39.24,8.82
3.2008,-8.8668,-2.3836,-0.19151,-0.12584,-0.31062,10.56,39.24,8.7
3.9227,-10.202,-2.4244,-0.22205,-0.045815,-0.28436,10.68,39.42,8.46
4.3449,-12.272,-2.3427,-0.3146,-0.02138,-0.21594,10.68,39.48,8.4
4.5083,-13.021,-2.1793,-0.36133,0.0073304,-0.1744,10.68,39.42,8.22
4.0044,-12.926,-1.3076,-0.61697,0.35949,-0.14661,10.56,39.36,7.98
3.732,-12.217,-0.84446,-0.76877,0.6857,-0.27642,10.38,39.36,7.98
3.5822,-12.217,-0.69464,-0.79382,0.9499,-0.47373,10.44,39.3,8.16
3.8682,-13.729,-0.76274,-0.75747,1.0424,-0.62705,10.2,39.0,8.7
3.7184,-13.239,-0.8717,-0.78038,1.0537,-0.7422,9.84,38.88,8.94
3.6503,-12.013,-0.88532,-0.86224,1.1112,-0.84269,9.54,38.76,9.3
3.6639,-10.42,-0.6674,-0.83994,1.1277,-1.0189,8.52,38.4,10.26
3.5685,-9.8203,-0.32689,-0.75992,1.0617,-1.0931,7.98,38.28,10.68
3.2825,-9.1801,-0.42223,-0.67195,0.97616,-1.0993,7.32,38.16,11.16
3.0646,-8.8668,-0.5993,-0.51191,0.82864,-0.93126,6.18,37.8,12.06
3.1599,-7.9951,-0.89894,-0.48411,0.75045,-0.84635,5.64,37.68,12.42
3.1735,-7.4367,-1.0624,-0.43616,0.55986,-0.6915,4.74,37.5,13.02
3.0782,-5.6252,-1.4165,-0.39309,0.2587,-0.39126,2.94,37.14,14.1
2.8467,-5.1213,-1.3893,-0.37782,0.074526,-0.27611,2.22,36.9,14.7
2.6015,-5.0395,-1.0215,-0.39462,-0.044593,-0.18295,1.2,36.72,15.06
2.0294,-5.3528,-0.84446,-0.44899,-0.048258,-0.036041,-0.48,36.66,15.9
1.9341,-5.4481,-0.7355,-0.50855,0.054062,0.085216,-1.2,36.36,16.32
1.8796,-5.5162,-0.54481,-0.54306,0.24343,0.20739,-1.8,36.24,16.68
2.0567,-6.1428,-0.24517,-0.57116,0.51068,0.34941,-2.7,36.18,17.04
2.2474,-6.674,-0.23155,-0.5904,0.80512,0.49205,-3.12,36.06,17.04
2.6287,-7.3141,-0.44947,-0.58429,1.0421,0.64232,-3.42,36.0,17.22
3.2416,-7.8726,-0.70826,-0.52107,1.2679,0.84971,-3.9,35.7,17.82
3.5685,-8.2812,-0.85808,-0.42852,1.3622,0.95784,-4.02,35.46,18.18
3.732,-8.5127,-0.83084,-0.29108,1.4197,0.99693,-3.96,35.28,18.54
4.304,-9.6432,-0.89894,-0.070555,1.4041,1.0146,-3.84,35.04,18.9
4.5901,-10.27,-1.2258,0.16738,1.2511,1.0449,-3.84,34.98,18.84
4.808,-10.733,-1.7298,0.37049,0.94409,1.1081,-3.54,34.92,19.02
5.3119,-11.25,-2.7241,0.65607,0.18784,1.2007,-3.48,34.98,19.26
5.4345,-11.346,-2.8467,0.81245,-0.37782,1.2724,-3.18,35.04,19.2
5.4209,-11.182,-3.1463,0.86224,-0.6408,1.306,-2.88,35.16,19.2
4.7126,-9.7113,-3.3234,0.89858,-1.2117,1.3137,-2.4,35.22,19.14
4.2223,-9.0984,-3.1872,0.94104,-1.3192,1.2795,-1.86,35.34,19.26
3.732,-8.8941,-3.1735,0.94806,-1.2385,1.2688,-1.44,35.28,19.02
3.4732,-9.221,-3.3097,0.92699,-1.0577,1.2474,-0.3,35.64,18.42
3.5822,-9.507,-3.4732,0.89706,-0.82864,1.1851,0.24,35.94,18.0
3.8409,-9.9292,-3.7592,0.83108,-0.75045,1.1668,0.9,36.24,17.58
3.8001,-9.7113,-4.2223,0.71105,-0.66432,1.0956,2.46,36.72,16.8
3.8001,-9.0984,-4.2223,0.54611,-0.55222,0.96792,3.3,36.84,16.5
3.6775,-8.322,-3.9227,0.35736,-0.4444,0.76389,4.02,37.02,16.02
3.7047,-7.8998,-3.4459,0.24435,-0.43035,0.51679,5.82,37.38,15.0
3.6503,-8.6762,-3.3097,0.13256,-0.6014,0.15913,6.48,37.44,14.52
3.7865,-9.7113,-3.2416,0.093157,-0.68753,0.08491,7.14,37.56,13.86
4.0044,-10.678,-3.228,-0.15119,-0.82772,-0.065363,7.92,37.56,13.38
3.6366,-10.637,-2.4244,-0.37782,-0.68722,-0.17685,9.12,37.86,12.42
3.4868,-10.529,-1.8524,-0.54917,-0.38423,-0.34056,9.6,37.98,12.12
3.5413,-10.978,-1.4165,-0.64202,-0.070555,-0.53451,9.9,38.1,11.88
3.8818,-13.443,-0.70826,-0.71746,0.27581,-0.80634,10.44,37.92,11.28
3.8954,-14.111,-0.44947,-0.76236,0.3708,-0.88087,10.5,37.92,11.16
3.8954,-13.484,-0.35413,-0.89675,0.57238,-1.0079,10.44,37.98,10.98
3.6503,-11.482,-0.5993,-1.0971,0.90897,-1.3451,10.26,37.86,10.86
3.6094,-10.597,-0.69464,-1.0794,0.96914,-1.6295,9.9,37.86,10.98
3.4187,-10.011,-0.61292,-1.018,0.94226,-1.8897,9.54,37.8,11.1
3.1191,-10.828,-0.40861,-0.87415,0.80848,-2.0644,8.28,37.5,11.58
3.228,-11.141,-0.35413,-0.83627,0.78954,-2.0299,7.74,37.38,12.0
3.2416,-10.488,-0.35413,-0.89125,0.75839,-1.8885,6.72,37.26,12.3
3.0101,-8.1177,-0.24517,-0.87965,0.67531,-1.7544,4.68,36.96,13.08
3.0646,-7.3686,-0.25879,-0.82681,0.56841,-1.6206,3.66,36.66,13.62
2.9284,-7.0417,-0.27241,-0.78282,0.41417,-1.5272,2.52,36.36,14.1
2.4653,-7.1234,-0.31327,-0.72479,0.14844,-1.3381,1.26,35.94,15.18
2.3018,-7.1234,-0.44947,-0.73059,0.069944,-1.2504,-1.32,35.7,15.72
2.1656,-6.8102,-0.62654,-0.79779,-0.078191,-0.98807,-2.52,35.28,16.38
1.866,-6.5786,-0.8036,-0.86346,-0.051618,-0.78496,-5.28,34.5,17.4
1.866,-6.2245,-0.77636,-0.92577,0.068111,-0.60109,-6.48,34.02,17.94
1.7162,-5.2847,-0.7355,-0.9612,0.23091,-0.45387,-7.62,33.6,18.54
1.2531,-4.413,-0.74912,-0.84422,0.53054,-0.31001,-9.6,32.76,19.44
1.185,-4.3994,-0.55843,-0.66584,0.79168,-0.19212,-10.62,32.34,19.86
1.2258,-5.0395,-0.32689,-0.54275,0.9334,-0.11209,-11.46,31.86,20.46
2.0839,-7.1507,-0.47671,-0.14478,1.2624,0.31765,-12.96,30.96,21.18
2.6015,-8.4174,-0.83084,0.093768,1.3402,0.78069,-13.56,30.6,21.48
3.1191,-9.5887,-1.0896,0.32315,1.3812,1.3488,-14.16,30.36,21.72
4.2087,-11.577,-1.0488,0.58368,1.4578,1.8824,-14.82,29.64,21.9
4.5764,-12.435,-1.2531,1.022,1.6011,2.5794,-14.94,29.28,21.78
5.2711,-13.525,-1.9477,1.138,1.5852,2.7932,-15.06,29.28,21.6
5.6661,-12.858,-2.9011,1.3363,1.0177,3.1276,-14.94,29.28,21.42
6.0202,-11.673,-4.8488,1.4389,0.17226,3.1673,-14.16,29.7,20.64
6.4016,-11.673,-4.8897,1.4752,-1.0055,3.0424,-13.56,30.06,19.98
6.96,-11.713,-3.3506,1.5522,-2.6542,2.7849,-11.94,30.9,18.66
6.7966,-10.951,-2.7786,1.642,-3.3152,2.4896,-10.98,31.38,17.7
6.0611,-9.9565,-2.6423,1.6328,-3.5372,2.1133,-9.78,31.86,16.86
5.203,-9.221,-2.9284,1.4789,-3.3268,1.7611,-8.58,32.58,15.9
3.5685,-8.8532,-2.9965,1.266,-2.8543,1.4542,-5.94,33.84,13.74
2.6696,-8.826,-2.8467,1.0241,-2.2095,1.1539,-4.5,34.44,12.6
2.2882,-8.6081,-2.7513,0.61942,-1.1057,0.76877,-1.62,35.64,10.56
2.261,-8.1586,-2.7649,0.39004,-0.45937,0.57238,-0.3,36.3,9.48
2.6287,-8.5263,-2.6015,0.21197,0.065363,0.41508,1.02,36.72,8.46
2.9011,-8.9349,-2.6015,0.037263,0.45112,0.30391,2.28,37.14,7.62
3.8273,-9.5615,-2.547,-0.15455,0.69791,0.23854,4.32,37.56,6.12
4.1406,-9.5751,-2.3836,-0.30024,0.83627,0.17104,5.22,37.62,5.46
4.3177,-9.8339,-2.2746,-0.4218,0.86987,0.065057,5.88,37.68,4.86
4.9033,-12.422,-1.9613,-0.53603,0.76938,-0.17165,6.96,37.8,4.26
5.38,-14.383,-2.2474,-0.56016,0.67623,-0.25351,7.32,37.86,3.72
5.9793,-17.175,-2.0839,-0.69089,0.40806,-0.34941,7.56,37.86,3.48
5.0395,-14.764,-1.471,-1.1283,0.40256,-0.44471,7.86,37.8,3.54
4.2768,-12.994,-0.89894,-1.292,0.57666,-0.86834,7.92,37.74,3.6
3.6366,-12.122,-0.6674,-1.2865,0.77274,-1.6142,7.56,37.68,3.9
2.8194,-12.068,-0.68102,-1.2792,0.77336,-1.8604,7.38,37.44,4.2
2.3427,-12.04,-0.84446,-1.255,0.68967,-2.2516,7.2,37.38,4.56
2.3699,-11.7,-0.9398,-1.2764,0.64874,-2.5488,6.66,37.26,4.98
2.7104,-9.9973,-1.076,-1.3534,0.77458,-2.7348,5.46,37.14,6.06
3.1191,-8.6898,-1.185,-1.3635,0.77091,-2.6426,4.56,37.08,6.6
3.1872,-7.5865,-1.2531,-1.3531,0.50152,-2.645,3.84,36.96,7.26
3.2416,-7.2869,-0.70826,-1.2712,-0.12156,-2.4664,1.8,36.48,8.46
2.8875,-7.355,-0.54481,-1.2544,-0.36255,-2.3677,0.66,36.24,9.36
2.3427,-7.1507,-0.54481,-1.299,-0.75656,-2.1649,-0.36,35.76,10.08
1.6617,-6.3062,-0.83084,-1.4548,-0.94318,-1.8641,-3.06,34.86,11.52
1.4438,-5.5707,-0.81722,-1.547,-0.85918,-1.6933,-4.68,34.44,12.3
1.2122,-4.5628,-0.78998,-1.6118,-0.66737,-1.5864,-5.94,33.96,13.02
0.96704,-3.732,-0.53119,-1.6124,-0.40836,-1.5336,-8.76,33.0,14.34
0.74912,-3.6911,-0.35413,-1.4872,0.075747,-1.5171,-10.2,32.4,14.94
0.68102,-4.9033,-0.19068,-1.4352,0.27153,-1.4603,-11.46,31.74,15.48
1.1713,-7.355,0.1362,-1.1842,0.92454,-0.99693,-13.92,30.6,16.32
1.6344,-8.1858,0.38137,-0.93554,1.3143,-0.41447,-15.0,29.94,16.62
2.2474,-8.5127,0.51757,-0.57452,1.6301,0.26817,-16.2,29.22,17.04
3.3506,-7.4367,0.14982,0.12584,1.9444,1.1548,-18.06,28.14,17.4
3.6775,-7.3414,-0.10896,0.6802,2.0253,1.6704,-18.84,27.42,17.4
3.9635,-7.5729,-0.83084,0.96211,1.9991,1.9392,-19.56,27.12,17.52
4.6037,-9.1529,-2.7649,1.5727,1.5974,2.6362,-20.58,26.64,17.34
4.9442,-9.8203,-3.7047,1.8308,1.2028,2.9929,-20.58,26.52,17.16
5.4481,-10.311,-4.2223,1.9862,0.88484,3.2211,-20.52,26.58,16.98
5.8295,-10.801,-3.9635,2.0134,0.45296,3.3943,-19.62,27.06,16.38
6.3743,-11.087,-3.732,1.7217,-0.053451,3.4108,-18.96,27.48,15.96
8.0224,-11.863,-3.4732,1.4713,-0.78649,3.3533,-18.18,28.08,15.3
9.3027,-11.441,-3.4732,1.3586,-1.4532,3.2892,-16.14,29.1,14.16
8.0905,-10.12,-3.732,1.2514,-1.701,3.1686,-14.82,29.82,13.38
6.4288,-9.1529,-4.0044,1.0748,-1.2892,2.8934,-13.38,30.54,12.42
5.38,-9.3436,-4.413,0.81764,-0.36744,2.5959,-11.88,31.14,11.52
6.0611,-12.354,-4.5083,0.3824,1.0195,2.0171,-8.52,32.76,9.6
6.9736,-13.402,-4.2495,0.068417,1.4334,1.6854,-6.9,33.48,8.7
7.641,-14.764,-3.7047,-0.14691,1.5571,1.3864,-5.1,34.2,7.74
8.4719,-14.955,-2.8194,-0.34422,1.5128,0.9612,-1.68,35.16,5.88
8.2812,-14.124,-2.656,-0.49144,1.2813,0.38882,-0.36,35.52,5.22
7.4095,-13.293,-2.7377,-0.4948,0.67562,-0.2587,1.98,35.82,3.84
6.5786,-13.511,-2.9692,-0.39828,-0.71074,-1.1332,2.88,35.82,3.18
6.1836,-13.484,-3.1191,-0.43982,-1.4957,-1.5809,3.72,35.94,2.94
5.2983,-12.749,-3.1191,-0.59682,-2.0061,-1.9154,5.04,36.18,2.22
4.7263,-12.354,-3.0101,-0.78741,-2.1964,-2.1356,5.34,36.36,2.1
4.0589,-11.85,-2.7241,-1.0229,-2.0418,-2.2929,5.7,36.42,2.16
2.6696,-10.719,-2.0703,-1.2715,-1.6099,-2.4407,5.58,36.6,2.52
2.3972,-10.42,-1.866,-1.5638,-0.75259,-2.5647,5.4,36.48,2.82
2.1112,-9.9973,-1.4301,-1.6976,-0.20831,-2.627,5.16,36.42,3.0
1.7706,-9.1801,-1.1441,-1.7895,0.22266,-2.6353,3.72,36.42,4.08
1.8932,-8.7987,-0.92618,-1.762,0.5678,-2.5232,2.64,36.54,4.8
2.0158,-8.1858,-0.76274,-1.7168,0.80146,-2.4429,1.44,36.54,5.4
2.2746,-7.4367,-0.62654,-1.5962,0.8375,-2.4068,-1.68,36.6,6.3
2.438,-7.4231,-0.6674,-1.3882,0.81398,-2.1301,-3.3,36.72,6.72
2.547,-7.4503,-0.64016,-1.3124,0.75656,-2.0097,-5.04,36.78,6.96
2.5334,-7.355,-0.5993,-1.1038,0.62125,-1.5873,-8.52,36.78,7.32
2.4517,-7.3005,-0.54481,-0.95112,0.57757,-1.2639,-10.08,36.6,7.68
2.547,-7.246,-0.49033,-0.7761,0.53787,-0.86926,-11.82,36.6,7.8
2.547,-7.0826,-0.76274,-0.59284,0.49114,-0.44532,-14.94,36.72,7.68
2.547,-6.7693,-1.1032,-0.42028,0.44532,0.18906,-16.38,36.9,7.56
2.4789,-6.4833,-1.4165,-0.19242,0.4383,0.54825,-19.26,36.96,7.02
2.438,-6.6059,-1.6753,-0.062308,0.416,0.87323,-20.28,37.2,6.6
2.3427,-7.4912,-1.6072,0.10171,0.41905,1.23,-21.18,37.38,6.12
2.6015,-10.569,-1.0624,0.32498,0.46731,1.7254,-22.56,37.86,4.98
2.9965,-12.204,-0.8717,0.50091,0.54092,2.273,-22.98,38.1,4.68
3.337,-12.476,-1.7434,0.60109,0.81551,2.7999,-23.58,38.46,4.26
3.337,-12.476,-1.7434,0.66004,0.92149,3.0497,-23.58,38.46,4.26
3.6639,-12.245,-2.6423,0.77427,0.75564,3.156,-23.46,38.46,4.44
4.7671,-14.942,-4.6582,0.83383,0.3372,3.0855,-22.38,38.88,5.1
4.1951,-15.091,-4.3449,0.7083,0.13836,2.8845,-21.54,39.06,5.46
3.1191,-13.511,-3.8137,0.44838,0.059865,2.448,-19.32,39.42,6.54
1.7706,-10.91,-2.4517,0.27153,0.015577,1.9682,-16.38,39.72,7.56
0.91256,-9.221,-1.8387,0.15608,0.15241,1.5046,-13.08,40.02,8.46
0.54481,-8.6353,-1.5527,0.068722,0.49877,1.23,-11.22,40.14,8.94
0.21793,-7.8726,-1.2258,-0.078496,1.1115,1.0852,-7.32,40.44,9.6
0.8717,-7.6546,-0.98067,-0.23213,1.8054,1.0592,-3.24,40.68,10.44
1.7979,-7.5184,-0.57205,-0.33353,2.4132,1.0849,0.3,41.1,10.8
2.7377,-7.5048,-0.28603,-0.42241,2.9126,1.1408,2.82,41.64,10.56
3.6366,-7.6683,-0.23155,-0.48778,3.2776,1.1976,4.62,41.88,10.26
4.3585,-7.9815,-0.39499,-0.52993,3.3992,1.3051,5.76,42.0,10.02
4.7126,-8.2539,-0.55843,-0.52534,3.2779,1.4108,6.18,42.12,9.96
5.2847,-8.717,-0.7355,-0.49694,3.0439,1.5644,6.6,42.3,10.08
5.5162,-8.7034,-1.0079,-0.42944,2.7419,1.6722,6.78,42.48,10.26
5.4481,-8.4446,-1.2258,-0.30574,2.3292,1.6744,6.9,42.36,10.5
5.0123,-7.9951,-1.5936,-0.047647,1.5861,1.5473,7.02,42.3,10.86
4.8216,-7.8862,-1.6481,0.1463,1.0446,1.394,7.38,42.3,11.04
4.5083,-8.036,-2.152,0.31918,0.49144,1.2117,7.56,42.12,11.34
4.4402,-8.5808,-2.2882,0.45265,-0.01069,0.96242,7.92,41.88,11.64
4.4266,-9.8066,-2.2882,0.52137,-0.36927,0.69486,8.4,41.88,11.88
4.1814,-10.651,-2.1248,0.53787,-0.54367,0.46212,9.24,41.82,11.88
3.8682,-10.665,-2.0839,0.50152,-0.50274,0.24526,9.6,41.82,11.94
3.3097,-10.202,-2.1656,0.40775,-0.29688,0.076358,10.56,41.88,11.7
2.8603,-9.7385,-2.0567,0.28497,0.052229,-0.07025,10.86,41.94,11.64
2.9556,-11.169,-1.7298,0.23854,0.62614,-0.36438,11.7,42.06,11.64
3.5413,-12.572,-2.0567,0.22907,0.90164,-0.48839,12.3,42.42,11.34
4.018,-12.612,-2.2474,0.098349,1.0259,-0.53451,12.36,42.48,11.16
4.0861,-10.283,-2.9284,-0.012523,1.0214,-0.56597,12.6,42.84,11.04
3.8954,-8.9213,-3.0646,-0.08094,0.97036,-0.70921,12.54,43.44,10.8
3.5958,-8.322,-3.051,-0.16738,0.80512,-1.0617,12.36,43.62,10.8
3.5549,-8.3084,-2.9011,-0.14691,0.52962,-1.3259,11.94,44.16,10.98
3.9499,-9.793,-2.9011,-0.091019,0.11606,-1.5586,11.04,44.52,11.16
4.127,-10.488,-2.9556,-0.082161,-0.41081,-1.6945,10.08,45.06,11.64
4.2223,-11.591,-3.0782,-0.097433,-0.93768,-1.7685,9.48,45.24,11.76
3.9908,-12.313,-3.1872,-0.2248,-1.5412,-1.8384,8.16,45.72,12.12
3.4323,-12.49,-3.0918,-0.37874,-1.6936,-1.8839,6.78,46.14,12.72
3.0646,-12.449,-2.942,-0.55589,-1.6735,-1.9633,6.0,46.38,12.96
2.4244,-11.986,-2.6015,-0.73182,-1.5488,-2.0479,4.5,46.44,13.44
1.9477,-11.387,-2.4108,-0.87812,-1.3983,-2.157,2.7,46.44,14.22
1.2531,-10.733,-2.1248,-1.0033,-1.1047,-2.1903,1.86,46.38,14.7
1.185,-9.8748,-2.0431,-1.124,-0.52412,-2.1163,-0.36,45.84,16.08
1.3757,-9.2891,-1.9886,-1.1313,-0.26786,-2.1005,-2.88,45.24,17.58
1.6072,-9.0712,-2.0431,-1.1185,0.019548,-1.9355,-4.32,45.0,18.54
1.7979,-8.4719,-1.9341,-1.1561,0.32956,-1.7074,-7.86,44.4,19.98
1.9068,-8.0088,-1.8387,-1.1533,0.65027,-1.5339,-9.72,44.04,21.24
2.0839,-7.4367,-1.8387,-1.1139,0.97738,-1.3418,-13.62,43.14,21.54
2.5061,-6.6876,-1.8932,-1.0684,1.2691,-1.1274,-17.64,42.48,22.02
2.8058,-6.1836,-1.9068,-0.99754,1.4331,-0.94837,-21.6,41.64,22.32
3.1463,-6.1292,-2.1112,-0.83994,1.2999,-0.67928,-23.28,41.22,22.38
4.0044,-6.279,-2.5061,-0.77366,1.0143,-0.49144,-26.76,40.5,22.02
4.9033,-6.4152,-1.6753,-0.62247,0.34575,-0.26695,-29.7,39.9,21.18
5.0804,-6.5514,-1.2803,-0.35125,-0.40959,0.038485,-30.78,39.6,20.76
5.0259,-7.1234,-0.76274,-0.040928,-0.9166,0.36194,-32.58,38.64,19.92
4.8625,-7.7636,-0.72188,0.34453,-1.0773,0.76664,-33.42,37.98,19.32
4.5628,-8.1995,-0.70826,0.49816,-0.96853,0.99999,-33.54,37.8,19.44
3.8137,-8.4174,-1.3212,0.55528,-0.77366,1.2113,-33.54,37.26,19.5
3.3778,-8.2131,-1.4846,0.5678,-0.50457,1.3573,-33.3,37.14,19.8
3.2416,-8.1586,-1.471,0.59101,-0.23702,1.4865,-32.94,37.08,20.64
3.0918,-8.4446,-1.3484,0.61636,-0.036346,1.6325,-32.58,36.96,21.42
2.9011,-10.311,-0.43585,0.72418,0.12004,1.8512,-31.62,36.96,22.02
2.9011,-12.395,-0.28603,0.80634,0.67195,2.3476,-30.24,37.44,23.04
3.1463,-13.089,-0.58567,0.66493,1.317,2.6875,-29.52,38.04,24.06
4.0316,-13.648,-1.471,0.39706,2.0162,2.7764,-27.42,38.4,24.48
5.1485,-13.266,-3.051,0.17807,2.5501,2.6896,-25.2,39.24,25.08
5.2438,-12.34,-3.5413,-0.051007,2.8133,2.4306,-24.06,39.72,25.26
5.6524,-9.8611,-4.0316,-0.23091,2.58,1.9093,-21.48,40.86,25.86
5.9657,-9.0167,-3.8273,-0.23854,1.3949,0.83566,-19.2,41.76,25.86
5.4754,-9.3844,-3.1599,-0.27855,0.55986,0.07086,-18.24,42.36,25.86
4.1678,-10.719,-2.4517,-0.37477,0.16799,-0.49114,-16.32,43.38,25.68
2.833,-11.482,-1.8387,-0.63347,0.14019,-0.79993,-14.76,44.22,25.5
2.6696,-10.501,-1.866,-0.84605,0.34514,-0.87659,-13.92,44.52,25.26
2.7922,-9.6841,-2.0567,-1.0208,0.73762,-0.75869,-13.74,44.64,25.14
3.0918,-7.6683,-2.9011,-1.1319,1.4688,-0.45173,-13.56,44.64,24.9
3.514,-6.3743,-3.4596,-1.2538,1.8039,-0.37568,-14.04,44.4,24.96
3.9227,-5.8431,-3.623,-1.2935,2.0965,-0.19517,-14.4,44.1,24.9
4.6173,-5.2438,-3.6775,-1.3344,2.2055,-0.10446,-15.48,43.38,24.84
4.9714,-4.8761,-3.514,-1.3018,2.175,-0.063225,-16.62,42.36,25.26
5.0531,-4.7807,-3.4187,-1.2211,2.0592,-0.025351,-17.4,41.94,25.44
5.0395,-4.7399,-3.3097,-1.0681,1.7104,0.11026,-18.9,40.92,25.68
5.0395,-4.7671,-3.4732,-0.93859,1.3882,0.21319,-20.4,39.96,25.8
4.9033,-4.8625,-3.6094,-0.81428,1.0916,0.34117,-21.84,39.0,25.98
4.5628,-4.985,-3.6366,-0.64416,0.86071,0.47342,-22.86,38.58,26.16
3.4187,-5.094,-3.2144,-0.38546,0.66218,0.76053,-24.24,38.04,25.98
2.9011,-5.8976,-3.5277,-0.17898,0.46853,1.106,-25.44,37.44,25.98
4.2904,-7.5457,-3.7592,-0.022602,0.32529,1.211,-26.34,36.9,25.68
4.9987,-8.2131,-3.8001,0.17623,0.19548,1.306,-26.7,36.9,25.62
5.8159,-9.507,-3.4732,0.2193,0.096822,1.3558,-27.24,36.72,25.14
5.7069,-10.515,-2.9556,0.30024,-0.22235,1.3384,-27.42,37.02,24.9
4.6445,-11.237,-2.6832,0.31857,-0.53787,1.233,-27.3,37.38,24.72
4.2359,-11.536,-2.4517,0.27581,-0.62278,1.0733,-27.0,37.62,24.42
3.9771,-12.708,-2.3836,0.20647,-0.46792,0.85827,-26.22,38.22,24.06
3.8954,-13.321,-2.152,0.086437,-0.027794,0.44715,-25.74,38.7,24.06
3.7592,-12.19,-1.975,0.0082467,0.3149,0.14691,-25.08,39.06,23.76
3.8682,-11.959,-2.0567,-0.034514,0.57208,-0.13836,-24.78,39.24,23.88
3.8954,-11.155,-2.1929,-0.053145,0.70952,-0.38668,-24.06,39.48,23.7
3.4323,-8.6762,-2.7104,-0.10232,0.74128,-0.58765,-23.64,39.6,23.46
3.1599,-7.5048,-3.0237,-0.14661,0.51099,-0.85674,-23.58,39.3,23.16
3.228,-7.8181,-2.9556,-0.10324,0.18815,-0.97677,-23.7,39.06,23.04
3.4459,-9.398,-3.2416,-0.058032,-0.19456,-1.0418,-24.18,38.76,22.92
3.3778,-9.9565,-3.6366,-0.047647,-0.59162,-1.029,-24.96,37.98,22.74
3.5413,-10.447,-3.7592,-0.034514,-0.96883,-0.96822,-25.14,37.5,22.68
3.1872,-10.706,-3.8273,-0.060781,-1.274,-0.85888,-25.86,36.48,22.74
3.0101,-10.515,-3.8001,-0.12431,-1.449,-0.78741,-26.28,36.06,22.62
2.3836,-9.9156,-3.5004,-0.27367,-1.3522,-0.76267,-27.12,35.28,23.04
2.2201,-9.6432,-3.2416,-0.37843,-1.1594,-0.78038,-27.6,34.62,23.16
1.6344,-9.1393,-2.7377,-0.45784,-0.93401,-0.80726,-28.2,33.48,23.76
1.3484,-8.826,-2.3972,-0.51862,-0.70983,-0.76205,-28.92,32.4,24.54
1.1305,-8.6217,-2.261,-0.56291,-0.46548,-0.65363,-29.16,31.92,24.9
0.85808,-7.9679,-2.1248,-0.60842,-0.22999,-0.51007,-29.82,30.84,25.68
0.89894,-7.641,-2.1248,-0.64355,0.025351,-0.37049,-30.12,30.36,26.04
1.0079,-7.4231,-2.152,-0.66706,0.45296,-0.12004,-30.48,29.88,26.34
1.3484,-7.1915,-2.1656,-0.686,0.79596,0.050702,-31.32,28.98,26.76
1.6344,-7.0145,-1.9613,-0.66951,1.1081,0.21655,-31.86,28.5,26.94
2.0839,-7.4231,-1.3757,-0.58185,1.31,0.37721,-32.88,27.6,27.0
2.3427,-7.7227,-1.3212,-0.47739,1.4212,0.56933,-33.48,27.12,27.0
2.5198,-7.8589,-1.3076,-0.3711,1.4514,0.79932,-33.9,26.94,26.82
2.6968,-8.0088,-1.2803,-0.22449,1.4322,1.1096,-34.2,26.76,26.52
3.0237,-8.145,-1.1169,-0.11576,1.3888,1.2898,-35.1,26.52,26.1
3.1735,-8.2403,-1.185,0.039401,1.296,1.4242,-35.28,26.46,25.86
3.3778,-9.1801,-1.0896,0.18631,1.127,1.587,-35.58,26.46,25.08
3.3915,-9.9292,-1.1305,0.43982,0.94898,1.8647,-35.46,26.4,24.66
3.4459,-10.174,-1.1577,0.55467,0.92332,1.9945,-35.34,26.7,24.24
3.6639,-10.351,-1.185,0.61545,0.95906,2.1145,-34.8,27.24,23.4
3.8682,-10.42,-1.1577,0.65821,0.9218,2.1979,-34.44,27.84,22.98
4.1814,-10.733,-1.0624,0.7141,0.70311,2.2232,-33.96,28.56,22.56
4.7807,-12.599,-0.89894,0.82894,0.39034,2.2593,-32.7,29.88,21.72
4.7126,-12.98,-1.0215,0.8491,0.082467,2.2342,-31.74,30.66,21.3
4.6582,-12.885,-0.74912,0.79412,0.13989,2.0782,-30.84,31.5,20.88
4.4811,-12.885,-0.7355,0.79015,0.39126,1.8357,-30.0,32.34,20.46
4.0316,-11.632,-1.7979,0.63011,0.77702,1.4777,-27.78,34.08,19.02
3.4732,-9.7658,-2.7104,0.36011,1.1866,1.0427,-26.76,34.98,18.3
2.547,-6.3335,-3.5549,0.18265,1.4584,0.51557,-24.48,36.54,17.22
2.1112,-6.0611,-3.4732,0.12737,1.4798,-0.30207,-23.7,37.38,16.56
2.0839,-7.069,-3.3097,0.044899,1.4423,-0.78802,-22.86,37.86,15.78
2.4108,-9.7658,-2.6423,-0.13653,1.3812,-1.0806,-21.42,38.88,14.64
2.5742,-10.106,-2.3018,-0.25168,1.3036,-1.2431,-20.82,39.24,14.1
2.6696,-10.311,-2.1112,-0.34422,1.3021,-1.3558,-20.22,39.48,13.5
2.9829,-10.379,-2.2882,-0.48167,1.4383,-1.4954,-19.56,39.84,12.3
2.8603,-10.038,-2.438,-0.61361,1.4844,-1.504,-19.56,39.9,11.76
2.6968,-9.6296,-2.7513,-0.66371,1.5043,-1.4343,-19.8,39.72,11.34
2.6968,-8.9622,-3.0101,-0.67226,1.54,-1.4038,-20.1,39.3,10.86
2.4517,-7.8045,-3.0918,-0.66584,1.5626,-1.3766,-21.18,38.46,10.38
2.4517,-7.75,-3.6094,-0.71532,1.3729,-1.204,-21.72,37.92,10.14
2.261,-7.6683,-4.3449,-0.4945,0.32284,-0.59468,-23.16,36.84,9.3
0.8036,-8.0496,-4.3449,-0.4218,-0.43494,-0.33262,-23.82,36.3,9.06
0.054481,-7.9815,-4.0316,-0.35552,-0.76602,-0.13744,-24.42,35.76,8.94
-0.28603,-7.7364,-3.4596,-0.16127,-1.1826,0.30299,-24.9,35.22,8.82
-0.70826,-7.5593,-2.4789,0.086132,-0.67134,0.5226,-25.98,34.08,8.76
-0.38137,-7.641,-2.2746,0.12034,0.19395,0.55253,-26.46,33.6,8.7
0.54481,-8.0224,-2.152,0.07025,1.0791,0.66004,-26.76,33.18,8.82
2.0158,-8.1858,-2.1112,0.040317,1.7868,0.66035,-27.54,32.46,8.58
2.5742,-8.4719,-2.0703,0.025045,1.945,0.66065,-27.66,32.16,8.4
2.8058,-8.5808,-1.9341,-0.018021,2.0556,0.71807,-27.66,31.98,8.34
3.8273,-8.8124,-1.1577,-0.040012,1.7941,0.77274,-27.78,31.86,8.04
4.0861,-9.0575,-0.92618,0.014661,1.4722,0.748,-27.66,31.92,7.8
4.2495,-10.161,-0.6674,0.11851,1.1069,0.73457,-27.66,32.04,7.5
4.5083,-11.754,-0.85808,0.36346,0.62644,0.75747,-27.48,32.46,6.96
4.7671,-12.626,-1.2395,0.40989,0.49297,0.7761,-27.3,32.64,6.48
4.7263,-12.667,-1.7434,0.36072,0.31276,0.77794,-27.18,32.94,6.0
4.6445,-10.351,-2.1384,0.3427,0.26206,0.6802,-26.94,33.66,4.86
4.699,-9.5479,-2.1793,0.40745,0.049786,0.48472,-26.82,33.96,4.32
4.5356,-9.3027,-2.2201,0.45509,-0.343,0.24038,-26.7,34.38,3.72
4.1678,-9.6977,-2.1112,0.46456,-0.76602,0.028405,-26.1,34.92,2.52
4.0589,-10.283,-1.9477,0.37385,-1.2404,-0.20861,-26.04,35.22,2.16
3.9908,-10.392,-1.7706,0.31185,-1.3375,-0.2755,-25.86,35.52,1.74
3.3506,-10.964,-1.3893,0.10232,-1.4148,-0.45998,-25.44,35.88,1.02
2.9556,-11.305,-1.4165,-0.078191,-1.2776,-0.56719,-25.44,36.06,0.9
2.5334,-11.427,-1.3757,-0.3146,-0.98899,-0.67348,-25.2,36.0,0.96
2.0294,-10.569,-1.2531,-0.65943,-0.27672,-0.89828,-24.9,35.82,1.14
1.8932,-10.025,-1.076,-0.85796,0.21044,-1.0889,-24.84,35.7,1.44
1.9068,-9.7658,-0.9398,-0.98624,0.6014,-1.2416,-24.9,35.52,1.62
2.3699,-9.2755,-0.99429,-1.0959,0.69425,-1.2874,-25.2,34.86,2.4
2.5742,-9.1256,-0.84446,-1.1005,0.36927,-1.2086,-25.5,34.5,2.7
2.547,-8.9213,-0.7355,-1.0647,0.0073304,-1.1414,-25.92,34.02,3.24
1.7298,-8.4446,-0.38137,-1.0742,-0.22938,-1.0098,-27.0,32.88,4.62
1.4438,-8.0905,-0.40861,-1.1445,0.53359,-0.87751,-27.54,32.34,5.22
0.96704,-7.7636,-0.64016,-1.2419,1.3867,-0.84177,-28.2,31.98,5.82
1.8524,-7.7636,-0.51757,-1.3091,2.2477,-0.80573,-29.58,30.96,7.02
2.4653,-7.5729,-0.47671,-1.3861,2.7636,-0.7419,-30.3,30.42,7.38
3.2144,-7.1779,-0.43585,-1.3412,2.6325,-0.57635,-31.2,30.0,7.68
3.5549,-6.3743,-0.54481,-1.2208,2.1945,-0.4444,-33.06,28.86,8.04
3.4459,-6.1019,-0.50395,-1.0357,1.4902,-0.32956,-34.14,28.44,7.98
3.2553,-5.993,-0.44947,-0.91019,1.0635,-0.26512,-34.92,27.9,7.98
2.9965,-5.8295,-0.53119,-0.77641,0.62492,-0.19212,-35.76,27.42,7.8
2.656,-5.6661,-0.25879,-0.63316,0.24709,-0.098044,-37.08,26.46,7.62
2.4925,-5.8023,-0.14982,-0.50641,0.047037,0.036652,-37.68,26.1,7.38
2.3836,-6.1292,-0.20431,-0.37996,0.037874,0.19334,-38.52,25.44,6.66
2.3972,-6.2381,-0.20431,-0.23946,0.19303,0.51252,-38.64,25.02,6.42
2.4789,-6.0611,-0.31327,-0.16707,0.30238,0.71746,-38.82,24.6,6.06
2.6696,-6.0883,-0.44947,-0.1182,0.34208,0.81337,-38.94,24.0,5.4
2.9284,-6.8374,-0.16344,0.068111,0.42028,1.1084,-38.7,23.82,5.1
3.2416,-8.145,0.095342,0.2529,0.45448,1.3512,-38.46,23.76,4.74
4.2768,-11.523,0.50395,0.46884,0.48869,1.7098,-37.68,24.12,4.14
4.6582,-13.688,0.35413,0.77885,0.54245,2.2663,-37.14,24.36,3.96
5.2166,-13.797,-1.471,0.73823,0.65485,2.4334,-35.7,25.2,3.3
5.2166,-11.387,-2.3291,0.6576,0.64385,2.357,-35.04,25.62,2.88
5.4345,-10.665,-2.6423,0.83475,0.26878,2.0769,-34.14,26.1,2.52
5.598,-12.694,-2.8603,1.0495,-0.40287,1.7388,-32.52,27.18,1.56
5.489,-14.22,-3.051,1.1637,-1.2636,1.3512,-31.62,27.9,1.14
5.0259,-13.934,-3.1599,1.1145,-2.2666,0.88637,-30.78,28.74,0.6
3.2144,-10.692,-3.0373,1.003,-2.4416,0.65088,-29.1,30.0,-0.36
2.5061,-10.065,-2.7922,0.88698,-2.1936,0.45479,-28.32,30.9,-0.84
2.0703,-9.9837,-2.6423,0.66187,-1.5568,0.26817,-27.6,31.5,-1.08
1.185,-9.8066,-2.4108,0.43097,-0.78527,0.15027,-26.16,32.64,-1.8
1.1305,-9.4389,-2.438,0.25198,-0.0079412,0.13256,-25.44,32.94,-1.98
1.58,-8.2267,-2.7241,0.080329,0.68111,0.18143,-24.78,33.36,-2.28
1.9341,-7.6002,-2.8739,-0.12645,1.3738,0.208,-23.82,33.84,-2.82
2.2474,-7.1643,-3.0918,-0.17562,1.522,0.20372,-23.46,34.2,-2.82
2.7241,-7.1098,-3.3506,-0.281,1.616,0.14813,-23.16,34.38,-3.06
3.7184,-7.6002,-3.2008,-0.30513,1.3833,0.13683,-22.68,34.68,-3.18
4.3177,-7.8317,-3.1191,-0.32376,0.95906,0.11179,-22.5,34.8,-3.42
4.413,-7.9951,-2.8058,-0.33598,0.40134,0.072388,-22.08,34.86,-3.6
3.7592,-8.2948,-2.8058,-0.32529,-0.33934,-0.037263,-21.78,34.86,-3.9
3.228,-8.4446,-2.7104,-0.39951,-0.49908,-0.14508,-21.48,34.74,-3.9
2.9011,-8.5127,-2.5334,-0.51282,-0.43585,-0.25962,-21.42,34.74,-4.2
2.6696,-9.6704,-2.5742,-0.63988,-0.24404,-0.41142,-21.24,34.74,-4.44
2.6423,-10.801,-2.5061,-0.79993,0.027489,-0.58185,-21.18,34.8,-4.5
2.7649,-13.566,-1.9341,-0.95631,0.36621,-0.78069,-21.3,34.38,-4.38
2.7513,-14.165,-1.5663,-1.1484,0.81764,-0.93401,-21.42,34.38,-4.32
2.6696,-13.253,-1.2395,-1.5156,1.525,-1.2303,-21.54,34.26,-4.32
2.4517,-11.741,-0.99429,-1.5941,1.7407,-1.3677,-21.78,34.14,-4.14
2.4517,-10.978,-0.76274,-1.5339,2.1273,-1.7636,-21.78,33.96,-4.08
3.2553,-13.757,-0.23155,-1.2679,2.1502,-1.7993,-22.5,33.24,-3.66
4.1542,-15.5,-0.081722,-1.1008,1.9765,-1.4322,-23.04,32.88,-3.42
4.6718,-12.994,-0.58567,-1.098,1.4994,-1.3531,-24.18,32.4,-3.0
4.3994,-10.515,-0.83084,-1.0614,1.1438,-1.1493,-24.9,32.04,-3.0
4.3177,-9.3163,-0.83084,-0.88331,0.76633,-0.98563,-25.56,31.68,-2.82
3.5958,-7.8045,-0.92618,-0.60018,0.20495,-0.75289,-26.76,30.66,-2.64
2.7377,-7.6002,-0.85808,-0.40134,-0.13958,-0.61881,-27.48,30.24,-2.52
2.152,-7.4367,-1.0624,-0.22052,-0.36621,-0.45265,-28.02,29.82,-2.4
2.0839,-6.0747,-1.185,-0.043371,-0.44776,-0.096211,-29.16,28.92,-2.16
2.4108,-5.4345,-1.2531,0.0097738,-0.43494,0.026878,-29.76,28.56,-1.98
2.6151,-5.0123,-1.2939,0.086743,-0.37568,0.27703,-30.12,28.14,-1.92
2.5061,-4.7126,-1.0351,0.19151,-0.37324,0.58551,-31.02,27.66,-1.68
2.4108,-4.7671,-0.96704,0.26389,-0.39431,0.7535,-31.26,27.48,-1.68
2.2882,-4.9714,-0.83084,0.30268,-0.40073,0.90469,-31.32,27.36,-1.5
2.261,-5.4345,-0.65378,0.33262,-0.35125,1.073,-31.44,27.18,-1.32
2.3427,-6.0611,-0.53119,0.32132,-0.27031,1.193,-31.2,27.12,-1.2
2.3699,-6.4697,-0.43585,0.30513,-0.20953,1.2428,-31.08,27.0,-1.14
2.4653,-7.2188,-0.24517,0.25168,0.016799,1.387,-30.72,27.48,-1.02
2.5334,-7.4095,0.10896,0.25504,0.24496,1.4581,-30.42,27.66,-1.02
2.6423,-7.6002,0.10896,0.26603,0.5174,1.5052,-30.12,28.02,-0.96
3.0646,-8.5536,-0.40861,0.37415,0.85155,1.5061,-29.16,28.92,-1.26
3.3506,-9.8748,-0.61292,0.47159,0.96608,1.5336,-28.56,29.4,-1.68
3.8137,-11.55,-0.70826,0.57208,0.99388,1.5941,-28.02,29.82,-1.98
4.4947,-13.035,-0.81722,0.63286,0.93829,1.6689,-27.3,30.42,-2.28
5.203,-13.607,-1.0896,0.67134,0.71227,1.6948,-26.64,30.9,-2.64
4.4811,-11.455,-1.2122,0.78618,0.28222,1.5641,-25.26,31.8,-3.3
4.018,-10.311,-1.7706,0.93523,-0.33567,0.91844,-24.54,32.22,-3.54
5.1757,-12.517,-2.5742,1.0687,-1.2031,0.48075,-22.86,33.24,-4.38
6.2109,-14.86,-2.8467,1.0974,-1.7678,0.11515,-22.08,33.66,-4.74
6.456,-15.732,-2.9148,1.0657,-2.0406,-0.16646,-21.36,34.14,-4.98
4.0316,-11.986,-3.9499,0.77122,-2.0644,-0.34911,-20.1,34.56,-5.76
4.0316,-11.986,-3.9499,0.77122,-2.0644,-0.34911,-20.1,34.56,-5.76
4.0316,-11.986,-3.9499,0.57299,-2.0525,-0.68906,-20.1,34.56,-5.76
1.5527,-7.4503,-3.732,0.039401,-1.492,-1.4432,-18.48,35.16,-6.3
2.0431,-7.5321,-3.4051,-0.17349,-1.1945,-1.5919,-18.42,35.16,-6.24
2.1248,-7.5593,-3.2825,-0.38607,-0.85063,-1.5574,-18.36,34.98,-6.24
1.8387,-7.5321,-3.0373,-0.49083,-0.55589,-1.4032,-18.72,34.68,-6.0
1.866,-7.6138,-2.8603,-0.53298,-0.2419,-1.1609,-19.14,34.38,-5.7
2.2882,-7.6683,-2.9284,-0.53023,0.01069,-0.90255,-20.04,33.96,-5.28
2.4244,-7.6138,-2.9011,-0.46517,0.21014,-0.64049,-20.58,33.72,-4.98
2.7377,-7.246,-3.1191,-0.42547,0.36866,-0.38179,-21.18,33.42,-4.62
2.942,-6.8919,-3.0918,-0.31032,0.24832,-0.053451,-22.14,32.64,-4.14
2.6968,-6.9872,-2.8739,-0.22419,-0.1854,0.092546,-22.56,32.4,-3.84
2.6696,-8.1722,-2.9011,-0.19487,-0.86804,0.21869,-23.52,31.74,-3.18
2.833,-8.9894,-3.0918,-0.20769,-1.4664,0.36041,-23.94,31.44,-2.94
3.3506,-10.637,-3.4459,-0.31612,-2.0812,0.66676,-24.42,31.2,-2.64
3.909,-14.492,-3.5413,-0.39981,-2.1591,0.76664,-25.08,31.08,-1.8
3.2144,-15.568,-3.228,-0.58704,-2.0528,0.92485,-25.26,31.14,-1.26
2.2746,-15.732,-2.9284,-1.0806,-1.1231,0.81978,-25.38,30.96,-0.84
0.72188,-14.751,-2.4789,-1.3693,-0.15241,0.43463,-25.38,30.96,0.3
0.44947,-14.71,-2.7513,-1.6692,0.80512,-0.13592,-25.56,30.84,1.44
2.3427,-15.99,-3.1327,-2.0314,1.9187,-0.77885,-25.62,30.84,1.98
3.2553,-15.228,-3.4596,-2.2278,2.1105,-1.0024,-25.8,30.72,2.58
3.7865,-13.579,-3.5685,-2.2874,1.9933,-1.0843,-26.16,30.66,3.12
3.7184,-11.768,-3.4459,-2.3011,1.2107,-1.2199,-27.06,30.36,4.32
3.4187,-11.196,-3.1735,-2.2593,0.67898,-1.2477,-27.48,30.24,4.86
3.1327,-9.0167,-2.9011,-2.2162,0.24862,-1.2346,-28.02,29.94,5.4
3.0646,-9.0167,-2.9011,-2.0702,-0.32315,-1.0226,-28.5,29.7,5.94
3.0646,-7.0281,-2.0975,-2.0122,-0.48594,-0.91324,-29.7,28.8,6.84
2.5742,-5.8567,-1.9341,-1.803,-0.66493,-0.63713,-30.3,28.26,7.32
2.2201,-4.9578,-2.0839,-1.6674,-0.33659,-0.50763,-30.96,27.84,7.86
2.0839,-4.4266,-2.1384,-1.5198,0.22235,-0.48594,-31.62,27.18,8.28
2.4517,-3.6639,-1.6481,-1.3534,0.76175,-0.4948,-33.12,26.1,9.12
2.6151,-3.6775,-1.1441,-1.0727,1.3861,-0.42761,-33.84,25.26,9.42
3.2825,-3.4596,-0.21793,-0.95387,1.4746,-0.38301,-35.04,24.12,9.96
3.5413,-3.337,0.24517,-0.48442,1.2611,-0.2364,-35.58,23.58,10.26
3.8273,-3.4323,0.53119,-0.063835,0.84635,-0.13653,-36.18,22.86,10.44
4.1406,-3.7047,0.24517,0.37232,0.19487,-0.058948,-36.66,22.38,10.56
4.5764,-4.4402,-1.3484,0.78099,-0.50977,0.054672,-37.26,21.54,10.74
5.0395,-5.203,-2.9965,1.3696,-1.3961,0.28986,-37.5,21.12,10.86
5.6933,-7.1234,-5.5707,1.5889,-1.628,0.40836,-37.62,20.58,11.04
6.0611,-8.2812,-6.7012,2.1432,-2.6667,0.7645,-37.74,20.34,11.22
6.1836,-8.8805,-7.5048,2.1609,-3.7605,0.81153,-37.62,20.28,11.16
6.7012,-9.6841,-9.7249,1.883,-5.3154,0.5397,-37.44,20.34,11.52
7.2869,-10.447,-9.6841,1.6426,-6.6261,-0.0058032,-36.96,20.46,11.76
2.5198,-11.319,-8.1313,1.3598,-7.123,-0.4163,-36.06,21.12,12.96
-2.5198,-11.141,-7.2869,0.89675,-6.0714,-0.22663,-35.28,21.42,13.74
-5.4345,-10.161,-7.4503,0.21869,-4.244,0.095906,-34.2,21.84,14.58
-6.7012,-9.2482,-7.8726,-0.42394,-1.9881,0.18876,-32.94,22.2,15.66
-5.3256,-7.9679,-8.7851,-0.94195,0.34361,0.089492,-30.42,22.74,18.06
-3.051,-7.8589,-8.6217,-1.4221,2.0672,0.40653,-29.16,23.04,19.32
-1.2122,-7.4503,-7.1234,-1.8812,2.7657,0.77641,-27.0,23.46,21.18
0.32689,-6.0611,-6.3198,-2.1173,2.8369,0.88484,-26.22,23.58,22.32
1.0079,-5.2575,-5.7614,-2.2416,2.8888,0.84696,-25.38,23.7,23.1
1.4574,-4.6582,-5.1349,-2.2477,3.0629,0.76053,-24.66,23.7,24.06
2.3699,-4.3313,-4.4266,-2.2122,3.215,0.68936,-23.82,23.28,25.38
3.1735,-4.127,-4.0452,-2.1365,3.1747,0.57513,-23.7,22.92,26.04
3.8273,-3.4732,-3.4187,-1.876,2.5858,0.40897,-23.76,21.78,26.46
4.5628,-2.9965,-3.0918,-1.5498,2.0156,0.34086,-24.24,21.3,26.46
4.5901,-3.0918,-2.9556,-1.1283,1.4884,0.26237,-24.9,20.58,26.28
4.5764,-3.2825,-2.9011,-0.92118,1.2443,0.21564,-25.74,20.1,25.98
4.0316,-4.3858,-2.6287,-0.2645,0.54734,0.071166,-27.48,19.08,25.26
3.9635,-5.3664,-2.547,0.16157,0.15485,-0.067195,-28.44,18.54,24.66
4.1814,-6.7421,-2.3155,0.53329,-0.081551,-0.23427,-30.06,17.7,24.06
4.3177,-7.2869,-2.2746,0.93096,-0.23763,-0.3259,-30.6,17.28,23.76
4.4539,-8.0905,-2.2474,1.3179,-0.37354,-0.34758,-31.14,16.92,23.46
3.8001,-8.7715,-3.1599,1.7712,-0.55039,-0.28986,-32.04,16.32,22.68
3.2416,-9.0167,-3.3506,1.9429,-0.54214,-0.23396,-32.28,16.26,22.38
3.0373,-9.112,-3.2825,2.0812,-0.4386,-0.15577,-32.46,16.2,22.14
2.9011,-9.6023,-2.9284,2.2559,-0.2587,-0.034514,-32.76,16.5,21.42
3.2689,-10.569,-2.6696,2.6802,0.10782,0.31643,-32.88,16.68,21.12
3.3506,-11.782,-2.5198,2.843,0.23335,0.47586,-32.58,17.22,20.64
2.9829,-11.891,-3.1327,3.1499,0.58796,0.85491,-32.46,17.46,20.46
2.3836,-11.673,-3.8137,3.0922,0.90805,0.96731,-32.22,17.88,20.28
1.975,-11.523,-4.1814,2.9358,1.2226,1.0479,-31.92,18.3,19.98
1.757,-11.06,-3.8273,2.7965,1.4526,1.0751,-31.2,19.38,18.9
2.0567,-11.237,-3.6639,2.5226,1.4676,1.186,-30.78,20.1,18.24
3.0237,-11.618,-4.127,2.4331,1.3787,1.2303,-30.06,21.66,16.74
3.1327,-10.992,-4.5083,2.0873,1.022,1.3259,-29.58,22.56,15.96
3.0101,-10.324,-4.5764,1.7846,0.82406,1.303,-29.16,23.34,15.12
2.4108,-8.7851,-4.6445,1.4484,0.71166,1.1768,-27.84,24.9,12.96
2.0294,-8.54,-4.3177,1.1643,0.73884,0.98533,-27.36,25.86,12.0
1.4438,-8.322,-3.4459,0.77122,0.95814,0.76511,-26.16,27.42,9.9
1.2258,-7.8181,-3.2553,0.53206,1.1628,0.68111,-25.68,28.26,8.94
1.4029,-8.0224,-3.1191,0.36408,1.4071,0.61239,-25.14,28.92,7.62
1.6753,-8.5263,-2.9692,0.19364,1.7199,0.59071,-24.6,29.7,6.48
2.1929,-9.3299,-2.8194,-0.0012217,2.1273,0.58887,-23.58,30.9,4.44
2.5061,-9.9565,-2.547,-0.13378,2.5528,0.56261,-23.1,31.56,3.54
2.8603,-10.665,-2.0567,-0.22938,3.2281,0.46578,-22.68,32.22,1.68
3.7456,-10.978,-1.9886,-0.31612,3.5577,0.3372,-22.38,32.4,1.02
3.9227,-9.4525,-2.4517,-0.3989,3.5861,0.22602,-22.14,32.58,0.12
4.1406,-8.322,-2.6832,-0.28558,3.1093,0.10782,-21.96,32.88,-0.9
5.203,-10.338,-3.337,0.0012217,2.138,-0.018937,-21.96,33.24,-2.46
5.8976,-13.389,-3.5685,0.11942,0.92516,-0.13073,-21.78,33.36,-3.18
6.4833,-14.928,-3.7047,0.12401,-0.058338,-0.011301,-21.72,33.42,-3.96
4.7944,-11.182,-3.6911,-0.12065,-0.6805,0.3543,-21.66,33.48,-5.4
3.909,-9.4798,-3.2416,-0.14264,-0.697,0.3094,-21.54,33.42,-6.0
3.4051,-8.7715,-3.0646,-0.16157,-0.39645,-0.14325,-21.42,33.42,-6.42
2.8739,-8.1995,-3.3778,-0.18906,-0.3766,-0.54917,-21.66,33.6,-7.44
2.8058,-7.9134,-3.8682,-0.11393,-0.63286,-0.78038,-21.72,33.42,-7.74
2.9148,-8.1313,-3.732,-0.079107,-0.95875,-0.86437,-21.72,33.36,-8.28
2.9829,-7.8726,-3.5685,-0.16646,-1.2046,-0.85765,-21.96,33.24,-8.52
2.942,-7.5321,-3.2961,-0.26176,-1.1958,-0.83475,-21.96,33.3,-8.52
2.9284,-7.4367,-3.2144,-0.29719,-1.1548,-0.82772,-22.14,33.24,-8.4
3.228,-8.6762,-2.6423,-0.40103,-1.051,-0.71227,-22.56,32.76,-7.98
3.3778,-9.4661,-2.5061,-0.45998,-1.0977,-0.6072,-22.8,32.34,-7.74
3.7592,-11.264,-2.4789,-0.53817,-1.2633,-0.48747,-23.4,31.86,-7.14
3.9908,-12.83,-2.4925,-0.72113,-1.4914,-0.23885,-23.7,31.56,-6.66
3.8001,-13.906,-1.9477,-0.93126,-1.3485,-0.11393,-24.0,31.5,-6.18
3.5958,-14.982,-1.1032,-1.0318,-1.1417,-0.1011,-24.36,31.08,-5.94
3.3778,-16.658,0.35413,-1.3195,-0.016188,-0.25443,-24.72,30.3,-4.86
3.1872,-15.473,0.92618,-1.6826,0.91508,-0.47312,-24.96,30.12,-4.32
3.337,-13.457,0.99429,-2.0162,1.449,-0.88423,-25.2,29.88,-3.72
3.5685,-9.6023,0.31327,-1.9517,1.3964,-1.3537,-25.56,29.4,-2.82
3.4868,-8.8805,-0.28603,-1.6252,0.93096,-1.7602,-25.98,28.92,-2.28
3.3778,-8.8941,-0.54481,-1.2394,0.0027489,-2.1435,-26.22,28.5,-1.74
3.1872,-9.4798,-0.85808,-1.1478,-0.4273,-2.2101,-26.46,28.26,-1.2
3.4187,-9.5751,-0.5993,-1.1148,-0.67776,-2.0702,-27.42,27.54,-0.24
3.5413,-8.6625,-0.47671,-1.1429,-0.81001,-1.9951,-27.78,27.12,0.24
2.942,-7.7364,0.040861,-1.0479,-0.76328,-1.6854,-28.62,25.98,1.26
2.4108,-7.1915,0.35413,-1.025,-0.51679,-1.452,-29.1,25.32,1.8
1.9068,-6.4969,0.31327,-0.95234,-0.19487,-1.2795,-29.52,24.72,2.52
1.3757,-5.4481,0.23155,-0.8207,0.18234,-1.1197,-30.66,23.46,3.42
1.1713,-5.1621,0.23155,-0.64752,0.613,-0.93523,-31.26,22.56,3.84
1.2939,-5.1621,-0.29965,-0.4328,1.0272,-0.70799,-31.8,21.78,4.26
2.0294,-6.5105,-1.1441,-0.11179,1.5189,-0.30177,-33.12,20.28,4.86
2.5742,-7.1234,-1.4301,-0.016799,1.6225,-0.1292,-33.54,19.8,4.98
2.9284,-7.3141,-1.5391,0.37843,1.638,0.41661,-34.08,19.14,5.1
3.8954,-7.8862,-1.9477,0.76633,1.3983,0.79107,-34.68,18.12,5.1
4.3177,-8.7034,-2.4108,1.1997,0.98074,1.223,-34.86,17.64,5.04
4.8625,-10.161,-3.0237,1.5965,0.38271,1.6765,-34.92,17.28,5.04
5.8704,-11.387,-5.4481,1.909,-0.76358,2.1506,-34.86,17.28,4.44
5.3937,-9.8611,-6.2109,1.9135,-1.5647,2.1936,-34.68,17.4,4.08
4.6173,-8.2812,-5.8567,1.9435,-2.1402,2.0809,-34.38,17.46,3.48
3.3642,-7.4503,-4.9033,1.927,-2.4285,1.9083,-33.54,18.12,2.88
2.833,-7.8453,-4.1814,1.8708,-2.4581,1.6686,-32.94,18.6,2.52
2.6423,-8.6353,-3.9635,1.8509,-2.3295,1.4978,-32.28,19.14,2.16
2.2474,-9.9973,-4.5901,1.8433,-2.0696,1.4429,-30.78,20.4,1.44
2.0703,-10.42,-5.2166,1.6167,-1.2911,1.5525,-30.0,20.82,1.14
2.0567,-10.665,-5.8431,1.3384,-0.58979,1.6689,-29.28,21.66,0.9
2.5742,-9.8066,-5.9657,1.0641,0.072693,1.6448,-27.66,23.22,0.42
2.9965,-9.4389,-5.7614,0.75839,0.53359,1.5204,-26.88,24.06,0.24
3.4459,-9.1529,-5.4073,0.50824,0.71502,1.3259,-25.98,24.9,-0.12
4.2087,-9.9292,-4.7263,0.32712,0.61911,1.1109,-24.36,26.28,-0.66
4.413,-10.488,-4.3858,0.081551,0.16524,0.88362,-23.64,26.82,-0.78
4.7399,-11.468,-3.8273,-0.10263,-0.14539,0.73029,-23.1,27.42,-1.02
4.7944,-12.286,-2.6832,-0.32834,-0.32193,0.52657,-21.96,28.5,-1.62
4.2223,-10.992,-2.2201,-0.59193,-0.2755,0.26176,-21.48,28.98,-1.92
3.5822,-9.3572,-2.0294,-0.78466,-0.11301,-0.1237,-21.0,29.34,-2.28
2.942,-9.3163,-1.1305,-0.83414,0.034208,-0.55405,-20.22,30.06,-2.46
2.9829,-10.529,-0.95342,-0.73212,0.16127,-1.0324,-19.8,30.6,-2.64
3.4459,-13.089,-0.64016,-0.71349,0.16218,-1.0913,-19.32,30.72,-2.7
3.6639,-13.253,-0.68102,-0.78924,0.26389,-1.1249,-18.72,30.9,-2.82
3.5685,-12.449,-0.61292,-0.8717,0.57727,-1.1973,-18.66,30.9,-2.82
3.6503,-11.972,-0.58567,-0.92271,0.97738,-1.2886,-18.72,30.78,-2.76
4.2495,-11.441,-0.40861,-0.86865,1.2831,-1.3088,-19.02,30.84,-2.34
4.1814,-11.25,-0.51757,-0.67501,1.3638,-1.2278,-19.14,30.66,-2.16
4.127,-10.637,-0.70826,-0.61606,1.285,-1.1903,-19.38,30.66,-1.86
3.9908,-8.9077,-1.185,-0.37904,0.79596,-1.0696,-20.1,30.18,-1.5
3.9771,-8.3493,-1.2939,-0.22205,0.31551,-1.0009,-20.34,29.94,-1.26
3.9227,-8.0088,-1.2258,-0.091935,-0.17257,-0.96486,-20.76,29.7,-1.14
3.4732,-7.5729,-1.1169,-0.012217,-0.61056,-0.94348,-21.78,29.04,-0.9
3.228,-7.4503,-1.2258,0.000305,-1.1481,-0.9334,-22.38,28.68,-0.78
2.8603,-7.355,-1.2395,-0.020769,-1.2856,-0.93157,-22.98,28.44,-0.54
2.5742,-7.3822,-1.1305,-0.093768,-1.4768,-0.94257,-24.24,27.84,-0.12
2.0158,-7.5457,-0.92618,-0.25779,-1.4032,-0.93218,-24.72,27.48,0.06
1.8115,-7.5593,-0.8036,-0.42974,-1.1054,-0.86987,-25.2,27.3,0.3
1.1577,-6.5378,-1.185,-0.63225,-0.70036,-0.79443,-26.28,26.46,0.96
1.0215,-5.9521,-1.3212,-0.84086,-0.24709,-0.73304,-26.82,26.22,1.26
0.81722,-5.1213,-1.5391,-0.99327,0.18692,-0.68509,-27.3,25.98,1.56
0.64016,-3.9635,-1.1713,-1.0657,0.82986,-0.67592,-28.32,25.5,2.22
0.77636,-4.2359,-0.62654,-1.0208,1.0363,-0.68142,-28.92,25.32,2.46
1.0624,-5.0531,-0.35413,-0.6747,1.5681,-0.61178,-29.46,25.14,2.94
1.866,-7.7908,-0.068102,-0.33781,1.7975,-0.38179,-30.36,24.72,3.66
2.6015,-8.8396,-0.42223,0.11362,1.7245,0.17929,-30.72,24.54,3.78
4.127,-9.6296,-2.3699,0.38179,1.296,0.63225,-31.44,24.3,3.72
4.5628,-9.8611,-3.2144,0.68722,0.75228,1.1173,-31.74,24.18,3.78
4.7263,-10.243,-3.5413,0.96059,0.21441,1.5153,-32.04,24.12,3.6
4.3994,-11.564,-4.0861,1.1579,-0.31276,1.7691,-32.1,24.54,2.94
4.0997,-11.536,-4.1951,1.321,-0.88087,2.0357,-31.8,24.84,2.7
3.1735,-10.746,-4.0316,1.4193,-1.4649,2.1924,-31.26,25.38,1.86
2.6423,-10.665,-3.8546,1.5626,-1.8686,2.281,-30.78,25.8,1.38
2.2065,-10.896,-3.7456,1.6359,-1.8586,2.3888,-30.12,26.28,0.84
1.7843,-11.223,-3.7047,1.5296,-1.1411,2.5045,-29.46,26.76,0.36
1.5936,-11.346,-3.7456,1.3961,-0.4215,2.4997,-27.72,28.14,-0.9
1.4438,-11.237,-3.8954,1.2004,0.32132,2.4105,-26.7,28.8,-1.62
1.6481,-10.992,-4.0725,0.96303,1.0531,2.2684,-25.56,29.58,-2.16
2.3836,-10.229,-4.127,0.6805,1.6997,2.0904,-23.28,31.26,-3.54
2.9965,-9.793,-3.8409,0.38301,2.2034,1.9025,-21.9,32.16,-4.26
3.4187,-9.5887,-3.7728,0.10904,2.4731,1.646,-20.64,33.06,-4.74
4.7807,-10.311,-3.3506,-0.20189,2.3054,1.2034,-18.0,34.68,-6.12
5.3528,-11.4,-2.8875,-0.34819,1.8967,0.88087,-16.8,35.34,-6.9
5.8023,-12.653,-2.5061,-0.45235,1.423,0.52962,-15.6,36.0,-7.44
6.0474,-14.451,-1.6344,-0.58979,0.89919,0.019548,-13.5,37.14,-8.52
5.7069,-14.342,-1.4165,-0.6466,0.81306,-0.16829,-12.66,37.86,-8.94
5.203,-13.729,-1.362,-0.77152,0.75381,-0.53603,-11.76,38.46,-9.48
4.7671,-12.626,-1.2395,-0.85613,0.70799,-1.0617,-10.26,39.36,-10.32
4.4539,-11.741,-1.2395,-0.88148,0.62583,-1.3686,-9.84,39.72,-10.62
4.2904,-11.032,-1.1441,-0.86621,0.45051,-1.6151,-9.48,40.14,-10.74
4.3313,-10.542,-1.3348,-0.79779,0.076664,-1.9523,-9.3,40.74,-10.74
4.2087,-10.815,-1.6344,-0.77733,-0.1576,-2.1228,-9.54,40.92,-10.5
4.0997,-11.114,-1.6889,-0.81551,-0.2923,-2.3167,-9.78,40.86,-10.44
3.4051,-11.591,-1.866,-0.91355,-0.29871,-2.4877,-11.1,40.86,-9.6
2.9148,-11.414,-1.7298,-1.0263,-0.16982,-2.6072,-12.06,40.74,-9.18
2.5742,-11.06,-1.6344,-1.109,0.0042761,-2.7046,-13.02,40.74,-8.88
2.0431,-10.338,-1.7025,-1.1848,0.1912,-2.7898,-14.28,40.56,-8.34
1.9477,-9.8475,-1.7162,-1.2385,0.36927,-2.8136,-17.4,39.6,-7.2
2.0294,-9.507,-1.7434,-1.1933,0.4386,-2.6053,-19.08,39.06,-6.66
2.1384,-8.8532,-1.757,-1.1799,0.36805,-2.4728,-21.12,38.34,-6.18
2.2201,-8.1858,-1.6753,-1.0431,0.18051,-2.288,-23.4,37.68,-5.76
2.1656,-8.1177,-1.7025,-0.91721,-0.020769,-1.978,-28.14,36.06,-5.28
2.0567,-7.6002,-1.9341,-0.85704,-0.1912,-1.4447,-30.48,35.16,-5.1
1.8115,-6.9055,-2.0567,-0.75503,-0.31765,-1.0867,-34.98,33.48,-5.22
1.5936,-6.6331,-2.1929,-0.66187,-0.24374,-0.65576,-37.2,32.76,-5.4
1.4165,-6.3879,-2.0839,-0.57299,-0.050702,-0.20189,-39.48,31.98,-5.7
1.1986,-6.3471,-2.152,-0.45112,0.27519,0.25962,-43.62,30.3,-6.36
1.3348,-6.7557,-2.152,-0.32712,0.64966,0.77,-45.6,29.52,-6.72
1.975,-7.3822,-1.8387,-0.23549,1.0886,1.4209,-48.9,28.26,-7.5
2.1929,-8.0224,-1.6889,-0.027489,1.2807,1.8778,-50.1,27.78,-7.8
2.2201,-8.8668,-1.7706,0.058948,1.5238,2.3546,-51.18,27.42,-7.92
3.1599,-11.673,-1.1169,0.26145,1.5794,2.802,-51.42,27.0,-7.68
3.3915,-12.953,-1.2803,0.31062,1.7263,3.2073,-51.0,26.94,-7.5
3.7047,-13.484,-1.3348,0.29932,1.9319,3.55,-50.04,27.24,-7.26
4.2223,-13.048,-2.1248,0.25717,2.1154,3.6838,-47.34,28.38,-6.84
4.4947,-12.721,-2.5198,0.17074,2.0892,3.5833,-45.66,29.16,-6.78
4.5901,-12.435,-2.5879,0.14355,1.8662,3.2177,-43.74,30.06,-6.66
3.909,-11.795,-2.3291,0.12339,1.5262,2.708,-39.24,31.98,-6.42
3.3234,-11.169,-2.0158,0.12126,1.117,2.2235,-36.78,33.12,-6.66
2.7786,-10.597,-1.6481,0.15791,0.7648,1.843,-34.14,34.32,-6.66
2.2882,-9.902,-1.2531,0.1689,0.60689,1.5675,-28.74,36.66,-7.26
2.2882,-9.6704,-1.2258,0.073304,0.88973,1.244,-26.1,37.86,-7.62
2.3291,-9.221,-1.185,0.026573,1.0788,1.1686,-23.4,39.06,-8.22
2.9829,-8.3629,-0.81722,-0.076053,1.6112,1.0635,-18.9,41.22,-9.72
3.2689,-7.9951,-0.98067,-0.11668,1.9172,1.0162,-16.92,42.24,-10.44
3.4323,-7.8317,-1.1441,-0.12584,2.1163,1.0125,-15.24,43.08,-11.16
3.6775,-7.7636,-1.3893,-0.12767,2.2266,1.0577,-12.24,44.34,-12.54
3.8546,-7.7227,-1.5936,-0.079718,2.1982,1.1555,-10.92,44.64,-13.08
4.3177,-7.8998,-1.6753,-0.060476,2.1447,1.1909,-9.66,45.06,-13.5
4.6037,-8.0769,-1.7706,0.063225,1.8573,1.2523,-7.38,45.72,-14.22
4.7399,-8.4038,-2.0975,0.16341,1.5681,1.2773,-6.36,45.78,-14.46
4.7535,-8.4719,-2.1929,0.26298,1.2303,1.2593,-5.4,46.02,-14.88
4.8352,-8.6489,-2.7377,0.36163,0.87842,1.1829,-3.36,46.2,-15.3
4.8761,-8.6625,-3.0237,0.44318,0.34544,0.95142,-2.28,46.2,-15.42
4.7807,-9.0575,-3.0373,0.46059,0.18601,0.84422,-0.24,46.32,-15.96
4.5356,-9.507,-3.1599,0.48258,-0.19212,0.47556,0.66,46.38,-16.26
4.2223,-9.6977,-3.0101,0.43219,-0.32681,0.20067,1.56,46.44,-16.56
3.9363,-9.7385,-3.0782,0.3656,-0.36408,-0.069028,2.52,46.5,-16.86
3.1872,-9.9292,-2.9965,0.28833,-0.30849,-0.31612,3.9,46.26,-17.4
2.9829,-10.011,-2.9556,0.18998,-0.044593,-0.65546,4.44,46.2,-17.64
2.547,-9.8611,-2.9556,-0.025045,0.22297,-0.84941,5.46,46.08,-18.3
2.5742,-9.7385,-2.8467,-0.091324,0.37965,-0.93493,5.76,46.08,-18.6
2.6423,-10.038,-2.9011,-0.24618,0.78252,-1.1912,5.94,46.08,-18.9
3.0646,-11.427,-2.5742,-0.26664,0.89125,-1.3103,6.12,45.96,-19.14
3.7184,-13.484,-2.5061,-0.34819,0.9331,-1.3784,6.06,46.02,-19.44
3.8682,-13.362,-2.6287,-0.48106,0.94012,-1.4392,5.94,46.14,-19.68
3.2416,-10.597,-2.9284,-0.66126,0.97647,-1.4856,5.16,46.26,-19.62
2.9965,-8.9349,-2.9011,-0.80023,1.0464,-1.7718,4.86,46.32,-19.44
2.833,-7.9951,-2.9011,-0.80817,0.98135,-2.0168,4.38,46.32,-19.44
2.6423,-8.2131,-2.3155,-0.75198,0.80909,-2.2529,3.24,46.62,-18.84
2.7377,-9.4798,-1.9477,-0.66371,0.56933,-2.4319,2.46,46.68,-18.6
3.2416,-11.182,-1.5255,-0.5904,0.28588,-2.474,1.02,46.86,-17.76
3.5685,-12.354,-1.7706,-0.42638,-0.23793,-2.2532,0.06,46.92,-17.46
3.8137,-12.476,-1.8932,-0.38607,-0.60048,-1.9661,-0.9,46.92,-16.92
3.8273,-12.108,-2.1248,-0.35552,-1.0122,-1.7987,-1.86,46.74,-16.5
3.5958,-11.25,-2.6968,-0.33811,-1.3011,-1.6301,-4.2,46.32,-15.36
3.2689,-10.746,-2.8058,-0.33811,-1.5605,-1.4737,-5.34,46.02,-14.76
2.3018,-9.9429,-2.9011,-0.4163,-1.7575,-1.2898,-6.6,45.72,-13.98
1.7025,-10.474,-2.2065,-0.4102,-1.8537,-1.0876,-9.24,44.7,-12.54
0.28603,-10.433,-2.8875,-0.24832,-3.3695,-0.85338,-10.74,44.1,-11.64
-3.5958,-9.3844,-2.3018,-0.2755,-3.5543,-0.25717,-12.18,43.56,-10.74
-1.2803,-6.7421,-1.1169,-0.52687,-1.5754,0.058643,-15.24,42.42,-8.58
0.99429,-7.9679,-1.1032,-0.68783,0.15394,0.020769,-16.8,41.94,-7.56
1.471,-7.9543,-1.4165,-0.75075,1.3861,0.41478,-19.86,40.86,-5.7
1.8251,-7.3005,-1.58,-0.76511,1.6099,0.70036,-21.12,40.32,-4.86
1.6208,-7.1371,-1.5936,-0.7141,1.5617,0.8262,-22.38,39.9,-4.14
1.4165,-7.1234,-1.58,-0.58826,1.4768,0.98716,-23.46,39.66,-3.3
1.9341,-7.5048,-1.3212,-0.61484,1.7868,1.3314,-24.9,39.48,-2.22
2.7104,-7.8453,-1.1713,-0.61636,1.9563,1.4969,-25.5,39.66,-1.86
3.1872,-8.1995,-1.0079,-0.58154,1.9392,1.616,-25.74,39.9,-1.62
3.8001,-9.2074,-0.92618,-0.52107,1.7953,1.7804,-25.68,40.8,-1.14
4.0725,-9.7385,-1.0215,-0.48991,1.6707,1.9804,-25.26,41.34,-1.32
4.1814,-10.038,-1.0896,-0.48961,1.6026,2.1353,-24.54,41.94,-1.44
4.3858,-10.706,-0.6674,-0.47892,1.5947,2.1542,-22.62,43.14,-2.04
4.3994,-12.204,-0.23155,-0.40317,1.6267,2.1389,-21.3,43.86,-2.34
4.6037,-13.797,0.31327,-0.26786,1.708,2.1438,-19.92,44.58,-2.7
4.8761,-15.5,0.64016,-0.18387,2.0204,2.1463,-16.68,46.2,-3.3
4.8216,-14.41,0.21793,-0.28222,2.3503,2.0824,-14.76,46.86,-3.54
4.7126,-12.626,-0.44947,-0.27306,2.5183,1.9926,-12.84,47.52,-3.84
4.2632,-9.3436,-2.152,-0.18937,2.8188,1.5632,-9.12,48.66,-4.2
3.9908,-7.9951,-2.9011,-0.22083,2.7089,1.2071,-7.08,49.08,-4.26
3.6366,-7.0417,-3.0237,-0.15485,2.3653,0.84788,-5.34,49.32,-4.14
3.2689,-7.5321,-2.3836,-0.053451,1.7346,0.43891,-1.98,49.8,-4.2
3.1599,-8.1313,-1.9341,0.016493,1.4019,0.33659,-0.42,49.98,-4.14
3.0918,-9.0984,-1.3348,0.057727,1.2709,0.33445,0.9,50.22,-4.2
3.2961,-9.4661,-1.362,0.099876,1.0742,0.49114,3.36,50.28,-4.2
3.4187,-8.6353,-1.7979,0.067806,1.0901,0.67898,4.44,50.34,-4.26
3.4051,-7.8998,-2.0703,0.034819,1.1961,0.82161,5.52,50.34,-4.14
3.1191,-7.0281,-2.6015,0.03146,1.4548,0.96456,7.32,50.28,-4.14
2.942,-6.96,-2.6696,0.032681,1.6017,1.0021,8.04,50.28,-4.08
2.8739,-6.9055,-2.833,0.055283,1.6341,0.99724,8.76,50.1,-4.08
3.0237,-7.3822,-2.8058,0.11393,1.6386,1.0116,10.08,49.98,-3.9
3.2553,-7.7772,-2.7922,0.18692,1.547,1.0452,10.62,49.74,-3.84
3.514,-8.1722,-2.8194,0.24526,1.4462,1.0993,11.22,49.8,-3.9
3.9635,-8.8396,-3.0646,0.30024,1.2709,1.1435,12.42,49.62,-3.9
3.9908,-8.9349,-3.0918,0.37049,1.1368,1.1558,13.02,49.62,-3.9
3.9908,-8.9077,-3.2144,0.39615,1.0782,1.1478,13.8,49.38,-3.78
3.8818,-8.7987,-3.3778,0.43249,0.93279,1.106,14.52,49.32,-3.66
3.8818,-8.6762,-3.514,0.48136,0.66432,0.98227,15.36,49.08,-3.6
3.7865,-8.5536,-3.8409,0.50121,0.46426,0.87751,16.98,48.54,-3.48
3.6775,-8.6353,-3.8954,0.48411,0.21289,0.72143,17.76,48.36,-3.54
3.732,-9.0575,-3.7728,0.4328,0.10965,0.60659,19.38,48.0,-3.6
3.6366,-9.4117,-3.7047,0.40409,0.078802,0.55344,20.1,47.7,-3.54
3.4732,-9.6704,-3.3778,0.32773,0.082161,0.4102,20.76,47.58,-3.72
3.2961,-10.311,-3.1054,0.22022,0.20617,0.17715,22.02,47.22,-3.9
3.1735,-10.91,-2.833,0.14508,0.35125,0.013744,22.62,46.92,-3.96
3.051,-11.237,-3.0782,-0.0039706,0.6353,-0.25412,23.7,46.92,-4.2
