Ax,Ay,Az,Gx,Gy,Gz,Mx,My,Mz
2.833,-9.112,-1.7843,-0.11179,-0.97525,0.20953,19.02,35.76,-1.62
2.6968,-9.2891,-1.6481,-0.27672,-0.76602,0.1689,19.2,35.58,-1.68
2.5742,-9.3436,-1.5391,-0.40073,-0.54886,0.13592,19.5,35.58,-1.68
2.4925,-9.3027,-1.4301,-0.45112,-0.43219,0.12706,19.68,35.58,-1.68
2.547,-10.106,-0.89894,-0.5116,-0.10599,0.13836,19.98,35.58,-1.86
2.547,-10.665,-0.84446,-0.48717,0.07025,0.16982,20.22,35.52,-1.98
2.6423,-10.597,-0.77636,-0.43585,0.20159,0.17318,20.76,35.4,-2.04
2.3836,-9.3436,-0.70826,-0.25229,0.24251,-0.017715,21.0,35.58,-2.1
2.0975,-8.7306,-0.78998,-0.031765,0.16127,-0.13256,21.18,35.58,-2.04
2.0294,-8.6762,-1.0896,0.23243,-0.084299,-0.17929,21.48,35.58,-2.1
2.4789,-9.7658,-2.2201,0.50274,-0.6463,-0.19303,22.08,35.64,-2.16
2.4517,-10.42,-2.6696,0.69791,-1.4041,-0.18173,22.32,35.64,-2.28
1.866,-10.706,-2.8194,0.75045,-1.9975,-0.16707,22.62,35.58,-2.16
-0.19068,-10.12,-2.8875,0.60873,-2.0348,-0.20617,23.16,35.82,-2.7
-1.0624,-9.221,-2.9965,0.47647,-1.584,-0.24801,23.28,36.0,-3.06
-1.1441,-8.826,-3.1327,0.39798,-1.0424,-0.27397,23.4,36.12,-3.48
-0.54481,-8.4174,-2.9011,0.33384,-0.64171,-0.21075,23.82,36.18,-4.26
-0.54481,-8.4174,-2.9011,0.27611,-0.416,-0.14722,23.82,36.18,-4.26
0.28603,-8.7987,-2.3291,0.21686,-0.26359,-0.077274,24.3,36.48,-5.22
0.50395,-9.221,-2.0839,0.20586,-0.23274,-0.075136,24.72,36.66,-6.18
0.69464,-9.3027,-1.7706,0.2022,-0.21747,-0.10537,25.08,36.72,-6.78
0.89894,-9.4389,-1.6753,0.23305,-0.29627,-0.19639,25.5,37.14,-8.1
0.91256,-9.4117,-1.5936,0.29016,-0.41569,-0.25992,25.74,37.32,-8.7
0.81722,-9.2346,-1.58,0.34575,-0.55711,-0.3094,26.04,37.5,-10.14
0.51757,-9.1937,-1.6072,0.39401,-0.66401,-0.31796,26.34,37.68,-11.1
0.29965,-9.2074,-1.5527,0.4215,-0.68081,-0.31032,26.58,37.56,-12.0
0.25879,-9.0712,-1.5527,0.39981,-0.52993,-0.2865,26.7,37.56,-12.54
0.31327,-8.8396,-1.3348,0.38454,-0.36102,-0.25626,27.12,37.8,-13.56
0.47671,-8.6353,-1.3212,0.35583,-0.18754,-0.18448,27.24,37.92,-14.76
0.7355,-8.4719,-1.3484,0.35736,-0.045815,-0.10568,27.42,38.22,-15.96
1.0624,-8.6762,-1.3212,0.37629,0.032987,-0.016493,27.54,38.34,-16.98
1.3076,-8.4174,-1.1169,0.38087,0.088881,0.032987,27.72,38.58,-18.18
1.5255,-8.4991,-0.85808,0.37599,0.18082,0.071471,27.78,38.64,-19.5
1.6481,-8.5808,-0.89894,0.40378,0.20006,0.10629,27.96,38.7,-20.04
1.9613,-8.7987,-0.89894,0.42425,0.18876,0.11148,28.38,38.94,-21.24
2.0975,-8.7987,-0.91256,0.44532,0.1292,0.11942,28.5,38.88,-21.84
2.1929,-9.1665,-0.89894,0.44349,0.089186,0.12095,28.98,38.46,-23.16
2.0567,-9.4389,-0.91256,0.36652,0.18845,0.058032,29.22,38.16,-23.76
2.0158,-9.8475,-0.74912,0.33048,0.26878,0.033598,29.52,37.92,-24.42
1.9613,-10.025,-0.54481,0.22633,0.63561,-0.086437,30.18,37.44,-25.92
1.9477,-10.161,-0.47671,0.16463,0.91935,-0.17196,30.66,36.9,-26.76
1.975,-10.093,-0.29965,0.12798,1.1606,-0.24587,31.26,36.48,-27.66
1.9341,-9.9837,-0.14982,0.12737,1.3137,-0.2978,31.68,36.12,-28.44
1.9613,-9.5751,0.43585,0.21105,1.376,-0.29993,33.3,34.8,-30.42
1.7979,-10.052,0.61292,0.25656,1.3818,-0.3036,34.2,34.14,-31.5
1.8524,-10.924,0.64016,0.46792,1.3002,-0.14355,36.0,32.4,-33.72
2.2474,-12.517,0.14982,0.5287,1.1402,0.037568,37.56,30.3,-36.24
1.9341,-10.842,-0.054481,0.5174,0.8937,0.16524,39.06,28.14,-38.76
1.58,-9.9837,0.28603,0.44715,0.70769,0.18662,39.72,26.82,-40.2
0.99429,-9.8339,0.8036,0.40378,0.69425,0.21808,40.68,23.94,-42.96
1.2258,-10.678,0.54481,0.38668,0.62644,0.19731,41.1,20.94,-45.9
1.58,-11.7,-0.040861,0.39859,0.37446,0.16677,40.68,17.58,-48.54
1.7706,-12.354,-0.01362,0.36744,0.064752,0.16646,39.18,14.82,-50.64
0.99429,-12.217,0.16344,0.26145,-0.10843,0.15241,36.78,11.94,-52.98
0.35413,-11.264,-0.054481,0.10629,-0.097433,0.078802,33.3,9.78,-55.02
0.21793,-10.665,-0.19068,-0.013744,0.1237,-0.067195,31.44,8.58,-55.86
0.31327,-10.025,-0.65378,-0.079107,0.3485,-0.14355,27.24,6.9,-57.3
0.38137,-9.9701,-0.8036,-0.22266,0.54978,-0.12034,22.32,5.76,-58.26
0.40861,-9.221,-0.72188,-0.35186,0.65118,-0.11851,17.34,5.16,-58.98
0.50395,-9.0167,-0.68102,-0.46334,0.7419,-0.061087,14.7,4.98,-58.98
0.8717,-8.8941,-0.64016,-0.56139,0.78466,-0.0033598,12.12,5.04,-58.86
1.4438,-8.6353,-0.40861,-0.61636,0.78343,0.0042761,7.02,5.52,-58.56
1.58,-8.6489,-0.40861,-0.67256,0.77091,0.019853,4.5,5.94,-58.32
1.7298,-8.6762,-0.31327,-0.73121,0.75717,0.021686,2.04,6.66,-57.72
1.9886,-8.4719,0.027241,-0.78221,0.74464,0.016188,-2.34,8.34,-56.22
1.9068,-8.3765,0.14982,-0.83383,0.75106,0.007025,-4.32,9.48,-55.32
1.8387,-8.2267,0.24517,-0.87873,0.76541,-0.0042761,-6.18,10.74,-54.3
1.7025,-8.1858,0.21793,-0.89889,0.81184,-0.020159,-7.92,11.94,-53.1
1.7434,-8.0632,0.43585,-0.93065,0.90286,-0.043982,-10.62,14.94,-50.52
1.8524,-7.9679,0.36775,-0.95203,0.91263,-0.062003,-11.76,16.56,-49.02
1.8115,-7.5048,0.31327,-0.98838,0.90988,-0.11912,-12.6,18.12,-47.34
1.2531,-6.7148,0.14982,-1.0382,0.95631,-0.21991,-13.86,21.54,-43.92
0.89894,-6.4697,0.25879,-1.0605,1.0968,-0.27642,-14.1,23.28,-42.24
0.68102,-6.5105,0.21793,-1.0681,1.3137,-0.29016,-14.1,26.4,-38.88
0.7355,-6.6059,0.29965,-1.0666,1.4215,-0.24129,-13.74,27.84,-37.38
0.89894,-6.8374,0.28603,-1.0452,1.4536,-0.20861,-13.2,29.22,-35.82
1.1032,-7.0145,0.17706,-1.0033,1.4187,-0.098044,-12.6,30.42,-34.38
1.6072,-7.9679,0.081722,-0.94409,1.2746,0.099571,-10.8,32.16,-31.62
1.58,-7.9134,-0.21793,-0.91813,1.1839,0.19181,-9.72,33.0,-30.36
1.4165,-7.246,-0.65378,-0.90927,1.1588,0.22144,-8.46,33.6,-28.98
1.1169,-6.9872,-0.72188,-0.92729,1.2257,0.20525,-6.0,34.26,-26.7
1.185,-8.8396,-1.0215,-0.8769,1.3573,0.20097,-4.74,34.68,-25.74
1.4029,-9.9973,-1.1577,-0.8827,1.387,0.19761,-3.3,34.74,-24.78
2.152,-13.988,-1.5391,-0.77763,1.3121,0.29352,-0.6,34.62,-23.22
2.4789,-16.14,-1.4438,-0.61117,1.1509,0.54825,0.78,34.38,-22.56
3.2553,-18.796,-1.757,-0.30329,0.82772,0.84758,2.1,34.14,-21.84
4.699,-18.701,-2.9284,0.07758,0.34392,0.85155,4.74,33.48,-20.28
4.6037,-16.181,-3.7047,0.7419,-0.7813,0.58215,5.88,33.06,-19.62
4.1542,-14.41,-3.8409,0.88575,-1.1157,0.45937,7.26,32.76,-19.02
2.6423,-12.0,-3.7047,0.89064,-1.938,0.025351,9.12,32.28,-18.12
1.5119,-10.91,-3.5685,0.6973,-2.0534,-0.21075,9.9,31.98,-17.58
0.32689,-9.902,-3.6775,0.46731,-1.6854,-0.21166,10.5,31.74,-17.1
-0.36775,-7.75,-3.7728,0.20678,-0.70127,-0.057421,11.4,31.5,-16.32
-0.49033,-6.9328,-3.8273,0.11973,0.073304,-0.020769,11.7,31.26,-15.84
-0.24517,-6.0611,-3.7728,0.065363,0.74037,-0.025045,11.82,31.26,-15.6
1.0488,-4.6445,-3.4187,0.03879,1.0605,0.0012217,11.82,31.14,-14.82
1.7706,-4.3177,-3.4459,0.062614,0.94959,0.036652,11.64,31.26,-14.52
2.4517,-4.2223,-3.6366,0.10171,0.46548,0.05681,11.52,31.38,-14.34
2.942,-4.8216,-3.6911,0.13256,-0.25412,0.058643,10.98,31.86,-14.04
2.6423,-5.2711,-3.5004,0.14325,-1.2767,0.013744,10.68,32.1,-13.86
2.2201,-5.6524,-3.4459,0.12187,-1.4682,-0.0045815,10.02,32.22,-13.74
1.6617,-6.2654,-3.4051,0.013439,-1.5925,-0.072082,9.6,32.28,-13.74
1.4165,-6.7012,-3.2825,-0.078802,-1.3955,-0.12859,9.06,32.28,-13.5
1.4165,-6.8647,-3.0373,-0.16249,-1.1332,-0.19517,7.92,32.28,-13.44
1.7434,-7.0962,-2.9829,-0.20831,-0.88942,-0.26267,7.26,32.28,-13.32
2.3972,-7.9134,-3.0237,-0.24221,-0.79779,-0.26878,6.54,32.22,-13.32
2.3018,-7.9679,-2.7377,-0.33934,-0.80879,-0.29902,4.98,31.92,-13.44
1.9341,-7.8045,-2.2474,-0.47922,-0.7309,-0.40836,4.26,31.62,-13.5
1.8387,-8.0224,-2.1248,-0.49877,-0.49938,-0.51832,3.42,31.44,-13.62
2.0703,-10.406,-2.152,-0.51526,-0.30543,-0.55497,1.44,30.6,-13.56
2.2882,-11.182,-1.9613,-0.56169,-0.23946,-0.53848,0.36,30.0,-13.44
2.5061,-13.253,-1.58,-0.56261,-0.34819,-0.41447,-0.78,29.34,-13.2
2.8875,-16.426,-0.96704,-0.58551,-0.37782,-0.32498,-2.88,28.14,-12.48
2.8875,-18.101,-0.92618,-0.67287,-0.36927,-0.055894,-3.96,27.6,-11.94
2.6968,-18.415,-0.61292,-0.77763,-0.078496,-0.041539,-5.1,27.06,-11.58
2.0294,-15.595,0.38137,-0.87262,0.50946,-0.20159,-7.14,25.8,-10.38
1.7979,-14.41,0.7355,-0.91233,1.2104,-0.35064,-7.98,25.14,-9.72
2.0022,-12.517,0.49033,-0.8769,1.7575,-0.53817,-9.36,24.0,-8.04
2.152,-11.523,0.31327,-0.7477,2.032,-0.6689,-9.78,23.64,-7.14
2.547,-10.283,0.31327,-0.53237,2.0269,-0.63102,-10.32,23.34,-6.12
2.7104,-9.6432,-0.19068,-0.16921,1.4453,-0.39828,-10.68,22.98,-5.04
2.5606,-7.5048,-0.89894,0.025045,0.80573,-0.20189,-11.16,22.56,-3.3
2.2201,-6.2926,-1.3076,0.17471,0.15333,-0.03146,-11.16,22.44,-2.46
1.1577,-4.7535,-1.9613,0.27733,-0.35583,0.08491,-11.1,22.38,-1.74
0.72188,-4.1133,-2.0158,0.26695,-0.67104,0.26267,-10.98,22.32,-0.36
0.47671,-3.909,-2.0294,0.18143,-0.59529,0.35919,-10.5,22.26,0.48
0.42223,-3.9635,-2.2474,0.058338,-0.43799,0.46273,-9.84,22.2,1.08
0.57205,-4.4266,-2.4244,-0.088575,-0.20708,0.54734,-8.82,22.2,2.22
0.70826,-4.8352,-2.2746,-0.25779,0.10171,0.58887,-8.22,22.14,2.7
1.1305,-6.1019,-1.9341,-0.42516,0.48594,0.57941,-7.14,21.84,3.42
1.4438,-6.7693,-1.7979,-0.68295,1.1185,0.51649,-6.42,21.66,3.66
1.7843,-6.96,-1.4846,-0.81856,1.474,0.41875,-5.76,21.36,3.96
1.8796,-7.0962,-1.185,-0.83108,1.6072,0.35919,-5.22,21.12,4.26
2.2337,-10.665,-1.1441,-0.68875,1.817,0.30024,-3.72,20.34,4.68
2.6151,-13.348,-1.1986,-0.64232,1.8341,0.43158,-2.94,19.92,4.98
3.1872,-16.494,-1.3076,-0.51129,1.7217,0.64568,-2.16,19.56,5.34
3.8409,-18.687,-1.1441,-0.21258,1.4575,0.91324,-0.54,18.72,5.7
4.0452,-19.423,-1.1169,0.39248,0.99327,1.296,0.24,18.42,5.88
4.7399,-19.518,-1.9477,0.62766,0.75533,1.3912,0.78,18.0,6.18
5.3937,-17.856,-3.4187,1.321,-0.39004,1.1805,1.68,17.64,6.48
4.4811,-11.141,-5.6252,1.5614,-1.3699,0.83169,3.54,16.98,6.78
2.9965,-8.9349,-5.7478,1.3445,-2.047,0.36285,4.38,16.74,6.84
0.76274,-6.1019,-5.4073,0.73487,-1.6564,0.0015272,6.12,16.44,6.96
-0.49033,-4.3721,-5.4754,0.59712,-1.2788,-0.15149,7.02,16.38,7.08
-0.78998,-3.6503,-5.3937,0.23702,-0.06017,-0.26848,7.86,16.26,7.02
-0.47671,-2.5606,-5.1621,0.080634,0.62217,-0.25504,8.52,16.26,7.26
0.89894,-1.5119,-4.7671,0.06017,0.99571,-0.3204,10.02,16.44,7.32
1.9068,-1.1305,-4.4675,0.1292,0.80329,-0.31368,10.62,16.5,7.2
2.9148,-1.4982,-4.0589,0.23854,0.5565,-0.25595,11.94,16.74,7.44
3.1872,-1.9341,-3.623,0.37904,-0.55039,-0.053756,12.48,16.86,7.5
3.4051,-2.2882,-3.2553,0.46517,-1.4734,0.097433,13.08,16.98,7.62
3.514,-3.7184,-2.9965,0.55283,-2.3531,0.28588,13.86,17.4,7.86
3.2689,-4.8625,-2.9284,0.60262,-3.029,0.46029,14.34,17.46,8.04
2.7513,-6.6059,-2.0158,0.56474,-3.3668,0.55894,14.94,17.64,8.34
2.152,-9.6704,-1.58,0.4218,-3.1689,0.66981,16.56,17.58,8.88
1.8387,-13.539,-1.1032,0.21594,-2.6261,0.77824,17.64,17.64,8.94
1.866,-16.031,-0.84446,-0.069028,-1.7953,0.88911,18.78,17.88,9.12
2.0975,-19.246,-0.88532,-0.37904,-0.82558,0.92974,20.04,17.88,9.24
3.2416,-19.532,-1.4165,-0.60292,0.057421,0.8546,22.62,18.18,9.72
3.8682,-19.532,-0.54481,-0.85368,0.90378,0.57696,24.18,18.24,9.96
3.3778,-18.129,1.0079,-1.1438,1.8353,0.13531,27.06,18.36,10.32
3.2416,-16.916,0.91256,-1.3806,2.97,-0.87812,28.38,18.36,10.56
3.1872,-15.241,0.31327,-1.2675,3.2544,-1.6002,29.7,18.6,10.86
3.2961,-14.288,-0.081722,-1.0073,3.1408,-2.0134,30.96,18.72,11.16
4.5901,-11.291,-0.7355,-0.68875,2.6356,-2.2009,32.88,19.08,12.0
4.9169,-9.6704,-1.2122,-0.44104,1.7798,-2.2003,33.54,19.2,12.3
4.7535,-6.7829,-1.7162,-0.29871,0.76328,-2.0039,33.9,19.5,12.6
3.4732,-5.993,-1.9068,-0.22235,-0.30085,-1.8079,34.08,20.46,13.38
2.6832,-5.4209,-2.0022,-0.28436,-1.5434,-1.7006,34.02,20.7,13.68
1.7298,-4.9033,-2.0022,-0.40714,-1.9603,-1.5867,33.78,21.3,13.92
-0.24517,-3.8546,-1.6753,-0.54214,-1.9487,-1.3952,32.58,21.96,14.1
-1.3212,-3.5004,-1.6481,-0.64477,-1.5592,-1.1704,31.8,22.5,14.1
-2.2201,-3.8273,-1.4438,-0.7419,-0.88331,-0.8827,30.96,23.1,14.04
-2.1248,-4.8625,-1.2531,-0.93951,0.33353,-0.41875,29.34,24.3,13.86
-1.2258,-5.8704,-1.0215,-1.0544,0.98441,-0.22785,28.5,24.84,13.62
-0.95342,-6.1836,-0.89894,-1.1069,1.2138,-0.15058,27.6,25.38,13.56
-0.46309,-6.17,-0.8717,-1.2208,1.5831,-0.010385,26.82,25.86,13.38
-0.34051,-6.7966,-0.62654,-1.1643,1.6616,0.045204,25.56,26.76,12.9
-0.12258,-8.3357,-0.57205,-0.99388,1.7055,0.29658,24.9,27.06,13.02
0.7355,-11.509,-0.54481,-0.93921,1.7382,0.42913,24.3,27.42,13.14
1.8524,-14.846,-1.1169,-0.79168,1.8454,0.75045,23.28,27.84,13.8
3.2416,-17.08,-1.7979,-0.50519,1.9404,1.2321,22.74,27.78,14.34
4.2087,-17.843,-2.1384,0.39584,1.558,2.2242,22.56,27.9,14.88
5.993,-18.646,-3.1191,1.1008,0.90927,2.7141,22.2,27.96,16.5
6.9191,-17.843,-3.9227,1.901,-0.58643,2.8311,22.08,27.9,17.28
6.7421,-14.805,-5.2983,2.0421,-1.2022,2.7107,22.38,27.84,18.6
5.8023,-11.863,-5.2983,2.1331,-2.2804,2.3146,22.86,27.72,19.14
5.0531,-10.474,-5.1894,1.7272,-2.7141,1.5864,23.4,27.54,19.38
2.9829,-6.9191,-5.4073,1.3964,-2.2626,1.0965,24.66,27.42,19.5
2.3291,-5.6116,-5.9521,1.1631,-1.6438,0.54917,25.38,27.48,19.32
1.866,-4.7944,-6.456,1.0131,-1.1371,0.22266,26.28,27.48,18.84
2.0703,-4.0861,-6.5786,0.74984,-0.71196,0.10965,27.9,27.3,17.76
2.3427,-3.623,-6.3471,0.54886,-0.59743,0.078802,28.92,27.3,16.92
2.3836,-3.0237,-5.8567,0.40256,-0.59407,0.10324,30.06,27.36,16.02
2.7922,-2.6015,-5.203,0.3146,-0.7422,0.15394,31.8,27.48,14.04
2.942,-2.833,-4.7671,0.28527,-1.0314,0.1408,32.7,27.66,12.96
3.0646,-3.732,-4.5764,0.27092,-1.3775,0.12767,34.38,27.96,10.98
3.1327,-5.5162,-4.2904,0.2193,-1.7956,0.22969,35.04,27.9,10.02
3.1735,-7.1643,-4.1678,0.1857,-1.8943,0.28711,35.7,28.02,9.12
3.0918,-8.1313,-3.8682,0.091019,-1.9279,0.36988,36.36,28.38,8.34
2.7377,-10.474,-2.9829,-0.21838,-1.4438,0.40317,37.62,28.68,7.08
2.5742,-10.896,-2.547,-0.47953,-0.82803,0.29627,38.1,28.86,6.54
2.6015,-11.346,-2.0294,-0.6298,-0.098044,0.062919,38.7,29.1,6.06
3.3506,-12.572,-1.9613,-0.80665,0.70372,-0.3543,40.02,29.64,5.76
3.8137,-13.076,-1.6072,-0.7758,0.88178,-0.65729,40.44,29.94,5.76
4.2223,-14.083,-1.6344,-0.73059,0.82711,-0.77213,40.8,30.36,5.88
5.3528,-17.802,-1.6344,-0.67623,0.062308,-0.95112,41.46,30.96,6.42
5.2847,-19.246,-1.3212,-0.75014,-0.6243,-0.96975,41.76,31.2,6.6
4.3858,-19.504,-0.47671,-0.98227,-0.87781,-0.91233,42.0,31.38,6.84
2.6287,-17.284,0.10896,-1.3589,-0.26084,-1.1047,42.3,31.98,7.2
1.9341,-16.004,0.054481,-1.4212,0.16035,-1.2321,42.24,32.28,7.5
0.85808,-13.893,-0.054481,-1.4395,1.1307,-1.5076,42.12,32.34,7.86
1.4165,-10.202,-0.095342,-1.211,1.9007,-1.8149,41.28,32.76,8.58
2.0431,-8.0905,-0.16344,-0.97036,1.3833,-1.7336,40.62,32.88,9.18
2.2065,-5.9249,-0.24517,-0.68081,0.32834,-1.4044,39.78,33.12,9.72
1.185,-3.9908,-0.88532,-0.32284,-0.64477,-0.78191,37.5,33.54,10.44
0.27241,-3.8546,-1.3348,0.1686,-1.4255,-0.37354,36.42,33.84,10.56
-0.76274,-3.5277,-1.4301,0.34331,-1.511,-0.054978,35.4,33.96,10.74
-1.1577,-3.4459,-1.6617,0.42761,-1.3647,0.17807,34.38,34.14,10.74
-1.1577,-3.8273,-2.1248,0.40928,-1.0989,0.35919,33.42,34.38,10.62
-0.68102,-4.8352,-2.5879,0.26512,-0.75533,0.47006,31.38,34.74,10.2
-0.40861,-5.5707,-2.5606,-0.092852,-0.18448,0.64416,30.54,35.04,10.08
0.17706,-6.5105,-2.152,-0.33964,0.17287,0.7086,29.04,35.46,9.9
0.35413,-7.0962,-1.7979,-0.56963,0.54367,0.70372,28.44,35.7,9.9
0.42223,-7.6683,-1.6344,-0.76236,0.97738,0.6408,28.14,36.0,10.08
0.7355,-8.8668,-1.2531,-0.91691,1.4856,0.53298,27.96,36.24,10.02
1.1577,-9.4117,-1.1577,-1.0382,2.0357,0.46334,28.14,36.24,10.08
1.757,-9.4117,-0.85808,-1.0397,2.6524,0.37874,28.8,36.24,10.5
2.4653,-10.896,-1.0624,-0.67989,2.8014,0.41508,29.16,36.24,10.98
3.3506,-12.354,-0.91256,-0.37965,2.7107,0.50549,29.46,36.18,11.76
3.7047,-13.116,-0.83084,-0.017715,2.2938,0.66554,29.82,36.12,12.54
4.7671,-14.097,-1.3893,0.38423,1.66,0.90042,30.54,36.24,14.7
4.985,-13.838,-1.866,0.81184,0.84513,1.0861,30.6,36.36,15.96
4.9033,-14.506,-2.2201,1.2669,-0.1124,1.303,30.72,36.3,17.04
5.3392,-16.699,-3.9908,1.8045,-1.3445,1.6716,31.2,36.36,18.96
5.3528,-16.167,-4.9578,1.9743,-2.0033,1.7086,31.62,36.48,19.68
4.8625,-14.683,-5.2847,1.9688,-2.1887,1.6716,31.86,36.66,20.1
3.7047,-12.79,-5.1894,1.292,-1.7229,1.3992,32.34,36.84,20.4
1.3757,-8.3357,-4.2495,0.66554,-0.95112,0.91935,33.36,37.08,20.58
0.99429,-6.0202,-3.9771,0.41447,-0.19028,0.20342,34.08,37.26,20.34
1.5391,-4.127,-3.9908,0.45815,0.35064,-0.36041,35.1,37.38,19.5
1.9613,-4.2223,-4.0452,0.48472,0.61514,-0.59071,35.7,37.56,18.72
2.1384,-4.1406,-4.0316,0.43768,0.66706,-0.71807,36.3,37.68,17.94
2.261,-3.0646,-3.9227,0.31337,0.40531,-0.77336,37.2,37.92,16.2
2.3155,-2.5198,-3.8954,0.36346,0.059254,-0.62125,37.8,38.04,15.18
2.4517,-2.2882,-3.9771,0.47037,-0.43707,-0.38912,38.4,38.22,14.4
2.8467,-3.1191,-4.0452,0.56383,-0.98655,-0.13622,39.18,38.58,12.48
2.9829,-3.9227,-3.9635,0.64996,-1.5412,0.13347,39.42,38.76,11.76
2.9011,-4.6445,-3.8818,0.67378,-2.032,0.37904,39.72,38.94,11.16
3.0373,-5.993,-4.0861,0.64141,-2.6066,0.64843,40.02,39.42,9.96
3.0237,-6.96,-4.2632,0.56352,-2.8433,0.7813,40.38,39.72,9.36
2.8058,-8.2948,-4.0589,0.36927,-2.8427,0.84177,40.56,40.08,8.7
2.0567,-10.174,-3.3506,0.039401,-2.3069,0.82558,41.34,40.86,7.14
1.7025,-12.108,-3.1191,-0.066279,-2.003,0.78771,41.7,41.1,6.18
1.5663,-13.225,-2.9556,-0.34361,-1.3039,0.62125,42.24,41.46,5.34
1.7298,-17.965,-3.732,-0.71563,-0.29902,0.2416,43.56,41.94,3.3
2.2882,-19.341,-3.6503,-1.1765,0.33995,0.038485,44.28,42.12,2.46
2.833,-19.504,-2.7377,-1.6032,0.97769,-0.14569,45.0,42.42,1.5
3.4051,-19.532,-1.076,-1.9166,1.6509,-0.4105,46.32,42.9,0.48
3.4323,-19.532,-0.74912,-2.2611,2.591,-0.77122,46.92,43.14,0.12
2.9829,-17.884,-0.46309,-2.2382,2.8323,-1.0128,47.22,43.26,-0.18
2.7513,-13.076,-0.32689,-1.9093,3.3378,-1.7648,47.58,43.86,-0.06
3.0237,-11.087,-0.24517,-1.5794,3.2587,-2.2147,47.28,44.1,0.24
3.4051,-9.1256,-0.36775,-1.2538,2.7907,-2.489,46.68,44.46,1.02
4.2223,-7.2596,-0.84446,-0.82161,1.4875,-2.4932,44.82,45.12,2.94
4.2495,-6.17,-1.1713,-0.61545,0.41844,-2.2691,43.68,45.6,3.96
3.9908,-5.7205,-1.1305,-0.5452,-0.11759,-2.1093,42.18,46.02,4.86
2.8603,-4.7944,-1.3348,-0.45112,-1.4334,-1.7065,40.32,46.74,5.82
1.362,-3.6094,-1.3212,-0.46976,-1.8842,-1.576,36.3,47.52,7.38
0.6674,-3.0782,-1.0896,-0.52046,-2.0076,-1.4148,33.96,48.0,8.04
-0.31327,-2.6968,-0.92618,-0.59132,-1.6667,-1.0996,29.52,49.08,8.94
-0.64016,-2.8739,-1.0488,-0.70127,-1.2532,-0.8995,27.24,49.62,9.24
-0.77636,-3.3097,-1.1169,-0.7364,-1.0098,-0.79046,25.02,50.04,9.54
-0.64016,-3.732,-1.1986,-0.8717,-0.20464,-0.44166,22.56,50.28,9.66
-0.19068,-4.7263,-1.185,-0.94898,0.29688,-0.25504,18.48,51.24,9.84
-0.054481,-5.1076,-1.0896,-1.0156,0.77946,-0.077885,16.68,51.54,9.66
0.10896,-7.3277,-0.96704,-0.97494,1.2156,0.10568,13.62,52.2,9.48
0.7355,-10.774,-1.4438,-0.91508,1.5754,0.4496,12.3,52.32,9.72
1.2531,-13.28,-1.185,-0.81856,1.9196,1.2034,11.28,52.5,9.84
1.8115,-14.438,-0.92618,-0.73273,2.0033,1.4468,10.5,52.56,10.14
1.8387,-16.086,-0.51757,-0.27,2.3033,2.1307,9.6,52.98,11.16
2.1384,-17.815,-0.76274,0.26084,2.5235,2.7116,9.42,52.86,11.7
3.3506,-19.286,-2.9148,0.97128,2.4117,3.3091,9.42,52.92,12.24
5.0259,-18.074,-4.2223,1.7465,1.7119,3.6994,9.9,52.74,13.56
5.3937,-16.222,-5.6388,2.4166,0.54275,3.9092,10.44,52.74,14.22
5.2438,-15.064,-6.1564,2.8399,-0.95814,3.8036,11.58,52.8,14.7
3.3506,-11.618,-6.1836,2.4603,-1.2969,3.572,14.4,52.38,15.18
3.2416,-10.256,-5.3392,1.9529,-1.5485,3.171,16.26,52.02,15.36
4.0316,-8.4719,-4.5356,1.5446,-1.5605,2.4862,18.24,51.66,15.3
3.9635,-5.6116,-3.732,1.3323,-1.427,1.8757,22.92,50.88,14.4
3.514,-5.203,-3.9908,1.3491,-1.6121,1.2452,25.38,50.4,13.74
2.8603,-5.2575,-4.3177,1.3329,-1.6374,1.0128,27.9,49.98,13.08
2.2474,-5.1485,-4.4947,1.1362,-1.3854,0.48319,33.0,49.26,11.16
2.261,-4.7944,-4.4266,0.97677,-0.978,0.36988,35.4,49.02,10.14
2.261,-4.2359,-4.2359,0.90866,-0.61911,0.31643,37.74,48.66,9.06
2.2474,-4.4675,-4.3449,0.88881,-0.39554,0.2981,42.12,48.06,6.48
2.6015,-4.808,-4.5628,0.75228,-0.3375,0.49052,44.22,47.82,5.22
3.1191,-5.0668,-4.7671,0.63255,-0.47647,0.69822,45.96,47.58,4.14
3.6639,-5.6116,-4.7807,0.57452,-0.60262,0.80817,47.34,47.58,2.88
3.9908,-6.4424,-4.7944,0.42394,-0.87598,1.0153,48.54,47.58,1.56
3.9227,-7.9679,-4.6854,0.26786,-1.0327,1.1127,49.56,47.64,0.36
5.1485,-14.192,-5.7069,0.12614,-1.1304,1.0623,51.78,48.48,-3.06
4.9578,-17.352,-4.699,-0.062614,-0.77519,0.82009,52.38,48.66,-4.02
3.8954,-18.864,-3.8682,-0.64966,0.036041,0.40806,52.74,49.02,-5.04
1.1169,-19.518,-1.1986,-1.8189,1.5543,-0.72143,53.4,49.74,-6.18
1.3757,-19.423,-0.89894,-2.0705,2.4068,-1.8598,53.7,50.22,-6.6
2.2065,-19.518,-1.1713,-2.3653,3.0922,-2.5391,53.7,50.76,-6.72
4.1406,-18.714,-1.1577,-2.5653,3.379,-2.7785,53.52,52.14,-5.88
4.5764,-17.407,-1.2258,-2.2584,3.226,-3.0155,53.1,52.92,-5.34
4.9306,-15.337,-1.185,-1.8332,2.6622,-2.9532,52.5,53.58,-4.68
4.6445,-12.667,-0.7355,-1.5015,1.8579,-2.6701,50.94,54.9,-2.46
3.9227,-11.509,-0.58567,-1.1945,0.46853,-2.4505,49.56,55.56,-1.74
3.3506,-10.542,-0.68102,-1.084,-0.2645,-2.4209,47.76,56.16,-0.6
2.7377,-8.5944,-0.7355,-1.0177,-0.72601,-2.3063,43.56,57.18,1.5
2.4517,-7.7908,-0.92618,-0.93676,-1.1484,-2.2575,40.86,57.66,2.64
2.1929,-7.2733,-1.0215,-0.92729,-1.2196,-2.2306,38.16,57.96,3.72
1.9341,-6.8374,-1.0488,-0.9499,-1.2764,-2.2049,35.22,58.2,4.62
1.4438,-5.7478,-1.1577,-1.0003,-1.2401,-2.2257,28.5,58.68,6.18
1.3076,-5.4209,-1.2395,-1.0712,-1.1894,-2.2355,25.2,58.74,6.6
1.0215,-5.5707,-1.2258,-1.1426,-1.0996,-2.1933,21.66,58.62,6.84
0.7355,-5.9793,-1.1713,-1.3488,-0.83994,-2.0592,14.4,58.14,6.66
0.51757,-5.8295,-1.0215,-1.4914,-0.59284,-1.9337,10.8,57.72,6.66
0.32689,-5.6661,-0.96704,-1.5788,-0.31765,-1.7935,7.2,57.3,6.42
0.12258,-5.4209,-0.76274,-1.6277,-0.014661,-1.6383,0.48,55.86,6.6
-0.068102,-5.4073,-0.70826,-1.6038,0.27306,-1.4914,-2.64,54.9,6.78
-0.44947,-6.5786,-0.88532,-1.4713,0.50641,-1.2019,-5.7,54.0,7.08
-0.10896,-8.431,-1.58,-1.2434,0.69028,-0.42486,-10.68,51.84,7.98
0.19068,-9.1529,-1.4438,-1.1274,0.70097,-0.099571,-12.96,50.82,8.52
0.61292,-10.011,-1.1441,-0.65821,0.83322,1.1164,-15.06,49.62,9.06
0.44947,-11.06,-0.51757,-0.15088,1.0458,2.0748,-18.3,47.52,10.32
1.0624,-12.735,-0.6674,0.55528,1.3274,3.1423,-19.62,46.44,10.86
2.2337,-14.07,-1.2258,1.9193,1.543,4.4398,-21.06,44.64,11.52
3.7728,-15.337,-3.1327,2.8598,1.1405,4.9306,-21.12,43.98,11.58
4.3721,-15.609,-3.6503,3.2611,0.80084,5.0919,-20.82,43.74,11.7
4.9442,-15.677,-3.7184,4.0448,-0.562,5.1914,-20.04,43.32,11.58
5.2847,-15.554,-4.127,4.1469,-1.5449,4.9572,-18.78,43.26,11.28
5.489,-14.247,-5.6524,3.7773,-2.5336,4.4566,-14.82,43.32,9.96
5.3528,-12.898,-5.5707,2.9667,-3.3982,3.7324,-12.24,43.44,9.0
5.0395,-10.746,-4.6037,2.0882,-3.7034,2.9792,-9.48,43.68,7.92
2.2882,-6.456,-2.6151,1.3674,-2.8906,1.9816,-3.36,44.22,5.16
0.50395,-5.2575,-2.6015,1.394,-1.8751,1.2856,-0.06,44.52,3.66
-0.83084,-5.4073,-2.9965,1.5036,-0.68325,0.56719,3.24,44.76,1.98
-0.89894,-6.9872,-3.8001,1.4597,0.59407,0.093768,9.42,45.72,-1.14
0.1362,-7.5865,-4.3994,1.2416,1.646,-0.085216,12.48,45.96,-2.82
1.866,-8.1177,-4.9033,1.0458,2.3222,-0.20372,15.3,46.2,-4.08
5.2847,-9.1256,-4.9033,0.69639,2.3082,-0.067195,20.28,46.26,-6.6
6.6467,-9.3844,-3.9635,0.41447,1.6869,0.3427,22.26,46.38,-7.74
7.0281,-9.221,-3.4051,0.22694,0.72388,0.78313,24.12,46.38,-8.64
5.8295,-9.1801,-2.2882,0.15577,-0.20006,0.84696,26.46,46.68,-9.96
4.9033,-9.9292,-1.6889,0.076358,-0.49633,0.54581,27.42,46.8,-10.38
3.2961,-12.163,-1.7979,-0.15547,0.12889,-0.025656,28.08,47.52,-10.74
2.6287,-13.089,-0.78998,-0.54672,0.6692,-0.551,28.26,48.0,-10.68
2.9829,-13.607,0.17706,-0.60812,0.76725,-1.2257,28.32,48.66,-10.44
3.7865,-16.535,2.3427,-0.48686,0.6182,-1.5357,28.2,49.32,-9.96
0.98067,-19.409,3.5685,-1.1719,0.2926,-1.3277,27.6,50.46,-8.58
-0.92618,-19.218,3.3506,-1.7248,0.61942,-1.3564,27.18,51.3,-7.5
-2.1248,-14.615,3.2689,-1.4884,1.5751,-1.5537,26.88,52.02,-6.42
-1.185,-12.898,2.4108,-0.75747,2.5152,-0.70188,25.92,53.34,-4.02
-1.2667,-12.871,1.5119,-0.3375,2.3943,-0.30146,25.5,53.76,-2.7
-1.7434,-11.863,0.8717,-0.054978,2.1518,-0.28619,25.08,54.18,-1.2
-1.6753,-9.0848,0.17706,0.081551,1.9682,-0.24007,24.18,54.72,1.2
-1.3893,-8.7034,0.027241,0.15119,1.9371,-0.13806,23.76,55.02,2.4
-1.471,-8.4038,-1.2531,0.1518,1.9902,-0.057116,23.4,55.14,3.6
-1.4301,-7.641,-1.8932,0.083689,2.2251,0.05284,22.68,54.96,5.64
-1.2122,-6.8647,-1.9886,0.0018326,2.397,0.16066,22.32,54.78,6.54
-0.7355,-6.3607,-1.7434,-0.072998,2.5439,0.25687,22.2,54.48,7.38
-0.01362,-6.5514,-1.362,-0.13989,2.5507,0.33078,22.02,53.52,8.34
0.31327,-7.2324,-1.3348,-0.18357,2.4477,0.38149,22.2,52.98,8.7
0.54481,-8.2131,-0.95342,-0.281,2.3097,0.46151,21.84,51.9,9.24
1.3212,-9.4798,-0.54481,-0.34361,2.1997,0.58429,22.08,51.54,9.36
2.2201,-12.04,-0.16344,-0.32987,2.1393,0.72204,22.08,51.24,9.6
2.6015,-13.293,-0.16344,-0.35277,2.0403,0.90988,21.84,50.82,9.6
2.9284,-13.048,-0.29965,-0.45784,1.7984,0.99846,21.72,50.34,10.08
2.4653,-12.027,0.21793,-0.47342,1.7,0.8491,21.6,50.04,10.26
1.9477,-12.503,0.70826,-0.4218,1.7813,0.75472,21.6,49.8,10.56
2.0567,-11.346,0.24517,-0.36499,1.9847,0.47983,21.72,49.38,11.34
2.2065,-9.8475,-0.51757,-0.28711,1.9832,0.37446,21.78,49.2,11.7
2.3563,-8.4446,-1.0896,-0.098349,1.8637,0.23549,21.72,48.9,12.12
2.547,-7.8589,-1.7434,0.12339,1.1921,0.025351,21.72,48.66,12.6
1.8387,-7.9951,-1.975,0.1182,0.54489,-0.1237,21.78,48.3,13.38
0.96704,-8.1995,-1.6208,-0.021075,0.17104,-0.28436,21.84,48.0,13.68
-0.8036,-8.9622,-0.78998,-0.19548,0.25565,-0.40378,21.9,47.94,13.92
-1.3212,-9.5342,-0.84446,-0.50702,1.0058,-0.46792,21.72,47.46,14.28
-1.58,-10.134,-1.0215,-0.686,1.686,-0.47678,21.6,47.28,14.52
-1.5391,-10.256,-1.1713,-0.78771,2.3527,-0.47617,21.48,46.98,14.7
-0.58567,-8.9622,-1.1305,-0.74892,2.7199,-0.47922,20.7,46.56,15.18
-0.16344,-8.1722,-1.471,-0.62889,2.7764,-0.43005,20.1,46.38,15.36
0.24517,-7.641,-1.8251,-0.37965,2.3998,-0.27947,19.56,46.14,15.48
0.96704,-7.6819,-2.1384,-0.30879,2.1973,-0.21838,18.18,45.78,15.78
1.4438,-7.8181,-2.2201,-0.24038,1.74,-0.11423,17.4,45.78,16.14
1.5391,-7.8998,-2.2474,-0.19609,1.2956,-0.038179,16.68,45.72,16.32
1.5527,-8.7987,-2.4653,-0.15516,0.748,0.023213,15.0,45.54,16.74
1.6617,-9.3299,-2.5742,-0.15424,0.50702,0.040928,14.22,45.6,16.98
1.5663,-9.6432,-2.9148,-0.15608,0.36041,0.040928,13.32,45.48,17.28
1.2939,-10.515,-3.051,-0.13164,0.37599,0.016799,11.58,45.3,17.82
1.0624,-10.283,-2.9965,-0.17104,0.61361,-0.029627,10.68,45.36,18.06
0.89894,-9.6841,-2.833,-0.21869,0.97005,-0.12981,9.9,45.36,18.36
0.84446,-8.8805,-2.7649,-0.22419,1.2917,-0.23946,9.12,45.42,18.42
0.98067,-7.6002,-2.8603,-0.18998,1.4404,-0.31551,7.92,45.54,18.54
1.2531,-7.3414,-2.9829,-0.080634,1.3977,-0.35277,7.26,45.6,18.72
1.5936,-7.464,-3.1599,-0.054367,1.3302,-0.33323,6.12,45.66,18.84
1.7706,-7.7636,-3.2689,0.048869,0.95142,-0.19028,5.64,45.6,18.72
1.7706,-8.1722,-3.2825,0.065057,0.64813,-0.059254,5.04,45.66,18.72
1.4029,-9.8066,-3.0646,0.086132,0.46456,0.04948,3.84,45.78,18.6
1.1169,-10.76,-2.942,0.033598,0.49327,0.1405,3.36,45.9,18.54
0.81722,-11.591,-2.0294,-0.055283,0.76297,0.20006,2.52,45.96,18.3
0.83084,-12.177,-1.6753,-0.14722,1.394,0.2303,1.92,46.2,18.12
1.1032,-13.116,-1.3076,-0.18876,1.8259,0.31001,1.5,46.38,17.94
1.6344,-13.879,-1.1305,-0.24893,2.1509,0.36285,1.14,46.56,17.7
2.3699,-13.103,-1.2258,-0.28894,2.2376,0.34514,0.3,46.74,17.22
2.6423,-11.713,-1.0351,-0.32193,2.1298,0.28741,-0.3,46.92,16.86
2.5742,-10.229,-0.50395,-0.36285,1.8659,0.15913,-0.66,47.22,16.56
1.7843,-8.9213,-0.44947,-0.4102,1.4777,-0.15608,-1.26,47.58,15.66
1.0896,-8.6353,-0.54481,-0.41814,1.4056,-0.30024,-1.68,47.7,15.36
0.91256,-8.8532,-0.53119,-0.42211,1.4197,-0.32467,-1.98,47.94,15.0
0.96704,-9.4798,-0.38137,-0.46395,1.5922,-0.2532,-2.4,48.06,14.22
1.0896,-10.025,-0.38137,-0.45418,1.6967,-0.15088,-2.82,48.0,13.74
1.4029,-10.869,-0.24517,-0.44593,1.6924,-0.000916,-3.06,48.0,13.14
2.1248,-11.264,-0.095342,-0.47861,1.5241,0.14691,-3.72,48.06,12.0
2.0431,-10.556,-0.095342,-0.47983,1.4536,0.15027,-4.08,47.88,11.4
1.8387,-9.8611,-0.28603,-0.43982,1.3515,0.10232,-4.44,47.76,10.92
1.471,-8.9349,-0.62654,-0.35705,1.3323,-0.050091,-5.1,47.58,10.08
1.3484,-8.4446,-0.74912,-0.32651,1.3757,-0.13897,-5.22,47.28,9.36
1.4846,-8.0088,-0.8036,-0.32895,1.43,-0.15211,-5.64,47.16,8.82
1.7843,-8.0496,-0.64016,-0.36713,1.4325,-0.086743,-6.48,46.98,8.04
1.9068,-8.2539,-0.5993,-0.39767,1.4041,0.011301,-6.84,46.92,7.44
2.0703,-8.3629,-0.49033,-0.40256,1.3784,0.0562,-7.26,46.74,6.9
2.2201,-9.0984,-0.44947,-0.35339,1.2645,0.24862,-8.04,46.62,5.4
2.2201,-9.3844,-0.12258,-0.32895,1.2599,0.35216,-8.46,46.5,4.74
2.0839,-9.221,0.12258,-0.32559,1.3635,0.39737,-8.76,46.44,4.14
2.2746,-8.8668,0.47671,-0.29047,1.6145,0.42944,-9.3,46.26,3.06
2.3699,-8.8805,0.49033,-0.24862,1.7171,0.43677,-9.36,46.32,2.34
2.5742,-8.7306,0.40861,-0.17226,1.7205,0.43707,-9.78,46.26,1.62
2.8467,-8.5808,0.19068,-0.060476,1.5941,0.47037,-10.26,46.26,-0.06
2.9556,-8.6353,0.21793,0.059559,1.4218,0.51649,-10.5,46.26,-0.66
3.0918,-9.0848,0.21793,0.14172,1.2495,0.59559,-10.68,46.26,-1.5
3.0373,-9.2891,0.054481,0.22449,1.0153,0.6918,-11.1,46.26,-3.18
3.2553,-9.2618,-0.068102,0.26542,0.88178,0.71929,-11.16,46.26,-4.08
3.2416,-9.2891,-0.14982,0.28772,0.76541,0.73029,-11.4,46.44,-4.86
3.1735,-9.616,-0.31327,0.28527,0.70585,0.71746,-11.76,46.62,-6.24
2.9692,-10.406,-0.19068,0.26328,0.73273,0.7251,-12.0,46.74,-7.02
2.8875,-11.523,-0.14982,0.20097,0.88942,0.77274,-12.42,46.8,-7.74
2.9284,-12.626,-0.39499,0.069944,1.3179,0.8039,-13.26,46.74,-9.18
3.1054,-11.986,-0.72188,-0.0079412,1.6457,0.74373,-13.74,46.8,-9.72
3.2553,-11.128,-1.0351,-0.030849,1.7911,0.66309,-14.1,46.92,-10.5
3.3097,-8.8668,-1.3212,-0.072082,1.9731,0.23824,-14.64,47.1,-10.98
3.0237,-8.2812,-1.362,-0.014355,1.8189,-0.065973,-15.72,47.16,-12.3
2.9284,-9.5206,-1.8932,0.019853,1.4584,-0.33598,-16.26,47.04,-12.84
2.6423,-10.665,-2.1929,-0.088575,0.94073,-0.58796,-17.52,47.04,-14.1
1.6889,-11.918,-2.2474,-0.24221,0.79015,-0.55833,-18.36,46.98,-14.64
1.1441,-11.482,-2.1248,-0.405,0.83597,-0.50671,-19.26,46.74,-15.06
0.7355,-10.351,-2.2201,-0.50396,1.0708,-0.44257,-20.1,46.56,-15.3
0.35413,-8.3765,-2.4517,-0.48991,1.3555,-0.34911,-22.14,46.26,-15.84
0.68102,-7.5457,-2.5879,-0.405,1.5183,-0.2587,-22.92,46.08,-16.2
1.4438,-7.0009,-2.6015,-0.28497,1.4016,-0.17959,-23.7,46.08,-16.32
2.2201,-6.6604,-2.6287,-0.14294,0.82803,-0.066279,-25.32,45.66,-16.8
2.438,-6.7557,-2.6832,-0.09896,0.5565,-0.0281,-26.1,45.36,-16.8
2.4789,-6.8374,-2.7649,-0.03146,0.03879,0.046731,-26.7,44.94,-16.86
2.2746,-6.6467,-2.942,0.0076358,-0.44257,0.085521,-28.02,44.28,-16.62
2.2882,-6.4969,-3.1054,0.030543,-0.62553,0.054367,-28.8,44.1,-16.56
2.2882,-5.9657,-3.0646,0.0076358,-0.77946,-0.067501,-29.88,43.56,-16.14
2.2882,-5.6252,-3.0373,-0.019853,-0.87323,-0.19456,-30.36,43.32,-15.9
2.3563,-5.4754,-2.9148,-0.03146,-1.0088,-0.33934,-30.6,42.9,-15.66
2.4517,-5.4754,-2.9011,-0.043371,-1.1051,-0.38698,-30.9,42.54,-15.42
2.7377,-5.884,-2.8603,-0.089492,-1.4972,-0.49847,-31.56,41.94,-14.52
2.6968,-6.3198,-2.9148,-0.11026,-1.6402,-0.5174,-32.04,41.58,-13.98
2.5879,-7.0826,-2.9011,-0.21655,-1.9768,-0.50488,-32.64,41.22,-13.38
2.3427,-7.75,-2.5742,-0.41203,-2.014,-0.4441,-33.36,41.1,-12.6
1.8932,-8.3901,-2.2746,-0.47953,-1.9267,-0.41356,-34.68,40.44,-10.92
1.7298,-8.6353,-2.0839,-0.697,-1.3613,-0.36011,-35.58,40.32,-10.08
1.5936,-9.0303,-1.7979,-0.74495,-0.83963,-0.36805,-36.66,40.2,-9.24
2.0294,-10.774,-2.0294,-0.77794,-0.42516,-0.33048,-38.7,39.48,-7.68
2.5334,-12.108,-1.7843,-0.81978,-0.24526,-0.23457,-40.14,39.3,-6.9
3.1191,-14.587,-1.757,-0.79901,-0.32803,-0.061392,-41.52,38.82,-6.06
4.127,-18.578,-2.0294,-0.80329,-0.7926,0.37171,-44.76,38.4,-4.44
4.7944,-19.477,-1.9205,-0.8097,-1.0544,0.63591,-46.56,38.34,-3.84
4.808,-19.518,-1.5527,-0.91844,-0.88545,0.78649,-48.84,38.28,-3.3
4.0316,-18.101,-0.89894,-1.0684,-0.25259,0.70494,-53.82,39.0,-1.5
2.9965,-16.031,-0.62654,-1.2324,0.71349,0.36377,-56.4,39.6,-0.24
1.9205,-13.77,-0.46309,-1.3115,1.5632,-0.28069,-58.74,40.5,1.14
2.3155,-9.8339,-0.58567,-1.1744,2.303,-1.3693,-62.94,42.24,4.38
2.9284,-8.7443,-0.6674,-1.0525,2.4398,-1.7407,-64.8,43.02,6.24
3.4459,-7.7091,-0.99429,-0.98288,2.3292,-1.8628,-66.48,43.5,7.98
3.7728,-6.9328,-1.185,-0.75411,1.5424,-2.0672,-68.22,43.92,9.78
3.7184,-5.9657,-1.9613,-0.64568,0.74312,-2.0247,-71.34,44.22,13.2
3.4868,-5.8023,-1.9205,-0.61514,-0.11332,-1.8821,-72.66,44.16,14.76
3.1872,-5.6116,-1.7434,-0.68478,-0.86407,-1.6948,-73.92,43.98,16.32
1.7298,-5.0531,-1.6617,-0.78954,-1.3467,-1.5632,-75.42,43.02,19.8
1.1169,-4.985,-1.5527,-0.91783,-1.5562,-1.4178,-75.84,42.3,21.78
0.58567,-5.0259,-1.4029,-1.0962,-1.3115,-1.1542,-75.66,41.04,23.46
-0.095342,-4.8625,-1.2803,-1.2101,-0.85918,-0.978,-74.7,37.92,26.22
-0.47671,-4.9033,-1.3076,-1.2291,0.076358,-0.58551,-74.34,35.7,27.24
-0.38137,-5.3119,-1.3076,-1.2376,0.41936,-0.4163,-73.98,31.44,28.68
-0.19068,-5.38,-1.4301,-1.1829,1.3234,0.062614,-73.8,29.28,29.22
-0.19068,-5.3119,-1.3484,-1.1396,1.5608,0.23121,-73.8,27.3,29.7
0.76274,-6.0474,-1.3484,-0.96089,1.9621,0.79321,-74.04,24.0,30.42
1.3757,-7.1234,-1.4165,-0.88759,1.9285,1.1487,-74.34,22.5,30.72
2.1384,-8.717,-1.6889,-0.75014,1.7214,1.5763,-75.12,20.1,30.9
3.3234,-11.155,-2.1793,-0.46884,1.7153,1.9474,-75.72,19.26,30.78
5.2983,-13.716,-2.5879,-0.25809,1.7144,2.1686,-76.62,18.6,30.48
6.1973,-15.078,-2.7922,0.29108,1.5696,2.6854,-77.4,18.24,29.52
8.1722,-17.366,-4.0044,1.2892,0.96272,3.3469,-79.62,18.48,27.06
8.9486,-16.889,-4.9987,1.9099,0.1744,3.3866,-80.52,19.08,25.44
9.4253,-14.315,-6.7012,2.4364,-1.4276,2.8961,-82.08,21.42,21.24
8.5808,-11.7,-6.565,2.397,-2.2801,2.3732,-82.44,22.86,19.02
7.355,-9.9292,-5.5162,2.2684,-2.5348,2.0962,-82.86,24.48,16.86
5.775,-9.0167,-4.4811,1.8521,-2.6835,1.5571,-83.04,26.34,14.88
3.3642,-7.2596,-3.5413,1.1845,-2.2333,0.67867,-82.44,30.42,11.4
2.5334,-6.3743,-3.7592,0.92454,-1.7715,0.073915,-81.9,32.46,9.84
1.7706,-5.4073,-4.0452,0.75992,-1.2449,-0.30299,-81.3,34.5,8.58
1.471,-4.4266,-4.0725,0.61331,-0.35827,-0.47617,-79.62,38.4,6.36
1.5663,-3.8273,-3.9227,0.49908,0.12187,-0.50855,-78.6,40.08,5.52
1.8524,-3.5413,-3.8409,0.49144,0.32895,-0.46914,-77.46,41.58,4.86
2.3836,-3.1191,-3.7865,0.50946,0.17929,-0.35919,-76.26,42.84,4.32
2.9692,-3.1327,-3.732,0.55008,-0.2587,-0.22541,-74.22,44.34,3.6
3.1599,-3.4732,-3.8273,0.58551,-0.87323,-0.020464,-73.44,44.64,3.6
3.3778,-4.3449,-3.8001,0.60415,-1.4908,0.2474,-72.84,44.46,3.72
3.0782,-5.6252,-4.0452,0.50946,-2.1591,0.64721,-71.88,43.86,4.14
2.9965,-6.3743,-3.9635,0.34819,-2.3237,0.81062,-71.52,43.26,4.44
2.7649,-6.8102,-3.7728,0.26359,-2.255,0.85216,-71.16,42.36,4.62
2.3291,-8.3765,-3.6503,0.12981,-1.7917,0.94348,-70.98,41.28,4.98
1.757,-12.585,-3.4868,0.0027489,-1.3124,0.97341,-70.14,39.0,6.06
1.4165,-15.459,-3.5004,-0.26756,-0.36744,0.89461,-69.48,37.68,6.78
1.3757,-18.714,-3.5277,-0.4386,0.047647,0.83475,-67.92,35.28,8.46
1.7706,-19.518,-2.3018,-1.3799,1.7196,0.47373,-66.96,34.2,9.54
1.9886,-19.532,-1.5119,-1.6835,2.4221,0.24526,-65.94,33.06,10.62
2.0294,-19.532,-1.0215,-2.2813,4.4263,-0.62797,-65.04,32.1,11.58
2.1929,-15.323,-0.32689,-2.2129,5.2116,-1.2929,-64.32,30.9,13.62
2.3291,-14.247,-0.25879,-1.9233,5.3839,-2.0522,-64.26,30.48,14.58
3.514,-11.291,-0.20431,-1.544,5.028,-2.6728,-64.56,30.06,15.36
4.3858,-9.5479,-0.54481,-1.1619,4.1704,-3.0659,-65.4,29.34,16.8
4.985,-7.8726,-0.96704,-0.78435,2.9132,-3.0846,-66.0,28.8,17.52
5.3119,-6.4288,-1.4846,-0.26389,0.72693,-2.3808,-66.66,28.2,18.0
4.5083,-5.2575,-1.9341,-0.01069,-0.70005,-1.8051,-68.22,27.3,18.66
3.2553,-4.5764,-1.8251,0.15272,-2.233,-1.4282,-69.18,26.82,19.14
1.9613,-3.1599,-1.6344,0.11851,-2.7785,-1.2483,-70.56,25.86,19.92
1.471,-2.5198,-1.4029,0.011606,-2.9798,-1.1365,-71.16,25.44,20.4
0.9398,-2.2746,-1.1986,-0.084605,-2.8625,-1.0919,-71.46,25.02,21.18
0.28603,-2.3291,-0.95342,-0.17257,-2.5033,-1.0146,-71.76,24.42,22.26
-0.61292,-3.2553,-0.91256,-0.28558,-1.9462,-0.84391,-70.62,22.92,24.72
-0.74912,-4.0316,-1.1577,-0.43707,-1.2862,-0.61758,-69.54,22.02,26.04
-0.8036,-4.8488,-1.4301,-0.63469,-0.52565,-0.32712,-66.54,20.4,28.86
-0.72188,-5.3528,-1.4029,-0.832,0.6014,0.20678,-64.98,19.8,30.12
-0.61292,-6.3743,-1.5119,-0.87415,1.288,0.66462,-63.36,19.32,31.44
-0.35413,-7.8726,-1.185,-0.90103,1.9264,1.1985,-61.86,19.02,32.4
0.19068,-10.896,-0.8036,-0.89675,2.4807,1.7678,-59.1,18.6,33.9
0.81722,-13.021,-0.23155,-0.81673,2.989,2.3372,-57.96,18.6,34.2
1.4846,-15.84,0.47671,-0.58063,3.4089,2.9312,-56.52,18.66,33.54
3.8682,-19.382,0.47671,-0.13103,3.6716,3.5949,-55.98,18.96,32.58
5.8295,-19.518,-1.5663,0.65027,3.5357,4.2767,-55.56,19.38,31.26
7.2869,-19.532,-3.2825,2.3986,1.5724,4.8396,-54.84,20.04,29.46
10.801,-17.23,-8.322,3.4853,-1.4835,4.6814,-53.22,21.66,25.2
10.637,-15.813,-8.0632,4.0439,-4.6719,4.0534,-52.2,22.86,22.92
8.0496,-13.511,-4.9987,2.9147,-7.3902,3.1713,-51.24,24.06,20.82
4.4266,-10.637,-1.9613,2.2474,-7.564,2.8424,-48.72,26.94,16.92
0.51757,-6.9736,-1.471,1.2446,-6.6325,1.9896,-47.16,28.68,15.36
-1.7706,-4.8488,-1.8115,0.61667,-4.4117,0.77152,-45.42,30.54,14.04
-2.547,-4.0861,-2.2065,0.77641,-3.0076,0.18326,-43.74,32.22,12.9
-3.4732,-3.9363,-4.127,0.81184,-1.4933,-0.14416,-39.48,35.64,11.1
-3.1463,-3.8137,-4.7399,0.58185,0.58307,-0.29658,-37.38,37.44,10.5
-2.1112,-3.1872,-5.1213,0.4945,1.168,-0.34728,-35.34,39.0,10.14
0.21793,-2.6696,-5.7205,0.38118,2.543,-0.55619,-31.44,41.64,9.84
1.4438,-3.2144,-5.993,0.23976,2.9868,-0.54062,-29.94,42.54,9.9
2.8603,-3.8682,-5.8976,0.019242,2.9105,-0.25412,-28.8,43.2,9.96
5.3664,-4.1814,-5.1213,-0.23763,2.2177,0.22327,-26.88,43.92,10.14
5.8295,-4.3858,-4.8625,-0.35461,0.93615,0.6805,-26.04,43.92,9.96
5.8295,-5.3528,-4.5356,-0.36835,-0.56566,0.86285,-25.2,43.68,9.66
4.1406,-8.717,-3.514,-0.41325,-1.6041,0.79504,-23.88,42.66,8.7
3.0918,-10.896,-2.8739,-0.51007,-1.9975,0.79779,-23.22,41.88,8.22
2.4925,-12.871,-2.2474,-0.69364,-1.3378,0.80146,-22.56,41.16,7.56
0.65378,-19.3,-2.7513,-1.1383,-0.2981,0.48106,-21.12,39.42,6.12
0.35413,-19.477,-2.5334,-2.4468,1.7324,-0.54642,-20.22,38.58,5.58
1.2803,-19.532,-0.68102,-2.7623,3.28,-1.3576,-18.78,36.78,4.92
2.3699,-19.532,-0.12258,-2.8286,3.9529,-1.6994,-18.18,36.06,4.74
3.1191,-19.532,-0.068102,-2.7718,4.8277,-2.3243,-18.0,35.46,4.8
3.4459,-17.42,-0.17706,-2.051,4.8292,-3.277,-17.82,34.92,4.98
3.8546,-13.988,-0.47671,-1.46,4.0879,-3.8258,-19.08,34.2,5.46
4.2223,-12.122,-0.53119,-0.96883,2.1958,-4.2137,-20.16,34.02,5.94
4.808,-9.9429,-0.69464,-0.62492,1.4685,-4.207,-23.4,33.36,7.02
4.8352,-8.9758,-0.95342,-0.30268,-0.67226,-3.8118,-25.38,32.82,7.8
4.4675,-8.4991,-1.2258,-0.18784,-1.8314,-3.394,-27.54,32.28,8.46
3.051,-7.8998,-1.471,-0.197,-2.7031,-3.12,-32.46,31.14,10.32
2.1929,-7.2052,-1.2531,-0.29932,-3.2153,-2.9731,-35.22,30.24,11.34
1.0351,-6.17,-0.9398,-0.47861,-3.3646,-2.8078,-37.92,29.34,12.42
-0.23155,-5.4618,-0.8036,-0.8375,-2.9309,-2.587,-43.14,27.3,14.7
-1.185,-4.9987,-0.64016,-1.0678,-2.306,-2.4554,-45.3,26.04,16.08
-1.6208,-4.8216,-0.61292,-1.1515,-1.9138,-2.3607,-47.04,24.78,17.4
-2.2474,-3.9227,-0.50395,-1.3424,-0.5846,-1.8992,-49.74,21.66,20.58
-2.1656,-3.3915,-0.68102,-1.3592,0.32742,-1.5085,-50.4,19.98,22.08
-1.7298,-3.1463,-0.81722,-1.2843,0.99113,-1.0727,-50.94,18.24,23.58
-0.6674,-3.5958,-1.1441,-1.1438,1.3867,-0.58643,-51.42,15.0,25.86
-0.095342,-4.413,-1.2258,-0.9163,1.5223,-0.034208,-51.42,13.56,27.0
0.70826,-5.0531,-1.2803,-0.67623,1.471,0.59162,-51.42,12.18,27.96
1.58,-7.5729,-0.89894,-0.26359,1.0815,1.5635,-51.48,9.84,29.04
1.7434,-9.0167,-0.72188,0.078496,0.78405,2.2929,-51.48,9.06,29.46
2.152,-10.556,-0.44947,0.87629,0.46976,3.4282,-51.42,7.92,29.7
2.7649,-14.996,-0.53119,1.6325,0.1628,4.2898,-51.42,7.98,29.64
4.0589,-17.897,-1.2531,2.5281,-0.18723,5.0491,-51.54,8.28,29.58
4.6718,-18.891,-1.8524,3.0476,-0.41417,5.3096,-51.36,8.94,29.16
6.4016,-19.341,-4.413,4.569,-1.9297,5.6184,-50.34,11.64,28.2
6.1155,-18.796,-7.2188,5.2507,-3.1044,5.4104,-49.5,13.56,27.42
5.1349,-18.02,-8.6625,5.1352,-3.0171,5.0161,-48.18,15.84,26.7
7.0962,-14.805,-6.2517,3.2904,-4.9773,3.4945,-44.64,20.88,25.08
7.2869,-13.43,-4.7807,1.6649,-5.0302,2.3246,-42.48,23.7,24.12
5.2438,-9.8066,-2.7241,1.113,-4.4535,1.814,-40.14,26.58,23.28
-1.5255,-3.1735,-1.4165,0.40592,-2.7465,0.57482,-34.56,32.22,21.78
-2.8194,-2.6423,-2.1112,1.0091,-1.7523,-0.32895,-31.5,35.04,21.0
-2.7241,-4.8625,-3.3506,1.1921,-0.61025,-0.81184,-28.62,37.8,20.16
-1.9886,-5.7478,-4.5492,0.77763,0.9612,-1.0577,-22.74,42.36,18.66
-0.84446,-5.2302,-5.6252,0.50457,1.9923,-1.2538,-20.04,44.34,17.7
-0.84446,-5.1894,-6.0883,0.39187,2.4261,-1.3247,-17.64,46.02,16.92
2.9556,-6.2245,-6.6876,0.039095,3.0873,-1.1503,-13.92,48.48,15.0
4.4539,-6.7693,-6.4424,-0.2364,2.9343,-0.61361,-12.54,49.26,14.28
5.1894,-7.0145,-5.7205,-0.40989,2.2315,0.080329,-11.76,49.8,13.56
4.9987,-8.1177,-4.8216,-0.3711,0.95661,0.68692,-10.8,50.52,12.48
4.6445,-9.7658,-4.5356,-0.26603,-0.83505,0.84086,-10.62,50.64,12.0
3.9908,-12.354,-3.8273,-0.15455,-1.2483,0.96333,-10.44,50.88,11.58
3.3642,-19.164,-3.5413,-0.11118,-1.7019,1.4652,-10.8,51.24,10.8
2.6832,-19.491,-2.3291,-1.3861,-0.89217,1.5638,-10.92,51.42,10.62
2.3563,-19.532,-1.2122,-2.6209,0.47281,0.97861,-10.92,51.66,10.44
2.3972,-19.532,-0.69464,-3.0442,2.2886,-0.026573,-10.98,51.78,10.8
1.2258,-15.813,-0.92618,-2.8341,3.8741,-1.4135,-10.98,51.66,11.22
1.1713,-14.819,-1.2122,-2.6609,4.0827,-1.9313,-11.22,51.42,11.64
2.4789,-12.653,-1.2395,-1.9532,4.0003,-3.3876,-11.88,50.58,12.84
3.337,-11.713,-1.1032,-1.5986,3.6001,-3.9776,-12.78,50.1,13.38
4.4266,-10.556,-0.92618,-1.3344,2.9034,-4.2293,-13.74,49.56,13.92
5.4618,-8.3901,-0.99429,-1.1713,1.8411,-3.9367,-16.68,47.94,15.0
5.1894,-7.8045,-1.0215,-1.0473,-0.1069,-3.5094,-18.54,46.98,15.54
4.4947,-7.4231,-1.076,-1.0235,-0.75411,-3.3781,-20.64,45.66,16.02
2.4789,-6.7966,-1.1441,-1.1182,-2.1936,-3.3344,-25.32,42.84,17.04
1.757,-6.2381,-0.98067,-1.2562,-2.7526,-3.2519,-27.9,41.1,17.64
1.1169,-6.1155,-0.83084,-1.4148,-2.9377,-3.0473,-30.66,39.36,18.12
-0.36775,-6.2654,-0.40861,-1.6218,-2.7284,-2.784,-36.06,35.64,19.14
-0.83084,-6.1292,-0.21793,-1.9099,-1.7123,-2.2953,-38.4,33.78,19.8
-1.6889,-5.2575,0.17706,-1.96,-1.2596,-2.1154,-40.62,31.92,20.34
-1.7298,-4.8488,0.23155,-1.9606,0.13897,-1.4728,-44.22,28.02,21.6
-1.3757,-4.3858,0.21793,-1.7724,0.91813,-1.0568,-45.42,26.04,22.38
-0.9398,-4.1406,0.10896,-1.4688,1.4407,-0.62553,-46.5,24.0,22.98
0.43585,-4.9306,-0.58567,-1.0681,1.6561,-0.11209,-47.82,20.34,24.24
1.2531,-5.9657,-1.1577,-0.60231,1.5345,0.73059,-48.3,18.48,24.72
1.6617,-7.1915,-1.6344,-0.10079,1.0644,1.0324,-48.66,17.04,25.14
1.471,-9.8066,-1.471,0.63041,0.12553,2.0831,-48.72,14.28,25.86
1.362,-11.673,-1.1169,0.90042,-0.1011,2.5198,-48.78,13.32,25.98
1.4574,-13.13,-0.99429,1.8357,-0.32376,4.032,-48.6,12.42,26.1
2.5061,-16.957,-2.6015,2.6478,-0.21808,4.9138,-48.24,11.88,26.22
3.0646,-17.965,-3.8001,3.8805,-0.28711,5.6878,-48.06,12.24,25.86
3.8682,-19.055,-6.0611,4.5305,-0.71563,5.9691,-46.98,13.74,25.32
4.0316,-19.395,-6.6059,4.9401,-1.2492,6.1154,-46.26,15.42,24.96
3.6639,-19.45,-6.6331,4.6759,-1.5256,5.8234,-45.12,17.22,24.36
3.5958,-17.897,-6.0202,3.3668,-1.8692,4.736,-41.7,21.72,23.16
4.5764,-14.969,-5.6524,1.9487,-1.8057,3.5858,-39.48,24.3,22.5
5.2302,-9.3163,-3.1463,0.55192,-1.2865,2.4315,-34.32,29.76,21.42
3.1872,-5.4345,-2.4789,0.5226,-1.1017,1.6906,-31.62,32.64,20.88
1.2939,-4.413,-2.4517,1.175,-1.0208,0.63622,-28.62,35.4,20.34
0.58567,-5.5435,-3.0646,1.5745,-0.6127,-0.26053,-25.62,38.1,19.68
0.95342,-8.4174,-4.5628,1.4404,-0.068722,-0.58765,-19.68,43.38,18.12
1.6753,-9.0575,-5.6252,0.98135,0.48839,-0.70921,-16.98,45.72,17.34
2.6696,-8.7306,-6.0611,0.46365,1.0452,-0.74526,-14.52,47.7,16.68
3.6503,-6.8374,-5.6524,0.022297,1.5082,-0.52748,-10.44,51.42,14.88
3.732,-5.5162,-5.3664,0.014355,1.4783,-0.39034,-8.76,52.92,14.1
3.8273,-5.2847,-5.1485,0.071166,1.0797,-0.13317,-7.32,54.18,13.44
3.8409,-5.8295,-4.4675,0.062003,0.044288,0.020159,-5.88,56.1,12.78
3.732,-5.8976,-4.3313,-0.093462,-0.51313,0.079412,-5.7,56.94,12.42
3.6094,-6.0611,-4.0316,-0.27825,-0.89064,0.13164,-5.82,57.72,12.24
3.4459,-6.96,-3.8001,-0.54581,-1.2367,0.028711,-6.48,59.46,12.48
2.9011,-7.9134,-3.6503,-0.70402,-1.2492,-0.10934,-7.08,60.12,12.66
2.4244,-9.3163,-3.4732,-0.8885,-0.99571,-0.23335,-7.92,60.9,13.26
1.7162,-12.449,-2.9965,-1.066,-0.48503,-0.39798,-9.54,61.98,15.12
1.3484,-15.159,-2.8739,-1.1613,0.219,-0.59926,-10.2,62.34,16.26
1.2395,-19.0,-3.0918,-1.5195,1.1994,-0.8491,-10.62,62.58,17.46
1.4438,-19.518,-1.2531,-2.5727,2.9053,-1.4496,-11.04,62.04,20.46
1.8932,-19.532,-0.35413,-2.8738,3.919,-1.9981,-11.34,61.44,22.08
2.152,-19.532,-0.01362,-2.8766,4.3072,-2.2492,-11.64,60.42,23.58
2.9556,-17.87,-0.12258,-2.3109,4.725,-2.828,-12.24,57.48,25.98
3.4187,-16.29,-0.58567,-1.748,4.2003,-3.2339,-12.78,55.56,26.82
3.9635,-14.301,-1.0624,-1.1283,3.0956,-3.5711,-13.56,53.58,27.36
4.7535,-10.42,-1.6072,-0.3989,0.89431,-3.5271,-15.9,48.9,27.24
4.6718,-8.8532,-1.6753,-0.1011,-0.49908,-3.1624,-17.28,46.62,27.0
4.0725,-7.7364,-1.6753,0.036652,-1.5803,-2.7669,-18.78,44.16,26.34
2.438,-6.5378,-1.6072,0.073304,-2.3442,-2.5375,-22.32,39.48,24.48
1.7025,-5.6797,-1.5936,-0.014661,-2.7574,-2.3763,-24.36,37.14,23.22
0.95342,-4.4947,-1.4982,-0.15241,-2.8277,-2.2132,-26.52,34.92,21.9
0.040861,-3.7865,-0.96704,-0.34147,-2.4859,-2.0452,-31.14,31.38,19.08
-0.44947,-3.7592,-0.36775,-0.40439,-2.2349,-2.0058,-33.36,29.7,17.52
-0.74912,-3.6775,-0.10896,-0.51954,-1.6331,-1.9093,-35.64,28.38,16.14
-1.2258,-3.4732,-0.068102,-0.60995,-0.66157,-1.6463,-39.78,26.4,14.04
-1.1305,-3.6503,-0.040861,-0.63316,-0.015882,-1.368,-41.64,25.5,13.38
-0.92618,-3.8818,-0.19068,-0.61606,0.55894,-1.0238,-43.08,24.66,12.9
-0.31327,-4.0589,-0.40861,-0.53542,1.0657,-0.57849,-45.42,23.22,12.3
0.040861,-4.3313,-0.7355,-0.28588,1.5999,0.27336,-46.26,22.44,12.24
0.8036,-4.8352,-1.1169,-0.12156,1.6835,0.86926,-46.92,21.66,12.12
1.1032,-5.094,-1.3893,-0.01069,1.4526,1.3693,-47.34,21.06,12.06
1.3484,-6.8102,-2.1793,0.085827,0.92546,1.8647,-47.88,19.8,12.12
1.3484,-8.2812,-2.5061,0.1741,0.38698,2.4108,-47.94,19.26,12.3
1.2258,-11.005,-1.8524,0.25259,0.062614,3.281,-47.4,18.48,12.72
0.88532,-13.225,-1.362,0.3207,0.34606,3.9101,-46.86,18.42,12.9
0.72188,-14.301,-1.1441,0.47739,0.86926,4.4844,-46.2,18.54,13.08
0.5993,-17.271,-1.4574,0.6072,1.189,4.6927,-45.24,18.9,13.14
2.4925,-19.463,-3.4459,1.4047,1.9514,5.083,-42.6,20.28,13.5
5.2166,-19.532,-5.9112,2.1597,1.752,5.2861,-41.16,21.36,13.8
9.8748,-19.532,-8.5536,2.7578,0.11484,5.2403,-37.5,24.06,14.28
12.299,-19.463,-9.5751,2.8454,-2.7993,4.2816,-35.34,25.86,14.46
12.79,-15.936,-5.7069,1.6897,-2.8268,3.3598,-32.94,27.72,14.76
5.4345,-10.052,-0.85808,0.11026,-2.8921,2.5525,-27.36,31.38,15.0
1.3076,-6.1564,-0.81722,0.27275,-2.8408,1.2556,-24.48,33.12,15.12
-0.14982,-4.3449,-1.757,0.894,-2.4227,-0.56963,-18.96,36.6,15.12
0.53119,-6.6331,-3.4051,1.0208,-0.81398,-1.1356,-14.04,39.6,14.82
1.1577,-7.1507,-4.1542,0.80146,-0.34575,-0.95997,-11.88,40.92,14.7
2.0022,-5.9249,-4.699,0.29596,0.57391,-0.68325,-8.34,42.96,14.22
2.4108,-3.8818,-4.5083,0.018021,1.296,-0.66584,-5.76,44.34,13.26
2.8603,-2.8467,-4.1678,0.067806,1.3198,-0.57605,-3.78,45.12,12.6
3.4323,-2.6015,-3.9635,0.10537,1.0195,-0.27917,-2.94,45.06,12.06
3.7047,-2.6832,-3.732,0.13134,0.4163,0.036041,-2.94,45.0,11.58
3.7456,-3.2553,-3.514,0.15394,-0.29932,0.28069,-3.18,45.24,11.16
3.6366,-4.4266,-3.3097,0.1179,-1.1041,0.55039,-3.66,45.48,10.98
3.5004,-5.38,-3.3097,0.038485,-1.3436,0.70341,-3.6,45.54,10.98
3.4732,-6.7421,-3.5822,-0.07758,-1.3888,0.78557,-3.42,45.96,11.1
3.4459,-7.9679,-3.8273,-0.28253,-1.1765,0.70799,-3.0,46.38,11.4
2.9284,-9.4934,-3.3778,-0.50732,-0.69852,0.42516,-1.98,46.86,12.24
2.5198,-11.414,-2.6832,-0.72082,0.13714,-0.20586,-0.78,47.4,13.62
2.3427,-12.694,-2.3155,-0.76083,0.61148,-0.70769,-0.24,47.82,14.22
2.2882,-17.543,-1.866,-0.85368,1.0452,-1.2007,1.08,48.48,15.78
2.4517,-19.041,-1.8932,-1.5052,1.5543,-1.6661,1.56,48.48,16.56
3.0782,-19.532,-0.91256,-2.1698,2.0143,-2.0812,2.34,48.48,17.7
3.3506,-19.532,-0.9398,-2.3699,2.3198,-2.3573,2.64,47.76,18.3
3.3506,-19.164,-1.1169,-2.2465,2.5543,-2.5104,2.58,47.1,18.3
3.2825,-15.514,-1.471,-1.9068,2.5586,-2.6893,1.62,45.48,17.76
3.1054,-13.702,-1.6753,-1.4856,2.3103,-2.9074,0.6,44.52,17.16
2.7377,-11.564,-1.8796,-1.0156,1.5281,-3.1334,-2.58,42.36,15.3
2.6287,-9.8339,-2.2882,-0.85796,0.8207,-3.1533,-7.26,40.08,12.78
2.5606,-9.0031,-2.5742,-0.80084,0.14875,-3.0363,-9.84,38.7,11.46
2.2474,-7.6955,-2.8603,-0.82497,-0.35308,-2.799,-15.78,36.0,8.4
1.6072,-6.7421,-2.3427,-0.93798,-0.66829,-2.4994,-18.84,34.56,7.2
0.99429,-6.1292,-2.0839,-1.1738,-0.64324,-2.1811,-25.08,31.8,4.68
0.38137,-5.2711,-1.7162,-1.2785,-0.5003,-2.0546,-31.44,29.22,2.46
-0.01362,-4.5628,-1.5391,-1.31,-0.31307,-1.9728,-37.38,27.06,1.08
-0.16344,-4.413,-1.5391,-1.2901,-0.10385,-1.8854,-39.9,25.98,0.54
-0.32689,-3.9499,-1.5936,-1.274,0.15485,-1.671,-44.22,23.94,0.12
-0.19068,-3.5413,-1.7298,-1.2398,0.41081,-1.4016,-47.34,21.78,-0.06
-0.095342,-3.4868,-1.8387,-1.0898,0.63377,-0.87445,-48.42,20.64,0.12
0.19068,-3.4187,-2.0975,-0.9276,0.63286,-0.41508,-50.04,18.66,0.66
0.12258,-3.6503,-1.9068,-0.77091,0.56352,0.092852,-50.82,16.68,0.66
0.12258,-5.8567,-1.9068,-0.57635,0.49633,0.71746,-51.18,15.24,0.96
0.27241,-7.3141,-1.7025,-0.39492,0.48839,1.412,-51.12,14.64,1.02
0.14982,-11.591,-1.0896,-0.25595,0.56749,2.1823,-50.94,13.74,1.68
0.068102,-15.854,-0.50395,0.047953,1.1219,3.5131,-50.7,13.5,2.1
0.44947,-18.347,-0.25879,0.20983,1.4187,3.9978,-50.34,13.56,2.34
2.7922,-19.504,-0.62654,0.87293,2.3763,5.3674,-49.44,14.28,2.7
5.1485,-19.532,-2.3155,1.5159,2.6493,5.8674,-48.0,15.66,2.7
7.1098,-19.0,-5.5162,2.186,2.2254,5.9859,-45.9,17.7,2.22
7.3686,-15.473,-7.246,2.6515,1.2788,5.5433,-43.44,20.22,1.68
7.3414,-14.124,-7.4776,2.1661,-0.77183,4.244,-41.94,21.48,1.38
8.6898,-11.686,-3.4868,1.0507,-2.4538,2.9483,-38.34,24.54,0.54
5.0259,-8.0905,-0.17706,0.59498,-2.3986,2.0247,-34.8,27.54,-0.66
2.2201,-5.6933,0.31327,0.56627,-1.9768,1.5253,-32.82,29.04,-1.08
0.77636,-5.1213,-0.24517,0.90836,-1.3039,0.85338,-29.04,31.44,-2.4
0.78998,-7.4912,-1.9205,1.1274,-0.51588,0.27397,-25.5,33.78,-3.54
0.9398,-8.9894,-2.9829,0.6915,0.77488,0.24099,-22.5,35.64,-4.56
1.5255,-9.2755,-3.3778,0.14355,1.9233,0.54764,-21.18,36.42,-5.04
3.0101,-8.8124,-3.2961,-0.28711,2.9596,0.72968,-18.84,37.38,-5.82
4.8352,-8.0632,-2.1656,-0.36133,3.62,0.83353,-16.74,38.22,-6.66
5.4345,-8.1722,-1.9613,-0.18906,3.6734,1.0751,-15.24,38.7,-7.56
6.5105,-9.6704,-1.8387,-0.0067195,3.2083,1.2373,-14.34,38.88,-7.92
7.1098,-12.013,-2.0022,0.14813,2.5015,1.0088,-12.66,39.24,-8.82
6.5514,-13.184,-1.3757,0.19242,1.7159,0.38546,-11.28,39.42,-9.6
6.279,-14.043,-1.3076,0.26786,1.284,-0.0054978,-10.38,39.36,-9.96
5.094,-15.963,-2.4789,0.22358,0.87354,-0.42944,-9.18,39.66,-10.8
3.1463,-12.898,-3.0918,-0.1124,0.75167,-1.011,-7.98,39.84,-11.64
2.4108,-11.087,-3.6094,-0.4105,1.0556,-1.547,-7.68,39.84,-11.94
1.5391,-8.4446,-3.8273,-0.56841,1.5745,-1.7831,-7.14,39.9,-12.36
1.4574,-7.7091,-3.6366,-0.71685,2.4355,-1.9361,-7.2,39.78,-12.78
1.6072,-7.4095,-3.4868,-0.75411,2.7388,-2.0235,-7.38,39.66,-13.02
2.2474,-7.6138,-3.6911,-0.72388,2.6637,-2.0192,-8.22,39.36,-13.38
3.2416,-9.4798,-4.2904,-0.63866,2.1084,-1.9248,-9.24,38.94,-13.5
3.4732,-10.515,-4.3721,-0.58093,1.2663,-1.7459,-9.78,38.7,-13.56
3.3642,-12.803,-4.3721,-0.71288,0.46578,-1.4884,-10.98,38.1,-13.68
2.8194,-13.716,-4.2359,-1.1487,-0.32437,-1.0855,-12.54,37.26,-13.44
2.4789,-13.607,-4.1951,-1.3341,-0.55131,-0.96272,-13.14,37.02,-13.2
1.3212,-12.667,-4.1406,-1.3592,-0.50671,-0.94837,-14.82,36.36,-12.72
0.20431,-10.787,-3.8954,-1.3763,-0.28924,-1.0073,-16.56,35.88,-11.76
0.20431,-10.106,-3.7728,-1.3824,0.075747,-1.1322,-17.52,35.64,-11.34
0.20431,-9.112,-3.4596,-1.3622,0.45235,-1.2569,-19.56,35.34,-10.32
0.54481,-8.7987,-3.0646,-1.3888,0.8436,-1.285,-21.72,35.22,-9.54
0.6674,-8.6489,-2.9556,-1.4423,0.92027,-1.208,-22.74,35.28,-9.24
0.74912,-8.1177,-2.6151,-1.4856,0.92027,-1.054,-24.84,35.22,-8.76
0.81722,-7.7908,-2.3155,-1.5159,0.88178,-0.82345,-26.76,35.28,-8.46
0.76274,-7.6955,-2.152,-1.5247,0.87445,-0.53603,-28.44,35.46,-8.34
0.7355,-7.641,-2.0975,-1.5049,0.94776,-0.208,-28.86,35.58,-8.34
0.81722,-7.355,-1.757,-1.4838,1.1041,0.11087,-30.0,35.94,-8.46
0.96704,-7.3005,-1.4438,-1.3607,1.3803,0.53451,-30.54,36.18,-8.88
1.1305,-7.4912,-1.0896,-1.274,1.5418,0.80023,-30.66,36.3,-9.06
1.3484,-8.1177,-0.70826,-1.1881,1.6741,1.0464,-30.36,36.3,-9.24
1.7706,-8.717,-0.31327,-1.1313,1.7966,1.2532,-29.64,36.54,-9.18
1.9341,-8.7715,-0.20431,-1.0672,1.9086,1.4456,-29.16,36.6,-9.06
2.152,-8.7987,0.14982,-0.9951,2.0156,1.6176,-28.08,37.02,-8.52
2.261,-9.2891,0.58567,-0.8604,2.157,1.8857,-26.76,37.32,-8.28
2.2882,-10.678,1.0079,-0.7422,2.259,2.1249,-25.44,37.74,-7.8
2.438,-11.809,1.185,-0.63683,2.3411,2.4456,-23.82,38.22,-7.44
3.2553,-12.013,1.0488,-0.49663,2.3512,2.7425,-22.86,38.34,-7.2
4.4811,-10.038,0.54481,-0.30207,2.1939,2.937,-20.58,39.18,-6.72
4.9169,-9.5342,0.47671,0.088575,1.6704,3.0064,-18.24,39.84,-6.42
4.8352,-9.902,0.28603,0.36377,1.1768,2.8069,-17.04,40.14,-6.3
4.522,-10.733,-0.1362,0.61056,0.64019,2.4474,-14.52,40.68,-6.18
4.4811,-10.951,-0.57205,0.79046,0.1011,2.0571,-13.08,41.16,-6.18
4.413,-11.278,-1.2803,0.88148,-0.3259,1.7016,-10.26,41.52,-6.06
3.8409,-10.678,-1.4165,0.86376,-0.4945,1.3732,-7.5,42.0,-6.18
2.4925,-9.5206,-1.4438,0.76236,-0.35827,1.1121,-4.74,42.18,-6.36
2.0294,-9.1665,-1.4438,0.58887,0.4496,0.85185,-3.42,42.3,-6.36
1.6072,-8.7034,-1.3212,0.4948,1.2101,0.73609,-1.14,42.18,-6.78
1.8387,-8.717,-1.2258,0.43035,1.9258,0.70921,1.02,42.12,-7.14
2.2065,-8.7851,-1.3212,0.39156,2.4551,0.75259,1.98,42.18,-7.38
2.8194,-9.1937,-1.4438,0.37568,2.8054,0.83841,4.02,42.06,-8.1
3.4459,-9.398,-1.5255,0.4218,2.9667,0.9838,5.1,42.06,-8.46
4.2223,-9.902,-1.4438,0.50152,2.9447,1.1539,6.9,41.94,-9.0
4.4947,-10.188,-1.6481,0.6466,2.5782,1.3408,8.04,41.88,-9.36
4.6854,-10.161,-2.0022,0.7254,2.1915,1.3241,8.94,41.82,-9.42
5.2302,-9.1393,-3.0782,0.78954,1.8063,1.1808,11.1,41.7,-10.2
5.3119,-8.9349,-3.2144,0.82681,1.4245,0.95448,12.18,41.64,-10.32
5.1076,-8.826,-3.732,0.82864,1.0321,0.67623,13.32,41.58,-10.62
4.2359,-9.3163,-4.2359,0.77549,0.53634,0.2532,15.42,41.58,-11.1
3.909,-9.8066,-4.4811,0.74587,0.43341,0.13195,16.5,41.58,-11.34
3.4051,-10.474,-4.6037,0.55253,0.33872,-0.17013,17.52,41.58,-11.64
2.547,-11.904,-4.8625,0.39492,0.44196,-0.26023,19.32,41.28,-12.18
2.1248,-12.544,-5.0531,-0.10904,0.94348,-0.38087,20.1,41.1,-12.36
1.7979,-11.605,-4.8625,-0.3488,1.1637,-0.43738,21.36,40.92,-12.54
1.6889,-10.311,-4.4402,-0.75533,1.6319,-0.57757,21.9,40.8,-12.6
1.7706,-9.2755,-3.9227,-1.0015,2.065,-0.86346,22.2,40.74,-12.54
2.3291,-8.9894,-3.7184,-0.94562,2.0195,-1.065,22.56,40.56,-12.42
2.6968,-9.8611,-3.9635,-0.87842,1.6277,-1.1777,22.56,40.5,-12.24
3.5413,-12.422,-4.2223,-0.89675,0.63561,-1.0831,22.14,40.62,-11.52
3.5413,-13.593,-3.9227,-1.2236,0.11087,-0.85032,21.84,40.68,-10.92
2.9965,-13.838,-3.4868,-1.489,-0.10446,-0.64538,21.6,40.68,-10.2
2.6151,-13.389,-3.2008,-1.6628,-0.020769,-0.60567,21.06,40.62,-9.24
1.7025,-11.4,-2.4108,-1.7801,0.33262,-0.71685,20.22,40.62,-6.72
1.2803,-10.474,-2.2201,-1.8399,0.79138,-1.0128,19.56,40.68,-5.16
0.99429,-9.6432,-1.6481,-1.8546,1.1609,-1.4251,19.08,40.74,-3.36
0.95342,-9.398,-1.6344,-1.8506,1.5116,-1.9148,18.36,40.68,-1.68
1.1713,-9.4389,-1.5391,-1.839,1.6652,-2.0678,18.18,40.74,1.56
1.4029,-9.4525,-1.4301,-1.836,1.6964,-2.1053,18.12,40.68,3.06
1.7025,-9.221,-1.3212,-1.7886,1.5925,-1.9743,17.88,40.8,4.38
1.975,-8.9622,-1.3212,-1.7025,1.3974,-1.7003,17.04,41.28,6.42
1.9477,-8.6762,-1.2667,-1.6191,1.0599,-1.179,16.5,41.58,7.26
1.7025,-8.1177,-0.9398,-1.4795,0.84727,-0.84635,15.12,42.06,8.58
1.5936,-7.6002,-0.72188,-1.3961,0.70219,-0.55253,14.16,42.36,9.12
1.4301,-7.4367,-0.58567,-1.3173,0.65149,-0.30391,13.26,42.72,9.42
1.1305,-7.1371,-0.21793,-1.2422,0.73121,-0.074831,11.34,43.32,9.6
0.95342,-7.4367,-0.14982,-1.1127,0.89278,0.17349,10.44,43.68,9.66
0.96704,-8.0905,-0.054481,-0.98685,1.1081,0.52046,9.36,44.22,9.48
1.5527,-8.6762,-0.040861,-0.72876,1.412,1.1078,7.02,45.12,9.06
1.9613,-8.2812,-0.25879,-0.50427,1.5,1.4267,5.76,45.6,9.06
2.2337,-7.6138,-0.35413,-0.22541,1.4841,1.66,4.44,45.84,9.12
2.5061,-7.8045,-0.7355,0.079107,1.3598,1.7975,2.4,46.26,9.78
2.6015,-8.4855,-1.0896,0.39004,1.0928,1.861,1.68,46.5,10.2
2.5879,-9.4798,-1.5527,0.6915,0.68539,1.9083,1.14,46.68,10.62
2.6423,-10.719,-1.9886,1.0614,0.057116,2.0604,0.96,46.86,11.7
2.6423,-11.005,-2.1248,1.139,-0.10293,2.1414,1.32,46.98,12.12
2.6015,-10.842,-2.0975,1.3173,-0.38637,2.3799,2.1,47.1,12.6
2.4108,-9.7658,-2.152,1.3744,-0.3653,2.4948,4.2,47.16,13.56
2.3699,-9.3163,-2.1793,1.4371,-0.21289,2.5458,5.52,46.98,13.8
2.4108,-9.0303,-2.3836,1.5094,-0.061392,2.5247,7.2,46.92,13.86
3.1735,-9.0575,-3.0918,1.5904,-0.086437,2.398,10.74,46.44,13.92
3.4323,-9.1937,-3.514,1.6005,-0.18631,2.3427,12.6,46.32,13.86
3.5685,-9.221,-4.1133,1.5519,-0.40378,2.1997,14.58,46.2,13.56
3.5549,-8.1586,-4.0861,1.2694,-0.41111,1.8879,18.9,45.72,12.78
3.2961,-7.2324,-3.9227,1.0318,-0.21747,1.6237,20.94,45.24,12.36
3.3097,-5.993,-3.9363,0.88575,-0.065668,1.2981,23.16,44.82,11.82
3.5413,-5.38,-3.8137,0.83597,-0.25809,0.7086,27.18,44.22,10.62
3.6911,-5.8704,-3.9635,0.81978,-0.56047,0.43249,29.1,43.8,10.08
3.7728,-6.2381,-4.0452,0.74434,-0.91172,0.26542,30.72,43.56,9.36
4.1133,-6.9464,-4.3449,0.62217,-1.2868,0.16677,32.16,43.26,8.4
3.9908,-7.6683,-4.5356,0.4722,-1.6225,0.13134,34.8,42.96,6.36
3.6094,-7.8998,-4.8216,0.29688,-1.814,0.096822,36.0,42.84,5.34
2.9556,-7.5048,-4.5083,-0.069333,-1.6912,-0.078191,38.04,42.96,2.82
1.9068,-7.0281,-4.1814,-0.18295,-1.358,-0.25931,38.82,42.84,1.2
1.9341,-7.8045,-4.2904,-0.19273,-1.0996,-0.43402,39.54,42.84,-0.36
2.152,-8.6898,-4.2768,-0.27184,-1.0336,-0.51221,40.14,42.84,-1.98
3.2416,-13.77,-4.6445,-0.18906,-1.3631,-0.43402,40.86,43.2,-5.82
4.0725,-18.183,-5.1485,-0.022907,-1.8778,-0.11729,40.92,43.44,-8.04
4.7263,-19.368,-4.7535,-1.5476,-1.6008,0.33964,40.32,43.44,-13.08
2.4244,-19.532,-0.57205,-2.8008,-0.54734,0.19761,39.42,43.8,-16.08
0.99429,-18.701,0.17706,-3.4596,1.2129,-0.27092,38.16,44.28,-18.72
0.095342,-15.827,0.14982,-3.4798,2.0736,-0.59193,36.66,45.42,-21.18
0.095342,-15.827,0.14982,-3.2049,4.0928,-2.0061,36.66,45.42,-21.18
0.20431,-12.599,-0.40861,-3.0559,4.5396,-2.4911,34.56,46.98,-23.22
2.6151,-8.8668,-0.35413,-2.0275,4.8533,-3.8539,31.5,49.2,-23.64
3.3642,-7.4095,-0.31327,-1.5559,4.0861,-4.1969,23.76,53.4,-23.34
4.9306,-7.0417,-0.55843,-1.3787,3.5119,-4.2254,19.38,55.5,-22.8
5.3528,-6.7421,-0.92618,-1.1051,2.0574,-3.9871,14.94,57.48,-21.78
5.094,-6.7966,-1.3076,-0.88942,-0.38179,-3.2538,10.2,59.34,-20.46
3.7184,-7.4503,-1.4438,-0.92607,-1.6451,-2.8979,0.3,62.28,-16.92
2.2337,-7.6138,-1.1169,-1.0867,-2.3472,-2.6423,-4.68,63.66,-14.46
0.77636,-7.355,-0.7355,-1.3112,-2.4887,-2.3137,-14.4,65.88,-8.4
0.054481,-6.9055,-0.54481,-1.5724,-2.1151,-2.0064,-18.84,66.66,-4.74
-0.64016,-6.456,-0.29965,-1.7822,-1.3937,-1.8512,-22.98,67.26,-0.78
-1.2122,-6.17,-0.17706,-1.9371,-0.081856,-1.6582,-30.42,66.78,7.44
-0.89894,-6.4424,-0.054481,-1.9367,0.80451,-1.401,-33.78,65.64,11.28
-0.38137,-6.96,0.17706,-1.8237,1.5207,-1.0501,-36.18,63.54,13.74
0.47671,-8.0905,0.47671,-1.3344,2.2239,-0.1179,-40.08,59.28,17.88
1.6889,-8.7987,0.64016,-0.81215,2.4419,0.84238,-41.58,57.0,19.56
2.3291,-9.1256,0.50395,-0.46884,2.4722,1.3818,-43.26,55.02,20.88
5.2166,-9.9973,-0.50395,0.82131,2.0849,3.0675,-46.08,52.14,22.62
6.1836,-10.215,-1.6481,1.8103,1.3262,3.9676,-47.22,51.12,22.92
6.8647,-10.733,-3.1599,2.8265,-0.18418,4.5439,-48.24,50.7,22.68
7.5457,-12.027,-6.456,3.6774,-2.3268,4.7144,-50.04,51.06,20.88
7.1098,-12.19,-6.674,4.3619,-5.0262,4.5305,-50.64,51.78,19.5
5.8431,-12.408,-5.9521,4.0235,-5.3927,4.2926,-51.12,52.62,17.7
2.1112,-11.441,-2.9556,3.1026,-4.5002,3.8955,-51.18,55.5,13.14
0.35413,-9.6977,-5.0531,1.5904,-3.1716,2.8451,-50.82,57.36,10.5
-0.31327,-8.1858,-5.4073,1.0568,-0.91691,1.8353,-50.22,59.34,7.8
1.6208,-6.2109,-4.4947,1.055,-0.25259,1.4997,-48.9,63.72,1.5
4.127,-5.5707,-3.8001,1.1915,-0.81245,1.2184,-48.24,66.18,-1.92
4.6445,-5.4754,-4.1133,1.2315,-1.1564,0.45876,-47.4,68.46,-5.52
3.514,-6.1292,-4.6445,1.2675,-1.0452,0.038179,-46.68,70.38,-9.42
2.3291,-7.355,-4.7263,1.1359,-0.89858,0.17196,-45.96,73.44,-17.46
3.1327,-7.7091,-4.3585,0.84666,-0.87568,0.3262,-46.02,74.1,-21.66
3.5822,-7.6002,-4.2768,0.63316,-0.9615,0.18631,-46.5,74.28,-25.92
2.9284,-7.4367,-4.0316,0.44288,-1.0345,0.074831,-48.78,73.44,-34.98
2.0975,-7.355,-3.4323,0.2361,-0.83963,0.13653,-50.64,72.36,-39.6
1.9886,-7.6546,-3.3097,0.12065,-0.33201,0.080329,-52.98,70.62,-44.58
2.3155,-9.6841,-3.4187,0.066584,-0.028405,-0.051618,-58.8,65.28,-55.26
2.6423,-11.523,-3.5413,0.12767,0.080023,-0.038179,-62.1,61.8,-61.08
3.0918,-14.288,-4.413,0.20983,0.000611,0.15363,-65.4,57.72,-66.96
4.4402,-19.382,-4.4402,-0.31215,-0.067806,0.54398,-72.6,48.18,-78.9
4.7671,-19.504,-2.9148,-1.1677,0.37843,0.60262,-76.74,43.32,-84.36
4.2223,-19.532,-1.4029,-1.8592,1.4007,0.35491,-81.54,39.12,-89.58
2.833,-16.453,0.040861,-2.0904,2.7562,-0.03207,-92.04,33.6,-98.04
1.9205,-14.519,-0.64016,-2.0159,3.5583,-0.71288,-97.14,32.4,-101.04
2.6015,-11.182,-1.4438,-1.5495,3.7214,-2.0333,-105.96,32.94,-103.98
3.6094,-10.065,-1.3757,-1.2089,3.2843,-2.5152,-109.68,34.38,-103.5
4.6309,-8.8941,-1.5119,-0.89858,2.4838,-2.693,-112.5,36.06,-101.76
4.8625,-8.3084,-1.6344,-0.71074,1.5504,-2.6563,-114.6,37.98,-98.76
4.7671,-6.6331,-1.7979,-0.60659,0.59895,-2.4196,-116.7,42.54,-89.46
4.1406,-5.9249,-1.7162,-0.58887,-0.281,-2.1292,-116.88,45.3,-83.4
3.4323,-5.4073,-1.866,-0.63133,-1.0342,-1.9957,-116.34,48.36,-76.56
1.866,-4.9306,-1.866,-0.78405,-1.5913,-1.9074,-113.76,55.08,-60.9
1.2122,-4.8216,-1.757,-0.86193,-1.6212,-1.8515,-111.48,58.26,-52.68
0.83084,-4.7671,-1.6889,-1.0171,-1.4606,-1.7275,-107.94,60.72,-44.22
0.47671,-4.7671,-1.5119,-1.2416,-0.85552,-1.5598,-103.62,62.34,-36.0
0.095342,-5.0259,-1.2122,-1.3717,-0.30513,-1.4169,-94.08,62.64,-19.92
0.095342,-5.3119,-1.0624,-1.5024,0.27794,-1.2333,-89.34,61.2,-12.72
0.24517,-5.5843,-0.70826,-1.6194,0.81398,-1.0177,-84.66,59.1,-6.3
0.47671,-5.6252,-0.47671,-1.7055,1.2605,-0.78007,-76.2,54.0,3.54
0.62654,-6.0338,-0.42223,-1.6536,1.7315,-0.2978,-72.84,51.42,7.2
1.0351,-6.7966,-0.42223,-1.5653,1.9273,0.1127,-70.08,49.08,9.96
1.4301,-7.6546,-0.42223,-1.416,2.0702,0.53939,-67.92,46.86,12.24
1.5663,-10.338,0.68102,-1.197,2.1918,1.0409,-65.34,42.9,14.64
1.7979,-11.7,1.2667,-0.90561,2.416,1.8317,-64.8,41.34,15.0
2.2201,-16.358,1.6208,-0.11179,2.7266,2.558,-64.38,39.36,13.56
3.732,-17.679,0.76274,0.68234,2.5604,3.4398,-64.44,38.76,12.06
5.0531,-17.611,-0.27241,1.6912,1.7691,4.1191,-64.38,38.46,9.54
6.9328,-15.255,-3.0101,2.6811,0.15058,4.5671,-63.96,38.4,6.42
8.322,-13.443,-5.7342,3.3897,-2.0571,4.6334,-61.38,38.58,-1.26
7.7227,-12.79,-5.3119,3.5348,-4.467,4.1157,-59.76,38.88,-5.58
4.6582,-12.108,-2.833,3.3228,-4.7644,4.0106,-55.86,39.0,-14.04
3.3642,-11.319,-1.471,2.2064,-4.5134,3.3585,-53.64,39.06,-18.42
2.5198,-9.9701,-0.92618,1.7617,-3.6249,2.5345,-51.24,38.94,-22.68
1.2531,-8.1586,-1.8932,1.6671,-2.894,1.8237,-46.2,38.46,-30.9
0.36775,-8.2539,-3.5413,1.6777,-2.2232,1.303,-43.56,37.98,-34.8
0.36775,-8.6353,-5.5843,1.5366,-1.3292,0.86743,-40.74,37.38,-38.4
0.17706,-8.5127,-5.5843,1.3995,-0.85827,0.68875,-37.62,36.54,-41.7
3.2144,-6.0747,-6.8374,0.71105,0.45571,0.18387,-31.56,33.84,-47.16
3.2144,-6.0747,-6.8374,0.71105,0.45571,0.18387,-31.56,33.84,-47.16
3.5277,-4.9578,-6.1292,0.45418,0.34483,0.10965,-25.86,30.06,-50.16
3.4596,-4.5083,-5.9249,0.2532,0.002138,0.11515,-23.88,27.96,-50.88
2.6968,-4.5764,-5.1485,0.021991,-0.33048,-0.0076358,-20.76,23.64,-51.54
2.3836,-4.8488,-4.6309,-0.12767,-0.48075,-0.19731,-19.5,21.72,-51.66
2.0567,-6.1019,-3.9227,-0.26664,-0.68173,-0.24648,-18.42,19.74,-51.78
2.261,-7.7636,-3.4732,-0.16768,-0.98502,-0.14355,-17.46,17.64,-51.96
2.7104,-15.759,-2.3427,0.18692,-1.3326,0.12798,-15.36,13.74,-51.84
3.0918,-19.055,-3.2144,-0.36866,-0.92332,0.59926,-14.7,11.7,-51.66
3.3097,-19.532,-0.23155,-3.0305,0.15424,0.88117,-13.02,8.4,-51.06
2.8058,-17.666,0.32689,-3.6456,1.6044,0.29932,-12.6,7.2,-50.82
1.8387,-15.868,0.5993,-3.2327,3.4777,-0.25076,-12.18,6.3,-50.82
1.4982,-17.148,0.7355,-2.8399,4.8698,-0.66706,-12.18,5.88,-50.7
2.9965,-13.157,0.38137,-1.9071,5.6313,-2.1753,-12.42,6.12,-50.88
4.0997,-10.501,0.34051,-1.1826,4.9877,-2.8268,-12.72,6.78,-50.58
4.9169,-8.9349,-0.054481,-0.62217,3.5824,-3.1533,-13.38,7.86,-50.34
5.9657,-8.1722,-1.1169,-0.26909,1.8589,-3.3155,-15.36,10.26,-48.96
6.17,-8.0496,-1.2667,-0.16371,0.084299,-3.2403,-16.44,11.82,-47.76
5.6252,-7.6002,-1.362,-0.39676,-2.0464,-2.7064,-18.0,13.62,-46.02
3.8409,-6.7421,-1.3484,-0.66706,-2.8976,-2.4994,-21.66,17.52,-41.58
2.547,-6.674,-1.0624,-0.99113,-3.2107,-2.4175,-23.46,19.68,-39.18
0.68102,-7.1915,-0.69464,-1.328,-2.9328,-2.2571,-25.26,21.72,-36.42
-0.99429,-7.5321,-0.14982,-1.9279,-1.726,-2.0574,-28.2,25.32,-29.88
-1.4438,-7.0009,-0.39499,-2.2828,-0.613,-2.1341,-29.34,26.76,-25.98
-1.4029,-6.4152,-0.42223,-2.4239,0.58796,-2.1991,-30.48,27.96,-22.2
-1.0215,-5.5162,-0.5993,-2.456,1.5968,-2.1179,-31.62,28.8,-18.3
-0.31327,-5.2302,-0.76274,-2.3515,2.3017,-2.0088,-33.66,29.28,-10.62
0.12258,-5.6116,-0.99429,-2.124,2.5968,-1.8491,-34.44,29.04,-6.96
0.89894,-6.5922,-1.1713,-1.6716,2.3323,-1.2721,-35.28,28.2,-0.66
1.0896,-7.6002,-1.1577,-1.5079,2.1203,-0.97036,-35.52,27.48,1.8
0.83084,-8.8668,-1.0351,-1.1573,1.5537,-0.16218,-35.34,26.82,3.78
0.027241,-9.6841,-0.47671,-0.5962,1.0427,1.4639,-34.98,26.04,5.34
-0.095342,-12.572,-0.095342,0.029322,1.321,2.6533,-33.78,24.78,7.56
1.9068,-14.737,-1.6208,0.94012,1.7098,3.8958,-33.12,24.36,8.04
4.127,-15.568,-3.6366,2.0119,1.3552,4.9111,-32.28,23.94,7.86
5.884,-14.642,-7.6138,3.3436,-0.79993,5.7828,-30.66,23.58,6.78
5.7342,-15.159,-7.355,3.6521,-1.6857,5.9587,-29.4,23.64,6.18
5.0123,-16.249,-6.1155,4.1343,-3.2538,6.1429,-27.9,23.76,5.4
3.4459,-17.311,-4.3721,3.2889,-3.5583,5.8701,-24.36,24.42,3.48
4.4947,-15.977,-3.6366,1.9716,-3.5125,5.0277,-22.32,24.84,2.4
5.3119,-12.095,-4.1814,0.89461,-2.9673,4.018,-20.22,25.32,1.26
5.7205,-7.1915,-2.9284,0.49419,-2.6435,3.1637,-15.66,26.34,-1.14
3.0237,-5.5435,-2.3699,0.63286,-2.4224,1.8072,-13.32,26.7,-2.34
1.3757,-5.1076,-2.4789,1.1219,-2.076,0.72571,-10.86,27.42,-3.54
0.23155,-6.4833,-3.8682,1.3073,-1.3405,-0.03146,-6.36,28.26,-6.12
1.0215,-7.2052,-4.6445,1.157,-0.51129,-0.29169,-4.2,28.5,-7.38
2.6968,-7.3822,-5.8704,0.85338,0.18601,-0.41722,-2.1,28.56,-8.34
3.4596,-6.9464,-5.8431,0.41508,0.95723,-0.44257,1.38,28.32,-9.96
4.0861,-6.4424,-5.4754,0.22907,1.0858,-0.25595,2.82,28.08,-11.1
4.413,-6.0747,-4.7944,0.19334,1.0012,-0.12065,3.96,27.78,-11.94
4.3994,-5.9249,-4.3449,0.054672,0.2306,0.15821,4.86,27.42,-12.66
3.5413,-5.9112,-3.6775,-0.10232,-0.27825,0.075136,6.42,26.88,-13.62
3.0237,-6.1973,-3.2553,-0.18479,-0.48136,-0.10965,6.9,26.76,-13.92
2.3972,-8.1177,-2.8603,-0.27184,-0.43005,-0.1576,8.1,26.16,-14.22
2.2065,-9.9837,-2.4517,-0.3653,-0.10782,-0.29444,8.58,26.04,-14.16
2.1656,-11.836,-2.4108,-0.28161,0.22571,-0.26237,9.0,25.8,-14.16
2.1929,-18.905,-2.7377,-0.72907,0.87781,-0.16768,10.08,25.5,-13.8
2.3836,-19.45,-1.5936,-1.7486,1.7669,-0.26786,10.56,25.38,-13.62
3.1599,-19.518,0.16344,-2.2174,2.6643,-0.63102,10.92,25.5,-13.2
5.1076,-17.788,0.23155,-2.1735,3.5791,-1.1157,11.82,25.98,-12.3
5.1485,-15.8,-0.28603,-2.0562,3.6252,-1.3158,12.12,26.28,-11.46
4.9033,-13.511,-0.83084,-1.5922,3.222,-1.9102,12.36,26.58,-10.5
4.7807,-11.564,-1.2531,-0.71654,1.6817,-2.7422,12.18,27.48,-8.58
4.699,-11.523,-1.2531,-0.35919,0.54214,-2.9929,11.94,27.9,-7.74
4.5764,-11.182,-1.3484,-0.21655,-0.78679,-3.1472,10.68,28.86,-5.82
4.1678,-10.025,-1.3893,-0.29383,-1.285,-3.0769,9.72,29.28,-4.98
3.3506,-8.9213,-1.4846,-0.43707,-1.6109,-2.9147,8.7,29.82,-4.2
2.9284,-8.3357,-1.4574,-0.61392,-1.8375,-2.8323,7.38,30.12,-3.3
1.7025,-6.6331,-1.6208,-0.79107,-1.9077,-2.8326,4.32,30.84,-1.32
1.1986,-6.1836,-1.6753,-0.93676,-1.8604,-2.8265,2.52,30.96,-0.24
1.0215,-6.3335,-1.7706,-1.0678,-1.6869,-2.7541,0.72,31.02,0.72
0.83084,-7.3005,-1.9613,-1.2437,-1.4206,-2.6466,-3.36,30.84,2.64
0.51757,-7.7227,-1.8387,-1.5583,-0.8543,-2.5607,-5.28,30.66,3.54
0.17706,-8.0224,-1.5527,-1.6521,-0.60262,-2.507,-7.38,30.24,4.26
-0.47671,-8.2403,-0.98067,-1.8854,0.21716,-2.3741,-10.98,28.98,5.64
-0.84446,-8.4582,-0.92618,-1.9093,0.75533,-2.1903,-12.78,28.32,6.36
-0.49033,-8.826,-1.4165,-1.8918,1.1952,-1.7648,-14.4,27.6,6.96
0.01362,-8.1177,-1.8387,-1.6093,1.4755,-0.96486,-16.74,25.62,8.46
0.28603,-8.2676,-1.4846,-1.2315,1.5626,-0.20433,-17.82,24.6,9.18
0.38137,-8.7715,-1.076,-1.0095,1.6588,0.26328,-18.66,23.7,9.78
1.8796,-11.891,-0.85808,-0.19273,1.916,2.0229,-20.04,21.6,10.62
4.0861,-13.157,-1.6753,0.44257,1.821,3.266,-20.46,20.88,11.1
5.6661,-13.184,-2.8194,1.2187,1.1011,4.2483,-20.82,20.16,11.34
5.4754,-12.395,-4.4811,2.0195,-0.24465,4.9459,-21.0,19.08,11.88
4.9306,-12.272,-4.6718,3.007,-2.4312,5.2922,-20.94,18.72,11.88
4.0861,-12.149,-4.3585,3.419,-3.4957,5.0919,-20.64,18.66,12.06
2.4789,-12.354,-4.5901,3.3799,-3.7232,4.6441,-19.2,19.02,12.42
0.44947,-12.953,-5.9521,2.6567,-2.5076,3.9835,-18.12,19.32,12.48
2.5334,-11.795,-4.8216,2.4508,-2.1166,3.3527,-16.74,19.68,12.6
4.5764,-8.7579,-4.018,1.7685,-2.6237,2.9538,-13.86,21.0,12.06
1.6889,-6.2381,-4.0861,1.3833,-1.9612,2.1893,-12.24,21.72,11.64
0.81722,-5.6252,-4.0589,1.4077,-1.6185,1.8268,-10.56,22.5,11.28
0.83084,-5.8567,-4.3449,1.3799,-0.57452,1.0736,-8.76,23.58,10.8
1.8387,-6.7829,-4.9578,1.1964,-0.17654,0.77672,-5.16,25.56,9.84
2.0839,-6.7557,-5.2847,0.9444,0.0036652,0.45723,-3.3,26.46,9.54
2.1656,-6.5241,-4.9578,0.72418,0.1967,0.31887,-1.44,27.3,9.06
2.6968,-6.6331,-4.6309,0.52718,0.51313,0.30146,1.74,28.68,8.04
3.0237,-6.6331,-4.413,0.17287,0.98624,0.23243,3.18,29.34,7.5
3.0918,-6.4969,-4.1542,-0.036652,1.2132,0.21411,4.2,29.76,7.08
3.0646,-6.9736,-3.6503,0.031154,1.2123,0.28191,5.04,30.24,6.72
3.0237,-10.542,-3.4323,0.050702,1.0883,0.3207,6.06,31.26,6.42
3.2008,-13.266,-2.8058,-0.11668,1.004,0.29016,6.18,31.68,6.6
4.127,-18.183,-2.0839,-0.45296,0.91141,0.36163,6.06,32.52,7.32
5.0259,-19.368,-2.1793,-0.68234,0.92974,0.38515,5.94,32.88,8.04
5.9657,-19.504,-1.9341,-1.5094,1.1365,0.19028,5.58,33.18,9.12
5.5707,-18.619,-0.99429,-1.8256,1.4719,-0.34941,4.74,33.54,11.58
4.127,-16.072,-0.6674,-1.7043,1.8647,-0.88698,4.26,33.54,13.02
2.833,-13.961,-1.2531,-1.2401,1.6444,-2.0397,3.24,33.18,16.62
2.7377,-13.062,-1.6617,-0.99174,1.4444,-2.7083,2.82,32.76,18.72
3.2689,-11.645,-1.6344,-0.87079,1.1921,-2.9966,2.52,31.98,20.94
3.514,-10.692,-1.6208,-0.83414,0.88301,-3.0882,2.4,31.2,22.86
3.6366,-8.2131,-1.6617,-0.84819,0.62583,-3.0836,2.4,28.8,26.82
3.3097,-7.3822,-1.8524,-0.87934,0.2926,-2.9633,2.7,27.3,28.44
2.9011,-6.7012,-2.1793,-0.91874,-0.11698,-2.8662,3.06,25.86,30.06
2.2474,-5.7342,-2.3155,-1.0901,-0.72082,-2.8711,4.08,22.62,32.22
2.0022,-5.38,-2.2746,-1.171,-0.8827,-2.8756,4.86,21.06,33.0
1.6753,-5.0123,-2.1384,-1.3179,-1.1567,-2.8802,5.4,19.44,33.36
0.84446,-5.3528,-1.8387,-1.5058,-1.3207,-2.8063,7.08,16.62,33.3
0.46309,-5.8704,-1.7979,-1.6814,-1.2233,-2.7119,7.8,15.48,32.94
0.10896,-6.1564,-1.6208,-1.8894,-0.99693,-2.5989,9.48,13.68,31.26
-0.58567,-6.2517,-1.7706,-2.0513,-0.69455,-2.3601,10.26,13.2,29.94
-0.76274,-6.3335,-1.7298,-2.102,-0.23457,-2.1243,10.92,12.96,28.32
-0.8717,-6.674,-1.7434,-2.0223,-0.0045815,-1.7691,11.34,12.9,26.82
-0.6674,-7.6274,-2.2201,-1.8552,0.13897,-1.3057,12.42,13.56,23.76
-0.65378,-8.6625,-2.0975,-1.5244,0.21105,-0.66493,12.84,14.16,22.5
-0.69464,-9.5751,-1.7162,-1.1066,0.46212,0.18295,13.2,14.58,21.24
-0.31327,-10.42,-1.4438,-0.51893,0.99113,1.146,13.92,15.6,19.86
0.68102,-11.577,-1.5119,0.68417,1.8656,2.9144,14.34,16.02,19.26
2.0158,-13.116,-1.8387,1.6616,2.0336,4.0888,15.12,16.38,19.14
3.228,-15.119,-3.1735,2.6536,1.6582,4.9645,16.32,16.38,19.92
3.4868,-16.045,-4.1814,3.5259,0.94776,5.5812,17.16,16.2,20.76
3.8954,-16.93,-5.3528,4.1325,0.23152,5.9239,17.76,15.96,21.96
5.4345,-17.502,-6.9191,4.4337,-0.70188,5.8573,19.02,15.36,25.68
7.3822,-16.93,-7.7364,3.6453,-1.5928,5.3891,19.68,15.12,27.96
8.3765,-15.813,-7.464,2.9407,-2.1725,5.0167,20.7,15.0,30.3
10.474,-12.463,-5.1485,1.3149,-3.0348,3.989,21.78,14.94,32.52
6.8374,-5.4754,-1.4438,0.19059,-3.1282,2.259,24.0,14.7,36.78
2.9011,-2.0158,-0.95342,0.41172,-3.2119,1.2422,25.5,14.46,38.76
-0.01362,-1.8796,-2.5742,1.3433,-3.1548,-0.12004,27.18,14.34,40.5
-0.17706,-6.1155,-4.0316,1.4566,-2.1371,-0.95051,30.36,15.06,43.68
0.70826,-7.1507,-5.0123,0.92668,-1.3961,-0.98227,31.92,15.72,44.94
1.076,-7.0962,-5.6116,0.6524,-1.0382,-0.97555,33.42,16.68,46.02
1.5663,-6.1973,-6.5786,0.10201,-0.04215,-0.88545,36.18,19.62,47.82
1.9477,-5.8431,-6.3471,-0.1408,0.49908,-0.68295,37.62,21.42,48.6
2.7104,-5.598,-5.1485,-0.41081,0.94257,-0.27214,40.32,25.44,49.86
2.8194,-6.1428,-3.6503,-0.39615,0.85399,-0.146,41.52,27.54,50.7
2.6696,-7.1915,-2.6968,-0.3543,0.73426,-0.13195,42.42,29.76,51.78
2.9011,-8.8941,-2.2474,-0.2642,0.40409,-0.069333,43.02,32.22,53.22
3.5822,-12.681,-1.5527,-0.2303,-0.18998,0.041539,43.44,38.34,56.7
3.6094,-15.677,-1.4029,-0.4496,-0.39951,0.033903,43.08,42.06,58.92
3.051,-19.123,-0.5993,-1.1994,-0.24343,0.082161,41.76,49.86,64.5
2.8603,-19.518,-0.78998,-1.3851,0.17715,-0.010079,41.04,53.82,68.22
2.6696,-17.843,-1.0215,-1.3916,0.46395,-0.093768,40.44,57.78,72.54
2.5334,-16.998,-0.8036,-1.3198,1.1368,-0.23427,39.78,61.68,77.64
2.3155,-15.854,-0.47671,-1.2104,2.1539,-0.62125,39.36,65.34,83.28
2.0294,-13.116,-0.5993,-1.0953,2.5666,-1.0256,39.6,71.28,96.6
2.547,-11.85,-0.96704,-0.98471,2.6854,-1.2785,40.68,73.2,104.34
3.6094,-10.706,-1.6344,-0.87568,2.474,-1.3754,44.46,74.1,120.42
3.514,-9.9565,-1.7706,-0.87659,1.7785,-1.4151,47.94,72.72,128.22
3.1054,-8.5127,-1.8387,-0.95081,1.332,-1.4933,52.5,70.08,135.36
2.7241,-7.8317,-1.7706,-0.98044,0.96639,-1.5934,58.38,66.18,141.72
1.8524,-6.4833,-1.8932,-1.014,0.68753,-1.693,73.44,55.14,150.48
1.4165,-6.1564,-1.9205,-1.0128,0.50152,-1.7523,82.32,48.6,152.52
1.0079,-5.993,-2.0294,-1.088,0.45021,-1.7517,101.46,34.38,150.78
0.65378,-5.5162,-2.0158,-1.1851,0.55955,-1.7196,110.52,27.12,146.76
0.51757,-5.38,-1.9068,-1.2239,0.72204,-1.6273,119.34,20.1,141.12
0.38137,-5.2575,-1.7843,-1.2526,0.90469,-1.445,127.74,13.38,133.68
0.31327,-5.4345,-1.6753,-1.2807,1.1099,-1.2062,142.68,1.68,114.66
0.31327,-5.4345,-1.6753,-1.3036,1.3121,-0.90561,142.68,1.68,114.66
0.58567,-5.8704,-1.0488,-1.317,1.6435,-0.40775,161.16,-10.02,79.56
0.83084,-5.8023,-0.96704,-1.2749,1.7972,-0.053145,166.62,-12.0,67.86
3.9227,-8.4174,-0.027241,-1.2055,1.8885,0.10812,171.96,-13.2,57.12
5.0668,-11.196,0.19068,-0.40836,4.66,-0.46456,177.06,-13.56,48.72
-2.8467,4.9033,-1.1441,-1.7394,1.4352,-0.59223,185.04,-10.86,42.18
-2.8467,4.9033,-1.1441,-0.65668,-1.3418,0.99632,185.04,-10.86,42.18
3.8137,-18.21,-1.0896,-0.10599,0.84055,3.1918,195.6,3.24,59.88
3.5958,-17.788,-0.51757,0.1408,1.0763,2.2877,196.62,10.26,71.76
2.0975,-15.691,-0.24517,0.14783,1.4035,1.9633,195.72,17.22,85.02
2.0022,-16.916,0.027241,0.42486,2.3808,3.7446,192.3,23.88,99.24
4.6037,-19.491,-0.40861,0.64171,2.6542,4.2186,177.24,36.96,126.48
5.7886,-19.532,-1.5936,0.97372,2.3436,4.0152,167.34,43.26,137.52
7.7091,-15.922,-2.9556,1.3497,1.511,3.9178,145.62,55.5,155.28
7.5048,-13.062,-2.8603,1.6258,-0.29016,3.4844,134.04,61.32,162.12
6.3879,-10.787,-2.833,1.5928,-0.80451,3.2089,121.68,67.08,167.58
4.522,-8.6625,-2.0703,1.222,-1.606,2.153,96.12,78.06,171.12
4.522,-8.6625,-2.0703,1.069,-1.4212,1.358,96.12,78.06,171.12
2.9829,-7.4095,-1.2122,0.91569,-0.78557,0.81398,69.54,86.28,164.46
1.8251,-6.96,-1.5119,0.79657,-0.062308,0.55833,43.02,88.68,147.12
1.9613,-7.1507,-1.5936,0.57757,0.98105,0.35736,32.28,88.08,136.32
2.4108,-7.5729,-1.7706,0.49175,1.233,0.31643,23.52,87.12,124.74
2.9556,-7.8317,-1.7025,0.25931,1.7895,0.2978,15.12,85.08,102.18
3.3778,-8.0088,-1.757,0.13042,2.0217,0.37568,14.64,83.64,92.52
4.4402,-8.7034,-1.4165,0.018937,2.1591,0.48839,16.74,80.88,78.78
4.6309,-9.1256,-1.362,0.020159,2.1631,0.59895,18.42,79.44,73.98
4.7807,-9.9156,-1.362,0.083078,2.0317,0.61636,21.0,77.34,66.66
4.5764,-11.073,-1.1713,0.18082,1.8476,0.37904,21.84,76.5,63.78
4.6037,-11.645,-1.0215,0.21075,1.8134,0.26725,22.2,75.78,61.56
4.6582,-12.136,-0.96704,0.26328,1.6487,-0.1405,22.32,75.18,59.64
4.5764,-12.871,-1.58,0.32498,1.3873,-0.42364,22.02,74.28,56.52
4.7399,-13.171,-2.9556,0.34819,1.0565,-0.62492,21.9,74.1,55.56
4.1542,-11.986,-4.4402,0.31826,0.72662,-0.76114,22.02,73.98,54.42
3.5277,-10.542,-4.9987,0.10079,0.50244,-0.84086,22.5,74.16,54.18
2.7786,-9.7385,-5.0668,-0.24496,0.58429,-0.9331,23.34,74.4,54.12
1.7298,-7.75,-4.7126,-0.67165,1.0278,-1.1551,26.58,74.82,54.6
1.5255,-7.4912,-4.6309,-0.78557,1.201,-1.3066,28.98,75.0,54.9
1.9886,-8.4855,-4.8897,-0.78985,1.0357,-1.4536,31.68,75.3,54.9
2.4108,-11.182,-4.7807,-0.82681,0.45998,-1.5434,37.44,75.96,53.46
2.4789,-12.49,-4.5356,-1.0412,0.13806,-1.474,40.14,76.08,51.96
2.3155,-15.282,-3.9908,-1.449,0.0045815,-1.3854,42.48,76.08,49.74
2.0431,-16.739,-3.7184,-2.1603,-0.090408,-1.471,45.6,75.36,44.52
1.5663,-15.05,-3.8818,-2.6741,0.15088,-1.6518,46.26,74.46,41.58
1.4438,-13.184,-4.0997,-2.5846,0.28863,-1.8234,46.26,73.56,38.58
0.8036,-11.918,-3.5958,-2.277,0.4722,-2.0614,44.28,70.92,32.46
0.72188,-11.346,-3.051,-2.1878,0.60903,-2.2156,42.18,68.94,29.58
0.85808,-10.883,-2.5061,-2.1328,0.69394,-2.2999,39.36,66.96,26.94
1.0624,-10.215,-2.261,-2.0873,0.68875,-2.2333,31.14,62.4,21.3
1.1441,-10.243,-2.0839,-2.1026,0.61728,-2.0391,25.98,60.06,18.78
1.185,-9.8066,-1.6889,-2.153,0.55131,-1.7849,20.4,57.48,16.56
1.0488,-8.4582,-1.2803,-2.1496,0.55222,-1.3292,8.76,51.84,14.16
1.0351,-8.0496,-1.3484,-2.044,0.63408,-1.0088,3.0,49.02,13.8
1.0351,-7.6546,-1.2803,-1.9077,0.69425,-0.7367,-2.4,46.26,14.16
0.98067,-7.2869,-1.0079,-1.7492,0.78954,-0.49083,-11.7,41.16,16.32
0.98067,-6.7421,-0.81722,-1.5687,0.88881,-0.25412,-15.54,38.76,17.7
1.0896,-6.5241,-0.78998,-1.3754,0.95387,-0.014966,-18.84,36.54,18.96
1.3348,-6.5378,-0.54481,-1.1735,0.96914,0.3879,-23.82,32.58,21.66
1.4438,-6.5378,-0.49033,-0.88331,0.88392,0.68142,-25.74,30.96,22.74
1.5527,-6.6059,-0.51757,-0.79107,0.84788,0.83933,-27.18,29.34,23.4
1.6344,-6.9055,-0.44947,-0.60751,0.79015,1.168,-28.14,27.96,24.12
1.6753,-7.4776,-0.42223,-0.35858,0.81703,1.6814,-28.98,25.68,25.56
1.6344,-7.8726,-0.14982,-0.21105,0.89583,2.0171,-29.4,24.84,26.22
1.5391,-8.9213,0.01362,-0.053451,1.0409,2.401,-29.82,24.18,26.7
2.0839,-11.536,0.068102,0.08827,1.2266,2.8769,-30.18,23.34,27.3
2.6015,-12.013,-0.068102,0.21105,1.4276,3.3142,-30.24,23.28,27.48
3.1735,-11.577,-0.31327,0.45143,1.5803,3.7202,-30.3,23.34,27.36
4.0316,-9.7658,-0.53119,0.61728,1.554,3.8063,-30.42,24.36,26.88
4.2223,-9.4389,-0.61292,0.81978,1.4151,3.7284,-30.3,25.14,26.4
4.3585,-11.414,-1.5119,1.1252,0.80084,3.365,-29.82,27.18,25.26
4.9578,-12.667,-2.1384,1.2578,0.17257,3.0015,-29.04,28.44,24.66
5.3119,-13.498,-2.2882,1.2691,-0.34025,2.5476,-28.08,29.88,23.88
5.1349,-13.539,-1.975,1.1301,-0.41325,2.0968,-27.0,31.44,23.16
3.3642,-12.19,-1.2667,0.85155,-0.009163,1.6396,-24.54,34.32,21.6
1.9341,-10.869,-1.1441,0.61392,0.68417,1.1729,-22.98,35.82,20.64
1.1577,-9.7385,-1.6617,0.50213,1.8805,0.50793,-19.2,38.64,18.96
2.3018,-9.1665,-1.6753,0.44746,2.5953,0.3146,-17.34,39.96,18.18
2.7377,-9.1393,-1.6072,0.35644,3.0012,0.29322,-15.42,41.1,17.4
2.9692,-8.9213,-1.5255,0.32559,3.1102,0.3262,-13.5,42.18,16.74
3.2825,-8.8396,-1.3484,0.3036,3.1359,0.50335,-11.58,43.02,16.2
4.0316,-9.1529,-1.2803,0.32559,2.9691,0.7422,-8.04,44.52,15.06
4.2087,-9.2618,-1.2939,0.38026,2.7067,1.0321,-6.36,45.0,14.7
4.4402,-9.6977,-1.6344,0.46884,2.3469,1.2886,-3.36,45.78,13.92
4.3721,-9.8066,-1.6753,0.62094,1.8543,1.4945,-2.34,46.14,13.8
4.4402,-9.6977,-1.7706,0.67959,1.7547,1.5012,-1.38,46.08,13.74
4.8625,-9.507,-2.2065,0.8097,1.5162,1.3857,-0.48,46.26,13.62
5.2302,-9.5206,-3.0782,0.85949,1.3665,1.157,0.9,46.74,13.32
5.0123,-9.4661,-3.3915,0.85216,1.1897,0.85277,1.26,46.74,13.14
4.3449,-9.3299,-3.909,0.73915,0.97952,0.37843,1.8,47.1,12.48
3.8818,-9.507,-4.3858,0.67501,0.88453,0.022297,1.92,47.28,12.06
3.3778,-10.065,-4.304,0.57452,0.90133,-0.21655,1.92,47.4,11.64
3.051,-10.488,-4.2087,0.43616,1.0049,-0.33384,2.1,47.7,11.1
2.7649,-11.536,-4.2495,0.22174,1.2297,-0.41905,2.4,48.12,10.32
3.0237,-11.768,-4.2223,-0.043371,1.3989,-0.47403,2.28,48.24,9.66
3.2689,-11.809,-4.304,-0.25656,1.4682,-0.49175,2.04,48.3,8.52
3.732,-11.196,-4.3858,-0.54245,1.3815,-0.51679,1.98,48.42,7.86
3.8682,-10.651,-4.2632,-0.65515,1.2236,-0.6463,1.86,48.72,7.08
3.8546,-9.902,-4.0861,-0.72876,0.9951,-0.84422,1.56,48.78,6.42
3.8273,-9.3163,-3.9771,-0.73976,0.63469,-1.0895,1.32,48.78,5.76
3.4187,-9.8339,-3.7592,-0.72265,0.20769,-1.335,0.42,48.84,4.26
3.2008,-10.583,-3.5685,-0.80023,-0.27306,-1.5479,-0.36,48.78,3.48
2.9965,-12.013,-3.3097,-0.91202,-0.40042,-1.5687,-1.74,48.6,1.98
2.6696,-12.98,-2.9965,-1.1832,-0.70952,-1.5818,-2.7,48.48,1.26
2.5061,-13.293,-2.7922,-1.3253,-0.7532,-1.5892,-3.78,48.24,0.42
2.1248,-13.293,-2.4108,-1.7141,-0.57544,-1.6319,-5.28,48.0,-0.42
1.5119,-12.313,-1.9613,-1.8775,-0.20647,-1.715,-9.48,47.64,-1.8
1.4029,-11.877,-1.6208,-1.9392,0.2529,-1.813,-12.18,47.76,-2.04
1.362,-10.992,-1.2667,-1.9563,0.86468,-1.9581,-18.12,47.58,-1.26
1.4165,-10.379,-1.0488,-1.945,1.0146,-2.0097,-21.42,47.4,-0.48
1.5391,-9.8339,-0.89894,-1.8766,1.2538,-2.0724,-24.48,47.1,0.6
1.7979,-9.0031,-0.64016,-1.7291,1.376,-2.0455,-30.84,46.38,3.36
1.9205,-8.431,-0.57205,-1.6151,1.2862,-1.9633,-33.96,45.78,4.92
2.1112,-7.641,-0.57205,-1.471,1.0632,-1.8097,-36.72,45.12,6.6
2.0567,-6.8374,-0.64016,-1.2584,0.62156,-1.4926,-42.12,43.56,10.14
1.9886,-6.1292,-0.6674,-1.1933,0.46762,-1.3842,-44.34,42.6,12.12
1.8932,-5.8431,-0.70826,-1.0837,0.18326,-1.1802,-46.62,41.76,14.16
1.6344,-5.094,-0.77636,-0.96914,-0.13225,-0.90866,-49.74,39.84,18.42
1.4165,-4.9442,-0.83084,-0.91538,-0.22571,-0.74984,-50.7,38.58,20.46
1.2258,-4.8625,-0.81722,-0.90866,-0.23946,-0.60292,-51.06,37.38,22.2
1.0488,-4.8897,-0.62654,-0.90683,-0.11362,-0.37354,-51.18,34.8,24.78
1.0079,-4.8625,-0.53119,-0.90316,0.053145,-0.1689,-51.06,33.54,25.8
0.92618,-4.9306,-0.42223,-0.88698,0.13714,-0.047647,-51.06,32.46,26.4
1.1305,-5.4073,-0.24517,-0.78893,0.40653,0.41294,-51.0,30.48,27.3
1.3212,-5.8023,-0.36775,-0.67989,0.5229,0.80909,-51.0,29.76,27.54
1.7434,-6.1564,-0.54481,-0.56627,0.62614,1.2269,-51.18,29.1,27.9
1.8796,-6.5241,-0.29965,-0.33384,0.8207,1.8112,-51.96,28.44,28.32
2.2746,-8.0632,-0.62654,-0.12034,0.93615,2.2575,-52.68,28.38,28.2
2.9011,-8.7715,-0.92618,-0.019242,0.9841,2.4593,-53.52,28.56,27.96
3.8682,-10.256,-1.4301,0.38118,1.0712,2.799,-55.44,29.52,26.64
3.909,-11.809,-1.4438,0.72204,1.1542,2.9609,-56.52,30.6,25.5
4.2904,-13.579,-1.7434,1.0305,1.2184,3.167,-57.72,31.62,23.94
5.1621,-16.576,-3.3915,1.35,1.0831,3.2226,-59.34,34.5,19.32
6.2381,-18.347,-4.3994,1.7437,0.31857,3.4144,-59.46,36.12,16.5
7.5457,-18.701,-5.2983,1.7996,-0.036652,3.4239,-59.34,37.74,13.5
7.7908,-16.862,-5.6388,1.7883,-0.74342,3.2211,-58.74,39.36,10.38
6.0202,-12.803,-5.5162,1.5269,-1.1014,2.6741,-56.52,42.42,3.84
5.2438,-10.924,-5.5707,1.2764,-0.76022,2.029,-55.02,43.8,0.66
4.522,-9.5751,-5.3392,1.0858,-0.20586,1.263,-53.4,45.06,-2.52
4.0044,-8.54,-5.2166,0.88698,0.52168,0.53787,-49.2,47.34,-8.46
4.5492,-8.0224,-4.9306,0.8097,0.71257,0.24282,-46.68,48.18,-11.4
4.9169,-7.246,-4.7671,0.77794,0.47006,0.072388,-44.1,48.9,-14.04
5.2847,-6.2245,-4.304,0.79168,-0.078802,0.027794,-38.58,49.68,-18.72
5.1757,-5.8431,-4.1542,0.81581,-0.80665,0.0045815,-35.88,49.68,-20.64
4.7263,-5.6661,-4.0725,0.83322,-1.5033,-0.0073304,-33.3,49.32,-21.96
3.9635,-5.4209,-4.0861,0.84116,-2.164,0.026878,-29.52,48.48,-24.0
3.4187,-5.3392,-4.1814,0.81764,-2.3692,0.041844,-28.08,47.76,-24.54
3.2553,-5.3528,-4.2632,0.78007,-2.4096,0.063835,-27.06,47.1,-25.14
2.7922,-5.5435,-4.5083,0.60476,-2.3515,0.10782,-26.34,45.78,-25.8
2.5879,-5.6388,-4.4539,0.39431,-2.1753,0.11301,-26.28,45.18,-26.4
2.3972,-5.7614,-4.127,0.15944,-1.8732,0.092241,-26.52,44.46,-26.76
2.152,-6.8647,-3.9908,-0.051618,-1.507,0.044593,-27.54,42.66,-28.02
2.2065,-8.2539,-4.3721,-0.21991,-1.0696,0.068722,-28.32,41.58,-28.44
2.438,-10.12,-4.985,-0.31551,-0.96822,0.11332,-29.22,40.38,-29.1
2.8739,-13.92,-4.7126,-0.67653,-0.57696,0.28222,-31.32,37.68,-30.36
2.9011,-16.494,-4.0316,-0.94806,-0.135,0.38026,-32.34,36.24,-31.14
2.9011,-19.45,-2.6832,-1.328,0.48564,0.36744,-33.72,34.8,-32.1
3.0646,-19.518,-1.9886,-1.9871,1.606,0.018631,-36.78,32.04,-34.38
3.514,-19.041,-1.1441,-2.3265,2.3943,-0.43982,-38.7,31.08,-35.94
3.5822,-17.802,-0.7355,-2.3625,2.989,-0.90164,-40.98,30.48,-37.68
3.5958,-15.159,-0.72188,-2.1545,3.1429,-1.4233,-46.38,30.6,-41.52
3.7047,-13.92,-0.9398,-1.8164,2.9025,-1.9691,-49.8,31.44,-43.08
4.0044,-12.517,-0.96704,-1.4499,2.2852,-2.3677,-53.46,32.7,-44.28
4.3585,-9.9565,-0.85808,-1.0354,1.0925,-2.5641,-61.62,36.12,-44.1
4.1951,-8.7306,-0.95342,-0.8659,0.30085,-2.4691,-65.7,37.92,-43.08
3.8001,-8.0224,-1.0079,-0.81245,-0.047647,-2.3863,-69.3,39.54,-41.22
2.8194,-6.0066,-1.185,-0.74128,-0.87537,-2.182,-75.78,42.48,-36.12
2.3427,-5.38,-1.2531,-0.75808,-1.1796,-2.0992,-78.6,43.8,-33.06
1.866,-4.9169,-1.2667,-0.81734,-1.3088,-2.0076,-80.76,44.94,-29.7
1.1032,-4.3449,-1.2258,-0.97219,-1.1698,-1.8054,-84.12,46.56,-21.78
0.92618,-4.2495,-1.0624,-1.0171,-1.0486,-1.7165,-85.08,46.92,-17.34
0.5993,-4.1678,-0.83084,-1.1102,-0.68783,-1.5168,-85.5,46.56,-12.54
0.69464,-4.1406,-0.74912,-1.1744,-0.061392,-1.182,-85.02,44.16,-2.58
0.89894,-4.3994,-0.83084,-1.1585,0.23457,-0.97341,-83.88,42.12,2.04
1.2258,-4.7944,-0.83084,-1.0925,0.40409,-0.74862,-82.32,39.66,6.24
1.4029,-5.3256,-0.96704,-0.91202,0.49022,-0.44776,-78.36,33.84,12.3
1.2395,-5.9249,-1.2122,-0.74159,0.49236,-0.19609,-76.2,31.02,14.34
1.1986,-6.5786,-1.4982,-0.65515,0.49358,-0.031154,-74.46,28.44,15.66
1.362,-7.5593,-1.58,-0.41386,0.47586,0.47403,-72.84,26.1,16.5
1.5119,-9.7658,-1.4846,-0.19761,0.48778,0.83505,-70.8,21.9,17.1
1.3757,-10.651,-1.2667,0.032376,0.66432,1.2196,-70.32,20.28,17.1
1.0079,-12.122,-0.70826,0.405,0.96303,1.6646,-70.02,18.78,16.86
2.2201,-16.099,-2.0703,1.1664,1.3097,2.7733,-70.26,16.92,15.48
2.2201,-16.099,-2.0703,1.4627,1.2126,3.0577,-70.26,16.92,15.48
4.2904,-14.846,-4.7671,2.3595,0.11668,3.6084,-71.1,16.8,12.54
4.2768,-14.478,-4.8216,2.6976,-0.53267,3.9227,-71.64,17.22,10.56
3.9227,-14.097,-4.7399,2.6756,-0.96639,3.9728,-72.06,18.0,8.58
2.7513,-12.476,-5.0804,2.39,-1.2077,3.3735,-72.54,20.16,3.6
2.7513,-11.509,-5.1894,1.8925,-1.0446,2.7593,-72.54,21.48,0.9
3.2825,-10.365,-5.0259,1.5528,-0.66798,2.2471,-72.36,22.8,-1.86
4.2904,-7.5865,-4.5764,1.3109,-0.50366,1.752,-71.64,25.56,-7.68
4.0589,-6.565,-4.699,1.2819,-0.63163,1.1622,-70.92,26.82,-10.86
3.3506,-6.17,-4.6718,1.3515,-0.93676,0.66248,-70.14,27.78,-13.92
3.2961,-7.0553,-4.5764,1.3665,-1.186,0.30146,-68.16,29.46,-20.4
3.3097,-7.246,-4.5083,1.2031,-1.4407,0.23335,-66.9,29.82,-23.58
3.1599,-6.9464,-4.4402,1.1316,-1.5201,0.23335,-65.46,30.0,-26.46
2.7104,-5.993,-4.127,0.97341,-1.6368,0.3375,-62.22,29.04,-31.14
2.3563,-5.8976,-4.127,0.90744,-1.5791,0.40378,-60.6,27.96,-32.88
1.9886,-5.8976,-4.0589,0.81856,-1.3824,0.45998,-59.04,26.64,-34.44
1.9205,-6.8647,-4.3994,0.75045,-1.1396,0.56169,-55.68,23.16,-36.78
2.3972,-8.54,-4.522,0.60018,-0.81459,0.78527,-53.88,21.24,-37.5
3.0101,-10.896,-3.9363,0.51801,-0.72113,0.85552,-50.46,16.98,-38.34
3.5822,-12.64,-3.4187,0.25473,-0.54306,1.0247,-48.72,14.94,-38.46
4.2087,-15.159,-3.0918,0.12309,-0.52229,1.0718,-46.98,12.96,-38.46
6.7148,-19.314,-4.0589,-0.12553,-0.46395,0.96761,-43.44,9.48,-38.1
7.2596,-19.504,-2.7786,-0.84055,-0.065057,0.66096,-41.88,7.8,-37.68
4.4402,-16.944,-1.2258,-1.639,0.45937,0.21594,-40.44,6.48,-37.32
2.9011,-14.751,-1.2939,-1.8173,1.2226,-0.86315,-38.82,4.44,-37.56
2.7649,-13.471,-1.6617,-1.6588,1.5247,-1.7602,-38.82,3.96,-38.1
2.9284,-13.43,-1.7434,-1.6344,1.8103,-2.3659,-39.48,4.02,-38.94
3.7728,-12.177,-1.7843,-1.6438,1.8524,-2.7275,-42.96,5.28,-40.68
4.0861,-11.25,-1.8932,-1.5965,1.6512,-2.9667,-45.9,6.54,-41.16
4.1814,-9.7658,-1.5527,-1.5476,1.1197,-3.073,-53.34,10.2,-40.62
3.7592,-8.7851,-1.3348,-1.5418,0.59926,-3.0308,-57.24,12.18,-39.12
3.4732,-8.431,-1.3484,-1.5403,0.28833,-3.0436,-61.02,13.98,-37.02
2.3427,-7.8726,-1.7025,-1.5592,-0.56566,-3.1444,-67.68,16.74,-31.5
2.0567,-7.8726,-1.7025,-1.6286,-0.91324,-3.094,-70.5,17.7,-28.5
1.7298,-7.9543,-1.6344,-1.7327,-1.0547,-3.0091,-73.2,18.78,-25.38
0.89894,-8.1041,-1.3348,-1.8845,-1.0095,-2.9004,-77.22,19.8,-18.24
0.54481,-8.1586,-1.1713,-2.1194,-0.5568,-2.6738,-78.6,19.8,-14.22
0.19068,-8.1586,-0.92618,-2.1942,-0.33598,-2.5974,-79.2,19.56,-9.96
-0.1362,-7.9951,-0.76274,-2.3378,0.46273,-2.3527,-78.9,18.72,-5.58
-0.38137,-7.3277,-0.91256,-2.3332,0.99418,-2.1469,-76.38,15.78,3.0
-0.36775,-7.2324,-0.99429,-2.2358,1.4334,-1.8961,-73.98,13.86,6.96
-0.35413,-7.4503,-1.0624,-2.0421,1.8445,-1.4969,-70.98,11.46,10.26
0.31327,-8.0905,-1.076,-1.6808,2.6957,-0.71196,-64.74,6.0,13.92
0.91256,-8.2131,-1.0215,-1.3485,3.1698,-0.12614,-61.92,3.48,14.46
1.9613,-8.2539,-1.0079,-1.0101,3.368,0.562,-59.4,1.2,14.34
3.6503,-7.927,-0.9398,-0.62461,3.3045,1.281,-55.92,-2.4,13.08
5.1757,-8.2948,-1.4165,-0.1744,2.8659,1.9923,-54.3,-4.02,12.0
6.851,-9.7113,-2.5198,0.58032,1.5882,3.0742,-52.26,-6.06,8.94
7.6138,-10.46,-3.4596,1.073,0.3711,3.66,-51.42,-6.54,7.38
8.0224,-10.828,-4.4266,1.4429,-0.93921,4.0519,-50.34,-6.84,4.26
7.246,-10.569,-3.732,1.6359,-1.9245,4.3249,-49.68,-6.12,1.56
6.4152,-10.038,-3.1735,1.5831,-2.4853,4.4242,-49.86,-4.8,-0.78
5.2166,-8.826,-2.7377,1.3986,-2.6594,4.2883,-50.34,-2.76,-2.22
4.6854,-7.6002,-2.3427,1.3225,-2.6389,3.8909,-50.82,0.18,-2.64
4.6309,-7.0962,-2.2882,1.3625,-2.569,3.2736,-50.82,1.56,-2.58
4.2768,-6.3471,-2.547,1.5211,-2.4725,2.2926,-50.58,4.5,-1.68
3.909,-6.3743,-3.2825,1.562,-2.4163,1.7868,-50.22,7.5,0.36
3.4051,-6.96,-3.8682,1.5201,-2.233,1.3891,-49.5,10.14,2.34
3.1191,-7.4912,-3.8818,1.3998,-1.8592,1.0519,-48.9,12.42,4.62
3.1191,-7.7636,-3.8546,1.2043,-1.4471,0.83261,-47.52,14.1,6.72
3.1327,-7.5457,-3.8546,0.99968,-1.0898,0.67042,-46.74,14.76,7.62
3.337,-7.0009,-3.7592,0.80726,-0.83566,0.50763,-44.76,15.96,9.12
3.1872,-7.0417,-3.6775,0.67776,-0.64782,0.25534,-42.9,16.56,10.08
2.7649,-7.9679,-3.6639,0.56994,-0.50396,0.13164,-40.92,17.04,10.92
2.5061,-8.4991,-3.3915,0.45479,-0.2584,0.029016,-39.9,17.04,11.28
2.2746,-10.038,-3.3642,0.40134,0.019853,0.034819,-37.56,16.68,11.7
2.7786,-11.795,-3.2825,0.28772,0.21197,0.10812,-35.1,16.2,12.42
3.1191,-12.558,-3.4732,0.20097,0.24587,0.18326,-33.9,16.08,12.6
4.304,-15.255,-4.1542,0.030238,0.025351,0.48564,-31.32,15.72,13.44
4.9033,-17.57,-4.0044,-0.083383,-0.12523,0.76083,-28.56,15.6,14.34
4.8625,-18.279,-3.3778,-0.33659,-0.12126,0.94409,-27.12,15.6,14.94
4.699,-17.162,-2.4108,-0.64446,0.03543,0.89797,-23.94,15.54,16.14
4.2223,-14.873,-1.7843,-0.90255,0.41569,0.58857,-21.0,15.42,16.8
3.9635,-13.811,-1.866,-1.0626,0.8659,0.076053,-19.56,15.24,16.98
3.6094,-11.073,-1.9341,-1.1176,1.1842,-0.54031,-17.22,15.3,16.92
3.5277,-9.507,-1.9068,-1.0122,1.2733,-1.4038,-15.72,15.66,16.32
3.6775,-8.9622,-1.7843,-0.93004,1.1365,-1.835,-15.18,15.78,15.96
3.8818,-7.9679,-1.8524,-0.89553,0.82894,-2.153,-14.82,15.9,14.82
3.8818,-6.96,-2.0567,-0.89706,0.39309,-2.3188,-15.18,16.26,13.62
3.6775,-6.6059,-2.261,-0.89278,-0.054978,-2.412,-16.14,16.26,12.0
3.1191,-7.1234,-2.3563,-0.94837,-0.6463,-2.4358,-17.7,16.2,10.56
2.7649,-7.3686,-2.2882,-1.1047,-0.82161,-2.4163,-18.48,16.26,9.9
1.7706,-7.9951,-1.9886,-1.2865,-0.77946,-2.419,-20.34,16.2,8.88
0.85808,-8.4719,-1.866,-1.5122,-0.52443,-2.419,-22.32,15.9,8.22
0.28603,-8.2539,-1.6617,-1.7312,-0.089797,-2.401,-23.94,15.12,7.56
0.21793,-8.1586,-1.6344,-1.9056,0.43035,-2.361,-24.78,14.64,7.32
0.14982,-7.9951,-1.3893,-1.9871,0.94043,-2.2608,-25.8,13.44,7.02
0.28603,-8.3357,-1.185,-1.9771,1.5266,-1.8928,-26.76,12.12,6.18
0.81722,-8.2676,-1.0215,-1.9126,1.8054,-1.5204,-27.48,10.26,5.4
1.0624,-8.2948,-0.92618,-1.6933,1.9334,-1.0327,-27.96,9.36,4.92
1.7025,-8.7987,-0.76274,-1.3555,1.963,-0.3427,-28.74,7.32,3.84
2.5198,-9.5751,-0.77636,-0.91538,1.9212,0.48808,-29.34,5.58,3.06
3.4187,-10.106,-0.8717,-0.025045,1.5776,1.7883,-29.64,4.14,1.86
4.2223,-10.746,-1.076,0.69058,1.0247,2.5934,-29.82,3.54,1.5
4.9306,-11.768,-1.866,1.4511,0.15852,3.2287,-29.88,2.88,0.96
5.9385,-12.136,-3.1191,2.1756,-1.0137,3.5894,-29.88,2.76,0.6
6.1428,-11.25,-3.8954,2.7678,-2.3353,3.6615,-29.52,2.94,0.96
5.884,-10.61,-4.2495,3.1374,-3.4868,3.4951,-29.4,3.42,1.08
4.7671,-9.3572,-4.0044,3.0223,-4.182,2.9377,-28.74,4.8,1.98
3.3642,-7.9679,-3.3097,2.2718,-4.2336,2.3512,-27.6,6.72,3.12
1.7162,-5.8704,-2.2882,1.8179,-3.7632,1.5947,-26.28,8.58,4.56
1.076,-5.0531,-2.2474,1.5769,-3.021,0.93859,-25.44,9.54,5.4
-0.081722,-4.2359,-2.1112,1.4285,-2.2535,0.52412,-23.58,11.52,7.08
-0.47671,-4.4811,-2.9829,1.3457,-1.4749,0.27458,-21.42,13.2,8.88
-0.28603,-4.7263,-3.6775,1.2266,-0.69639,0.076358,-20.22,13.92,9.66
0.68102,-5.0395,-4.2904,0.95448,0.17776,-0.082772,-17.82,15.42,11.16
1.5527,-5.1213,-4.5356,0.77336,0.57605,-0.057727,-15.54,16.8,12.42
1.8115,-5.1894,-4.5764,0.60689,0.7813,0.066584,-14.52,17.46,12.96
2.5742,-6.0202,-4.1542,0.51862,0.78099,0.25565,-12.42,18.54,14.1
2.9556,-7.5321,-3.732,0.53787,0.58277,0.51832,-10.44,20.04,15.36
3.2144,-10.351,-3.2553,0.53084,0.26114,0.78221,-8.94,21.96,16.5
3.2825,-12.231,-3.337,0.68783,-0.38851,1.2963,-8.46,23.1,17.22
4.3858,-18.864,-5.1757,0.63469,-0.96272,1.8405,-7.44,26.1,18.78
5.3937,-19.368,-5.489,0.26664,-1.504,2.3207,-6.6,29.76,20.58
7.1234,-19.532,-4.1678,-0.35064,-1.1997,2.3323,-6.12,31.68,21.54
7.0281,-19.532,-1.5255,-1.2633,0.15852,1.9997,-4.32,34.92,23.88
3.3778,-15.2,0.1362,-2.1771,1.7291,1.2318,-1.92,36.78,26.64
0.77636,-11.019,-1.0079,-1.9994,2.0409,-1.0412,0.24,37.14,28.86
0.64016,-10.025,-1.6889,-1.1713,1.4227,-2.6017,1.08,36.66,29.7
2.0703,-11.223,-2.7649,-1.12,1.2645,-3.2409,2.58,34.92,30.36
3.6503,-11.305,-2.4517,-1.4716,1.4209,-3.5394,3.12,33.78,30.48
4.7807,-8.9622,-2.3836,-1.4844,1.5348,-3.7791,3.78,30.54,29.7
4.9578,-7.5593,-2.0022,-1.376,1.233,-3.6481,3.66,26.34,28.26
4.3858,-7.5729,-1.9886,-1.3277,0.12126,-2.9233,2.34,21.6,26.1
3.6094,-7.7227,-1.8524,-1.4178,-0.81459,-2.781,1.32,19.2,24.78
2.152,-7.5048,-1.5936,-1.6011,-1.4203,-2.8332,-1.8,15.06,21.72
0.85808,-7.3822,-1.2667,-1.803,-1.6374,-2.7703,-5.76,12.6,18.66
0.14982,-7.355,-1.1986,-2.0436,-1.3897,-2.5843,-9.9,11.1,15.84
-0.027241,-7.355,-1.0896,-2.255,-0.78069,-2.3821,-11.88,10.86,14.7
-0.64016,-7.3277,-0.89894,-2.4352,0.034208,-2.2022,-15.6,10.38,12.96
-0.70826,-7.641,-0.77636,-2.4978,1.2291,-1.8686,-18.6,10.02,11.76
-0.35413,-8.0905,-0.81722,-2.4291,1.8134,-1.5241,-19.92,9.96,11.28
1.2258,-8.7443,-0.85808,-2.2907,2.2068,-1.1387,-22.26,9.48,10.74
2.5742,-8.6762,-0.92618,-1.9914,2.401,-0.69914,-23.94,9.12,10.14
3.1735,-8.6762,-0.7355,-1.5727,2.4694,-0.12492,-25.32,8.7,9.42
3.7728,-9.1801,-0.44947,-1.0458,2.3903,0.52748,-25.8,8.46,9.12
4.7671,-10.474,-0.5993,-0.049175,1.9896,1.6695,-26.34,8.1,8.22
7.3141,-11.7,-2.1112,0.74495,1.4068,2.4661,-26.58,7.74,7.32
8.1177,-11.468,-2.9965,1.5715,0.61758,2.999,-26.76,7.62,6.78
8.1586,-9.8611,-4.6582,2.2349,-0.48839,3.1951,-26.64,7.98,5.7
6.8919,-8.7306,-4.7944,2.5892,-1.6154,3.1719,-26.52,8.46,5.04
4.699,-7.5048,-3.4732,2.3158,-2.5333,3.022,-25.62,9.36,4.56
3.8954,-6.6331,-3.1735,1.7776,-3.0659,2.255,-25.32,9.9,4.56
2.5742,-4.985,-3.1054,1.5611,-2.8057,1.4777,-24.3,10.92,4.92
1.0079,-3.8954,-3.8682,1.4704,-2.2336,1.1341,-23.16,12.06,5.4
0.17706,-3.8818,-4.4539,1.3473,-1.4875,1.0901,-21.78,13.14,6.48
0.85808,-4.2904,-4.7807,1.1744,-0.46273,0.98502,-19.98,14.22,7.8
1.7434,-4.4947,-4.5356,1.0269,0.28772,0.80634,-18.9,14.7,8.64
2.6968,-4.1814,-4.127,1.0079,0.95478,0.759,-16.74,15.18,10.26
3.0646,-4.1678,-3.8273,1.0837,0.83597,0.85949,-15.36,15.3,10.86
3.3506,-4.9578,-3.6366,1.1154,0.36866,0.96822,-12.9,15.84,12.24
3.6366,-6.279,-3.6094,1.0959,-0.28986,1.0623,-10.44,16.32,13.14
3.5277,-7.8317,-3.5004,1.0327,-0.87781,1.1496,-7.74,16.98,14.04
3.0918,-9.1529,-2.9829,0.92699,-1.1325,1.2892,-4.8,17.76,15.18
2.833,-10.746,-2.6287,0.89461,-1.08,1.3286,-3.18,18.3,15.6
2.7377,-11.986,-2.5606,0.75442,-0.72754,1.4377,-1.56,18.84,16.02
3.0237,-15.663,-1.6617,0.62583,-0.39615,1.4166,1.38,20.28,17.16
3.5004,-18.401,-1.2395,0.48991,-0.11301,1.4236,2.7,21.12,17.82
4.7399,-19.504,-0.31327,0.23518,0.20189,1.4114,5.58,22.92,19.56
4.9442,-19.477,0.054481,-0.12401,0.56016,1.1616,6.84,24.06,20.46
4.8488,-17.352,0.17706,-0.3598,0.87506,0.70616,8.1,25.02,21.36
4.5628,-15.323,-0.16344,-0.29108,0.98013,-0.075747,9.24,25.92,22.26
3.6639,-12.476,-1.3893,-0.12217,0.73945,-0.66798,11.22,27.24,23.76
3.337,-11.06,-2.152,0.0058032,0.50946,-1.095,12.18,27.9,24.42
3.2825,-9.8884,-2.3427,-0.015882,0.39126,-1.2474,12.9,28.32,24.72
2.7922,-8.826,-2.261,-0.24557,0.57146,-1.2446,13.86,28.92,24.72
2.2882,-7.641,-2.2065,-0.46151,0.83291,-1.1771,14.1,28.98,24.6
2.2065,-6.9872,-2.2474,-0.64843,1.1008,-1.1551,14.22,29.04,24.42
2.0703,-5.8567,-2.3699,-0.76267,1.2361,-1.1481,14.1,28.92,23.94
2.3427,-4.5356,-2.6015,-0.77549,1.1839,-1.1133,13.62,28.2,22.38
2.5061,-4.5083,-2.656,-0.77458,0.967,-1.1164,13.14,27.9,21.42
2.5198,-4.6854,-2.6832,-0.84208,0.68478,-1.1393,11.7,26.88,19.08
2.2882,-4.7944,-2.5334,-0.96578,0.28527,-1.1313,11.1,26.34,17.7
1.9886,-5.094,-2.3836,-1.0085,0.21625,-1.1161,10.38,25.86,16.38
1.5119,-5.9385,-2.2337,-1.2095,0.24465,-1.1194,8.64,25.08,14.16
1.2395,-6.1973,-2.2474,-1.3958,0.45296,-1.1405,7.74,24.84,13.14
0.92618,-6.2926,-1.9341,-1.5611,0.75992,-1.1768,6.78,24.48,12.24
0.65378,-7.4231,-1.7434,-1.5736,1.266,-1.1655,4.98,24.24,10.74
0.53119,-9.5751,-1.3212,-1.639,1.5785,-1.0189,4.14,24.12,10.14
0.38137,-11.101,-1.0351,-1.704,1.7025,-0.86865,3.3,24.12,9.48
-0.1362,-15.623,0.42223,-1.7223,2.4004,0.046731,1.62,24.36,8.88
0.76274,-17.039,0.54481,-1.4697,3.0577,0.53542,0.96,24.6,8.82
2.0431,-17.57,0.69464,-0.69028,3.8988,1.733,-0.18,24.96,9.0
5.4481,-15.881,-0.21793,0.17501,4.0357,2.8448,-0.9,25.2,9.36
6.7693,-13.906,-1.6072,0.66371,3.7638,3.2128,-1.62,25.62,9.78
7.6002,-12.599,-3.6366,1.598,2.4633,3.5748,-2.1,26.1,9.96
8.6762,-9.6568,-5.4073,2.4936,-1.4258,3.2959,-2.64,27.18,10.32
8.322,-9.2346,-5.2438,2.4658,-4.0503,2.7767,-2.76,27.72,10.32
6.8919,-8.4719,-2.3155,1.6719,-5.9688,2.1112,-2.46,29.04,10.5
4.2495,-6.0611,-1.362,1.1167,-5.5415,1.492,-1.8,29.7,10.5
1.1577,-4.4947,-0.84446,0.92699,-4.8857,1.1894,-1.14,30.3,10.38
-0.27241,-4.0589,-0.96704,0.76664,-3.4431,0.7477,-0.36,30.9,10.32
-1.8387,-4.7126,-2.3836,0.6353,-1.6658,0.37538,1.5,32.1,9.72
-1.58,-5.0259,-2.9556,0.53603,-0.4664,0.078802,2.58,32.76,9.3
-1.076,-5.2166,-3.3642,0.40745,0.72052,-0.026878,3.48,33.42,8.7
1.4029,-6.1428,-3.3506,0.27764,1.8497,0.15638,5.76,35.1,7.68
2.4517,-6.8647,-3.4187,-0.010385,3.2022,0.28314,6.84,35.94,7.2
4.3177,-7.5048,-3.2553,-0.30146,3.5152,0.40073,7.8,36.6,6.9
6.8374,-7.246,-2.833,-0.48869,3.1875,0.4948,9.3,38.52,6.48
6.456,-6.9328,-2.0431,-0.42486,2.3958,0.43249,9.9,39.66,6.54
5.8159,-7.5593,-1.1986,-0.20831,1.5403,0.098349,10.26,40.98,6.66
4.9033,-11.577,-1.1441,0.037263,0.51893,-0.3149,9.96,43.98,6.3
4.5628,-16.671,-2.1248,0.047037,0.18479,-0.38729,9.42,45.78,6.0
4.3449,-18.823,-2.8194,-0.025656,0.14661,-0.37538,8.82,47.58,5.7
4.3313,-19.518,-3.1054,-0.3094,0.19456,-0.40928,8.04,51.54,4.74
4.6037,-19.532,-2.1929,-0.50427,0.51588,-0.40745,7.74,53.34,3.84
5.0668,-19.532,-1.9613,-0.78313,0.82284,-0.3708,7.68,55.14,2.76
4.6037,-18.061,-2.5061,-1.1188,0.8265,-1.0287,6.54,56.82,-0.72
3.5822,-16.317,-2.833,-1.2798,0.6017,-1.6582,5.64,57.18,-2.58
2.4108,-14.996,-3.2008,-1.3399,0.67195,-2.2345,4.32,57.36,-4.26
1.5119,-12.612,-3.2144,-1.4752,0.99968,-2.7382,1.02,56.58,-7.56
1.6753,-11.101,-3.051,-1.6576,1.3751,-3.0604,-1.08,55.68,-9.24
1.8524,-9.5751,-2.4517,-1.825,1.6148,-3.2266,-3.42,54.48,-10.74
1.7706,-8.7306,-2.1384,-1.8949,1.7266,-3.3796,-8.4,51.78,-13.26
1.5119,-8.3084,-1.9886,-2.0156,1.6759,-3.4486,-10.86,50.1,-14.58
1.5119,-7.8589,-1.9613,-2.0629,1.5311,-3.4844,-13.38,48.12,-15.6
1.4982,-7.5048,-1.975,-2.032,1.2755,-3.4291,-16.32,46.08,-16.5
1.3893,-7.6683,-2.0431,-2.0247,0.98288,-3.28,-19.26,43.62,-17.34
0.9398,-7.4776,-1.7434,-2.0278,0.69486,-3.0299,-25.86,38.64,-17.7
0.57205,-7.4776,-1.4982,-1.9957,0.44776,-2.4511,-28.98,36.48,-17.22
-0.10896,-7.75,-0.89894,-1.9404,0.44624,-2.1936,-31.8,34.44,-16.44
-0.49033,-7.4095,-0.6674,-1.8586,0.66493,-1.2996,-36.54,30.9,-15.18
-0.68102,-6.674,-0.40861,-1.7709,0.93187,-0.59071,-38.28,29.46,-14.7
-0.61292,-6.1155,-0.24517,-1.6386,1.2388,0.20495,-39.78,28.08,-14.34
-0.44947,-6.9464,0.40861,-1.4762,1.5595,1.1096,-41.88,25.86,-14.1
0.081722,-8.4038,0.64016,-1.3259,1.8549,2.1951,-42.48,24.84,-14.04
1.2939,-9.2891,0.83084,-1.1047,2.1383,3.6469,-42.66,23.94,-13.98
3.6775,-9.9292,0.43585,-0.98624,2.1426,3.9801,-42.78,23.22,-13.8
4.4402,-10.488,0.081722,-0.5623,1.6848,4.6331,-42.9,22.8,-14.1
4.8761,-11.809,-0.32689,-0.23152,1.0263,4.8448,-42.72,23.1,-14.22
5.0123,-13.675,-0.64016,0.1066,0.17532,4.8781,-42.36,23.58,-14.52
4.4266,-16.167,-0.89894,0.39248,-0.69608,4.6377,-41.34,25.56,-15.18
3.9635,-16.018,-0.65378,0.52718,-1.3567,4.1114,-40.56,26.82,-15.48
3.4596,-14.043,-0.10896,0.47678,-1.2871,3.9254,-39.78,28.08,-15.78
2.4653,-12.04,-0.027241,0.25412,-0.20311,3.2984,-37.38,30.72,-16.14
1.866,-11.087,-0.31327,0.1912,0.87842,2.8595,-35.88,32.1,-16.26
1.866,-10.787,-0.46309,0.13683,1.8378,2.4942,-34.2,33.42,-16.68
3.732,-10.924,-0.44947,0.079107,2.4676,2.2568,-30.36,36.42,-17.28
4.018,-10.501,-0.34051,-0.01069,2.8579,1.9688,-28.32,37.62,-17.82
4.2223,-9.8611,-0.21793,-0.009163,2.8414,1.9126,-26.04,38.82,-18.36
4.6582,-9.6432,-0.027241,-0.016188,2.7217,1.8796,-20.7,40.68,-19.2
4.7263,-9.6432,0.21793,-0.03146,2.5714,1.8781,-17.88,41.4,-19.62
4.6445,-9.6432,0.36775,-0.040012,2.3442,1.7908,-14.94,42.06,-20.04
4.4675,-9.4525,0.43585,-0.0064141,2.2706,1.7107,-8.58,42.9,-21.06
4.5492,-9.2618,0.69464,0.14478,2.3283,1.536,-5.34,43.26,-21.6
4.9306,-8.7715,0.76274,0.21686,2.3695,1.4395,1.2,43.74,-22.68
5.0259,-8.2676,0.54481,0.44257,2.4276,1.1753,4.38,44.04,-23.22
4.9987,-7.9407,0.34051,0.52412,2.412,1.084,7.44,44.22,-24.0
5.1485,-8.0224,-0.21793,0.76725,2.2318,0.7138,13.38,44.52,-24.48
5.2166,-8.3493,-0.54481,0.87048,1.9868,0.44868,16.02,44.34,-24.66
5.1485,-8.5672,-0.5993,0.92638,1.6927,0.22449,18.6,44.28,-24.6
5.5299,-12.749,-1.8796,1.1322,0.99418,0.025962,20.82,44.22,-24.48
6.0747,-15.418,-3.0782,0.9783,0.50671,-0.068417,22.92,43.98,-24.3
5.7342,-14.887,-3.1327,0.58185,0.41966,-0.24099,24.72,43.86,-24.24
3.8273,-11.768,-2.5198,0.1237,0.86346,-0.45265,26.16,43.62,-24.12
1.8932,-8.7851,-2.833,-0.047647,1.4988,-0.79321,28.26,42.78,-24.0
1.9477,-9.2755,-4.0861,0.044899,1.8622,-1.3063,28.98,42.48,-24.06
2.152,-10.447,-6.0474,0.062308,1.9532,-1.657,29.52,42.12,-24.24
2.4653,-11.387,-6.1292,-0.197,1.7993,-1.7181,29.58,41.76,-24.54
2.547,-11.632,-5.5435,-0.50824,1.514,-1.646,29.34,41.7,-24.9
2.5061,-12.013,-5.1213,-0.79412,1.1551,-1.5018,28.74,41.52,-25.26
1.6208,-13.961,-4.9306,-1.0672,0.94715,-1.3851,27.06,41.4,-26.34
1.2667,-14.029,-5.0804,-1.5327,0.84147,-1.3772,25.86,41.46,-27.0
0.054481,-12.231,-4.9714,-1.9798,0.91233,-1.5183,24.3,41.58,-27.72
-0.17706,-10.992,-4.5764,-2.2202,1.1854,-1.6939,19.74,41.82,-29.22
-0.20431,-9.8066,-4.1678,-2.292,1.5247,-1.839,16.86,41.94,-29.4
-0.20431,-9.0439,-3.8818,-2.2263,1.8256,-1.9432,13.44,42.18,-29.64
0.78998,-8.7306,-3.3915,-2.1438,1.9126,-1.9059,5.46,42.66,-28.62
0.96704,-8.4174,-3.0237,-2.1619,1.9395,-1.8161,0.96,42.78,-27.72
1.2531,-7.6546,-2.5061,-2.0977,1.8063,-1.5754,-3.66,42.72,-26.46
1.6072,-6.5378,-2.1248,-2.0146,1.697,-1.4859,-8.04,42.54,-25.2
1.6208,-6.7421,-2.1248,-1.7065,1.2257,-1.1463,-16.26,41.88,-22.02
1.6072,-6.9872,-2.0567,-1.5253,0.92363,-0.88148,-20.16,41.46,-20.1
1.6072,-6.8919,-2.0022,-1.3143,0.61209,-0.60598,-23.76,40.98,-18.0
1.5936,-6.3743,-1.9613,-1.0623,0.31551,-0.31337,-29.88,39.84,-13.44
1.4301,-6.565,-1.8387,-0.68356,0.017715,0.19731,-32.4,39.24,-10.8
1.2258,-6.851,-1.6208,-0.5678,-0.012828,0.36041,-34.14,38.58,-8.34
1.1032,-7.5729,-1.2803,-0.37263,0.033903,0.697,-35.46,37.74,-5.64
1.2122,-8.2403,-1.1305,-0.14447,0.27703,1.2617,-36.42,35.94,-0.78
1.4846,-8.8941,-0.92618,-0.015577,0.45784,1.6432,-35.88,35.1,1.38
1.7162,-10.801,-0.54481,0.097433,0.67714,2.033,-33.78,33.6,4.86
1.975,-11.7,-0.46309,0.19059,1.0702,2.6163,-32.34,33.06,6.12
2.9011,-13.13,-0.12258,0.19334,1.197,2.773,-30.96,32.58,7.44
3.3234,-12.858,-0.27241,0.15394,1.4798,3.0174,-28.38,31.86,9.48
3.8001,-12.013,-0.47671,0.1408,1.5262,3.0213,-27.12,31.74,10.5
4.0861,-10.624,-0.68102,0.17532,1.6047,2.7339,-25.86,31.68,11.16
3.6094,-8.9622,-0.89894,0.2813,1.5873,2.3246,-24.12,31.74,12.3
3.3778,-9.0031,-1.1441,0.46578,1.4597,1.6649,-23.34,31.74,12.66
3.1054,-9.7113,-1.757,0.51801,1.3958,1.4407,-22.08,32.22,13.08
3.1872,-10.256,-1.9068,0.55589,1.3299,1.0809,-21.6,32.64,13.2
3.3097,-10.637,-1.7843,0.51465,1.3378,0.91202,-21.0,32.94,13.2
3.2961,-10.665,-1.6072,0.40103,1.4077,0.85368,-20.46,33.3,12.84
2.9965,-9.902,-1.7434,0.31918,1.54,0.87842,-19.26,33.9,12.12
3.0373,-9.398,-1.8796,0.30329,1.8109,0.9557,-18.6,34.32,11.52
3.2144,-8.6353,-2.152,0.33598,1.8757,0.98288,-17.82,34.68,11.04
3.5277,-7.4776,-2.2201,0.4496,1.8747,0.95906,-16.32,35.76,9.78
3.623,-7.3686,-2.2882,0.52321,1.6851,0.88973,-15.48,36.12,8.88
3.8273,-7.2188,-2.5061,0.57727,1.3806,0.85582,-14.64,36.48,8.16
4.1678,-6.8374,-3.2825,0.60476,0.99296,0.81795,-12.6,37.08,6.66
4.0316,-6.3743,-3.732,0.58429,0.65729,0.74281,-11.58,37.2,5.76
4.0316,-6.3743,-3.732,0.55711,0.54978,0.74281,-11.58,37.2,5.76
3.5549,-4.6582,-4.0589,0.43982,0.34941,0.48655,-9.54,37.5,4.38
3.5413,-4.2359,-4.0316,0.39645,0.17929,0.29932,-8.4,37.62,3.72
3.5413,-4.0861,-3.9499,0.36988,-0.10018,0.097738,-7.38,37.62,3.12
3.4732,-4.0725,-3.7728,0.35705,-0.42089,-0.049786,-6.36,37.5,2.82
3.4459,-4.5764,-3.4459,0.35644,-0.73365,-0.13042,-4.68,37.5,2.46
3.5277,-5.0531,-3.5822,0.34544,-1.0308,-0.1576,-3.96,37.2,2.76
3.7047,-5.6524,-3.9227,0.3091,-1.3576,-0.14905,-3.36,36.96,2.82
3.3778,-6.7012,-4.1133,0.16585,-1.6945,-0.13134,-1.86,35.94,4.02
2.9556,-7.1507,-3.8137,0.08827,-1.7156,-0.15608,-1.02,35.64,4.8
3.337,-9.398,-3.8001,0.13836,-1.7819,-0.1182,0.48,34.92,6.84
3.732,-12.081,-3.5413,0.18845,-1.9432,-0.011301,1.44,34.5,7.98
4.2087,-16.181,-3.6503,0.29108,-2.2715,0.29596,2.34,34.32,9.3
6.1564,-19.477,-3.514,-0.029016,-2.306,0.40378,3.42,34.26,10.74
5.8023,-19.532,-1.7706,-1.4481,-1.6811,0.35949,6.06,33.84,13.62
3.7592,-19.532,-0.040861,-2.4728,-0.55039,0.078496,7.5,33.66,15.0
0.31327,-15.704,0.38137,-3.0116,1.0641,-0.37324,10.5,33.18,17.76
-0.12258,-13.893,-0.14982,-2.985,2.5177,-1.3063,12.0,32.82,19.26
-0.01362,-12.503,-0.92618,-2.6221,3.6444,-2.4383,13.32,32.46,20.52
1.9477,-10.529,-0.9398,-2.1481,4.583,-3.3738,15.36,31.68,22.8
2.9148,-8.7987,-0.74912,-1.8085,4.4419,-3.7437,15.9,31.38,23.7
3.8273,-7.5184,-0.64016,-1.5162,3.8292,-3.8466,16.02,30.78,24.3
5.1213,-6.4424,-0.7355,-1.3091,2.7284,-3.6954,15.48,29.76,25.38
5.094,-6.3198,-0.83084,-1.1643,1.2795,-3.4205,14.76,29.28,25.62
4.3858,-6.3062,-0.8717,-1.1234,-0.78618,-3.1234,13.86,28.74,25.8
2.5606,-6.7012,-0.7355,-1.1652,-1.273,-3.0519,11.4,27.36,25.68
1.3212,-6.3607,-0.64016,-1.3589,-1.9957,-2.6771,9.96,26.7,25.5
0.76274,-5.9657,-0.61292,-1.4978,-1.8573,-2.3512,8.22,26.16,25.26
-0.53119,-4.4947,-0.65378,-1.5299,-1.3677,-2.0455,4.92,25.14,24.66
-0.65378,-3.9908,-0.92618,-1.463,-0.76358,-1.726,3.3,24.66,24.24
-0.21793,-4.4402,-1.5119,-1.2947,-0.23396,-1.2996,0.42,23.94,23.34
0.44947,-5.0123,-1.866,-0.94928,0.36988,-0.37629,-0.6,23.58,22.92
0.81722,-5.3528,-1.9205,-0.63286,0.6353,0.32498,-1.44,23.46,22.56
1.1577,-5.7069,-1.7979,-0.2532,0.89553,1.062,-2.04,23.22,22.38
1.9341,-8.322,-1.5936,0.20159,1.1136,1.927,-2.64,22.68,21.9
3.337,-10.896,-1.8524,0.70738,1.1655,2.9468,-2.7,22.26,21.78
5.3256,-12.912,-3.623,1.2672,0.94715,3.7788,-2.46,22.02,21.84
6.1019,-12.054,-4.4402,2.1112,-0.0562,4.2565,-1.74,21.78,22.14
6.0066,-11.591,-5.2166,2.5195,-0.86621,4.4184,-1.26,21.66,22.38
5.8295,-11.346,-5.4073,2.6411,-1.2422,4.4498,-0.66,21.72,22.62
5.0668,-10.678,-5.2847,2.3998,-2.1032,4.014,-0.06,21.72,22.8
4.1133,-8.9622,-4.6718,2.0207,-2.5097,3.2687,1.92,21.96,23.58
3.9908,-7.641,-4.3177,1.7437,-2.6609,2.1753,3.18,22.08,23.88
3.4732,-5.8567,-3.4323,1.6179,-2.529,1.8005,6.3,22.2,24.3
2.9148,-5.6116,-3.3778,1.5269,-2.4575,1.416,7.98,22.2,24.6
2.6423,-5.6388,-3.6775,1.394,-2.4083,0.95173,9.84,22.38,24.6
2.2882,-5.8023,-4.2223,1.1869,-2.2874,0.58521,14.22,22.8,24.84
2.0567,-5.8159,-4.2359,0.98441,-2.0663,0.3937,16.62,23.22,25.02
1.4165,-6.17,-3.7728,0.86376,-1.6713,0.24251,19.02,23.34,25.08
0.78998,-7.5729,-3.4459,0.81764,-0.88209,0.11668,23.82,23.76,24.96
0.92618,-9.2755,-3.2553,0.76205,-0.35125,0.21838,26.34,23.94,24.96
1.3076,-10.569,-3.0373,0.81795,0.075747,0.49847,28.92,24.24,25.08
3.1872,-18.483,-4.4811,0.73273,0.37415,0.96608,33.78,25.08,25.44
4.8352,-19.409,-4.1814,0.092852,0.56658,1.5342,35.76,25.62,25.74
6.2654,-19.518,-3.3915,-0.1799,0.94073,1.8518,37.8,26.28,26.16
5.993,-16.44,-0.96704,-0.74342,2.1997,2.0122,41.28,26.94,27.3
5.7614,-13.961,-0.54481,-0.88606,2.8335,1.8344,42.84,27.12,27.96
5.2847,-12.381,-0.77636,-0.86926,3.4828,0.15455,44.34,27.06,28.92
4.6037,-8.54,-1.866,-0.46212,2.6961,-1.0944,46.08,26.82,31.14
5.0395,-8.1586,-2.152,-0.1066,1.6151,-1.6936,46.62,26.64,31.98
5.4754,-8.1586,-2.8739,0.030849,0.69028,-2.1139,46.98,26.52,32.76
5.1894,-7.8589,-3.4459,-0.093768,-0.26603,-2.5574,47.1,26.4,34.14
4.9987,-7.7091,-3.4187,-0.18509,-0.41997,-2.6047,46.74,26.28,34.5
4.2359,-7.2188,-2.9556,-0.40623,-0.69639,-2.5391,46.26,26.04,34.68
2.5606,-6.5786,-2.5061,-0.72601,-0.92729,-2.4102,44.76,25.86,34.56
1.7979,-6.6331,-2.3836,-0.92913,-1.0314,-2.3983,43.74,25.56,34.2
1.2395,-6.96,-2.3155,-1.1252,-1.0406,-2.3848,42.6,25.44,33.9
0.47671,-7.8317,-2.2474,-1.4679,-0.59987,-2.3369,39.66,25.98,32.58
0.054481,-7.9679,-2.2746,-1.6887,0.014661,-2.2636,37.92,26.46,31.8
-0.01362,-7.9815,-2.3699,-1.8729,0.69272,-2.1817,36.18,27.12,30.84
0.16344,-7.9951,-1.8796,-1.8851,1.2294,-2.0989,32.28,28.74,28.86
0.34051,-8.5536,-1.7979,-1.8378,1.584,-1.9086,30.12,29.58,28.14
0.54481,-9.2755,-1.471,-1.7862,1.8439,-1.5901,27.9,30.42,27.3
1.2258,-10.256,-1.1169,-1.4813,1.9157,-0.91844,23.28,31.74,26.16
1.6617,-10.351,-1.0896,-1.1561,1.8014,-0.3149,20.94,32.46,25.74
1.8251,-10.488,-1.1305,-0.95448,1.7043,0.020159,18.48,33.0,25.62
1.7706,-11.4,-0.99429,-0.13286,1.2886,1.2321,16.2,33.3,25.5
2.5061,-13.334,-1.4982,0.4725,1.0229,2.1145,12.36,34.14,25.38
3.3778,-13.062,-2.5334,1.1212,0.56169,2.817,10.56,34.44,25.32
4.5083,-11.278,-4.0725,1.7165,-0.15577,3.3097,8.82,34.86,25.32
4.6037,-10.61,-4.2904,2.2907,-1.2318,3.6603,6.72,35.4,25.14
4.0861,-10.093,-4.2223,2.3359,-1.7975,3.6356,6.12,35.64,25.02
3.6503,-10.065,-4.0861,2.2529,-2.0342,3.5687,6.12,36.06,24.54
3.1599,-9.9156,-3.6366,1.8833,-2.5189,2.9639,6.36,36.3,24.12
3.3097,-8.5127,-2.942,1.5434,-2.5708,2.4169,8.28,36.72,22.68
3.2144,-7.3822,-2.8603,1.2037,-2.1741,1.8674,9.66,36.96,21.78
2.6151,-5.8295,-3.0918,1.1692,-2.0348,1.7074,13.26,37.38,19.68
2.547,-5.6661,-3.4459,1.1451,-1.7672,1.2694,15.42,37.5,18.36
2.6015,-5.6116,-3.5413,1.0843,-1.551,0.77519,17.58,37.74,16.98
2.7377,-5.2166,-3.732,0.93249,-1.3317,0.32467,21.72,37.98,13.86
2.9965,-5.1349,-3.8137,0.86712,-1.296,0.1179,23.76,37.98,12.06
3.2008,-5.0531,-3.7047,0.75808,-1.3338,-0.069028,25.86,37.92,10.32
3.0646,-5.1757,-3.2689,0.63805,-1.456,-0.1744,29.1,37.44,6.42
3.0646,-6.3743,-2.7513,0.6579,-1.6102,-0.16768,30.3,37.2,4.44
3.0782,-7.355,-2.6423,0.68753,-1.8085,-0.10965,31.38,36.84,2.58
3.1872,-12.286,-2.9284,0.68264,-1.9453,0.071777,32.52,35.88,-1.38
3.4323,-16.249,-3.3506,0.54062,-1.8283,0.41264,32.64,35.28,-3.42
3.7184,-19.096,-3.5277,-0.057421,-1.2987,0.81245,32.7,34.62,-5.28
3.9635,-19.532,-2.6696,-1.23,0.29871,0.81337,32.34,33.6,-8.52
3.732,-19.532,-1.3076,-1.9013,2.0745,0.30788,31.98,33.24,-9.96
3.0646,-18.878,-0.054481,-2.266,3.8087,-0.25259,31.38,32.82,-11.34
1.7843,-15.377,0.68102,-2.4453,5.0406,-1.0632,29.7,32.52,-12.96
2.4653,-13.348,0.38137,-2.3527,5.6444,-2.1454,28.5,32.76,-13.14
3.732,-11.496,-0.40861,-1.8482,5.214,-3.2587,26.1,33.9,-11.88
6.4697,-8.6081,-0.44947,-1.4157,4.1921,-3.415,24.72,34.56,-10.62
6.96,-8.1858,-0.77636,-1.0244,2.8078,-3.2822,23.28,35.22,-9.06
6.851,-8.2267,-0.9398,-0.74251,1.1903,-3.1127,21.42,35.82,-7.44
5.3119,-7.246,-1.0896,-0.55589,-0.32498,-3.1206,17.7,37.44,-3.54
4.0861,-6.9191,-0.99429,-0.4499,-1.5006,-3.1939,15.78,38.28,-1.26
2.9965,-6.8919,-1.1032,-0.44288,-2.2403,-3.1814,13.62,39.18,0.9
1.2531,-7.0281,-1.0896,-0.64813,-2.3491,-3.1206,9.06,40.62,5.4
0.40861,-7.0553,-1.2122,-0.85246,-1.9141,-3.0268,6.66,41.4,7.62
-0.095342,-6.9464,-1.1169,-0.96303,-1.6005,-2.9563,4.38,41.94,9.9
-0.35413,-6.3471,-1.0624,-1.2504,-0.51649,-2.6976,2.16,42.42,11.94
-0.69464,-6.8374,-1.185,-1.321,0.076969,-2.3845,-1.86,42.6,15.24
-0.39499,-7.3958,-1.2531,-1.3949,0.52473,-1.9145,-3.78,42.24,16.32
-0.20431,-7.5729,-0.74912,-1.4514,0.84391,-1.3467,-7.26,41.1,17.82
-0.027241,-7.2733,-0.57205,-1.3546,1.2694,-0.25595,-8.88,40.68,18.24
0.24517,-7.246,-0.55843,-1.2556,1.4276,0.18204,-10.32,40.08,18.66
0.95342,-7.2733,-0.51757,-0.94195,1.6921,1.1121,-11.58,39.48,19.02
2.6287,-7.927,-0.89894,-0.2587,1.6576,2.4639,-13.68,38.4,19.56
3.4459,-7.9134,-1.185,0.3204,1.285,3.1563,-14.64,38.04,19.74
4.0589,-7.5865,-1.9068,0.90775,0.60048,3.6105,-15.36,37.8,19.86
4.1814,-7.1779,-2.0567,1.6994,-0.70769,3.9065,-16.44,37.74,19.8
3.8682,-7.2596,-2.0294,2.1325,-1.5333,3.9538,-16.68,37.92,19.8
3.6775,-7.3822,-2.0294,2.2926,-1.8879,3.9297,-16.62,38.1,19.62
3.6911,-8.4038,-2.152,2.5809,-2.5919,3.6789,-15.96,39.06,19.38
4.0589,-8.6217,-2.3563,2.5717,-2.8457,3.4108,-15.54,39.72,18.9
4.522,-7.927,-2.8058,2.4645,-3.0833,3.0827,-14.76,40.68,18.42
4.1814,-7.3822,-2.7377,2.1646,-3.3613,2.3897,-12.66,42.54,16.5
3.4459,-7.6955,-2.3155,2.0681,-3.3604,1.8231,-11.16,43.38,15.12
2.6015,-8.4446,-1.5527,2.0678,-3.2709,1.5626,-9.66,44.22,13.38
1.8932,-11.359,-1.0215,1.9731,-2.5519,1.1295,-8.1,44.88,11.34
1.3212,-17.352,-1.3757,1.5204,-1.7434,1.0318,-4.44,45.3,6.72
1.6344,-19.246,-1.3484,0.47098,-0.3937,0.91752,-2.46,45.3,4.44
2.7922,-19.532,-1.6072,0.26573,0.083383,0.95448,1.68,44.64,2.16
3.6366,-19.532,-1.1713,-0.15974,1.8766,1.233,3.78,44.04,-2.16
3.9635,-18.17,-0.98067,-0.21747,2.474,1.3265,5.88,43.38,-4.32
5.094,-15.241,-1.58,-0.27458,3.8091,1.117,9.84,41.52,-8.4
5.1894,-12.967,-1.4165,-0.33109,3.9676,0.54856,11.64,40.44,-9.96
5.0531,-10.27,-1.3212,-0.39279,3.6246,-0.022297,13.32,39.42,-11.64
5.4754,-6.6059,-1.7162,-0.32712,2.9215,-0.46976,16.08,37.5,-13.92
5.8976,-6.1155,-2.3563,-0.17226,1.9432,-0.79351,17.16,36.72,-14.52
6.0474,-6.0338,-2.6696,-0.090103,0.74953,-1.0073,17.94,36.12,-14.7
5.4209,-5.4754,-3.0646,-0.16341,-0.77488,-1.102,18.78,35.76,-14.22
4.7944,-5.1757,-2.8603,-0.34208,-1.3607,-1.0369,18.84,36.18,-13.74
3.1327,-4.8625,-2.7104,-0.53634,-1.5748,-1.055,18.78,36.42,-13.2
2.3427,-4.985,-2.6423,-0.92088,-1.3567,-1.2025,18.06,37.74,-11.58
1.4165,-5.3256,-2.6015,-1.0473,-1.1374,-1.2703,17.52,38.7,-10.68
1.1713,-5.6524,-2.6287,-1.2914,-0.52443,-1.493,16.86,39.66,-9.6
1.2122,-7.9679,-3.5413,-1.5281,0.49786,-1.8735,14.94,41.7,-7.38
1.58,-10.801,-4.0316,-1.6359,1.0275,-1.9725,13.92,42.66,-6.36
1.5119,-14.247,-3.3642,-1.9703,1.7599,-1.7978,11.34,44.28,-4.08
1.0896,-18.714,-1.185,-2.4826,2.3637,-1.755,9.9,45.06,-2.94
1.5255,-16.944,-0.5993,-2.6786,2.8307,-1.8781,8.34,45.72,-1.56
1.9613,-15.364,-0.7355,-2.2361,2.93,-1.6081,6.78,46.08,-0.24
4.4811,-13.375,-2.4517,-1.4294,2.4438,-0.89125,3.9,46.62,2.7
5.7069,-13.021,-3.5822,-0.48991,1.2593,-0.28619,2.52,46.56,4.08
6.0611,-12.286,-4.2495,0.38546,-0.40164,0.055894,-2.16,33.6,2.34
4.3858,-9.2482,-3.5685,0.98135,-1.7233,0.20159,-4.5,33.6,4.8
2.6287,-6.9736,-2.8058,1.0715,-2.4584,0.16035,-5.52,33.42,5.82
1.7979,-5.9249,-2.3427,0.68783,-2.2394,0.039706,-6.48,33.18,6.66
0.69464,-4.6037,-1.471,0.5339,-1.9829,-0.092241,-7.44,33.06,7.56
0.72188,-2.3699,-1.1305,0.46273,-1.0968,-0.58063,-8.82,32.82,8.88
1.0351,-2.0431,-1.3484,0.48991,-0.7083,-0.63469,-9.54,32.64,9.36
1.7025,-2.4789,-2.2337,0.48258,-0.54581,-0.57727,-10.56,32.46,10.2
1.6481,-2.7104,-2.4789,0.38943,-0.53054,-0.59193,-10.92,32.16,10.2
1.5527,-2.656,-2.4517,0.29902,-0.47647,-0.53848,-10.98,32.1,10.2
1.6208,-2.5742,-2.4244,0.25687,-0.40409,-0.41294,-11.1,31.98,9.96
2.0567,-3.6503,-2.1793,0.23366,-0.39584,-0.30116,-11.64,32.22,9.36
1.9613,-4.3858,-1.9205,0.15577,-0.42944,-0.28344,-11.94,32.22,8.94
1.0624,-6.2517,-1.3484,0.10201,-0.39187,-0.28741,-12.3,32.16,8.58
0.70826,-10.283,-0.96704,0.13867,-0.099571,0.038485,-14.22,31.74,6.36
0.76274,-15.282,-0.40861,0.042455,0.066584,0.30391,-14.88,31.56,6.0
1.3348,-18.36,0.39499,-0.35094,0.47647,0.97983,-15.42,31.32,5.34
3.3778,-19.518,0.5993,-0.58399,1.3323,1.8173,-16.86,30.78,4.14
4.7535,-19.532,0.6674,-0.43188,2.0024,2.4144,-17.34,30.6,3.36
5.7886,-19.532,0.70826,-0.15669,2.3787,2.8521,-17.58,30.36,2.64
5.1485,-14.833,-0.40861,0.20464,2.1447,2.6557,-17.64,30.3,0.96
4.1814,-11.319,-1.2531,0.91752,0.6576,1.6066,-17.58,30.12,0.24
3.909,-10.243,-1.3893,1.299,-0.52229,1.1359,-17.1,30.12,-0.66
3.8137,-8.9486,-1.7025,1.4658,-1.3186,0.87904,-16.5,30.12,-3.66
3.7184,-8.3765,-1.9477,1.4676,-1.6151,0.74709,-15.6,29.94,-4.62
3.2825,-7.7636,-2.6015,1.2269,-1.39,0.85155,-13.44,29.82,-6.6
2.9692,-6.565,-2.9011,1.0165,-1.1509,0.98105,-12.18,29.7,-7.68
2.6968,-5.8704,-3.0237,0.88453,-1.0299,1.0021,-10.8,29.52,-8.76
2.4925,-5.1894,-3.2008,0.58826,-0.86468,0.97555,-9.42,29.46,-9.66
1.757,-4.2632,-3.2689,0.23305,-0.54336,0.87354,-6.66,29.1,-11.58
1.5391,-4.127,-3.2144,0.011912,-0.20739,0.8094,-5.34,28.92,-12.24
1.2803,-4.413,-3.1191,-0.25107,0.30024,0.7251,-4.14,28.68,-12.96
0.92618,-4.6037,-2.6696,-0.63805,1.303,0.56352,-1.86,27.6,-14.28
0.7355,-5.6388,-2.2474,-0.70891,1.6597,0.51374,-0.84,27.42,-14.76
0.78998,-6.5378,-1.9886,-0.7758,2.7162,0.46701,0.06,26.82,-14.94
1.4029,-11.564,-1.2395,-0.74464,3.3588,0.54978,1.68,25.74,-15.24
2.2201,-16.086,-1.4438,-0.956,4.0317,0.73518,2.46,25.26,-15.3
3.2961,-19.096,-0.36775,-1.7504,4.7852,0.80604,3.3,24.78,-15.12
6.279,-19.246,-0.12258,-1.3613,5.4208,0.84635,4.92,23.82,-14.28
8.1858,-18.456,-1.4574,-0.9893,5.2907,1.007,5.52,23.34,-13.62
10.229,-14.928,-3.5685,0.39859,3.0158,1.058,6.24,22.8,-12.84
10.324,-12.544,-4.4947,1.2013,0.24679,0.58857,6.96,22.32,-11.88
6.4016,-7.4231,-4.0589,1.5828,-2.3534,0.020159,8.1,21.54,-10.32
4.9442,-7.2869,-3.5685,1.4077,-3.952,-0.45784,8.64,21.24,-9.72
2.4653,-5.8431,-3.0646,0.87934,-3.9795,-0.90836,9.0,21.06,-8.34
1.8387,-4.5764,-2.8058,0.53237,-3.0439,-1.1225,9.0,20.64,-7.86
1.3757,-3.8001,-2.656,0.32223,-1.9566,-1.2214,9.0,20.52,-7.26
1.1169,-3.4459,-2.8058,0.15944,-1.3729,-1.2541,8.7,20.4,-6.72
1.7162,-3.3097,-3.0373,0.059865,-1.1777,-1.3592,7.56,20.22,-5.82
2.152,-3.2825,-3.2416,0.036652,-1.2828,-1.4945,6.78,20.16,-5.34
2.8739,-3.9363,-3.8273,0.033292,-1.6084,-1.5751,5.16,19.44,-4.38
3.0101,-4.4947,-4.0044,-0.038179,-2.2083,-1.5745,4.38,19.02,-3.96
2.7922,-5.2711,-3.623,-0.13958,-2.5006,-1.5098,3.6,18.66,-3.42
2.6423,-5.6116,-3.0782,-0.20464,-2.6786,-1.4083,2.82,18.36,-2.64
2.438,-6.7966,-2.0431,-0.19823,-2.8463,-1.2388,2.28,17.7,-1.68
2.5879,-9.7113,-1.4165,-0.25656,-2.9975,-0.96181,1.98,16.2,1.44
2.7241,-12.531,-1.3076,-0.35858,-3.1114,-0.55711,2.46,15.36,3.42
3.3642,-19.028,-1.7843,-0.4612,-3.1475,-0.047647,4.8,13.5,7.92
3.2825,-19.477,-1.9613,-0.53756,-2.7269,0.39737,6.96,12.42,10.2
3.5685,-19.518,-1.6344,-0.65637,-1.1185,1.036,10.08,11.16,12.42
3.6775,-19.532,-0.89894,-0.8546,0.79443,1.128,17.88,8.1,16.14
2.7786,-19.532,0.1362,-1.244,3.0183,0.83475,22.14,6.24,17.34
1.3076,-15.691,0.8036,-1.5687,4.6206,0.027794,26.52,4.62,18.36
2.3427,-9.398,0.57205,-1.2535,5.4184,-1.7214,34.62,2.28,19.8
4.0044,-6.3743,0.14982,-0.73823,5.0158,-2.3589,38.22,1.56,20.28
4.6718,-5.7069,-0.20431,-0.45784,4.5516,-2.5278,41.52,1.2,20.28
6.0883,-5.6524,-1.8932,0.3036,2.379,-2.6707,46.5,2.22,19.92
6.3198,-5.4073,-2.5061,0.61392,0.62766,-2.5436,48.06,3.36,19.2
5.8295,-5.0259,-3.4323,0.70463,-1.7309,-2.0745,49.44,6.66,16.02
3.4187,-4.0589,-3.4732,0.44746,-2.7892,-1.8393,49.02,8.7,13.8
1.9886,-3.5958,-3.0918,0.27245,-3.0754,-1.7575,47.4,10.98,11.46
0.91256,-3.228,-2.5879,-0.19853,-2.7568,-1.5125,44.76,13.74,8.88
-1.6208,-2.2882,-3.051,-0.48869,-1.9163,-1.2339,37.38,19.98,3.96
-1.7706,-2.4653,-3.909,-0.70494,-1.0183,-0.90255,32.94,23.64,1.86
-0.61292,-4.2904,-4.0725,-0.99113,0.08491,-0.50855,23.7,30.72,-2.4
0.19068,-5.1485,-3.5004,-1.1894,0.64385,-0.37721,19.32,33.84,-4.44
0.8036,-6.6876,-3.5413,-1.204,0.79321,-0.27703,15.3,36.72,-6.42
1.2258,-8.3357,-3.3097,-1.0675,0.9557,0.06689,11.46,39.3,-8.16
2.6696,-17.734,-3.732,-0.84147,1.087,1.0055,4.86,43.2,-11.4
2.833,-19.314,-2.4789,-2.0779,1.4444,1.5565,2.1,44.64,-12.54
4.0861,-19.504,-2.6968,-1.9303,1.9991,2.0714,-0.24,45.78,-13.32
7.5048,-19.532,-3.2961,-1.3809,2.7996,3.3888,-3.6,47.4,-13.8
8.1177,-19.532,-3.5413,-0.81428,3.0247,3.6753,-4.38,48.0,-13.56
7.6955,-18.537,-4.018,-0.28466,2.5928,3.6432,-4.8,48.48,-13.02
6.0066,-10.311,-4.522,0.2022,1.4566,2.8066,-4.26,48.72,-11.22
4.8625,-7.8589,-3.8409,0.24984,0.5229,2.1377,-3.36,48.54,-10.08
