Ax,Ay,Az,Gx,Gy,Gz,Mx,My,Mz
3.3778,-7.3958,-0.27241,-0.21808,0.50977,-0.71563,1.62,39.54,1.26
3.2553,-7.4503,-0.36775,-0.23732,0.47556,-0.60659,0.96,39.54,1.26
3.1327,-7.4776,-0.25879,-0.29535,0.5284,-0.47159,0.36,39.36,1.5
3.0918,-7.2324,-0.34051,-0.37965,0.62797,-0.32803,-0.84,39.48,1.8
3.1599,-7.2052,-0.31327,-0.44746,0.72601,-0.18754,-1.44,39.54,1.92
3.2416,-7.2733,-0.36775,-0.54978,0.82772,-0.016799,-1.92,39.42,2.1
3.4596,-7.5321,-0.28603,-0.68264,0.97036,0.25656,-2.82,39.24,2.64
3.5413,-7.5593,-0.14982,-0.77488,1.0534,0.44104,-3.3,39.06,2.88
3.6503,-7.5048,-0.095342,-0.84116,1.1044,0.61087,-3.54,39.0,3.12
3.8137,-7.3822,0.040861,-0.87415,1.1423,0.75686,-3.96,38.82,3.48
3.9908,-7.4776,0.12258,-0.88606,1.1753,0.88973,-4.08,38.76,3.78
4.2904,-7.7227,0.027241,-0.89736,1.2107,1.0253,-4.08,38.64,4.08
4.413,-7.7091,0.14982,-0.89706,1.252,1.0861,-3.78,38.4,4.62
4.4539,-7.5729,0.24517,-0.86865,1.325,1.0873,-3.54,38.52,5.04
4.522,-7.5729,0.35413,-0.85307,1.3308,1.0586,-3.12,38.46,5.4
4.6173,-7.5184,0.47671,-0.82803,1.2932,1.0321,-2.88,38.4,5.82
4.9306,-7.4231,0.36775,-0.81398,1.2272,1.0064,-2.28,38.28,6.6
5.1213,-6.8647,0.095342,-0.77733,1.076,0.9444,-1.74,38.28,6.96
5.094,-6.6059,-0.19068,-0.71838,0.72571,0.79229,-0.6,38.4,7.8
4.9578,-8.3901,-0.29965,-0.69547,0.52626,0.75564,0.12,38.46,8.16
5.094,-10.828,-0.43585,-0.68356,0.43433,0.8262,0.72,38.46,8.64
5.3119,-12.612,-0.47671,-0.6805,0.44013,0.91385,1.32,38.52,9.18
5.7886,-15.35,-0.50395,-0.63041,0.6915,1.1805,1.8,38.34,9.78
6.6467,-18.428,-1.4438,-0.52718,1.0046,1.4355,2.88,38.22,10.8
7.2052,-15.214,-2.547,-0.2923,1.1558,1.0522,3.3,38.28,11.28
7.3277,-11.904,-3.7047,0.023518,0.97677,0.9053,4.08,37.8,12.3
7.4503,-11.4,-3.3915,0.27031,0.26695,0.65088,4.5,37.8,12.72
7.3822,-11.073,-3.1599,0.40623,-0.63011,0.4386,5.04,37.68,13.08
6.9872,-11.264,-3.3778,0.38454,-1.3256,0.26023,6.06,37.44,13.74
6.0883,-10.406,-3.1735,0.21411,-1.241,0.15119,6.36,37.32,14.1
5.1894,-9.0984,-2.9965,0.050396,-0.80512,-0.048258,6.78,37.14,14.22
4.3585,-6.7966,-2.4517,-0.043982,-0.030238,-0.43952,7.32,37.02,14.7
4.6037,-6.3198,-2.2337,-0.0094684,0.15088,-0.63927,7.56,36.78,14.88
4.7399,-6.17,-2.1656,0.065668,0.067501,-0.83505,7.74,36.72,14.94
4.7944,-5.884,-1.9886,0.15974,-0.16707,-0.99235,7.98,36.9,15.0
4.8352,-6.0611,-1.866,0.24557,-0.49144,-1.1219,7.86,36.84,15.0
4.5628,-6.4424,-1.7025,0.29993,-0.76389,-1.2113,7.86,36.78,14.88
3.8954,-7.355,-1.5936,0.3259,-0.83841,-1.2651,7.74,36.84,14.7
3.7047,-7.5729,-1.4846,0.30849,-0.80023,-1.277,7.56,36.78,14.64
3.514,-7.641,-1.3757,0.2813,-0.72021,-1.3042,7.32,36.84,14.4
3.1735,-7.3958,-1.4029,0.22144,-0.56077,-1.248,6.6,36.84,14.16
2.9284,-7.2869,-1.4301,0.18143,-0.45907,-1.16,6.12,36.84,13.92
2.942,-7.246,-1.4846,0.16738,-0.38454,-1.0424,5.64,36.96,13.86
3.0646,-7.9543,-1.4982,0.13225,-0.33139,-0.87842,4.74,36.9,13.74
3.0237,-8.4719,-1.3757,0.082467,-0.2645,-0.62827,4.26,36.96,13.68
2.9692,-8.7715,-1.2939,0.025656,-0.2135,-0.5061,3.72,36.9,13.62
2.8875,-8.8396,-1.2122,-0.031154,-0.1014,-0.40531,3.24,36.84,13.5
2.9148,-8.54,-1.1577,-0.075136,0.020159,-0.32712,2.34,36.9,13.2
3.0101,-8.1722,-1.1441,-0.086437,0.093768,-0.27061,1.92,36.84,13.14
3.0782,-7.8045,-1.0215,-0.079718,0.13347,-0.19242,1.56,36.96,13.2
3.3506,-7.246,-1.0079,-0.051618,0.10324,-0.041844,0.72,36.9,13.2
3.3778,-6.8647,-1.0488,-0.01069,0.045509,0.062308,0.42,36.78,13.38
3.4187,-6.674,-0.96704,0.0079412,0.014966,0.1127,0.18,36.78,13.38
3.4868,-6.1836,-1.1032,0.074831,-0.068417,0.27092,-0.24,36.6,13.44
3.5413,-6.0883,-1.1441,0.11209,-0.13195,0.37629,-0.54,36.48,13.56
3.6775,-6.1155,-1.0488,0.12798,-0.1912,0.45815,-0.6,36.3,13.56
3.732,-6.6604,-1.0215,0.14905,-0.26786,0.56536,-0.66,36.0,13.44
3.8954,-7.8589,-0.9398,0.11454,-0.39034,0.85368,-0.42,35.88,13.44
4.2904,-9.3844,-1.1032,0.091324,-0.43891,0.98441,-0.42,35.76,13.38
4.6854,-14.751,-1.0624,-0.12004,-0.47922,1.5876,0.06,35.52,13.44
5.5843,-18.605,-0.64016,-0.34911,-0.27397,2.098,0.42,35.46,13.44
5.8431,-17.489,0.21793,-0.57391,0.24801,2.1301,1.5,35.22,13.5
5.0804,-15.881,0.16344,-0.69578,1.0101,1.8784,2.1,35.04,13.56
5.203,-14.792,-0.28603,-0.51924,1.1176,1.5317,2.7,34.98,13.62
5.3937,-13.77,-0.89894,-0.35247,0.99143,1.3195,3.3,34.86,13.62
6.0747,-11.564,-1.7025,0.19945,0.13073,0.86101,4.02,34.74,13.74
6.9328,-9.7385,-1.5391,0.48655,-0.65454,0.62919,5.76,34.44,13.92
6.2109,-8.7034,-1.4574,0.63255,-1.2935,0.36957,6.54,34.44,13.98
4.7807,-7.4095,-1.757,0.65668,-1.5849,0.07086,8.04,34.44,14.1
4.0316,-6.7012,-1.6072,0.56536,-1.5207,-0.22633,8.64,34.44,14.16
3.5549,-6.0611,-1.5119,0.35064,-1.0168,-0.60048,9.36,34.26,14.28
3.0918,-5.3119,-1.2531,0.20617,-0.5736,-0.81215,10.5,34.14,14.1
2.9011,-5.1621,-1.3212,0.075442,-0.15669,-1.0012,10.92,34.08,13.92
2.8875,-5.4481,-1.185,-0.062614,0.18082,-1.1631,11.16,33.96,13.98
3.0237,-6.3471,-1.0215,-0.32467,0.5339,-1.3744,11.52,34.08,13.74
2.942,-6.7421,-0.69464,-0.51191,0.77091,-1.4673,11.52,33.96,13.74
2.7649,-6.7966,-0.47671,-0.6072,0.90622,-1.5091,11.52,33.9,13.74
2.4517,-6.8374,0.19068,-0.80054,1.3723,-1.566,10.68,33.84,13.8
2.5198,-6.6604,0.28603,-0.87079,1.6448,-1.5421,10.32,33.84,13.98
2.6423,-6.674,0.20431,-0.91294,1.8353,-1.4645,9.78,33.78,14.04
3.0237,-6.8102,0.040861,-0.89583,1.9044,-1.2596,8.64,33.72,14.46
3.2008,-6.7421,-0.081722,-0.83994,1.7849,-1.0696,7.92,33.66,14.82
3.4596,-6.0611,-0.14982,-0.74312,1.5513,-0.85368,6.42,33.42,15.42
3.514,-5.884,-0.32689,-0.60567,1.2285,-0.64232,5.58,33.24,15.96
3.5413,-6.5105,-0.8717,-0.46609,0.85399,-0.3882,4.14,32.88,16.74
3.6366,-7.8998,-1.1577,-0.36805,0.55344,-0.086743,2.88,32.4,17.52
3.7865,-9.7794,-1.1577,-0.30696,0.32559,0.33842,1.68,32.16,17.94
4.1951,-12.463,-1.362,-0.26114,0.31704,1.2379,1.02,31.86,18.18
4.9306,-15.432,-1.7298,-0.26053,0.60079,1.8225,0.6,31.92,18.48
6.2109,-16.835,-1.8115,-0.25473,1.0388,2.3225,0.78,31.62,18.72
6.5922,-14.097,-2.152,-0.24984,1.3485,2.507,1.08,31.38,18.54
6.7148,-13.198,-2.4653,-0.12156,1.211,2.5299,1.5,31.38,18.54
7.246,-12.476,-2.8875,0.044593,0.55558,2.4963,2.28,31.56,18.6
7.5321,-12.136,-3.1054,0.23671,-0.94318,2.1762,3.06,31.62,18.42
7.1098,-11.605,-2.7104,0.25962,-1.2822,2.0412,4.02,31.86,18.36
6.0338,-10.883,-2.1112,0.21838,-1.5446,1.7483,4.74,31.74,18.36
5.4618,-9.6568,-1.866,0.082161,-0.97769,1.2046,5.52,31.8,18.24
4.1678,-6.0883,-1.6889,0.048564,-0.39401,0.81001,7.14,31.56,18.0
4.127,-5.4073,-1.7025,0.094379,-0.059865,0.41753,7.8,31.38,17.88
4.304,-4.9169,-1.9886,0.14691,0.026267,0.11026,8.28,31.26,17.64
4.699,-4.6718,-2.0294,0.20189,-0.12981,-0.25412,9.54,31.32,17.46
4.808,-4.6445,-1.7706,0.2135,-0.22419,-0.36072,10.2,31.38,17.4
4.699,-4.5901,-1.6344,0.20464,-0.55192,-0.5229,10.68,31.44,17.28
4.0452,-4.8625,-1.4846,0.18418,-0.67562,-0.57269,11.58,31.32,16.86
3.9227,-5.1485,-1.4438,0.12278,-0.6802,-0.5901,12.18,31.5,16.68
3.8001,-5.6116,-1.185,-0.0064141,-0.49908,-0.57391,12.54,31.56,16.5
3.732,-6.2654,-0.85808,-0.039095,-0.42333,-0.56719,13.56,31.5,16.2
3.8137,-6.8647,-0.81722,-0.11301,-0.27672,-0.5229,13.8,31.62,16.14
3.9227,-7.641,-0.7355,-0.23976,-0.030849,-0.48045,13.92,31.62,16.02
3.8137,-8.8124,-0.14982,-0.29169,0.1799,-0.49205,14.1,31.86,15.84
3.9635,-9.3572,-0.095342,-0.27306,0.35827,-0.53115,14.16,31.92,15.84
4.4266,-10.025,-0.28603,-0.17654,0.37141,-0.60231,14.28,32.04,15.72
4.7263,-11.332,-0.55843,-0.029016,0.12034,-0.64996,14.28,32.04,15.78
5.2575,-13.579,-0.89894,0.070555,-0.35064,-0.57146,14.22,31.98,15.66
5.8976,-18.919,-0.84446,0.022907,-1.0195,-0.23152,14.22,32.16,15.66
6.0066,-19.491,0.095342,-0.1909,-0.91019,-0.17135,14.16,32.04,15.72
4.6718,-17.597,0.70826,-0.45968,0.093768,-0.63041,14.16,31.92,15.9
2.8875,-14.56,-0.054481,-0.50549,0.64507,-0.89247,14.04,31.92,15.9
3.0646,-13.348,-0.83084,-0.3598,0.79748,-1.1628,13.86,31.86,16.02
3.3097,-12.258,-1.2531,-0.24343,0.72907,-1.2776,13.62,31.86,16.02
4.1406,-10.256,-1.7162,0.083078,0.32773,-1.3182,13.44,31.98,16.26
4.9033,-8.6353,-1.3484,0.18876,-0.072998,-1.164,12.72,31.86,16.44
4.4811,-7.4503,-0.78998,0.19334,-0.45693,-1.0024,12.3,32.04,16.56
2.9556,-5.8295,-0.77636,0.15944,-0.66157,-0.91966,11.52,32.22,16.8
2.5061,-4.699,-0.78998,0.098655,-0.7083,-0.87842,11.1,32.22,17.04
2.3699,-4.3858,-0.77636,0.073609,-0.68845,-0.86773,10.62,32.34,17.16
2.261,-4.3858,-0.68102,-0.04948,-0.58551,-0.82467,10.14,32.34,17.16
2.1929,-5.3528,-0.46309,-0.19792,-0.3821,-0.7813,9.3,32.46,17.46
2.152,-5.4209,-0.43585,-0.37813,-0.065973,-0.73793,8.82,32.58,17.58
2.0158,-5.5707,-0.12258,-0.62369,0.47098,-0.55589,8.28,32.7,17.64
2.2201,-6.4152,0.12258,-0.7758,0.82039,-0.33872,7.14,33.06,17.94
2.5061,-6.4697,0.14982,-0.87873,1.106,-0.13531,6.66,33.12,18.18
2.6696,-6.1428,0.19068,-0.9221,1.2859,0.041844,6.24,33.06,18.3
3.1191,-5.8567,0.01362,-0.87598,1.3344,0.23885,5.58,33.3,18.9
3.3642,-6.0611,-0.14982,-0.79657,1.2486,0.41936,5.4,33.12,19.14
3.6366,-6.5786,-0.31327,-0.6295,0.92454,0.68814,4.74,33.12,19.5
3.8409,-7.2869,-0.36775,-0.51038,0.68295,0.92454,4.56,33.24,19.56
3.9771,-8.2131,-0.43585,-0.416,0.51435,1.2043,4.56,33.24,19.92
3.9363,-8.9894,-0.36775,-0.3488,0.42302,1.5311,4.5,33.36,20.16
4.304,-12.122,-0.40861,-0.29535,0.4331,1.9138,4.86,33.48,20.52
4.7944,-13.866,-0.49033,-0.22755,0.5565,2.2486,4.92,33.54,20.88
5.2302,-14.901,-1.185,0.032376,0.73457,2.386,5.58,33.42,21.12
6.2245,-15.936,-1.58,0.26725,0.5171,2.5818,6.12,33.36,21.12
7.3277,-15.445,-2.3563,0.3879,0.28986,2.609,6.84,33.3,21.06
7.7091,-14.928,-2.8603,0.67104,-0.51282,2.4655,7.62,33.18,21.12
7.7091,-14.165,-3.0918,0.91538,-1.6185,2.1447,9.36,33.24,20.88
6.9464,-12.544,-2.5334,0.89583,-2.0711,1.7233,10.32,33.24,20.64
6.0066,-11.278,-2.2882,0.77549,-2.1209,1.0146,12.48,33.3,20.1
4.1951,-8.6489,-2.0294,0.6857,-1.646,0.59895,13.68,33.12,19.62
3.8001,-7.4367,-1.9886,0.55894,-1.0183,0.2303,14.82,32.88,19.14
3.6094,-6.6876,-1.9613,0.50488,-0.7028,0.064446,15.84,32.76,18.84
3.7728,-5.489,-2.0294,0.36499,0.014966,-0.33384,16.98,32.82,18.36
3.8954,-4.8352,-1.8796,0.28802,0.31582,-0.50946,18.84,32.76,17.28
4.0589,-4.8216,-1.7706,0.24221,0.46609,-0.63133,19.56,32.76,16.8
4.4266,-4.9578,-1.757,0.20556,0.47281,-0.66859,20.88,32.82,15.96
4.6582,-5.1213,-1.7706,0.16341,0.34728,-0.65515,21.48,32.88,15.54
4.7399,-5.3119,-1.7025,0.1295,0.14722,-0.624,21.84,32.94,15.06
4.6445,-5.993,-1.7434,0.088575,-0.14508,-0.56139,22.2,33.24,14.22
4.6173,-6.8919,-1.7706,0.0082467,-0.27092,-0.52198,22.32,33.36,13.98
4.5492,-7.464,-1.7162,-0.081551,-0.29627,-0.54275,22.32,33.42,13.68
4.1133,-8.3765,-1.3484,-0.24709,-0.093462,-0.74953,22.26,33.9,13.5
3.8682,-8.9213,-1.1032,-0.34331,0.13592,-0.9163,22.14,34.2,13.38
3.8001,-9.3163,-0.96704,-0.37477,0.24954,-1.0024,21.9,34.5,13.26
3.7184,-10.351,-0.65378,-0.4215,0.38087,-1.1936,21.24,34.92,13.32
3.4868,-10.365,-0.5993,-0.4163,0.43433,-1.3042,20.88,35.22,13.56
3.8001,-10.025,-0.57205,-0.34514,0.64843,-1.507,20.58,35.4,13.74
3.9499,-9.4117,-0.57205,-0.14355,0.42241,-1.6863,19.44,35.7,14.04
3.8137,-9.4525,-0.54481,0.015577,0.033903,-1.6918,18.9,35.94,14.16
4.2223,-10.869,-0.43585,0.068722,-0.1857,-1.6701,18.36,36.18,14.46
4.6173,-13.866,-0.57205,0.034208,-0.90958,-1.1661,17.22,36.48,15.0
4.5492,-17.257,-0.19068,-0.11301,-1.3164,-0.61178,16.5,36.78,15.18
4.4811,-18.129,0.081722,-0.36591,-1.2388,-0.078496,15.78,36.96,15.36
3.3234,-14.982,1.1577,-0.62736,-0.55283,0.19609,14.28,37.26,15.6
3.3234,-14.982,1.1577,-0.84238,0.73029,0.26237,14.28,37.26,15.6
3.0101,-12.898,0.6674,-0.80176,1.1206,0.22419,13.56,37.38,15.96
3.2961,-10.27,-0.38137,-0.63347,1.0895,0.15638,12.36,37.56,16.62
3.8137,-9.0575,-0.40861,-0.41844,0.85643,0.19639,11.7,37.62,16.74
4.4811,-8.2131,-0.31327,-0.23427,0.49236,0.31979,11.1,37.62,16.86
4.5764,-6.96,-0.12258,-0.095906,-0.18631,0.61392,10.26,37.92,17.28
4.0861,-6.4152,-0.081722,-0.051313,-0.49327,0.71899,10.02,38.1,17.46
3.6775,-5.7069,-0.28603,-0.028711,-0.60842,0.73793,9.78,38.22,17.82
3.4459,-5.1213,-0.38137,-0.023518,-0.63163,0.73334,9.66,38.22,17.88
3.337,-4.3585,-0.51757,-0.039706,-0.65027,0.71166,9.72,38.34,18.18
3.2961,-4.6173,-0.49033,-0.08094,-0.64232,0.67287,9.9,38.28,18.36
3.3097,-5.7478,-0.38137,-0.22358,-0.45754,0.67165,10.38,38.4,18.66
3.4459,-6.5105,-0.21793,-0.38515,-0.2022,0.68845,10.74,38.34,18.96
3.2961,-6.96,-0.095342,-0.55925,0.17868,0.69852,11.1,38.28,18.96
3.1872,-7.1234,0.027241,-0.63499,0.41539,0.68539,11.52,38.4,18.9
3.2825,-6.851,0.24517,-0.78374,1.1325,0.58063,12.3,38.4,19.08
3.514,-6.7693,0.31327,-0.78496,1.4361,0.47495,12.84,38.4,19.08
3.7592,-6.9055,0.1362,-0.73029,1.5653,0.42455,13.32,38.22,19.2
4.6718,-7.5321,-0.040861,-0.53481,1.3399,0.39828,14.34,38.16,19.32
5.1076,-7.8181,-0.21793,-0.36316,0.95875,0.41325,14.7,38.1,19.44
5.1757,-7.8181,-0.24517,-0.18479,0.45662,0.4102,14.94,38.1,19.56
5.3256,-9.2482,-0.70826,-0.034514,-0.062614,0.42638,15.42,37.98,20.1
5.1894,-10.569,-0.81722,0.076358,-0.44715,0.44196,15.72,37.98,20.22
5.1485,-12.286,-1.076,0.15211,-0.61025,0.5455,16.08,37.86,20.82
5.2847,-14.124,-1.3076,0.14447,-0.38668,0.53115,16.38,38.04,20.76
5.0531,-13.416,-1.5255,0.15302,0.030543,0.31032,16.56,38.1,21.0
4.6445,-12.449,-1.7025,0.19395,0.2306,0.18784,16.68,38.04,21.3
5.2575,-13.416,-2.0703,0.42364,0.33414,0.021991,17.1,38.1,21.66
6.6059,-13.484,-2.6423,0.5507,-0.074526,-0.014966,17.28,38.1,21.78
6.8919,-13.484,-2.9965,0.6805,-0.80817,-0.15211,17.34,38.46,21.78
5.2711,-11.959,-2.6968,0.60964,-0.88728,-0.31551,17.46,38.58,21.66
4.6445,-10.597,-2.3427,0.56261,-0.85368,-0.42822,17.58,38.76,21.42
4.3449,-9.7794,-2.2337,0.49511,-0.71654,-0.62003,17.82,38.82,21.24
3.8273,-7.7091,-2.2746,0.4163,-0.42089,-0.80695,18.06,39.3,20.7
3.8682,-6.96,-2.1929,0.38179,-0.26267,-0.91996,18.0,39.48,20.4
3.8409,-6.4016,-1.866,0.33903,-0.1912,-1.0061,17.94,39.78,20.04
3.6366,-5.4073,-1.5663,0.30574,-0.19517,-1.0498,17.52,40.26,19.38
3.5277,-5.2575,-1.5119,0.30177,-0.23091,-1.0501,17.22,40.44,18.96
3.5004,-4.9714,-1.4438,0.31979,-0.30452,-0.98838,16.86,40.8,18.6
3.4732,-4.808,-1.4438,0.35522,-0.45754,-0.87262,15.96,41.28,17.82
3.5413,-4.9306,-1.4574,0.36988,-0.55497,-0.76633,15.48,41.52,17.4
3.4596,-5.1485,-1.5119,0.38179,-0.63133,-0.64355,15.18,41.82,17.1
3.5958,-5.8567,-1.5391,0.35583,-0.72601,-0.43341,14.34,42.24,16.68
3.5958,-6.1292,-1.5527,0.30757,-0.7648,-0.32651,13.86,42.6,16.44
3.623,-6.3471,-1.4982,0.27092,-0.77061,-0.28802,13.32,42.9,16.14
3.3506,-6.96,-1.4301,0.135,-0.64935,-0.23335,12.24,43.2,15.6
3.3915,-7.4231,-1.362,0.029932,-0.50519,-0.22052,11.7,43.38,15.48
3.4187,-7.8998,-1.2667,-0.081245,-0.31154,-0.20586,11.4,43.62,15.36
3.4732,-8.7306,-1.0079,-0.16005,-0.10415,-0.20769,10.56,43.8,15.18
3.5549,-8.9486,-0.95342,-0.22938,0.1686,-0.26084,10.14,43.92,15.12
3.623,-9.3027,-0.95342,-0.23518,0.21716,-0.27794,9.84,43.92,15.0
3.8273,-9.9292,-0.92618,-0.17837,0.2138,-0.31154,9.24,44.04,15.0
3.9908,-10.951,-0.89894,-0.12828,0.060476,-0.25229,8.82,44.22,15.0
4.2768,-12.572,-0.89894,-0.1347,-0.16616,-0.018326,8.46,44.28,14.82
4.9033,-17.162,-0.70826,-0.29658,-0.45112,0.6918,7.74,44.58,14.94
5.4754,-18.279,-0.68102,-0.40164,-0.41233,0.9108,7.5,44.58,14.94
5.38,-17.162,-0.068102,-0.72479,0.22907,1.1035,7.32,44.64,14.82
4.1133,-14.533,0.28603,-0.83139,0.78618,1.1741,7.14,44.88,14.88
3.9499,-13.266,0.027241,-0.80817,1.1252,1.0889,7.14,45.06,15.0
3.9227,-11.836,-0.50395,-0.64416,1.1622,0.94867,7.08,44.88,15.12
4.8625,-9.2891,-0.98067,-0.41081,1.0345,0.95234,7.44,44.88,15.6
5.3119,-8.717,-0.8036,-0.15241,0.5061,1.0226,7.8,45.0,15.66
5.4618,-7.8998,-0.42223,-0.039706,0.012828,1.0779,8.16,45.06,15.78
4.8352,-6.2245,-0.43585,0.027489,-0.4441,1.0519,8.94,44.94,16.26
4.3449,-5.5162,-0.47671,0.058032,-0.73457,0.96242,9.6,44.82,16.44
4.0861,-4.699,-0.61292,0.068722,-0.88026,0.8207,10.2,44.76,16.68
3.6911,-4.2495,-0.68102,0.031765,-0.87965,0.54214,11.58,44.52,16.74
3.4323,-4.7263,-0.70826,-0.07758,-0.71807,0.40714,12.42,44.4,16.86
3.4459,-5.1894,-0.64016,-0.15852,-0.58399,0.34606,13.26,44.34,17.16
3.4459,-6.1428,-0.50395,-0.32284,-0.21441,0.21105,13.98,44.1,17.22
2.942,-6.9872,0.040861,-0.61423,0.62094,0.018631,15.3,43.86,17.58
2.8875,-7.2869,0.35413,-0.78252,1.2709,-0.094073,15.84,43.92,17.58
3.1463,-7.2188,0.49033,-0.88301,1.8372,-0.19853,16.26,43.86,17.58
3.6503,-7.1915,0.64016,-0.85246,2.3259,-0.3204,16.74,43.86,18.0
3.9908,-7.3141,0.51757,-0.72449,2.2978,-0.35583,16.92,43.86,18.36
4.3858,-7.3414,0.25879,-0.52718,1.941,-0.37202,16.98,43.8,18.36
5.094,-8.4855,-0.24517,-0.31582,1.3329,-0.32498,16.62,44.1,19.02
5.1894,-9.3436,-0.28603,-0.10232,0.64813,-0.19853,16.38,44.04,19.32
5.094,-10.665,-0.47671,0.069944,0.059865,0.017715,16.02,44.1,19.86
5.5843,-13.212,-1.0624,0.2923,-0.46181,0.34941,15.12,44.1,20.52
5.3664,-13.566,-1.471,0.41661,-0.52534,0.38362,14.7,44.16,21.0
5.0259,-13.784,-1.9341,0.48258,-0.45784,0.37171,14.16,44.22,21.42
4.985,-14.22,-2.2474,0.70311,-0.30055,0.38087,13.74,44.16,21.6
5.9249,-12.871,-3.0918,0.81734,-0.4496,0.3091,13.02,44.1,22.08
5.884,-12.258,-3.4732,0.89247,-0.79474,0.19426,12.78,44.22,22.08
5.38,-11.319,-3.4732,0.85002,-1.0424,0.084299,12.54,44.16,21.9
4.9033,-10.42,-3.1327,0.61942,-1.0736,-0.13317,12.54,44.16,21.18
4.413,-9.5479,-2.7513,0.46029,-0.86529,-0.28894,12.6,44.28,20.88
3.9363,-8.8532,-2.5742,0.33109,-0.51588,-0.42425,12.72,44.4,20.28
3.4323,-7.5457,-2.3563,0.22877,-0.12614,-0.58307,12.72,44.64,19.5
3.5958,-6.6331,-2.1248,0.17685,0.11759,-0.73182,12.72,44.64,18.72
3.5685,-6.1292,-2.0567,0.17226,0.25137,-0.84422,12.9,44.58,18.3
3.5549,-5.094,-1.9341,0.19456,0.20769,-0.93768,12.6,44.64,17.28
3.6775,-4.8216,-1.7843,0.21686,0.11881,-0.97005,12.66,44.7,16.74
3.7047,-4.8352,-1.7025,0.27672,-0.11973,-1.0095,12.6,44.88,16.26
3.7728,-5.2166,-1.6208,0.33842,-0.4667,-0.94592,12.0,45.12,15.3
3.6366,-5.4481,-1.4982,0.34086,-0.63499,-0.86804,11.52,45.24,15.0
3.2553,-6.0611,-1.2667,0.31765,-0.68325,-0.75045,10.68,45.6,14.52
3.1191,-6.2109,-1.3076,0.23702,-0.54764,-0.5846,10.02,45.78,14.4
3.1327,-6.3607,-1.1577,0.17593,-0.42822,-0.48106,9.48,45.96,14.22
3.1191,-6.3743,-1.0079,0.10812,-0.31857,-0.39706,8.94,45.84,14.16
3.2144,-6.8919,-0.85808,0.026267,-0.20189,-0.29535,7.92,45.84,13.8
3.3234,-7.5457,-0.61292,-0.036041,-0.083994,-0.20067,7.5,45.72,13.86
3.3778,-8.0769,-0.50395,-0.071777,0.026878,-0.10721,6.9,45.84,13.56
3.6639,-9.1529,-0.47671,-0.10171,0.1237,-0.06017,6.0,46.02,13.26
3.732,-9.6704,-0.38137,-0.087965,0.18845,-0.03207,5.52,45.96,13.14
3.8001,-10.379,-0.47671,-0.077885,0.12004,0.086132,4.92,45.96,13.14
4.3449,-12.313,-0.61292,-0.11057,-0.060781,0.3372,4.5,45.9,13.08
4.9578,-17.094,-0.51757,-0.18906,-0.25351,0.72998,3.9,45.84,12.9
5.6661,-18.496,-0.50395,-0.3656,-0.22633,1.1454,3.66,45.66,12.84
5.1213,-16.44,0.32689,-0.56688,0.16188,1.2175,3.66,45.24,12.78
4.3177,-14.792,0.14982,-0.66004,0.60079,1.0708,3.6,45.0,12.78
4.0316,-13.307,-0.32689,-0.53359,0.9951,0.77946,3.72,44.88,12.84
4.2359,-11.359,-1.5119,-0.30513,0.74495,0.56413,3.96,44.64,12.96
4.808,-10.42,-1.8387,-0.083994,0.4102,0.53451,4.2,44.64,12.96
5.2575,-9.7249,-1.3757,0.037874,0.088575,0.57757,4.5,44.52,13.08
4.699,-8.0905,-0.95342,0.0012217,-0.21075,0.686,5.58,44.28,13.14
4.1133,-7.4095,-0.92618,-0.086437,-0.18448,0.6744,5.94,44.22,13.26
3.7728,-6.96,-0.96704,-0.14264,-0.12523,0.64599,6.42,44.16,13.32
3.4868,-5.3528,-1.1169,-0.31551,0.13592,0.51618,7.62,44.22,13.62
3.4596,-4.7944,-1.1577,-0.41936,0.30879,0.3821,8.1,44.1,13.74
3.4051,-4.7399,-1.2258,-0.6017,0.58918,0.16585,9.06,44.16,14.16
3.2416,-5.4073,-0.92618,-0.73457,0.84269,0.023213,9.36,44.22,14.46
3.1599,-5.489,-0.64016,-0.87598,1.1625,-0.12309,9.66,44.28,14.58
2.9829,-5.5162,-0.47671,-0.97219,1.4548,-0.24251,9.84,44.4,14.64
3.0918,-5.6116,-0.19068,-1.0486,1.7147,-0.35186,10.14,44.46,15.0
3.1327,-5.598,-0.095342,-1.0773,1.8738,-0.45082,10.08,44.46,15.24
3.2553,-5.9112,-0.12258,-1.0544,1.934,-0.50763,10.02,44.46,15.54
3.6775,-6.2109,-0.10896,-0.96669,1.7993,-0.50732,9.42,44.52,16.5
3.909,-6.6059,-0.28603,-0.91783,1.679,-0.49847,9.12,44.4,16.86
4.0316,-7.5321,-0.57205,-0.83017,1.361,-0.41172,8.64,44.22,17.28
4.2223,-10.351,-0.7355,-0.75869,0.99876,-0.11668,7.56,43.68,18.06
4.3177,-12.258,-0.53119,-0.68295,0.90133,0.16554,7.02,43.62,18.66
4.6445,-13.743,-0.6674,-0.61514,0.96211,0.50244,6.48,43.44,19.2
5.2575,-16.481,-1.4165,-0.39187,1.1387,0.95661,5.28,43.02,19.68
6.2109,-16.222,-2.0294,-0.14203,1.1359,1.2043,4.8,42.84,20.22
6.9328,-14.029,-2.8603,0.18754,0.70647,1.2309,4.38,42.6,20.7
7.0553,-12.572,-3.6366,0.47281,-0.084605,1.233,4.08,42.54,21.12
6.4833,-11.891,-4.127,0.59651,-0.86132,1.1362,3.72,42.06,21.6
5.9112,-11.25,-4.0861,0.55314,-1.266,0.92974,3.54,41.94,21.72
5.1621,-10.488,-3.0918,0.35369,-1.1277,0.75136,3.54,41.88,21.78
4.1678,-8.4855,-2.6015,-0.0036652,-0.1295,0.44349,3.9,41.76,21.6
3.6366,-7.3141,-2.3155,-0.16646,0.61728,0.18448,4.32,41.82,21.6
3.514,-6.4424,-2.2746,-0.24007,1.1454,0.0073304,4.68,41.88,21.6
3.8818,-6.0747,-2.3427,-0.2697,1.4022,-0.11362,4.92,42.0,21.54
4.4947,-5.7478,-2.1929,-0.25534,1.4004,-0.18784,5.46,41.94,21.0
4.6854,-5.5707,-2.0839,-0.21258,1.1854,-0.25229,5.82,42.12,21.06
4.6718,-5.5707,-1.6617,-0.14508,0.87384,-0.27611,6.18,42.3,21.06
4.4266,-5.5435,-1.58,-0.065363,0.58857,-0.2642,6.36,42.36,20.94
4.3177,-5.6661,-1.8387,0.014966,0.39737,-0.22449,6.48,42.36,20.94
4.413,-5.9793,-1.9886,0.11942,0.22571,-0.16952,6.48,42.42,20.88
4.6718,-6.4969,-2.438,0.15302,0.10996,-0.14447,6.24,42.6,20.82
4.5901,-6.3743,-2.3836,0.14752,-0.0039706,-0.14813,6.12,42.6,20.76
4.5356,-6.279,-2.3563,0.11698,-0.085827,-0.17623,5.64,42.48,20.88
4.3177,-6.7693,-2.2882,0.062919,-0.10385,-0.21319,5.28,42.6,20.76
4.304,-7.2733,-2.1112,-0.03207,-0.045204,-0.28039,5.1,42.6,20.7
4.3313,-7.6546,-1.9886,-0.22358,0.29077,-0.36102,4.98,42.66,20.76
3.9908,-8.2131,-1.9068,-0.39218,0.7364,-0.40195,4.44,42.66,20.76
3.6775,-8.036,-2.152,-0.51068,1.0684,-0.4496,4.2,42.6,20.76
3.3778,-7.927,-2.2065,-0.57574,1.5211,-0.39737,3.9,42.48,20.58
4.0589,-8.9622,-1.9068,-0.57757,1.6619,-0.343,3.3,42.42,20.4
4.8488,-10.392,-1.6889,-0.57482,1.8387,-0.19242,2.88,42.36,20.16
5.884,-13.838,-1.7298,-0.52015,1.2471,0.50091,2.1,42.42,19.98
5.884,-13.838,-1.7298,-0.52015,1.2471,0.50091,2.1,42.42,19.98
6.2517,-15.977,-1.5663,-0.51954,0.89278,0.7929,1.92,42.36,19.86
6.4969,-16.317,-1.5936,-0.5284,0.72418,0.94928,1.32,42.3,19.68
6.2245,-15.159,-1.6481,-0.49663,0.67256,0.86163,1.02,42.48,19.68
5.3528,-12.83,-1.4982,-0.38668,0.54978,0.60292,0.24,42.24,19.62
5.0259,-12.054,-1.4846,-0.29841,0.33353,0.28253,-0.06,42.12,19.68
4.9033,-11.373,-1.2939,-0.22297,0.15974,0.022602,-0.24,42.12,19.68
4.5901,-9.8611,-0.92618,-0.1741,0.10354,-0.16646,-0.66,42.12,19.86
4.413,-9.2891,-0.88532,-0.16432,0.1408,-0.3204,-0.78,42.06,19.86
3.9771,-8.322,-0.85808,-0.18509,0.25809,-0.4777,-1.08,42.12,19.86
3.4596,-6.8374,-0.84446,-0.21777,0.41814,-0.63194,-1.8,42.24,20.1
3.2825,-6.279,-0.76274,-0.24587,0.56658,-0.74587,-1.98,42.12,20.28
3.3506,-6.0474,-0.64016,-0.30055,0.67623,-0.82436,-2.28,42.18,20.34
3.2416,-5.8159,-0.62654,-0.33292,0.67562,-0.80909,-3.66,42.12,20.82
3.228,-5.9657,-0.57205,-0.3653,0.67348,-0.71838,-4.38,42.06,20.88
3.1599,-6.9464,-0.44947,-0.40256,0.71013,-0.65821,-6.06,41.94,20.94
3.0646,-7.3822,-0.35413,-0.48594,0.90103,-0.45112,-6.78,42.12,21.06
3.051,-7.5729,-0.34051,-0.49724,0.99052,-0.38179,-7.74,42.06,20.88
3.1599,-8.0632,-0.25879,-0.52443,1.2214,-0.10843,-9.9,42.0,20.58
3.2008,-8.2403,-0.34051,-0.50305,1.2559,0.10812,-10.98,41.94,20.58
3.8001,-9.3844,-0.44947,-0.46823,1.1683,0.38759,-13.08,41.82,20.58
4.0997,-9.7385,-0.40861,-0.41875,1.0061,0.70158,-13.98,41.64,20.4
4.127,-9.8611,-0.70826,-0.36255,0.78618,1.1328,-14.64,41.46,20.28
3.9363,-11.278,-0.46309,-0.34025,0.72052,1.2883,-15.42,41.58,20.22
4.2223,-13.416,-0.44947,-0.36194,0.6579,1.9966,-16.08,41.4,20.16
4.7944,-13.239,-0.57205,-0.32284,0.73426,2.109,-16.2,41.46,20.34
5.0395,-12.885,-1.0215,-0.19242,0.76847,2.2419,-16.14,41.7,20.58
5.5707,-11.25,-2.1248,-0.12126,0.69669,2.1234,-15.18,42.06,21.0
5.2575,-10.597,-2.3972,0.024435,0.36774,1.6521,-14.46,42.0,21.18
4.9987,-10.583,-2.3155,0.080329,-0.12309,0.92577,-13.62,42.24,21.48
3.6094,-11.141,-1.4301,-0.010079,-0.13836,0.38729,-11.58,42.6,22.08
3.1463,-11.605,-0.89894,-0.18631,0.20006,-0.027184,-10.68,42.9,22.2
2.8467,-11.387,-0.54481,-0.39309,0.86193,-0.29169,-9.78,43.08,22.32
3.1735,-10.215,-0.61292,-0.63774,1.9862,-0.55314,-7.86,43.74,22.74
3.3778,-9.1937,-0.74912,-0.66187,2.4984,-0.68356,-7.08,44.16,23.04
3.4732,-7.4095,-0.8717,-0.6463,2.656,-0.7422,-6.48,44.22,23.28
3.6366,-5.38,-0.96704,-0.48747,2.6508,-0.93279,-5.7,44.4,23.46
3.8137,-4.4266,-0.96704,-0.35949,2.2883,-0.99632,-5.76,44.4,23.34
3.8001,-4.1542,-0.70826,-0.25412,1.8433,-0.96333,-5.88,44.4,23.28
3.4459,-4.0725,-0.58567,-0.11606,1.2969,-0.80451,-7.14,44.16,23.16
3.3778,-4.2359,-0.65378,-0.051313,1.0437,-0.61484,-7.92,44.04,23.04
3.4323,-4.4539,-0.7355,-0.032681,0.87812,-0.40867,-8.88,43.74,22.98
2.833,-5.38,-1.7979,-0.10751,0.99999,-0.13011,-11.04,43.26,22.56
2.942,-5.7478,-1.9341,-0.21044,1.4065,0.071166,-11.94,43.08,22.26
3.2008,-5.8295,-1.8251,-0.29108,1.8216,0.10354,-12.96,42.9,22.14
3.6911,-6.4152,-1.4301,-0.34361,1.9743,0.30543,-15.12,42.6,21.6
4.1951,-7.246,-1.2531,-0.27886,1.8604,0.51282,-16.08,42.42,21.36
4.7535,-8.4719,-1.362,-0.24068,1.7721,0.61728,-16.92,42.24,20.88
5.9657,-10.855,-1.2531,-0.11515,1.408,0.91966,-18.06,42.36,20.1
6.2654,-12.068,-0.74912,-0.049786,0.94134,0.96395,-18.42,42.54,19.8
6.0202,-12.286,-0.65378,0.0073304,0.51221,0.96822,-18.48,42.66,19.32
4.8625,-13.443,-0.36775,0.026878,0.56872,0.86682,-18.24,43.26,17.88
5.0259,-14.764,-0.5993,-0.026878,0.7926,0.79626,-18.12,43.68,17.04
5.5707,-14.301,-0.61292,-0.061087,0.92546,0.67684,-17.76,44.22,15.96
5.5026,-12.122,-0.55843,-0.16005,1.288,0.27458,-17.16,44.94,13.32
5.2575,-11.06,-0.27241,-0.20097,1.4639,-0.047953,-17.1,45.24,11.88
4.8488,-10.093,-0.25879,-0.1857,1.4658,-0.44563,-16.92,45.42,10.2
5.0123,-11.046,-0.01362,-0.12675,1.1854,-0.77091,-17.04,45.78,6.6
5.094,-11.182,0.027241,-0.094684,0.86315,-0.97372,-17.52,45.72,4.74
5.0531,-11.032,0.095342,-0.082467,0.70372,-1.0525,-18.36,45.84,2.94
4.413,-10.774,0.35413,-0.078191,0.40103,-1.1939,-20.88,45.0,-1.02
3.9908,-10.447,0.7355,-0.098044,0.29322,-1.2602,-22.5,44.28,-2.52
3.7728,-9.9973,0.85808,-0.10629,0.20769,-1.3063,-24.48,43.5,-3.96
3.5277,-9.1801,0.7355,-0.071166,0.033903,-1.3784,-28.86,41.7,-6.3
3.3642,-8.6217,0.69464,-0.044593,-0.12859,-1.4465,-31.14,40.62,-7.02
3.3234,-8.2539,0.54481,-0.029932,-0.22449,-1.4728,-33.72,39.42,-7.56
3.2008,-7.9679,0.46309,-0.000611,-0.35827,-1.5211,-36.06,38.16,-7.8
2.8467,-8.0088,0.49033,-0.03207,-0.30116,-1.5033,-40.62,35.4,-7.32
2.6423,-8.0088,0.57205,-0.10018,-0.17043,-1.4471,-43.08,34.02,-6.78
2.547,-8.0632,0.58567,-0.19975,-0.014661,-1.368,-45.48,32.58,-6.12
2.5742,-7.8045,0.5993,-0.31643,0.15058,-1.2675,-49.44,29.76,-4.26
2.6015,-7.4776,0.47671,-0.42272,0.30574,-1.1527,-51.12,28.26,-3.42
2.656,-7.246,0.44947,-0.51985,0.39645,-1.0223,-52.62,27.0,-2.4
2.8194,-6.9328,0.38137,-0.624,0.43494,-0.76236,-55.02,24.78,-0.66
2.9556,-7.2733,0.40861,-0.71074,0.45723,-0.55986,-56.04,23.7,-0.06
3.0918,-7.5729,0.47671,-0.83017,0.57941,-0.23366,-57.72,21.54,1.08
3.2144,-7.927,0.54481,-0.91996,0.69364,-0.0015272,-58.38,20.52,1.5
3.4187,-8.145,0.5993,-1.0125,0.81153,0.25412,-58.92,19.62,1.74
3.6366,-8.5944,0.64016,-1.0644,0.89217,0.38851,-59.52,18.84,1.92
3.9771,-9.2482,0.64016,-1.2113,1.1301,0.78191,-60.48,17.82,2.04
4.3449,-9.4117,0.74912,-1.2785,1.2456,1.0107,-60.66,17.64,1.98
4.5083,-9.1393,0.62654,-1.3241,1.2993,1.1683,-60.84,17.4,1.92
4.6582,-9.8884,0.35413,-1.3906,1.2248,1.3463,-60.72,17.34,1.38
4.8625,-11.768,0.28603,-1.4978,1.1964,1.5956,-60.48,17.64,1.26
5.1485,-12.544,0.23155,-1.6142,1.3638,1.7178,-60.18,17.94,1.02
4.9442,-12.027,0.47671,-1.6881,1.584,1.6634,-59.04,18.96,0.48
4.9306,-11.673,0.31327,-1.7162,1.8298,1.624,-58.32,19.8,0.3
5.1213,-11.986,0.068102,-1.6619,1.9322,1.4832,-57.42,20.7,-0.06
5.2847,-12.572,-0.28603,-1.4273,1.8045,1.3085,-55.86,22.56,-0.72
5.5299,-12.313,-0.36775,-1.2416,1.6704,1.1234,-55.08,23.7,-0.9
5.4073,-11.782,-0.28603,-1.1503,1.5828,1.0009,-54.18,24.9,-1.32
5.0395,-10.924,-0.17706,-0.90683,1.3155,0.63469,-53.16,25.98,-1.68
4.3177,-9.1256,-0.25879,-0.78466,1.1609,0.43707,-51.3,28.08,-2.52
4.1542,-8.5808,-0.32689,-0.73457,1.0742,0.32559,-50.16,29.22,-2.88
4.2223,-8.0088,-0.54481,-0.7199,1.0705,0.26481,-49.38,30.18,-3.3
3.9227,-7.0962,-0.65378,-0.77885,1.1802,0.20739,-47.52,31.8,-4.08
3.5685,-6.456,-0.64016,-0.85338,1.3109,0.15455,-46.74,32.64,-4.38
3.3778,-6.3471,-0.47671,-0.91233,1.496,0.14355,-45.9,33.42,-4.92
3.5822,-6.1019,-0.17706,-0.94104,1.6991,0.19639,-44.46,34.38,-5.64
3.9227,-6.0202,-0.095342,-0.91752,1.8014,0.27458,-43.98,34.86,-6.0
4.3313,-5.993,0.01362,-0.83627,1.7926,0.38026,-43.2,35.34,-6.48
4.9306,-5.6933,-0.14982,-0.69058,1.6625,0.50274,-41.88,36.12,-7.32
5.1213,-5.3528,-0.29965,-0.34575,1.211,0.64019,-41.28,36.3,-7.74
5.094,-5.1757,-0.49033,-0.22144,1.0226,0.66951,-40.86,36.54,-8.1
5.489,-4.7944,-1.3484,0.16371,0.4273,0.69364,-39.6,37.14,-9.18
5.5843,-5.2711,-1.5255,0.35155,0.087965,0.64385,-39.18,37.44,-9.6
5.5707,-5.9385,-1.7298,0.49297,-0.14661,0.53206,-37.98,37.98,-10.38
5.5162,-6.4424,-1.6208,0.60048,-0.39279,0.29077,-37.44,38.28,-10.74
5.9657,-8.3493,-1.9886,0.624,-0.65821,0.28986,-36.96,38.52,-11.22
6.4833,-10.951,-2.2337,0.51862,-0.87568,0.35797,-36.66,38.64,-11.46
6.565,-13.43,-1.471,0.39737,-0.91844,0.19884,-35.88,39.18,-12.06
5.8023,-13.893,-1.0896,0.27886,-0.72693,-0.078191,-35.46,39.36,-12.36
5.3528,-14.356,-0.81722,0.16616,-0.42028,-0.31857,-35.34,39.42,-12.42
4.522,-13.661,-0.96704,0.11576,-0.059865,-0.86071,-35.1,39.36,-12.48
4.3177,-13.28,-1.0215,0.1405,0.065668,-1.0095,-35.16,39.36,-12.48
4.3449,-12.572,-0.92618,0.20128,0.31307,-1.1646,-35.16,39.24,-12.48
4.2632,-10.733,-0.49033,0.28863,0.61667,-1.2972,-35.7,38.64,-12.36
4.0997,-9.4798,-0.38137,0.36072,0.69914,-1.2846,-36.0,38.34,-12.3
4.2087,-8.4174,-0.21793,0.42577,0.56413,-1.2404,-36.36,37.86,-12.3
4.1951,-7.069,-0.12258,0.47495,-0.023518,-1.2107,-37.14,36.66,-12.3
3.8954,-6.6059,0.027241,0.46792,-0.42394,-1.1836,-37.5,36.06,-12.18
3.6366,-6.3471,-0.068102,0.44318,-0.67012,-1.1777,-37.8,35.34,-12.24
3.2008,-6.1973,-0.12258,0.38362,-0.82131,-1.1848,-38.88,33.78,-12.12
2.8603,-6.17,-0.28603,0.28222,-0.80634,-1.1649,-39.54,32.88,-12.06
2.7104,-6.2517,-0.28603,0.16188,-0.68111,-1.1295,-40.08,32.04,-12.12
2.6968,-6.7829,-0.24517,-0.082161,-0.3262,-0.98777,-41.22,30.24,-12.18
2.6015,-7.1915,-0.23155,-0.17471,-0.18021,-0.9279,-41.82,29.34,-12.12
2.5334,-7.4503,-0.16344,-0.4386,0.37935,-0.72846,-42.42,28.5,-11.94
2.6423,-7.4503,-0.16344,-0.59254,0.75717,-0.57788,-43.26,26.82,-11.82
2.8467,-7.355,-0.01362,-0.69119,0.99876,-0.42272,-43.62,25.86,-11.76
2.9284,-7.0553,-0.095342,-0.74892,1.1133,-0.26725,-44.1,25.2,-11.82
3.3915,-7.0281,-0.027241,-0.75747,1.0708,-0.0033598,-44.94,23.76,-11.76
3.5413,-7.2052,0.027241,-0.74739,0.91233,0.19914,-45.36,23.22,-11.88
3.7184,-7.2188,-0.01362,-0.71716,0.70585,0.41233,-45.66,22.8,-11.82
4.018,-7.2324,-0.040861,-0.67104,0.46823,0.58735,-46.02,22.26,-12.18
4.0452,-7.246,-0.17706,-0.64232,0.2532,0.74892,-46.02,22.14,-12.24
3.9908,-7.4095,-0.17706,-0.62094,0.092241,0.92393,-46.08,22.08,-12.36
4.127,-7.8045,-0.24517,-0.66004,0.031765,1.1808,-45.78,22.26,-12.6
4.0725,-7.7636,-0.34051,-0.686,0.057116,1.2398,-45.48,22.62,-12.84
4.1133,-7.4503,-0.43585,-0.72907,0.18143,1.3234,-45.06,23.04,-13.02
4.2359,-7.8317,-0.43585,-0.75656,0.38087,1.3408,-44.4,23.94,-13.38
4.5083,-8.7579,-0.6674,-0.77702,0.41661,1.3845,-43.92,24.54,-13.62
4.8216,-10.406,-0.6674,-0.79443,0.40653,1.5018,-43.38,25.2,-13.68
5.8159,-14.301,-0.9398,-0.84941,0.48961,1.847,-42.24,27.0,-13.8
6.1155,-15.527,-1.1032,-0.8714,0.66676,1.9847,-41.4,27.9,-13.8
6.5378,-17.911,-1.1305,-0.87109,0.95753,2.0458,-40.68,28.92,-13.92
7.2596,-15.323,-1.58,-0.79199,1.2288,1.8485,-38.88,30.78,-13.86
7.3822,-12.503,-2.2201,-0.57421,1.0861,1.5488,-37.86,31.8,-13.92
7.3005,-11.509,-2.3972,-0.34575,0.58857,1.2318,-36.72,32.76,-14.04
6.8919,-10.855,-2.4108,-0.081245,-0.41875,0.67287,-34.62,34.8,-14.04
6.5105,-10.379,-2.3155,-0.023213,-0.68478,0.31337,-33.6,35.7,-14.04
6.0611,-9.6704,-2.2474,-0.043066,-0.5681,-0.030543,-32.82,36.54,-14.04
4.9306,-7.9407,-1.7843,-0.060476,-0.43341,-0.1857,-31.92,37.26,-13.98
4.3994,-6.5786,-1.4301,-0.047647,-0.064752,-0.52534,-30.6,38.7,-13.8
4.3585,-5.9385,-1.5255,-0.0042761,0.043982,-0.68356,-29.88,39.18,-13.62
4.413,-5.598,-1.4982,0.079107,-0.021991,-0.88239,-28.86,39.78,-13.32
4.1542,-4.7944,-1.3348,0.14691,-0.14691,-0.98655,-28.56,39.9,-13.26
3.8954,-4.4811,-1.2803,0.21869,-0.27458,-1.069,-28.32,39.9,-13.02
3.7592,-4.3858,-1.4029,0.27489,-0.3598,-1.1176,-28.14,39.84,-12.96
3.6094,-4.8216,-1.3893,0.30849,-0.39156,-1.1463,-28.56,39.54,-12.54
3.5549,-5.094,-1.3076,0.32132,-0.38118,-1.1832,-29.16,39.3,-12.3
3.4187,-5.3528,-1.2395,0.31948,-0.35858,-1.2095,-29.58,38.94,-12.06
3.2144,-5.8704,-0.83084,0.29719,-0.33078,-1.2016,-30.84,38.04,-11.52
3.1599,-6.2245,-0.76274,0.26542,-0.33017,-1.1863,-31.32,37.44,-11.28
3.1191,-6.5241,-0.76274,0.21228,-0.33964,-1.193,-31.98,37.02,-11.1
3.2825,-6.7421,-0.89894,0.14355,-0.30971,-1.1985,-32.46,36.42,-10.98
3.5685,-7.355,-1.2667,0.082161,-0.24221,-1.1894,-33.84,35.34,-10.62
3.5277,-7.75,-1.185,0.05681,-0.11179,-1.1564,-34.5,34.74,-10.5
3.2553,-8.4582,-0.98067,0.053451,0.13836,-1.0452,-35.82,33.48,-10.02
3.3506,-9.0575,-1.1305,0.10018,0.19364,-0.89919,-36.54,32.82,-9.72
3.514,-9.8611,-1.1577,0.11759,0.14111,-0.77336,-37.26,32.22,-9.48
4.0861,-12.49,-1.2258,0.085216,-0.24007,-0.077885,-37.86,31.44,-9.3
5.2302,-16.903,-1.1986,-0.018631,-0.49144,0.62064,-39.0,30.12,-9.06
6.2517,-17.597,-0.6674,-0.20892,-0.42028,1.1066,-39.6,29.52,-9.06
5.2847,-15.636,-0.19068,-0.39248,-0.013134,1.2978,-40.2,28.44,-8.94
4.6037,-14.574,-0.57205,-0.49755,0.72724,1.4963,-40.38,28.08,-8.7
4.4811,-13.212,-0.89894,-0.45296,0.87293,1.5055,-40.5,27.9,-8.7
4.7944,-10.583,-2.0294,-0.13622,0.81245,1.4523,-40.32,27.72,-8.7
5.8023,-9.221,-2.1384,0.069333,0.42791,1.5327,-40.02,27.72,-8.64
6.1836,-8.8668,-1.8115,0.15485,-0.13775,1.5589,-39.72,27.9,-8.7
5.4481,-7.9951,-1.2258,0.17593,-0.58826,1.4294,-38.88,28.62,-9.0
4.7807,-6.8919,-1.1305,0.13378,-0.75961,1.2062,-38.22,29.16,-9.06
4.5356,-5.7342,-1.1577,0.082467,-0.67623,0.95753,-37.62,29.7,-9.24
4.0316,-4.4266,-1.1986,0.027184,-0.58063,0.64996,-36.18,31.2,-9.36
3.7456,-4.2904,-1.0896,-0.035736,-0.41692,0.32498,-35.4,31.98,-9.36
3.3234,-4.5492,-1.0351,-0.12034,-0.19212,0.051924,-34.56,32.52,-9.24
3.1599,-5.0395,-0.69464,-0.27519,0.19334,-0.30299,-33.24,34.02,-9.3
3.1327,-5.2575,-0.54481,-0.42364,0.44807,-0.48655,-32.7,34.56,-9.36
3.1599,-6.0747,-0.38137,-0.60476,0.75045,-0.64599,-32.28,34.92,-9.24
3.2553,-7.1234,-0.20431,-0.8042,1.1182,-0.77305,-31.74,35.76,-9.12
3.2689,-7.641,0.040861,-0.96914,1.5073,-0.84422,-31.62,36.18,-9.18
3.2416,-8.0905,0.14982,-1.087,1.8277,-0.88178,-31.5,36.36,-9.06
3.4187,-10.12,0.54481,-1.1445,2.1838,-0.73823,-31.26,36.6,-8.88
3.5822,-11.673,0.70826,-1.1008,2.2758,-0.47281,-31.5,36.54,-8.82
4.0316,-12.585,0.61292,-0.95417,2.2581,-0.10232,-31.56,36.48,-8.82
5.2847,-13.28,0.081722,-0.68875,2.1252,0.25229,-31.68,36.36,-9.24
5.9249,-12.898,-0.5993,-0.29383,1.8256,0.58277,-31.56,36.36,-9.24
6.279,-11.863,-1.471,0.22541,1.197,0.82039,-31.5,36.3,-9.48
6.9328,-10.706,-3.0646,0.7367,-0.55222,1.142,-31.2,36.3,-10.02
7.2733,-11.141,-3.6911,1.2431,-1.9789,1.2569,-31.02,36.3,-10.32
7.2052,-12.027,-4.2359,1.2956,-2.5998,1.2654,-30.6,36.42,-10.56
6.5241,-12.027,-4.2087,1.2285,-3.2229,1.1084,-30.3,36.6,-10.92
4.127,-9.4117,-3.1327,0.75075,-2.2663,0.71624,-29.4,36.54,-11.46
3.6911,-8.0224,-2.5742,0.36652,-1.0266,0.35613,-29.28,36.78,-11.7
3.0646,-6.7693,-2.3427,0.13347,-0.063225,-0.04612,-28.92,36.9,-11.82
2.8467,-5.3256,-2.5742,-0.021686,0.68081,-0.31429,-28.2,37.26,-12.12
3.4732,-4.8625,-2.4517,-0.17837,1.332,-0.55192,-27.9,37.32,-12.24
3.8682,-4.3858,-2.1929,-0.20036,1.3314,-0.62889,-27.42,37.38,-12.18
4.1133,-3.732,-1.975,-0.14813,1.0281,-0.68081,-27.24,37.44,-12.3
4.1542,-3.2961,-1.6481,-0.085827,0.56383,-0.69883,-27.0,37.68,-12.3
3.9771,-3.5958,-1.3757,-0.031765,0.14233,-0.63744,-27.06,37.68,-12.42
3.9227,-4.2223,-1.2122,0.007025,-0.31185,-0.4667,-27.0,37.62,-12.36
4.0589,-5.6797,-1.0624,0.0085521,-0.40745,-0.38912,-27.36,37.44,-12.24
4.127,-7.0145,-0.96704,-0.10324,-0.48991,-0.13928,-27.6,37.32,-12.18
3.9635,-7.7772,-0.85808,-0.19884,-0.31918,-0.043982,-27.78,37.2,-12.0
3.7865,-8.7034,-0.65378,-0.28497,0.009163,0.000305,-28.08,37.08,-11.88
3.9908,-10.978,-0.39499,-0.31429,0.32651,0.0088575,-28.44,36.78,-11.94
4.413,-12.83,-0.43585,-0.2868,0.49847,0.058948,-28.68,36.66,-11.94
4.9306,-15.337,-0.54481,-0.26725,0.37018,0.21961,-28.92,36.48,-11.94
6.0883,-19.232,-0.23155,-0.26237,0.1014,0.38973,-29.46,36.36,-11.58
6.7421,-18.973,-0.054481,-0.28741,-0.15058,0.39645,-29.64,36.42,-11.4
6.3471,-17.352,-0.01362,-0.30329,-0.2981,0.219,-29.76,36.42,-11.28
4.2223,-14.805,0.1362,-0.24221,-0.3091,0.035125,-30.24,36.18,-10.86
3.5685,-13.484,-0.1362,-0.1463,-0.28069,-0.22052,-30.42,36.24,-10.62
3.8273,-11.196,-0.76274,-0.0051924,-0.30024,-0.37996,-30.48,36.24,-10.08
4.699,-9.9565,-0.88532,0.13378,-0.36255,-0.35033,-30.42,36.24,-9.84
4.8352,-8.7034,-0.91256,0.2138,-0.6017,-0.1909,-30.6,36.24,-9.6
4.4402,-6.7693,-0.8717,0.21014,-0.75198,-0.15149,-30.84,36.42,-9.06
3.8001,-5.3664,-0.89894,0.18784,-0.83414,-0.19761,-31.02,36.42,-8.7
3.5004,-4.5901,-0.96704,0.14813,-0.85765,-0.31398,-31.26,36.36,-8.4
2.9284,-3.2144,-0.85808,0.07758,-0.85338,-0.54184,-31.68,36.24,-7.8
2.7241,-3.0237,-0.78998,0.0045815,-0.79443,-0.67928,-31.8,36.18,-7.38
2.6287,-3.2689,-0.68102,-0.08491,-0.65027,-0.79229,-32.1,36.0,-6.84
2.3427,-4.9033,-0.40861,-0.22846,-0.39584,-0.86987,-32.76,35.76,-6.0
2.2882,-5.489,-0.20431,-0.41936,-0.023518,-0.90622,-33.18,35.52,-5.58
2.2201,-6.1836,0.21793,-0.59743,0.41539,-0.88362,-34.08,35.16,-4.86
2.3155,-6.7966,0.28603,-0.83322,1.0605,-0.72082,-34.44,34.8,-4.38
2.7104,-7.4776,0.34051,-0.94531,1.3946,-0.57666,-35.04,34.62,-4.08
2.9148,-7.8862,0.38137,-0.97708,1.5153,-0.50335,-35.4,34.38,-3.78
3.3506,-9.6704,0.10896,-0.96517,1.6588,-0.20189,-36.12,33.54,-3.18
3.8682,-11.25,-0.040861,-0.86926,1.5259,0.12889,-36.48,33.36,-2.94
4.4402,-12.871,-0.12258,-0.77091,1.2963,0.59193,-36.78,33.24,-2.88
5.1485,-14.601,-0.38137,-0.60353,1.146,1.0739,-37.02,33.0,-2.7
5.4345,-15.282,-0.8036,-0.35827,1.0831,1.445,-37.14,32.88,-2.94
5.9657,-15.527,-1.3212,0.14569,0.72357,2.0131,-37.14,33.06,-3.24
6.9872,-14.124,-2.656,0.51129,0.058643,2.0895,-36.84,33.18,-3.6
7.2596,-12.204,-4.1678,0.77641,-0.89217,2.0293,-36.06,33.84,-4.14
6.8919,-12.054,-4.127,0.83047,-1.8891,1.7718,-35.46,34.14,-4.5
5.993,-11.196,-3.3642,0.63194,-1.9783,1.5165,-34.32,35.16,-5.28
5.5435,-10.515,-3.1599,0.40989,-1.6093,1.2425,-33.42,35.64,-5.46
5.094,-9.4253,-2.8467,0.20189,-0.98471,0.9163,-32.64,36.24,-5.64
4.2495,-6.9736,-2.261,0.10629,-0.33659,0.55986,-31.2,37.68,-6.0
3.9227,-5.2438,-2.2337,0.086743,0.082161,0.19426,-30.24,38.22,-6.3
3.9771,-4.413,-2.0839,0.10599,0.21136,-0.11912,-29.46,38.7,-6.36
3.8818,-3.4051,-1.8932,0.17929,0.029322,-0.40989,-28.08,39.78,-6.36
4.018,-3.1735,-1.8796,0.24099,-0.25168,-0.51465,-27.48,40.32,-6.12
4.1406,-3.0918,-1.7706,0.2926,-0.58154,-0.58307,-26.94,40.56,-6.0
4.1814,-3.7865,-1.5255,0.31521,-0.86682,-0.55558,-26.34,40.98,-5.64
4.0316,-4.5764,-1.2803,0.29658,-1.015,-0.46365,-26.22,41.22,-5.58
3.8682,-5.1076,-1.1169,0.23702,-1.0293,-0.39126,-26.16,41.34,-5.4
3.7728,-6.5378,-1.0215,0.12889,-0.86346,-0.37324,-26.22,41.28,-4.98
3.4187,-7.2596,-0.91256,-0.089492,-0.59529,-0.43952,-26.64,41.28,-4.86
3.3234,-7.8181,-0.6674,-0.16677,-0.40867,-0.4893,-26.7,41.1,-4.8
3.0646,-8.3765,-0.16344,-0.33017,0.25045,-0.67684,-27.06,40.98,-4.56
3.2689,-8.9758,0.040861,-0.34911,0.61606,-0.81428,-27.48,40.74,-4.38
3.6094,-9.6296,-0.027241,-0.30207,0.7871,-0.91355,-27.72,40.74,-4.14
4.2768,-11.632,-0.38137,-0.14539,0.68264,-1.0327,-28.74,40.32,-3.78
4.4539,-13.089,-0.50395,-0.023518,0.39462,-1.066,-29.16,40.02,-3.72
4.6037,-14.506,-0.5993,0.052229,0.066584,-0.92974,-29.7,39.84,-3.54
4.9578,-19.028,-0.53119,0.058338,-0.17013,-0.58338,-30.9,39.06,-3.3
5.2711,-18.51,-0.35413,-0.048869,-0.17898,-0.31124,-31.5,38.64,-3.3
5.1757,-16.549,0.01362,-0.15638,0.039095,-0.13897,-31.86,38.22,-3.18
4.2632,-13.988,-0.57205,-0.16616,0.27061,0.10324,-32.82,37.26,-2.88
4.1951,-13.457,-0.95342,-0.015272,0.25412,0.20006,-33.12,36.96,-2.7
4.4947,-12.068,-1.866,0.15608,-0.07025,0.28344,-33.6,36.54,-2.46
5.094,-9.8066,-2.2201,0.2923,-0.43585,0.4215,-34.2,35.76,-2.34
5.1894,-8.3493,-2.0294,0.34239,-0.74739,0.58735,-34.44,35.4,-2.16
4.9033,-7.3141,-1.9613,0.33139,-0.98074,0.64355,-34.68,35.1,-2.22
3.8001,-5.7886,-1.757,0.27764,-1.0345,0.5901,-34.74,34.86,-2.04
3.4732,-5.1076,-1.7979,0.18143,-0.92882,0.52168,-34.8,34.86,-1.98
3.3778,-4.5901,-1.6617,0.047647,-0.69486,0.33964,-34.68,34.86,-1.98
3.2144,-3.8273,-1.2803,-0.031765,-0.6072,0.18326,-34.2,35.16,-1.62
3.1191,-3.9227,-1.1305,-0.13011,-0.48503,0.048258,-34.02,35.34,-1.32
3.1735,-4.7263,-1.0215,-0.24709,-0.31368,-0.0281,-34.02,35.34,-1.14
3.2008,-6.0202,-0.6674,-0.4215,-0.076053,-0.13286,-33.66,35.94,-0.78
3.0646,-6.1019,-0.40861,-0.68539,0.50824,-0.21258,-33.42,36.12,-0.66
2.7241,-5.9249,0.068102,-0.80573,0.99082,-0.28924,-33.42,36.36,-0.54
2.7513,-6.1564,0.36775,-0.85063,1.3977,-0.3427,-33.54,36.72,0.06
2.9829,-6.5786,0.35413,-0.86315,1.6698,-0.39523,-33.48,37.02,0.18
3.2689,-6.8238,0.34051,-0.81642,1.7645,-0.405,-33.6,37.14,0.3
3.9908,-7.4912,0.17706,-0.70616,1.5174,-0.35827,-33.72,37.08,0.24
4.3449,-8.2676,0.054481,-0.45907,1.1054,-0.26817,-33.78,36.96,0.3
4.5901,-9.1937,-0.054481,-0.30146,0.59956,-0.13561,-34.02,36.9,0.36
4.5356,-12.476,-0.28603,-0.14355,0.16493,0.093462,-34.32,36.42,0.18
4.6309,-14.601,-0.31327,0.0012217,-0.04612,0.4554,-34.5,36.42,0.18
4.9578,-15.691,-0.43585,0.12156,-0.018937,0.72479,-34.5,36.36,-0.12
5.0804,-13.116,-1.5663,0.26725,0.13378,0.77213,-34.62,36.24,-0.54
5.1621,-13.348,-1.866,0.55741,0.029627,1.1017,-34.74,36.3,-0.78
6.279,-11.782,-2.9692,0.63438,-0.14233,1.1484,-34.62,36.36,-1.14
6.1836,-11.414,-3.4187,0.75656,-0.99846,1.062,-34.32,36.6,-1.86
5.884,-11.373,-3.6094,0.67653,-1.2895,1.0146,-34.14,36.6,-2.04
5.4754,-11.182,-3.2144,0.4444,-1.1765,0.85857,-33.84,36.78,-2.34
4.2904,-9.7794,-2.0294,0.2193,-0.78405,0.60506,-33.3,37.26,-2.64
3.7456,-8.8941,-1.866,0.028405,0.15211,0.24374,-33.0,37.56,-2.88
3.7047,-7.5321,-1.8251,-0.010385,0.43982,0.11729,-32.58,37.86,-3.0
3.9363,-6.9736,-1.8387,-0.040623,0.94776,-0.23579,-31.92,38.52,-3.12
4.1814,-5.9657,-1.866,0.000611,0.91844,-0.41264,-31.62,38.7,-3.12
4.3449,-5.4754,-1.8524,0.089492,0.65149,-0.53787,-31.2,38.88,-3.06
4.5901,-4.4539,-1.7025,0.20708,0.23671,-0.63469,-30.78,39.24,-3.42
4.4266,-4.3994,-1.6072,0.30757,-0.20586,-0.69914,-30.6,39.18,-3.54
4.2223,-4.5492,-1.471,0.3879,-0.58032,-0.68509,-30.48,39.3,-3.54
3.8137,-5.2711,-1.471,0.41142,-0.86712,-0.61423,-30.36,39.12,-3.66
3.732,-5.5299,-1.4165,0.40103,-0.89919,-0.60079,-30.54,39.0,-3.66
3.5413,-5.5707,-1.3484,0.28924,-0.85124,-0.5681,-30.66,38.7,-3.6
3.3097,-5.9657,-1.2122,0.19028,-0.74067,-0.51893,-31.02,38.28,-3.48
3.337,-6.3198,-1.1713,0.047037,-0.53787,-0.48258,-31.32,38.1,-3.48
3.3234,-7.2324,-0.9398,0.000611,-0.47373,-0.47922,-31.62,37.74,-3.54
3.337,-8.2539,-0.85808,-0.076053,-0.32193,-0.45723,-32.4,37.08,-3.6
3.514,-9.9973,-0.58567,-0.16493,-0.068111,-0.38149,-32.82,36.78,-3.48
3.6094,-10.964,-0.57205,-0.19884,0.040623,-0.3149,-33.3,36.36,-3.42
4.3449,-14.942,-0.55843,-0.22633,0.041233,-0.17074,-33.96,35.64,-3.12
4.8352,-17.992,-0.57205,-0.29108,-0.11881,0.32193,-34.38,35.34,-2.82
6.0066,-18.074,-0.31327,-0.43768,-0.10965,0.42455,-34.92,34.68,-2.64
5.1757,-16.086,0.19068,-0.58215,0.057421,0.39279,-35.16,34.38,-2.52
4.2087,-14.655,0.36775,-0.60445,0.48778,0.31215,-35.22,34.14,-2.4
3.5277,-13.648,0.36775,-0.50855,0.62125,0.11729,-35.46,34.14,-2.28
3.5958,-12.435,-0.85808,-0.32559,0.48839,0.065363,-35.7,33.72,-2.16
4.5083,-11.414,-1.0896,-0.15547,0.19334,0.25504,-35.76,33.6,-1.98
5.2166,-9.2482,-0.77636,-0.046426,0.076358,0.3653,-35.58,33.66,-1.62
4.9306,-8.5536,-0.46309,-0.011606,-0.11973,0.59162,-35.46,33.6,-1.62
4.6309,-8.0224,-0.46309,-0.021991,-0.26359,0.66493,-35.28,33.9,-1.74
3.8001,-6.1019,-0.6674,-0.037263,-0.37568,0.59132,-34.86,34.26,-1.62
3.5413,-5.0531,-0.76274,-0.036346,-0.42883,0.5003,-34.74,34.44,-1.44
3.4459,-4.0316,-0.61292,-0.033292,-0.51221,0.37843,-34.38,34.98,-1.32
3.2825,-4.1542,-0.5993,-0.068417,-0.52473,0.19334,-34.08,35.34,-1.2
3.1872,-4.5492,-0.7355,-0.098044,-0.48289,0.13195,-33.84,35.64,-1.02
3.2144,-5.1757,-0.69464,-0.19395,-0.33842,0.033598,-33.54,35.88,-0.96
3.1872,-5.8295,-0.40861,-0.42669,0.075442,-0.1124,-33.3,36.06,-0.78
2.7922,-6.17,-0.16344,-0.57513,0.50121,-0.23243,-33.06,36.24,-0.72
2.5742,-6.5514,0.19068,-0.70036,0.96853,-0.3259,-32.76,36.66,-0.48
2.833,-6.6331,0.23155,-0.77794,1.452,-0.40989,-32.64,36.96,-0.48
3.4732,-6.8647,0.01362,-0.7645,1.5342,-0.42364,-32.58,37.14,-0.42
3.7047,-7.4367,-0.10896,-0.67165,1.5088,-0.41844,-32.46,37.2,-0.36
4.0316,-8.4038,-0.14982,-0.5736,1.288,-0.32956,-32.58,37.08,-0.36
4.2359,-9.8611,-0.34051,-0.45296,0.97372,-0.15485,-32.7,37.14,-0.36
4.7399,-13.021,-0.65378,-0.29658,0.6747,0.11606,-32.58,37.02,-0.72
5.1894,-13.579,-1.0215,-0.12339,0.36835,0.51282,-32.58,37.02,-0.9
5.4481,-13.566,-1.6344,0.0956,0.27092,0.58826,-32.76,36.96,-1.08
6.0338,-15.091,-2.9011,0.47525,-0.15608,1.0345,-32.76,36.84,-1.44
6.96,-14.07,-3.623,0.68234,-0.5904,1.0791,-32.58,36.9,-1.74
6.8102,-13.157,-3.9363,0.78099,-1.1744,0.93065,-32.4,37.02,-2.04
5.1485,-11.741,-4.2223,0.7254,-1.4594,0.76511,-32.22,37.14,-2.52
4.8897,-11.346,-3.9227,0.4218,-1.3347,0.3989,-31.98,37.2,-2.7
4.5628,-10.624,-3.3506,0.31826,-1.1967,0.28283,-31.92,37.2,-2.82
3.6503,-9.1529,-3.2144,0.028405,-0.36927,0.057116,-31.44,37.44,-3.0
3.514,-8.4719,-3.0782,-0.13928,0.28161,-0.087965,-31.08,37.68,-3.06
3.5413,-7.9679,-3.0237,-0.25595,0.70311,-0.26542,-30.72,37.86,-3.24
3.8818,-6.1836,-2.8603,-0.29505,0.89583,-0.47037,-30.24,38.1,-3.3
4.018,-5.598,-2.7649,-0.23946,0.76664,-0.71532,-30.12,38.22,-3.3
4.0044,-5.0123,-2.6423,-0.22235,0.63194,-0.77122,-29.76,38.28,-3.18
3.8682,-4.8897,-2.6015,-0.17746,0.32895,-0.89095,-29.64,38.4,-3.3
3.7456,-4.9987,-2.3155,-0.14142,0.05681,-0.9838,-29.64,38.4,-3.3
3.6503,-5.1621,-2.2201,-0.13317,-0.11301,-1.0333,-29.58,38.28,-3.12
3.1872,-5.6661,-2.0022,-0.15791,-0.10965,-1.0119,-29.94,37.92,-3.0
3.2416,-6.0883,-2.0567,-0.22144,-0.033903,-0.95112,-30.3,37.8,-2.88
3.3506,-6.4424,-1.9613,-0.3149,0.083383,-0.87751,-30.84,37.08,-2.58
3.1599,-6.3743,-1.7298,-0.42608,0.25045,-0.82284,-31.32,36.66,-2.52
3.0237,-6.5922,-1.6072,-0.54031,0.51343,-0.71135,-31.68,36.3,-2.7
3.1191,-7.3822,-1.3484,-0.58674,0.67134,-0.6072,-32.64,35.28,-2.46
3.3097,-8.1177,-1.2531,-0.59284,0.77336,-0.48655,-33.12,34.92,-2.34
3.4732,-8.7987,-1.2939,-0.60109,0.85888,-0.32712,-33.42,34.5,-2.4
3.8818,-9.7113,-1.4165,-0.54123,0.94073,-0.10018,-34.26,33.6,-2.28
4.0589,-9.8339,-1.5663,-0.44166,0.88575,0.051007,-34.74,33.12,-2.22
4.2087,-10.188,-1.6889,-0.38607,0.82406,0.15455,-35.22,32.7,-2.22
4.5356,-11.005,-1.757,-0.25351,0.51404,0.48961,-35.64,32.16,-2.34
4.7944,-12.667,-1.58,-0.18509,0.26909,0.78313,-36.0,31.68,-2.52
5.1621,-13.838,-1.5391,-0.17104,0.094684,1.1658,-36.12,31.38,-2.7
5.3119,-14.097,-1.4029,-0.23732,0.14325,1.4878,-36.3,31.32,-3.3
5.1213,-14.315,-1.3893,-0.30177,0.31612,1.657,-36.24,31.56,-3.54
5.203,-14.233,-1.3484,-0.35003,0.47098,1.7181,-36.12,31.74,-3.6
5.2438,-12.953,-1.2531,-0.37721,0.57666,1.6509,-35.58,32.34,-3.9
5.094,-11.223,-1.2122,-0.36499,0.71654,1.5211,-35.1,32.58,-4.14
5.0123,-9.8339,-1.3212,-0.32651,0.84574,1.3598,-34.62,33.0,-4.26
4.8625,-7.3958,-0.96704,-0.22877,0.76633,1.0956,-33.48,34.2,-4.86
4.7671,-6.456,-1.0215,-0.14966,0.58613,0.93096,-32.76,34.74,-5.1
4.7535,-5.993,-0.92618,-0.11087,0.48594,0.8488,-31.92,35.46,-5.28
4.7671,-5.0668,-0.81722,-0.065363,0.17593,0.59284,-30.48,36.9,-5.64
4.4675,-4.9033,-0.70826,-0.058643,0.05284,0.39401,-29.76,37.44,-5.82
4.2223,-4.8352,-0.7355,-0.074526,0.055283,0.20067,-28.98,38.22,-5.94
3.8273,-5.4618,-0.64016,-0.14661,0.23427,-0.011606,-27.36,39.36,-6.06
3.7456,-5.7069,-0.58567,-0.19242,0.33598,-0.072693,-26.58,39.84,-6.24
3.623,-5.8567,-0.51757,-0.32773,0.72235,-0.21319,-26.1,40.2,-6.36
3.6366,-6.1564,-0.39499,-0.39615,0.99449,-0.27061,-25.5,40.56,-6.42
3.7728,-6.2926,-0.40861,-0.44502,1.2129,-0.32162,-24.48,41.22,-6.84
3.8409,-6.4152,-0.40861,-0.46395,1.3439,-0.36774,-24.0,41.46,-7.08
4.0861,-6.6195,-0.47671,-0.4105,1.3699,-0.41783,-23.46,41.76,-7.38
4.2223,-6.7966,-0.44947,-0.31673,1.2004,-0.43463,-23.4,41.88,-7.5
4.7399,-8.0905,-0.81722,-0.21441,0.90836,-0.39218,-23.22,41.94,-7.8
4.985,-10.229,-1.4165,-0.097433,0.57391,-0.31276,-22.86,41.88,-8.34
5.0259,-12.422,-1.6344,0.0030543,0.30513,-0.23121,-23.1,41.82,-8.82
5.1894,-14.574,-2.0567,0.087659,0.18051,-0.13134,-23.1,41.58,-9.36
5.489,-17.352,-2.0022,0.13806,0.21014,-0.048258,-23.1,41.7,-9.72
6.0747,-17.652,-2.1248,0.20281,0.30146,0.17562,-23.16,41.64,-10.02
6.6195,-14.669,-2.942,0.32498,0.13592,0.09896,-23.52,41.52,-10.38
6.2926,-13.321,-3.5549,0.45051,-0.30116,0.10446,-23.58,41.34,-10.68
5.9249,-13.157,-3.4187,0.48778,-0.72693,0.09499,-23.7,41.16,-11.1
5.2302,-12.054,-3.0918,0.42119,-1.0122,-0.030238,-23.58,40.98,-11.4
4.3994,-10.665,-2.7241,0.27978,-0.94165,-0.08491,-23.76,40.98,-11.46
3.9635,-9.6568,-2.2882,-0.0018326,-0.13531,-0.22877,-23.76,40.68,-11.28
3.3234,-7.0145,-2.1248,-0.068417,0.18357,-0.30513,-24.0,40.62,-11.34
3.3778,-5.9112,-2.1112,-0.12706,0.69028,-0.39951,-24.0,40.62,-11.4
3.5685,-5.4209,-2.0975,-0.10263,0.93585,-0.47434,-24.0,40.56,-11.64
4.0861,-4.9169,-1.7706,-0.050396,0.79443,-0.45448,-24.36,40.32,-11.76
4.2632,-4.7944,-1.5936,0.017715,0.48991,-0.41814,-24.48,40.14,-11.82
4.1133,-4.5901,-1.5119,0.083078,0.13928,-0.35919,-24.66,39.96,-11.82
3.8273,-4.5356,-1.4982,0.13317,-0.146,-0.29932,-24.78,39.84,-11.82
3.6366,-4.4402,-1.5663,0.18723,-0.33659,-0.20311,-25.02,39.72,-11.88
3.6775,-4.7399,-1.757,0.22083,-0.38576,-0.10079,-25.44,39.48,-11.94
4.0725,-5.2847,-2.0567,0.21166,-0.44715,0.03146,-25.62,39.42,-11.88
4.1678,-5.7342,-2.2746,0.13744,-0.49327,0.14661,-25.92,39.24,-12.06
4.3313,-6.0883,-2.261,0.074831,-0.45571,0.18876,-26.16,39.18,-12.18
4.3585,-6.6195,-2.2882,-0.0051924,-0.38973,0.2138,-26.16,39.0,-12.18
4.6445,-7.2869,-2.3427,-0.1182,-0.2645,0.22877,-26.4,38.82,-12.24
4.8352,-8.3901,-2.2746,-0.24648,-0.04612,0.18906,-26.58,38.58,-12.0
4.8625,-8.5536,-2.1384,-0.38759,0.26237,0.1014,-26.58,38.64,-12.06
4.9169,-8.6625,-1.866,-0.49175,0.60201,-0.0082467,-26.64,38.52,-12.0
5.4073,-9.7522,-1.6072,-0.58796,0.99327,-0.094684,-26.76,38.58,-12.0
5.8704,-10.61,-1.5119,-0.60476,1.1197,-0.083689,-26.7,38.58,-11.94
6.1155,-11.455,-1.5391,-0.60995,1.131,-0.042455,-26.64,38.58,-11.88
6.6876,-13.988,-1.2122,-0.59132,1.0354,0.044593,-26.52,38.46,-11.94
6.8783,-15.255,-1.0896,-0.55344,0.87506,0.098655,-26.4,38.34,-11.94
7.1779,-15.99,-1.1169,-0.50152,0.70585,0.1576,-26.34,38.22,-12.0
6.4833,-13.825,-1.1169,-0.38698,0.4273,-0.012828,-26.34,38.4,-12.06
6.1973,-13.225,-1.1169,-0.30665,0.22755,-0.08827,-26.34,38.52,-11.94
6.0202,-12.871,-1.185,-0.23854,0.028711,-0.22083,-26.22,38.46,-11.82
5.4073,-12.054,-1.1305,-0.20556,-0.013439,-0.35552,-26.4,38.52,-11.88
4.9578,-10.924,-0.89894,-0.2135,0.10782,-0.47373,-26.52,38.34,-11.76
4.5764,-9.9837,-0.7355,-0.23366,0.29169,-0.59468,-26.76,38.4,-11.58
4.0316,-8.3901,-0.85808,-0.25015,0.46304,-0.81245,-27.18,38.04,-11.58
3.8682,-7.7227,-0.91256,-0.26603,0.57941,-0.87079,-27.48,37.8,-11.58
3.7865,-7.4776,-0.85808,-0.26786,0.64141,-0.95875,-27.96,37.68,-11.58
3.5004,-6.7693,-0.85808,-0.29108,0.67287,-1.0287,-28.5,37.62,-11.64
3.3778,-6.3879,-0.8036,-0.31215,0.69211,-1.0357,-29.16,37.5,-11.88
3.2416,-6.2245,-0.8036,-0.39828,0.82039,-1.0046,-29.76,37.32,-12.18
3.2416,-6.2245,-0.8036,-0.41692,0.86315,-0.91813,-29.76,37.32,-12.18
2.8058,-4.9578,-0.6674,-0.43005,0.86285,-0.84696,-30.42,36.96,-12.42
2.8603,-5.5435,-0.81722,-0.45662,0.79504,-0.50916,-30.9,36.36,-12.9
2.9284,-5.9249,-0.85808,-0.50641,0.74923,-0.17043,-31.74,36.0,-13.26
3.2008,-7.1507,-0.95342,-0.56963,0.73518,0.23152,-33.0,35.16,-14.58
3.3778,-8.431,-0.92618,-0.62797,0.75472,0.66462,-34.26,34.08,-15.48
3.8546,-11.891,-0.85808,-0.69333,0.71502,1.2697,-35.1,33.42,-16.62
4.6037,-13.974,-0.64016,-0.87384,0.95112,2.2003,-35.46,32.82,-17.28
5.0123,-14.315,-0.68102,-0.8885,1.1952,2.5207,-35.16,32.58,-17.58
5.7886,-13.988,-1.2803,-0.85491,1.3796,2.8381,-33.9,32.46,-17.4
6.279,-13.348,-2.3836,-0.72937,1.3445,2.8775,-31.8,33.0,-16.98
6.4424,-12.612,-3.0373,-0.54856,0.96578,2.5901,-29.04,33.84,-16.08
6.1019,-12.217,-2.9556,-0.41294,0.35461,2.0592,-27.66,34.26,-15.54
4.6309,-11.373,-2.2474,-0.40836,-0.058948,1.088,-24.78,35.4,-14.82
3.6094,-10.719,-1.5255,-0.49511,0.20067,0.52748,-21.66,36.78,-13.86
3.1599,-10.365,-1.2531,-0.54764,0.46365,0.29658,-20.1,37.38,-13.38
3.1191,-9.6977,-1.2667,-0.75381,1.5214,-0.12859,-18.54,37.98,-13.14
3.6503,-8.1177,-1.1305,-0.86651,2.0953,-0.24923,-15.96,39.3,-12.48
3.514,-6.6059,-0.83084,-0.92302,2.5247,-0.33414,-14.7,39.96,-12.42
3.4732,-5.2847,-0.54481,-0.92118,2.5372,-0.33995,-12.6,40.86,-12.18
3.6094,-4.8625,-0.31327,-0.86499,2.3262,-0.2923,-11.76,41.28,-12.0
3.6366,-4.6582,-0.24517,-0.80817,2.047,-0.17929,-11.04,41.64,-11.94
3.7456,-4.7671,-0.1362,-0.7196,1.7627,-0.01069,-9.9,42.3,-11.76
3.9227,-5.3664,-0.28603,-0.62553,1.5073,0.19364,-9.42,42.66,-11.7
4.0997,-6.0202,-0.44947,-0.5284,1.2966,0.40103,-8.94,42.9,-11.52
4.2359,-6.8374,-0.6674,-0.37141,1.1197,0.69211,-8.04,43.38,-11.28
4.2632,-7.2188,-0.8717,-0.25443,1.0956,0.80787,-7.56,43.5,-11.04
4.2632,-7.4095,-0.99429,-0.13164,1.0971,0.85277,-7.02,43.62,-11.04
4.8625,-7.927,-1.8387,-0.0051924,1.0171,0.83566,-5.94,43.86,-11.1
5.0123,-8.3629,-2.2201,0.10415,0.8717,0.78863,-5.28,43.92,-11.04
5.2166,-8.7715,-2.4244,0.17104,0.71441,0.69333,-4.8,43.86,-10.86
5.1894,-8.7579,-2.6832,0.21502,0.51007,0.45693,-3.48,44.16,-10.92
5.2302,-9.1665,-2.7649,0.18295,0.4218,0.27275,-2.7,44.22,-10.86
5.1757,-9.5342,-2.8058,0.15791,0.4105,0.19181,-1.98,44.16,-11.04
5.0123,-10.542,-2.6968,0.007025,0.59987,0.057116,-0.78,44.34,-11.16
5.0395,-11.931,-2.6968,-0.12553,0.85888,0.062308,-0.12,44.34,-11.28
5.5435,-12.79,-2.5334,-0.28039,1.1603,0.1689,0.54,44.28,-11.4
5.5843,-11.155,-1.7706,-0.44624,1.4856,0.091019,1.68,44.04,-11.58
5.203,-9.616,-1.5391,-0.51618,1.7938,-0.041233,2.1,43.98,-11.76
4.985,-8.5808,-1.4574,-0.44868,1.7993,-0.27947,2.58,44.04,-12.06
4.6445,-7.7772,-1.8387,-0.30177,1.5476,-0.46456,3.18,43.86,-12.06
4.9987,-8.7034,-1.9613,-0.15119,1.1096,-0.49144,3.3,43.86,-12.12
5.5162,-9.4389,-1.866,-0.037874,0.562,-0.47006,3.48,43.8,-12.12
5.7342,-10.065,-1.4574,0.000611,0.057421,-0.2926,3.36,43.44,-11.88
5.4618,-10.229,-1.471,-0.070555,-0.32987,-0.20647,3.24,43.32,-12.06
4.8625,-10.787,-1.2531,-0.1237,-0.3656,-0.19517,3.12,43.2,-11.94
4.2359,-10.379,-1.2531,-0.30788,-0.13103,-0.23488,2.76,42.84,-11.58
3.9908,-9.3844,-1.1577,-0.38973,0.20586,-0.33323,2.58,42.6,-11.28
3.8682,-8.717,-1.185,-0.42638,0.51954,-0.43982,2.46,42.48,-11.04
3.8954,-7.7091,-1.1577,-0.4105,0.71899,-0.61911,1.74,42.3,-10.62
3.8954,-7.4095,-1.1032,-0.36377,0.67714,-0.7028,1.38,42.0,-10.08
3.9227,-7.3277,-0.98067,-0.354,0.63072,-0.7367,1.08,41.76,-9.6
3.7592,-7.2052,-0.77636,-0.34819,0.47556,-0.7929,0.42,41.46,-8.7
3.5685,-7.2052,-0.61292,-0.36713,0.40806,-0.7926,0.42,41.22,-8.4
3.4187,-7.355,-0.57205,-0.41661,0.41294,-0.75442,-0.36,41.16,-8.04
3.3097,-7.8589,-0.55843,-0.47647,0.48045,-0.67378,-1.26,40.98,-7.5
3.3915,-8.2539,-0.57205,-0.56627,0.57971,-0.56383,-1.86,41.1,-7.02
3.2825,-8.2267,-0.62654,-0.65301,0.71868,-0.45112,-2.46,41.04,-6.6
3.2553,-8.2267,-0.57205,-0.75778,0.90408,-0.30024,-3.12,41.22,-6.36
3.5958,-8.7579,-0.70826,-0.81428,0.96211,-0.17654,-4.08,41.58,-5.88
3.7047,-8.9213,-0.7355,-0.86529,0.96425,-0.084605,-4.74,41.82,-5.64
3.5822,-9.507,-0.7355,-0.9276,0.95142,0.035125,-5.04,42.06,-5.28
4.0316,-13.089,-0.43585,-1.0675,1.0754,0.5171,-5.7,42.84,-5.16
4.3449,-13.362,-0.24517,-1.1249,1.2749,0.68081,-6.06,43.14,-4.86
4.5356,-13.089,-0.50395,-1.1206,1.3485,0.73457,-6.18,43.62,-4.8
4.7535,-11.877,-1.2939,-1.0449,1.4856,0.81673,-6.18,44.52,-4.02
4.7399,-11.482,-1.9068,-0.92546,1.3448,0.69669,-6.24,44.88,-3.66
4.6445,-11.141,-2.1384,-0.77061,1.1054,0.47525,-6.18,45.48,-3.12
4.2495,-10.542,-2.152,-0.66859,0.8714,0.26573,-5.64,46.32,-2.16
4.1814,-10.515,-2.0839,-0.63774,0.7141,0.06017,-5.22,46.86,-1.5
4.018,-10.338,-1.9613,-0.6689,0.71441,0.019242,-4.98,46.98,-0.96
3.5413,-8.9758,-1.8932,-0.75442,0.87812,0.020159,-4.2,47.52,0.18
3.3778,-8.0905,-1.8524,-0.8094,1.1243,0.12584,-3.78,47.76,0.72
3.3915,-7.1371,-1.8251,-0.84208,1.3241,0.2306,-3.36,48.06,1.32
3.4868,-5.4481,-1.6481,-0.8323,1.3876,0.37782,-3.0,48.48,2.76
3.514,-5.1349,-1.7025,-0.81337,1.3534,0.42944,-2.64,48.78,3.24
3.6094,-4.9987,-1.5391,-0.79718,1.2257,0.55711,-2.58,48.9,3.78
3.7456,-5.2438,-1.2531,-0.75472,1.0171,0.77702,-2.4,49.14,4.74
3.8954,-5.7342,-1.3484,-0.73518,0.93707,0.97189,-2.28,49.26,5.22
4.0861,-6.1292,-1.4029,-0.72937,0.94959,1.1481,-2.1,49.2,5.64
4.3858,-6.9328,-1.3484,-0.69944,1.1087,1.3268,-1.56,49.26,6.6
4.4675,-7.2052,-1.4029,-0.65149,1.2449,1.3647,-1.2,49.2,6.84
4.6582,-7.2324,-1.5119,-0.56444,1.2956,1.347,-0.66,49.38,7.44
5.4618,-7.6002,-1.9886,-0.44166,1.1887,1.3027,0.3,49.44,8.4
5.8704,-8.1858,-2.1793,-0.31551,0.90378,1.2526,0.84,49.32,8.88
6.2245,-8.6081,-2.3291,-0.20769,0.56047,1.157,1.32,49.26,9.36
5.7342,-8.5944,-2.2882,-0.15149,0.29932,0.92668,2.82,49.26,10.08
5.38,-8.3629,-2.152,-0.13439,0.29871,0.70036,3.48,49.14,10.44
4.7944,-7.8998,-1.7706,-0.13958,0.39737,0.58796,4.2,49.26,10.74
4.6582,-8.0224,-1.3893,-0.10721,0.77213,0.35919,5.52,49.26,11.28
5.0668,-9.4389,-1.3484,-0.083689,0.96975,0.34208,6.24,49.26,11.58
5.4345,-10.733,-1.3757,-0.041233,1.0907,0.40531,6.84,49.32,11.82
5.993,-9.9973,-1.3076,0.03543,1.1478,0.3543,7.98,49.26,12.24
5.4754,-8.717,-1.1577,0.13531,1.0046,0.17593,8.28,49.38,12.54
5.3664,-8.2948,-1.2258,0.19609,0.87537,0.0956,8.52,49.38,12.6
5.5571,-8.6762,-1.3212,0.32254,0.4273,-0.065057,8.7,49.26,12.6
6.1019,-10.964,-1.4165,0.44288,-0.49633,-0.17837,9.06,49.5,12.42
6.1836,-13.184,-1.3757,0.41692,-0.89461,-0.19578,9.12,49.62,12.3
5.7069,-14.097,-1.0215,0.32773,-0.95875,-0.30574,9.18,49.8,12.24
4.0316,-12.544,-0.88532,0.16829,-0.37293,-0.74128,9.42,49.98,12.12
3.7456,-11.645,-0.95342,0.14783,-0.096822,-0.90927,9.3,49.92,12.12
3.5822,-10.283,-1.1441,0.22113,0.478,-1.401,9.12,50.04,12.06
3.7728,-8.6353,-1.3212,0.34483,0.51435,-1.635,8.34,50.1,11.82
4.018,-8.431,-1.2531,0.45693,0.31154,-1.7578,7.92,50.28,11.7
4.1814,-8.3765,-1.1713,0.5003,0.0054978,-1.7947,7.2,50.34,11.46
3.8273,-8.2267,-0.81722,0.44563,-0.36713,-1.7129,5.52,50.46,10.98
3.3778,-8.0769,-0.84446,0.34728,-0.39645,-1.6432,4.68,50.46,10.8
2.9692,-7.6683,-0.76274,0.20983,-0.29719,-1.5791,3.78,50.58,10.68
2.5742,-6.8647,-0.84446,0.097433,-0.14386,-1.4936,1.44,50.4,10.56
2.6151,-6.4833,-0.91256,-0.0097738,0.032987,-1.4145,0.12,50.16,10.5
2.7241,-6.4424,-0.85808,-0.10904,0.18631,-1.3121,-1.32,50.04,10.44
2.7377,-6.4016,-0.78998,-0.23335,0.3091,-1.138,-4.26,49.74,10.2
2.8058,-6.3198,-0.64016,-0.31857,0.37568,-0.99999,-5.76,49.56,10.08
2.8194,-6.2517,-0.70826,-0.39492,0.41508,-0.83444,-7.08,49.32,9.96
2.9011,-5.993,-0.57205,-0.48136,0.44471,-0.6579,-9.66,48.84,9.84
2.8467,-5.8159,-0.54481,-0.54886,0.45662,-0.48564,-10.98,48.42,9.66
2.8603,-5.7342,-0.51757,-0.60262,0.47556,-0.31093,-12.06,48.12,9.84
2.8739,-5.8159,-0.47671,-0.67562,0.53695,0.0082467,-13.86,47.64,10.02
2.9829,-5.9521,-0.54481,-0.69639,0.55772,0.12706,-14.76,47.4,10.2
3.228,-6.1564,-0.46309,-0.73579,0.60812,0.38118,-15.48,47.1,10.44
3.3097,-6.4152,-0.34051,-0.77244,0.66584,0.75442,-16.5,46.68,10.74
3.5685,-6.674,-0.42223,-0.78038,0.67592,1.0324,-16.68,46.5,10.98
3.8682,-6.9872,-0.42223,-0.77061,0.63652,1.2862,-16.68,46.26,11.1
4.2495,-7.8181,-0.6674,-0.7141,0.47495,1.6582,-16.8,46.02,11.58
4.4811,-8.6762,-0.77636,-0.66768,0.40012,1.9074,-16.62,45.96,11.82
4.8216,-10.515,-0.84446,-0.63377,0.35797,2.0305,-16.26,46.08,12.12
5.1485,-12.381,-0.91256,-0.53206,0.25656,2.4141,-15.84,46.14,12.48
5.7342,-14.683,-1.1577,-0.40836,0.23702,2.5873,-15.06,46.32,12.84
6.9872,-17.938,-1.5527,-0.22816,0.22449,2.6658,-13.14,46.56,13.26
7.5865,-16.331,-2.1248,0.073609,0.027794,2.4786,-12.06,46.56,13.56
7.1915,-12.204,-2.0839,0.18998,-0.1857,2.3436,-9.6,46.8,14.04
6.5786,-11.618,-1.7434,0.3656,-0.69669,2.1017,-8.16,47.04,14.22
6.0747,-11.319,-1.362,0.4667,-1.117,1.8427,-6.42,47.34,14.4
6.0066,-10.869,-1.4574,0.46762,-1.2504,1.3763,-4.86,47.4,14.34
5.1757,-8.8668,-1.6208,0.35064,-0.96822,1.0284,-1.86,47.88,14.34
4.6037,-7.8453,-1.3757,0.18937,-0.42333,0.58582,-0.12,48.06,14.28
3.5004,-5.0804,-1.0351,0.085521,0.15974,0.15852,1.38,48.18,14.22
3.6911,-4.5356,-1.0896,0.080023,0.58338,-0.15455,4.2,48.24,13.92
3.9908,-4.2223,-1.2803,0.10782,0.90255,-0.43371,5.46,48.24,13.8
4.1814,-4.0589,-1.2667,0.14722,0.88423,-0.58277,6.48,48.24,13.62
4.6582,-4.0589,-1.4165,0.18754,0.71166,-0.69791,8.16,48.48,13.44
4.5356,-4.2359,-1.3757,0.22541,0.29902,-0.77763,8.64,48.66,13.26
4.4402,-4.9306,-1.3348,0.24893,0.15149,-0.7871,9.36,48.66,12.84
4.3177,-5.3256,-1.3484,0.20892,-0.17776,-0.80543,9.54,48.72,12.54
4.3177,-5.3256,-1.3484,0.17196,-0.2303,-0.86468,9.54,48.72,12.54
3.8546,-6.279,-1.2803,0.098655,-0.16799,-0.90011,9.24,48.72,12.36
3.7047,-7.7227,-1.0896,0.033903,-0.089186,-0.92241,8.64,48.66,12.06
3.8273,-8.4446,-1.076,-0.029932,0.0094684,-0.91172,8.22,48.6,11.88
4.0452,-9.616,-1.076,-0.083383,0.069333,-0.87995,7.62,48.36,11.82
4.3177,-12.667,-0.88532,-0.14966,0.095295,-0.83963,6.42,48.12,11.58
4.6309,-14.696,-0.76274,-0.27122,0.025045,-0.65637,5.82,48.0,11.64
4.8352,-16.249,-0.53119,-0.3989,-0.040928,-0.43127,5.16,47.76,11.34
5.8567,-18.878,-0.040861,-0.56413,-0.034208,-0.18234,3.72,47.04,11.22
5.3937,-17.107,0.24517,-0.73548,0.17654,-0.12553,3.06,46.56,11.28
4.4675,-15.541,0.58567,-0.76205,0.6692,-0.17898,2.52,46.32,11.16
3.623,-13.648,0.43585,-0.71777,0.79107,-0.24251,1.38,45.54,11.1
3.6775,-12.149,0.1362,-0.55039,0.82009,-0.39828,0.72,45.12,11.16
3.9908,-10.937,0.040861,-0.22602,0.49572,-0.45998,0.24,44.7,11.28
4.6445,-9.5479,0.17706,-0.045204,0.20495,-0.43433,-0.54,43.98,11.58
4.0997,-8.0088,0.46309,0.085827,-0.099266,-0.50793,-1.08,43.62,11.76
3.1599,-6.4833,0.44947,0.20128,-0.35094,-0.62064,-1.56,43.44,12.06
2.7513,-5.6661,0.42223,0.33995,-0.61942,-0.79687,-2.52,42.72,12.3
2.2746,-5.203,0.34051,0.35827,-0.74403,-0.88087,-3.0,42.48,12.42
2.0022,-4.9714,0.39499,0.33628,-0.74373,-0.89583,-3.48,42.36,12.6
1.471,-4.699,0.14982,0.22083,-0.58338,-0.88484,-4.2,42.18,12.72
1.2939,-4.7671,0.14982,0.049786,-0.32193,-0.84758,-4.5,42.06,12.66
0.9398,-4.7807,0.10896,-0.30085,0.18937,-0.69914,-5.46,41.7,12.66
0.92618,-5.1213,0.36775,-0.52718,0.59468,-0.54581,-5.88,41.46,12.66
1.3076,-5.5435,0.50395,-0.73334,0.98258,-0.32834,-6.36,41.22,12.66
1.7706,-5.9521,0.46309,-0.8042,1.1289,-0.20281,-6.66,41.04,12.66
2.6423,-6.6059,0.20431,-0.93432,1.285,0.14508,-7.62,40.62,12.78
3.4732,-7.8998,-0.10896,-0.94134,1.1738,0.37171,-7.98,40.44,12.96
3.9908,-9.3027,-0.21793,-0.90042,0.89217,0.82436,-8.34,40.14,12.96
5.0804,-12.531,-0.34051,-0.87629,0.74587,1.2608,-8.34,40.08,13.08
5.7205,-13.866,-0.095342,-0.87109,0.84971,1.704,-8.34,39.78,13.32
5.9112,-14.751,-0.027241,-0.78679,1.1295,2.032,-8.16,39.6,13.56
6.3879,-15.99,-0.62654,-0.59529,1.4416,2.2947,-7.8,39.18,13.86
7.1779,-14.179,-1.4982,-0.27031,1.5458,2.3396,-7.62,38.94,14.04
7.6819,-12.64,-2.9011,0.16616,0.96731,2.1915,-7.2,38.88,14.28
8.1313,-12.19,-2.9011,0.62064,-0.78527,2.0751,-5.94,38.82,15.0
7.8862,-12.231,-2.6696,0.72785,-1.708,1.8335,-5.1,39.0,15.06
7.2596,-11.7,-2.5061,0.61942,-1.9193,1.4655,-4.38,39.06,15.18
6.4288,-10.542,-2.1929,0.37721,-1.4499,1.0687,-3.36,39.12,15.24
4.2087,-7.641,-1.6072,0.15821,-0.613,0.64691,-1.2,39.18,15.12
3.5685,-6.6195,-1.6208,0.016188,0.19395,0.22633,-0.18,39.36,15.12
4.0044,-5.5435,-1.5936,-0.069944,0.94073,-0.22419,1.56,39.6,15.06
4.3585,-4.9987,-1.4029,-0.083689,1.1432,-0.46365,2.28,39.78,14.88
4.5356,-4.8352,-1.471,-0.078496,1.1545,-0.55864,3.0,39.84,14.82
4.5356,-4.6037,-1.2395,-0.022907,0.92424,-0.74464,3.6,39.96,14.82
4.5356,-4.6309,-1.0351,0.062919,0.61758,-0.78618,4.62,40.26,14.76
4.4539,-4.7944,-1.0488,0.12309,0.2981,-0.79596,4.86,40.38,14.58
4.2768,-4.9306,-0.96704,0.17623,0.047953,-0.7758,5.16,40.32,14.28
4.1406,-5.6661,-1.0896,0.22633,-0.074526,-0.72326,5.34,40.2,14.04
4.304,-6.3607,-1.2803,0.23854,-0.14875,-0.63958,5.34,40.2,13.98
4.413,-6.8783,-1.3484,0.1741,-0.28466,-0.50671,5.22,40.14,13.98
4.4539,-8.7034,-0.92618,0.07422,-0.31276,-0.44593,4.68,40.14,13.86
4.3313,-9.221,-0.7355,-0.018937,-0.27611,-0.44929,4.38,40.02,13.62
4.304,-9.9565,-0.55843,-0.1011,-0.12553,-0.48381,4.14,39.9,13.5
4.3177,-10.678,-0.43585,-0.10537,-0.08827,-0.52443,3.9,39.6,13.5
4.1814,-11.441,-0.50395,-0.083078,-0.057421,-0.72235,3.42,39.18,13.44
4.1406,-11.986,-0.61292,-0.033598,-0.16677,-0.82864,3.18,38.94,13.44
4.2904,-12.517,-0.38137,-0.014966,-0.36133,-0.79535,3.0,38.64,13.32
4.9033,-15.854,-0.068102,-0.065363,-0.66951,-0.58796,2.58,38.28,12.78
5.0531,-16.862,-0.027241,-0.16402,-0.99876,-0.35216,2.28,38.1,12.72
3.2553,-14.369,0.44947,-0.28191,-0.99266,-0.37141,1.86,37.68,12.6
3.2553,-14.369,0.44947,-0.28191,-0.99266,-0.37141,1.86,37.68,12.6
3.2553,-14.369,0.44947,-0.28191,-0.99266,-0.16646,1.26,37.14,12.42
3.2825,-12.681,0.54481,-0.35308,0.74251,-0.067806,1.02,36.78,12.48
4.2359,-10.433,0.27241,-0.29444,0.74831,0.13011,0.3,36.36,12.54
4.1814,-8.3493,0.24517,-0.2361,0.53665,0.32284,-0.42,36.12,12.48
4.0589,-7.7908,0.38137,-0.17135,0.20983,0.42516,-0.6,36.0,12.48
3.8137,-6.9191,0.29965,-0.089186,-0.10476,0.45937,-0.78,36.06,12.36
3.4459,-4.9306,-0.054481,0.023824,-0.41783,0.44807,-1.08,36.12,12.3
3.2144,-4.2087,-0.12258,0.080329,-0.53878,0.40623,-1.2,36.06,12.48
2.9692,-4.0316,-0.095342,0.097128,-0.5904,0.30879,-1.08,36.06,12.66
2.7786,-4.5628,-0.027241,0.07025,-0.55344,0.23793,-1.02,36.24,12.6
2.7104,-4.5356,0.01362,0.011912,-0.44899,0.18845,-0.96,36.36,12.66
2.7377,-4.6309,0.12258,-0.086743,-0.26573,0.16554,-0.66,36.48,12.66
2.7649,-5.8431,0.28603,-0.3207,0.13561,0.23763,-0.3,37.02,12.48
2.9011,-6.7966,0.46309,-0.50152,0.48106,0.29902,0.24,37.08,12.48
2.9011,-7.0009,0.40861,-0.66309,0.88301,0.33078,0.54,37.2,12.36
3.2689,-7.3686,0.28603,-0.77824,1.2599,0.32651,1.08,37.44,12.54
3.6094,-7.9815,0.1362,-0.82314,1.5278,0.30513,1.2,37.5,12.66
3.9908,-8.7443,-0.21793,-0.80756,1.5171,0.29932,1.38,37.5,12.72
4.7535,-11.482,-0.70826,-0.71838,1.284,0.40714,1.62,37.44,12.9
5.1485,-12.871,-0.69464,-0.62278,1.0989,0.59498,1.74,37.32,12.96
5.2983,-13.757,-0.6674,-0.47922,0.99815,0.74037,1.92,37.26,13.14
5.4618,-14.029,-0.89894,-0.28986,0.95661,0.78954,2.1,37.08,13.38
6.2245,-15.01,-1.6208,0.13439,0.61392,0.96395,2.1,37.02,13.74
6.9328,-13.593,-2.2882,0.28191,0.36988,0.95051,2.1,36.84,14.04
6.8919,-12.204,-2.5742,0.66737,-0.82925,0.76175,2.16,36.66,14.28
6.1292,-12.326,-2.1656,0.78557,-1.4526,0.70677,2.34,36.66,14.82
5.8159,-12.013,-2.0839,0.75839,-1.7388,0.54917,2.64,36.54,15.0
5.3528,-11.032,-2.0294,0.63713,-1.6875,0.31062,2.88,36.54,15.18
3.9635,-8.2131,-1.8115,0.41294,-0.97494,-0.069944,3.54,36.24,15.3
3.4732,-6.8919,-1.5663,0.31398,-0.4047,-0.31734,3.84,36.36,15.3
3.2825,-5.9385,-1.4438,0.28924,-0.20464,-0.44807,4.26,36.3,15.3
3.3506,-5.1894,-1.6072,0.27092,0.10232,-0.73121,5.04,36.48,15.12
3.6639,-4.9306,-1.6072,0.2416,0.20647,-0.82681,5.1,36.48,14.88
3.7728,-4.7399,-1.58,0.22297,0.26176,-0.91874,5.28,36.6,14.76
3.6775,-4.4811,-1.1305,0.23763,0.21716,-0.94592,5.7,36.72,14.34
3.732,-4.6037,-1.2531,0.25076,0.08094,-0.91508,5.82,37.02,14.16
3.8546,-4.9442,-1.3348,0.26756,-0.01069,-0.88178,5.88,37.14,13.92
4.0044,-5.9521,-1.4982,0.219,-0.3711,-0.77855,5.58,37.02,13.5
3.8137,-6.3198,-1.5119,0.18601,-0.59773,-0.6973,5.16,37.14,13.2
3.6366,-6.7285,-1.3484,0.13561,-0.80237,-0.59529,4.92,37.08,13.02
3.1872,-7.5048,-1.3212,0.033292,-0.67653,-0.51221,4.38,37.14,12.6
3.3506,-8.1177,-1.1577,-0.048869,-0.29871,-0.52504,4.14,37.14,12.42
3.6639,-8.6489,-0.9398,-0.069028,-0.15485,-0.54214,3.6,37.2,12.3
3.8682,-9.2755,-0.69464,-0.1066,-0.0076358,-0.52993,2.4,37.02,12.24
3.9635,-9.8339,-0.7355,-0.09499,-0.081551,-0.5623,2.1,36.96,12.06
3.9908,-10.842,-0.85808,-0.085521,-0.21166,-0.54062,1.74,36.9,12.06
4.2223,-13.729,-0.76274,-0.1631,-0.38149,-0.28283,0.78,36.6,11.82
4.4402,-16.317,-0.34051,-0.28955,-0.41294,0.063225,0.24,36.3,11.7
4.8625,-18.251,-0.01362,-0.39218,-0.36866,0.24251,-0.18,36.18,11.76
4.7671,-15.405,0.74912,-0.73059,0.12859,0.37446,-0.84,36.06,11.7
3.8954,-13.893,0.7355,-0.78527,0.53817,0.40378,-1.08,36.0,11.76
3.4459,-13.184,0.64016,-0.74037,0.83505,0.37324,-1.44,35.88,11.82
3.8546,-11.7,0.01362,-0.62308,0.80909,0.32987,-2.1,35.82,12.0
4.0725,-11.087,-0.027241,-0.36072,0.50152,0.50549,-2.34,35.7,12.0
5.0668,-10.065,-0.095342,-0.30391,0.38485,0.62339,-2.52,35.52,12.12
5.094,-8.8396,0.14982,-0.2022,0.0058032,0.85094,-2.46,35.46,12.36
4.0861,-7.5048,0.31327,-0.14355,-0.16585,0.79901,-2.46,35.4,12.6
3.7592,-6.4833,0.24517,-0.089186,-0.23457,0.73945,-2.52,35.4,12.66
3.8818,-4.7671,0.1362,-0.0027489,-0.40653,0.62339,-2.16,35.4,12.96
3.8954,-4.0452,0.1362,0.057727,-0.58215,0.48686,-1.92,35.58,13.08
3.7728,-3.7456,-0.068102,0.094379,-0.69455,0.32284,-1.62,35.58,13.14
3.2144,-4.0725,-0.027241,0.11362,-0.69883,0.15638,-1.02,35.76,13.08
3.1191,-4.522,-0.01362,0.07086,-0.60109,-0.0058032,-0.78,35.82,13.02
2.942,-4.9714,-0.01362,-0.018326,-0.39279,-0.15333,-0.54,35.82,13.08
2.8058,-5.7614,0.27241,-0.1912,0.051313,-0.28405,-0.06,35.76,13.14
2.8467,-6.3198,0.16344,-0.35491,0.40348,-0.29596,0.18,35.82,13.14
3.0237,-7.5184,0.1362,-0.49419,0.76541,-0.28375,0.36,36.0,13.14
3.3778,-8.4582,0.054481,-0.59743,1.1057,-0.28253,0.66,36.06,13.2
3.6503,-8.7987,-0.31327,-0.62614,1.2929,-0.30116,0.72,36.24,13.2
4.127,-9.6296,-0.62654,-0.60445,1.2703,-0.23885,0.84,36.12,13.38
4.7399,-12.149,-0.89894,-0.52473,0.93462,0.061087,0.78,36.12,13.44
4.9169,-14.41,-0.64016,-0.45907,0.7419,0.38912,0.72,36.18,13.5
5.2575,-16.086,-0.46309,-0.40134,0.71624,0.5287,0.54,36.12,13.56
5.5843,-14.288,-1.1577,-0.16921,0.79535,0.60751,0.24,35.94,14.04
5.6116,-12.749,-1.7298,0.16218,0.5901,0.71471,0.12,35.82,14.34
5.9112,-12.095,-2.1248,0.50549,0.013439,0.71441,0.06,35.76,14.46
5.8704,-10.637,-2.5606,0.82925,-0.8827,0.65729,0.18,35.82,14.64
5.9249,-11.455,-2.6287,1.0171,-1.9199,0.84635,0.12,35.82,14.82
6.0883,-12.531,-2.7513,0.97525,-2.0772,0.86224,0.36,35.82,14.76
5.094,-11.128,-2.4244,0.7419,-1.9868,0.75686,0.54,35.76,14.76
4.0316,-8.7715,-1.866,0.34056,-1.0684,0.42455,1.02,35.82,14.4
3.2553,-7.0826,-1.6072,0.22724,-0.35797,0.14233,1.32,35.94,14.1
2.9011,-5.203,-1.3212,0.24465,0.092852,-0.146,1.92,36.12,14.1
3.0101,-4.7671,-1.4438,0.31154,0.32437,-0.46578,2.16,36.18,14.1
3.1735,-4.6037,-1.5119,0.32376,0.35094,-0.53237,2.52,36.24,14.04
3.8682,-4.4947,-1.4438,0.36713,0.25045,-0.67104,3.0,36.48,13.74
4.3177,-4.6854,-1.6753,0.37263,0.032681,-0.73182,3.18,36.6,13.56
4.3449,-4.8216,-1.7979,0.35491,-0.19273,-0.75595,3.42,36.6,13.2
3.8546,-5.2847,-1.5936,0.34758,-0.34453,-0.77305,3.36,36.78,12.84
3.5685,-5.4754,-1.4574,0.32803,-0.47647,-0.74709,3.36,36.66,12.6
3.732,-6.5241,-1.1441,0.30024,-0.5171,-0.71288,3.12,36.6,12.6
3.4459,-7.0826,-1.2803,0.25534,-0.60231,-0.64416,2.52,36.66,12.24
3.4323,-7.5593,-1.2531,0.16341,-0.52779,-0.56291,2.16,36.66,12.12
3.514,-8.1586,-1.1305,-0.014355,-0.25015,-0.56749,1.86,36.6,12.06
3.4596,-9.1393,-0.78998,-0.13378,-0.029322,-0.53878,1.14,36.6,11.76
3.5549,-9.4525,-0.64016,-0.24282,0.20036,-0.48839,0.78,36.48,11.58
3.6366,-10.42,-0.42223,-0.30238,0.26725,-0.47861,0.3,36.36,11.52
3.8546,-10.733,-0.47671,-0.32315,0.35644,-0.44746,-0.48,36.12,11.4
4.1406,-11.564,-0.62654,-0.29322,0.34819,-0.44135,-0.9,36.06,11.28
4.2632,-12.19,-0.6674,-0.22449,0.055589,-0.29719,-1.38,36.12,11.4
4.8625,-17.311,-0.55843,-0.24648,-0.19395,-0.0045815,-2.34,35.94,11.34
5.2575,-17.911,-0.44947,-0.35277,-0.28711,0.33872,-2.76,36.06,11.28
4.4402,-14.547,0.25879,-0.52107,-0.092241,0.39187,-3.12,36.0,11.22
3.8273,-13.797,0.24517,-0.5733,0.38057,0.52534,-3.66,35.88,11.28
3.6366,-13.402,0.054481,-0.56139,0.48717,0.57818,-3.9,35.88,11.52
3.9227,-12.667,-0.17706,-0.42425,0.42608,0.60567,-3.96,35.94,11.52
4.6309,-10.665,-0.54481,-0.28466,0.24679,0.75198,-4.26,35.76,11.76
4.985,-9.6023,-0.42223,-0.17562,0.068417,0.9444,-4.32,35.76,11.76
4.5083,-7.5865,0.027241,-0.10751,-0.1405,1.065,-4.26,35.7,11.94
4.1133,-6.4424,-0.14982,0.020769,-0.42394,0.99907,-4.14,35.88,11.94
3.9771,-5.7614,-0.21793,0.050091,-0.49602,0.9502,-4.02,35.82,12.06
3.909,-4.9987,-0.32689,0.12401,-0.70983,0.74678,-3.78,35.88,12.06
3.5549,-4.4811,-0.40861,0.13317,-0.7984,0.53512,-2.88,36.0,12.24
3.2144,-4.5083,-0.25879,0.094379,-0.748,0.31857,-2.46,36.18,12.36
2.9556,-4.9033,-0.23155,0.019853,-0.57421,0.12553,-1.62,36.18,12.54
2.8603,-5.5026,-0.054481,-0.089492,-0.28772,-0.03207,-1.38,36.06,12.66
2.6423,-5.7886,0.10896,-0.31796,0.34025,-0.21716,-1.02,36.12,12.6
2.6287,-5.993,0.21793,-0.45204,0.81734,-0.27855,-0.78,36.18,12.72
3.0101,-7.0826,0.17706,-0.56749,1.1958,-0.27855,-0.18,36.24,12.48
3.4732,-7.5457,0.12258,-0.65118,1.4557,-0.27764,-0.12,36.3,12.36
3.8546,-7.9815,0.081722,-0.67928,1.584,-0.27275,0.06,36.42,12.18
4.0861,-8.145,-0.16344,-0.59101,1.4798,-0.28466,0.06,36.36,12.36
4.2904,-9.0984,-0.35413,-0.46976,1.2013,-0.25443,0.12,36.3,12.54
4.4266,-9.8339,-0.43585,-0.36255,0.86315,-0.13073,0.12,36.18,12.6
4.8352,-11.931,-0.72188,-0.24893,0.54336,0.058948,-0.42,36.0,12.9
5.1485,-13.471,-0.8717,-0.15272,0.33414,0.27825,-0.72,35.82,13.08
5.3528,-12.749,-1.3212,0.0030543,0.24862,0.38301,-1.2,35.88,13.26
4.8352,-11.972,-1.5527,0.077885,0.21411,0.33842,-1.32,36.0,13.26
4.985,-13.062,-1.6617,0.40348,-0.14691,0.47709,-1.56,36.06,13.5
5.8704,-13.144,-2.1112,0.54184,-0.55925,0.49694,-1.68,36.12,13.62
5.7614,-12.708,-2.5334,0.64568,-1.0366,0.46701,-2.22,36.12,13.98
5.4754,-12.64,-2.4789,0.60873,-1.1997,0.46853,-2.16,36.18,14.16
4.8352,-10.583,-1.9613,0.47892,-1.0394,0.32254,-2.16,36.06,14.34
3.9635,-9.3163,-1.8115,0.32406,-0.57818,0.045815,-1.98,36.0,14.1
3.514,-8.0905,-1.7298,0.25565,-0.24984,-0.12065,-1.86,36.18,13.98
3.4459,-7.4912,-1.6481,0.21105,0.012828,-0.28558,-1.8,36.24,13.74
3.5277,-6.674,-1.6072,0.17135,0.1744,-0.43463,-1.8,36.48,13.26
3.7047,-6.2381,-1.5391,0.13439,0.25504,-0.54581,-1.92,36.42,13.08
3.7047,-5.8704,-1.471,0.11423,0.29474,-0.63011,-1.92,36.48,13.02
3.5413,-4.9578,-1.3757,0.11668,0.29932,-0.73457,-2.04,36.54,12.78
3.5413,-4.8488,-1.4165,0.15394,0.20281,-0.77183,-2.22,36.42,12.54
3.5413,-4.9578,-1.4165,0.16616,-0.0058032,-0.72662,-2.34,36.36,12.36
3.3506,-5.8704,-1.3893,0.16127,-0.20464,-0.65943,-2.52,36.24,12.06
2.9692,-5.9521,-1.2803,0.15485,-0.36652,-0.58735,-2.7,36.06,11.88
2.9284,-6.0338,-1.3757,0.19364,-0.26176,-0.4835,-3.3,36.24,11.76
3.2689,-6.3607,-1.2531,0.23152,-0.33995,-0.46731,-3.72,36.06,11.76
3.4459,-6.9736,-1.2939,0.28405,-0.58643,-0.44288,-4.02,35.88,11.64
3.2825,-7.3686,-1.3076,0.25962,-0.62308,-0.37018,-4.32,35.94,11.7
3.3915,-8.1313,-1.2258,0.17654,-0.63102,-0.27245,-4.56,35.94,11.7
3.1599,-8.9349,-0.92618,0.092546,-0.51129,-0.21838,-5.04,35.58,11.52
2.8467,-9.0575,-0.70826,-0.0085521,-0.27519,-0.18326,-5.28,35.4,11.46
2.942,-10.079,-0.95342,-0.086437,-0.033598,-0.18418,-5.7,35.1,11.34
3.4187,-11.441,-1.1169,-0.20311,0.1182,-0.05284,-5.76,35.16,11.28
3.7456,-12.762,-0.99429,-0.26389,0.087965,0.064141,-6.06,35.04,11.16
4.127,-17.57,-0.36775,-0.53603,0.21564,0.60353,-6.36,34.74,11.34
4.7535,-18.074,0.20431,-0.78099,0.70036,0.77824,-6.54,34.68,11.46
4.8488,-16.739,0.8717,-0.91691,1.1854,0.75686,-6.72,34.56,11.46
4.0316,-14.492,0.6674,-0.89034,1.5153,0.81153,-6.9,34.5,11.4
4.018,-13.688,0.081722,-0.77977,1.4157,0.72632,-6.84,34.5,11.4
4.1814,-12.83,-0.12258,-0.70158,1.2779,0.68692,-6.9,34.38,11.52
4.9306,-9.793,-0.16344,-0.47953,0.83078,0.71654,-6.66,34.32,11.76
4.7944,-8.2131,-0.16344,-0.38179,0.56841,0.80115,-6.6,34.38,11.94
4.2495,-7.1234,0.027241,-0.31307,0.33109,0.82803,-6.42,34.44,12.06
3.6639,-5.8295,-0.21793,-0.22266,0.11026,0.81031,-6.12,34.62,12.24
3.8273,-5.3392,-0.24517,-0.18448,0.0042761,0.78343,-6.0,34.68,12.3
3.8954,-4.9987,-0.32689,-0.17471,-0.10263,0.70127,-5.82,34.74,12.42
3.7728,-4.018,-0.44947,-0.18967,-0.16799,0.54153,-5.16,35.16,12.48
3.3097,-3.9908,-0.36775,-0.22969,-0.11973,0.32254,-4.74,35.22,12.54
2.8603,-4.2768,-0.21793,-0.29658,0.037568,0.096517,-4.38,35.4,12.6
2.5198,-4.9987,0.027241,-0.40684,0.49999,-0.18723,-3.96,35.76,12.72
2.6968,-5.2847,0.14982,-0.58613,0.8882,-0.31551,-3.72,35.76,12.9
2.7513,-5.8023,0.23155,-0.71135,1.2269,-0.37263,-3.6,35.88,12.9
3.1191,-6.851,0.20431,-0.81886,1.5165,-0.41142,-3.24,35.94,13.08
3.2689,-7.355,0.040861,-0.89125,1.7306,-0.46578,-3.18,35.82,13.02
3.3642,-8.5127,-0.068102,-0.92516,1.8353,-0.41233,-3.18,35.94,13.08
4.2904,-12.19,-0.21793,-0.92974,1.8607,-0.10079,-3.36,35.94,13.38
4.7944,-13.321,-0.29965,-0.83597,1.8295,0.067806,-3.54,35.76,13.44
5.0668,-13.511,-0.29965,-0.65271,1.7294,0.22633,-3.54,35.64,13.56
5.598,-13.675,-1.185,-0.31154,1.4316,0.36499,-4.2,35.46,13.68
6.2517,-14.492,-2.0294,0.14539,0.80573,0.58979,-4.5,35.52,13.8
7.0553,-13.797,-2.8739,0.59193,-0.10721,0.65729,-4.8,35.4,13.86
6.7421,-12.871,-3.6775,1.0046,-1.6255,0.69852,-5.1,35.1,13.98
6.1973,-13.389,-3.5413,0.97372,-2.1463,0.73579,-5.16,34.98,13.8
5.2847,-13.566,-3.2825,0.66401,-2.0308,0.62492,-5.16,34.86,13.8
3.9363,-11.741,-2.261,0.25443,-1.3213,0.40042,-4.92,34.98,13.56
3.1872,-8.7987,-1.6072,0.01069,-0.3094,0.22174,-4.74,35.16,13.44
2.9148,-7.0281,-1.4301,-0.081551,0.60323,0.075442,-4.56,34.98,13.32
2.9011,-6.3743,-1.5119,-0.087048,1.2617,-0.25168,-4.56,34.98,13.2
3.3097,-5.5571,-2.0158,-0.079107,1.3292,-0.34178,-4.26,35.04,12.96
4.0316,-5.4754,-1.9886,-0.1066,1.2782,-0.42608,-3.9,35.22,12.6
4.3585,-5.5435,-1.9886,-0.13653,1.1127,-0.46242,-3.72,35.34,12.6
4.413,-5.5435,-1.6481,-0.15211,0.75931,-0.57605,-3.48,35.46,12.48
3.9771,-5.7478,-1.7025,-0.1295,0.57146,-0.57879,-3.24,35.58,12.3
3.8001,-5.9249,-1.6072,-0.091935,0.45815,-0.56566,-3.18,35.64,12.42
3.6775,-6.3335,-1.5663,-0.047342,0.39126,-0.55741,-3.12,35.76,12.42
3.7728,-6.5922,-1.5391,-0.050396,0.35308,-0.55131,-3.48,36.12,12.42
3.8682,-6.7693,-1.5663,-0.056505,0.32193,-0.53878,-3.72,36.12,12.6
3.7728,-6.8919,-1.4982,-0.11148,0.18479,-0.478,-4.14,36.06,12.6
3.6094,-7.6546,-1.3757,-0.17959,0.16707,-0.40684,-4.62,36.18,12.96
3.7047,-7.9407,-1.4165,-0.29749,0.2923,-0.3711,-4.8,36.18,12.96
3.9771,-8.0224,-1.5255,-0.4386,0.39065,-0.36102,-5.04,36.12,13.08
3.8682,-8.1586,-1.5391,-0.5342,0.67806,-0.30238,-5.64,36.3,13.2
3.9363,-8.4446,-1.5527,-0.59315,1.1234,-0.14997,-5.82,36.36,13.2
4.2495,-8.9622,-1.5527,-0.5846,1.2324,-0.025045,-6.0,36.42,13.2
4.7671,-10.583,-1.362,-0.55405,1.1973,0.12217,-6.42,36.6,13.2
4.9578,-11.645,-1.2122,-0.52015,1.0919,0.30971,-6.6,36.6,13.08
5.1076,-12.558,-1.0215,-0.48686,0.93065,0.57849,-6.72,36.66,13.08
5.3119,-14.86,-0.8717,-0.46212,0.64202,0.82772,-6.96,36.72,13.26
5.9249,-16.549,-0.91256,-0.43982,0.46365,1.0599,-7.02,36.66,13.14
6.0747,-16.549,-0.91256,-0.44502,0.33048,1.1371,-7.14,36.9,13.2
5.598,-15.064,-0.8717,-0.44135,0.30452,1.1316,-7.14,37.14,13.26
5.1349,-13.879,-0.8036,-0.43005,0.39981,1.0009,-7.08,37.38,13.44
4.6037,-12.217,-1.185,-0.40317,0.50366,0.76236,-6.6,37.44,13.86
4.5901,-11.182,-1.2667,-0.35766,0.66004,0.41142,-6.36,37.5,14.1
4.6445,-10.256,-1.1986,-0.34147,0.77427,0.20006,-6.06,37.56,14.4
4.5356,-9.3299,-1.0215,-0.33781,0.87384,0.031154,-5.82,37.56,14.7
4.2223,-8.322,-0.85808,-0.32681,0.95723,-0.079107,-5.52,37.56,15.06
3.7728,-6.4424,-0.64016,-0.28711,0.96333,-0.21441,-5.34,37.68,15.6
3.7184,-5.7342,-0.61292,-0.25015,0.77794,-0.33964,-5.28,37.86,15.9
3.6094,-5.0668,-0.55843,-0.2135,0.62827,-0.35033,-4.92,37.92,16.62
3.3506,-4.9306,-0.61292,-0.21502,0.51221,-0.35186,-4.92,38.04,16.92
3.2825,-4.8625,-0.69464,-0.22205,0.40164,-0.33506,-4.86,38.04,17.34
3.2553,-5.094,-0.83084,-0.23976,0.29566,-0.25198,-5.16,38.04,18.0
3.3097,-5.8159,-0.92618,-0.27458,0.24984,-0.12065,-5.28,37.98,18.24
3.4868,-6.7148,-1.0215,-0.36866,0.25962,-0.010996,-5.34,38.04,18.48
3.4868,-9.1665,-0.89894,-0.5507,0.38332,0.061087,-5.82,38.22,19.02
3.2144,-12.422,-0.58567,-0.68447,0.57696,0.2697,-6.12,38.16,19.14
3.7047,-15.772,-0.16344,-0.87781,1.0156,0.56841,-6.36,38.28,19.44
4.3313,-15.977,-0.040861,-1.0125,1.5165,0.43524,-6.54,38.4,19.98
4.6854,-14.819,-0.7355,-0.98807,1.8607,0.38637,-6.72,38.4,20.46
5.5435,-12.272,-2.9965,-0.66462,1.7391,0.1069,-6.9,38.28,21.06
5.1485,-10.869,-3.5685,-0.38546,1.1484,-0.35308,-7.08,38.34,21.3
4.1406,-10.065,-3.337,-0.20525,0.54428,-0.72601,-7.14,38.46,21.84
3.8273,-10.147,-3.1054,-0.17349,0.17471,-1.0284,-7.32,38.34,22.2
3.1191,-10.828,-2.4517,-0.3094,0.086132,-1.2171,-7.74,38.34,22.98
2.9556,-10.597,-2.0839,-0.54306,0.26786,-1.223,-7.92,38.22,23.4
2.7513,-9.7658,-1.5936,-0.74923,0.6918,-1.1686,-8.34,38.04,23.88
2.6015,-7.3686,-1.1577,-0.82039,1.4792,-0.89919,-9.18,37.56,24.72
2.7649,-6.4016,-1.3076,-0.80909,1.6939,-0.78618,-9.48,37.38,25.2
2.833,-5.8023,-1.471,-0.74953,1.9991,-0.62827,-10.02,37.08,25.56
2.8603,-4.4811,-1.8387,-0.63377,2.0663,-0.45479,-11.46,36.36,26.16
3.1599,-4.1542,-1.9886,-0.52229,1.8634,-0.30543,-12.12,36.06,26.28
3.6094,-4.0861,-1.7162,-0.42394,1.4872,-0.14691,-13.44,35.52,26.7
3.5822,-4.808,-1.5663,-0.42364,1.022,0.16402,-14.16,35.28,26.94
3.6503,-5.094,-1.58,-0.51038,0.89034,0.38943,-14.88,34.86,27.0
3.5549,-5.2302,-1.8251,-0.55986,0.88209,0.5006,-15.48,34.68,27.12
3.5277,-5.7886,-2.152,-0.72326,1.3534,0.86163,-16.38,34.14,27.24
4.6445,-6.1973,-2.1929,-0.8097,1.7865,0.91599,-16.98,34.02,27.3
5.2847,-6.3471,-2.0294,-0.6973,1.6298,1.1756,-17.7,34.02,27.18
4.4539,-6.4424,-1.4846,-0.51404,1.2908,1.4502,-18.06,34.02,27.06
4.3858,-7.1234,-1.3348,-0.3317,1.0669,1.5427,-18.54,34.02,26.94
4.699,-7.5729,-1.3757,-0.24801,0.96242,1.5708,-18.66,34.2,26.7
5.598,-9.0848,-1.9341,-0.10934,0.60567,1.675,-18.48,34.74,26.34
5.5026,-9.507,-2.0022,-0.079412,0.3769,1.6487,-18.48,35.04,26.16
5.2711,-9.7522,-1.7025,-0.12431,0.38087,1.5757,-18.24,35.46,25.98
4.7944,-10.215,-1.4574,-0.2303,0.73976,1.4102,-17.82,36.42,25.8
4.7671,-10.801,-1.4165,-0.27031,0.89889,1.3723,-17.52,36.96,25.5
5.1485,-12.898,-1.471,-0.39095,1.2175,1.3772,-17.16,37.5,25.32
5.9112,-14.942,-0.81722,-0.57269,1.7104,1.3473,-16.56,38.7,24.96
5.8976,-14.56,-0.40861,-0.64782,2.0128,1.2092,-16.26,39.18,24.9
5.6524,-13.28,-0.081722,-0.57085,2.3723,0.83169,-15.6,40.2,24.66
5.7205,-9.8203,-0.8036,-0.3146,2.2593,0.45662,-15.36,40.68,24.66
5.9521,-8.3357,-1.4165,0.0039706,1.6573,0.15699,-15.12,41.16,24.54
6.1292,-7.8317,-1.6753,0.3036,0.66676,-0.063835,-15.0,41.46,24.66
6.3471,-8.1177,-1.4165,0.48869,-0.37965,-0.19975,-15.0,41.88,24.54
5.9657,-8.3629,-1.1713,0.56597,-1.168,-0.29596,-15.0,42.18,24.54
5.5435,-8.7306,-1.0215,0.51832,-1.5977,-0.41753,-15.18,42.3,24.6
4.4539,-10.188,-0.69464,0.36621,-1.5009,-0.59254,-15.36,42.42,24.84
3.5685,-10.883,-0.25879,0.018631,-1.0021,-0.69578,-15.42,42.6,25.32
3.2825,-10.992,-0.14982,-0.10934,-0.64782,-0.75595,-15.48,42.66,25.74
2.9965,-10.828,0.12258,-0.37874,0.51374,-0.98044,-15.6,42.66,26.28
3.1872,-9.4661,0.054481,-0.41753,1.0693,-1.1707,-15.66,42.54,27.12
3.4459,-9.0167,-0.17706,-0.36805,1.2807,-1.3247,-15.78,42.3,27.6
3.8273,-9.0167,-0.38137,-0.26023,1.1597,-1.4554,-15.78,42.12,27.96
4.0861,-8.9894,-0.25879,-0.13897,0.63866,-1.5705,-15.78,42.0,28.92
3.8273,-9.2074,-0.040861,-0.11576,0.46212,-1.5757,-15.78,41.88,29.22
3.5822,-9.2074,0.10896,-0.12004,0.22449,-1.529,-15.78,41.88,29.64
3.0918,-8.7034,-0.027241,-0.16127,0.096517,-1.4233,-15.84,41.58,30.24
3.0101,-8.322,-0.095342,-0.20861,0.10843,-1.303,-15.9,41.4,30.36
2.9284,-8.0496,-0.35413,-0.26298,0.2306,-1.0486,-16.5,40.8,30.18
2.9011,-7.3141,-0.44947,-0.28924,0.29566,-0.8714,-16.98,40.38,29.58
2.9284,-6.9872,-0.57205,-0.30849,0.29993,-0.68081,-17.52,39.9,28.98
2.9965,-6.9191,-0.76274,-0.35308,0.25717,-0.47128,-18.18,39.48,28.32
2.942,-7.0553,-0.6674,-0.41172,0.22633,-0.26786,-18.9,39.0,27.54
2.8739,-7.246,-0.5993,-0.48167,0.23732,-0.073609,-20.7,38.28,25.68
2.9556,-7.2052,-0.62654,-0.57941,0.3146,0.14966,-21.54,37.92,24.84
2.8603,-8.036,-0.70826,-0.72174,0.41661,0.29902,-23.28,36.78,22.8
3.3778,-10.964,-0.83084,-0.86773,0.47373,0.67378,-24.0,36.24,21.9
3.7865,-12.081,-0.77636,-1.0989,0.64874,1.0116,-24.84,35.76,21.0
4.0452,-14.506,-0.54481,-1.2584,0.90225,1.2211,-26.52,34.92,19.32
4.2904,-14.751,-0.5993,-1.4328,1.3448,1.4117,-27.24,34.68,18.54
4.4675,-14.247,-0.95342,-1.4759,1.7929,1.4117,-27.78,34.5,17.88
4.5083,-11.645,-1.6344,-1.3008,2.1145,1.073,-28.74,34.26,16.74
4.5356,-10.379,-2.0431,-1.1839,2.0754,0.92729,-29.1,34.32,16.38
4.5083,-9.7658,-2.1384,-0.93096,1.763,0.64324,-29.34,34.26,15.96
4.3721,-8.9077,-1.8524,-0.64385,0.92546,0.32803,-29.52,34.26,15.66
4.0589,-9.2482,-1.4438,-0.57544,0.62705,0.27306,-29.46,34.32,15.24
3.8137,-9.0575,-1.185,-0.60873,0.66157,0.30391,-29.58,34.5,15.0
3.4459,-7.8045,-0.7355,-0.67531,0.87751,0.34422,-29.28,34.62,14.82
3.2008,-6.6059,-0.74912,-0.75931,1.3131,0.48167,-29.22,34.98,14.4
3.3097,-5.993,-0.83084,-0.75472,1.4786,0.53817,-29.04,35.16,14.4
3.3915,-5.6388,-0.95342,-0.74281,1.532,0.60109,-28.98,35.52,14.28
3.732,-5.6116,-0.76274,-0.69211,1.4765,0.70036,-28.68,35.64,13.86
3.8954,-5.7342,-0.7355,-0.61575,1.3741,0.82467,-28.68,35.76,13.56
4.1678,-6.3879,-0.85808,-0.5284,1.2175,0.96059,-28.56,35.82,13.38
4.6718,-7.1507,-1.0896,-0.45509,0.98349,1.0733,-28.26,36.0,12.72
4.6582,-7.9679,-1.4029,-0.36041,0.68447,1.2214,-28.2,36.24,12.42
4.6445,-8.2539,-1.5663,-0.3036,0.6017,1.222,-28.02,36.48,12.24
4.7807,-9.1665,-1.9341,-0.22144,0.58887,1.1661,-27.6,36.96,11.7
4.7263,-9.3844,-2.0431,-0.15241,0.60445,1.0562,-27.3,37.02,11.4
4.8352,-9.7249,-2.5061,-0.045204,0.62766,0.77763,-26.94,37.62,10.8
4.8488,-9.7522,-2.6968,0.002138,0.62278,0.54764,-26.58,37.92,10.38
4.8488,-9.4525,-2.6968,0.0033598,0.68692,0.33292,-26.46,38.28,9.96
4.7944,-8.9622,-2.6696,-0.012828,0.71257,0.084299,-26.1,38.52,9.48
4.3449,-7.8045,-2.5334,-0.032987,0.74067,-0.10782,-25.74,39.18,8.76
4.1951,-7.5457,-2.4108,-0.041844,0.77855,-0.22449,-25.5,39.48,8.4
4.2223,-7.7636,-2.3836,-0.073915,0.82772,-0.28497,-25.08,39.72,8.1
4.127,-7.8589,-2.1929,-0.15211,0.97311,-0.35186,-24.6,40.2,7.38
4.0452,-8.2676,-1.9341,-0.18143,1.1161,-0.34697,-24.42,40.2,7.02
4.127,-8.7579,-1.866,-0.19456,1.1982,-0.26206,-24.36,40.38,6.48
4.4811,-9.6977,-1.866,-0.21686,1.182,-0.1127,-24.3,40.38,6.0
5.1485,-11.128,-2.0022,-0.27153,1.1442,-0.01069,-24.48,40.68,5.16
4.9578,-10.978,-1.757,-0.2981,1.1328,-0.0045815,-24.6,40.74,4.74
4.5764,-8.9213,-1.3757,-0.25045,1.1026,-0.17776,-25.08,40.62,3.78
4.3313,-8.1177,-1.4165,-0.13042,0.9218,-0.36835,-25.32,40.62,3.3
4.2359,-8.3493,-1.4574,0.0088575,0.61392,-0.44074,-25.44,40.44,2.76
4.4811,-9.2074,-1.4301,0.094379,0.24282,-0.42944,-25.56,40.26,2.16
4.985,-11.55,-1.1169,0.10629,-0.11729,-0.40287,-26.1,40.08,1.2
4.7944,-12.054,-1.0215,0.043066,-0.32223,-0.34331,-26.52,39.9,0.72
4.1542,-12.381,-0.70826,-0.17471,-0.086132,-0.35247,-27.0,39.72,0.42
3.337,-11.891,-0.34051,-0.24801,0.079718,-0.38698,-27.42,39.6,0.42
3.1463,-10.992,-0.28603,-0.41325,0.68906,-0.52107,-28.2,39.42,-0.66
3.3778,-10.379,-0.39499,-0.43249,0.97555,-0.63286,-28.62,39.36,-1.02
3.514,-9.8475,-0.50395,-0.39645,1.0626,-0.72998,-28.98,39.12,-1.32
3.8001,-8.0496,-0.69464,-0.31551,0.95723,-0.79687,-29.94,38.52,-1.98
3.8818,-7.8045,-0.70826,-0.208,0.60659,-0.86804,-30.54,38.16,-2.16
3.7456,-7.7908,-0.65378,-0.20159,0.48106,-0.86773,-31.08,37.86,-2.46
3.3097,-7.7636,-0.47671,-0.20372,0.31796,-0.83689,-31.56,37.56,-2.58
3.0101,-7.6138,-0.46309,-0.26878,0.33872,-0.76053,-32.94,36.9,-2.82
2.9284,-7.5729,-0.46309,-0.33811,0.44807,-0.64599,-33.54,36.6,-2.88
2.9284,-7.4912,-0.38137,-0.42638,0.60201,-0.48839,-34.2,36.06,-2.94
3.0237,-7.1643,-0.28603,-0.50549,0.78588,-0.18051,-35.4,35.16,-3.36
3.1191,-7.1098,-0.35413,-0.54459,0.8262,0.037568,-35.88,34.56,-3.48
3.3915,-7.0145,-0.40861,-0.55039,0.82375,0.14569,-36.48,34.14,-3.66
3.5413,-6.6331,-0.31327,-0.54611,0.74862,0.42089,-37.32,33.48,-3.96
3.5685,-6.4833,-0.32689,-0.49724,0.6463,0.58582,-37.8,33.24,-4.14
3.5685,-6.4833,-0.38137,-0.45723,0.53481,0.74556,-37.98,33.06,-4.32
3.909,-6.2109,-0.57205,-0.37782,0.31521,0.92516,-37.92,33.06,-4.62
3.909,-6.1428,-0.65378,-0.34758,0.17898,1.0095,-37.92,32.94,-4.62
3.8001,-6.1019,-0.5993,-0.31154,0.081856,1.0708,-37.86,33.0,-4.92
3.9363,-6.1973,-0.57205,-0.30879,0.01405,1.1038,-37.32,33.48,-5.16
3.8682,-6.1292,-0.54481,-0.30299,-0.034514,1.098,-36.96,33.72,-5.34
3.8954,-5.9657,-0.78998,-0.32712,-0.038179,1.0214,-36.48,34.26,-5.52
3.8273,-6.456,-0.92618,-0.35766,0.021686,0.86712,-35.22,35.28,-5.88
3.8682,-7.1234,-0.8717,-0.4612,0.24129,0.75106,-34.74,36.0,-6.12
3.7728,-7.3414,-0.89894,-0.50121,0.34544,0.67959,-34.02,36.54,-6.3
3.9227,-8.2131,-0.84446,-0.63255,0.72021,0.47189,-32.58,37.56,-6.6
3.9771,-8.5944,-0.91256,-0.69547,0.9334,0.27214,-31.74,38.16,-6.72
4.1951,-9.5615,-1.1577,-0.7196,1.0363,0.089797,-31.26,38.7,-6.96
4.4947,-12.599,-1.3757,-0.70311,1.0409,-0.04612,-30.24,39.72,-7.38
4.6718,-14.669,-1.0896,-0.64019,1.0085,-0.0956,-29.64,40.32,-7.74
4.8488,-15.936,-0.8036,-0.53848,1.0006,-0.10476,-29.1,40.68,-8.04
4.9714,-17.298,-1.0351,-0.34208,0.91233,-0.042455,-28.08,41.16,-8.58
5.4618,-16.031,-1.7979,-0.12431,0.74159,0.11973,-27.54,41.52,-8.94
5.775,-12.463,-2.3836,0.16035,0.44746,0.14325,-27.18,41.7,-9.24
4.9578,-7.6683,-2.4789,0.55589,-0.35675,0.36133,-26.64,42.0,-9.66
4.808,-7.8589,-2.1384,0.65454,-0.90408,0.62553,-26.28,42.0,-9.84
4.6173,-8.0496,-1.9613,0.66584,-1.0983,0.70708,-26.04,42.06,-10.02
4.3858,-8.1177,-1.8387,0.6182,-1.2935,0.85491,-25.68,42.36,-10.2
4.3994,-8.4582,-2.0022,0.33262,-0.98869,1.1176,-25.5,42.36,-10.92
4.1951,-7.927,-1.7706,0.054062,-0.44746,1.1188,-25.32,42.36,-11.1
3.7047,-6.8374,-1.4165,-0.1408,0.25595,0.94043,-24.96,42.3,-11.34
3.9635,-5.1485,-1.2531,-0.16952,0.80451,0.72204,-24.36,42.42,-11.58
4.1133,-4.9033,-1.3212,-0.08827,0.74617,0.53512,-23.94,42.54,-11.64
4.1542,-4.7944,-1.5391,-0.043371,0.6692,0.42333,-23.7,42.78,-11.94
4.699,-4.6718,-1.7706,0.18845,0.24526,0.033903,-23.04,43.14,-12.12
4.9033,-5.1485,-1.7434,0.32101,-0.22388,-0.16554,-22.68,43.2,-12.42
4.7399,-6.0611,-1.866,0.40836,-0.58765,-0.26573,-22.2,43.38,-12.54
4.3177,-6.96,-1.9341,0.38943,-0.65057,-0.44318,-21.72,43.68,-13.08
4.413,-7.0826,-1.8524,0.33323,-0.50824,-0.5455,-21.54,43.8,-13.44
4.4402,-7.1371,-1.5663,0.31521,-0.4948,-0.62919,-21.36,43.74,-13.74
4.4811,-7.5048,-1.6072,0.3094,-0.61087,-0.65821,-21.18,43.86,-14.04
4.4811,-8.6081,-1.6072,0.27153,-0.75289,-0.71746,-20.82,43.74,-14.88
4.2768,-9.221,-1.5391,0.19548,-0.82436,-0.81367,-21.12,43.56,-15.42
3.732,-10.515,-1.0215,0.066279,-0.61881,-0.88117,-21.36,43.02,-16.14
3.514,-11.632,-0.8036,-0.0058032,-0.31521,-0.92027,-21.78,42.66,-16.62
3.514,-12.449,-0.64016,-0.03146,-0.16157,-0.93279,-22.2,42.18,-16.92
3.8409,-13.852,-0.31327,-0.084299,0.0956,-0.832,-22.62,41.76,-17.4
4.413,-17.42,-0.027241,-0.16127,0.11301,-0.56169,-23.58,40.8,-18.24
4.9578,-17.175,-0.027241,-0.27214,0.13561,-0.46823,-24.12,40.26,-18.78
4.4539,-14.342,0.095342,-0.33292,0.01069,-0.43738,-25.2,39.12,-19.56
3.8546,-13.797,0.095342,-0.31398,-0.03207,-0.37171,-25.74,38.64,-19.86
3.3915,-12.354,-0.14982,-0.23793,-0.010385,-0.36255,-26.34,38.04,-20.16
3.5685,-10.011,-0.29965,-0.10965,-0.0073304,-0.31643,-27.0,37.56,-20.46
3.9363,-8.145,-0.42223,0.018631,-0.061392,-0.14569,-27.72,37.26,-20.64
4.1406,-6.7966,-0.39499,0.13775,-0.33598,0.092241,-28.74,36.36,-20.76
3.9227,-6.4016,-0.44947,0.18387,-0.60781,0.15485,-29.34,36.06,-21.0
3.5958,-5.8159,-0.40861,0.2025,-0.71593,0.15974,-30.36,35.64,-21.36
3.4051,-5.4481,-0.31327,0.18815,-0.85979,0.10018,-30.9,35.64,-21.42
3.1872,-5.1894,-0.21793,0.098655,-0.81459,-0.086132,-31.86,35.52,-21.42
2.6832,-5.2575,-0.040861,0.057421,-0.74006,-0.16341,-32.46,35.46,-21.18
2.3018,-5.3119,0.01362,-0.061697,-0.46609,-0.32193,-33.6,35.34,-20.82
2.2337,-5.7614,0.10896,-0.19426,-0.10476,-0.46212,-34.56,35.22,-20.4
2.261,-6.7966,0.35413,-0.41203,0.50121,-0.57941,-35.22,35.16,-20.16
2.4517,-7.8317,0.36775,-0.55711,0.88056,-0.61453,-35.94,34.86,-20.4
2.833,-8.0632,0.14982,-0.6463,1.153,-0.63072,-36.54,34.5,-20.1
3.514,-8.2948,-0.6674,-0.65515,1.2471,-0.65668,-36.84,33.96,-20.16
3.8001,-8.7306,-1.076,-0.61087,1.1179,-0.65149,-37.02,33.66,-20.28
3.9771,-9.2074,-1.4029,-0.58582,0.85979,-0.64599,-36.96,33.06,-20.64
3.6639,-9.1937,-1.1577,-0.54031,0.5452,-0.61545,-36.9,32.52,-21.24
3.3097,-9.9565,-0.92618,-0.45968,0.31948,-0.26328,-36.48,32.04,-22.02
3.3778,-11.101,-0.76274,-0.40134,0.2529,0.2303,-36.3,31.62,-22.2
3.9227,-12.64,-0.77636,-0.3766,0.30635,0.83811,-35.94,31.14,-22.62
4.5764,-12.953,-1.0351,-0.29413,0.45662,1.4316,-35.46,30.9,-22.62
5.3664,-12.708,-1.58,-0.10324,0.56627,1.9807,-34.92,30.72,-22.92
5.993,-10.733,-2.5061,0.28863,0.42333,2.4777,-33.96,30.72,-23.82
5.9521,-9.7385,-2.8739,0.56291,-0.16738,2.4816,-33.3,30.9,-24.18
5.993,-9.9429,-2.9284,0.65515,-0.62461,2.4413,-32.58,31.14,-24.36
6.6331,-12.095,-2.6832,0.75259,-1.9499,2.2342,-30.96,31.5,-24.66
6.456,-12.095,-2.4108,0.60781,-2.3005,1.9676,-30.36,31.62,-24.84
5.7614,-11.114,-2.1384,0.35277,-1.9441,1.5754,-29.64,31.98,-25.02
4.5083,-9.0303,-1.4982,0.086437,-1.0119,1.1518,-28.74,32.28,-25.02
3.4459,-6.2245,-1.0215,-0.08094,0.41111,0.41386,-27.36,33.18,-24.9
3.2825,-5.0668,-1.3076,-0.073609,0.87659,0.0085521,-26.7,33.78,-24.96
3.4187,-4.9578,-1.4982,-0.056505,1.087,-0.28863,-25.98,34.26,-25.08
4.4811,-5.2438,-1.1305,-0.0012217,1.1075,-0.59101,-24.9,35.16,-25.26
4.7126,-5.3528,-1.0215,0.073304,0.95234,-0.87262,-24.36,35.58,-25.14
4.7399,-5.5843,-0.8036,0.18784,0.44227,-1.1493,-23.94,35.82,-24.96
4.413,-5.8159,-0.84446,0.37538,0.02138,-1.2694,-23.7,35.82,-25.08
4.1133,-6.0066,-1.0079,0.47434,-0.36316,-1.3671,-23.64,35.76,-25.14
3.9771,-6.2245,-1.1577,0.49297,-0.5058,-1.3986,-23.76,35.64,-25.2
3.9635,-6.4152,-1.1577,0.51221,-0.86101,-1.3772,-24.0,35.28,-25.08
3.732,-7.1643,-1.3757,0.45418,-0.98288,-1.2639,-24.48,34.26,-25.08
3.7047,-7.8045,-1.2667,0.27825,-0.94623,-1.0299,-24.9,33.66,-25.08
3.732,-8.9758,-1.1169,0.20953,-0.86529,-0.95509,-25.86,32.16,-25.38
3.6639,-10.052,-1.0624,-0.0054978,-0.50671,-0.7648,-26.46,31.14,-25.26
3.6094,-10.474,-1.1169,-0.10934,-0.22571,-0.72265,-27.12,30.3,-25.26
3.5413,-11.169,-1.2395,-0.17013,0.002138,-0.71166,-27.72,29.46,-25.26
3.7728,-12.217,-1.4029,-0.21075,0.094684,-0.67378,-28.56,28.5,-25.02
4.4811,-14.86,-1.4165,-0.2419,0.016188,-0.56413,-30.06,26.64,-24.72
4.6173,-16.004,-1.0624,-0.35339,-0.13439,-0.20953,-30.84,25.8,-24.54
4.9306,-16.753,-0.65378,-0.40989,-0.13286,-0.11637,-31.68,24.9,-24.24
4.3585,-15.255,0.01362,-0.54734,0.065057,0.067195,-33.06,23.34,-23.76
3.8954,-14.424,-0.040861,-0.54764,0.24526,0.18662,-33.78,22.68,-23.7
3.8954,-13.552,-0.19068,-0.49602,0.34147,0.23885,-34.44,22.2,-23.46
4.2495,-12.122,-0.72188,-0.39798,0.27947,0.33323,-35.46,21.48,-23.22
4.4675,-11.155,-0.7355,-0.28039,0.15485,0.55925,-36.06,21.12,-23.16
4.5083,-10.079,-0.50395,-0.24801,0.095906,0.67714,-36.48,21.06,-23.1
4.0452,-7.7636,-0.12258,-0.23121,0.050091,0.70585,-37.14,20.88,-22.98
3.8273,-6.8238,-0.19068,-0.20678,0.013439,0.66126,-37.32,20.82,-23.04
3.6775,-6.1836,-0.31327,-0.18021,-0.01405,0.55772,-37.38,21.06,-23.04
3.1872,-5.6388,-0.25879,-0.15516,-0.020464,0.34147,-37.8,21.54,-23.16
3.0101,-5.2302,-0.20431,-0.10782,-0.019242,0.16829,-37.8,21.84,-23.16
2.9556,-4.7263,-0.21793,-0.075442,-0.021686,0.039401,-37.8,22.26,-23.22
2.8603,-4.5492,-0.19068,-0.073304,-0.0082467,-0.049786,-37.98,23.04,-23.4
2.833,-4.8625,-0.14982,-0.10293,0.046426,-0.10599,-38.1,23.52,-23.28
2.7649,-5.1349,-0.027241,-0.1744,0.1854,-0.12004,-38.1,23.88,-23.28
2.656,-5.7342,0.14982,-0.27275,0.51954,-0.040317,-38.16,24.54,-23.22
2.7922,-5.993,0.21793,-0.43249,0.76602,0.037568,-37.98,24.78,-23.22
2.9011,-6.3743,0.40861,-0.47434,0.88178,0.082467,-37.86,24.9,-23.28
3.2961,-7.246,0.28603,-0.54153,1.16,0.18692,-37.38,25.32,-23.4
3.4732,-7.4231,0.14982,-0.5061,1.2055,0.20403,-37.2,25.44,-23.46
3.6094,-7.5457,0.10896,-0.42272,1.0812,0.22205,-37.2,25.38,-23.82
4.413,-9.7522,-0.50395,-0.31582,0.79138,0.30513,-36.6,25.32,-23.94
4.5356,-10.624,-0.47671,-0.17196,0.3708,0.51038,-36.3,25.26,-24.12
4.5628,-13.321,-0.49033,-0.12217,0.28711,0.59071,-35.76,25.2,-24.24
4.8352,-14.206,-0.69464,0.0088575,0.31154,0.83139,-34.8,24.96,-24.3
5.0668,-13.879,-1.1305,0.12584,0.41905,0.79901,-34.26,24.78,-24.48
4.8897,-13.253,-1.58,0.33414,0.4047,0.73395,-33.54,24.78,-24.6
5.6524,-13.266,-2.3291,0.52443,0.18204,0.79015,-32.22,24.78,-24.66
6.1292,-12.572,-2.3972,0.70372,-0.65607,0.72235,-31.62,24.66,-24.9
6.0202,-12.367,-2.4925,0.72876,-0.93982,0.73273,-31.02,24.66,-25.02
5.1213,-11.536,-2.4789,0.67378,-1.2007,0.67684,-30.66,24.66,-24.9
4.8216,-11.073,-2.2337,0.43005,-1.073,0.45754,-29.82,24.72,-24.54
4.3449,-10.379,-2.1929,0.24679,-0.72815,0.29169,-29.34,24.78,-24.24
3.514,-8.0224,-1.9886,0.085827,-0.20495,0.074526,-28.86,24.9,-23.82
3.3506,-7.3686,-1.975,-0.04215,0.50213,-0.26848,-28.62,24.9,-23.7
3.514,-6.1428,-1.7706,-0.044899,0.64813,-0.37202,-28.62,24.9,-23.4
3.7728,-5.9112,-1.7025,-0.06689,0.83902,-0.59743,-28.56,24.84,-23.1
3.8682,-5.6388,-1.5936,-0.073915,0.8097,-0.70097,-28.62,24.9,-22.98
3.9227,-5.2166,-1.4029,-0.040623,0.72632,-0.78405,-28.74,24.78,-22.86
3.732,-4.699,-1.3212,0.028711,0.562,-0.84177,-28.98,24.42,-22.68
3.6775,-4.7944,-1.2531,0.091324,0.34147,-0.87781,-29.22,24.36,-22.44
3.7047,-5.3664,-1.185,0.17349,0.007025,-0.86163,-29.46,24.06,-22.14
3.5413,-5.6661,-1.3484,0.18967,-0.27031,-0.77885,-29.58,23.88,-21.9
3.2416,-5.8159,-1.5391,0.17318,-0.49388,-0.65088,-29.94,23.58,-21.66
3.1599,-6.6059,-1.58,0.1295,-0.56963,-0.56536,-30.48,22.74,-21.36
2.9965,-7.246,-1.4165,0.039095,-0.52321,-0.46731,-30.78,22.14,-21.18
2.7377,-8.1858,-1.1169,-0.079718,-0.52137,-0.29993,-31.02,21.78,-20.94
2.8603,-9.5342,-0.96704,-0.28253,0.12309,-0.16952,-31.38,20.82,-20.34
3.2008,-9.8611,-0.64016,-0.40561,0.69242,-0.14844,-31.56,20.34,-20.04
3.514,-9.793,-0.49033,-0.42638,0.95997,-0.16707,-31.68,19.86,-19.62
3.9227,-10.379,-0.61292,-0.45173,0.95051,-0.10476,-32.1,19.02,-18.84
4.2768,-11.727,-0.6674,-0.49022,0.87232,-0.020159,-32.28,18.72,-18.48
4.4402,-13.511,-0.49033,-0.56688,0.76786,0.053756,-32.34,18.18,-18.0
4.5764,-17.461,0.92618,-0.77427,0.81062,0.43982,-32.76,17.58,-17.1
4.808,-16.889,1.362,-0.88637,1.1081,0.48075,-32.88,17.22,-16.86
4.5356,-15.132,1.2667,-0.88759,1.2355,0.45235,-32.82,16.92,-16.68
4.3177,-14.451,0.78998,-0.63927,1.3842,0.44929,-32.76,16.92,-16.5
4.5764,-13.443,0.29965,-0.37324,1.1081,0.36255,-32.58,16.98,-16.08
4.7671,-12.408,-0.23155,-0.091324,0.56169,0.34331,-32.46,17.04,-16.02
5.1076,-10.706,0.16344,0.10934,0.061087,0.49358,-31.92,17.22,-16.08
4.8352,-9.1937,0.38137,0.27886,-0.53726,0.64019,-31.74,17.46,-16.08
4.2359,-7.927,0.21793,0.32803,-0.76816,0.58857,-31.68,17.64,-16.2
3.732,-6.7829,-0.054481,0.36866,-0.88453,0.52321,-31.38,17.76,-16.14
3.4323,-5.2575,-0.27241,0.37996,-0.93401,0.44593,-31.02,18.12,-16.26
3.2825,-4.6309,-0.25879,0.36957,-0.95142,0.34361,-30.66,18.42,-16.14
3.2416,-4.127,-0.35413,0.34056,-0.90072,0.17104,-30.3,18.72,-16.02
2.9148,-4.2087,-0.095342,0.31887,-0.86163,0.12217,-29.88,19.08,-15.78
2.9148,-4.5083,0.095342,0.2248,-0.69608,-0.000305,-29.82,19.26,-15.66
2.942,-4.7399,0.19068,0.14325,-0.63286,-0.058338,-29.7,19.5,-15.42
3.1599,-5.7614,0.20431,0.030238,-0.6353,-0.067806,-29.4,19.74,-15.24
3.0918,-6.5241,0.24517,-0.13378,-0.49236,-0.040623,-29.4,19.92,-15.0
2.7786,-7.4776,0.29965,-0.27917,-0.15088,-0.000305,-29.46,20.28,-14.64
2.7922,-8.1858,0.34051,-0.42028,0.39981,0.06689,-29.34,20.52,-13.8
3.2144,-8.4855,0.14982,-0.52473,1.1616,0.11423,-29.28,20.7,-13.32
3.732,-8.4582,-0.1362,-0.53176,1.332,0.087354,-29.22,20.94,-12.96
4.4266,-9.0712,-0.35413,-0.49266,1.2312,0.077885,-29.04,21.48,-12.42
4.7263,-10.052,-0.38137,-0.42791,0.93187,0.12401,-29.22,21.6,-12.3
5.0395,-13.184,-0.31327,-0.34636,0.55955,0.25931,-29.04,21.84,-12.06
5.5026,-14.397,-0.7355,-0.26237,0.2978,0.43402,-28.74,22.08,-12.0
5.489,-13.579,-1.0079,-0.066279,0.15791,0.41203,-28.56,22.44,-11.7
5.2847,-12.926,-1.2803,0.17807,-0.043066,0.31979,-28.2,22.56,-11.58
5.8295,-13.593,-1.9068,0.43035,-0.44685,0.3766,-27.6,23.1,-11.16
5.9112,-12.354,-2.2201,0.58246,-0.9841,0.22419,-27.24,23.22,-10.92
5.4073,-12.19,-2.1929,0.66768,-1.3995,0.13408,-26.76,23.58,-10.62
4.7126,-12.122,-1.7706,0.49572,-1.2602,0.059865,-26.46,23.76,-10.44
4.2632,-11.291,-1.4982,0.28405,-0.87262,-0.089186,-26.28,23.88,-10.32
3.732,-9.9565,-1.362,0.12828,-0.36805,-0.21808,-26.1,23.94,-10.32
3.4868,-7.7364,-1.2803,0.037263,0.093768,-0.36774,-25.86,24.0,-9.96
3.6094,-6.96,-1.2395,0.02138,0.32681,-0.54978,-25.74,24.12,-9.72
3.7047,-6.3743,-1.3076,0.032681,0.35308,-0.73731,-25.5,24.24,-9.3
3.8546,-6.2517,-1.3348,0.092546,0.15821,-0.90042,-25.5,24.18,-9.06
3.6775,-5.6388,-1.0624,0.15363,-0.11576,-0.91141,-25.5,23.94,-9.06
3.7047,-5.3392,-0.98067,0.18967,-0.12675,-0.95387,-25.56,23.82,-8.88
3.337,-4.8625,-1.0896,0.27733,-0.48136,-0.91905,-25.74,23.64,-8.7
3.2144,-5.094,-1.0896,0.30085,-0.63469,-0.7984,-26.16,23.34,-8.64
3.2144,-5.775,-1.0896,0.33598,-0.85368,-0.6918,-26.22,22.98,-8.64
2.9965,-6.1428,-1.1169,0.30024,-1.0223,-0.41386,-26.46,22.68,-8.34
2.7377,-6.4969,-1.076,0.2584,-0.88973,-0.36621,-26.64,22.38,-8.16
3.3097,-7.5048,-0.6674,0.14905,-0.42486,-0.28588,-27.0,21.84,-7.8
3.7184,-7.7636,-0.57205,0.06353,-0.22724,-0.25381,-27.06,21.66,-7.74
3.8001,-8.0769,-0.49033,-0.015272,-0.13867,-0.219,-27.42,21.18,-7.5
3.6639,-8.826,-0.35413,-0.090103,-0.01741,-0.22297,-27.9,20.46,-7.14
3.7728,-9.398,-0.21793,-0.14294,0.024435,-0.23549,-28.26,20.16,-6.9
3.732,-9.5751,-0.28603,-0.16677,0.10415,-0.27428,-28.62,19.8,-6.36
3.8273,-9.6704,-0.28603,-0.1408,0.17226,-0.30696,-28.92,19.56,-6.12
3.9363,-9.9429,-0.35413,-0.052229,0.10812,-0.30818,-29.04,19.26,-5.76
4.0589,-10.624,-0.50395,0.0097738,-0.083994,-0.23121,-29.22,19.14,-5.52
4.5628,-13.076,-0.49033,0.002138,-0.29963,-0.021991,-29.64,18.9,-4.8
4.6173,-15.091,-0.10896,-0.1124,-0.40989,0.39034,-29.94,18.9,-4.62
4.7944,-14.724,0.25879,-0.18937,-0.3317,0.47495,-30.06,18.78,-4.5
4.3449,-13.702,0.44947,-0.33231,-0.083689,0.52046,-30.36,18.66,-4.08
4.1678,-13.729,0.40861,-0.36866,0.22449,0.68509,-30.54,18.66,-3.78
4.2495,-13.457,0.40861,-0.34239,0.30696,0.69761,-30.48,18.84,-3.6
4.9714,-12.381,-0.35413,-0.28161,0.24709,0.77549,-30.54,18.96,-3.18
5.1621,-11.305,-0.23155,-0.2025,0.10446,0.93554,-30.48,19.26,-3.12
5.094,-10.025,-0.23155,-0.17501,0.029016,0.93646,-30.54,19.5,-2.82
4.6037,-7.7364,-0.21793,-0.096517,-0.24587,0.88178,-30.3,19.98,-2.64
4.4266,-6.9872,-0.38137,-0.034208,-0.40561,0.80237,-30.18,20.34,-2.64
4.3449,-6.4424,-0.47671,0.000611,-0.53726,0.71929,-29.94,20.58,-2.34
4.1406,-5.3256,-0.43585,0.03146,-0.63683,0.60415,-29.4,21.36,-2.22
3.9771,-4.8352,-0.58567,0.029322,-0.67042,0.40623,-29.16,21.6,-2.1
3.6503,-4.2495,-0.89894,0.014966,-0.66584,0.3262,-28.62,22.14,-1.68
3.623,-4.2904,-0.89894,-0.14478,-0.49938,0.1011,-28.5,22.56,-1.44
3.514,-4.3858,-0.8036,-0.20769,-0.40256,0.036346,-28.2,22.92,-1.38
3.0646,-5.0531,-0.068102,-0.37904,-0.033598,-0.11301,-27.96,23.28,-0.78
3.0646,-5.7478,0.23155,-0.48717,0.30024,-0.1463,-27.72,23.52,-0.66
3.1872,-6.9191,0.61292,-0.62736,0.7871,-0.19517,-27.42,23.76,-0.12
3.3915,-7.3686,0.5993,-0.65912,1.0027,-0.22144,-27.54,23.94,0.18
3.6775,-8.0224,0.54481,-0.6689,1.0757,-0.21869,-27.54,23.94,0.42
4.1133,-8.6762,0.31327,-0.57452,1.0748,-0.27031,-27.48,24.0,0.54
4.699,-9.8203,-0.16344,-0.46548,0.8882,-0.3146,-27.72,24.18,1.02
4.7399,-10.542,-0.28603,-0.34208,0.59956,-0.35552,-27.9,24.06,1.2
4.6173,-12.299,-0.29965,-0.15608,0.21777,-0.32773,-28.32,24.18,1.14
4.7671,-12.871,-0.38137,-0.086132,0.13347,-0.28497,-28.56,24.3,1.2
4.9306,-13.198,-0.64016,0.12339,-0.027794,-0.15363,-28.74,24.3,1.26
4.9987,-12.871,-1.0079,0.29841,-0.13714,-0.17959,-29.1,24.3,1.38
4.7399,-13.348,-1.3893,0.51649,-0.3427,-0.13928,-29.46,24.48,1.26
5.2166,-13.13,-1.8115,0.66859,-0.57513,-0.013744,-29.76,24.48,1.26
5.0123,-12.272,-2.0022,0.80879,-1.0372,0.040012,-30.0,24.48,0.9
4.7126,-12.136,-2.0294,0.80298,-1.0647,0.15241,-30.0,24.42,0.84
4.5764,-11.673,-1.8524,0.72052,-0.88973,0.18876,-30.12,24.48,0.78
4.4947,-10.951,-1.9068,0.67898,-0.79199,0.19823,-30.18,24.3,0.78
4.3177,-10.379,-2.0158,0.50519,-0.36835,0.19303,-30.18,24.36,0.72
4.0589,-8.4446,-2.0294,0.38851,-0.053145,0.065973,-29.82,24.3,0.66
3.8273,-7.3822,-1.9613,0.31826,0.1741,-0.093462,-29.64,24.36,0.72
3.8546,-6.2381,-1.8115,0.28466,0.25901,-0.22541,-29.16,24.24,0.78
3.9635,-5.775,-1.6481,0.28619,0.19364,-0.29627,-28.98,24.18,0.72
4.0452,-5.6116,-1.5663,0.2868,0.047647,-0.32987,-28.5,24.12,0.54
3.9908,-4.9033,-1.5119,0.30482,-0.22846,-0.32559,-27.9,23.88,0.6
3.8682,-4.7807,-1.4165,0.32865,-0.40409,-0.30665,-27.48,23.82,0.72
3.6775,-4.9306,-1.6617,0.32193,-0.53512,-0.25992,-27.24,23.7,0.78
3.6775,-5.7478,-1.8387,0.27245,-0.8601,-0.14539,-26.64,23.52,0.9
3.5277,-6.0883,-1.6753,0.24557,-1.1142,-0.051007,-26.28,23.34,1.02
3.3915,-6.3198,-1.6208,0.208,-1.3775,0.025656,-26.04,23.28,1.08
2.3427,-6.4424,-1.6072,0.16921,-1.3421,0.10201,-25.62,23.1,1.38
2.3563,-6.8919,-1.5936,0.13011,-0.87293,0.03146,-25.5,22.92,1.44
2.9556,-7.8589,-1.5255,0.031154,-0.25473,-0.053451,-25.14,22.86,1.62
4.0589,-9.0167,-1.0215,-0.089797,0.11118,-0.19517,-24.6,22.86,2.22
3.8954,-9.4525,-0.57205,-0.26664,0.20769,-0.26756,-24.24,22.8,2.52
3.8273,-9.6432,-0.42223,-0.36682,0.29596,-0.41325,-24.0,22.74,2.94
3.514,-9.9565,-0.46309,-0.40012,0.32987,-0.5226,-23.7,22.74,3.66
3.4323,-10.351,-0.55843,-0.40409,0.37202,-0.61484,-23.58,22.8,3.9
3.5413,-11.223,-0.70826,-0.39401,0.40073,-0.65301,-23.4,22.8,4.32
3.909,-14.574,-0.14982,-0.43188,0.35766,-0.45845,-23.28,22.8,5.22
4.1406,-15.99,0.054481,-0.56413,0.39492,-0.16677,-23.22,22.68,5.52
4.5356,-16.603,0.36775,-0.63988,0.4725,-0.071471,-23.34,22.74,5.94
3.8682,-14.901,0.88532,-0.73334,0.81337,0.19548,-23.04,22.62,6.54
3.8818,-14.574,0.64016,-0.69455,1.0522,0.4444,-22.92,22.62,6.9
4.2223,-13.253,0.23155,-0.59284,1.0968,0.61087,-22.8,22.68,7.2
4.9578,-11.509,-0.21793,-0.4163,0.91019,0.82986,-22.74,22.62,7.56
5.203,-10.869,-0.28603,-0.20311,0.42608,1.2642,-22.62,22.62,7.74
5.3392,-9.5751,-0.12258,-0.095906,0.054062,1.4316,-22.74,22.8,7.86
4.8488,-7.8589,-0.31327,-0.0048869,-0.26481,1.4829,-21.9,22.92,7.92
4.7126,-6.5786,-0.55843,0.073304,-0.47098,1.4432,-21.72,22.92,7.92
4.6718,-5.7069,-0.7355,0.13653,-0.63561,1.3399,-21.24,23.1,7.98
4.3858,-5.0395,-0.83084,0.15791,-0.78099,1.1805,-20.28,23.52,7.62
4.1406,-5.0395,-0.99429,0.10629,-0.83811,0.85155,-19.74,23.94,7.56
3.8409,-4.8897,-0.91256,0.075442,-0.79779,0.7141,-19.2,24.24,7.44
3.4732,-4.9442,-0.57205,-0.091935,-0.40256,0.30207,-18.06,24.72,7.26
3.4323,-5.2166,-0.39499,-0.22052,-0.039401,0.025962,-17.46,25.14,7.32
3.228,-5.598,-0.31327,-0.34972,0.30055,-0.26573,-16.74,25.38,7.26
2.8058,-6.4833,0.054481,-0.49266,0.66157,-0.57055,-15.72,25.98,7.08
2.5742,-6.8374,0.44947,-0.67684,1.3454,-0.96914,-15.12,26.28,7.08
2.5742,-6.9328,0.57205,-0.76328,1.8066,-1.1432,-14.64,26.52,7.2
2.833,-7.1098,0.54481,-0.78038,1.9997,-1.1942,-14.58,26.82,7.26
3.6094,-7.6002,0.23155,-0.81825,2.2752,-1.2584,-14.16,27.24,7.26
3.9908,-7.5729,0.068102,-0.75533,2.1719,-1.2721,-14.16,27.42,7.26
4.0725,-8.1041,-0.23155,-0.67317,1.8583,-1.2129,-14.28,27.72,7.26
4.1814,-9.9292,-0.38137,-0.58735,1.4493,-1.0137,-14.76,27.78,7.08
4.2904,-11.713,-0.35413,-0.43677,0.92546,-0.44532,-14.82,28.02,7.14
4.522,-12.408,-0.44947,-0.31948,0.76969,0.0079412,-15.0,28.14,7.02
4.7944,-13.62,-1.58,-0.16371,0.86468,0.37751,-15.78,28.26,6.48
5.2711,-15.214,-2.0839,0.027489,1.0015,0.93859,-16.44,28.38,6.24
6.0747,-15.119,-2.5334,0.21014,1.0858,1.3482,-16.74,28.5,6.0
6.2654,-12.844,-3.1599,0.39981,0.77397,1.4881,-17.22,28.98,5.1
6.4697,-12.122,-3.1463,0.49602,-0.015577,1.6115,-17.34,29.28,4.56
6.3062,-11.25,-2.8875,0.47953,-0.32345,1.5375,-17.28,29.4,3.96
5.5162,-10.093,-2.3836,0.35339,-1.0122,1.2727,-17.28,30.24,3.12
5.2847,-9.4661,-2.0158,0.22877,-1.1136,1.1231,-17.04,30.48,2.58
4.8761,-8.5672,-1.58,0.11209,-0.96883,0.89186,-16.62,30.84,2.16
4.0316,-7.1234,-1.5255,0.01069,-0.47281,0.48411,-15.54,31.74,1.5
3.8954,-6.1836,-1.6617,0.0061087,-0.10568,0.23427,-15.06,31.98,1.02
3.8682,-5.884,-1.7706,0.010996,0.1854,0.039706,-14.7,32.28,0.66
4.0861,-5.2166,-1.9205,0.023518,0.34972,-0.12034,-13.56,33.18,0.06
4.1542,-4.8625,-1.8796,0.043677,0.41233,-0.29474,-12.84,33.48,-0.3
4.2359,-4.7263,-1.8387,0.087659,0.38546,-0.45907,-12.18,33.66,-0.54
4.2087,-4.9033,-1.471,0.13011,0.26695,-0.60018,-11.16,34.08,-0.66
4.2087,-5.4209,-1.4165,0.1631,0.01069,-0.60842,-10.74,34.32,-0.9
4.1133,-5.993,-1.4982,0.10537,-0.091935,-0.55161,-10.56,34.56,-1.02
4.127,-6.7829,-1.471,0.10537,-0.091935,-0.55161,-10.26,34.68,-1.14
4.0452,-7.8317,-1.2258,-0.16463,0.051924,-0.44715,-9.54,35.1,-1.2
3.9227,-8.1995,-1.1441,-0.22969,0.15333,-0.44685,-9.3,35.16,-1.32
3.7865,-8.7306,-1.0488,-0.34361,0.41508,-0.46212,-9.3,35.28,-1.44
3.5685,-8.9349,-0.8036,-0.43097,0.72571,-0.53145,-9.18,35.7,-1.68
3.5822,-9.1665,-0.72188,-0.45601,1.0153,-0.59498,-9.06,35.88,-1.62
4.1814,-9.9429,-0.62654,-0.44929,1.2031,-0.5959,-8.88,36.24,-1.68
4.2223,-10.283,-0.51757,-0.41814,1.2013,-0.58429,-9.0,36.48,-1.68
4.3858,-11.101,-0.61292,-0.38332,1.1231,-0.48472,-9.06,36.78,-1.86
4.6718,-14.097,-0.17706,-0.35522,0.97769,-0.29871,-9.24,37.44,-2.04
4.8352,-16.644,-0.23155,-0.36194,0.82894,0.011301,-9.36,37.62,-2.22
5.38,-17.516,-0.1362,-0.40256,0.7929,0.22388,-9.3,37.98,-2.22
5.6524,-14.342,-0.54481,-0.39187,0.66829,0.30329,-9.36,38.52,-2.34
5.203,-14.056,-0.6674,-0.30116,0.4499,0.37996,-9.42,38.76,-2.46
4.3994,-13.321,-0.91256,-0.21625,0.24038,0.24801,-9.18,39.36,-2.88
4.2768,-12.858,-1.0624,-0.13806,0.085521,0.087354,-8.94,39.42,-3.06
4.3313,-12.354,-1.1032,-0.13286,0.12126,0.012523,-8.76,39.6,-3.18
4.0589,-10.392,-0.95342,-0.25137,0.27397,-0.055894,-8.34,39.9,-3.84
3.7047,-9.1665,-0.83084,-0.36652,0.50427,-0.12737,-8.1,40.08,-4.2
3.3097,-8.0905,-1.0351,-0.46731,0.79199,-0.22022,-7.8,40.14,-4.56
3.0101,-6.9872,-0.8717,-0.56169,1.0592,-0.33567,-7.5,40.02,-5.4
3.051,-6.7012,-0.76274,-0.65546,1.2419,-0.46578,-7.2,39.9,-5.82
2.8194,-5.7886,-0.47671,-0.74067,1.3741,-0.58429,-6.72,39.6,-6.6
2.8739,-5.4481,-0.34051,-0.85155,1.5183,-0.73243,-6.6,39.36,-7.08
2.8467,-5.4481,-0.29965,-0.89095,1.547,-0.75992,-6.66,39.18,-7.56
2.8058,-5.7478,-0.054481,-0.93768,1.5681,-0.71135,-6.6,39.12,-8.22
2.8739,-6.5786,-0.040861,-1.0003,1.5656,-0.57208,-6.78,38.76,-8.94
3.0237,-7.1234,-0.095342,-1.0721,1.5336,-0.33048,-7.02,38.76,-9.3
3.4732,-7.8589,-0.24517,-1.1585,1.5259,-0.023518,-7.38,38.64,-9.72
3.7865,-10.774,-0.054481,-1.237,1.5782,0.32651,-7.98,38.82,-10.38
4.5628,-13.021,0.1362,-1.4465,1.8143,1.12,-8.04,38.76,-10.62
4.9033,-13.961,0.19068,-1.5156,2.0867,1.3558,-8.22,38.94,-10.8
5.3528,-13.362,-0.027241,-1.5085,2.3323,1.4633,-8.16,39.24,-10.98
5.8295,-12.313,-0.58567,-1.3592,2.4074,1.4554,-7.98,39.54,-11.1
6.3198,-11.087,-2.1929,-0.9279,1.7226,1.1383,-7.44,40.08,-10.92
6.5922,-9.8611,-2.5606,-0.77885,1.3002,0.98685,-7.08,40.56,-10.8
5.7614,-10.774,-2.3291,-0.562,0.44899,0.67287,-7.08,40.56,-10.8
4.9714,-11.591,-1.8932,-0.50702,-0.054978,0.15027,-6.0,41.28,-10.38
3.9635,-11.741,-1.2258,-0.63438,0.28772,-0.16829,-5.64,41.58,-10.14
2.9148,-9.8203,-0.8717,-0.79412,0.97464,-0.37293,-4.62,42.3,-9.84
3.0373,-8.9349,-0.72188,-0.88942,1.6622,-0.43555,-4.14,42.6,-9.54
3.4459,-7.0145,-0.9398,-0.91996,2.084,-0.41875,-3.72,42.9,-9.24
3.5958,-6.1973,-1.0351,-0.90591,2.215,-0.36499,-3.0,43.32,-8.76
3.8409,-5.6661,-1.185,-0.85888,2.0675,-0.30085,-2.58,43.5,-8.46
3.9635,-5.2575,-1.1032,-0.77916,1.5394,-0.12553,-2.22,43.68,-8.04
3.5413,-5.1894,-1.0351,-0.73426,1.2471,0.030543,-2.1,44.22,-7.5
3.2553,-5.2711,-0.98067,-0.6805,1.1124,0.25504,-2.1,44.28,-7.26
3.1872,-5.4481,-1.1577,-0.64355,1.073,0.3262,-1.92,44.58,-7.14
3.4732,-6.0474,-1.2531,-0.59651,1.1041,0.4725,-1.92,44.64,-6.84
3.6503,-6.4969,-1.2258,-0.55833,1.1548,0.62889,-1.98,44.76,-6.6
3.7047,-6.5786,-1.185,-0.48442,1.226,0.87659,-1.92,45.0,-6.48
3.9908,-7.246,-1.0215,-0.39126,1.2456,1.0128,-1.68,45.12,-6.06
4.1814,-7.4912,-1.3212,-0.2529,1.1463,1.1142,-1.32,45.42,-5.88
4.522,-8.0632,-1.9341,-0.20556,1.0919,1.1099,-0.9,45.6,-5.82
4.9033,-8.8532,-2.1656,-0.067501,0.9896,1.1234,-0.06,45.9,-5.34
4.9714,-8.8396,-2.1656,-0.036346,0.96853,1.0919,0.36,46.08,-5.34
4.8488,-8.5672,-2.1248,0.054978,0.94165,0.94867,0.9,46.2,-5.22
4.5628,-8.7579,-1.8115,0.087048,0.95112,0.86071,2.28,46.32,-5.04
4.6037,-9.6023,-1.7979,0.096211,1.0012,0.79657,3.0,46.62,-5.1
5.3664,-13.552,-2.0294,0.049175,1.0278,0.86132,3.54,46.68,-5.1
5.8431,-13.974,-1.3757,-0.069944,1.1206,1.0073,4.98,46.86,-5.04
5.2983,-11.387,-0.8717,-0.21625,1.3897,0.88789,5.7,46.98,-4.98
4.9578,-9.5479,-0.77636,-0.21502,1.8393,0.48136,6.48,46.98,-4.98
4.6445,-7.3141,-1.6753,-0.061392,1.741,0.19609,8.16,47.28,-4.92
4.8216,-7.7364,-1.9613,0.098655,1.2636,-0.044288,8.7,47.28,-4.98
5.4073,-8.8805,-1.9613,0.25351,0.30971,-0.14905,9.3,47.22,-4.92
5.8704,-10.42,-1.4165,0.21869,-0.19639,-0.10415,10.5,47.46,-5.04
5.4481,-11.141,-1.1169,0.062308,-0.32345,-0.10293,10.92,47.52,-5.04
4.699,-11.536,-0.77636,-0.15913,-0.04215,-0.2022,11.28,47.46,-5.34
3.909,-11.645,-0.58567,-0.35064,0.51374,-0.32315,11.4,47.46,-5.46
3.3506,-10.774,-0.54481,-0.49847,1.1344,-0.49602,11.76,47.4,-5.28
3.5413,-10.065,-0.6674,-0.55497,1.7147,-0.79779,11.88,47.34,-5.4
4.018,-8.9213,-0.76274,-0.53298,1.7798,-0.86499,11.94,47.52,-5.28
4.2495,-8.5944,-0.7355,-0.39706,1.5394,-1.0232,11.76,47.46,-5.34
4.3721,-8.4719,-0.76274,-0.3204,1.1362,-1.0495,11.58,47.52,-5.28
4.1814,-8.4446,-0.65378,-0.28711,0.75198,-0.99815,10.8,47.28,-5.16
3.8409,-8.4855,-0.64016,-0.31368,0.53573,-0.94134,10.5,47.22,-5.1
3.5413,-8.2812,-0.64016,-0.37935,0.44043,-0.89736,10.02,47.22,-4.98
2.9829,-7.5457,-0.5993,-0.46181,0.49602,-0.85185,8.7,46.86,-4.68
2.8603,-7.2324,-0.64016,-0.56444,0.72968,-0.7141,8.1,46.86,-4.5
2.9011,-6.9736,-0.65378,-0.61484,0.87629,-0.55955,7.38,46.8,-4.2
3.3097,-7.0009,-0.84446,-0.67226,0.94867,-0.35186,5.82,46.68,-3.9
3.6094,-7.246,-0.84446,-0.71777,0.93462,-0.13989,5.04,46.68,-3.9
4.127,-7.641,-1.076,-0.76877,0.89828,0.025962,4.32,46.68,-3.6
4.3177,-8.322,-1.1305,-0.83505,0.81276,0.20586,2.88,46.38,-3.0
4.6854,-9.8611,-1.2531,-0.89003,0.77122,0.35003,2.52,46.32,-2.82
4.8761,-10.406,-1.2939,-0.94684,0.78741,0.39859,2.04,46.38,-2.64
5.2166,-12.912,-1.6753,-0.98471,0.80543,0.49236,1.08,46.32,-2.28
5.8431,-14.288,-1.7843,-1.0544,0.91019,0.61484,0.66,46.32,-2.04
6.1836,-14.315,-1.8796,-1.1102,1.0397,0.52626,0.48,46.38,-1.92
5.5571,-11.673,-2.1929,-1.088,1.1426,0.27397,0.12,46.56,-1.5
5.3256,-10.896,-2.2746,-1.0372,1.1985,0.0073304,-0.18,46.62,-1.26
5.0668,-10.215,-2.2882,-0.8937,0.98166,-0.50457,-0.36,46.74,-0.84
4.6445,-9.8066,-2.3155,-0.80848,0.81978,-0.74953,-0.48,46.98,-0.18
4.5628,-9.793,-2.1248,-0.79015,0.77061,-0.87415,-0.78,46.92,0.24
3.9227,-8.6353,-1.866,-0.81612,0.78802,-0.95997,-1.14,47.1,0.66
3.8001,-7.8998,-1.9886,-0.89736,0.7645,-0.99266,-2.1,47.4,1.14
3.3234,-6.7829,-2.2746,-0.93523,0.67226,-0.93523,-2.82,47.34,1.44
2.9284,-6.1836,-2.3427,-0.94134,0.68783,-0.88117,-3.48,47.22,1.86
2.9556,-5.598,-2.2201,-0.92027,0.92393,-0.7703,-4.26,47.16,2.1
3.623,-5.5026,-2.0839,-0.87201,1.138,-0.63988,-6.12,47.1,2.76
4.2223,-5.38,-2.0294,-0.81948,1.2184,-0.5116,-7.2,47.04,3.06
4.9306,-5.3392,-2.1112,-0.73243,1.1994,-0.36805,-9.18,46.68,3.66
5.7069,-5.5707,-2.1248,-0.55894,0.79932,-0.12095,-10.08,46.56,3.9
6.1836,-5.7342,-2.1248,-0.50335,0.56688,-0.043982,-11.1,46.2,3.96
6.2245,-5.775,-2.0294,-0.28894,-0.1182,0.14936,-12.06,46.02,4.08
5.8023,-6.2245,-2.4108,-0.1295,-0.37477,0.22144,-13.98,45.66,4.38
5.6388,-6.2926,-2.5334,0.022602,-0.39034,0.28191,-14.82,45.24,4.38
5.3937,-6.2109,-2.6696,0.15974,-0.22816,0.28527,-15.6,45.12,4.38
5.4209,-6.1155,-2.6696,0.33139,0.022907,0.2642,-16.86,45.0,4.02
5.5435,-6.3607,-2.6015,0.36377,0.040317,0.25076,-17.58,45.0,3.84
5.7614,-6.4833,-2.4789,0.40561,-0.041233,0.22846,-18.0,44.82,3.54
6.2926,-6.7966,-2.4925,0.40195,-0.16493,0.17349,-19.08,44.88,2.7
6.2109,-6.8919,-2.5606,0.36469,-0.25534,0.11698,-19.68,44.82,2.22
5.993,-7.0962,-2.5606,0.29077,-0.18754,0.046426,-20.34,44.88,1.74
5.8976,-7.7091,-2.261,0.26206,-0.11118,0.022602,-21.78,44.76,0.54
6.17,-9.0575,-2.2065,0.22358,0.0058032,0.064752,-22.62,44.88,-0.12
6.7966,-10.188,-2.0839,0.10263,0.080634,0.48869,-23.58,44.82,-0.84
7.7908,-11.373,-2.2746,-0.038179,0.13256,0.55131,-25.74,44.82,-2.34
7.5048,-10.283,-2.3291,-0.19548,0.2697,0.33842,-26.94,44.88,-3.18
5.4754,-7.7091,-1.58,-0.080023,0.43891,0.17623,-29.64,44.58,-4.56
4.985,-7.246,-1.0624,0.16341,0.40806,-0.10171,-31.14,44.34,-4.92
5.4754,-7.7636,-0.61292,0.3204,0.070555,-0.097128,-32.64,44.04,-5.4
6.17,-8.2812,-0.31327,0.45173,-0.38057,0.02138,-34.2,43.8,-5.58
6.5105,-9.3163,0.040861,0.46426,-0.78343,0.16707,-37.38,42.84,-5.76
6.0611,-9.5751,0.21793,0.38607,-0.93707,0.26664,-38.82,42.3,-5.46
5.2847,-9.4389,0.10896,0.20861,-0.70524,0.27611,-40.14,41.82,-5.1
4.1814,-8.7034,0.054481,0.081245,-0.28222,0.20189,-42.36,41.04,-3.78
4.018,-8.2539,0.16344,-0.010385,0.1854,0.079412,-43.26,40.68,-3.0
4.1406,-7.8998,0.10896,-0.072082,0.50732,0.0012217,-43.86,40.26,-1.86
4.8897,-7.6274,-0.20431,-0.083078,0.63438,-0.0030543,-44.58,39.24,0.24
5.1757,-7.5729,-0.38137,-0.08827,0.56688,0.034819,-44.76,38.76,1.44
5.3664,-7.7636,-0.40861,-0.075442,0.354,0.067501,-44.88,38.22,2.7
5.1213,-7.9134,-0.54481,-0.062614,0.057421,0.079107,-44.22,37.32,4.98
4.7535,-7.6274,-0.5993,-0.070555,0.021991,0.025656,-43.74,36.96,6.12
4.5901,-7.3005,-0.7355,-0.089492,0.046426,-0.031765,-43.08,36.6,7.32
4.6037,-6.7693,-1.0896,-0.10629,0.072693,-0.09163,-41.58,35.94,9.36
4.5901,-6.3879,-1.3348,-0.15211,0.048869,-0.13073,-40.8,35.82,10.14
4.6309,-6.0202,-1.3212,-0.22052,0.028405,-0.16799,-40.02,35.52,10.92
4.6445,-6.0474,-1.2939,-0.34147,0.081245,-0.21441,-38.58,34.86,12.18
4.8625,-6.4288,-1.2395,-0.39676,0.11973,-0.21075,-37.8,34.38,12.78
4.8897,-6.4697,-1.1713,-0.52809,0.25473,-0.19884,-37.14,34.14,13.32
4.9033,-5.993,-1.2939,-0.59468,0.37477,-0.2248,-35.82,33.18,14.46
4.9306,-5.7478,-1.1986,-0.64171,0.5174,-0.27978,-35.1,32.82,14.94
5.1485,-5.7342,-1.5119,-0.69455,0.60201,-0.33384,-33.9,31.92,16.08
5.8704,-6.1836,-1.6617,-0.70158,0.50519,-0.32254,-33.3,31.62,16.56
5.9249,-6.0338,-1.8387,-0.68722,0.44868,-0.31857,-32.58,31.02,16.92
6.0338,-6.1019,-1.8796,-0.70372,0.41905,-0.34056,-32.04,30.54,17.34
6.3879,-6.8102,-1.9477,-0.72846,0.48319,-0.3879,-30.6,29.34,18.18
6.674,-7.7227,-1.9205,-0.72937,0.56658,-0.30421,-29.88,28.86,18.72
7.0826,-8.7306,-1.5255,-0.74739,0.71716,-0.1854,-28.92,28.32,19.14
7.0145,-9.8475,-1.2667,-0.80084,1.3488,-0.016799,-26.88,27.36,19.92
8.4719,-10.215,-1.5527,-0.86804,1.7364,-0.054367,-25.86,27.0,20.1
10.338,-9.9973,-1.8387,-0.80176,1.7236,-0.36377,-24.96,26.64,20.22
9.8748,-11.155,-1.2939,-0.56658,1.004,-0.022907,-22.8,26.16,20.46
9.6296,-10.992,-1.0896,-0.35736,0.45571,0.095295,-21.9,25.74,20.7
9.0848,-10.147,-0.96704,-0.12706,-0.23854,0.077274,-20.82,25.5,20.88
8.2812,-10.42,-0.7355,0.13317,-0.85949,0.30146,-18.72,25.2,20.88
7.5184,-9.507,-0.76274,0.20128,-0.97097,0.29566,-17.82,25.26,21.12
6.7693,-8.3765,-0.8717,0.34056,-1.0507,0.23702,-16.74,25.32,21.06
6.1564,-7.4776,-0.98067,0.49786,-0.8265,0.12278,-15.9,25.5,21.06
5.0123,-5.8295,-0.76274,0.5455,-0.54825,-0.030849,-14.22,25.98,20.88
4.6445,-5.0668,-0.57205,0.57971,-0.37996,-0.2251,-13.68,26.4,20.58
4.3177,-3.8273,-0.50395,0.62156,-0.35491,-0.32987,-13.32,26.76,20.46
4.2223,-3.4596,-0.6674,0.71899,-0.52107,-0.43035,-12.48,27.3,19.98
4.1678,-3.3097,-0.81722,0.79412,-0.69944,-0.44227,-12.06,27.6,19.68
4.1678,-3.4187,-1.1169,0.83994,-0.86071,-0.39462,-11.76,28.02,19.38
4.3721,-4.1542,-1.5119,0.86804,-1.0195,-0.30146,-11.46,28.86,18.24
4.6037,-4.4675,-1.6481,0.86437,-1.1316,-0.23152,-11.28,29.22,17.76
4.6445,-4.5356,-1.6617,0.84299,-1.1658,-0.1857,-11.22,29.52,17.22
4.8216,-5.3119,-1.757,0.79687,-1.2117,-0.1011,-10.92,30.3,15.72
5.1213,-5.9249,-1.8115,0.75686,-1.1854,-0.033292,-10.92,30.66,15.06
5.2711,-6.279,-1.6753,0.6805,-1.1075,-0.018631,-10.74,31.08,14.4
5.5026,-6.5105,-1.7706,0.6295,-0.95203,-0.071471,-10.68,31.44,13.68
5.993,-6.8919,-1.6753,0.59162,-0.81856,-0.16799,-10.44,31.92,12.12
6.2245,-7.6274,-1.6072,0.58399,-0.75992,-0.27336,-10.14,32.4,11.16
6.8647,-9.6841,-1.2395,0.59834,-0.79474,-0.2642,-9.48,33.3,9.66
7.7227,-11.931,-1.1577,0.5733,-0.8152,-0.057116,-9.06,33.78,9.12
