Ax,Ay,Az,Gx,Gy,Gz,Mx,My,Mz
2.3836,-9.7385,-0.50395,-0.43158,-0.24251,-0.146,22.02,36.36,7.92
1.9477,-9.9156,-0.44947,-0.46151,-0.22327,-0.20556,21.96,36.42,8.1
1.7706,-9.507,-0.39499,-0.50824,-0.032681,-0.33903,21.9,36.54,8.28
2.0158,-9.3572,-0.43585,-0.52962,0.19364,-0.43524,21.72,36.9,8.58
2.4517,-9.4253,-0.72188,-0.47495,0.35736,-0.49144,21.6,37.2,8.88
2.6423,-9.3708,-0.83084,-0.39309,0.37415,-0.49572,21.48,37.26,8.94
2.833,-8.7306,-0.7355,-0.31093,0.14142,-0.47495,21.24,37.38,9.06
2.6423,-8.145,-0.81722,-0.28222,-0.036346,-0.48258,20.58,37.32,9.24
2.3972,-7.5729,-0.78998,-0.25687,-0.14844,-0.47953,20.34,37.5,9.24
2.4108,-7.4231,-0.77636,-0.21044,-0.18143,-0.46395,20.1,37.5,9.3
2.2474,-7.0553,-0.91256,-0.12339,-0.24068,-0.44288,19.68,37.56,9.3
2.3291,-6.96,-0.85808,-0.0281,-0.29688,-0.41783,19.44,37.74,9.42
2.3155,-6.8374,-0.91256,0.000611,-0.33659,-0.40653,18.84,37.8,9.42
2.4108,-6.7693,-0.92618,0.089492,-0.47006,-0.36713,18.6,37.8,9.36
2.3836,-6.7148,-1.0624,0.14416,-0.56719,-0.35308,17.94,37.8,9.06
2.3155,-6.0883,-1.1577,0.20464,-0.64507,-0.37049,17.46,37.74,8.82
2.2474,-5.8976,-1.2122,0.25015,-0.69211,-0.42761,17.1,37.74,8.7
2.2474,-6.2654,-1.3484,0.26786,-0.72296,-0.48717,16.56,37.56,8.34
2.261,-7.3141,-1.3076,0.24862,-0.7309,-0.50121,15.6,37.56,7.92
2.2882,-7.7636,-1.1986,0.21838,-0.66462,-0.49419,15.36,37.5,7.62
1.9205,-7.8998,-1.0215,0.15821,-0.47037,-0.49419,14.82,37.5,7.2
1.9341,-7.927,-0.78998,0.10751,-0.2251,-0.48167,14.16,37.26,6.66
2.1384,-7.927,-0.76274,0.072388,0.022297,-0.43127,13.5,37.08,5.88
2.3972,-7.7364,-0.69464,0.065973,0.22755,-0.30635,13.2,37.14,5.58
2.3836,-7.3686,-0.54481,0.087659,0.25443,-0.22877,12.72,37.02,5.16
2.5334,-7.0417,-0.39499,0.15058,0.24984,-0.16707,12.06,36.78,4.44
2.7377,-6.6467,-0.43585,0.19914,0.18631,-0.13103,11.64,36.78,3.66
2.7649,-7.2869,-0.57205,0.23885,0.090713,-0.10171,11.46,36.3,3.18
2.8603,-8.1313,-0.49033,0.25809,0.016188,-0.061697,11.34,36.12,2.88
3.2689,-11.141,-0.36775,0.21655,-0.0073304,-0.0036652,11.04,35.58,2.22
3.4459,-13.947,-0.20431,0.068111,0.085827,0.046731,10.8,35.16,1.68
3.6366,-15.636,0.14982,-0.10629,0.25504,0.040623,10.74,34.86,1.5
3.514,-17.257,0.61292,-0.32254,0.47647,-0.13347,10.56,34.08,0.96
3.5413,-18.932,1.3484,-0.5904,0.74862,-0.22205,10.44,33.72,0.72
3.6094,-17.502,1.8251,-0.75167,1.1057,-0.28772,10.44,33.06,0.36
2.7377,-12.667,1.471,-0.7813,1.3922,-0.46578,10.32,32.52,0.06
2.2201,-8.7306,1.185,-0.61728,1.7208,-0.78985,10.32,32.04,-0.06
2.3836,-8.2948,0.96704,-0.39248,1.7382,-0.87201,10.08,32.04,-0.06
2.7241,-8.1177,0.72188,-0.16035,1.5195,-0.77152,9.66,31.62,0.06
2.9148,-7.2733,0.61292,0.040317,1.1716,-0.47678,9.48,31.38,0.3
2.9692,-6.6331,0.49033,0.14142,0.78771,-0.099876,9.3,31.2,0.36
2.7786,-4.8625,0.32689,0.18448,0.34575,0.19181,9.0,31.26,0.78
2.438,-4.3177,0.12258,0.19181,-0.3094,0.51618,8.76,31.2,1.2
2.3836,-4.3994,-0.10896,0.19151,-0.56566,0.71868,8.82,31.26,1.38
2.8058,-5.3256,-0.32689,0.19517,-0.68753,0.94012,8.76,31.2,1.56
3.5004,-6.7966,-0.24517,0.17135,-0.76236,1.1881,9.0,31.2,1.8
3.7592,-7.8045,-0.27241,0.11301,-0.86346,1.4239,9.12,31.26,1.8
4.4947,-9.9292,-0.068102,0.000305,-0.90652,1.6029,9.84,31.02,1.86
4.7399,-11.863,0.28603,-0.17165,-0.78313,1.6154,10.56,30.72,1.86
4.1542,-12.286,0.53119,-0.53115,-0.17349,1.3592,11.52,30.42,1.8
3.8954,-12.326,0.64016,-0.76786,0.51404,1.0754,12.06,30.3,1.98
3.6639,-11.468,0.57205,-0.93249,1.2663,0.76205,13.02,29.76,2.1
4.3585,-10.202,0.29965,-0.98624,1.7691,0.49908,13.86,29.28,2.4
4.4811,-9.902,0.24517,-0.94195,1.8689,0.29444,14.34,28.98,2.64
4.7399,-10.161,0.25879,-0.85552,1.6765,0.19028,15.24,28.5,3.24
4.9578,-10.719,0.17706,-0.66798,0.97005,0.13164,15.72,27.78,3.84
4.9033,-10.924,0.095342,-0.53054,0.35949,0.15302,15.72,27.72,4.32
4.413,-11.509,-0.14982,-0.35339,-0.12675,0.19426,15.9,27.24,5.1
4.413,-12.258,-0.17706,-0.17196,-0.45998,0.33628,16.14,27.0,6.0
4.4675,-12.177,-0.29965,0.055894,-0.7025,0.52107,16.14,26.58,6.6
4.2223,-10.569,-1.0488,0.28741,-0.9108,0.60079,16.14,26.46,6.9
4.0316,-8.1858,-2.1248,0.52168,-1.1771,0.57635,16.2,26.28,7.38
4.0589,-7.0281,-2.6015,0.72204,-1.7904,0.41539,16.02,26.1,7.8
3.8001,-6.8919,-2.4108,0.70188,-2.2523,0.31093,16.08,25.98,7.86
3.5277,-7.2324,-2.2474,0.58735,-2.5598,0.21777,16.14,25.98,7.98
2.5061,-7.355,-1.9613,0.41844,-2.5659,0.092241,16.38,25.8,7.56
2.1656,-7.1234,-1.8932,0.22816,-2.2422,-0.068417,16.44,25.68,7.26
1.362,-6.8374,-1.9341,0.052534,-1.6405,-0.35033,16.8,25.62,6.48
1.4438,-7.0145,-1.7298,-0.12095,-0.52015,-0.5287,16.92,25.5,6.18
1.7706,-7.3414,-1.7025,-0.18112,0.059865,-0.62705,16.98,25.32,6.0
2.2746,-8.3765,-1.3757,-0.19456,0.37232,-0.65424,16.98,25.32,5.46
2.4789,-8.9894,-1.0488,-0.197,0.52504,-0.66157,16.98,24.9,5.1
2.5198,-8.6762,-0.84446,-0.18051,0.54581,-0.66279,16.86,24.66,4.86
2.4653,-8.3629,-0.7355,-0.10721,0.36163,-0.58735,16.62,24.42,4.68
2.5334,-8.2539,-0.64016,-0.035125,0.17287,-0.49327,16.38,24.42,4.8
2.5742,-8.0632,-0.64016,0.054367,-0.029016,-0.42272,16.08,24.36,5.1
2.5061,-7.8589,-0.65378,0.12126,-0.18723,-0.41081,15.48,24.42,5.58
2.0839,-7.7908,-0.46309,0.16493,-0.23732,-0.46548,14.82,24.42,5.94
2.0294,-8.036,-0.47671,0.15913,-0.1628,-0.54795,14.76,24.42,6.0
2.1656,-9.0848,-0.58567,0.13592,-0.059254,-0.60384,14.46,24.36,6.3
2.4517,-10.188,-0.5993,0.036652,-0.02138,-0.61728,14.1,24.42,6.6
2.2065,-11.496,-0.42223,-0.065973,-0.048564,-0.64202,13.8,24.36,6.96
1.7843,-11.482,-0.054481,-0.21197,0.015882,-0.73487,13.68,24.3,7.26
1.4438,-12.871,0.31327,-0.39126,0.18937,-0.83383,13.38,24.36,7.8
2.7241,-16.739,0.69464,-0.52901,0.42944,-0.73151,12.96,24.36,8.16
2.9556,-14.07,0.74912,-0.60598,0.82009,-0.53603,12.78,24.3,8.7
2.3836,-10.896,0.74912,-0.62919,0.96364,-0.60079,12.66,24.3,9.0
2.1248,-8.6217,0.61292,-0.58704,1.1225,-0.74678,12.3,24.42,9.66
2.1656,-7.8181,0.35413,-0.4667,1.1726,-0.80848,12.18,24.48,9.96
2.4925,-7.6683,0.23155,-0.29596,0.9893,-0.72449,11.76,24.6,10.56
2.6968,-7.3686,-0.25879,-0.13042,0.73059,-0.47312,11.34,24.96,11.16
2.9556,-7.1371,-0.32689,-0.013744,0.44135,-0.11454,11.16,25.02,11.46
3.7047,-7.3141,-0.29965,0.035736,0.12492,0.21014,10.8,25.02,12.0
3.9363,-7.7364,-0.34051,-0.013744,-0.43982,0.60415,10.74,25.14,12.18
3.9227,-8.4446,-0.29965,-0.067806,-0.64904,0.80726,10.62,25.32,12.48
4.0316,-9.2074,-0.49033,-0.16096,-0.58521,0.97036,10.62,25.5,13.08
4.1542,-9.4389,-0.34051,-0.28986,-0.35064,1.044,10.62,25.56,13.26
4.3449,-9.8339,-0.14982,-0.43433,-0.022602,1.0131,10.86,25.62,13.5
4.1542,-9.7794,-0.20431,-0.61209,0.53634,0.82467,11.28,25.68,13.98
4.0861,-9.2891,-0.35413,-0.69425,0.9108,0.67684,11.46,25.62,14.22
4.2904,-9.0712,-0.47671,-0.71135,1.1283,0.56994,11.64,25.62,14.4
4.6445,-9.4389,-0.51757,-0.68295,1.1185,0.47983,12.18,25.8,15.06
4.7671,-9.793,-0.47671,-0.60812,0.978,0.42791,12.54,25.68,15.42
4.7126,-10.515,-0.50395,-0.48381,0.75503,0.44166,13.02,25.98,16.02
4.7671,-11.278,-0.46309,-0.20769,0.30849,0.6243,13.32,26.1,16.26
4.9987,-11.809,-0.44947,0.053145,-0.074831,0.83994,13.62,26.04,16.5
5.0531,-9.9973,-1.0488,0.35675,-0.55803,0.95845,14.34,26.16,17.22
4.9987,-8.9349,-1.7025,0.65118,-1.212,0.98869,14.64,26.1,17.52
4.7399,-8.322,-2.3427,0.8375,-1.9071,0.93065,15.36,26.22,17.76
4.4266,-8.2539,-2.3291,0.91905,-2.7651,0.73395,15.72,26.4,18.0
3.9227,-8.54,-2.1248,0.81062,-3.0165,0.57971,16.26,26.64,17.94
3.3097,-8.8124,-1.9613,0.61361,-2.8778,0.40959,16.8,26.82,17.88
2.6015,-8.9213,-1.8932,0.38729,-2.3286,0.26878,17.4,26.88,17.76
1.7025,-8.9213,-1.7979,0.18967,-1.4416,0.14905,18.6,27.18,17.28
1.8251,-9.0303,-1.7843,0.02138,-0.13195,-0.010996,19.26,27.36,16.92
2.6015,-9.1529,-1.4846,0.01405,0.1405,-0.072998,20.82,27.72,16.32
2.7786,-9.0167,-1.5663,0.040012,0.56047,-0.22266,21.48,27.9,16.14
3.2553,-8.6081,-1.6208,0.065973,0.56108,-0.2697,22.14,28.14,15.84
3.3097,-8.5127,-1.6208,0.13714,0.061087,-0.37263,22.8,28.32,15.36
2.547,-8.2948,-1.3893,0.18448,-0.4664,-0.38698,23.82,28.74,14.82
1.9886,-8.0224,-1.185,0.17623,-0.94715,-0.416,24.42,28.86,14.64
1.2258,-6.565,-0.96704,0.15944,-1.0098,-0.47342,25.08,29.34,14.04
0.65378,-5.3119,-0.9398,0.16035,-0.96089,-0.55711,25.26,29.46,13.8
0.29965,-4.1951,-0.95342,0.15577,-0.8998,-0.63683,25.5,29.88,13.5
0.068102,-3.8273,-0.95342,0.090103,-0.88423,-0.69089,25.68,30.18,13.38
-0.28603,-7.2596,-0.49033,-0.043982,-0.86499,-0.70219,25.86,30.78,13.08
-0.16344,-9.6977,-0.01362,-0.23976,-0.6805,-0.66645,25.8,31.08,13.02
0.96704,-12.898,1.0079,-0.50213,-0.21289,-0.58796,25.74,31.8,12.78
1.362,-14.056,1.3757,-0.7761,0.41844,-0.52473,25.74,32.22,12.66
2.0567,-16.481,1.3484,-0.99907,1.2074,-0.30513,25.68,32.58,12.72
2.8058,-17.311,1.0079,-0.9728,1.7098,-0.2248,25.68,33.0,12.78
2.6423,-12.108,0.7355,-0.87293,2.0553,-0.40775,25.38,33.6,12.84
2.3155,-8.5263,0.50395,-0.71349,2.3198,-0.67714,25.2,33.9,12.96
3.2553,-7.0962,-0.12258,-0.32651,2.1136,-0.63316,24.54,34.5,13.62
3.9635,-7.2188,-0.39499,-0.063835,1.4096,-0.47556,24.3,34.74,14.1
4.1542,-7.6546,-0.78998,0.13806,0.59773,-0.17165,23.82,34.86,14.58
4.1542,-8.145,-0.65378,0.21044,-0.10843,0.17685,23.1,35.34,15.6
3.9908,-8.2403,-0.20431,0.15149,-0.59682,0.49755,22.8,35.46,16.02
3.8409,-8.4446,-0.14982,-0.07025,-0.81978,0.80176,22.2,35.88,16.74
3.6366,-8.826,-1.1577,-0.20556,-0.53359,0.89644,21.84,36.0,17.1
3.9635,-8.2812,-1.3757,-0.23824,-0.30696,0.92241,21.66,36.06,17.28
4.1678,-8.1586,-1.4438,-0.27519,0.14203,0.90347,21.48,36.18,17.52
4.6037,-8.8396,-1.2531,-0.354,0.57971,0.73731,21.42,36.36,17.82
4.5901,-9.5751,-1.1713,-0.4102,0.71441,0.59254,21.3,36.6,18.06
4.6718,-10.351,-1.2803,-0.43738,0.79962,0.4777,21.3,36.72,18.12
4.8625,-12.967,-0.85808,-0.39676,0.8601,0.40653,21.6,36.96,18.3
5.2575,-15.35,-0.28603,-0.34697,0.84635,0.49511,21.78,37.08,18.3
5.5571,-15.282,-0.43585,-0.13073,0.78343,0.67348,22.08,37.14,18.3
5.4073,-10.515,-1.58,0.34911,0.18204,0.56933,22.56,37.32,18.54
5.3256,-9.0303,-2.3972,0.66462,-0.58521,0.38149,22.86,37.38,18.54
5.0259,-7.8317,-2.7786,0.86132,-2.0418,-0.000611,23.4,37.62,18.6
3.8954,-8.4991,-2.4789,0.86193,-2.846,-0.16066,23.7,37.5,18.48
2.9692,-8.9349,-2.1248,0.67989,-3.1704,-0.22877,24.0,37.56,18.36
1.9613,-8.7715,-1.7979,0.42852,-2.9395,-0.21564,24.3,37.74,18.12
0.027241,-7.8045,-1.6072,0.17318,-2.1649,-0.15302,24.78,37.92,17.7
-0.28603,-7.4095,-1.5119,0.0097738,-1.0577,-0.0562,25.14,37.92,17.28
-0.054481,-7.246,-1.4165,-0.050702,0.038179,0.033292,25.38,38.16,16.92
1.2122,-7.0009,-1.471,0.083689,0.95692,0.13134,26.16,38.4,16.08
1.866,-6.5786,-1.5119,0.23976,1.0678,0.13042,26.4,38.52,15.78
2.1929,-5.9793,-1.6208,0.38087,0.70738,0.076969,26.7,38.76,15.48
2.5742,-4.0589,-1.8524,0.46365,-0.061087,-0.041539,27.18,39.12,14.52
2.2201,-3.3097,-1.9341,0.50244,-1.0657,-0.15791,27.48,39.42,14.1
1.6072,-3.3506,-1.8387,0.44776,-2.0455,-0.2697,27.72,39.48,13.8
0.027241,-6.4833,-1.5391,0.27642,-2.6652,-0.33475,28.2,40.08,13.14
-0.5993,-8.1041,-1.1169,-0.21961,-2.4881,-0.2587,28.32,40.32,12.72
-0.98067,-12.149,-0.24517,-0.66951,-1.4697,-0.17074,28.5,40.56,12.48
-0.68102,-14.996,0.84446,-1.1524,0.15485,-0.17837,28.74,41.22,12.0
0.081722,-17.992,1.6344,-1.5122,1.7798,-0.069333,28.8,41.64,11.94
1.7298,-19.0,1.975,-1.6915,3.2556,0.071166,28.98,41.94,11.82
3.1191,-12.939,1.7979,-1.4786,4.2299,-0.33384,28.68,42.54,12.12
3.0101,-9.9565,1.0624,-1.0708,4.0668,-0.62156,28.68,43.02,12.42
3.228,-8.5944,0.6674,-0.61606,3.3677,-0.6692,28.26,43.32,12.84
4.3449,-7.9134,0.16344,-0.23854,2.1961,-0.59407,27.3,43.86,14.1
4.6173,-9.112,-0.095342,0.028405,0.95356,-0.37599,26.64,44.22,14.7
4.6445,-10.093,-0.01362,0.1295,0.0085521,-0.066584,26.22,44.58,15.36
4.018,-9.7658,0.28603,0.082772,-0.45907,0.20983,25.02,45.12,16.74
3.3097,-8.5263,0.14982,-0.10568,-0.41386,0.38301,24.48,45.42,17.64
2.656,-7.0553,-0.44947,-0.14966,-0.26573,0.38026,23.88,45.66,18.3
2.4789,-5.6661,-1.471,-0.19212,0.30727,0.37171,22.86,46.02,19.86
3.4051,-6.3743,-1.6889,-0.19334,0.57849,0.40256,22.32,46.32,20.46
3.8546,-7.9951,-1.6072,-0.20922,0.64019,0.46609,21.78,46.32,21.18
4.2904,-10.61,-1.0896,-0.19792,0.58429,0.56383,21.3,46.74,22.02
4.2495,-11.427,-0.96704,-0.17104,0.56566,0.68661,21.0,46.8,22.2
4.1678,-11.959,-0.89894,-0.068722,0.56597,0.79504,20.94,46.92,22.26
4.7263,-13.375,-0.91256,0.10446,0.59559,0.95997,21.0,47.28,22.38
5.0259,-11.795,-1.7025,0.4105,0.47586,0.89736,21.48,47.34,22.14
5.1349,-9.7385,-2.7377,0.69333,-0.02138,0.71349,21.72,47.4,22.02
5.2302,-9.0303,-3.1327,0.91874,-1.3127,0.29902,22.5,47.64,22.08
4.2359,-9.0167,-2.6423,0.88484,-2.2068,0.03543,22.86,47.82,21.84
3.4732,-9.2891,-2.2065,0.82039,-2.5717,-0.053756,23.34,47.88,21.78
2.8194,-9.3163,-1.9886,0.53573,-2.9071,-0.11026,23.82,48.12,21.54
1.1441,-8.7306,-1.8932,0.3427,-2.4239,-0.033292,24.72,48.36,20.58
0.54481,-8.0905,-2.1929,0.22113,-1.5455,0.055589,25.2,48.6,19.92
0.44947,-7.6002,-2.2474,0.18631,-0.53787,0.11912,25.68,48.72,19.5
1.4982,-7.2869,-1.8524,0.21289,0.57177,0.15821,26.64,49.02,18.18
1.9613,-6.96,-1.7434,0.21594,0.75472,0.15699,27.12,49.14,17.52
2.3699,-6.5378,-1.5936,0.22785,0.70066,0.1066,27.48,49.26,16.86
2.6151,-6.1292,-1.5391,0.24557,0.26664,0.019853,27.9,49.44,16.26
2.547,-5.9112,-1.58,0.22755,-0.37049,-0.086437,28.32,49.68,15.42
2.0431,-7.3822,-1.2122,0.13958,-0.96761,-0.17043,28.86,50.1,14.04
1.3484,-9.1256,-0.54481,-0.1405,-1.2712,-0.20769,29.22,50.4,13.26
0.61292,-11.523,0.44947,-0.26084,-1.1903,-0.18692,29.46,50.82,12.18
0.54481,-12.027,0.98067,-0.63591,-0.66615,-0.17043,29.52,50.88,11.76
0.38137,-12.354,1.5119,-0.83017,-0.28375,-0.22724,29.58,51.12,11.34
0.57205,-16.903,2.3427,-0.91447,0.11759,-0.10385,29.4,51.9,10.92
1.5391,-17.352,2.4517,-0.83658,0.79565,-0.032681,29.28,52.02,10.68
1.4165,-13.688,1.8932,-0.55283,1.693,-0.22969,28.86,52.56,10.8
0.85808,-8.0224,1.1441,-0.3262,1.817,-0.40561,28.74,52.8,10.98
0.91256,-7.2596,0.72188,-0.12737,1.5843,-0.53054,28.62,52.92,11.04
1.1305,-7.4912,0.47671,0.013134,1.197,-0.50702,28.32,53.22,11.22
2.152,-8.8668,-0.42223,0.094073,0.81795,-0.31734,27.6,53.52,11.7
2.4789,-9.1393,-0.46309,0.044899,0.59743,-0.072998,27.12,53.82,11.94
2.5606,-9.1665,-0.44947,-0.1405,0.62094,0.099571,26.46,54.06,12.3
1.8387,-9.2891,-0.31327,-0.39798,0.89095,0.11515,25.56,54.48,12.84
1.471,-9.2618,-0.47671,-0.63927,1.4511,0.038179,25.14,54.72,13.14
1.5527,-9.398,-0.69464,-0.84025,2.1637,-0.037568,24.72,54.9,13.62
2.2474,-9.3436,-0.89894,-1.0131,3.0653,-0.11973,24.24,54.96,14.1
3.6911,-7.8045,-0.95342,-1.0586,3.3469,-0.2135,22.98,55.2,15.42
3.8546,-7.641,-1.1441,-1.0522,3.2675,-0.26298,22.32,55.2,15.9
4.2904,-7.927,-1.185,-0.96211,2.8677,-0.24984,21.6,55.2,16.5
5.0259,-9.4934,-1.3348,-0.82131,2.2315,-0.14172,19.74,55.38,17.4
4.9987,-9.2482,-1.3484,-0.53542,1.157,0.12431,18.96,55.38,18.0
4.8897,-9.1256,-1.362,-0.33262,0.43921,0.35919,18.12,55.44,18.6
5.094,-11.904,-1.0896,-0.1628,-0.13744,0.759,16.8,55.38,19.8
5.0804,-12.898,-1.0488,0.031154,-0.43463,1.1246,16.32,55.2,20.34
4.9169,-12.422,-1.2667,0.18998,-0.45845,1.281,15.9,55.14,20.94
4.0861,-9.8475,-1.7298,0.32498,-0.18998,1.1136,15.18,55.08,21.96
4.018,-8.2812,-1.8251,0.33139,-0.0956,1.004,14.94,55.14,22.32
3.9635,-7.927,-1.8524,0.28833,-0.051313,0.6689,14.7,55.14,22.56
3.9635,-8.717,-1.6889,0.2248,-0.16493,0.48625,14.82,55.14,22.8
3.6911,-8.9894,-1.6617,0.12767,-0.10904,0.30116,14.88,55.26,22.8
3.4187,-8.5944,-1.5255,0.037568,0.10446,0.24435,15.6,55.38,22.44
3.1191,-8.145,-1.3757,-0.041233,0.5116,0.055894,16.02,55.38,22.38
3.2416,-7.6002,-1.4165,-0.043371,0.68936,-0.072693,16.56,55.38,22.26
3.2553,-7.1234,-1.362,-0.017104,0.76144,-0.16493,17.46,55.56,21.84
3.1735,-7.1234,-1.1169,0.0054978,0.76144,-0.22419,17.82,55.56,21.6
3.1735,-7.1234,-1.1169,0.0054978,0.76144,-0.22419,17.82,55.56,21.6
2.8739,-6.4424,-1.0215,0.042761,0.65454,-0.32101,18.18,56.04,20.64
2.8739,-6.4424,-1.0215,0.042761,0.65454,-0.32101,18.18,56.04,20.64
2.5198,-5.5299,-1.185,0.05681,0.67531,-0.3989,18.06,56.16,20.46
2.3427,-5.1757,-1.185,0.029932,0.6521,-0.51099,18.0,56.16,20.4
2.2474,-6.2926,-1.2258,-0.04612,0.57666,-0.55528,17.28,56.4,19.86
2.2474,-7.5729,-1.076,-0.15088,0.48411,-0.52993,17.04,56.58,19.74
2.1112,-11.686,-0.19068,-0.32162,0.46273,-0.42638,15.9,57.0,19.56
2.2474,-13.525,0.20431,-0.5397,0.66187,-0.28253,15.36,57.24,19.32
2.3836,-15.214,0.99429,-0.79993,1.1194,-0.24465,14.64,57.36,19.2
2.0839,-15.541,1.6617,-1.047,2.0519,-0.35644,13.44,57.84,18.96
2.4244,-14.846,1.7434,-1.0409,2.5192,-0.44593,12.6,57.9,19.08
3.514,-11.713,0.7355,-0.77061,2.4493,-0.53115,11.22,57.78,19.2
3.5958,-10.556,0.31327,-0.40806,1.9954,-0.58643,10.32,57.72,19.38
3.4732,-9.0303,-0.01362,-0.10171,1.3677,-0.55161,9.6,57.84,19.38
3.3506,-8.3901,-0.12258,0.080023,0.75533,-0.44074,7.74,57.78,19.38
3.1872,-8.6217,-0.17706,0.1405,0.076053,-0.19975,6.84,57.72,19.5
2.8603,-8.8941,-0.24517,0.061087,-0.10293,0.009163,6.24,57.66,19.74
2.3836,-9.4117,-0.35413,-0.078496,-0.051007,0.25107,4.68,57.42,20.04
2.3427,-9.4117,-0.29965,-0.25962,0.25748,0.56505,4.02,57.3,19.92
1.9886,-9.221,-0.10896,-0.43005,0.79443,0.65149,3.3,57.24,19.98
2.1248,-8.9622,-0.027241,-0.60445,1.4364,0.79565,2.4,57.24,19.92
2.5742,-9.4525,0.38137,-0.75533,2.0265,0.90255,1.92,57.18,20.04
2.8194,-9.8203,0.54481,-0.91477,2.4984,1.0012,1.56,57.24,19.8
3.1191,-9.8475,1.1305,-0.95112,2.5467,1.0461,0.96,57.18,19.74
3.1327,-9.5751,1.3757,-0.94104,2.3723,1.1243,0.84,57.36,19.68
3.1054,-8.2948,1.2258,-0.85307,2.2962,1.1573,0.66,57.3,19.74
3.0918,-7.6683,0.6674,-0.63652,1.9548,1.2049,0.72,57.36,19.68
3.1599,-7.9543,0.31327,-0.48961,1.5742,1.2184,0.84,57.48,19.8
3.1463,-10.733,0.32689,-0.3989,1.1909,1.2266,1.32,57.36,19.68
2.6696,-12.299,0.8036,-0.36927,0.96761,1.1613,1.62,57.36,19.8
2.0158,-13.552,1.4982,-0.40378,1.054,1.0565,2.04,57.36,19.98
2.5198,-16.167,1.5119,-0.40684,1.5046,1.069,2.82,57.3,20.22
3.3506,-17.339,1.076,-0.24099,1.9331,1.1075,3.12,57.12,20.34
3.5685,-16.903,0.76274,-0.0079412,2.3115,0.96822,3.42,57.06,20.34
3.2416,-12.149,0.027241,0.1854,2.4936,0.69364,4.5,56.94,20.46
3.2144,-10.447,-0.28603,0.31307,2.4163,0.4163,4.86,56.88,20.64
3.1054,-10.052,-0.51757,0.32987,2.1615,0.16829,5.22,56.64,20.64
3.1735,-10.229,-0.54481,0.25687,1.5913,0.098349,5.58,56.52,20.4
3.1872,-9.8748,-0.43585,0.12737,1.2324,0.17562,5.7,56.34,20.34
3.0237,-9.1937,-0.068102,-0.019548,1.0782,0.25656,5.76,56.22,20.28
2.1112,-8.4038,-0.12258,-0.10965,1.182,0.28619,5.52,56.1,19.98
1.7434,-7.6683,-0.42223,-0.10324,1.4206,0.2978,5.34,55.98,19.92
1.9886,-6.7012,-0.7355,-0.010385,1.6912,0.31032,4.98,55.8,19.86
2.4244,-6.5786,-0.78998,0.17654,1.8014,0.31062,4.14,55.32,19.38
2.4108,-6.5514,-0.84446,0.22327,1.7226,0.31215,3.78,55.2,19.26
2.3699,-6.6876,-0.9398,0.29688,1.4532,0.29993,3.48,54.84,18.96
2.1248,-7.3822,-1.185,0.28497,1.0284,0.24557,2.22,54.54,18.36
1.6889,-7.8181,-1.0896,0.18387,0.89614,0.20708,1.74,54.48,18.0
1.471,-8.5127,-0.46309,0.045509,0.97005,0.20586,0.9,54.48,17.34
1.3484,-10.76,-0.10896,-0.20342,1.4823,0.24862,0.6,54.42,17.1
1.5255,-11.741,0.19068,-0.27306,1.7123,0.26848,0.36,54.54,16.74
1.7706,-12.013,0.54481,-0.32254,2.1567,0.2923,-0.06,54.3,16.38
1.7979,-10.529,0.054481,-0.16432,2.6069,0.22266,-0.78,54.48,15.96
1.757,-9.9429,-0.50395,0.035125,2.5586,0.22694,-1.26,54.48,15.66
1.975,-12.04,-0.65378,0.14936,2.2242,0.34331,-1.62,54.72,15.42
2.3291,-14.492,-0.20431,0.071777,1.7981,0.50152,-2.34,55.14,14.7
1.8524,-13.838,0.85808,-0.1799,1.8201,0.30818,-2.76,55.5,14.34
1.1169,-12.34,0.77636,-0.39279,2.0149,-0.041233,-3.18,55.8,14.22
-0.01362,-9.0303,-0.57205,-0.38362,2.1493,-0.40378,-4.14,56.22,13.86
-0.01362,-8.5808,-1.471,-0.20769,2.1096,-0.69516,-4.86,56.52,13.8
-0.01362,-9.1256,-1.58,-0.085216,1.9532,-0.90408,-5.64,56.64,13.74
-0.23155,-9.9565,-0.57205,-0.13622,1.9618,-0.98227,-7.5,57.0,13.62
-0.83084,-9.7249,-0.14982,-0.33445,2.0907,-0.93096,-8.64,57.12,13.62
-1.185,-9.2755,0.10896,-0.44318,2.2049,-0.90927,-9.54,57.18,13.62
-1.5391,-8.5536,-0.16344,-0.67837,2.624,-0.72021,-10.5,57.18,13.8
-1.1986,-7.8998,-0.054481,-0.73273,2.7593,-0.4835,-12.6,56.88,13.74
-0.36775,-8.3357,0.28603,-0.77488,2.8014,-0.27367,-13.56,56.64,13.68
-0.29965,-9.112,0.99429,-0.76664,2.7174,-0.096211,-15.18,56.16,13.8
-0.35413,-9.5751,1.4165,-0.71685,2.5672,0.054978,-15.18,56.16,13.8
0.14982,-9.4798,1.2258,-0.63683,2.4847,0.17898,-16.44,55.44,13.56
1.0624,-8.9486,1.0215,-0.50671,2.4261,0.29047,-16.74,54.96,13.32
1.471,-8.6625,0.76274,-0.22297,2.2037,0.50549,-16.98,54.48,13.02
1.58,-8.5944,0.43585,-0.072388,1.9199,0.72235,-17.16,53.64,12.0
1.9341,-8.54,0.47671,0.039706,1.5757,0.96028,-16.98,53.28,11.4
2.5606,-8.54,0.47671,0.057727,1.2975,1.1399,-15.9,52.56,10.02
2.8058,-8.7306,0.32689,0.11057,1.0635,1.2679,-15.3,52.38,9.06
2.7241,-8.9349,0.24517,0.15485,0.94776,1.3442,-14.58,52.2,7.86
2.8058,-9.3163,0.14982,0.20189,0.94837,1.3616,-13.62,52.02,6.78
3.1327,-10.406,0.095342,0.22571,1.0305,1.3073,-11.4,51.84,4.56
3.2144,-10.746,0.19068,0.19151,1.1576,1.1765,-10.32,51.9,3.54
3.2689,-11.346,0.54481,0.12614,1.2883,0.84391,-8.28,51.96,1.32
3.2144,-11.128,0.38137,0.10354,1.2999,0.70372,-7.14,52.08,0.12
3.0918,-10.869,0.44947,0.074831,1.2486,0.3937,-6.06,52.2,-0.96
2.4517,-10.474,0.28603,0.085216,1.1008,-0.040623,-4.08,52.56,-2.94
1.9613,-10.379,0.25879,0.064446,1.0666,-0.25931,-3.06,52.62,-3.96
1.4029,-9.902,0.040861,-0.0015272,1.0495,-0.43707,-1.2,52.62,-5.88
0.65378,-8.7034,-0.095342,-0.043982,1.1008,-0.49938,-0.36,52.74,-6.84
0.31327,-8.036,-0.20431,-0.054672,1.1539,-0.51404,0.36,52.8,-7.62
0.095342,-7.6138,-0.31327,-0.034208,1.2171,-0.50488,1.14,52.86,-8.4
-0.01362,-7.8589,-0.34051,0.054978,1.2129,-0.42058,1.98,52.92,-9.9
0.32689,-8.7306,-0.58567,0.2251,1.065,-0.24099,2.4,53.04,-10.68
0.92618,-10.188,-0.89894,0.51496,0.55039,0.090408,3.12,52.8,-12.3
1.5527,-10.474,-0.76274,0.67898,0.15944,0.29383,3.36,52.8,-13.08
1.5119,-10.215,-0.55843,0.73029,-0.0024435,0.37904,3.54,52.8,-13.8
1.5936,-10.161,-0.6674,0.7761,-0.24526,0.50152,3.6,52.74,-14.76
1.8387,-8.9213,-1.3348,0.83689,-0.43768,0.41814,3.78,52.62,-16.56
1.8387,-7.8589,-1.5663,0.84513,-0.59559,0.29322,3.9,52.38,-17.52
1.9613,-7.3141,-1.4029,0.832,-0.83505,0.16738,3.84,52.26,-18.54
2.1112,-7.4095,-1.5119,0.80084,-1.3442,-0.10415,3.66,51.84,-20.52
1.7025,-6.7829,-1.5936,0.78893,-1.5204,-0.20036,3.42,51.54,-21.48
1.0351,-6.6059,-1.4165,0.6857,-1.8289,-0.37751,3.12,51.36,-22.56
0.19068,-7.2188,-1.0215,0.58582,-1.7608,-0.40806,2.46,50.82,-24.54
-0.19068,-7.1507,-0.85808,0.44379,-1.3277,-0.43707,1.86,50.4,-25.62
-0.27241,-7.1643,-0.6674,0.30574,-0.72357,-0.36896,1.2,50.22,-26.52
0.35413,-7.4367,-0.34051,0.17379,-0.20647,-0.13592,-0.12,49.68,-28.62
0.96704,-7.8453,-0.24517,0.073304,0.28283,-0.073915,-1.08,49.32,-29.76
1.2258,-8.145,-0.054481,0.05284,0.34789,-0.059865,-1.74,49.08,-30.66
1.3893,-8.7715,0.28603,0.0094684,0.36621,-0.084299,-3.24,48.6,-32.46
1.185,-8.6489,0.35413,-0.013744,0.33078,-0.19548,-4.08,48.54,-33.24
0.92618,-8.8396,0.50395,-0.051924,0.24007,-0.30207,-4.98,48.3,-33.96
0.54481,-9.9837,0.74912,-0.10751,0.12889,-0.45509,-6.6,48.18,-35.64
0.068102,-10.447,0.96704,-0.3146,0.03879,-0.47342,-7.2,48.24,-36.48
-0.14982,-11.632,1.7843,-0.40959,0.051007,-0.4667,-7.86,48.24,-37.14
-0.92618,-14.111,4.018,-0.75564,0.35888,-0.5226,-9.48,48.18,-38.64
-1.8387,-15.2,4.8488,-0.89889,0.76297,-0.53909,-10.2,48.3,-39.24
-1.3484,-16.372,4.7944,-0.86896,1.1777,-0.47373,-10.86,48.3,-39.96
0.31327,-13.838,3.6911,-0.49083,1.4138,-0.52687,-12.18,48.66,-40.98
0.24517,-10.706,2.8603,-0.20006,1.2193,-0.52473,-12.66,48.78,-41.28
0.027241,-9.6432,2.6832,-0.021075,0.96303,-0.55711,-13.5,48.9,-41.64
-0.040861,-8.036,1.7706,0.073609,0.82558,-0.5397,-15.0,49.08,-42.18
0.40861,-7.5729,1.2531,0.086437,0.72815,-0.45387,-15.54,49.02,-42.6
1.1169,-7.2188,1.076,0.025962,0.59254,-0.32101,-16.14,49.14,-42.78
1.9341,-6.4697,1.1032,-0.089186,0.1014,-0.146,-17.28,49.08,-42.84
1.5391,-6.8647,1.0896,-0.24801,-0.19181,-0.11057,-17.94,49.02,-42.9
1.2258,-7.3822,0.88532,-0.36713,-0.21808,-0.091019,-18.54,48.9,-42.84
1.3212,-8.8941,0.99429,-0.42974,-0.10171,-0.090713,-19.5,48.84,-42.48
1.6889,-9.7658,1.185,-0.64874,0.45998,-0.078191,-19.86,48.78,-42.24
1.866,-10.27,1.3484,-0.79382,0.92302,-0.11301,-20.22,48.54,-41.94
2.2065,-9.9292,1.2122,-0.93921,1.5302,-0.29016,-20.46,48.36,-41.4
2.3291,-9.3436,0.84446,-0.95295,1.7779,-0.3882,-20.58,48.36,-41.1
2.656,-8.9486,0.53119,-0.89553,1.8424,-0.45326,-20.46,48.3,-40.86
3.1872,-8.6353,0.12258,-0.85888,1.7966,-0.47831,-20.22,48.3,-40.5
3.8954,-8.8532,-0.31327,-0.75503,1.3708,-0.49388,-20.1,48.3,-39.9
4.0861,-9.507,-0.20431,-0.70372,0.93004,-0.49633,-20.1,48.36,-39.66
4.1133,-10.42,-0.054481,-0.65454,0.4945,-0.49786,-19.74,48.42,-39.18
3.9771,-12.435,-0.10896,-0.58002,-0.016493,-0.47067,-19.56,48.36,-38.82
3.8954,-14.179,0.19068,-0.48564,-0.26389,-0.3488,-19.26,48.42,-38.52
4.1542,-15.337,0.46309,-0.42547,-0.34361,-0.23946,-18.96,48.48,-38.28
3.9227,-11.673,0.068102,-0.072388,-0.54611,-0.050091,-18.6,48.42,-37.74
3.8001,-7.9134,-0.31327,0.19242,-0.90255,-0.082161,-18.36,48.36,-37.68
3.8273,-6.7012,-0.68102,0.56108,-1.8692,-0.16188,-18.24,48.3,-37.32
3.7047,-8.1041,-0.61292,0.65179,-2.5864,-0.2474,-18.48,47.94,-37.08
3.3234,-9.1393,-0.57205,0.66981,-2.8454,-0.2923,-18.84,47.76,-36.78
2.942,-9.2482,-0.39499,0.58551,-3.0592,-0.36041,-19.44,47.34,-36.54
2.1248,-9.0439,-0.095342,0.26298,-2.7293,-0.45845,-20.94,46.38,-35.64
1.6344,-8.6353,0.081722,0.023824,-2.1906,-0.5058,-21.84,45.84,-35.16
0.5993,-7.5457,-0.054481,-0.14905,-1.4609,-0.51129,-24.12,44.76,-33.96
0.74912,-7.3958,-0.14982,-0.22358,-0.64202,-0.46701,-25.14,44.28,-33.48
1.1577,-7.3141,-0.27241,-0.18234,0.011301,-0.35675,-26.22,43.56,-32.94
1.6072,-7.1507,-0.24517,0.010385,0.4441,-0.16188,-27.3,42.78,-32.58
1.8524,-6.9464,-0.31327,0.1518,0.39859,-0.023824,-28.2,42.06,-32.16
2.0158,-6.6467,0.24517,0.28863,0.14203,0.12798,-30.36,40.68,-31.86
2.0975,-6.5378,0.34051,0.40348,-0.30788,0.25137,-31.38,39.9,-31.5
2.1248,-5.9249,0.027241,0.52076,-0.88026,0.29169,-32.28,38.94,-31.32
1.8251,-6.279,-0.095342,0.61942,-1.7046,0.20678,-34.26,37.2,-31.02
1.6344,-7.2596,-0.095342,0.58154,-2.0669,0.13714,-35.16,36.36,-30.66
1.2258,-8.54,0.36775,0.45693,-2.2147,0.12462,-35.94,35.46,-30.36
0.85808,-11.632,0.96704,0.24771,-2.0776,0.16738,-37.68,33.9,-29.52
0.62654,-14.124,1.7025,-0.021991,-1.6356,0.16493,-38.46,33.06,-28.92
0.50395,-17.053,2.8058,-0.46334,-0.50152,0.16829,-40.26,31.14,-27.36
1.6344,-18.265,3.051,-0.66768,0.50946,0.10293,-41.28,30.42,-26.58
1.7979,-14.819,2.8194,-0.73395,1.4044,-0.098349,-42.18,29.82,-25.5
1.5936,-12.694,2.5061,-0.58857,1.9218,-0.40928,-43.2,29.16,-24.54
1.8115,-9.1665,0.92618,-0.27245,2.0458,-0.61484,-45.18,27.96,-22.32
2.5334,-8.6625,0.35413,0.016188,1.7681,-0.65363,-46.14,27.24,-21.42
3.1599,-8.2131,0.12258,0.29963,0.81001,-0.48869,-47.94,26.1,-19.56
3.2825,-7.8181,0.040861,0.2981,0.15333,-0.24862,-48.6,25.62,-18.66
3.4051,-7.4095,0.17706,0.1628,-0.38393,0.010996,-49.14,25.26,-17.88
3.2144,-7.246,0.19068,0.0012217,-0.78557,0.19059,-49.74,24.96,-17.22
2.6423,-7.4095,-0.19068,-0.14233,-0.93096,0.31093,-50.46,24.48,-15.96
2.6015,-7.7364,-0.44947,-0.25595,-0.77977,0.38423,-50.82,24.36,-15.48
2.6423,-7.7636,-0.35413,-0.35277,-0.42302,0.41539,-51.0,24.42,-14.52
3.0918,-8.9486,-0.1362,-0.47128,0.019853,0.41447,-51.06,24.48,-14.16
3.1327,-9.4525,-0.027241,-0.59773,0.48869,0.36927,-51.0,24.36,-13.8
3.1872,-9.6432,0.068102,-0.70952,0.97036,0.3036,-50.88,24.48,-13.5
3.8001,-9.8611,0.19068,-0.79077,1.4905,0.22602,-50.52,24.54,-12.72
4.1406,-9.8611,-0.14982,-0.7535,1.5427,0.17043,-50.34,24.6,-12.18
4.3177,-10.093,-0.31327,-0.60476,1.2452,0.14905,-49.8,24.96,-10.98
4.6582,-10.569,-0.55843,-0.54764,1.0934,0.14325,-49.56,25.2,-10.38
4.522,-10.215,-0.5993,-0.37965,0.73548,0.11912,-49.14,25.38,-9.78
4.3721,-10.174,-0.89894,-0.12645,0.14569,0.0562,-48.72,25.62,-9.18
4.5356,-11.182,-0.92618,0.051924,-0.34392,0.17654,-48.18,25.8,-8.7
5.2166,-14.288,-0.84446,0.22358,-0.82925,0.39645,-46.8,26.16,-7.68
5.0123,-13.007,-1.1305,0.39951,-1.2901,0.44929,-46.2,26.22,-7.38
3.9499,-9.221,-1.9068,0.57696,-1.7248,0.31032,-44.52,26.34,-6.6
3.6639,-7.3686,-2.1929,0.70402,-2.2807,0.054978,-43.62,26.52,-6.36
3.5549,-7.0281,-2.1793,0.70433,-2.4655,-0.026267,-42.6,26.46,-5.94
2.547,-7.7772,-1.9886,0.56963,-2.9517,-0.21991,-40.74,26.58,-4.98
1.7979,-8.0088,-1.6753,0.37568,-2.8934,-0.26481,-39.66,26.52,-4.5
0.38137,-7.8998,-1.1577,0.092546,-2.3769,-0.23457,-37.5,26.52,-3.54
-0.12258,-7.5321,-0.99429,-0.30788,-0.95875,-0.093157,-36.24,26.46,-3.18
-0.081722,-7.3277,-1.0079,-0.47556,0.11729,-0.027489,-35.16,26.4,-2.88
0.28603,-7.2188,-0.96704,-0.52015,0.96333,0.011606,-34.08,26.34,-2.7
1.4165,-7.1371,-0.84446,-0.4499,1.4594,0.007025,-32.1,26.22,-3.0
1.9205,-7.355,-0.62654,-0.32223,1.5996,-0.012523,-31.02,25.98,-3.3
2.5742,-8.0088,-0.51757,-0.16371,1.3912,-0.026878,-30.06,25.86,-3.6
3.4459,-8.6762,-0.31327,0.028405,0.53267,-0.030238,-28.2,25.5,-4.68
3.3097,-8.1177,-0.29965,0.084605,0.19487,-0.052534,-27.36,25.2,-5.22
2.9148,-7.6002,-0.19068,0.16432,-0.38912,-0.093157,-26.64,24.96,-5.88
2.3155,-7.1507,-0.19068,0.21564,-0.77427,-0.18112,-25.14,24.48,-7.08
2.0294,-7.8589,-0.38137,0.24587,-0.75075,-0.30543,-24.54,24.3,-7.74
1.7025,-8.6898,-0.29965,0.25076,-0.59834,-0.44288,-24.0,24.12,-8.28
1.6617,-10.297,-0.095342,0.20678,-0.3091,-0.53909,-23.16,23.64,-9.12
1.7298,-11.632,0.12258,0.045204,-0.037263,-0.5342,-22.8,23.4,-9.42
1.7162,-12.422,0.5993,-0.12278,0.087659,-0.49847,-22.26,23.4,-9.6
1.6481,-12.272,0.84446,-0.27367,0.28741,-0.50488,-21.9,23.28,-9.24
1.6481,-12.544,1.5119,-0.38149,0.45051,-0.46487,-21.48,23.46,-8.34
2.8603,-15.282,1.7979,-0.40897,0.50457,-0.2813,-21.24,23.46,-7.68
3.6366,-14.683,1.6072,-0.34178,0.46151,-0.093462,-21.06,23.94,-6.0
2.6423,-10.964,1.3212,-0.24374,0.44043,-0.10201,-20.94,24.24,-5.28
2.1248,-8.9213,1.0624,-0.12339,0.82253,-0.32101,-21.0,24.54,-4.26
1.9477,-8.0769,0.96704,-0.03207,1.146,-0.39981,-21.06,24.84,-3.48
2.2474,-7.2188,0.39499,0.071166,1.2923,-0.39004,-21.42,25.32,-2.04
2.5879,-7.2733,0.21793,0.17043,1.2477,-0.20861,-21.84,25.8,-1.38
2.9148,-7.1371,-0.35413,0.2645,0.82589,0.22144,-22.68,26.76,-0.24
3.8137,-7.0009,-0.25879,0.24038,0.37782,0.4496,-23.1,27.36,0.3
3.7456,-7.2052,-0.38137,0.21105,0.14905,0.54398,-23.58,27.78,0.72
3.514,-7.5457,-0.40861,0.13775,-0.25931,0.71563,-24.12,28.38,1.14
3.3506,-8.8532,-0.40861,0.0094684,-0.42852,0.90286,-25.2,29.28,1.62
3.5004,-9.6704,-0.44947,-0.096211,-0.2978,0.96944,-25.68,29.94,1.68
3.4459,-9.9565,-0.39499,-0.22816,0.0048869,0.9389,-26.22,30.66,1.86
3.1463,-9.3163,-0.35413,-0.36041,0.46914,0.81978,-27.3,31.8,2.16
3.0918,-8.7715,-0.54481,-0.46884,0.99174,0.62889,-27.78,32.64,2.16
3.1872,-8.5127,-0.70826,-0.53573,1.3864,0.44379,-28.08,33.54,2.34
3.8818,-8.7715,-0.57205,-0.55192,1.452,0.24374,-28.8,35.58,2.4
4.1542,-9.2755,-0.40861,-0.52626,1.2514,0.19609,-29.1,36.48,2.34
4.0861,-9.5342,-0.61292,-0.46487,0.94654,0.19517,-29.22,37.32,2.34
3.9771,-9.4661,-0.8036,-0.31734,0.4441,0.22571,-29.4,39.06,2.52
3.9771,-9.4661,-0.8036,-0.21105,0.080329,0.40225,-29.4,39.06,2.52
4.7263,-14.547,-0.14982,-0.07422,-0.20159,0.74526,-29.76,40.5,2.52
4.7399,-13.253,-0.42223,0.082467,-0.31246,0.85643,-29.88,41.4,2.4
4.127,-10.365,-0.8036,0.25259,-0.42394,0.72662,-29.64,42.24,2.4
3.7592,-7.069,-1.6344,0.38607,-0.62644,0.53634,-29.34,43.74,2.28
3.8818,-7.069,-1.7298,0.48442,-1.3195,0.27733,-29.28,44.4,2.16
3.8954,-7.9951,-1.7162,0.48625,-1.6136,0.19059,-29.16,45.06,2.22
3.2144,-9.5342,-1.3484,0.40714,-2.036,0.078191,-29.04,45.48,2.28
1.7843,-10.215,-0.36775,0.083689,-1.744,0.058032,-28.74,46.2,2.76
1.0896,-10.079,-0.17706,-0.14264,-0.98624,0.076358,-28.5,46.56,3.06
0.88532,-8.7851,-0.24517,-0.30085,-0.026878,0.092852,-27.96,47.28,3.72
1.3757,-7.9951,-0.47671,-0.21808,1.0434,0.10904,-27.78,47.58,3.9
1.7025,-7.6955,-0.57205,-0.019548,1.2367,0.16127,-27.36,47.82,4.08
2.4653,-6.7557,-0.70826,0.19884,1.0162,0.15027,-26.52,48.42,4.62
2.6015,-5.5843,-0.95342,0.40897,0.40409,0.10476,-26.16,48.6,4.86
2.6015,-4.3721,-0.96704,0.52076,-0.43768,0.029627,-25.98,48.72,4.86
1.7979,-3.7728,-1.0624,0.54947,-1.2843,-0.067806,-25.56,48.96,5.16
1.4846,-4.413,-0.96704,0.4722,-1.9114,-0.23243,-25.38,49.14,5.34
0.96704,-5.7478,-0.65378,0.30299,-2.1869,-0.25229,-25.26,49.2,5.4
-0.054481,-9.9292,0.57205,0.079412,-2.1234,-0.22144,-25.02,49.62,5.88
0.21793,-12.803,1.0488,-0.35186,-1.3583,0.037874,-24.9,49.92,6.12
0.64016,-14.097,1.185,-0.63713,-0.45571,0.098655,-24.9,50.16,6.3
1.1441,-16.29,2.7649,-0.83505,0.4612,0.10079,-24.9,50.82,7.08
1.6617,-16.699,2.8739,-0.93096,1.4019,-0.037874,-25.02,51.18,7.56
2.2746,-15.35,2.4108,-0.70891,2.2801,-0.35583,-25.26,51.6,7.98
2.4108,-12.122,1.6208,-0.38973,2.2025,-0.65088,-25.44,52.02,8.4
2.8058,-9.9837,0.8036,-0.12339,1.8466,-0.75503,-26.52,52.74,9.0
3.4187,-10.052,0.76274,0.047342,1.321,-0.759,-27.18,53.16,9.42
3.732,-10.065,0.8036,0.11729,0.67928,-0.67898,-27.84,53.46,9.72
3.3778,-9.8066,0.44947,0.045815,0.14386,-0.49877,-29.04,53.88,10.14
3.0918,-9.6568,0.38137,-0.19548,-0.067195,-0.18112,-29.52,54.0,10.44
2.5742,-8.4855,0.10896,-0.26725,-0.0076358,-0.12156,-30.12,54.12,10.5
1.8932,-5.0531,-0.95342,-0.343,0.39248,-0.09896,-31.5,54.36,10.44
1.9613,-3.2825,-1.7025,-0.26298,0.61453,-0.17165,-32.1,54.48,10.32
2.3836,-2.7377,-2.3018,-0.15791,0.49297,-0.14264,-32.82,54.54,10.08
3.6366,-5.993,-1.8932,-0.01741,-0.4499,0.095906,-34.14,54.6,9.36
3.6911,-7.7091,-1.5119,0.04948,-1.186,0.3821,-34.74,54.78,8.94
3.5685,-10.896,-0.81722,0.063225,-1.6298,0.74403,-35.4,55.02,8.4
3.2416,-16.644,0.19068,0.069944,-1.6448,1.0534,-36.3,55.92,7.68
3.0782,-17.57,0.21793,0.10354,-1.2117,1.1741,-36.6,56.4,7.26
2.9011,-16.413,-0.040861,0.21533,-0.49602,1.058,-36.96,56.88,7.02
2.4789,-9.6704,-1.5936,0.37782,0.10415,0.57238,-37.62,58.2,6.66
2.4108,-8.2676,-1.8524,0.61789,0.11301,0.28497,-37.92,58.86,6.3
2.6696,-7.7091,-2.0567,0.6521,-0.55955,0.079718,-38.22,59.4,6.06
2.2201,-8.6081,-1.471,0.58643,-1.2947,-0.054672,-38.82,60.3,5.76
1.2803,-8.5808,-0.8036,0.39462,-1.6096,-0.037263,-38.94,60.66,5.76
0.89894,-8.4719,-0.47671,0.135,-1.4114,0.057116,-39.24,60.84,6.0
0.54481,-8.0769,-0.23155,-0.076358,-0.89858,0.20189,-39.24,61.02,6.78
0.47671,-7.3277,-0.38137,-0.14661,0.10049,0.15944,-39.24,60.9,7.38
0.7355,-5.9249,-0.7355,-0.01741,0.54092,-0.019242,-39.12,60.54,8.16
1.2122,-2.9965,-1.1577,0.15882,0.58032,-0.21258,-38.7,59.4,9.54
1.3757,-2.7922,-0.92618,0.26328,0.24465,-0.33475,-38.46,58.74,10.44
1.5936,-3.6911,-0.31327,0.27947,-0.32315,-0.34972,-38.22,58.08,11.22
0.89894,-8.0905,0.6674,0.21014,-0.89919,-0.20678,-37.74,56.58,12.84
0.62654,-10.202,1.0215,-0.081245,-1.3995,0.023824,-37.68,55.98,13.74
0.88532,-14.043,1.866,-0.3934,-1.1991,0.18631,-37.38,55.38,14.7
0.8717,-16.086,3.7047,-0.70158,-0.41722,0.17898,-36.54,54.48,16.5
0.1362,-17.039,4.5083,-0.96089,0.74862,0.088881,-36.24,54.0,17.28
0.21793,-17.407,4.1814,-1.0027,1.982,-0.15302,-35.94,53.64,17.7
0.8036,-13.866,2.3155,-0.72754,2.8622,-0.56108,-35.52,52.98,18.36
0.81722,-10.447,1.3484,-0.1127,3.135,-1.0388,-35.52,52.56,18.36
1.0624,-8.3765,0.95342,0.024129,3.0216,-1.0727,-35.52,52.2,18.18
2.152,-8.0769,1.0215,0.25412,2.2565,-0.98166,-35.94,51.78,17.16
2.9284,-9.0575,0.76274,0.21808,1.4487,-0.80604,-36.12,51.3,16.44
3.4459,-9.9292,0.58567,0.058338,0.65393,-0.56933,-36.24,51.0,15.48
2.5198,-9.4798,0.49033,-0.16524,0.085216,-0.28253,-36.66,50.4,13.56
2.1793,-8.7034,0.32689,-0.48289,0.0073304,-0.018631,-36.78,49.92,12.66
1.866,-7.8589,0.14982,-0.61361,0.35277,0.048564,-36.96,49.5,11.52
1.6889,-7.1234,-0.1362,-0.65973,0.8659,0.12828,-37.26,49.08,10.38
2.0975,-7.927,-0.31327,-0.67531,1.4438,0.24374,-37.56,48.24,7.8
2.4517,-9.3027,-0.12258,-0.65637,1.9771,0.41905,-37.68,47.76,6.48
3.1599,-10.719,0.054481,-0.58154,2.2755,0.61667,-37.92,47.46,5.04
4.304,-12.204,0.21793,-0.42852,2.2681,0.93187,-37.68,46.98,2.52
4.5901,-13.144,0.47671,-0.22113,1.9798,1.0638,-37.38,46.8,1.26
5.6252,-14.383,0.28603,0.06353,1.4658,1.3189,-36.9,46.68,0.18
5.9385,-11.291,-0.92618,0.67042,0.14142,1.2764,-35.7,46.56,-1.62
5.4481,-8.9622,-1.7979,0.98105,-1.0015,1.0528,-35.22,46.68,-2.34
4.8352,-8.3765,-1.8524,1.1176,-1.971,0.78038,-34.44,46.86,-3.06
3.5822,-9.398,-1.2803,0.93859,-2.7972,0.32193,-32.94,47.16,-4.44
2.7377,-9.6432,-0.76274,0.61087,-2.6328,0.038179,-32.34,47.46,-5.22
1.5527,-9.1529,-0.36775,0.39401,-2.3002,-0.099876,-31.62,47.46,-5.88
-0.19068,-7.9407,-0.47671,-0.24435,-0.46151,-0.28833,-30.36,47.7,-6.84
0.068102,-7.8589,-0.55843,-0.56322,0.98471,-0.31612,-29.88,47.88,-7.14
0.72188,-7.7636,-0.44947,-0.73121,2.1173,-0.38607,-29.1,47.94,-7.38
1.7843,-8.1177,0.1362,-0.75289,2.8314,-0.42333,-28.26,47.94,-7.74
2.1248,-8.322,0.51757,-0.67837,3.3729,-0.48655,-27.96,47.94,-7.86
2.4789,-8.3629,0.76274,-0.58551,3.3433,-0.50427,-27.6,47.88,-8.1
2.4789,-8.3629,0.76274,-0.45082,3.0171,-0.51557,-27.6,47.88,-8.1
2.9011,-7.6002,0.72188,-0.31643,2.5604,-0.5342,-27.36,47.88,-8.28
2.7649,-7.0962,0.51757,-0.1744,2.0565,-0.54031,-27.18,47.76,-8.76
2.4517,-5.7342,0.040861,-0.050702,1.5556,-0.51801,-26.76,47.46,-9.6
2.1248,-4.9578,-0.38137,0.055894,1.1558,-0.52046,-26.16,46.8,-10.5
1.9886,-4.7944,-0.65378,0.087354,0.71257,-0.48533,-25.74,46.56,-10.92
1.8251,-4.9169,-0.85808,0.026573,0.47739,-0.43097,-25.38,46.32,-11.58
1.1169,-7.0962,-0.62654,-0.12431,0.35308,-0.29902,-24.96,45.6,-13.08
0.98067,-9.9565,0.32689,-0.34697,0.37049,-0.10354,-24.42,45.18,-14.64
1.362,-13.974,1.4438,-0.64141,0.58093,0.14233,-24.06,44.76,-16.26
2.0294,-16.617,2.547,-0.90927,0.99418,0.30635,-23.82,44.7,-17.52
2.3972,-15.745,3.051,-1.1118,1.7648,0.26603,-23.4,44.52,-18.54
2.6015,-14.465,2.7104,-1.0406,2.251,0.10537,-22.92,44.46,-19.26
2.7241,-12.79,1.8387,-0.75869,2.5018,-0.11057,-22.56,44.58,-19.98
2.6151,-10.937,1.0488,-0.41356,2.5229,-0.31704,-22.08,44.58,-20.7
2.7786,-9.8066,1.0624,-0.19059,2.4309,-0.45845,-21.3,45.0,-21.3
2.9011,-9.1393,1.3076,-0.069944,2.0742,-0.41508,-20.34,44.88,-22.08
2.9829,-9.0439,1.1713,-0.15791,1.7037,-0.23579,-19.74,45.0,-22.26
2.8875,-8.8805,0.95342,-0.34086,1.3427,0.0018326,-18.6,44.76,-22.8
2.4517,-8.3765,0.8036,-0.5568,1.0944,0.27122,-17.58,44.82,-23.28
1.757,-8.3493,1.0624,-0.77977,1.0968,0.52351,-16.38,44.64,-23.58
1.6753,-8.4038,1.2122,-0.96731,1.3137,0.7648,-15.84,44.46,-23.82
2.1248,-9.0167,1.757,-1.0971,1.6698,0.95936,-14.58,44.52,-24.18
2.3699,-8.8941,1.6617,-1.1081,2.1958,1.0864,-13.44,44.76,-24.3
2.5606,-8.431,1.3757,-0.97708,2.4034,1.0831,-12.9,44.88,-24.12
3.1872,-7.9815,0.47671,-0.80604,2.302,0.99815,-11.22,45.3,-23.88
3.1599,-9.6023,0.38137,-0.6185,2.0064,0.8882,-9.78,45.9,-23.88
3.5277,-13.116,0.72188,-0.45723,1.5803,0.85765,-7.8,46.26,-23.7
3.7592,-14.724,1.0215,-0.40256,1.1417,0.85796,-6.84,46.32,-23.64
3.4187,-16.848,2.1248,-0.39676,0.82314,0.77061,-4.86,46.74,-23.4
3.051,-17.311,2.0975,-0.41478,0.77458,0.67623,-2.82,47.1,-23.28
3.2008,-16.767,1.7298,-0.25656,0.97036,0.5681,-1.86,47.34,-23.1
3.0918,-13.348,0.32689,0.047342,1.1506,0.3375,-0.06,47.58,-22.8
2.4925,-9.793,-0.76274,0.33292,1.273,0.069639,1.68,47.82,-22.74
2.6151,-8.7579,-1.2122,0.47464,1.3073,-0.14539,3.12,47.58,-22.44
2.7377,-8.7851,-1.1577,0.51801,1.2636,-0.32467,3.78,47.4,-22.38
2.9965,-8.7034,-0.77636,0.32376,0.98471,-0.45784,4.8,46.98,-22.02
2.7786,-8.1313,-0.28603,0.11057,0.79718,-0.46029,5.58,47.04,-21.9
2.438,-7.7364,-0.34051,-0.10263,0.76969,-0.42669,6.0,46.92,-21.9
1.8796,-7.7227,-0.46309,-0.24557,0.91111,-0.34911,6.6,46.56,-21.6
1.7434,-7.3822,-0.62654,-0.32284,1.212,-0.25473,7.08,45.96,-21.36
1.7843,-7.1371,-0.54481,-0.30268,1.6057,-0.16585,7.44,45.72,-21.42
2.1112,-6.5241,-0.39499,-0.24862,1.9627,-0.028711,7.68,45.3,-21.24
2.5198,-6.674,-0.35413,-0.090713,2.0983,0.032681,8.1,45.18,-20.94
2.7513,-6.8374,-0.42223,0.031765,1.8778,0.10385,8.4,44.94,-20.7
2.9692,-7.1915,-0.61292,0.1631,1.5327,0.1741,9.12,44.88,-20.4
2.9556,-8.5127,-0.85808,0.27642,1.1726,0.21625,9.9,44.58,-20.1
2.7786,-9.1256,-0.89894,0.36866,0.90927,0.19761,10.86,44.28,-19.8
1.7706,-9.3436,-0.99429,0.41233,0.87109,0.0956,11.28,44.1,-19.74
0.8036,-11.141,-0.70826,0.30879,1.2343,-0.025045,12.12,43.98,-19.5
0.8717,-12.258,-0.49033,0.15699,1.616,0.055894,12.6,43.68,-19.44
1.9205,-13.988,0.51757,-0.062308,1.9438,0.13408,13.44,43.44,-19.26
2.2201,-12.136,0.69464,-0.23121,2.1139,0.074831,14.22,43.2,-19.14
1.7979,-10.828,0.5993,-0.29902,2.0394,0.018631,14.94,42.9,-19.14
2.2882,-11.986,0.47671,-0.219,1.7523,-0.061087,15.78,42.54,-19.02
2.2882,-12.258,0.44947,0.000305,1.2004,-0.31887,16.14,42.36,-18.84
1.8387,-11.223,0.61292,0.10415,0.98869,-0.43249,16.86,42.12,-18.54
1.7025,-10.283,0.54481,0.14172,1.007,-0.53329,17.58,42.12,-17.88
1.0896,-9.9292,0.19068,0.1182,1.0681,-0.6576,18.24,42.0,-17.4
0.89894,-9.7385,-0.12258,0.079412,1.1066,-0.70097,18.48,42.0,-17.22
0.99429,-8.7306,-0.20431,0.0042761,1.2193,-0.71441,18.84,41.94,-16.74
1.6481,-8.1858,-0.1362,-0.16188,1.3131,-0.61667,19.62,41.7,-16.32
2.0839,-8.2267,0.01362,-0.26237,1.2245,-0.54398,19.98,41.58,-16.08
1.5255,-8.4719,0.040861,-0.37232,1.0159,-0.45143,20.16,41.58,-15.72
1.4165,-8.3629,0.38137,-0.47739,1.0281,-0.43768,20.28,41.64,-15.24
1.6072,-8.322,0.57205,-0.58399,1.1692,-0.42089,20.34,41.58,-15.0
2.3836,-8.8941,0.8717,-0.66432,1.299,-0.38637,20.58,41.4,-14.46
2.4653,-9.6432,0.98067,-0.71807,1.358,-0.42364,20.46,41.58,-14.04
1.58,-9.4525,1.2803,-0.73273,1.3824,-0.46548,20.7,41.64,-13.44
1.3484,-9.5751,1.4301,-0.75136,1.5091,-0.45204,20.76,41.76,-13.08
1.185,-9.6023,1.6072,-0.77091,1.726,-0.38423,20.64,41.82,-12.18
1.2803,-9.5206,1.7706,-0.80512,1.9545,-0.23091,20.34,42.06,-11.58
1.5255,-10.025,1.7025,-0.80756,2.084,0.1179,20.58,42.3,-10.62
1.6753,-10.365,1.6753,-0.79077,2.0064,0.38607,20.64,42.36,-10.2
2.1112,-10.828,1.7025,-0.73823,1.8518,0.63102,20.82,42.48,-9.36
2.4517,-10.283,1.3893,-0.65882,1.6286,0.81642,21.06,42.72,-8.4
2.5879,-9.8339,1.1169,-0.56047,1.3491,0.92913,21.18,42.78,-7.92
2.6968,-9.8066,0.76274,-0.46059,1.0745,0.98533,21.72,42.9,-6.78
2.9692,-11.032,0.50395,-0.35949,0.80634,1.0314,22.08,42.9,-5.94
2.9965,-11.754,0.46309,-0.25229,0.6185,1.0208,22.68,42.96,-5.04
3.0782,-12.0,0.38137,-0.25901,0.59254,0.97616,22.98,43.08,-4.44
3.1599,-11.577,0.23155,-0.25595,0.61117,0.88453,23.76,42.84,-3.42
3.2144,-9.616,-0.31327,-0.22846,0.63897,0.69914,24.3,42.66,-3.0
3.1327,-8.8668,-0.6674,-0.1686,0.67989,0.37263,24.6,42.48,-2.52
2.6015,-8.0632,-1.2667,-0.075442,0.6466,0.014661,25.14,42.42,-1.92
2.438,-8.7715,-1.4982,-0.012828,0.56505,-0.43646,25.56,42.3,-1.44
2.3699,-9.3708,-1.4165,-0.057116,0.54764,-0.62675,25.68,42.18,-1.2
2.1929,-10.161,-1.2122,-0.17226,0.56597,-0.71746,25.74,42.18,-0.78
2.2201,-9.0439,-0.96704,-0.36011,0.71074,-0.7477,25.5,42.0,-0.18
2.0839,-8.3901,-0.99429,-0.52901,0.94165,-0.73945,25.32,42.0,0.06
1.866,-7.641,-1.3484,-0.60567,1.1445,-0.72571,24.84,42.12,0.54
2.0567,-7.5321,-1.6481,-0.60231,1.2724,-0.70158,24.3,42.42,1.26
2.3836,-7.7091,-1.6072,-0.53573,1.2706,-0.66981,23.46,42.78,2.28
2.4789,-8.0496,-1.3757,-0.49633,1.1558,-0.5901,22.98,42.96,2.82
2.547,-8.4174,-1.2258,-0.48839,1.0608,-0.47373,22.14,42.96,3.66
2.3018,-8.431,-1.2258,-0.45754,1.0296,-0.35919,21.18,43.14,4.62
2.2882,-8.2131,-1.1032,-0.40378,1.077,-0.24648,20.52,43.2,5.22
2.3972,-7.246,-1.1713,-0.30024,1.1759,-0.16829,19.68,43.32,6.3
2.6287,-6.4288,-1.58,-0.029627,1.0666,-0.13408,18.84,43.62,7.38
2.833,-6.2654,-1.6753,0.17379,0.75747,-0.085521,18.48,43.62,7.92
3.1599,-6.851,-1.866,0.37263,0.33323,-0.058338,17.46,43.68,8.76
2.9965,-9.398,-1.6753,0.48869,-0.057421,-0.023824,16.74,43.86,9.54
3.0237,-10.896,-1.58,0.50885,-0.27611,0.048869,16.5,43.8,9.84
3.2825,-13.007,-1.1305,0.4273,-0.29016,0.15333,15.96,44.04,10.5
2.7786,-12.326,-0.74912,0.12431,0.019242,0.09163,15.42,44.4,11.22
2.5061,-11.605,-0.44947,-0.10904,0.38973,-0.028405,15.24,44.52,11.58
2.7922,-11.945,-0.27241,-0.27122,0.67959,-0.1292,15.06,44.94,12.12
3.0646,-12.844,-0.17706,-0.35827,0.78893,-0.2138,14.82,45.42,12.6
2.9284,-12.994,0.054481,-0.3598,0.80359,-0.30299,14.88,45.66,13.02
2.547,-11.536,0.40861,-0.32651,0.84635,-0.36011,14.94,46.2,14.1
2.3699,-9.6296,0.44947,-0.18631,0.92821,-0.42699,14.82,46.56,15.0
2.3427,-8.6353,0.27241,-0.014661,0.83933,-0.43585,14.88,46.74,15.48
2.261,-6.674,-0.28603,0.17532,0.59712,-0.39767,14.94,47.16,16.38
2.4517,-5.4345,-0.70826,0.32315,0.25412,-0.30696,15.18,47.46,17.16
2.5061,-5.0531,-0.72188,0.41294,-0.15577,-0.20892,15.3,47.64,17.46
2.4653,-4.3858,-0.77636,0.43463,-0.58368,-0.14447,15.9,48.18,18.18
2.2201,-4.2223,-0.8036,0.35766,-1.0278,-0.12187,16.14,48.42,18.24
1.471,-4.3994,-0.96704,0.23457,-1.1075,-0.091935,16.68,48.6,18.3
1.471,-4.699,-0.96704,0.15913,-1.0855,-0.064141,17.04,48.78,18.06
1.6208,-6.2517,-0.92618,-0.1179,-0.85185,0.046426,17.82,49.2,17.34
1.6753,-8.2676,-0.39499,-0.35491,-0.51924,0.11057,19.02,49.86,16.56
1.6344,-9.3299,-0.12258,-0.58032,-0.036652,0.10568,19.68,50.34,15.96
1.7162,-10.229,0.25879,-0.80084,0.59498,0.040012,20.1,50.64,15.36
2.4244,-11.632,0.5993,-1.0128,1.522,-0.078802,21.54,51.54,14.46
2.7922,-11.373,0.50395,-1.0119,1.9129,-0.17043,21.96,51.9,13.86
3.0646,-10.052,0.32689,-0.91508,2.0702,-0.25779,22.74,52.56,12.66
3.337,-9.6432,0.28603,-0.78588,1.9881,-0.30177,23.1,52.8,12.3
3.7865,-9.1256,0.21793,-0.65943,1.6674,-0.27519,23.46,53.1,12.0
4.018,-8.7306,0.01362,-0.55405,1.1732,-0.17715,23.94,53.46,11.82
4.2223,-8.3493,-0.61292,-0.44196,0.28191,0.02474,24.6,54.0,11.22
4.0997,-8.8668,-0.7355,-0.38668,-0.20678,0.16157,24.9,54.3,11.1
3.8818,-9.7658,-0.68102,-0.35827,-0.51557,0.27184,25.74,54.54,10.68
3.7592,-9.9292,-0.8036,-0.29993,-0.61514,0.38332,26.16,54.72,10.32
3.514,-10.106,-0.88532,-0.15882,-0.53573,0.49999,26.88,54.66,9.78
4.2768,-13.729,-0.49033,-0.039401,-0.46884,0.84299,27.24,54.6,9.48
4.808,-14.015,-0.65378,0.055283,-0.41142,0.9896,27.72,54.54,9.0
4.7399,-12.503,-1.1441,0.39034,-0.4218,1.0058,28.38,54.36,8.34
4.5083,-7.8589,-2.3563,0.57544,-0.80237,0.79535,30.06,54.0,6.9
4.4539,-6.96,-2.6423,0.67653,-1.7886,0.41692,30.72,53.88,5.76
3.3915,-8.1586,-1.6072,0.64874,-2.1567,0.30055,32.4,53.4,3.3
2.6423,-8.8668,-1.0488,0.42577,-2.8023,0.11515,33.18,53.1,1.86
2.1384,-9.2755,-0.89894,0.16096,-2.4963,0.12462,33.96,52.86,0.18
1.1713,-9.5751,-0.76274,-0.087354,-1.6762,0.16432,34.74,52.62,-1.98
0.57205,-8.717,-0.74912,-0.26176,-0.55039,0.15424,35.58,52.26,-6.18
0.85808,-7.7772,-0.7355,-0.26298,0.96028,0.091324,35.88,52.02,-8.34
2.1656,-6.96,-0.74912,-0.14294,1.412,0.097128,36.66,51.72,-12.84
2.6696,-6.4833,-0.85808,0.035736,1.3751,0.12767,36.9,51.72,-15.18
3.0646,-5.6388,-0.7355,0.22663,0.89583,0.17104,37.26,51.54,-17.46
3.4459,-4.127,-0.68102,0.40897,0.057727,0.1689,37.8,51.12,-22.02
3.3778,-3.9908,-0.92618,0.56016,-0.96975,0.13103,37.86,50.94,-24.42
3.1735,-4.9987,-1.0215,0.64416,-1.9896,0.0281,38.04,50.58,-26.94
2.4925,-7.9815,0.040861,0.64599,-3.2009,-0.081856,37.74,49.5,-32.76
2.0975,-11.959,0.47671,0.61545,-3.4877,-0.081856,37.32,48.78,-35.64
1.9613,-13.77,0.8036,0.4331,-3.7076,-0.15791,36.66,47.76,-38.58
0.84446,-17.992,2.6015,-0.064446,-2.9337,-0.54825,34.98,45.48,-44.52
0.92618,-19.341,3.2416,-0.43555,-1.7226,-0.57971,33.72,44.16,-47.64
1.0624,-19.096,2.8058,-0.80665,0.46487,-0.53817,30.6,41.4,-53.82
1.4301,-13.076,1.757,-0.77855,1.639,-0.64599,28.86,40.32,-57.0
1.9613,-10.501,1.1577,-0.59651,2.251,-0.80726,27.3,39.3,-60.12
2.3018,-8.826,0.6674,-0.51801,2.3674,-0.8601,25.32,38.4,-63.12
2.4789,-8.2131,0.50395,-0.36744,2.1469,-0.88637,23.52,37.62,-66.0
2.7241,-8.145,0.40861,-0.32284,1.8433,-0.67348,19.74,36.24,-70.98
3.337,-7.9543,-0.31327,-0.36163,1.1225,-0.19792,18.06,35.88,-72.96
3.8682,-7.8998,-0.35413,-0.47739,0.8491,-0.069639,16.56,35.58,-74.52
3.2961,-7.9679,-0.31327,-0.59193,0.43402,0.10171,14.94,35.64,-75.9
2.3972,-7.0962,-0.68102,-0.72326,0.3824,0.20067,12.42,36.06,-77.82
2.2337,-6.3198,-0.84446,-0.74526,0.6295,0.16616,11.34,36.6,-78.3
2.2065,-5.2166,-1.1169,-0.71838,0.94104,0.074526,10.2,38.04,-78.36
2.3563,-5.1621,-1.2258,-0.62858,1.1426,-0.035736,10.14,38.82,-78.06
2.7649,-6.0883,-1.3757,-0.43188,0.92088,-0.089797,10.2,39.48,-77.64
3.4187,-8.54,-1.3076,-0.3656,0.73548,-0.080023,10.68,40.08,-76.56
3.4732,-10.406,-1.3212,-0.22205,0.30329,-0.0051924,11.04,40.08,-75.9
3.3642,-11.278,-1.2803,-0.043371,-0.21838,0.22174,11.4,39.96,-75.24
3.7047,-14.506,-0.6674,0.035736,-0.3989,0.60689,11.88,39.6,-74.04
3.8682,-14.369,-0.92618,0.16371,-0.35094,0.86193,11.94,39.06,-73.32
3.3642,-10.42,-1.6753,0.32193,-0.25504,0.87812,12.06,38.58,-72.78
3.0646,-8.4174,-2.1112,0.51068,-0.32284,0.67012,12.0,37.38,-71.58
3.0237,-8.3765,-2.0294,0.56627,-0.57635,0.54123,12.0,36.66,-70.98
3.1735,-8.8805,-1.6344,0.56352,-0.96364,0.41172,11.94,35.88,-70.26
2.6015,-9.6296,-1.4165,0.48228,-1.0931,0.42577,11.4,33.9,-69.0
2.3155,-9.1256,-1.3212,0.3824,-0.89767,0.49266,11.04,32.94,-68.64
2.1112,-8.1858,-1.1577,0.28986,-0.50732,0.52565,9.6,31.32,-67.56
2.1929,-7.5729,-1.1169,0.22571,-0.044899,0.52076,8.76,30.54,-66.96
2.4517,-6.8374,-1.2258,0.27306,0.43585,0.37568,7.98,29.94,-66.42
2.5742,-5.9112,-1.2531,0.34697,0.47892,0.26603,7.02,29.52,-65.82
2.7922,-4.4402,-1.3076,0.44563,0.24343,0.11026,5.46,28.38,-64.74
2.7922,-4.4539,-1.4438,0.50885,-0.2303,-0.061697,4.8,27.9,-64.38
2.4653,-5.5571,-1.2939,0.51252,-0.85491,-0.22022,4.2,27.24,-63.9
1.7843,-7.8317,-0.85808,0.44471,-1.423,-0.30116,2.94,26.1,-62.94
1.3212,-10.474,-0.40861,0.15944,-1.7394,-0.19548,2.22,25.5,-62.4
1.2939,-12.476,0.027241,-0.17318,-1.3705,-0.065363,1.68,24.72,-62.1
0.98067,-15.119,1.3348,-0.58307,-0.54917,-0.094684,0.66,23.88,-61.44
0.40861,-15.159,1.7979,-0.94226,0.52412,-0.17776,0.18,23.4,-61.26
0.53119,-15.228,2.1112,-1.1768,1.6582,-0.25962,-0.06,22.8,-61.02
1.7298,-13.089,1.471,-1.1484,2.5806,-0.44104,0.06,22.02,-60.78
2.152,-11.264,0.81722,-0.69333,2.9279,-0.73976,0.3,21.78,-60.72
2.5742,-9.6977,0.40861,-0.53084,2.814,-0.77702,0.72,21.54,-60.66
3.4459,-9.0712,0.32689,-0.15974,2.003,-0.75014,1.68,21.24,-60.24
3.8546,-9.3163,0.28603,-0.039095,1.1732,-0.62247,2.16,21.12,-60.06
3.8001,-9.3844,0.12258,-0.033292,0.33781,-0.41997,2.58,21.12,-59.94
3.2553,-9.221,-0.095342,-0.19334,-0.39798,-0.072388,3.78,21.3,-59.34
2.9011,-8.9213,-0.16344,-0.34819,-0.45143,0.087659,4.44,21.36,-59.16
2.6015,-8.3357,-0.31327,-0.46762,-0.21655,0.18876,4.86,21.78,-58.68
2.0431,-6.5514,-0.74912,-0.55314,0.21533,0.22144,6.0,22.14,-58.02
2.1112,-5.993,-0.92618,-0.5849,0.68447,0.20006,6.66,22.68,-57.36
2.3427,-6.0611,-1.1305,-0.56505,0.97158,0.18876,7.32,23.1,-56.64
3.2144,-8.9622,-1.3212,-0.48228,0.95203,0.36713,8.28,23.34,-55.14
3.7047,-10.937,-1.0624,-0.38118,0.75869,0.61575,8.46,23.34,-54.18
4.0316,-11.931,-1.0079,-0.23915,0.53237,0.85307,8.76,23.34,-53.34
4.5356,-13.716,-0.92618,-0.069639,0.2642,1.087,9.18,23.04,-51.72
5.1349,-15.445,-1.2531,0.14905,-0.054672,1.3295,9.24,23.04,-50.7
5.5435,-14.247,-2.2882,0.43097,-0.4609,1.277,9.42,22.92,-49.8
5.0395,-9.7658,-2.6287,0.67195,-1.4322,0.74037,9.54,22.86,-48.06
4.3313,-8.1041,-2.547,0.686,-1.7798,0.51313,9.42,22.8,-47.22
3.8273,-7.7364,-2.3836,0.62889,-2.39,0.04948,9.24,22.56,-46.44
2.7649,-7.5729,-1.866,0.38118,-2.7865,-0.43249,8.94,22.62,-45.78
1.362,-7.6138,-1.4574,0.15211,-2.5027,-0.54856,7.5,22.2,-44.22
0.6674,-7.9134,-1.3893,-0.054062,-1.8857,-0.46242,6.36,22.02,-43.62
0.43585,-8.1858,-1.1169,-0.19059,-0.51313,-0.18967,5.04,22.08,-42.9
1.3757,-7.069,-1.3757,-0.20525,-0.05284,-0.092852,2.28,22.14,-41.34
1.7706,-5.3528,-1.5119,0.016799,0.82956,0.042761,0.66,22.38,-40.62
1.9477,-4.0997,-1.5663,0.21228,0.84055,0.021075,-1.08,22.68,-39.96
2.547,-1.3076,-1.5663,0.3769,0.31887,-0.047647,-4.38,22.92,-38.7
2.5742,-1.2803,-1.3212,0.4664,-0.64171,-0.19975,-6.0,23.04,-37.98
2.152,-3.0918,0.42223,0.35522,-2.2791,-0.33506,-8.88,22.92,-36.54
1.2667,-10.76,2.0294,0.14752,-2.9709,-0.2306,-10.26,22.86,-35.7
1.076,-15.187,3.3097,-0.14386,-3.1789,0.0956,-11.22,22.8,-34.68
1.1032,-16.903,3.8954,-0.41508,-2.8201,0.29474,-12.06,22.62,-33.48
1.3484,-14.969,3.9635,-0.48533,-2.2095,0.39584,-12.9,22.44,-30.9
1.0351,-14.179,3.5549,-0.34361,-1.3647,0.30024,-12.84,22.32,-29.64
0.21793,-13.729,1.6889,-0.055589,-0.39401,0.12706,-12.48,22.14,-28.26
0.57205,-12.898,0.99429,0.25534,1.0287,-0.076358,-11.46,21.72,-25.92
1.757,-11.332,0.44947,0.25076,1.5867,-0.095906,-10.74,21.42,-24.54
2.2065,-10.515,0.43585,0.073609,1.832,-0.1011,-9.9,21.24,-23.22
2.547,-9.398,1.1577,-0.22724,2.0214,-0.14111,-9.0,21.24,-22.02
2.2474,-8.431,0.28603,-0.48197,2.2049,-0.085827,-6.9,21.3,-19.44
2.4653,-7.641,-0.64016,-0.61667,2.332,-0.018631,-5.82,21.54,-18.36
2.4244,-4.8625,-2.3563,-0.63072,2.3329,-0.04612,-3.3,22.38,-15.96
2.2201,-4.1406,-2.8194,-0.59865,1.8995,-0.22235,-2.1,22.98,-15.0
2.1929,-4.3994,-2.6696,-0.59773,1.3961,-0.21044,-1.02,23.46,-14.04
2.8467,-6.2245,-2.3291,-0.53512,0.8323,-0.011606,0.24,24.06,-13.2
3.9635,-11.128,-2.2065,-0.43616,0.28069,0.33537,2.64,25.32,-11.52
3.8409,-13.607,-2.0567,-0.28375,-0.18723,0.86132,3.78,26.04,-10.68
3.2825,-16.576,-1.3484,-0.13317,-0.16554,1.0015,5.94,27.48,-9.3
2.9829,-13.988,-1.4982,0.018937,0.21808,1.0531,6.96,28.26,-8.76
3.1872,-11.577,-1.8387,0.10293,0.6353,0.8601,7.8,28.92,-8.16
3.3778,-10.256,-1.9613,0.16341,0.67104,0.39859,8.64,29.46,-7.56
3.337,-9.0303,-1.8932,0.18265,0.17501,0.033903,9.96,30.48,-6.6
2.833,-9.4661,-1.6889,0.16493,-0.35522,-0.22083,10.5,31.14,-6.06
2.1112,-9.2891,-1.1032,0.12889,-0.61484,-0.20403,11.22,31.98,-5.58
1.9205,-8.9486,-0.78998,0.070555,-0.52198,-0.022297,11.64,32.22,-5.22
1.9205,-8.9486,-0.78998,0.08827,-0.19426,0.056505,11.64,32.22,-5.22
1.5663,-7.8317,-0.85808,0.14447,0.13653,0.09163,12.12,32.82,-4.98
1.7162,-7.464,-0.96704,0.23335,0.36805,0.091324,12.3,33.12,-4.92
2.0839,-7.1915,-0.92618,0.34361,0.35064,0.090408,12.36,33.66,-5.28
2.4925,-6.7012,-1.1441,0.46853,-0.040928,0.072998,12.06,33.9,-5.46
2.6287,-6.565,-1.1986,0.50793,-0.50305,0.012217,11.64,34.02,-5.46
2.3018,-6.7012,-1.185,0.50305,-1.0241,-0.072998,10.92,34.44,-5.82
1.6481,-8.5127,-0.8036,0.41172,-1.376,-0.16616,9.9,34.74,-6.24
1.4165,-9.5206,-0.70826,0.24648,-1.4453,-0.25504,9.42,34.68,-6.42
0.89894,-11.332,-0.28603,0.039706,-1.2269,-0.32193,8.1,34.62,-6.48
0.31327,-12.994,0.43585,-0.24771,-0.7364,-0.37049,6.6,34.68,-6.48
0.054481,-15.895,1.2395,-0.66615,0.38301,-0.43494,4.86,34.74,-6.36
0.99429,-17.775,1.7298,-0.84788,1.2523,-0.42608,2.88,34.44,-6.0
1.757,-15.405,1.7706,-0.91477,1.9899,-0.53206,0.78,34.14,-5.1
1.6753,-12.054,1.3757,-0.82681,2.3469,-0.69822,-1.32,33.78,-4.2
1.5527,-9.7113,0.8036,-0.61087,2.4245,-0.87323,-3.36,33.3,-2.94
1.8796,-8.8941,0.24517,-0.35064,2.2113,-0.88362,-5.58,32.82,-1.56
2.3836,-8.8941,-0.17706,-0.026573,1.3842,-0.64782,-7.56,32.16,-0.18
2.7377,-8.8668,-0.24517,0.075136,0.71349,-0.34575,-8.52,31.86,0.54
3.1191,-8.5127,-0.01362,0.048258,0.12737,-0.05681,-10.26,31.2,1.8
2.6423,-7.6002,0.027241,-0.025656,-0.30543,0.146,-11.58,30.72,3.24
1.9068,-7.4095,-0.29965,-0.088881,-0.51313,0.25901,-13.02,30.18,4.56
1.9205,-7.6002,-0.47671,-0.15944,-0.35155,0.38515,-13.68,29.82,5.16
2.3427,-8.7715,-0.32689,-0.22969,-0.0061087,0.44043,-14.82,29.4,6.84
2.5061,-9.221,-0.040861,-0.30818,0.36896,0.50488,-15.66,29.04,8.28
2.6151,-9.2618,-0.12258,-0.38301,0.77641,0.51526,-16.08,28.92,8.94
2.8058,-8.7715,-0.21793,-0.42944,1.1188,0.44471,-16.8,29.1,10.62
3.3097,-7.927,-0.54481,-0.43891,1.273,0.33598,-17.52,29.22,12.0
3.3642,-7.4912,-0.89894,-0.39645,1.2019,0.23335,-18.24,29.4,13.86
3.5685,-7.1098,-0.99429,-0.33934,0.92454,0.11209,-18.54,29.46,14.52
3.6094,-7.4912,-1.0624,-0.24771,0.25779,-0.010385,-19.26,29.7,16.02
3.514,-8.3493,-1.1032,-0.20464,-0.13836,-0.038485,-19.86,30.12,17.64
3.3915,-8.8941,-1.0351,-0.1686,-0.38729,-0.0061087,-20.16,30.3,19.08
3.1872,-9.9429,-0.78998,-0.14325,-0.48289,0.099876,-21.0,30.66,19.8
3.0646,-11.128,-0.6674,-0.10843,-0.44685,0.22633,-21.84,31.2,21.48
3.6094,-14.301,-0.17706,-0.073609,-0.30024,0.48869,-22.68,31.8,23.16
3.7592,-13.362,-0.35413,0.085521,0.16646,0.76847,-23.16,32.4,24.96
3.6639,-11.972,-0.54481,0.20036,0.51282,0.6411,-23.34,32.58,25.8
3.5685,-8.6625,-1.1577,0.33628,0.67714,0.36041,-23.64,33.3,27.54
3.6503,-6.456,-1.5255,0.46181,0.49052,0.07025,-23.76,34.02,29.46
3.7047,-6.7966,-1.7979,0.58307,-0.14325,-0.16554,-23.82,34.62,30.9
3.6094,-7.1915,-1.9341,0.64171,-0.9893,-0.23518,-23.7,34.92,31.68
2.7377,-7.4776,-1.7298,0.66493,-1.6585,-0.19242,-23.46,35.64,33.54
2.261,-7.8317,-1.362,0.57574,-1.9358,-0.046731,-22.68,36.24,35.4
1.7025,-8.3357,-1.1986,0.47464,-1.6512,0.049786,-22.2,36.6,36.36
1.0624,-8.4719,-1.0488,0.35613,-1.0232,0.12187,-20.94,37.26,38.58
1.3348,-7.9815,-0.83084,0.26053,-0.12309,0.13103,-20.04,38.34,40.68
2.3836,-6.7285,-0.8036,0.19761,0.58979,0.062919,-19.14,39.42,43.14
2.6423,-5.8295,-0.89894,0.28039,0.73884,-0.15455,-18.84,39.96,44.52
3.1463,-5.1076,-1.3484,0.39095,0.29413,-0.31948,-18.24,41.34,47.04
3.4868,-6.3198,-1.076,0.45845,-0.46914,-0.49052,-17.76,43.14,49.38
2.9011,-9.0303,-0.47671,0.43738,-1.2993,-0.60506,-17.64,45.3,51.72
2.4653,-10.46,-0.14982,0.29719,-1.9086,-0.6298,-18.06,47.7,54.06
1.5391,-13.184,0.58567,0.0094684,-1.9645,-0.61178,-18.36,49.08,55.14
1.1169,-17.829,2.0975,-0.42699,-1.387,-0.53726,-19.32,51.96,57.18
1.4982,-18.891,3.5004,-1.109,0.32345,-0.16646,-20.58,54.9,59.7
1.7025,-15.541,3.6775,-1.405,1.8195,-0.15791,-21.42,56.28,60.96
1.4029,-10.569,2.7104,-1.3821,2.996,-0.4612,-23.58,58.86,63.36
1.471,-6.8647,1.2803,-0.96914,3.4896,-0.86224,-26.46,60.72,65.76
1.8251,-6.5241,0.85808,-0.50305,3.3084,-0.99968,-28.14,61.44,66.84
2.9556,-8.0905,0.14982,0.087659,2.2113,-0.9053,-31.86,62.4,68.34
4.0044,-8.9758,0.55843,0.27061,1.3424,-0.65485,-36.0,63.06,68.94
4.304,-8.9349,0.95342,0.21655,0.51771,-0.3711,-38.1,63.3,68.94
3.7047,-8.6081,1.185,0.0079412,-0.17043,-0.14325,-42.78,63.54,68.76
2.3699,-8.2131,0.5993,-0.21961,-0.47312,0.063225,-46.86,63.3,68.22
2.1112,-8.1586,-0.10896,-0.3934,-0.34331,0.26298,-50.22,63.12,66.9
2.1929,-8.0769,-0.24517,-0.49724,0.080329,0.43585,-51.6,63.36,66.12
2.4789,-8.3493,-0.12258,-0.57696,0.91752,0.64141,-53.76,63.72,64.38
2.8467,-8.7443,0.19068,-0.63072,1.4481,0.67837,-55.02,64.44,61.92
3.1191,-9.4798,0.31327,-0.66676,1.8738,0.65118,-55.5,65.52,59.76
3.3234,-9.7249,0.44947,-0.65149,2.0864,0.59468,-55.56,66.0,58.74
3.8546,-9.6704,0.35413,-0.54978,2.0617,0.50763,-55.2,67.08,56.52
4.0861,-9.9429,0.10896,-0.38057,1.8158,0.38515,-54.24,68.04,54.06
4.7671,-14.574,0.65378,-0.12645,1.0544,0.56902,-53.34,69.0,50.58
5.1894,-16.385,0.95342,0.069028,0.59223,0.78007,-52.92,69.42,48.9
4.8488,-11.577,0.47671,0.25229,0.23243,0.77183,-51.9,70.26,45.72
3.8001,-9.3844,0.47671,0.39156,0.025962,0.66981,-51.18,70.8,44.1
3.4187,-7.7091,-0.65378,0.5226,-0.10415,0.49358,-50.58,71.1,42.6
2.9965,-6.5786,-1.185,0.60384,-0.25351,0.25779,-48.66,72.24,39.84
2.6151,-7.1507,-1.3893,0.5061,-0.36285,0.017715,-46.74,72.9,37.5
2.3836,-7.4776,-1.1441,0.2926,-0.20586,-0.061392,-44.7,73.68,35.64
1.866,-7.7227,-0.24517,-0.0027489,0.18723,-0.12278,-43.68,74.22,34.8
1.471,-8.1177,0.28603,-0.32956,0.80115,-0.13073,-41.64,75.24,33.3
1.2803,-7.9951,0.21793,-0.58796,1.5501,-0.10599,-39.78,76.14,32.4
1.5391,-7.8589,0.25879,-0.76511,2.284,-0.082467,-39.0,76.62,31.86
2.2201,-7.7227,0.44947,-0.76755,3.0577,-0.026878,-37.5,77.46,30.54
2.8194,-7.6002,0.40861,-0.66523,3.292,0.021075,-36.24,78.06,28.62
3.0918,-7.6955,0.28603,-0.52993,3.3152,0.038179,-35.82,78.24,27.54
3.228,-7.3686,0.081722,-0.42028,3.1078,0.017104,-34.86,78.78,25.32
3.2825,-7.4095,0.12258,-0.34697,2.7672,-0.039706,-33.66,79.26,22.68
3.4596,-8.8805,0.1362,-0.31948,2.3182,-0.074831,-32.34,79.62,19.8
3.4051,-9.8339,0.21793,-0.41508,1.6185,-0.01741,-31.62,79.68,18.48
3.1054,-12.313,0.76274,-0.58521,1.3631,0.1237,-29.94,79.92,15.3
2.942,-15.527,1.6072,-0.80023,1.3741,0.31857,-27.6,79.98,12.6
3.228,-16.957,3.2825,-1.0449,1.6044,0.57421,-25.14,80.1,10.32
3.7456,-19.068,4.0725,-1.2071,1.9163,0.80909,-23.76,80.34,9.3
3.7728,-18.129,3.514,-1.1988,2.3815,0.80176,-20.94,80.7,8.04
3.8409,-14.056,2.1929,-0.90225,2.6967,0.58154,-18.36,81.0,7.14
3.2825,-11.931,1.471,-0.197,2.226,0.056505,-17.34,81.3,7.14
2.6015,-10.351,1.0079,0.17868,1.6619,-0.20525,-15.72,81.78,7.14
2.7786,-9.7794,1.1986,0.42119,1.2382,-0.30696,-14.82,82.26,7.38
3.3915,-9.3436,1.185,0.48197,0.86101,-0.34056,-14.7,82.5,7.74
3.6775,-9.0848,1.0896,0.38637,0.48381,-0.32284,-15.24,83.34,8.52
2.8739,-8.5944,0.69464,0.10201,0.11545,-0.26176,-16.92,84.24,9.54
2.2201,-8.0224,0.25879,-0.057421,0.15241,-0.25656,-17.88,84.78,10.08
1.7025,-7.4231,0.12258,-0.20892,0.43402,-0.26481,-20.76,85.68,11.4
1.6481,-7.2052,0.12258,-0.36133,0.86376,-0.25534,-22.5,86.04,12.06
1.5391,-7.2596,-0.01362,-0.47739,1.3231,-0.21502,-26.22,87.06,13.14
1.5391,-7.7908,0.14982,-0.61697,1.7315,-0.16035,-30.0,87.66,14.52
1.7434,-8.7715,0.32689,-0.7532,2.011,-0.080023,-33.84,88.56,16.26
2.2065,-9.6023,0.70826,-0.93035,2.1179,0.12828,-37.62,89.16,18.24
2.4925,-10.174,0.76274,-1.0082,2.0919,0.22235,-39.36,89.34,19.26
2.4517,-10.174,0.6674,-1.0363,2.0397,0.27306,-42.3,89.46,21.54
2.438,-9.4117,0.61292,-1.0241,1.9517,0.31826,-45.18,89.46,24.0
2.5061,-9.0848,0.27241,-0.95845,1.8271,0.31643,-46.38,89.4,25.44
2.6151,-9.8884,0.28603,-0.92027,1.5861,0.36224,-47.46,89.04,26.7
2.8194,-11.387,0.61292,-0.93859,1.3476,0.48411,-48.36,88.86,28.14
2.9556,-13.007,1.2258,-1.0055,1.321,0.69394,-49.8,88.08,31.56
2.9011,-11.387,1.1986,-0.99388,1.5944,0.65027,-50.28,87.36,33.18
2.8603,-9.6023,0.96704,-0.96547,1.7743,0.58032,-50.64,86.7,35.04
2.9556,-8.7034,-1.185,-0.25381,2.1918,-0.018937,-50.64,83.1,40.74
2.9556,-8.7034,-1.185,-0.25381,2.1918,-0.018937,-50.64,83.1,40.74
3.3915,-9.0303,-1.5527,0.051618,2.0116,-0.18295,-50.16,81.72,42.6
4.2223,-9.7658,-1.7025,0.24862,1.2544,-0.27978,-49.08,79.02,45.96
4.2632,-9.507,-1.3757,0.14294,0.63072,-0.31093,-48.18,77.46,47.4
3.3234,-8.2676,-0.85808,-0.066279,0.15455,-0.34575,-46.08,74.16,50.28
2.6832,-7.6138,-1.0488,-0.28222,-0.029322,-0.39004,-44.76,72.42,51.48
2.0975,-7.1915,-1.4438,-0.44502,0.13897,-0.42425,-43.26,70.92,52.62
1.5936,-6.8374,-1.9341,-0.51465,0.55833,-0.44715,-39.84,67.5,54.54
1.6753,-7.1234,-1.7162,-0.52901,1.0956,-0.44715,-38.04,65.94,55.02
1.866,-7.4095,-1.5663,-0.50152,1.8442,-0.35919,-36.42,64.62,55.32
2.2882,-7.8726,-1.1032,-0.48869,2.2013,-0.24496,-33.0,62.04,55.26
2.5606,-8.0632,-1.0624,-0.48075,2.3891,-0.062308,-31.62,61.02,54.9
3.0237,-8.4038,-1.076,-0.46395,2.3476,-0.0018326,-28.56,59.4,53.82
3.1054,-8.4446,-1.076,-0.34239,2.0675,0.13653,-27.42,58.62,53.04
3.1872,-8.2812,-1.1169,-0.20433,1.813,0.21502,-26.16,57.84,52.2
3.337,-8.1586,-1.2803,-0.029016,1.5058,0.28069,-24.12,57.0,50.1
3.3778,-8.7306,-1.4029,0.12706,1.179,0.32926,-23.28,56.64,48.84
3.337,-9.3844,-1.1577,0.22938,0.91263,0.33659,-21.78,56.16,46.2
3.2553,-12.354,-0.7355,0.26756,0.79596,0.38026,-21.3,56.1,44.46
3.6366,-13.866,-0.39499,0.1686,0.86957,0.60109,-20.94,55.98,43.02
3.7728,-14.152,-0.25879,0.035125,1.0687,0.62186,-20.52,55.98,41.34
3.0101,-10.801,0.027241,-0.10873,1.3833,0.46395,-19.56,55.98,38.22
2.8603,-8.9894,-0.081722,-0.18173,1.7107,0.26053,-19.2,56.04,36.66
3.0646,-7.6002,-0.47671,-0.12156,1.8091,0.07086,-18.6,56.16,35.28
3.4187,-7.4367,-1.0079,0.081245,1.4572,-0.087048,-17.94,56.28,32.52
3.7865,-8.4719,-0.88532,0.15821,1.0409,-0.061392,-17.52,56.46,31.26
4.0316,-9.7658,-0.58567,0.1518,0.6185,-0.030238,-17.04,56.58,30.0
4.2223,-12.217,0.23155,0.030543,0.33598,-0.027489,-16.2,56.7,27.54
3.4323,-12.585,0.51757,-0.13775,0.3262,-0.14478,-15.72,56.88,26.46
2.9284,-11.673,0.47671,-0.35827,0.80146,-0.44563,-15.06,56.88,24.42
2.5061,-9.6432,0.12258,-0.36805,1.208,-0.65668,-14.76,56.82,23.7
2.6423,-9.0439,-0.21793,-0.3427,1.3638,-0.75686,-14.46,56.76,22.92
2.7513,-8.7987,-0.38137,-0.26664,1.5275,-0.92118,-14.34,56.64,22.26
2.9965,-8.7034,-0.46309,-0.17471,1.4215,-1.0592,-14.28,56.22,20.76
3.0237,-8.6625,-0.34051,-0.17776,1.1817,-1.0583,-14.16,55.98,19.92
3.1872,-8.8668,-0.38137,-0.25748,0.85124,-0.97952,-14.34,55.62,19.14
2.5061,-8.9486,-0.12258,-0.44257,0.49938,-0.79535,-14.52,55.2,17.58
2.0294,-8.9894,-0.10896,-0.51557,0.49236,-0.72479,-14.7,54.66,16.86
1.7298,-9.1393,0.054481,-0.64324,0.63683,-0.52931,-14.94,54.42,16.14
1.5527,-9.4798,0.21793,-0.80359,1.1081,-0.25107,-15.48,53.58,15.0
1.6617,-9.398,0.42223,-0.8714,1.4597,-0.090713,-15.72,53.1,14.46
1.9886,-8.9894,0.38137,-0.90469,1.7727,0.14233,-16.08,52.62,13.74
2.3427,-8.9349,0.51757,-0.87476,1.7681,0.27886,-16.2,52.32,13.2
2.9556,-9.0575,0.54481,-0.78527,1.5989,0.34178,-16.74,51.42,11.64
3.3097,-9.3299,0.5993,-0.60842,0.99143,0.55528,-16.98,51.06,10.98
3.3234,-9.4798,0.5993,-0.49786,0.53451,0.71319,-17.16,50.94,10.32
3.2416,-9.6023,0.53119,-0.41905,0.25748,0.85155,-17.16,50.82,9.6
2.8058,-8.7034,0.095342,-0.36896,0.17318,0.93523,-16.98,50.34,8.28
2.8058,-8.9894,0.095342,-0.3317,0.1857,1.0357,-16.74,50.16,7.74
2.8603,-11.155,0.23155,-0.3375,0.20464,1.095,-16.14,50.1,6.72
2.9011,-12.667,0.43585,-0.40897,0.34972,1.2944,-15.84,50.1,6.18
3.1191,-13.375,0.57205,-0.4499,0.59437,1.4175,-15.18,50.22,5.7
3.3642,-12.517,0.39499,-0.42883,0.88392,1.3689,-14.64,50.04,5.16
3.8001,-9.0575,-0.44947,-0.33628,1.0385,1.1237,-13.68,50.16,4.2
3.8137,-8.322,-0.98067,-0.088575,0.85216,0.51588,-13.2,50.16,3.72
3.4323,-9.1937,-1.471,-0.010385,0.7028,0.3036,-12.42,50.28,3.18
3.3778,-9.9701,-1.5663,0.10049,0.40959,-0.057421,-11.16,50.52,2.28
3.4732,-10.188,-1.5119,0.1182,0.19853,-0.29596,-10.68,50.46,1.8
3.4732,-10.052,-1.362,-0.050091,-0.0076358,-0.42333,-10.26,50.4,1.2
3.1735,-8.4991,-0.92618,-0.20647,0.0061087,-0.41386,-9.66,50.58,0.24
2.6968,-7.5593,-1.0624,-0.32284,0.26481,-0.41966,-9.6,50.46,-0.3
2.3836,-6.3743,-1.4846,-0.36163,0.36805,-0.43585,-9.3,50.28,-1.44
2.4789,-5.993,-1.6072,-0.29383,0.57391,-0.4725,-9.18,50.22,-2.04
2.5334,-6.0202,-1.362,-0.25351,0.58002,-0.46334,-9.3,50.1,-2.58
2.6968,-6.1836,-1.1169,-0.16982,0.49388,-0.36774,-9.54,50.16,-3.24
2.8739,-6.7012,-1.0488,-0.11301,0.39828,-0.26878,-9.9,49.98,-4.74
2.9829,-7.0281,-1.076,-0.027794,0.25229,-0.19242,-10.32,50.1,-5.46
2.7377,-6.96,-1.3076,0.15058,0.030849,-0.15699,-11.28,50.1,-6.66
2.5742,-7.0962,-1.3893,0.28924,-0.12004,-0.1744,-11.64,50.04,-7.32
2.5742,-7.0962,-1.3893,0.41356,-0.31246,-0.19334,-11.64,50.04,-7.32
2.4517,-8.0632,-1.6753,0.52565,-0.61972,-0.20097,-12.6,49.86,-8.82
2.1929,-8.6353,-1.7434,0.57177,-0.9276,-0.21533,-13.08,49.8,-9.54
1.5119,-9.0848,-1.3212,0.55192,-1.077,-0.21014,-13.92,49.8,-11.16
1.1713,-9.0031,-1.2258,0.38759,-0.92913,-0.13256,-14.52,49.68,-11.94
0.85808,-8.8668,-1.0351,0.26878,-0.63713,-0.026573,-15.12,49.56,-12.72
0.99429,-8.2812,-0.92618,0.18021,-0.27061,0.093157,-16.44,49.26,-14.58
1.2803,-7.641,-0.8036,0.13164,0.04948,0.15913,-17.04,49.2,-15.48
1.3484,-6.4833,-0.85808,0.1292,0.23671,0.16127,-17.58,49.2,-16.14
1.4165,-3.6094,-0.96704,0.17318,0.22755,0.057727,-18.36,48.9,-18.06
1.5936,-2.833,-1.0488,0.2251,-0.047342,-0.047647,-18.72,48.66,-19.14
1.7706,-3.1463,-1.1032,0.22083,-0.54153,-0.14783,-19.08,48.42,-20.22
1.5663,-4.5492,-0.76274,0.17593,-0.82192,-0.18937,-19.44,48.12,-21.18
1.0079,-9.5479,0.8036,-0.07758,-1.3039,-0.18082,-19.98,47.28,-23.28
1.5391,-13.661,1.8932,-0.37629,-1.1099,-0.087048,-20.16,46.68,-24.36
1.9886,-16.249,3.1872,-0.7367,-0.42699,-0.025351,-20.4,46.02,-25.38
2.0839,-17.856,3.4596,-1.1051,0.90561,0.0064141,-20.58,44.82,-27.42
2.3018,-18.387,3.1872,-1.117,1.9102,-0.019242,-20.34,44.04,-28.14
2.6423,-16.385,2.2474,-0.85918,2.6918,-0.20983,-19.92,43.32,-28.8
2.6015,-11.686,0.88532,-0.53634,3.0045,-0.51007,-19.2,41.88,-30.24
2.8058,-9.3844,0.72188,-0.29108,2.9997,-0.65149,-18.78,41.04,-31.14
3.3506,-8.2812,0.89894,-0.10415,2.656,-0.61758,-18.24,40.2,-31.8
4.0316,-7.4503,-0.35413,-0.017715,1.9609,-0.35491,-17.04,38.64,-33.12
4.413,-7.7227,-0.92618,-0.012523,0.97769,-0.208,-16.38,37.86,-33.72
4.2495,-8.0769,-1.0079,-0.10049,0.01069,0.07422,-15.54,37.02,-34.2
3.2008,-8.322,-0.57205,-0.3879,-0.68814,0.36285,-14.1,35.64,-34.74
2.5879,-8.1722,-0.61292,-0.60598,-0.64141,0.48319,-13.56,35.1,-34.92
2.2337,-7.6683,-0.83084,-0.77488,-0.25901,0.51191,-12.84,34.56,-35.04
1.8387,-7.0553,-1.471,-0.91752,0.73426,0.36469,-11.46,33.9,-35.22
2.1112,-7.355,-1.6344,-0.90652,1.2807,0.22113,-10.86,33.6,-35.52
2.547,-8.54,-1.5255,-0.83383,1.5382,0.18112,-10.26,33.24,-35.7
3.1872,-10.161,-1.2803,-0.7083,1.5266,0.23243,-9.54,32.88,-35.7
4.0589,-13.743,-0.57205,-0.56413,1.2785,0.4047,-8.16,32.1,-35.46
4.6854,-16.467,0.12258,-0.41356,0.92027,0.82742,-7.5,31.68,-35.28
5.4073,-17.311,-0.51757,-0.010385,0.55131,1.1671,-6.12,30.72,-34.8
5.0668,-10.529,-1.4165,0.34697,0.10904,1.1402,-5.52,30.36,-34.62
5.1076,-7.9951,-2.2065,0.65271,-0.66523,0.98166,-5.1,30.18,-34.5
5.1213,-7.3822,-2.4517,0.82803,-1.7675,0.77977,-4.44,29.88,-34.38
4.6037,-8.7306,-1.7162,0.88698,-2.861,0.47617,-2.94,29.28,-34.56
3.6775,-9.4389,-1.1305,0.7813,-3.4508,0.2584,-2.52,28.86,-34.68
2.3699,-9.0984,-0.8717,0.54184,-3.3601,0.071471,-2.1,28.38,-34.8
1.471,-8.2131,-0.96704,0.22266,-2.7495,-0.067195,-1.56,26.82,-35.52
0.95342,-7.4503,-1.2803,-0.03879,-1.7645,-0.20372,-1.56,26.16,-35.88
0.70826,-7.1234,-1.2531,-0.28863,-0.1066,-0.40348,-1.56,25.32,-36.42
1.2803,-6.0883,-1.0896,-0.29963,0.74678,-0.48197,-1.8,23.76,-37.98
1.7025,-5.9521,-0.95342,-0.23946,1.2315,-0.49602,-1.8,22.98,-39.06
2.1929,-5.8159,-0.72188,-0.1292,1.3916,-0.47434,-1.86,21.42,-41.34
2.8058,-5.1621,-0.5993,-0.0042761,1.2333,-0.39309,-1.68,20.34,-42.48
2.833,-5.0531,-0.55843,0.11454,0.74984,-0.27489,-1.38,19.14,-43.56
2.6151,-5.1894,-0.14982,0.18845,0.087354,-0.1295,-0.96,17.88,-44.82
1.9205,-7.6683,0.095342,0.24129,-0.8039,0.012828,-0.18,15.3,-46.8
1.3757,-9.4389,0.40861,0.21961,-1.1383,0.10201,0.48,13.68,-47.76
1.0896,-11.686,1.1305,0.14294,-1.2147,0.17471,2.04,10.44,-49.2
0.8717,-13.77,1.4846,-0.061392,-0.98533,0.197,2.82,8.82,-49.68
0.31327,-14.478,1.8932,-0.2022,-0.58215,0.12065,3.72,6.84,-50.1
0.25879,-15.786,2.1656,-0.25931,-0.36102,0.094379,4.5,5.16,-50.34
1.1441,-18.02,2.3155,-0.33139,0.45418,-0.040012,6.06,1.68,-50.04
1.2395,-16.004,1.9613,-0.27122,0.956,-0.26176,6.6,0.24,-49.68
1.076,-13.511,1.3757,-0.14813,1.2798,-0.51068,7.26,-1.26,-49.44
1.6344,-10.637,0.6674,0.065668,1.4206,-0.8375,8.52,-4.26,-48.42
2.3836,-9.8884,0.38137,0.15944,1.2633,-0.92974,8.82,-5.64,-48.12
2.6968,-9.3708,-0.12258,0.20556,1.0916,-0.93737,8.94,-6.84,-47.58
2.9692,-7.9679,-0.31327,0.19303,0.28924,-0.77397,9.36,-8.52,-46.98
3.0646,-7.4776,-0.31327,0.097433,-0.24374,-0.62094,9.36,-9.24,-46.68
2.6832,-7.2188,-0.19068,-0.038179,-0.61636,-0.45815,9.36,-9.72,-46.38
2.1248,-6.9872,-0.38137,-0.22388,-0.77091,-0.15211,9.24,-10.2,-46.5
1.9477,-7.1507,-0.36775,-0.27825,-0.70433,-0.03543,9.06,-10.08,-46.68
1.975,-7.3958,-0.28603,-0.43585,-0.17257,0.2364,9.0,-9.9,-46.8
2.2065,-8.1177,-0.21793,-0.5342,0.2978,0.35033,9.06,-9.78,-46.98
2.4789,-9.3572,-0.027241,-0.63133,0.79748,0.41875,8.82,-9.24,-47.28
2.7786,-9.7385,0.095342,-0.72235,1.211,0.45693,8.52,-8.88,-47.28
3.2689,-9.9292,0.28603,-0.79412,1.482,0.50488,8.1,-7.44,-47.22
3.7047,-10.079,0.24517,-0.79932,1.4917,0.52565,8.1,-7.44,-47.22
3.9499,-9.9292,0.35413,-0.77091,1.4361,0.55283,8.1,-5.82,-46.8
4.1814,-9.902,0.27241,-0.70005,1.2669,0.56719,7.98,-5.1,-46.44
4.2223,-9.6432,0.20431,-0.5284,0.85246,0.54642,8.04,-4.2,-46.08
4.1542,-8.9077,-0.16344,-0.36224,0.51496,0.50488,8.16,-1.98,-45.48
4.1542,-8.4038,-0.54481,-0.1069,-0.028711,0.39645,8.46,-0.84,-45.12
4.1678,-8.8396,-0.8036,-0.02138,-0.23579,0.36713,8.82,1.44,-44.28
4.2768,-11.577,-0.54481,0.15363,-0.96059,0.55528,8.88,2.52,-44.16
4.6037,-13.838,-0.068102,0.27,-1.2944,0.85094,8.82,3.72,-44.28
4.7126,-14.22,-0.38137,0.35277,-1.3949,0.92699,8.52,5.58,-44.4
4.0725,-11.046,-0.85808,0.47464,-1.3146,0.77274,8.34,6.42,-44.7
3.4732,-6.279,-2.1248,0.60109,-1.1185,0.23427,6.9,7.86,-45.9
3.4187,-5.6933,-2.3427,0.6182,-1.1496,0.042761,5.82,8.28,-46.8
3.4868,-6.1973,-2.1929,0.58887,-1.7281,-0.39828,4.5,9.06,-47.76
3.2825,-6.8374,-1.9613,0.47159,-2.1286,-0.53726,2.76,9.6,-48.9
2.1793,-7.7091,-0.92618,0.25045,-2.1878,-0.52137,-1.56,10.44,-51.18
1.2395,-8.4038,-0.78998,0.011606,-1.8772,-0.41417,-4.2,10.68,-52.38
0.43585,-8.5808,-0.8036,-0.25809,-0.7929,-0.13531,-10.02,11.1,-54.84
0.40861,-7.8998,-0.96704,-0.29291,-0.32742,-0.028405,-13.26,11.34,-56.04
1.3212,-7.8317,-0.83084,-0.27,0.53084,0.16768,-16.38,11.52,-57.12
1.7298,-7.9134,-0.72188,-0.15027,1.1041,0.30604,-19.56,11.64,-58.14
2.5742,-6.7285,-0.43585,0.12187,1.2055,0.41753,-25.68,12.0,-60.0
2.9556,-5.4209,-0.74912,0.34422,0.74617,0.33872,-28.62,12.12,-60.72
3.5413,-3.1872,-2.3155,0.61881,-0.75992,-0.021075,-34.2,11.82,-61.32
3.1872,-2.6696,-2.6015,0.58857,-1.846,-0.45418,-36.84,11.58,-61.02
2.6015,-2.8467,-2.2474,0.50916,-2.2727,-0.68295,-39.36,11.04,-60.42
1.0215,-4.7944,-0.6674,0.088881,-2.7669,-1.1148,-41.82,10.32,-59.28
0.39499,-11.237,1.1441,-0.32498,-2.4273,-1.1335,-45.78,8.58,-55.74
0.83084,-17.339,2.0975,-0.96578,-1.4899,-0.98807,-47.1,7.68,-53.22
0.89894,-17.407,3.0237,-1.4688,-0.14936,-0.84971,-48.24,6.66,-50.22
1.4982,-16.249,2.5879,-1.5983,1.1808,-0.69944,-49.14,4.14,-43.38
2.8058,-15.663,1.7434,-1.1023,2.6741,-0.49755,-49.26,3.24,-39.54
3.1735,-13.021,1.0624,-0.59559,2.9352,-0.65607,-49.14,2.28,-35.58
2.6696,-10.147,0.7355,-0.15485,2.7678,-0.84208,-48.9,1.5,-31.62
2.9148,-7.7364,0.51757,0.19212,2.3204,-0.82681,-48.36,0.18,-23.82
3.7047,-7.8045,0.50395,0.40623,1.4438,-0.69516,-47.94,-0.12,-20.34
4.6718,-9.4798,0.095342,0.44104,-0.41783,-0.37202,-46.68,-0.24,-13.44
4.5356,-9.9429,-0.068102,0.28955,-1.42,-0.072388,-46.02,-0.24,-10.32
4.2359,-10.052,-0.095342,0.18204,-1.7379,0.041844,-45.18,0.3,-7.5
3.7047,-8.9894,-0.47671,-0.13531,-1.9154,0.23213,-43.38,1.86,-3.06
2.8739,-7.9543,-1.2122,-0.25259,-1.5525,0.23732,-42.6,2.7,-1.26
2.3018,-6.9328,-1.6344,-0.29841,-0.85857,0.17226,-41.76,3.66,0.3
2.547,-7.2733,-2.0567,-0.3427,0.25656,0.10782,-40.62,5.88,2.34
3.3506,-8.7306,-1.7979,-0.35247,0.69486,0.10201,-40.14,6.78,3.12
3.5277,-9.2891,-1.6344,-0.34636,0.90408,0.18326,-39.84,7.74,3.72
3.6775,-10.542,-1.2667,-0.35216,0.9612,0.48289,-39.72,8.58,4.26
4.6718,-13.934,-0.61292,-0.26206,0.99693,0.91263,-39.3,10.08,5.34
4.8352,-11.101,-1.1577,-0.033903,0.92974,1.1133,-39.0,10.86,6.06
5.1757,-9.0848,-2.1384,0.38087,0.36224,1.1692,-38.52,12.42,7.08
5.598,-9.7385,-2.4517,0.6576,-0.36133,1.0779,-38.16,13.26,7.5
5.4209,-10.311,-2.4244,0.83597,-1.2422,0.83963,-37.68,14.34,7.86
5.0395,-10.515,-2.152,0.8543,-1.971,0.54642,-37.2,15.12,8.28
3.3506,-9.9565,-1.5119,0.72876,-2.2614,0.26053,-35.94,16.74,8.64
2.5742,-9.616,-1.1441,0.49999,-2.1185,0.020769,-35.28,17.46,8.82
1.7298,-9.1937,-1.1169,0.12706,-1.3146,-0.1295,-34.14,19.02,9.24
1.185,-8.4719,-1.0896,0.025656,-0.96364,-0.12431,-33.42,19.62,9.42
1.3757,-7.8589,-1.1305,-0.11332,0.097128,-0.088575,-32.7,20.16,9.72
1.7025,-7.2188,-1.2531,-0.048869,0.55253,-0.051924,-31.74,20.94,9.96
2.547,-6.1155,-1.5527,0.084299,0.72601,-0.048564,-30.12,21.96,10.26
3.1191,-5.489,-1.5255,0.22205,0.43402,-0.085216,-29.46,22.26,10.44
3.4459,-5.2166,-1.0351,0.33414,-0.20922,-0.15027,-28.62,22.62,10.62
3.2553,-5.2166,-1.0079,0.41997,-0.90194,-0.24984,-27.12,22.86,11.22
2.8603,-5.7614,-1.1713,0.4444,-1.4114,-0.37049,-26.4,22.74,11.64
2.7649,-6.4152,-1.1305,0.3882,-1.8625,-0.46731,-25.8,22.8,12.06
2.547,-8.9894,-1.1713,0.27703,-1.9426,-0.46976,-24.78,23.04,12.78
2.438,-9.8339,-1.0215,0.089797,-1.8179,-0.40623,-24.36,23.16,13.14
2.4108,-10.637,-0.62654,-0.15547,-1.4591,-0.31765,-23.82,23.1,13.56
2.8603,-15.228,0.24517,-0.59498,-0.64416,-0.080023,-23.22,23.64,14.46
3.3506,-17.121,0.70826,-0.8656,0.10263,0.19975,-22.86,23.82,14.76
3.9227,-16.903,1.0215,-1.0684,0.86499,0.3427,-22.68,23.88,15.42
4.4402,-13.579,0.92618,-1.1839,1.4248,0.22235,-22.5,24.24,17.04
4.3585,-11.877,0.91256,-1.1438,1.766,-0.04948,-22.32,24.48,17.7
4.1133,-10.624,0.72188,-0.97341,1.8295,-0.4328,-22.14,24.42,18.36
3.5413,-9.6977,0.10896,-0.60751,1.6304,-0.94501,-22.2,24.3,19.74
3.7728,-9.3844,-0.01362,-0.40836,1.416,-1.1191,-22.32,24.3,20.22
3.8954,-8.9622,-0.095342,-0.28802,1.1411,-1.2413,-22.62,24.12,20.7
3.7865,-8.3493,-0.095342,-0.25107,0.78985,-1.292,-23.04,23.52,21.3
3.4459,-8.0632,-0.34051,-0.2926,0.41325,-1.27,-23.4,23.22,21.36
3.051,-7.8862,-0.27241,-0.37263,0.048258,-1.1851,-23.7,22.98,21.36
2.5061,-8.1722,-0.24517,-0.51068,-0.15669,-0.91202,-24.36,21.84,21.42
2.1112,-8.1586,-0.32689,-0.55222,-0.095295,-0.79412,-24.84,21.3,21.3
2.0294,-7.7227,-0.31327,-0.62522,0.18601,-0.53359,-25.32,20.7,21.12
2.438,-8.0224,-0.62654,-0.66554,0.76205,-0.12248,-26.22,19.5,20.52
2.8603,-8.1858,-1.1169,-0.63438,1.1051,0.15882,-26.76,18.96,20.22
3.6503,-7.7636,-1.8251,-0.54856,1.3326,0.46304,-27.96,18.48,19.68
6.2517,-7.4367,-2.6968,-0.42669,1.1774,0.65454,-28.5,18.12,19.2
7.3005,-8.4446,-2.5061,-0.34392,0.98655,0.75014,-29.1,18.0,18.84
8.3765,-11.032,-1.9341,-0.1628,0.41447,1.0592,-29.4,17.82,18.36
10.079,-14.601,-1.3212,0.12248,-0.28588,1.4832,-30.24,17.88,17.82
9.902,-12.708,-1.8251,0.37874,-0.63988,1.3659,-30.6,18.06,17.58
9.2891,-10.978,-2.5061,0.64721,-1.0174,1.0547,-30.9,18.24,17.34
7.8589,-8.717,-2.9284,0.89278,-1.6973,0.40897,-31.38,18.84,16.92
7.2869,-7.927,-2.6423,0.91263,-1.9609,0.19639,-31.44,19.08,16.62
6.8102,-7.4912,-2.4789,0.80909,-2.6603,-0.32987,-31.44,19.2,16.44
5.1213,-7.0962,-2.0294,0.63286,-2.8075,-0.56627,-30.96,19.62,15.96
4.2904,-6.96,-2.0294,0.41814,-2.6539,-0.70341,-30.66,19.8,15.9
3.4187,-6.7012,-2.2337,0.21441,-2.3027,-0.84147,-30.18,19.86,15.72
2.152,-6.1019,-2.1248,0.018937,-1.7956,-1.0229,-28.98,19.92,15.78
1.8932,-6.0202,-2.0567,-0.15638,-1.1426,-1.0687,-28.38,19.86,15.84
1.7298,-6.2245,-1.866,-0.3317,-0.42761,-1.1594,-27.78,19.74,16.02
1.7706,-7.2052,-1.7025,-0.55253,0.43646,-1.1753,-26.52,19.32,16.02
1.7162,-7.6002,-1.4438,-0.63255,0.85552,-1.1127,-26.04,18.84,15.96
1.7025,-7.4503,-1.2258,-0.66706,1.1561,-1.0012,-25.62,18.48,15.96
1.7434,-6.8783,-1.0624,-0.57421,1.3549,-0.74862,-24.66,17.64,15.66
1.9613,-6.8374,-0.92618,-0.45357,1.3341,-0.51435,-24.42,17.28,15.54
2.0294,-6.851,-0.88532,-0.26817,1.193,-0.26786,-24.0,16.98,15.24
2.4108,-6.6467,-0.77636,-0.068722,0.94379,-0.047953,-23.88,16.32,14.76
2.4517,-6.0611,-0.77636,0.13836,0.58979,0.099571,-23.82,16.08,14.28
2.5061,-5.6388,-0.7355,0.3262,0.17257,0.17746,-23.76,15.78,13.92
2.5879,-6.7557,-0.8717,0.45204,-0.48258,0.23976,-23.64,15.6,13.14
2.6832,-7.5457,-1.0488,0.53267,-0.82222,0.35613,-23.4,15.42,12.78
3.0237,-9.6977,-1.1169,0.48625,-1.0162,0.52687,-23.22,15.42,12.36
3.623,-12.871,-0.96704,0.34728,-1.0684,0.686,-22.62,15.54,12.12
3.5413,-13.525,-0.6674,0.11912,-0.88606,0.72846,-22.02,15.78,12.06
2.9284,-13.184,-0.10896,-0.21411,-0.37751,0.64202,-21.54,15.9,12.12
2.5606,-14.547,0.19068,-0.5003,0.82253,0.55253,-20.64,16.56,12.48
2.9011,-15.268,0.095342,-0.81215,1.6573,0.57421,-19.92,16.8,12.84
3.3778,-14.628,0.23155,-0.89034,2.31,0.58857,-19.56,17.28,13.38
3.8818,-10.787,0.27241,-0.88117,2.7367,0.52748,-18.48,17.94,14.58
3.9227,-8.9077,0.38137,-0.83353,2.9089,0.39187,-18.0,18.24,15.36
3.8954,-7.6955,0.21793,-0.70952,2.7797,0.24465,-17.76,18.6,16.02
4.127,-7.246,-0.31327,-0.57299,2.299,0.22846,-17.52,19.14,17.4
4.3449,-7.5457,-0.47671,-0.42486,1.284,0.43799,-17.82,19.44,18.0
4.5356,-7.9815,-0.72188,-0.39676,0.94012,0.53695,-17.94,19.8,18.78
4.7944,-8.4991,-0.61292,-0.44074,0.13256,0.83902,-18.9,20.58,20.04
4.3177,-8.6081,-0.28603,-0.55558,-0.07758,0.98502,-19.62,20.88,20.64
3.9635,-8.4582,-0.28603,-0.70372,0.016799,1.0996,-20.4,21.36,21.18
3.5958,-8.3493,-0.64016,-0.82589,0.38576,1.1735,-22.02,22.26,22.2
3.8137,-8.4174,-0.70826,-0.98044,1.1726,1.1823,-23.22,22.74,22.38
4.0725,-8.9077,-0.6674,-1.0177,1.4138,1.189,-24.18,23.22,22.56
5.0123,-10.842,-0.17706,-1.1332,1.9896,1.288,-26.28,24.36,22.26
5.4481,-11.441,-0.17706,-1.1771,2.2575,1.3436,-27.36,24.96,22.02
5.7205,-12.231,0.17706,-1.1771,2.4425,1.3961,-28.32,25.62,21.54
6.7829,-16.276,1.1713,-1.1109,2.606,1.6032,-30.0,27.24,20.16
7.0145,-15.772,1.2667,-0.74373,2.8769,1.6863,-30.54,28.08,19.5
7.2052,-12.204,0.40861,-0.54153,2.8136,1.624,-31.14,28.92,18.48
6.9736,-9.4117,-0.85808,0.26756,2.0916,1.2889,-31.56,30.3,16.14
6.7557,-8.3357,-1.8387,0.748,1.0415,0.98594,-31.62,30.78,14.94
6.4152,-9.0303,-2.1929,1.0629,-0.28222,0.71899,-31.32,32.04,12.12
6.0202,-9.6977,-2.0975,1.1646,-1.4224,0.47525,-31.08,32.58,10.74
5.4618,-9.3708,-1.7706,0.94684,-2.3027,0.13928,-30.42,33.0,9.48
4.5901,-8.4446,-1.362,0.81092,-2.3298,0.036957,-30.06,33.3,8.22
2.3427,-6.4152,-1.6481,0.39126,-1.7214,-0.14844,-28.62,33.9,6.3
1.5527,-5.8295,-1.9613,0.17196,-0.90133,-0.21319,-27.78,34.14,5.52
1.3212,-5.3119,-2.4653,0.061392,-0.43646,-0.3427,-27.0,34.38,4.86
1.7843,-4.9033,-2.7104,0.04948,0.63438,-0.49388,-25.38,34.32,3.96
2.2882,-5.094,-2.4108,0.080634,1.0644,-0.59773,-24.6,34.26,3.6
2.6151,-5.5435,-2.1656,0.091019,1.1206,-0.61392,-23.28,34.08,3.18
2.833,-5.9249,-2.0158,0.099571,1.0968,-0.59223,-22.74,34.02,3.0
2.9692,-6.4152,-1.9886,0.073609,0.75198,-0.49572,-22.32,33.96,2.94
2.8739,-6.7012,-1.8796,0.018631,0.49694,-0.43035,-21.96,33.78,3.0
2.656,-7.8589,-1.5527,-0.065973,0.39095,-0.34911,-21.72,33.66,2.88
2.4789,-9.5206,-1.0351,-0.22999,0.61545,-0.25076,-21.3,33.36,2.94
2.4108,-9.9973,-0.78998,-0.35461,1.0299,-0.22449,-21.24,33.42,2.88
2.3018,-9.9565,-0.62654,-0.46609,1.5498,-0.23121,-21.06,33.48,2.88
2.5334,-8.7851,-0.21793,-0.54,2.0507,-0.27825,-21.0,33.54,2.52
2.5742,-7.641,-0.25879,-0.52107,2.3821,-0.35827,-21.06,33.54,2.28
2.6287,-6.3471,-0.39499,-0.43158,2.4618,-0.41966,-21.12,33.42,2.04
3.0237,-4.7535,-0.7355,-0.31826,2.2636,-0.47037,-21.12,33.78,1.2
3.1327,-4.8897,-0.88532,-0.17471,1.4804,-0.43066,-21.12,33.9,0.9
3.4323,-6.17,-0.68102,-0.146,0.82253,-0.32223,-21.24,34.14,0.6
3.3234,-8.9077,-0.24517,-0.17104,0.25534,-0.13836,-21.3,34.74,-0.12
3.228,-11.822,0.34051,-0.25779,-0.037568,0.12401,-21.24,34.86,-0.48
3.1599,-13.729,0.54481,-0.40561,0.036346,0.38851,-21.18,35.28,-0.84
3.337,-18.156,1.9205,-0.56719,0.38118,0.66737,-21.06,35.76,-1.56
3.6366,-19.191,2.3836,-0.72174,1.1991,1.1671,-20.7,36.12,-1.98
3.7047,-17.843,2.1656,-0.70005,1.7828,1.3512,-20.46,36.36,-2.46
3.9227,-10.61,1.3757,-0.5397,2.124,1.2266,-19.8,37.14,-3.42
4.0044,-8.6762,0.84446,-0.27917,2.0687,1.0073,-19.26,37.68,-3.9
3.8954,-7.75,0.50395,-0.026878,1.6872,0.73548,-18.72,38.22,-4.2
3.4732,-9.4117,0.10896,0.18143,1.2911,0.45204,-17.34,39.06,-4.8
3.8001,-10.311,0.12258,0.26786,0.91111,0.22571,-16.56,39.54,-5.22
3.8409,-10.025,0.17706,0.15119,0.73884,0.1292,-15.66,39.72,-5.46
3.7728,-9.5479,0.027241,-0.10934,0.67714,0.055283,-14.88,40.26,-5.88
2.261,-7.6546,0.17706,-0.41233,0.73121,0.032987,-13.14,41.1,-6.24
1.5255,-7.5729,0.19068,-0.69578,1.0174,0.027184,-12.3,41.34,-6.36
1.2395,-7.5457,0.054481,-0.92577,1.4621,0.094684,-11.4,41.88,-6.48
1.6481,-6.9055,-0.14982,-1.0776,2.0272,0.15516,-9.48,42.48,-6.84
2.0294,-7.1098,-0.29965,-1.0809,2.1194,0.16646,-8.7,42.84,-6.84
2.2882,-7.8045,-0.21793,-1.0318,2.0889,0.19456,-7.86,43.2,-6.66
2.5061,-10.392,0.068102,-0.93982,1.7061,0.33842,-6.36,43.32,-6.48
2.942,-13.321,0.44947,-0.87995,1.4142,0.47556,-5.58,43.56,-6.54
3.2553,-18.728,1.8932,-0.87842,1.2226,0.69211,-4.32,44.16,-6.18
4.6718,-19.477,2.9284,-0.82039,1.3622,1.2181,-3.54,44.46,-5.82
4.8352,-17.992,2.2474,-0.74037,1.606,1.3149,-2.88,44.82,-5.52
4.6854,-14.315,1.3076,-0.33811,2.047,1.2627,-2.1,44.88,-5.1
4.8352,-7.0553,-2.7649,0.61636,1.6918,0.77549,-0.48,45.36,-4.5
5.3664,-7.7636,-3.9635,1.0232,0.62889,0.54275,0.36,45.6,-4.38
5.775,-10.093,-3.9635,1.1524,-0.71899,0.22999,1.26,45.72,-4.2
4.6718,-12.081,-0.24517,1.0085,-2.0385,-0.2364,2.46,45.96,-4.14
3.7456,-10.896,0.61292,0.23976,-1.9377,-0.45143,3.12,46.14,-4.2
1.6617,-8.2812,0.88532,-0.0042761,-1.584,-0.50519,3.6,46.2,-4.32
0.77636,-7.5048,-1.3893,-0.53787,-0.081245,-0.5287,4.44,46.62,-4.2
1.2395,-7.1643,-2.9965,-0.64019,0.8714,-0.57727,4.8,46.62,-4.2
1.8932,-6.3743,-3.1599,-0.53726,1.4771,-0.66462,4.98,46.62,-4.14
2.0022,-6.1564,-2.0294,-0.42608,1.9948,-0.62339,5.16,46.74,-4.08
1.9613,-6.5378,-1.2531,-0.39462,2.2266,-0.51435,5.28,46.68,-4.2
2.0431,-6.674,-0.78998,-0.41294,2.2663,-0.35949,5.16,46.8,-4.26
2.2882,-7.0962,-1.1441,-0.4105,2.1108,-0.18937,5.1,46.68,-4.2
2.4789,-7.2869,-1.3076,-0.34208,1.7871,-0.020464,4.98,46.74,-3.96
2.438,-7.5729,-1.2531,-0.24282,1.4358,0.1689,4.8,47.04,-3.9
2.438,-8.6898,-1.0079,-0.12584,1.0244,0.40836,4.86,47.4,-3.6
2.5061,-9.1665,-0.91256,0.032376,0.84269,0.4945,4.92,47.58,-3.24
2.3427,-9.7658,-0.8036,0.097128,0.87262,0.551,5.16,47.76,-3.06
2.0294,-8.8941,-0.83084,0.11148,1.0534,0.5623,5.82,48.12,-2.64
2.0022,-9.7249,-0.91256,0.097433,1.2239,0.62003,6.36,48.24,-2.64
2.5606,-11.795,-0.69464,0.041844,1.3176,0.83872,6.96,48.36,-2.64
3.6639,-13.389,-0.28603,-0.12431,1.4105,1.1176,8.46,48.66,-2.64
4.0589,-13.062,0.095342,-0.24007,1.398,1.1496,9.24,48.96,-2.7
4.2495,-12.49,0.24517,-0.29352,1.2489,0.97128,10.26,49.08,-2.76
4.2904,-11.046,-0.068102,-0.23121,0.9893,0.66157,11.94,49.38,-2.88
3.9635,-10.774,-0.70826,-0.033292,0.6014,0.17837,13.02,49.62,-3.12
3.2825,-10.447,-1.1577,0.16829,0.2584,-0.3207,14.1,49.56,-3.12
2.7377,-10.106,-1.3212,0.28039,0.12889,-0.91599,16.2,49.62,-3.36
2.8603,-10.188,-1.3212,0.24221,0.16066,-1.2159,17.1,49.62,-3.66
2.7377,-10.283,-1.3212,0.082467,0.14264,-1.3983,18.0,49.56,-3.84
2.3155,-9.902,-0.98067,-0.14508,0.19639,-1.4896,19.44,49.5,-4.38
2.2065,-9.5479,-0.96704,-0.3708,0.35552,-1.5137,19.92,49.62,-4.8
2.2474,-9.5615,-0.85808,-0.56352,0.54764,-1.4655,20.28,49.62,-5.1
2.0839,-9.221,-0.81722,-0.69211,0.70921,-1.4163,20.7,49.74,-5.88
2.0294,-8.9894,-0.72188,-0.78252,0.9615,-1.3018,20.82,49.56,-6.36
2.1248,-8.5944,-0.74912,-0.80054,1.0986,-1.2181,21.0,49.62,-6.78
2.152,-8.9622,-0.7355,-0.81856,1.237,-1.1069,21.0,49.8,-7.8
2.3972,-8.8941,-0.5993,-0.80756,1.3198,-0.98105,20.7,49.86,-8.28
2.3972,-8.6762,-0.53119,-0.80237,1.3216,-0.86957,20.28,49.92,-8.82
2.4925,-8.8668,-0.49033,-0.80268,1.248,-0.74984,19.14,49.98,-9.6
2.3427,-8.8941,-0.35413,-0.83169,1.1044,-0.58765,18.6,49.98,-9.84
2.3155,-8.6898,-0.39499,-0.82925,1.0489,-0.48961,18.12,50.1,-10.32
2.2337,-8.54,-0.32689,-0.8433,1.0217,-0.42516,17.58,50.16,-10.62
2.2882,-9.1393,-0.19068,-0.83444,0.91721,-0.1741,16.68,50.34,-11.1
2.1656,-9.4117,-0.01362,-0.82772,0.89431,0.043066,16.44,50.46,-11.22
2.3155,-9.8203,0.19068,-0.8097,0.94867,0.28588,15.9,50.52,-11.4
2.4108,-9.6432,0.17706,-0.73579,1.0486,0.65637,15.6,50.64,-11.4
2.547,-9.2074,-0.027241,-0.63561,1.0718,0.84147,15.12,50.64,-11.4
2.8058,-9.6568,-0.34051,-0.54856,1.0394,0.9954,14.64,50.46,-11.22
3.0101,-10.692,-0.20431,-0.47892,0.97036,1.1939,14.46,50.34,-11.04
3.1191,-11.496,-0.21793,-0.45357,0.94745,1.401,14.52,50.22,-10.98
3.1191,-12.476,-0.081722,-0.44715,0.99571,1.5996,15.0,50.28,-10.68
3.2961,-11.836,-0.24517,-0.38943,1.1817,1.7501,15.36,50.34,-10.56
3.4051,-10.515,-0.6674,-0.28283,1.2596,1.6383,15.66,50.28,-10.2
3.7456,-8.6081,-1.8524,-0.1347,1.1374,1.3903,16.74,50.04,-9.6
3.8273,-8.6762,-2.3836,0.0082467,0.8152,1.0626,17.1,49.92,-9.36
3.7047,-9.3572,-2.5606,0.054978,0.42577,0.71563,17.64,49.62,-9.18
3.1054,-10.542,-1.8387,-0.040012,0.12645,0.36499,18.66,49.32,-8.34
2.7241,-10.351,-1.5255,-0.27153,0.073915,-0.018631,19.14,49.14,-8.04
2.3291,-9.9292,-1.0896,-0.57574,0.34514,-0.11026,19.8,49.14,-7.74
1.7025,-8.6353,-1.0079,-0.95997,1.2257,-0.24343,20.82,49.08,-6.9
1.6889,-7.8589,-1.2395,-1.0776,1.8558,-0.31093,21.24,49.02,-6.48
1.866,-7.3958,-1.3348,-1.0684,2.3045,-0.36408,21.6,49.08,-6.0
2.5879,-6.96,-1.3893,-0.98258,2.4899,-0.38026,21.9,48.9,-4.98
2.833,-7.0281,-1.3484,-0.89003,2.4432,-0.36011,21.78,48.96,-4.5
3.3915,-7.5321,-1.362,-0.82222,2.241,-0.3091,21.54,49.14,-3.24
3.5958,-7.8862,-1.362,-0.75136,1.7883,-0.2361,21.3,49.14,-2.82
3.5822,-8.2539,-1.3757,-0.73212,1.5678,-0.19456,21.18,49.26,-2.16
3.5685,-8.8941,-1.3893,-0.69822,1.4923,-0.10049,20.46,49.5,-0.84
3.6094,-8.8124,-1.3757,-0.65057,1.5232,0.012217,19.92,49.56,-0.12
3.5685,-7.6274,-1.3757,-0.54917,1.5742,0.093157,19.08,49.56,1.5
3.7047,-6.9872,-1.58,-0.28955,1.5091,0.2306,18.66,49.68,2.16
3.8409,-6.5514,-1.5527,-0.09896,1.3311,0.3488,18.24,49.62,2.82
3.8954,-6.5105,-1.8115,0.093462,1.091,0.47617,18.0,49.8,3.54
4.0589,-6.7829,-1.8251,0.24435,0.84849,0.58582,17.64,49.8,4.08
3.8818,-7.7364,-1.7706,0.34606,0.72785,0.69211,17.46,49.8,4.92
3.7728,-8.3084,-1.6481,0.36927,0.82497,0.79046,17.34,49.68,5.28
3.8273,-10.12,-1.1169,0.34758,0.92088,0.82833,17.16,49.62,5.7
4.2223,-10.801,-0.84446,0.27978,1.2489,1.0363,17.16,49.62,5.88
4.3449,-10.869,-0.81722,0.24404,1.383,1.1405,17.1,49.44,5.94
4.6445,-10.529,-0.44947,0.22388,1.4041,1.1762,17.58,49.2,6.06
4.7126,-9.9837,-0.23155,0.22724,1.3723,1.1356,18.12,49.08,5.94
4.9033,-9.4117,-0.19068,0.25748,1.2214,1.0238,18.6,48.9,5.94
4.9442,-9.5751,-0.44947,0.32651,0.89278,0.85063,19.56,48.48,5.58
5.0123,-10.542,-0.49033,0.42425,0.45907,0.63408,20.04,48.24,5.34
5.1621,-11.455,-0.53119,0.47159,-0.16707,0.23457,20.34,47.76,4.98
4.9169,-12.531,-0.21793,0.42761,-0.41844,-0.12584,21.24,47.22,4.26
4.2359,-13.021,-0.027241,0.29047,-0.49205,-0.54398,21.6,46.86,3.9
3.3506,-12.844,0.027241,0.030849,-0.15547,-1.1735,22.26,46.08,2.7
2.3699,-11.509,-0.24517,-0.0956,0.24251,-1.5391,22.5,45.6,2.04
1.7298,-10.42,-0.32689,-0.15852,0.60018,-1.7721,22.68,45.06,1.44
1.471,-9.9701,-0.50395,-0.18143,0.72601,-1.8207,22.74,44.7,0.6
1.1577,-9.3299,-0.65378,-0.19517,0.83658,-1.8216,22.56,44.28,-0.48
1.0896,-8.7306,-0.84446,-0.25565,0.7199,-1.471,22.08,43.8,-1.5
1.0896,-8.7306,-0.84446,-0.33414,0.57941,-1.1506,22.08,43.8,-1.5
0.81722,-8.2131,-0.34051,-0.41997,0.47892,-0.821,21.3,43.14,-2.82
0.76274,-7.8317,-0.20431,-0.4664,0.41875,-0.5226,18.72,41.46,-5.76
1.076,-7.246,-0.095342,-0.48197,0.36774,-0.30146,17.4,40.62,-7.38
1.3757,-6.7421,-0.01362,-0.4496,0.2697,-0.16646,15.9,39.96,-8.76
1.6344,-6.1019,-0.01362,-0.3937,0.10415,-0.091935,14.34,39.24,-10.02
1.8932,-5.1213,0.027241,-0.32193,-0.11087,-0.036346,10.56,37.44,-12.42
2.0294,-5.1894,-0.12258,-0.2584,-0.34331,-0.016799,8.64,36.36,-13.44
2.1112,-5.4345,-0.16344,-0.22266,-0.53695,-0.000611,6.66,35.46,-14.16
2.261,-5.775,-0.14982,-0.24129,-0.63835,0.046426,2.7,33.54,-15.0
2.2882,-6.5378,-0.19068,-0.31918,-0.53298,0.11057,0.54,32.7,-15.18
2.5061,-7.4503,-0.35413,-0.42455,-0.32467,0.19303,-1.5,31.5,-14.94
2.6696,-9.0031,-0.35413,-0.56169,0.016493,0.27733,-3.36,30.54,-14.4
3.1327,-11.155,0.12258,-0.81703,0.77397,0.30757,-6.48,29.16,-12.36
3.2144,-10.515,0.43585,-0.91813,1.0678,0.28527,-7.56,28.62,-10.98
3.5413,-9.9701,0.50395,-1.1472,1.8353,0.19639,-9.54,27.84,-7.56
4.0589,-9.4798,0.24517,-1.1716,2.021,0.15516,-10.86,27.12,-4.08
4.6173,-9.2891,-0.20431,-1.0849,1.9303,0.16035,-12.12,26.88,-0.66
5.2847,-9.7385,-0.47671,-0.95356,1.5882,0.19517,-13.02,27.0,2.52
5.6524,-10.978,-0.27241,-0.82131,1.0467,0.29871,-13.68,27.54,5.4
5.5843,-11.564,-0.17706,-0.69608,0.52595,0.4722,-14.04,28.26,7.62
5.5435,-11.237,-0.39499,-0.54672,0.083078,0.75503,-14.4,28.86,9.54
5.4618,-11.21,-0.70826,-0.39584,-0.080329,0.86834,-14.46,29.22,10.2
5.4754,-13.076,-0.50395,-0.20342,-0.21044,1.0971,-14.7,30.06,11.34
6.1292,-14.029,-0.6674,0.051924,-0.20495,1.3286,-14.88,30.96,12.48
6.2517,-11.809,-1.3212,0.35308,-0.30574,1.3857,-14.88,31.68,13.44
5.9793,-9.7385,-1.7162,0.65973,-0.72846,1.1692,-14.52,32.4,14.34
5.2847,-8.0632,-1.8796,0.70555,-0.98807,0.83872,-14.04,33.0,15.3
4.6445,-7.4095,-1.7025,0.66309,-1.2401,0.50244,-13.38,33.6,16.2
4.3449,-7.2324,-1.7025,0.58796,-1.431,0.26359,-12.9,33.9,16.74
3.8682,-6.8647,-1.6753,0.44074,-1.4694,0.065057,-12.0,34.5,17.4
3.051,-6.2245,-1.4846,0.30727,-1.2578,-0.058948,-11.22,35.04,18.24
2.8194,-5.6661,-1.3484,0.22327,-0.98013,-0.13561,-10.38,35.58,19.02
2.7649,-5.3119,-1.4029,0.21502,-0.6411,-0.22113,-9.84,35.58,19.44
2.8739,-5.203,-1.362,0.29505,-0.55833,-0.25656,-8.94,35.76,20.4
3.1191,-5.6524,-1.4982,0.42455,-0.64966,-0.28619,-8.58,36.0,21.0
3.3915,-6.674,-1.5391,0.5678,-0.94165,-0.29932,-7.86,36.24,21.96
2.8603,-7.4776,-1.2803,0.67837,-1.3549,-0.25168,-6.84,36.48,23.04
2.547,-7.7091,-1.1441,0.74098,-1.8045,-0.12553,-6.24,36.6,23.34
1.9886,-8.826,-1.2939,0.70799,-1.861,-0.053451,-5.1,36.78,24.18
1.2258,-8.7443,-1.1577,0.60567,-1.6649,-0.011606,-3.84,36.96,25.08
0.88532,-7.8453,-0.98067,0.45265,-1.2846,-0.014355,-3.06,36.96,25.5
0.85808,-6.4833,-0.96704,0.354,-0.94562,-0.043066,-1.26,37.08,26.28
1.3212,-5.3937,-1.2395,0.29138,-0.84299,-0.091019,-0.78,37.44,26.82
1.2667,-5.5435,-1.2803,0.28436,-0.97433,-0.22174,0.84,37.5,26.94
1.1577,-8.2131,-0.83084,0.21502,-1.2349,-0.32345,2.52,37.56,27.36
1.0624,-11.414,-0.54481,-0.054367,-1.39,-0.33659,4.14,37.8,27.9
1.0488,-13.089,0.44947,-0.37202,-1.1078,-0.3207,4.8,37.8,28.2
1.0079,-16.004,1.5255,-0.75167,-0.40378,-0.34972,5.94,37.8,28.98
1.1441,-17.094,2.547,-1.0815,0.4948,-0.36224,7.02,37.8,29.7
2.0567,-17.434,2.6423,-1.2514,1.3225,-0.33598,7.62,37.8,30.72
2.4108,-16.385,2.2337,-1.2257,2.0192,-0.38026,7.8,37.56,31.32
2.7649,-12.299,1.3348,-0.84727,2.3158,-0.53573,7.86,37.14,32.4
2.5061,-9.2891,0.95342,-0.57666,2.2284,-0.63591,7.8,36.78,33.66
2.6015,-7.7091,0.83084,-0.34697,1.9792,-0.67806,7.68,36.48,34.32
3.0918,-6.7012,0.62654,-0.18998,1.4908,-0.62614,6.72,36.0,35.28
3.2553,-6.6331,0.068102,-0.069639,0.8323,-0.45815,5.58,35.46,36.18
3.514,-6.6604,-0.17706,-0.021991,0.19028,-0.19914,4.98,35.22,36.6
3.8273,-7.3141,-0.31327,-0.11576,-0.51129,0.14447,4.08,35.04,37.38
3.6911,-8.4174,-0.32689,-0.25229,-0.72235,0.2584,3.0,34.74,37.86
3.514,-8.6762,-0.35413,-0.42272,-0.64019,0.32376,2.46,34.62,38.04
2.942,-8.54,-0.38137,-0.58613,-0.21166,0.33353,1.86,34.68,38.4
2.9148,-7.8317,-0.54481,-0.71807,0.42791,0.3094,1.38,34.44,38.64
3.2689,-7.8998,-0.49033,-0.75869,1.2795,0.20922,0.96,34.56,38.94
3.623,-8.5808,-0.44947,-0.74464,1.4551,0.19151,1.02,34.5,39.12
4.1542,-9.4661,-0.47671,-0.58949,1.6903,0.18998,0.96,34.56,39.18
4.3313,-9.6704,-0.49033,-0.41508,1.5394,0.20617,0.96,34.56,39.36
4.5356,-10.637,-0.5993,-0.21289,1.1463,0.29474,0.54,34.38,39.42
5.5571,-15.078,-0.14982,-0.010996,0.59437,0.71257,0.24,34.14,39.54
6.0474,-15.854,-0.095342,0.21961,0.078802,1.1203,-0.18,33.96,39.54
5.6388,-12.994,-1.0351,0.48258,-0.44929,1.2437,-0.54,33.84,39.3
4.8488,-9.6977,-1.9613,0.83108,-1.1564,1.0953,-0.66,34.08,38.94
4.5764,-8.5808,-2.2882,0.92943,-1.6499,0.85613,-0.6,34.2,38.7
4.1814,-7.8998,-2.3291,0.91935,-2.3124,0.64446,-0.12,34.38,38.16
3.8546,-8.6353,-2.1248,0.8097,-2.8799,0.52595,1.08,34.62,37.5
2.6832,-8.431,-1.8796,0.61331,-2.9251,0.43005,2.76,34.98,36.66
1.8251,-7.8453,-1.6889,0.26909,-2.0064,0.28161,5.16,35.46,35.94
1.5527,-7.4776,-1.7706,0.12523,-1.0928,0.19761,6.48,35.76,35.52
1.8251,-6.9872,-2.0567,0.061392,-0.30238,0.076358,9.36,36.36,34.56
2.4925,-7.3822,-2.0839,0.065363,0.11484,-0.081245,11.94,36.96,33.78
2.4653,-7.7908,-1.7025,0.091019,0.23274,-0.22052,14.34,37.32,33.06
2.4244,-7.6546,-1.4165,0.099571,0.19853,-0.27519,15.48,37.44,32.76
2.0567,-7.8317,-1.1986,0.11637,-0.0562,-0.2813,17.46,37.74,32.1
1.8524,-7.4095,-1.2531,0.1066,-0.21655,-0.23243,18.84,38.16,31.38
1.7162,-6.6604,-1.185,0.10049,-0.3204,-0.19151,19.44,38.28,31.2
1.5663,-5.6524,-1.0488,0.087354,-0.40623,-0.19334,20.52,38.7,30.42
1.2258,-5.1076,-1.1032,0.083383,-0.50702,-0.19517,21.36,39.12,30.0
1.3212,-5.2575,-1.0896,0.049786,-0.63255,-0.24099,21.66,39.24,29.7
1.866,-8.2267,-0.61292,-0.03146,-0.77427,-0.29505,22.56,39.54,29.04
2.4244,-10.842,-0.25879,-0.17776,-0.87629,-0.31704,23.4,39.96,28.26
2.4517,-12.136,0.081722,-0.32406,-0.77274,-0.32956,23.7,40.14,27.78
1.9341,-12.79,0.49033,-0.50793,-0.49633,-0.3656,24.54,40.62,26.64
1.9205,-14.737,1.1169,-0.71288,-0.073304,-0.4328,25.44,41.16,25.5
2.1793,-16.004,1.3893,-0.89125,0.45937,-0.4496,26.04,41.28,25.08
2.9284,-17.025,1.8115,-1.0214,1.0388,-0.35155,26.82,41.52,24.06
2.6151,-12.803,1.58,-1.0461,1.8326,-0.47281,27.12,41.52,23.04
2.4925,-9.4525,1.1169,-0.91691,2.1518,-0.69364,27.42,41.64,22.26
2.5606,-8.0905,0.7355,-0.69089,2.2031,-0.80146,27.36,41.7,22.02
2.9284,-7.6546,0.27241,-0.4609,1.9355,-0.79932,27.12,41.7,21.6
3.7184,-7.9543,0.1362,-0.24618,1.4649,-0.64568,26.4,41.7,21.36
4.2223,-8.1177,-0.16344,-0.099876,0.87445,-0.38423,25.62,41.7,21.12
4.5083,-8.2267,-0.10896,-0.07086,0.030849,-0.0085521,25.08,41.46,21.24
4.2223,-8.2539,-0.21793,-0.13897,-0.33567,0.10171,24.0,41.58,21.24
3.4187,-8.0224,-0.65378,-0.19609,-0.46762,0.16829,22.86,41.76,21.42
3.2008,-7.8317,-0.74912,-0.2532,-0.37049,0.22755,22.38,41.88,21.48
3.3506,-7.8181,-0.99429,-0.30727,-0.12828,0.31368,21.54,41.94,21.42
3.6639,-8.3765,-1.0215,-0.34697,0.1014,0.40103,21.12,42.06,21.12
3.732,-9.0303,-0.9398,-0.34178,0.41508,0.53054,20.82,41.94,20.82
3.8546,-9.4798,-0.76274,-0.29688,0.61789,0.64477,20.76,42.0,20.82
4.127,-10.283,-0.74912,-0.18692,0.70341,0.72449,20.58,42.18,20.7
4.3721,-12.081,-0.57205,-0.015882,0.61453,0.94073,20.46,42.18,20.7
5.2983,-14.383,-0.72188,0.21105,0.43219,1.2214,20.4,42.24,20.64
5.6661,-12.708,-1.757,0.5006,0.082772,1.274,20.58,42.06,20.52
5.4345,-10.855,-2.547,0.86499,-0.91538,1.0989,20.88,42.18,20.04
5.0395,-9.3163,-2.8194,0.97891,-1.7037,0.87201,21.06,42.12,19.8
4.9033,-9.1529,-2.6696,0.95081,-2.5165,0.62186,21.18,42.24,19.56
4.1951,-9.2482,-2.3836,0.85277,-3.1695,0.39156,21.48,42.6,18.72
2.8058,-9.0712,-2.438,0.66462,-3.3989,0.22235,22.08,42.66,17.7
1.757,-8.8805,-2.438,0.44471,-3.1075,0.081551,22.74,42.78,16.26
1.1577,-8.5672,-2.3018,0.12217,-1.8607,-0.029627,22.92,42.84,15.48
0.83084,-7.9134,-2.152,-0.026573,-0.88392,-0.11209,23.58,43.14,13.86
0.99429,-7.4503,-2.1248,-0.10721,-0.045204,-0.16432,23.64,43.26,13.02
1.7162,-6.8919,-2.0567,-0.096517,0.41508,-0.21258,23.88,43.44,11.58
1.9205,-6.851,-2.0839,-0.046426,0.52931,-0.24099,24.0,43.56,10.92
2.4108,-7.0281,-1.7298,0.028711,0.33201,-0.22541,23.94,44.22,9.48
2.4789,-6.9736,-1.6753,0.079412,-0.077274,-0.18295,23.82,44.28,8.82
2.3427,-6.6876,-1.3076,0.1179,-0.69272,-0.16341,23.82,44.28,8.34
1.6208,-5.2847,-1.0215,0.13286,-0.96517,-0.19242,23.04,44.76,7.5
1.185,-4.6445,-1.0896,0.12645,-1.1558,-0.25351,22.56,45.12,7.32
0.72188,-4.5356,-0.88532,0.11545,-1.2651,-0.3824,22.08,45.36,7.14
0.081722,-6.3198,-0.16344,0.0018326,-1.2953,-0.49877,21.12,46.02,6.36
-0.01362,-7.6002,0.28603,-0.20403,-1.146,-0.53206,20.64,46.32,6.06
-0.027241,-10.815,1.2122,-0.48839,-0.74434,-0.50488,20.04,46.5,5.76
0.38137,-13.212,2.3427,-0.96914,0.37171,-0.47495,18.9,47.28,5.22
0.7355,-14.792,2.7377,-1.2113,1.2639,-0.42394,18.3,47.46,5.04
1.9477,-17.652,2.4789,-1.273,2.087,-0.28711,17.58,47.58,4.8
2.9011,-14.928,1.6344,-1.0644,2.853,-0.34514,16.38,47.76,4.62
2.9148,-11.55,1.0896,-0.77672,2.952,-0.47556,15.66,48.12,4.56
3.051,-10.406,0.76274,-0.60262,2.9089,-0.54459,14.88,48.36,4.56
4.0997,-8.9622,0.040861,-0.096517,2.2223,-0.53329,13.5,48.54,4.86
4.3858,-9.1937,-0.58567,0.16646,1.3265,-0.44074,12.9,48.54,4.92
4.5083,-9.3844,-1.0215,0.3262,0.31582,-0.21319,12.3,48.54,5.04
4.2495,-9.3572,-0.7355,0.25473,-0.81459,0.2529,11.28,48.6,5.58
4.1814,-9.1665,-0.64016,0.069333,-1.1594,0.4441,10.68,48.6,5.82
3.8001,-8.6081,-0.65378,-0.038179,-1.2007,0.49236,10.14,48.66,5.88
2.7649,-7.0553,-1.6344,-0.29535,-0.67348,0.55619,9.48,48.54,6.48
2.7513,-6.4016,-2.0567,-0.37385,0.067195,0.5565,9.12,48.6,6.66
3.2144,-5.9249,-2.1248,-0.39981,0.69425,0.51649,9.12,48.72,6.9
3.5277,-6.0202,-2.0839,-0.38362,0.956,0.3989,9.12,48.66,7.02
3.8954,-6.5514,-1.8115,-0.40439,0.97922,0.3262,9.0,48.66,7.26
4.3177,-8.9349,-1.7979,-0.41722,0.80207,0.2755,8.94,48.66,7.26
4.2768,-11.482,-1.471,-0.44104,0.68447,0.39798,9.0,48.54,7.38
4.4539,-14.478,-0.96704,-0.41753,0.75289,0.81703,9.24,48.42,7.32
5.2575,-17.121,-0.36775,-0.27367,1.1139,1.1008,9.6,48.48,7.38
5.0531,-13.116,-0.7355,0.11606,1.2733,1.0256,9.66,48.42,7.56
5.1894,-8.3084,-2.4517,0.29841,1.1292,0.91935,10.38,48.12,7.74
5.5707,-7.0281,-2.8058,0.79657,-0.24374,0.59284,10.62,47.94,7.98
5.4481,-7.75,-2.6423,0.90225,-1.0095,0.42852,10.92,47.82,7.98
4.7263,-8.7306,-2.3155,0.98991,-2.9242,0.1347,11.22,47.76,7.92
3.0918,-9.0712,-1.6072,0.82742,-3.4199,0.03146,11.7,47.46,7.44
1.6889,-8.7987,-1.0896,0.35613,-2.8863,0.015272,11.7,47.52,7.26
-0.081722,-7.9407,-1.0351,0.17715,-2.3818,0.018937,12.0,47.46,6.54
-0.5993,-7.5184,-1.0896,-0.19456,-0.35552,0.036041,12.18,47.4,6.36
0.31327,-7.3277,-1.1577,-0.23915,0.29993,0.033292,12.48,47.52,5.88
1.185,-7.4095,-1.0896,-0.13225,1.3387,0.032681,12.48,47.7,5.7
2.7377,-7.4367,-1.1169,0.060476,1.2361,0.0042761,12.6,47.76,4.92
3.1191,-7.0553,-1.0215,0.35277,0.26481,-0.018937,12.6,47.88,4.44
3.0918,-6.2517,-0.61292,0.44288,-0.1463,-0.050396,12.6,47.94,3.72
2.6968,-5.7205,-0.7355,0.62553,-1.2184,-0.23793,12.6,48.06,3.24
2.152,-5.3664,-0.85808,0.63805,-1.5876,-0.39523,12.6,48.12,2.76
1.2803,-5.598,-1.3484,0.59529,-1.7178,-0.56474,12.6,48.18,1.8
0.55843,-6.7012,-1.1032,0.45082,-1.66,-0.66829,12.42,48.3,1.32
-0.027241,-8.0769,-0.81722,0.23457,-1.4636,-0.64171,12.36,48.18,0.9
0.23155,-12.217,0.31327,-0.23427,-0.67867,-0.41294,12.06,47.94,-0.12
0.72188,-14.696,0.99429,-0.6127,0.15821,-0.1857,11.94,47.64,-0.78
0.85808,-16.59,1.4438,-0.9276,1.0571,0.10049,11.58,47.4,-1.32
1.5119,-18.551,2.1112,-1.1316,1.9477,0.29016,11.46,46.98,-1.8
2.5742,-15.636,2.2746,-1.2278,2.7336,0.19609,11.4,46.38,-2.76
2.3972,-11.904,1.6753,-1.073,3.1469,-0.08491,11.46,46.08,-3.12
2.1112,-8.4855,0.28603,-0.72052,3.1099,-0.41325,11.52,45.54,-3.72
2.4517,-7.927,0.040861,-0.34728,2.7672,-0.57605,11.46,45.18,-4.02
3.1599,-8.4446,-0.054481,0.054062,1.8158,-0.4725,11.46,44.88,-4.2
4.6445,-9.4389,-0.10896,0.14783,0.98197,-0.21075,11.64,44.4,-4.02
5.2166,-9.6432,0.10896,0.075136,0.1573,0.084605,11.76,44.04,-3.96
4.7263,-9.3844,0.46309,-0.10385,-0.42944,0.26298,11.82,43.92,-3.96
3.1191,-8.2812,0.35413,-0.34117,-0.54642,0.3769,12.36,43.62,-3.42
2.833,-7.4776,-0.29965,-0.45845,-0.17532,0.41783,12.72,43.62,-3.12
2.8603,-7.0417,-0.53119,-0.47159,0.08094,0.42638,13.26,43.62,-2.94
3.3642,-6.0474,-0.69464,-0.4215,0.76633,0.44379,13.98,43.68,-2.64
3.6094,-5.7614,-0.64016,-0.35033,1.0055,0.39676,14.22,43.62,-2.52
3.8273,-5.7614,-0.89894,-0.27764,1.0412,0.34208,14.7,43.68,-2.16
4.1814,-7.6002,-1.185,-0.18051,0.72143,0.29169,15.06,43.62,-1.98
4.3994,-8.7443,-1.185,-0.12584,0.44013,0.31734,15.24,43.74,-1.74
4.3585,-9.793,-1.1577,-0.10293,0.20372,0.36835,15.66,43.68,-1.68
4.5083,-13.716,-0.53119,-0.097738,0.036957,0.55589,16.2,43.5,-1.56
4.8625,-15.772,-0.34051,-0.085521,0.091935,0.72968,16.56,43.44,-1.38
4.5492,-14.179,-0.61292,0.0082467,0.25809,0.64966,16.92,43.2,-1.14
4.3994,-11.128,-1.3212,0.13958,0.28558,0.36194,17.28,43.02,-1.14
4.4539,-9.7658,-1.866,0.41325,-0.16738,0.10629,17.4,42.96,-1.26
4.3449,-9.0439,-1.9205,0.49633,-0.78832,-0.17349,17.34,42.78,-1.32
3.0782,-9.6977,-1.5391,0.49877,-1.3369,-0.37568,17.34,42.42,-1.56
2.4517,-9.7658,-1.2939,0.39309,-1.5357,-0.44715,17.34,42.24,-1.74
1.7979,-9.4117,-1.1169,0.2193,-1.3289,-0.39951,17.16,41.94,-2.16
1.1305,-7.8726,-0.99429,-0.0045815,-0.51435,-0.21044,16.38,41.58,-2.76
1.1577,-7.3958,-1.0624,-0.04948,0.11576,-0.093462,16.2,41.4,-3.18
1.4301,-6.7421,-1.1032,-0.026878,0.34086,-0.0562,15.72,41.22,-3.54
2.2201,-5.8295,-1.185,0.11484,0.64874,-0.0079412,14.58,40.92,-4.56
2.5198,-5.2575,-1.076,0.22266,0.57055,-0.040623,14.04,40.74,-5.1
2.656,-4.413,-1.0215,0.3036,0.27061,-0.10354,13.5,40.62,-5.76
2.4789,-3.9908,-1.3076,0.35491,-0.14691,-0.21502,12.42,40.02,-6.6
2.4789,-4.2087,-1.3484,0.3094,-0.81703,-0.39798,11.7,39.66,-6.9
2.2746,-5.38,-1.1169,0.21533,-1.2068,-0.4725,11.1,39.24,-7.2
1.5255,-9.2482,-0.31327,0.051007,-1.3818,-0.43494,9.96,38.46,-7.56
1.6072,-12.64,0.14982,-0.19334,-1.2492,-0.31093,9.24,38.1,-7.74
1.7706,-16.29,0.83084,-0.50549,-0.7422,-0.18021,8.7,37.56,-7.68
2.0294,-19.463,2.833,-0.85857,0.025045,-0.036652,7.68,36.36,-7.5
2.0839,-17.516,3.2008,-1.2938,1.6396,-0.011912,7.08,35.76,-7.26
2.0567,-15.282,3.0101,-1.3048,2.6408,-0.23579,6.48,35.16,-6.9
1.8387,-9.0031,1.1713,-0.97738,3.1472,-0.60689,5.34,33.84,-5.64
1.9886,-7.5048,0.31327,-0.54672,3.1166,-0.74587,4.56,33.18,-4.86
2.4653,-7.5593,-0.054481,-0.18265,2.6041,-0.70341,3.84,32.7,-4.02
3.2144,-9.2482,0.095342,0.12767,1.5207,-0.36927,2.4,31.68,-2.28
3.6503,-9.2482,0.29965,0.058948,0.75717,-0.04215,1.74,31.38,-1.44
3.732,-9.0303,0.61292,-0.17226,0.25534,0.22785,1.08,31.14,-0.54
2.9284,-8.5808,0.46309,-0.43494,0.10446,0.3656,-0.36,30.48,1.26
2.2065,-7.9951,0.17706,-0.66859,0.28955,0.44593,-0.96,30.24,2.28
1.9886,-7.3686,0.17706,-0.80481,0.76267,0.47586,-1.56,30.3,3.3
2.4517,-6.7829,-0.24517,-0.8433,1.2737,0.43402,-2.64,30.48,5.04
2.9011,-6.674,-0.21793,-0.77152,1.704,0.35064,-3.18,30.66,5.82
3.1872,-7.0962,-0.068102,-0.68967,1.7908,0.26848,-3.78,30.78,6.72
3.8001,-8.5127,0.14982,-0.5846,1.7901,0.22022,-4.86,31.32,8.46
4.0997,-9.1529,0.040861,-0.46701,1.6774,0.19364,-5.46,31.74,9.06
4.0997,-9.7658,0.095342,-0.32437,1.4707,0.21686,-6.0,32.04,9.6
4.8625,-14.329,0.39499,-0.17959,1.1985,0.4664,-7.08,32.88,10.74
5.0668,-14.506,0.29965,0.066279,0.95051,0.80604,-7.56,33.12,11.16
4.9714,-12.449,0.29965,0.26603,0.72204,0.82956,-7.86,33.6,11.64
4.6718,-9.3844,-1.0215,0.34911,0.55711,0.82009,-8.52,34.56,12.18
4.4402,-9.2482,-1.3212,0.57055,-0.0027489,0.69578,-8.82,35.16,12.54
4.1814,-9.7658,-1.3484,0.61148,-0.31582,0.5678,-9.06,35.7,12.72
3.3097,-10.379,-1.0215,0.45601,-0.38515,0.42516,-9.6,36.72,13.08
2.833,-10.174,-0.55843,0.23671,-0.23152,0.35522,-9.66,37.2,13.2
2.5742,-9.5479,-0.50395,0.11332,0.29169,0.32712,-9.78,37.92,13.26
2.3836,-8.6762,-0.61292,-0.1967,1.3357,0.25626,-9.84,38.46,13.2
2.4517,-7.8045,-0.7355,-0.26114,1.8405,0.208,-9.84,38.94,13.14
2.9829,-7.0962,-1.0896,-0.23793,2.0375,0.11423,-9.66,39.84,13.38
3.1872,-7.2188,-1.1441,-0.17013,2.0149,0.070555,-9.66,40.26,13.38
3.4187,-7.4231,-1.1441,-0.11973,1.8918,0.03207,-9.6,40.8,13.38
3.4868,-7.5048,-1.2803,-0.11637,1.7013,0.0036652,-9.9,42.0,13.62
3.2416,-7.4095,-1.3212,-0.24618,1.4285,-0.15638,-10.02,42.48,13.74
2.7513,-7.2324,-1.1032,-0.38271,1.4212,-0.31521,-10.38,43.02,13.86
2.261,-7.8045,-0.8036,-0.55375,1.4786,-0.43219,-11.16,43.8,14.04
2.1656,-9.7385,-0.27241,-0.75136,1.5543,-0.44532,-11.7,44.4,14.34
1.9205,-12.803,0.61292,-1.036,1.704,-0.2361,-13.02,45.3,14.58
2.1929,-16.222,1.7979,-1.2544,1.9007,0.064446,-13.74,45.78,14.46
3.0782,-18.578,3.1872,-1.4398,2.1841,0.416,-14.58,46.38,14.58
3.5004,-19.3,4.1678,-1.4001,2.6502,0.63225,-15.36,46.92,14.58
3.3915,-16.154,3.4732,-0.93951,3.0403,0.61209,-17.04,48.24,14.64
3.7592,-14.124,2.3427,-0.25656,2.6066,0.42669,-17.82,48.72,14.7
2.9284,-12.721,1.2939,0.52015,1.226,0.20586,-19.68,49.68,15.06
2.8603,-11.741,1.362,0.68845,0.8375,0.19609,-20.7,50.1,15.24
2.8603,-10.828,0.99429,0.56902,0.71257,0.25259,-21.66,50.64,15.3
3.0646,-9.9156,0.54481,0.34117,0.53451,0.31429,-22.62,51.06,15.48
2.6968,-8.54,-0.095342,0.10965,0.3204,0.34911,-24.6,52.02,15.84
2.0567,-7.9951,-0.38137,-0.089797,0.27642,0.34606,-25.56,52.38,16.08
1.8115,-7.7091,-0.55843,-0.31582,0.71196,0.281,-27.6,53.16,17.22
1.5391,-6.9191,-0.58567,-0.36469,0.95539,0.24679,-28.74,53.4,18.12
1.5391,-6.9191,-0.58567,-0.41478,1.2068,0.22358,-28.74,53.4,18.12
1.7706,-7.5457,-0.36775,-0.59926,2.1927,0.047037,-31.14,53.76,19.86
1.7706,-7.5457,-0.36775,-0.59926,2.1927,0.047037,-31.14,53.76,19.86
2.0567,-8.1313,-0.32689,-0.70647,2.1686,0.032681,-33.78,53.88,21.9
2.1793,-9.0031,-0.25879,-0.7929,1.9297,0.1011,-36.6,54.06,23.94
2.0839,-9.3572,0.095342,-0.87354,1.6774,0.18234,-37.92,54.18,25.02
2.0022,-9.7385,0.19068,-0.94623,1.4835,0.31918,-39.12,54.24,26.1
2.0431,-9.902,0.1362,-0.99724,1.3506,0.46548,-41.7,54.24,28.86
1.9886,-9.5479,0.01362,-0.99815,1.321,0.52015,-42.84,54.12,30.12
2.1384,-11.441,0.44947,-1.0259,1.266,0.6072,-45.06,54.06,32.82
2.2882,-12.381,0.77636,-1.0947,1.3149,0.69914,-46.08,54.0,34.2
2.3427,-13.416,1.1577,-1.1747,1.5397,0.70219,-46.98,53.94,35.28
2.2474,-11.891,1.4029,-1.1796,1.9261,0.54367,-48.48,53.46,38.16
2.1929,-10.706,0.89894,-1.0229,2.3369,0.29535,-49.08,53.1,39.48
2.2201,-9.9429,-0.054481,-0.44288,2.5681,-0.10629,-49.5,52.74,40.74
2.6696,-9.6296,-1.7025,-0.064446,2.3228,-0.32223,-50.34,51.54,43.32
2.7649,-9.9429,-1.9613,0.16646,1.8433,-0.48747,-50.64,50.7,44.46
2.5742,-9.8884,-1.6889,0.1124,1.1051,-0.67562,-50.82,49.8,45.66
2.3155,-9.2755,-1.1713,0.0085521,0.93218,-0.7141,-50.94,49.02,47.04
1.9341,-7.5729,-0.76274,-0.36255,0.70708,-0.73731,-50.7,47.1,49.02
1.7843,-7.2869,-1.1169,-0.53573,0.7367,-0.66676,-50.34,46.02,50.22
1.5936,-7.0553,-1.4846,-0.63286,0.88606,-0.54886,-49.92,44.94,51.18
1.6344,-6.7285,-1.9886,-0.63072,1.1646,-0.46059,-48.84,42.42,52.68
1.7025,-6.4697,-1.9205,-0.57666,1.6573,-0.3207,-48.18,41.22,53.16
1.975,-6.6467,-1.6889,-0.5623,1.8326,-0.26176,-47.52,40.08,53.4
2.5198,-7.5048,-1.3757,-0.56872,2.2715,-0.067806,-46.2,38.1,53.34
2.8739,-7.8589,-1.3212,-0.58521,2.3616,0.044899,-45.6,37.14,53.34
3.0918,-8.0224,-1.3484,-0.59254,2.3201,0.13286,-45.0,36.36,52.86
3.5685,-8.4174,-1.1169,-0.56566,2.2083,0.22297,-43.68,35.16,51.78
3.6911,-8.3084,-1.1032,-0.50824,2.0968,0.31673,-43.26,34.86,51.18
3.6639,-8.036,-1.1577,-0.35369,1.9639,0.35522,-42.54,33.96,49.62
3.6366,-7.8998,-1.2122,-0.2361,1.8579,0.37965,-42.3,33.78,48.66
3.6094,-7.8181,-1.2258,-0.12126,1.7315,0.40103,-42.24,33.72,47.58
3.6366,-8.4174,-1.185,-0.030238,1.6084,0.44502,-42.48,33.78,45.3
3.6366,-8.9758,-1.1032,0.027794,1.5314,0.48106,-42.78,34.08,44.04
3.4323,-9.398,-0.9398,0.038179,1.5256,0.52748,-42.96,34.14,42.84
3.4187,-10.91,-0.49033,-0.010079,1.6481,0.6408,-43.62,35.04,40.32
3.7047,-12.299,-0.081722,-0.061697,1.814,0.8543,-43.8,35.22,39.12
4.0861,-13.062,0.027241,-0.14294,2.0253,1.0492,-43.98,35.76,37.86
4.2359,-13.116,0.25879,-0.18112,2.222,1.0996,-44.1,36.18,36.72
4.2087,-10.542,0.50395,-0.16952,2.3301,1.0079,-44.46,37.2,34.5
4.3449,-9.1256,0.27241,0.061087,2.1136,0.76725,-44.52,37.74,33.3
4.3858,-7.7364,-0.65378,0.19395,1.8961,0.68173,-44.88,39.12,30.78
4.6718,-8.145,-1.1441,0.44746,1.3124,0.54672,-44.88,39.72,29.76
4.8625,-8.9894,-1.1441,0.6463,0.29688,0.41569,-44.88,40.32,28.56
5.0531,-11.618,-0.54481,0.60964,-0.26023,0.2868,-44.64,41.58,26.58
4.6445,-12.34,-0.054481,0.43433,-0.53481,0.059559,-44.52,42.18,25.56
3.7456,-11.782,0.23155,0.17074,-0.47556,-0.22785,-44.34,42.66,24.84
2.4789,-9.902,-0.054481,-0.13622,0.11484,-0.68783,-44.28,43.2,23.76
2.3836,-9.3572,-0.31327,-0.20311,0.38576,-0.82772,-44.1,43.68,23.28
2.3836,-8.9758,-0.34051,-0.25229,0.89339,-1.0837,-44.16,43.74,22.86
2.4789,-8.6625,-0.44947,-0.26481,1.3952,-1.3244,-44.52,43.86,22.32
2.6423,-9.0575,-0.36775,-0.26817,1.5253,-1.4169,-44.58,43.8,22.14
2.4517,-9.2482,-0.12258,-0.34514,1.4658,-1.416,-45.18,43.26,21.96
2.438,-9.3299,-0.027241,-0.39004,1.3696,-1.3781,-45.6,42.78,22.08
2.152,-9.6704,0.054481,-0.48014,1.15,-1.3008,-46.08,42.18,22.02
1.9477,-9.6704,0.081722,-0.59284,0.98685,-1.1274,-46.56,41.46,22.26
1.757,-9.507,0.095342,-0.7199,0.91355,-0.81215,-47.16,40.56,22.32
1.6072,-8.8668,0.12258,-0.77641,0.96211,-0.57452,-48.48,38.7,22.5
1.7979,-8.7987,0.28603,-0.78741,1.0073,-0.34667,-49.26,37.8,22.68
2.1929,-9.1256,0.34051,-0.77519,1.0256,-0.1127,-50.52,36.12,22.86
2.2882,-9.2482,0.43585,-0.72082,0.96486,0.23152,-51.12,35.22,22.8
2.547,-9.6977,0.44947,-0.68325,0.87445,0.45601,-51.6,34.5,22.74
2.7513,-10.188,0.54481,-0.65515,0.81001,0.65943,-51.9,33.78,22.62
2.9011,-9.7794,0.54481,-0.63927,0.76358,0.81276,-52.44,32.46,22.44
3.051,-9.3844,0.40861,-0.59682,0.70097,0.91385,-52.62,31.98,22.26
3.1872,-9.9701,0.50395,-0.53878,0.57482,1.08,-52.26,31.38,22.14
3.1599,-10.379,0.65378,-0.50457,0.54184,1.1179,-51.96,31.32,21.96
3.228,-10.964,0.74912,-0.44563,0.50183,1.2297,-51.72,31.5,21.6
3.5413,-10.815,0.54481,-0.27917,0.53817,1.3448,-50.28,32.16,21.24
3.8137,-10.283,0.12258,-0.1295,0.52198,1.3567,-49.56,32.58,20.88
4.0452,-9.9837,-0.23155,0.040012,0.37843,1.2865,-48.84,33.12,20.58
4.2904,-9.3163,-1.076,0.23427,-0.007025,0.99021,-46.86,34.2,19.68
4.3585,-9.1529,-1.362,0.28772,-0.34544,0.6857,-45.78,34.74,19.38
4.2087,-9.3708,-1.6072,0.28283,-0.51771,0.5226,-44.58,35.4,18.96
3.6094,-9.9973,-1.7979,0.18631,-0.90225,0.011912,-42.12,36.72,18.3
3.3097,-10.174,-1.7979,0.062308,-0.92699,-0.2587,-40.92,37.44,18.18
2.9829,-9.9292,-1.8115,-0.071471,-0.75595,-0.43463,-39.66,38.1,18.0
2.4517,-8.826,-1.866,-0.20739,-0.44654,-0.59895,-37.26,39.06,17.52
2.3291,-8.3901,-1.7979,-0.32529,0.12339,-0.6634,-36.06,39.3,17.34
2.3427,-7.8181,-1.7025,-0.35216,0.27581,-0.66951,-34.98,39.54,17.22
2.6151,-7.3822,-1.4982,-0.35919,0.49205,-0.61453,-33.06,39.72,16.98
2.7104,-7.4095,-1.3893,-0.32406,0.46334,-0.53603,-32.1,39.78,16.92
2.8603,-7.6274,-1.2258,-0.27642,0.38362,-0.42883,-31.2,39.78,16.68
2.9148,-7.7636,-1.2531,-0.17043,0.24435,-0.24648,-29.7,39.66,16.44
3.0237,-7.9815,-1.1577,-0.07758,0.15516,-0.13286,-29.1,39.54,16.32
3.0373,-7.8862,-1.2258,0.032376,0.052229,-0.072693,-28.44,39.36,16.32
3.051,-7.6546,-1.0351,0.13867,-0.089797,-0.06017,-27.9,39.24,16.02
2.942,-6.8102,-1.1577,0.25076,-0.28558,-0.07025,-26.94,38.94,15.42
3.0646,-6.4697,-1.3212,0.37599,-0.55344,-0.099876,-26.46,38.7,15.06
2.8603,-5.9657,-1.4438,0.48197,-0.89003,-0.13347,-25.62,38.58,14.28
2.6696,-5.8023,-1.5527,0.5681,-1.2846,-0.17257,-25.14,38.52,13.86
2.2746,-6.0338,-1.58,0.54581,-1.3946,-0.2135,-24.54,38.58,13.38
2.0839,-6.2926,-1.6481,0.45693,-1.339,-0.24251,-24.06,38.7,12.78
1.5255,-7.5457,-1.3212,0.31276,-1.1307,-0.2416,-22.92,39.12,11.94
1.4165,-8.4582,-0.9398,0.15272,-0.7926,-0.17837,-22.5,39.3,11.46
1.3484,-9.6841,-0.61292,-0.11576,-0.029932,-0.05681,-21.54,39.6,10.14
1.3757,-10.065,-0.35413,-0.18631,0.23885,-0.029322,-21.0,39.78,9.36
1.58,-9.9973,-0.095342,-0.32681,0.99021,-0.03879,-20.58,39.9,8.46
1.6481,-9.3844,0.12258,-0.33323,1.3402,-0.087965,-20.1,39.96,7.8
1.9341,-7.5321,-0.040861,-0.22999,1.47,-0.16921,-19.14,40.14,6.24
2.1248,-6.1564,-0.38137,-0.029932,1.2889,-0.24435,-18.84,40.2,5.34
2.6423,-4.3449,-1.2531,0.20311,0.74678,-0.31918,-18.42,40.26,4.44
3.1463,-4.9033,-1.3484,0.4609,-0.59346,-0.37141,-17.64,40.38,2.28
3.1463,-4.9033,-1.3484,0.51588,-1.5589,-0.38637,-17.64,40.38,2.28
3.1735,-10.692,-0.095342,0.44868,-2.3604,-0.31796,-17.4,40.08,-0.12
2.8058,-13.757,0.62654,0.2419,-2.6961,-0.19059,-17.22,39.72,-1.44
2.4108,-16.072,1.4438,-0.078191,-2.5009,-0.1011,-17.22,39.36,-2.82
2.2201,-18.864,2.4789,-0.46487,-1.8415,0.073915,-17.1,38.7,-5.52
2.0294,-17.856,2.5061,-0.94287,-0.013439,0.19273,-17.16,38.46,-6.66
1.5391,-14.152,2.2882,-1.0547,1.3586,0.0076358,-17.16,38.04,-7.86
1.4438,-10.501,1.2531,-0.9166,2.4685,-0.2474,-17.1,37.26,-10.32
2.5742,-9.2482,0.62654,-0.65668,2.9205,-0.33598,-17.1,36.96,-11.58
3.2144,-9.4117,0.44947,-0.3992,2.7562,-0.32926,-16.98,36.6,-12.78
3.514,-9.6977,0.27241,-0.20922,2.2144,-0.1741,-16.8,36.36,-13.92
4.7671,-9.2482,0.64016,-0.11942,1.0632,0.13744,-16.44,35.52,-16.14
4.9987,-8.7715,0.47671,-0.18326,0.22144,0.26176,-16.14,35.28,-17.16
4.3177,-8.1177,0.01362,-0.22297,-0.13439,0.29719,-15.36,34.74,-18.66
3.8001,-7.9951,-0.1362,-0.30055,-0.74159,0.29291,-15.0,34.5,-19.44
3.3915,-7.8317,-0.21793,-0.35797,-0.73059,0.2474,-14.76,34.32,-20.16
2.9284,-7.6683,-0.21793,-0.416,-0.49083,0.20861,-13.98,33.78,-21.48
2.9011,-7.4095,-0.27241,-0.48442,0.16127,0.15333,-13.74,33.72,-22.2
2.9965,-7.1507,-0.46309,-0.50335,0.5959,0.093462,-13.38,33.6,-22.74
3.1191,-7.3414,-0.6674,-0.50946,0.76144,0.079412,-12.96,33.54,-23.22
3.8818,-9.6568,-0.74912,-0.50793,0.95814,0.11057,-12.48,33.24,-24.18
4.0589,-11.005,-0.76274,-0.4948,0.98441,0.18601,-12.3,33.18,-24.6
4.127,-11.945,-0.69464,-0.49327,0.98899,0.26176,-12.0,33.06,-24.9
4.5083,-15.473,0.14982,-0.45357,0.95203,0.4215,-11.76,33.0,-25.5
4.8352,-16.481,0.19068,-0.37965,0.95295,0.72785,-11.58,32.76,-25.56
5.2983,-15.391,-0.095342,-0.1741,0.92607,0.85949,-11.4,32.58,-25.86
5.3119,-11.019,-1.0896,0.29322,0.27703,0.74312,-11.1,32.52,-26.76
5.1621,-8.2267,-1.7979,0.63133,-0.52687,0.56902,-10.98,32.58,-27.12
4.8761,-7.7636,-1.8524,0.85307,-1.529,0.31582,-10.86,32.52,-27.42
3.7728,-8.5672,-1.58,0.93859,-2.7321,-0.014355,-10.92,32.7,-28.02
3.1735,-8.0905,-1.471,0.79962,-3.0045,-0.15149,-11.28,32.64,-28.38
2.7786,-7.4912,-1.3212,0.56933,-2.8479,-0.27184,-11.94,32.64,-28.68
1.5663,-6.1428,-1.4438,0.31124,-2.3595,-0.35125,-13.5,32.7,-29.28
0.76274,-5.7614,-1.6072,0.096517,-1.6423,-0.4273,-14.52,32.7,-29.52
0.38137,-5.4073,-1.8251,-0.087048,-0.77946,-0.48625,-15.84,32.7,-29.7
0.57205,-5.1213,-1.8932,-0.21197,0.31826,-0.49694,-18.54,32.76,-30.12
0.83084,-5.2575,-1.7979,-0.24251,0.7199,-0.41539,-20.04,32.82,-30.6
1.1169,-5.8567,-1.5391,-0.22449,0.93493,-0.27306,-21.6,32.7,-30.9
2.0294,-7.4776,-1.1305,-0.20983,0.99632,-0.075136,-24.6,32.46,-31.5
2.4653,-8.4719,-1.0624,-0.17654,0.89553,0.10721,-25.98,32.22,-31.74
2.5334,-8.8668,-0.8036,-0.0956,0.73029,0.22144,-27.36,31.98,-32.34
2.5879,-8.3901,-0.5993,-0.013744,0.55589,0.32101,-29.52,31.2,-33.84
2.7649,-7.9679,-0.44947,0.16707,0.24618,0.37538,-30.3,30.78,-34.56
2.8194,-7.5729,-0.57205,0.2529,0.10018,0.38943,-30.84,30.36,-35.34
2.9965,-6.8102,-0.85808,0.50916,-0.48655,0.4102,-31.2,29.94,-36.24
2.7786,-6.96,-0.68102,0.61636,-0.91508,0.39615,-31.74,28.38,-38.16
2.7104,-8.1041,-0.53119,0.61789,-1.2587,0.40073,-31.8,27.54,-39.3
2.1248,-10.406,-0.28603,0.42913,-1.4227,0.35858,-31.62,25.26,-41.22
1.7434,-12.299,0.17706,0.18021,-1.1912,0.33414,-31.5,23.76,-42.12
1.8932,-14.056,0.77636,-0.15638,-0.76572,0.35125,-31.5,22.26,-42.96
2.0022,-15.8,1.2395,-0.33872,-0.5226,0.36682,-31.26,20.64,-43.74
2.8603,-19.177,1.8796,-0.8491,0.34544,0.43402,-31.26,19.2,-44.4
2.9692,-17.448,2.4517,-1.0956,1.0715,0.22602,-30.96,16.26,-45.3
2.3155,-12.967,2.4517,-1.1713,1.8137,-0.12675,-30.84,14.82,-45.72
1.6072,-8.717,0.85808,-0.9276,2.3815,-0.60537,-30.66,13.44,-46.02
2.1248,-7.6683,0.21793,-0.51404,2.613,-0.88026,-30.18,10.92,-46.92
2.7241,-7.9951,-0.054481,0.027184,2.2904,-0.88117,-29.76,9.78,-47.34
3.3097,-8.1858,0.040861,0.26725,1.7425,-0.64538,-29.16,8.76,-47.76
3.9363,-8.0088,0.19068,0.31124,1.0431,-0.3091,-28.62,7.92,-48.18
4.3449,-6.8374,0.28603,0.20861,0.2025,-0.0045815,-27.6,6.48,-48.66
3.5413,-6.2109,0.28603,0.063225,-0.8433,0.26909,-26.94,6.12,-48.96
2.5606,-6.4152,-0.50395,-0.10293,-1.1032,0.40164,-25.8,5.88,-49.26
2.5334,-7.4095,-0.70826,-0.20586,-1.0467,0.5116,-25.56,6.06,-49.32
2.5061,-8.2948,-0.70826,-0.28863,-0.76877,0.56139,-25.14,6.24,-49.26
2.5061,-8.717,-0.6674,-0.39798,-0.25198,0.53695,-24.72,6.36,-49.32
2.2746,-9.1937,-0.58567,-0.53756,0.44043,0.42913,-24.06,6.84,-48.96
2.3427,-8.7987,-0.61292,-0.70891,1.4413,0.22358,-23.76,7.14,-48.6
2.6151,-8.5672,-0.7355,-0.74373,1.8085,0.091935,-23.46,7.5,-48.0
3.051,-8.3765,-0.92618,-0.74892,1.8534,0.047342,-22.98,7.8,-47.34
4.0861,-9.4389,-0.7355,-0.70555,1.5794,0.0281,-22.2,8.52,-45.78
4.2223,-9.9429,-0.74912,-0.64202,1.1884,0.084605,-21.54,8.88,-44.76
4.1814,-10.351,-0.54481,-0.54275,0.76541,0.17318,-21.0,9.36,-43.74
4.0861,-11.032,-0.36775,-0.33323,0.18387,0.40897,-19.86,10.14,-42.06
4.3721,-12.803,-0.081722,-0.1686,-0.13347,0.71074,-19.14,10.74,-41.04
4.6445,-14.901,0.095342,0.025351,-0.31918,1.0104,-18.48,11.46,-40.2
4.7399,-13.13,-0.29965,0.26725,-0.40806,1.1115,-16.98,12.6,-38.82
4.6037,-10.665,-0.6674,0.50121,-0.58582,1.0162,-16.32,13.38,-38.1
4.5492,-8.8396,-1.1169,0.7086,-0.96975,0.79474,-15.78,14.16,-37.5
4.1133,-7.0962,-1.6208,0.90072,-1.9099,0.36896,-14.82,15.66,-36.36
3.4459,-6.7966,-1.6889,0.90255,-2.5559,0.10812,-14.7,16.44,-36.0
3.051,-6.565,-1.7025,0.78221,-2.9486,-0.094684,-14.94,17.28,-35.7
1.4029,-5.7342,-1.3484,0.57666,-2.9658,-0.21777,-16.14,19.14,-34.86
0.62654,-5.8704,-1.0896,0.32315,-2.6264,-0.24282,-17.22,19.98,-34.44
0.01362,-6.1973,-0.85808,0.059559,-1.8378,-0.1741,-18.36,20.94,-34.08
-0.040861,-7.7091,-0.54481,-0.16524,-0.69883,0.043982,-21.12,22.68,-33.3
0.54481,-8.3901,-0.53119,-0.34575,0.91049,0.16982,-22.44,23.4,-33.06
1.9613,-8.5127,-0.21793,-0.29444,1.5605,0.15241,-23.76,24.18,-32.82
2.3427,-5.8023,-0.040861,-0.15852,1.803,0.042761,-26.22,25.56,-32.28
2.7786,-3.337,-0.51757,0.1066,1.4517,-0.12889,-27.24,26.22,-32.22
2.8739,-2.4244,-1.4165,0.43585,0.41844,-0.32926,-28.14,26.7,-32.16
2.3291,-4.018,-2.2474,0.67256,-1.2062,-0.51893,-30.24,27.12,-31.68
0.74912,-6.3198,-1.5255,0.60353,-3.7031,-0.51313,-31.08,27.06,-31.2
-0.46309,-8.3901,-0.28603,0.26603,-4.3845,-0.31398,-31.8,26.76,-30.54
-0.96704,-18.224,2.6015,-0.33201,-3.6331,-0.18479,-33.0,25.68,-28.98
-1.1169,-19.368,3.4459,-1.0122,-1.6893,-0.10599,-33.36,24.9,-27.9
-1.076,-19.286,3.6639,-1.5403,0.52137,0.18815,-33.42,24.12,-26.82
1.3212,-17.884,2.2746,-1.6725,2.3408,0.28314,-32.94,22.68,-24.72
2.0703,-16.576,1.6072,-1.1371,3.5085,-0.12889,-32.64,22.08,-23.64
2.5606,-13.552,0.69464,-0.66829,3.3194,-0.42577,-32.28,21.24,-22.68
2.6423,-8.9213,0.6674,-0.29658,2.9273,-0.4945,-31.62,19.86,-20.64
3.1872,-8.1586,0.88532,-0.031765,2.4829,-0.47831,-31.38,19.08,-19.38
3.7728,-8.1177,0.7355,0.088881,1.8405,-0.35888,-31.02,18.48,-18.24
3.9908,-8.2267,0.17706,0.080634,1.0809,-0.17959,-30.12,17.76,-16.08
3.7592,-7.6683,-0.20431,-0.0036652,0.19578,0.072998,-29.58,17.58,-15.06
3.2825,-6.4697,-0.57205,-0.095295,0.028711,0.09896,-29.04,17.7,-14.34
2.4517,-4.0997,-1.4301,-0.14447,-0.1405,-0.0088575,-27.9,18.42,-13.02
2.1929,-3.2553,-2.2746,-0.13775,-0.15882,-0.13806,-27.3,18.9,-12.6
2.1656,-3.4868,-2.3836,-0.17135,-0.23091,-0.16463,-26.82,19.38,-12.3
2.833,-9.0848,-1.6617,-0.17349,-0.28527,-0.054672,-26.04,20.34,-11.1
