Ax,Ay,Az,Gx,Gy,Gz,Mx,My,Mz
2.2337,-6.1292,-1.5255,-0.10904,0.23335,0.33506,-18.24,40.92,-38.76
2.9965,-6.5786,-1.2258,-0.34453,0.32834,0.39462,-17.58,40.38,-38.88
2.7922,-6.7693,-1.185,-0.52015,0.43616,0.41722,-17.04,40.08,-39.0
2.942,-7.1915,-0.89894,-0.67256,0.64904,0.39126,-16.74,39.66,-39.3
2.9556,-7.9951,-1.1169,-0.90713,0.93859,0.37446,-15.48,38.52,-39.72
3.1872,-8.2948,-1.2531,-0.97005,1.0595,0.35064,-14.46,37.92,-40.08
3.3097,-8.2131,-1.471,-1.0531,1.2547,0.32315,-13.38,37.26,-40.5
3.5822,-8.1722,-1.7298,-0.97555,1.3173,0.31185,-12.3,36.66,-41.04
4.0589,-9.3572,-1.5527,-0.87323,1.1512,0.33628,-9.66,35.46,-42.12
4.5083,-11.087,-1.6072,-0.78282,0.86621,0.41325,-8.04,34.74,-42.6
4.9033,-13.062,-1.8387,-0.70433,0.54459,0.48655,-5.22,33.3,-43.32
4.9987,-13.961,-2.0022,-0.52718,0.22999,0.58124,-3.84,32.64,-43.44
5.0531,-15.282,-2.2746,-0.41539,0.17868,0.59987,-2.34,31.92,-43.56
5.2302,-17.638,-2.5334,0.042761,0.022602,0.65637,-1.08,31.2,-43.38
5.8976,-16.481,-3.514,0.37477,-0.22022,0.50305,1.2,29.88,-42.9
5.2983,-13.539,-3.8818,0.7758,-0.67256,0.24404,2.22,29.34,-42.18
3.732,-9.4661,-3.6911,1.0357,-1.4945,-0.36682,3.6,28.44,-41.04
2.7649,-7.3822,-3.1054,0.94776,-1.7428,-0.69944,3.72,28.2,-40.26
2.2337,-6.6331,-2.6696,0.84513,-1.7483,-0.7984,3.78,27.96,-39.6
1.3348,-5.3937,-2.3018,0.53909,-1.507,-0.83261,3.3,27.48,-37.38
1.5663,-5.38,-2.6015,0.45418,-1.4364,-0.66157,2.76,27.3,-36.36
1.6208,-5.5026,-2.9011,0.3769,-1.5388,-0.46334,1.98,27.24,-35.16
1.4574,-5.7069,-2.8875,0.34789,-1.3607,-0.16249,-0.06,27.3,-32.58
1.7025,-5.7614,-2.7649,0.34117,-1.2504,-0.083689,-1.14,27.36,-31.38
1.757,-5.5707,-2.4925,0.2361,-0.99571,-0.047037,-2.28,27.42,-30.06
1.7162,-5.1485,-2.2474,0.10201,-0.98319,-0.1912,-3.3,27.66,-28.68
1.6344,-4.8352,-2.0294,-0.014661,-1.0275,-0.42028,-4.2,27.72,-27.24
1.3212,-4.6445,-1.7298,-0.084299,-1.0672,-0.64874,-6.12,27.6,-24.42
1.3757,-5.3392,-1.8387,-0.12889,-1.1405,-0.78221,-6.9,27.54,-22.8
1.6208,-6.5241,-1.866,-0.23427,-1.3543,-0.75014,-7.86,27.24,-19.8
1.5255,-7.2324,-1.7706,-0.31673,-1.4465,-0.61514,-8.1,26.94,-18.06
1.3212,-7.9951,-1.4165,-0.36255,-1.3894,-0.53573,-8.22,26.7,-16.62
1.362,-8.8941,-1.1032,-0.52321,-0.80817,-0.32376,-8.28,26.46,-15.18
2.0158,-10.529,-0.29965,-0.63041,-0.31734,-0.27367,-7.86,25.62,-12.3
2.547,-12.19,-0.081722,-0.66676,0.10324,-0.23732,-7.26,25.2,-10.92
3.1191,-13.661,-0.10896,-0.68814,0.38546,-0.23671,-6.78,24.6,-9.54
4.2632,-15.718,-0.095342,-0.44013,0.46395,-0.19761,-5.46,23.58,-6.72
4.8625,-16.671,-0.28603,-0.1405,0.32223,-0.069028,-4.74,23.04,-5.76
5.2166,-17.87,-0.1362,0.16371,-0.05284,0.16463,-4.14,22.68,-4.56
4.9714,-19.423,-0.23155,0.40103,-0.20922,0.4667,-2.46,22.08,-2.82
4.7944,-16.481,-0.85808,0.52076,-0.14905,0.7141,-1.56,21.84,-2.04
3.6775,-11.319,-0.85808,0.5568,-0.10507,0.69608,0.42,21.48,-0.72
2.7513,-8.0769,-0.44947,0.4725,0.038485,0.33781,1.32,21.48,-0.3
2.3563,-6.279,-0.28603,0.45662,0.066584,0.18448,2.22,21.3,0.24
2.1656,-5.4481,-0.40861,0.58246,-0.013439,-0.16554,3.06,21.36,0.6
2.2201,-4.5083,-1.471,0.72846,-0.18112,-0.22235,4.86,21.78,1.44
2.4653,-4.413,-2.1112,0.759,-0.51221,-0.16157,5.64,21.96,1.8
1.975,-4.2359,-2.1384,0.64507,-0.80665,-0.034208,6.42,22.32,2.1
1.4438,-4.699,-1.866,0.41875,-0.79199,0.10537,8.28,22.8,2.22
1.0215,-5.094,-1.4438,0.065057,-0.52412,0.23579,9.18,23.22,2.28
0.6674,-5.4209,-0.88532,-0.51343,0.14111,0.3937,10.14,23.4,2.28
0.78998,-6.8919,-0.27241,-0.80604,0.80665,0.46762,12.06,24.0,2.28
1.2258,-7.4095,-0.12258,-1.1203,1.4978,0.49266,12.9,24.24,2.16
2.4108,-8.1995,-0.35413,-1.2947,2.0653,0.47983,14.88,24.6,2.16
3.1599,-8.5536,-0.8036,-1.3402,2.3659,0.41264,15.9,24.66,2.4
3.7047,-8.4174,-1.3757,-1.2352,2.2923,0.28436,16.86,24.96,2.34
3.8682,-9.6023,-1.6344,-0.88759,1.6634,0.13256,18.78,25.14,2.76
3.909,-11.4,-1.7706,-0.6524,1.2639,0.15485,19.62,25.14,2.88
4.3721,-13.525,-1.757,-0.48717,0.91966,0.27061,20.52,25.32,3.06
4.7944,-15.078,-2.3427,-0.22113,0.50549,0.50366,22.2,25.68,3.24
4.699,-16.699,-2.5061,0.075442,0.29963,0.61453,22.86,25.92,3.54
4.8625,-18.224,-2.9148,0.281,0.22083,0.68264,23.52,25.92,3.84
5.5299,-17.693,-4.127,0.84513,-0.25412,0.54917,24.12,26.28,4.14
4.4266,-12.721,-4.2223,1.0736,-0.80634,0.17868,24.96,26.64,4.68
3.0646,-10.42,-3.5685,1.1099,-1.2846,-0.27092,25.5,26.82,4.92
1.9341,-8.0496,-2.5742,0.96089,-1.6261,-0.59956,26.28,27.42,4.98
1.2258,-7.1234,-2.4925,0.73823,-1.7791,-0.72754,26.64,27.84,4.86
0.5993,-6.3743,-2.8603,0.52412,-1.4991,-0.48381,27.12,28.14,4.8
0.12258,-5.4073,-3.3234,0.42028,-1.2233,-0.21289,27.9,28.86,3.9
0.1362,-4.8216,-3.6775,0.35797,-0.93218,0.051618,28.26,29.22,3.3
0.21793,-4.6173,-3.4732,0.30146,-0.51557,0.28558,28.68,29.7,2.7
1.0351,-4.6309,-3.3097,0.17226,-0.073915,0.44074,29.7,30.3,1.5
1.3757,-4.7671,-3.2144,0.16524,-0.10385,0.42089,30.18,30.48,0.84
1.7025,-5.2575,-3.1872,0.13653,-0.31398,0.33781,30.6,30.72,0.18
2.0703,-5.9385,-3.2008,0.076969,-0.5736,0.17318,31.86,31.14,-1.32
2.0294,-6.2109,-3.0237,-0.0061087,-0.81184,0.0018326,32.46,31.62,-1.98
1.7025,-6.565,-2.9011,-0.072998,-0.90652,-0.13806,32.94,31.98,-2.58
1.4438,-7.0281,-2.8058,-0.16127,-0.80268,-0.22694,33.42,32.34,-3.3
1.6208,-8.1722,-2.6696,-0.32223,-0.43219,-0.19945,34.68,32.82,-3.84
1.8932,-8.4991,-2.5198,-0.40287,-0.28772,-0.18662,35.16,33.06,-4.2
2.438,-9.1937,-1.7025,-0.56505,0.11912,-0.17196,36.54,33.66,-4.74
2.9284,-10.637,-1.1169,-0.58246,0.27733,-0.14386,37.08,33.84,-4.56
3.7184,-13.28,-0.88532,-0.5565,0.30788,-0.071166,37.68,34.08,-4.5
4.522,-16.154,-1.362,-0.56108,0.24709,0.0015272,38.82,34.68,-4.08
5.094,-16.181,-1.6344,-0.34544,-0.092852,0.054367,39.36,35.16,-3.96
4.9987,-15.228,-1.2531,-0.27336,-0.26542,0.027794,39.96,35.58,-3.66
4.4402,-17.734,0.96704,-0.15852,-0.46395,-0.045815,40.38,35.94,-3.3
4.6445,-18.891,0.8036,-0.061392,-0.60812,-0.03146,41.28,36.42,-2.64
4.413,-17.666,-0.72188,0.069333,-0.78435,-0.0094684,41.76,36.54,-2.4
3.2416,-10.256,-1.9613,0.23305,-0.88484,-0.13592,42.54,36.78,-2.28
2.7786,-8.5263,-1.6481,0.23213,-0.88606,-0.41844,42.84,36.72,-2.1
2.0567,-6.7421,-0.85808,0.10843,-0.87323,-0.54123,43.08,36.72,-1.98
0.28603,-4.3313,0.28603,-0.13897,-0.6185,-0.89278,42.96,36.66,-1.92
-0.095342,-3.8137,0.14982,-0.13683,-0.3653,-0.94959,43.08,36.72,-2.04
-0.068102,-3.8682,-0.19068,-0.15944,-0.22816,-0.83566,42.84,36.6,-2.28
0.32689,-4.1814,-1.2258,-0.25779,-0.074526,-0.64446,42.06,36.6,-2.94
0.6674,-4.4675,-1.2667,-0.28527,0.17623,-0.087659,41.64,36.6,-3.18
1.2531,-5.4073,-0.99429,-0.26542,0.28405,0.12584,40.98,36.72,-3.96
1.3893,-5.6797,-0.98067,-0.32681,0.64446,0.64202,40.68,36.66,-4.32
1.4982,-5.7205,-0.81722,-0.37965,0.82681,0.7761,40.44,36.78,-4.68
1.7025,-6.7421,-0.39499,-0.42364,1.011,0.82406,40.08,36.96,-5.16
1.757,-7.4776,-0.35413,-0.42913,1.2364,0.78405,40.08,37.02,-5.16
2.0022,-8.5127,-0.83084,-0.36285,1.4655,0.7364,40.14,37.32,-5.22
3.0918,-9.8611,-1.5391,-0.146,1.5632,0.65668,40.56,37.92,-4.68
3.514,-9.7385,-2.152,0.051924,1.3137,0.60995,40.8,38.16,-4.2
3.6775,-9.8203,-2.3836,0.14203,1.1234,0.58765,40.98,38.34,-3.9
3.4459,-11.782,-2.2882,0.36316,0.51954,0.54611,41.88,39.12,-2.76
3.3506,-14.274,-2.7922,0.44624,0.14416,0.49541,42.48,39.54,-2.1
3.5413,-15.568,-3.623,0.41203,-0.11057,0.38454,43.5,40.14,-1.02
3.3234,-16.372,-3.7728,0.36988,-0.17868,0.29566,43.98,40.62,-0.42
2.9556,-15.636,-3.6503,0.25107,-0.09896,0.16218,44.4,40.98,0.18
2.7922,-15.636,-3.4868,0.24251,-0.066279,0.11912,44.64,41.28,0.72
3.0373,-16.154,-4.1814,0.29199,-0.087659,0.10324,45.0,42.12,1.56
2.9284,-13.866,-4.5356,0.26237,-0.28405,0.11057,45.0,42.54,1.8
1.9068,-8.1177,-3.7184,0.18082,-0.38515,-0.012828,45.0,42.96,2.1
1.4165,-6.1973,-3.0918,-0.072998,-0.35339,-0.084605,45.0,43.26,2.1
1.1441,-5.3119,-2.8603,-0.15149,-0.33048,-0.1182,45.12,43.5,1.8
0.61292,-4.1814,-2.3699,-0.21105,-0.17165,-0.14355,45.24,43.5,1.44
0.6674,-3.732,-2.5198,-0.19548,-0.072388,-0.067806,45.24,43.26,0.66
1.0896,-3.6775,-2.4653,-0.18082,0.0033598,0.055589,45.3,43.02,0.24
1.6753,-4.1406,-2.3972,-0.11698,0.057727,0.19028,45.36,42.84,-0.18
2.261,-4.6173,-2.1929,-0.060781,0.071777,0.26298,45.54,42.6,-0.6
2.5334,-4.9169,-2.1248,0.044593,-0.0097738,0.26023,45.78,42.12,-1.56
2.6423,-5.4754,-2.2201,0.25717,-0.45601,0.12798,46.26,41.76,-1.86
2.6968,-6.0611,-2.2065,0.35369,-0.821,-0.020159,46.98,41.22,-2.28
2.5198,-6.2517,-1.8932,0.38271,-1.1411,-0.17349,47.58,40.98,-2.64
2.1248,-6.4969,-1.8932,0.35705,-1.2956,-0.29841,48.18,40.56,-2.82
1.8796,-6.7421,-1.975,0.27519,-1.2712,-0.39431,48.6,40.56,-2.76
1.5391,-7.6274,-1.8524,0.087048,-0.94776,-0.52168,49.08,40.92,-2.88
1.4301,-9.6977,-1.4846,-0.033292,-0.59498,-0.54428,49.5,41.52,-2.82
1.8387,-12.898,-0.78998,-0.20647,-0.20036,-0.46365,50.04,42.06,-2.58
2.9556,-16.794,-0.16344,-0.45937,0.20036,-0.34483,50.46,42.9,-2.28
3.8137,-18.006,0.12258,-0.73793,0.47739,-0.20922,50.46,43.86,-1.98
4.3177,-18.02,0.040861,-0.78893,0.55711,-0.057116,50.34,44.88,-1.2
4.3449,-17.938,0.095342,-0.6915,0.56505,0.031765,50.46,45.48,-0.78
4.2359,-17.897,0.49033,-0.49114,0.50916,-0.0051924,50.4,45.9,-0.42
3.8818,-15.691,0.24517,-0.17501,0.21961,-0.14661,49.86,46.98,0.54
3.4187,-13.321,-0.43585,0.080023,-0.041233,-0.28924,49.8,47.22,0.84
2.8875,-10.719,-1.0624,0.28069,-0.24893,-0.4215,49.8,47.46,1.32
1.8796,-6.7693,-1.2803,0.3989,-0.44929,-0.55283,49.5,47.88,1.92
1.4982,-5.7614,-1.362,0.34392,-0.45815,-0.56902,49.32,48.06,2.1
1.0351,-5.1485,-1.1032,0.29688,-0.42761,-0.551,49.02,48.24,2.22
0.61292,-4.7399,-1.2531,0.019853,-0.17593,-0.32467,48.66,48.24,2.22
0.10896,-3.9227,-1.6344,-0.19151,0.045815,-0.089492,48.0,48.24,1.8
0.12258,-3.6366,-1.7025,-0.40714,0.37415,0.062003,47.82,48.24,1.86
0.34051,-4.4811,-1.2667,-0.54886,0.65088,0.27947,47.46,48.12,1.44
1.4301,-5.5026,-0.92618,-0.7028,1.0876,0.53115,47.28,48.0,1.26
1.9068,-6.8647,-0.70826,-0.77794,1.3378,0.69394,47.22,48.0,1.08
2.2337,-7.8726,-0.64016,-0.84177,1.5696,0.79077,47.22,48.12,1.08
2.5061,-8.1858,-0.85808,-0.81062,1.7807,0.73884,47.46,48.18,0.96
2.8058,-8.0905,-0.99429,-0.75045,1.8821,0.62461,47.82,48.42,1.56
2.7649,-7.75,-1.2803,-0.59956,1.7498,0.38637,48.0,48.72,2.04
3.2144,-9.1393,-1.4438,-0.5116,1.6475,0.32193,48.12,49.26,3.48
3.732,-10.91,-1.8796,-0.17593,1.1551,0.37385,48.3,49.5,4.14
4.1814,-12.108,-2.3563,0.11668,0.67409,0.56444,48.54,49.8,5.16
4.9306,-14.574,-3.7047,0.39828,0.23671,0.74953,48.84,50.58,7.02
4.7399,-15.078,-3.7728,0.63347,-0.049175,0.83475,48.9,50.88,7.74
4.127,-15.949,-2.9148,0.76114,-0.14355,0.80665,48.9,51.18,8.64
3.8001,-18.714,-3.5822,0.85552,-0.023213,0.71288,48.84,52.14,9.78
3.909,-16.453,-4.3994,0.76236,-0.030849,0.4612,48.78,52.68,10.32
3.3915,-13.089,-4.5901,0.53756,-0.31368,-0.0058032,48.84,52.92,10.5
2.1929,-8.2676,-3.3097,0.30085,-0.4441,-0.3146,48.54,53.52,10.62
1.5527,-6.1836,-2.833,0.18234,-0.56016,-0.47831,48.36,53.82,10.2
1.1032,-5.5707,-3.051,0.15791,-0.61728,-0.47983,48.3,53.88,9.84
0.70826,-5.1076,-3.2144,0.069639,-0.47373,-0.29505,48.18,54.18,8.4
0.77636,-4.6309,-3.5822,0.037263,-0.40103,-0.1967,48.24,54.3,7.56
1.2122,-4.2087,-3.4459,0.040012,-0.23671,-0.014355,48.18,54.42,6.72
1.4438,-4.0725,-3.2416,0.059254,-0.014355,0.1292,48.3,54.42,5.88
2.0703,-4.2904,-2.6423,0.087048,-0.030238,0.099876,48.66,54.6,4.02
2.1929,-4.6582,-2.5334,0.12675,-0.24679,0.01069,49.02,54.66,3.0
2.4108,-5.3664,-2.6423,0.20067,-0.62553,-0.067195,49.56,54.66,1.38
2.3836,-6.2517,-2.6423,0.16952,-1.0653,-0.20189,49.74,54.66,0.54
2.2474,-6.3471,-2.4108,0.11576,-1.1774,-0.23396,49.92,54.66,-0.18
2.0567,-6.6059,-2.3699,0.054672,-1.175,-0.23274,50.04,54.72,-1.02
1.6753,-7.4503,-2.152,-0.065057,-1.0088,-0.25229,50.4,55.2,-2.22
1.4846,-8.2131,-1.5527,-0.21808,-0.64385,-0.29352,50.58,55.62,-2.88
1.5255,-9.5751,-1.0079,-0.33139,-0.11912,-0.28802,50.64,56.1,-3.48
2.8875,-13.348,-0.31327,-0.3769,0.27825,-0.21319,50.52,56.94,-4.44
3.6775,-15.704,-0.12258,-0.3656,0.21808,-0.10965,50.4,57.48,-4.92
3.7592,-16.331,-0.28603,-0.27886,0.16799,-0.0067195,50.28,57.9,-5.28
3.6775,-16.835,-0.14982,-0.17501,0.27061,0.057116,49.86,58.86,-5.82
3.337,-18.101,0.47671,-0.1408,0.54,0.10934,49.44,59.46,-6.18
3.4459,-18.265,0.27241,-0.20159,0.72937,0.13561,49.14,59.88,-6.42
3.1463,-14.724,-0.40861,-0.47128,0.66645,0.026573,48.12,60.78,-6.66
2.6423,-11.931,-0.57205,-0.57085,0.79351,-0.09499,47.64,61.32,-6.84
2.4789,-10.27,-0.42223,-0.62186,0.91691,-0.21594,47.16,61.56,-6.72
2.0567,-7.2188,-0.24517,-0.59315,0.90164,-0.34789,46.02,62.16,-6.66
1.9613,-6.4288,-0.51757,-0.51588,0.79687,-0.44227,45.42,62.22,-6.48
1.9613,-5.2166,-1.076,-0.44502,0.64538,-0.43066,44.28,62.16,-6.06
2.2746,-4.7399,-1.0624,-0.37629,0.4273,-0.34208,43.56,62.22,-5.88
1.9886,-4.3994,-0.96704,-0.28436,0.16432,-0.10629,43.02,62.22,-5.7
2.0839,-4.2904,-0.74912,-0.27122,0.1014,0.04215,42.48,62.22,-5.7
1.9068,-4.522,-0.44947,-0.24312,0.037874,0.17746,41.88,62.1,-5.58
1.6889,-5.5162,-0.58567,-0.23243,0.07025,0.25992,40.92,61.86,-5.22
1.7298,-6.1292,-0.68102,-0.24526,0.22235,0.31246,40.5,61.86,-5.1
1.9613,-7.1234,-0.76274,-0.25076,0.42028,0.343,39.66,61.68,-4.8
2.152,-7.4776,-0.99429,-0.26267,0.67104,0.2978,39.36,61.68,-4.5
2.1384,-7.6955,-1.4846,-0.26634,0.70769,0.24801,38.94,61.86,-4.32
2.2746,-8.2131,-1.8115,-0.25504,0.65668,0.076969,37.98,62.04,-4.08
2.2474,-9.5342,-1.7706,-0.1689,0.58613,0.050091,37.62,62.22,-4.02
2.8875,-13.348,-2.3699,0.027794,0.39156,0.27122,36.96,62.58,-3.66
3.1463,-15.377,-2.6696,0.1295,0.28741,0.55803,36.84,62.82,-3.48
3.6775,-16.862,-2.7513,0.26389,0.27703,0.81398,36.42,63.06,-3.42
3.8001,-17.352,-2.6968,0.3372,0.28924,0.91752,36.18,63.36,-3.12
3.5277,-17.802,-2.5742,0.64385,0.31246,0.99724,35.64,63.96,-2.82
3.5277,-16.644,-3.3234,0.83902,0.20036,0.87629,35.4,64.14,-2.82
3.0918,-13.702,-4.3177,1.0009,-0.11362,0.53634,35.16,64.26,-2.82
1.9205,-8.2539,-3.7456,0.8885,-0.54825,0.028711,34.98,64.56,-3.12
1.4438,-6.8374,-2.8739,0.65149,-0.57788,-0.16463,34.74,64.74,-3.42
1.1713,-6.2517,-2.4517,0.56627,-0.52931,-0.20189,34.68,64.74,-3.84
0.78998,-5.7342,-2.0567,0.38729,-0.22571,-0.082161,34.62,64.92,-4.32
0.55843,-5.775,-2.8603,0.2138,0.064446,0.047953,34.68,64.8,-5.4
0.83084,-5.5707,-3.1191,0.053145,0.33139,0.15913,34.68,64.8,-6.18
1.0896,-5.1757,-2.7377,-0.025962,0.59437,0.25381,34.8,64.68,-6.84
1.9068,-5.2166,-2.1656,-0.060476,0.759,0.29749,34.98,64.44,-8.46
2.0567,-5.4618,-1.8387,-0.032987,0.58765,0.23457,35.1,64.32,-9.0
2.0567,-5.6797,-1.8387,-0.025351,0.2981,0.1292,35.16,64.26,-9.78
2.0158,-6.3879,-1.6889,0.0018326,0.055283,0.016493,35.16,64.02,-10.98
1.8932,-7.1098,-1.4982,0.0051924,-0.057421,-0.035736,35.04,64.14,-11.58
1.6481,-8.5127,-1.2258,-0.025656,-0.036041,-0.060476,34.68,64.08,-12.48
1.5936,-8.6762,-1.3076,-0.1182,0.16982,-0.045815,34.5,64.08,-12.72
1.5119,-8.2948,-1.3212,-0.19456,0.37171,-0.080634,34.2,64.08,-12.96
1.471,-8.1586,-1.0215,-0.26573,0.64721,-0.14569,34.02,64.08,-13.14
1.5119,-8.7306,-0.095342,-0.32345,0.89431,-0.24038,33.18,64.2,-13.44
1.8115,-10.27,0.12258,-0.35827,1.0623,-0.3204,32.7,64.26,-13.5
2.3291,-13.675,0.1362,-0.38546,1.2599,-0.30329,31.68,64.32,-13.32
2.942,-14.533,0.054481,-0.50671,1.3405,-0.29383,31.08,64.26,-13.2
3.2553,-13.934,0.068102,-0.56047,1.4557,-0.2865,30.42,64.14,-13.2
3.4868,-13.212,0.25879,-0.38332,1.3686,-0.24893,29.82,64.08,-12.96
3.6639,-13.593,0.47671,-0.23182,1.1661,-0.24618,28.56,63.96,-12.42
3.514,-13.539,0.20431,-0.029932,0.90255,-0.21166,27.9,63.78,-12.06
3.4596,-13.321,-0.77636,0.20342,0.73334,-0.068417,27.12,63.9,-11.82
3.4187,-12.435,-0.98067,0.3989,0.73151,0.23854,25.86,63.6,-11.28
2.9284,-10.746,-1.0079,0.37782,0.87904,0.39279,25.2,63.48,-10.98
2.6696,-9.9565,-1.0896,0.28619,1.1106,0.42486,24.66,63.3,-10.74
2.0975,-9.0167,-1.185,0.16829,1.3683,0.39523,24.12,63.18,-10.44
1.7025,-7.6683,-1.4574,0.06689,1.6185,0.35491,23.4,62.52,-9.72
1.7434,-7.3958,-1.5663,-0.040317,1.9013,0.35308,23.16,62.28,-9.42
2.1248,-7.0145,-1.4165,-0.18998,2.2688,0.40348,22.5,61.92,-9.06
2.4789,-7.0281,-1.1713,-0.36011,2.4688,0.48778,22.32,61.74,-8.76
2.6968,-7.0417,-0.68102,-0.59101,2.3408,0.59895,22.2,61.44,-8.52
3.1599,-7.0281,-0.34051,-0.70066,2.138,0.62858,22.02,61.08,-8.1
3.1872,-7.1643,-0.29965,-0.73059,1.9419,0.65363,21.96,60.84,-7.86
3.1599,-7.6138,0.19068,-0.63194,1.7193,0.69272,21.96,60.12,-7.02
3.4732,-9.0303,0.47671,-0.52962,1.5824,0.73976,21.96,59.82,-6.48
3.514,-8.7443,0.51757,-0.38943,1.4044,0.748,21.9,59.4,-5.94
3.4868,-8.3493,0.57205,-0.29413,1.3018,0.74403,21.84,59.22,-5.28
3.4732,-7.927,0.57205,0.04215,0.96211,0.67653,21.78,58.98,-4.62
2.7786,-8.0632,0.17706,0.23488,0.73854,0.56047,21.18,58.92,-3.3
2.2474,-8.1722,-0.21793,0.35705,0.551,0.2923,20.76,58.74,-2.58
0.64016,-8.1586,-0.53119,0.354,0.45571,0.20617,19.92,58.92,-1.08
-0.054481,-10.433,0.01362,0.26359,0.63652,0.13378,19.44,58.98,-0.3
-0.27241,-13.307,0.57205,-0.12095,1.5711,0.2755,18.72,59.16,0.3
0.35413,-16.072,1.0079,-0.50977,2.3976,0.42974,18.06,59.4,0.96
2.2882,-19.436,0.65378,-0.82803,3.0387,0.63988,16.5,59.94,2.28
2.942,-18.837,0.14982,-0.86132,3.3665,0.74128,15.78,60.24,3.12
3.228,-14.955,-1.2531,-0.55955,3.2489,0.63408,14.46,60.78,4.5
3.0373,-11.85,-2.3427,0.03879,2.5617,0.34147,13.92,61.08,5.28
2.4517,-10.815,-2.9011,0.73212,1.5021,-0.061087,13.38,61.26,6.18
1.8387,-10.447,-2.9284,1.2862,0.19364,-0.5568,12.84,61.32,6.72
0.92618,-9.3708,-2.3563,1.1729,-0.11209,-0.66737,12.0,61.44,7.92
0.88532,-8.5672,-1.9205,0.87109,0.014355,-0.55314,11.82,61.56,8.34
0.7355,-7.4776,-1.9477,0.55711,0.30146,-0.2978,11.7,61.38,8.88
0.70826,-6.5786,-2.1384,0.17837,0.66493,0.061697,11.64,60.78,9.42
0.83084,-5.9249,-2.4108,-0.025656,0.83414,0.15791,11.82,60.54,9.9
0.91256,-5.6388,-2.3563,-0.135,1.0785,0.19426,12.18,60.36,10.08
1.4301,-5.1757,-2.0567,-0.15088,1.2752,0.22755,13.02,59.58,10.56
1.8524,-5.38,-1.9068,-0.084605,1.3247,0.25045,13.32,59.28,10.62
2.5742,-6.456,-2.0294,0.0061087,1.1857,0.25656,13.92,58.98,10.62
2.6015,-7.2869,-1.9068,0.10812,0.7422,0.21838,15.0,58.68,10.32
2.4108,-8.0905,-1.7298,0.1909,0.46884,0.18601,15.48,58.68,9.9
2.2474,-9.2074,-1.6344,0.25137,0.27489,0.1857,16.14,58.8,9.6
1.9886,-10.774,-1.4438,0.25168,0.098349,0.16341,17.34,59.04,8.58
1.6344,-11.468,-1.2531,0.2248,-0.18876,0.087659,17.82,59.22,7.92
1.6344,-14.233,-1.0896,0.21228,-0.26053,0.11668,18.06,59.58,7.02
2.1112,-15.99,-1.185,-0.039095,-0.45571,0.12187,18.24,60.06,6.06
1.866,-15.868,-1.2531,-0.4215,-0.43738,-0.01069,18.3,60.36,4.92
0.47671,-12.449,0.21793,-0.69791,-0.20617,-0.20922,17.88,60.54,3.12
0.40861,-11.945,0.6674,-0.87629,0.064752,-0.47189,17.22,60.72,2.16
0.42223,-12.258,0.8036,-1.018,0.33872,-0.76694,16.44,60.84,1.08
0.14982,-12.599,0.28603,-1.1283,0.60109,-1.0247,14.22,60.9,-0.96
0.24517,-12.381,0.21793,-1.2272,0.86743,-1.1777,12.9,60.72,-1.74
0.35413,-11.346,0.27241,-1.2611,0.98899,-1.1518,11.22,60.54,-2.28
1.0896,-10.12,0.69464,-1.2804,1.0134,-1.1005,7.62,59.7,-2.88
1.1441,-9.6841,0.49033,-1.2859,0.90042,-1.0999,5.64,59.28,-2.7
1.0351,-9.4253,0.35413,-1.2865,0.79351,-1.1365,3.42,58.62,-2.28
0.81722,-8.9758,0.39499,-1.273,0.69669,-1.1881,-1.02,57.18,-0.78
0.83084,-9.2891,0.43585,-1.2428,0.71716,-1.1527,-3.18,56.34,0.36
0.89894,-9.7522,0.32689,-1.2688,0.80023,-1.0559,-5.46,55.56,1.86
0.84446,-9.3436,0.16344,-1.2575,0.89614,-0.88026,-9.78,53.7,4.74
0.84446,-9.221,0.14982,-1.2052,1.0098,-0.65485,-11.76,52.86,6.48
1.0215,-9.0712,-0.095342,-1.1209,1.0812,-0.39004,-13.86,51.84,8.1
1.2803,-8.7715,-0.10896,-1.0058,1.077,-0.0097738,-17.52,50.28,11.52
1.185,-8.5672,-0.20431,-0.80084,0.97097,0.20708,-19.2,49.44,12.84
1.0079,-8.2131,-0.21793,-0.7254,0.94806,0.31368,-20.7,48.54,14.28
0.89894,-8.3084,-0.35413,-0.56688,0.91996,0.49541,-22.32,47.82,15.66
1.0624,-8.6898,-0.53119,-0.36224,0.93737,0.77488,-25.08,46.44,17.82
1.362,-8.9622,-0.70826,-0.27519,0.92882,0.93432,-26.1,45.78,18.78
1.6208,-9.0712,-0.98067,-0.21991,0.88117,1.1164,-27.66,44.76,20.22
1.3757,-10.052,-0.85808,-0.2193,0.95936,1.2138,-28.38,44.16,20.82
1.2667,-11.346,-0.35413,-0.22327,1.1035,1.3106,-28.8,43.92,21.24
1.9477,-13.375,-0.32689,-0.26939,1.4978,1.5345,-29.1,43.8,21.48
2.8058,-10.951,-1.6753,-0.16646,1.8375,1.6784,-29.04,43.62,21.66
2.9556,-9.902,-2.0839,0.06017,1.8234,1.5937,-28.62,43.74,21.6
2.5334,-9.4389,-1.9613,0.2865,1.5999,1.2795,-27.66,44.04,21.06
2.0567,-9.507,-1.6344,0.32101,1.4462,1.0308,-27.06,44.4,20.76
1.7025,-9.4798,-1.7979,0.28558,1.4148,0.83047,-26.4,44.94,20.22
1.4029,-9.4934,-1.9341,0.24984,1.4716,0.78313,-25.8,45.24,19.62
1.1986,-9.1937,-2.1384,0.033598,1.9884,0.75961,-24.12,45.96,18.24
1.185,-8.6353,-2.2065,-0.15944,2.4648,0.76847,-23.46,46.5,17.28
1.3212,-7.8862,-2.0567,-0.35583,2.9096,0.73182,-22.74,46.98,16.5
1.866,-7.464,-2.0294,-0.57208,3.4153,0.59132,-21.66,47.88,14.52
2.1929,-7.3141,-2.152,-0.60567,3.4807,0.52443,-21.18,48.18,13.5
2.833,-7.355,-2.1793,-0.63041,3.2999,0.35644,-20.76,48.84,12.48
3.9227,-7.8317,-2.152,-0.55008,2.8042,0.31948,-20.46,49.74,10.38
3.9908,-8.2676,-2.152,-0.47525,2.1588,0.31612,-20.4,50.04,9.3
3.8682,-8.5536,-2.1656,-0.40592,1.6032,0.33781,-20.22,50.46,8.34
2.9556,-8.4719,-2.4244,-0.3036,1.2746,0.3656,-20.28,50.82,6.54
2.8194,-8.145,-2.5061,-0.082772,1.1781,0.30238,-20.4,50.76,5.88
2.6423,-7.8317,-2.5334,0.055589,1.1463,0.1909,-20.4,50.94,5.1
2.3563,-8.1586,-2.3155,0.11393,1.1579,0.047342,-20.64,51.3,3.78
2.2201,-8.5536,-2.1929,0.11087,1.2449,-0.089797,-20.7,51.42,2.94
2.1793,-9.0167,-2.1929,0.066279,1.3543,-0.16982,-20.88,51.36,2.22
2.2201,-9.4798,-1.9477,0.023824,1.4142,-0.18601,-21.12,51.66,1.08
2.2201,-10.025,-1.7979,0.033292,1.3674,-0.12309,-21.24,51.84,0.42
2.2065,-10.556,-1.7025,0.061697,1.3405,-0.091019,-21.48,51.78,-0.24
2.5198,-11.782,-1.7979,0.16738,1.2489,0.085216,-21.72,51.78,-1.02
2.7241,-12.136,-1.9205,0.26786,1.1829,0.19487,-22.08,51.96,-2.46
3.0646,-12.449,-1.9341,0.38057,1.1316,0.31001,-22.44,51.96,-3.24
2.9284,-11.673,-1.8251,0.41386,1.066,0.31429,-22.92,51.96,-4.68
2.7377,-10.61,-1.7025,0.32803,1.0186,0.10293,-23.1,52.02,-5.58
2.3563,-9.793,-1.362,0.18754,0.95326,-0.14661,-23.28,52.14,-6.54
2.3155,-8.6898,-0.84446,0.13439,0.9108,-0.25931,-23.58,52.2,-7.62
2.6423,-9.9837,-0.47671,-0.051618,0.72388,-0.42608,-24.12,52.32,-9.42
2.8603,-10.583,-0.42223,-0.14019,0.54275,-0.36896,-24.54,52.32,-10.2
2.8739,-10.978,-0.47671,-0.12706,0.32345,-0.16096,-25.26,52.14,-12.0
2.5742,-10.079,-0.21793,-0.04948,0.32376,-0.040623,-25.74,51.96,-12.9
2.4789,-9.5751,-0.040861,0.0018326,0.35277,-0.013744,-26.28,51.84,-13.68
2.3291,-8.9349,0.19068,0.076053,0.45662,-0.026573,-26.76,51.72,-14.28
1.866,-8.1858,0.081722,0.15241,0.69944,-0.14294,-27.6,51.3,-15.36
1.8115,-7.9407,0.081722,0.19914,0.8772,-0.24221,-28.02,50.94,-15.9
1.9613,-7.927,-0.21793,0.23121,0.88239,-0.2813,-28.56,50.7,-16.32
2.2474,-8.0632,-0.35413,0.17532,0.51313,-0.22602,-29.82,50.22,-17.28
2.1248,-8.2676,-0.35413,0.12767,0.36621,-0.18631,-30.48,49.68,-17.46
1.9205,-8.3765,-0.35413,-0.09163,0.16188,-0.022297,-31.02,49.38,-17.58
1.3212,-7.9679,-0.27241,-0.27397,0.17043,0.077274,-32.16,48.6,-17.58
1.0624,-7.3141,-0.12258,-0.46304,0.31826,0.090408,-32.7,48.3,-17.7
0.91256,-6.5378,0.054481,-0.62033,0.52504,0.017715,-33.18,47.94,-17.46
0.57205,-5.6524,0.28603,-0.76725,0.83994,-0.18021,-33.96,47.52,-17.28
0.76274,-6.2926,0.39499,-0.78496,0.93737,-0.24221,-34.2,47.22,-17.22
1.2258,-7.5457,0.39499,-0.79596,1.0678,-0.30146,-34.56,46.86,-17.16
1.7025,-8.8396,0.42223,-0.87873,1.0525,-0.26939,-34.74,46.62,-17.16
2.0158,-8.8805,0.068102,-0.93462,0.978,-0.18387,-35.34,46.5,-16.74
1.8932,-8.322,-0.16344,-0.94623,0.9841,-0.062003,-35.58,46.44,-16.68
1.8387,-7.8181,-0.20431,-0.96944,1.1988,0.09896,-36.0,46.5,-16.26
1.7298,-7.2733,-0.095342,-1.0116,1.4077,0.21564,-36.12,46.8,-16.2
2.152,-7.246,-0.10896,-1.0098,1.6099,0.35247,-36.36,46.8,-15.96
2.7513,-7.0553,-0.38137,-1.0015,1.664,0.41447,-36.54,47.1,-15.84
3.7047,-7.246,-1.1986,-0.83811,1.4936,0.5849,-36.78,47.64,-16.02
4.0589,-8.2948,-1.3212,-0.67317,1.197,0.60903,-36.9,48.18,-16.32
4.2359,-11.25,-1.4165,-0.55772,0.89339,0.63347,-37.08,48.6,-16.44
4.8216,-15.445,-1.5255,-0.49083,0.63347,0.59437,-37.26,49.44,-16.74
5.0531,-17.08,-1.7979,-0.38851,0.44471,0.47739,-37.38,50.22,-16.86
5.0531,-18.551,-1.7434,-0.2135,0.33139,0.46029,-37.5,50.7,-17.1
6.2245,-19.45,-3.8682,0.068111,0.093768,0.43616,-37.62,51.66,-17.46
5.2847,-15.214,-4.8625,0.47495,-0.39279,0.15241,-37.44,52.14,-17.58
3.8682,-10.733,-4.4402,0.80298,-0.93707,-0.31979,-37.38,52.68,-17.76
2.0839,-6.96,-3.6503,0.87812,-1.2556,-0.82864,-37.38,53.04,-18.18
1.471,-6.5786,-2.9829,0.55314,-1.1774,-1.1506,-37.44,53.22,-18.3
0.92618,-6.0202,-2.942,0.36377,-1.0247,-1.1066,-37.44,53.22,-18.54
0.70826,-4.9578,-3.3778,-0.087048,-0.44899,-0.6692,-38.16,53.04,-18.54
0.98067,-4.2904,-3.3097,-0.20067,-0.32406,-0.26542,-38.58,52.74,-18.48
1.2803,-3.8137,-2.5879,-0.1967,-0.49847,0.10873,-38.94,52.5,-18.3
1.3757,-3.6775,-2.152,-0.23274,-0.19578,0.28558,-39.6,51.96,-17.94
1.5527,-4.0589,-2.1248,-0.22571,-0.041233,0.25809,-40.02,51.48,-17.76
2.5198,-5.6252,-2.4244,0.03879,-0.068722,-0.24801,-40.98,50.88,-17.22
2.5198,-5.6252,-2.4244,0.03879,-0.068722,-0.24801,-40.98,50.88,-17.22
3.0918,-6.0883,-2.3836,0.14783,-0.46976,-0.43677,-41.46,50.4,-16.98
3.0646,-6.3198,-2.0022,0.19212,-1.0088,-0.50305,-42.84,49.5,-16.5
2.6832,-6.1973,-1.8387,0.18326,-1.3396,-0.55467,-43.74,49.14,-16.26
1.8932,-6.8102,-1.5391,0.12737,-1.332,-0.57879,-45.18,48.3,-15.42
1.7706,-7.6819,-1.5119,0.058643,-1.1157,-0.57788,-45.9,47.94,-15.0
1.7162,-8.6081,-1.3212,-0.12614,-0.46212,-0.49572,-46.56,47.64,-14.52
2.547,-13.471,-0.095342,-0.26298,0.032987,-0.28222,-48.06,46.86,-13.5
3.5549,-16.154,0.46309,-0.41111,0.30207,0.039095,-48.84,46.32,-13.32
4.9306,-16.903,0.20431,-0.48228,0.34025,0.33414,-50.28,45.48,-12.54
5.1757,-16.699,-0.040861,-0.31398,0.29138,0.56536,-50.94,45.12,-12.06
5.3119,-16.603,-0.081722,-0.043066,0.24221,0.63591,-51.54,44.58,-12.06
5.0531,-18.456,0.20431,0.37904,-0.28222,0.47831,-52.98,43.74,-11.46
4.8897,-17.829,-0.62654,0.60506,-0.77916,0.43402,-53.64,43.38,-11.22
4.4402,-11.101,-1.8387,0.64996,-1.0571,0.39431,-54.66,43.02,-10.68
2.438,-8.0224,-1.6072,0.58154,-1.0091,0.35491,-55.2,43.02,-10.56
1.1169,-5.4481,-0.70826,0.081856,-0.62492,0.068111,-55.74,43.08,-10.26
0.27241,-4.5901,-0.054481,-0.19028,-0.16463,-0.10507,-56.4,43.14,-9.78
-0.027241,-4.1542,0.14982,-0.37751,0.35277,-0.21258,-56.82,43.32,-9.36
0.50395,-3.5822,-0.24517,-0.48258,0.76541,-0.21777,-57.6,43.62,-8.52
1.2939,-3.8001,-0.49033,-0.55283,0.91019,-0.091019,-58.02,43.86,-8.04
1.7843,-4.5083,-0.27241,-0.65088,0.93401,0.075747,-58.44,43.98,-7.62
2.1384,-4.7399,-0.01362,-0.71685,0.93951,0.25076,-59.34,44.34,-7.14
1.9068,-5.1213,0.14982,-0.75045,1.0495,0.23335,-59.64,44.58,-6.72
1.7298,-5.5162,-0.027241,-0.77672,1.1472,0.16799,-60.0,44.7,-6.6
1.58,-6.1292,-0.12258,-0.85491,1.5531,-0.14111,-60.18,44.7,-6.24
2.1112,-7.3958,-0.96704,-0.89706,1.909,-0.38851,-60.42,44.52,-5.88
2.4789,-8.036,-1.4301,-0.91752,2.0717,-0.62217,-60.48,44.28,-5.82
3.514,-10.447,-2.261,-0.90652,1.9594,-0.64202,-60.48,43.98,-5.94
4.0044,-12.817,-2.2201,-0.90072,1.565,-0.44807,-60.06,42.84,-6.78
4.6445,-14.955,-1.9886,-0.95692,1.314,-0.11484,-59.82,42.18,-7.32
5.4618,-16.317,-1.975,-0.89492,1.0696,0.25381,-59.4,41.58,-7.98
5.7205,-14.955,-2.5742,-0.60506,0.76267,0.52626,-58.62,40.44,-9.18
5.4481,-15.8,-2.547,-0.2138,0.52473,0.61453,-58.08,39.9,-9.72
5.3937,-16.671,-2.7241,0.18143,0.37599,0.56016,-57.6,39.36,-10.2
5.5435,-13.062,-4.3449,0.70555,0.089797,0.43982,-56.52,38.4,-11.16
5.2711,-11.25,-4.6309,1.416,-0.85032,0.35491,-55.92,37.98,-11.46
4.9306,-10.188,-4.4811,1.5687,-1.441,0.27122,-55.32,37.74,-11.76
3.1735,-7.0553,-3.9771,1.46,-1.6994,0.20861,-54.42,37.2,-12.0
2.0975,-5.8023,-3.7728,1.19,-1.522,0.24709,-53.82,37.02,-12.12
1.0215,-4.1406,-3.9908,0.87384,-1.0553,0.2868,-52.92,37.14,-11.76
1.2803,-3.4732,-3.9635,0.6295,-0.51801,0.32834,-52.38,37.32,-11.64
1.7434,-2.9692,-3.7728,0.49297,-0.20433,0.34392,-51.96,37.62,-11.46
2.3427,-2.7241,-3.6911,0.4163,-0.19242,0.31918,-51.6,37.8,-11.1
3.0918,-3.4187,-3.1191,0.44318,-0.37018,0.2248,-50.88,38.4,-10.26
3.2961,-4.018,-2.9284,0.46731,-0.67073,0.10629,-50.52,38.64,-10.08
3.5413,-4.7807,-3.0101,0.54275,-1.2975,-0.078802,-50.22,38.7,-9.66
3.5685,-6.3743,-3.2144,0.55192,-1.4951,-0.11515,-49.92,38.94,-9.06
3.3506,-6.9328,-3.3778,0.48258,-1.8754,-0.17471,-49.32,39.24,-7.5
2.9556,-7.1915,-3.3506,0.34392,-1.9239,-0.18234,-49.02,39.36,-6.66
2.7513,-7.4776,-3.2416,0.16432,-1.8225,-0.18754,-48.54,39.42,-5.82
2.3155,-11.577,-1.866,-0.066584,-1.5073,-0.14813,-47.64,39.66,-3.9
2.656,-13.362,-1.5391,-0.61545,-0.75045,0.059254,-47.16,39.6,-2.94
3.4459,-17.856,-0.43585,-0.82528,-0.47892,0.11118,-46.62,39.42,-1.8
3.8682,-18.796,-0.081722,-1.3341,0.33292,0.24526,-45.54,39.18,0.54
4.2495,-18.183,-0.12258,-1.4526,0.73426,0.28161,-44.94,39.0,1.56
4.4402,-17.475,0.10896,-1.3631,0.92424,0.18937,-44.34,38.88,2.58
4.6445,-17.516,1.2939,-1.142,0.88056,0.000916,-43.56,38.7,4.44
4.7944,-17.162,1.3212,-0.71044,0.33567,-0.30696,-43.2,38.7,5.28
4.2223,-12.681,0.081722,-0.52229,0.077274,-0.39401,-43.02,38.64,5.94
3.514,-10.365,-0.24517,-0.17837,-0.39859,-0.54734,-42.84,38.7,7.14
2.7241,-7.8181,-0.20431,0.036957,-0.79871,-0.76083,-42.84,38.64,7.56
2.2065,-6.9191,-0.054481,-0.0082467,-0.76083,-0.87598,-42.96,38.76,8.04
0.57205,-5.0531,0.14982,-0.15302,-0.45112,-0.93035,-43.8,38.94,8.76
0.38137,-4.8216,0.14982,-0.42577,0.20586,-0.85674,-44.28,39.12,9.06
0.62654,-3.7047,-0.54481,-0.51954,0.41875,-0.8039,-44.82,39.42,9.42
1.0624,-3.7728,-0.55843,-0.70188,0.84269,-0.60781,-46.32,39.54,9.96
1.471,-4.4402,-0.42223,-0.76816,0.88789,-0.38362,-46.98,39.6,10.26
1.6753,-4.9033,-0.39499,-0.83047,0.85827,-0.17104,-47.64,39.6,10.5
1.9886,-6.0883,-0.7355,-0.85735,0.82558,0.010079,-48.84,39.3,10.8
1.9886,-6.0066,-0.95342,-0.84696,0.85704,0.10263,-49.2,39.24,10.86
2.1112,-6.2381,-1.0624,-0.78374,0.92974,0.12339,-49.5,39.06,11.1
2.2337,-6.7693,-1.185,-0.62094,1.0421,0.13806,-49.86,38.4,11.16
2.6968,-7.5321,-1.8115,-0.45204,1.0412,0.19761,-49.74,38.1,11.04
2.8875,-8.1041,-2.261,-0.26542,0.9502,0.29749,-49.68,37.56,10.74
4.0997,-10.365,-3.1463,-0.019242,0.77855,0.48778,-48.96,36.66,9.96
4.4402,-11.55,-3.0646,0.18021,0.54153,0.76205,-48.36,36.12,9.54
4.9987,-13.348,-3.1872,0.27428,0.29841,1.1701,-46.92,35.4,8.34
5.7614,-15.255,-3.7047,0.31582,0.24984,1.2529,-45.78,35.22,7.74
5.6661,-16.195,-3.623,0.41844,0.18021,1.277,-44.88,35.04,7.32
5.6388,-17.216,-3.3506,0.5791,0.28375,1.1686,-43.86,34.86,6.66
5.7614,-14.901,-4.6718,0.72082,0.354,1.0486,-41.7,35.28,5.82
5.5571,-12.898,-5.0531,0.9893,0.20647,0.88973,-40.8,35.34,5.52
4.2904,-7.5865,-4.7535,1.1057,-0.1182,0.61545,-39.72,35.64,4.98
3.6094,-6.0611,-3.6775,0.9612,-0.38485,0.30421,-37.62,36.3,3.96
3.0646,-5.1621,-3.0646,0.70127,-0.49816,0.08491,-36.78,36.78,3.54
2.7241,-4.7671,-2.8058,0.42333,-0.50457,0.051313,-35.88,37.32,3.12
2.6015,-4.9033,-3.228,0.27672,-0.48961,0.15516,-34.56,38.28,2.64
2.656,-4.8625,-3.4459,0.14539,-0.47556,0.29077,-34.02,38.94,2.34
2.7377,-4.699,-3.1872,0.085216,-0.46701,0.31948,-33.12,39.84,1.98
2.8739,-4.8488,-2.9829,0.10018,-0.39218,0.30513,-32.76,40.44,1.98
3.0237,-5.1621,-2.833,0.13408,-0.33689,0.20342,-32.46,40.8,1.8
3.1327,-5.7069,-3.0918,0.19303,-0.45662,-0.038485,-31.8,41.7,1.74
3.2144,-6.4152,-3.2416,0.21777,-0.60812,-0.22358,-31.68,41.94,1.56
3.2553,-7.1234,-2.9829,0.1744,-0.75045,-0.36255,-31.5,42.24,1.56
2.7649,-7.4776,-2.5879,0.043066,-0.87598,-0.44807,-31.32,42.72,2.04
2.5334,-7.6683,-2.4108,-0.2416,-0.78588,-0.5284,-31.2,42.96,2.28
2.3018,-7.7772,-2.2337,-0.42577,-0.48075,-0.55008,-31.2,43.08,2.76
2.152,-8.1041,-1.9613,-0.59376,-0.05284,-0.60231,-31.32,43.2,3.24
2.3699,-8.7987,-1.2258,-0.68631,0.41294,-0.69333,-31.08,43.38,4.14
3.051,-10.951,-0.72188,-0.69639,0.70524,-0.70921,-31.14,43.44,4.8
3.8682,-13.293,-0.40861,-0.65668,0.7422,-0.64813,-31.2,43.44,5.34
5.2166,-16.712,-0.55843,-0.53756,0.4496,-0.42058,-31.44,43.14,6.12
5.4481,-16.821,-0.72188,-0.32956,0.12523,-0.20342,-31.56,43.2,6.6
5.3937,-16.385,-0.89894,-0.0281,-0.22266,-0.050702,-31.86,43.14,7.26
4.7944,-16.453,-0.20431,0.23335,-0.48167,-0.014355,-32.4,43.14,8.22
4.6309,-17.094,-0.054481,0.3879,-0.64294,0.015882,-32.7,43.2,8.64
4.5083,-15.827,-1.1986,0.49786,-0.90103,0.011606,-33.42,43.08,9.48
3.6775,-10.746,-1.6344,0.56749,-1.0314,-0.046731,-33.78,43.14,9.72
2.9965,-8.4582,-1.58,0.54642,-1.0977,-0.17593,-34.08,43.14,9.96
2.3427,-6.9328,-1.3348,0.45815,-1.0693,-0.33292,-34.32,43.14,10.08
1.1169,-5.2983,-1.1441,0.3259,-0.89644,-0.46273,-35.1,43.32,10.44
0.65378,-4.2223,-1.3212,0.17776,-0.5901,-0.53909,-35.4,43.44,10.56
0.50395,-3.5413,-1.5119,0.026267,-0.2587,-0.51771,-35.7,43.62,10.74
0.69464,-2.9556,-1.2531,-0.24954,0.1686,-0.38759,-36.24,43.98,11.52
0.96704,-3.6366,-0.85808,-0.39187,0.36866,-0.21625,-36.6,44.1,11.7
1.2122,-4.3449,-0.5993,-0.4664,0.43188,-0.10232,-36.78,44.22,11.88
1.6208,-6.1564,-0.46309,-0.72388,0.64935,0.30116,-36.96,44.1,12.06
2.1793,-7.6819,-0.89894,-0.92638,0.8827,0.52015,-37.2,44.04,12.3
2.3699,-7.1098,-0.8036,-1.0449,1.1161,0.61025,-37.2,44.1,12.36
2.5198,-7.3141,-0.29965,-1.0385,1.3662,0.5959,-37.02,44.04,12.42
2.833,-7.6002,-0.49033,-0.99663,1.5693,0.51404,-36.78,44.04,12.66
3.1735,-7.7364,-1.185,-0.73365,1.4985,0.27581,-36.54,43.92,12.72
3.514,-8.1995,-1.6753,-0.40348,1.1561,0.18906,-36.36,43.98,12.66
4.7263,-11.727,-2.4244,-0.12065,0.69914,0.26603,-35.82,43.86,12.48
4.9442,-13.348,-2.3018,0.029627,0.30452,0.53023,-35.34,43.86,12.24
4.9987,-15.759,-2.1929,0.099571,0.070555,0.63102,-34.5,44.1,11.64
5.0395,-17.475,-2.6968,0.2303,-0.07086,0.86193,-34.08,44.22,11.52
5.3119,-19.123,-3.337,0.45265,-0.058032,1.0119,-33.66,44.46,11.16
5.5435,-18.36,-4.3313,0.85094,-0.058032,1.014,-33.18,44.88,10.92
4.7399,-13.198,-5.2438,1.0941,-0.29016,0.78771,-32.28,45.6,10.26
3.7047,-10.038,-4.9442,1.1292,-0.59865,0.39554,-31.8,46.08,9.9
2.8739,-8.54,-3.8954,0.88973,-0.75931,-0.011606,-31.32,46.56,9.54
1.9886,-6.565,-3.514,0.41936,-0.63438,-0.30116,-30.6,47.4,8.7
1.6889,-6.0474,-3.7184,0.1295,-0.36591,-0.25595,-30.12,47.88,8.34
1.6072,-5.8023,-3.8001,-0.11668,-0.091324,-0.1347,-29.7,48.3,7.92
1.2939,-4.6037,-3.6775,-0.29383,0.13867,-0.030238,-28.98,49.14,7.2
1.4301,-3.8954,-3.4187,-0.33659,0.44013,0.053145,-28.86,49.5,6.9
2.2065,-3.4596,-3.1191,-0.2923,0.71716,0.064752,-28.32,50.1,6.42
2.6423,-3.5413,-3.228,-0.11515,0.77885,-0.0051924,-28.02,50.34,6.12
3.4868,-3.8273,-3.2008,0.04612,0.478,-0.077885,-27.72,50.46,5.64
3.7047,-4.3585,-3.1191,0.17501,-0.06353,-0.14813,-27.54,50.52,5.34
4.0316,-5.1076,-2.5742,0.22999,-0.70097,-0.18845,-27.3,50.7,4.98
3.5685,-5.6797,-2.5606,0.21594,-1.2098,-0.18662,-27.3,50.58,4.92
2.9556,-6.6059,-2.2337,0.15608,-1.3821,-0.1686,-27.36,50.58,4.92
2.4244,-7.7364,-1.9477,-0.020159,-1.0311,-0.13011,-27.3,50.46,5.16
2.4108,-8.6081,-1.4574,-0.12187,-0.78985,-0.13592,-27.36,50.46,5.52
2.5879,-9.507,-1.1169,-0.41875,0.05681,-0.1857,-27.24,50.46,5.94
3.4459,-12.817,-0.31327,-0.5507,0.49877,-0.17196,-27.18,50.4,6.36
5.094,-16.699,-0.36775,-0.63561,0.69425,-0.11698,-27.3,50.76,7.56
5.3528,-17.134,-0.36775,-0.63561,0.67959,-0.1014,-27.54,50.94,8.04
5.5707,-17.706,-0.61292,-0.47067,0.48442,-0.07758,-27.78,51.12,8.76
5.1485,-18.088,-0.76274,-0.2364,0.26237,-0.077274,-28.5,51.66,10.38
5.0531,-17.257,-0.92618,0.000611,0.11179,-0.14875,-28.8,51.9,11.22
4.4675,-15.132,-1.0488,0.12767,0.025656,-0.29016,-29.1,52.2,12.06
3.2008,-9.9565,-1.0215,0.11209,0.094379,-0.43066,-29.7,52.44,13.26
2.7786,-8.2131,-0.9398,0.058643,0.19242,-0.61423,-30.0,52.44,13.86
2.547,-7.3141,-1.2122,0.021686,0.19456,-0.63988,-30.36,52.38,14.28
2.5061,-6.3879,-1.3348,0.014966,0.17074,-0.62308,-31.14,52.14,14.52
2.5606,-5.8567,-1.7843,0.05284,0.052229,-0.48778,-31.68,51.84,14.76
2.6423,-5.5707,-1.7979,0.12309,-0.25656,-0.16952,-32.16,51.6,14.64
2.3427,-4.1951,-1.58,0.13622,-0.46853,-0.0051924,-32.82,50.76,14.22
2.1384,-4.018,-1.3757,0.085521,-0.60415,0.092546,-33.0,50.1,13.98
1.757,-4.127,-0.89894,-0.009163,-0.58002,0.11515,-33.18,49.56,13.8
1.3212,-5.884,-0.70826,-0.13683,-0.36255,0.15027,-33.18,48.36,13.26
1.471,-7.0826,-0.70826,-0.28497,-0.0094684,0.23946,-33.12,47.64,13.14
1.6072,-7.7091,-0.8036,-0.55772,0.58093,0.41081,-33.0,46.98,13.02
2.1929,-7.5729,-0.64016,-0.6466,0.90622,0.49938,-32.64,46.08,13.08
2.2746,-7.5048,-0.5993,-0.63744,1.1307,0.56566,-32.58,45.6,13.02
2.7513,-7.4367,-1.4846,-0.40959,1.2602,0.62858,-32.28,45.06,13.32
3.5277,-7.246,-2.1248,-0.17715,1.0473,0.60934,-32.1,44.82,13.5
4.0589,-7.8317,-2.547,-0.061087,0.86468,0.58582,-32.16,44.7,13.68
4.2223,-8.5672,-2.5742,0.15485,0.22297,0.50488,-31.98,44.64,13.92
4.6037,-11.891,-2.1248,0.21747,-0.16799,0.50427,-31.98,44.88,14.46
4.8488,-15.377,-2.2201,0.17868,-0.45937,0.52993,-32.04,45.06,14.76
4.8352,-18.047,-2.261,0.090713,-0.52687,0.56444,-31.8,45.12,14.94
5.3119,-19.504,-2.8875,0.090408,-0.077274,0.82192,-31.62,45.42,15.24
5.7886,-19.45,-3.909,0.18998,0.25443,0.93035,-31.62,45.78,15.36
5.5843,-17.189,-4.0316,0.29352,0.42608,0.69394,-31.44,46.02,15.42
3.6639,-7.355,-3.6366,0.27153,0.34422,0.11362,-30.9,46.44,14.94
2.6968,-4.3994,-3.051,0.32742,0.1799,-0.4499,-30.54,46.62,14.76
2.2746,-3.9363,-2.5742,0.5565,-0.035125,-0.71349,-30.0,46.8,14.16
2.4108,-4.3449,-2.9284,0.60079,-0.33231,-0.74556,-29.52,46.98,13.56
2.6968,-4.6037,-3.2961,0.48136,-0.45998,-0.49969,-28.92,46.98,13.02
2.833,-4.8352,-3.3506,0.41997,-0.66157,-0.12095,-28.44,46.98,12.54
3.1191,-5.6252,-3.1191,0.3821,-0.90836,0.22633,-27.36,46.56,11.46
3.0237,-5.7342,-2.833,0.29322,-1.0232,0.40531,-26.64,46.5,10.92
2.8603,-5.0531,-2.6015,0.19364,-0.95356,0.39126,-26.04,46.38,10.38
2.547,-4.0452,-2.7104,0.11179,-0.86376,0.054367,-24.72,46.08,9.42
2.438,-3.514,-2.5879,0.11942,-0.91294,-0.31979,-23.94,45.78,8.76
2.3427,-3.4732,-2.3699,0.17135,-1.0366,-0.64141,-23.4,45.54,8.34
2.6423,-5.5843,-2.1248,0.18723,-1.1842,-0.84849,-22.5,44.94,7.98
2.7922,-6.9736,-2.0839,0.036957,-1.2553,-0.96211,-21.96,44.88,7.86
2.6832,-8.1177,-1.7434,-0.37782,-1.0208,-0.95417,-21.06,44.46,7.8
2.4789,-10.188,-1.076,-0.54611,-0.84483,-0.94043,-20.7,44.28,8.34
2.4789,-11.918,-0.19068,-0.86132,0.0018326,-0.89186,-20.22,44.1,8.76
2.7922,-14.083,-0.16344,-0.97861,0.36927,-0.84849,-19.92,43.86,9.12
4.1678,-15.99,0.01362,-1.2648,1.5159,-0.78802,-19.38,43.38,10.08
5.0531,-16.644,-0.095342,-1.0965,2.0763,-0.63866,-19.38,42.9,10.44
6.7012,-16.126,-0.31327,-0.72998,2.178,-0.39737,-19.8,42.24,10.92
6.8647,-16.508,-0.027241,-0.13408,1.7245,-0.12706,-20.16,41.88,10.98
6.9464,-16.944,0.19068,0.028405,1.5382,-0.028405,-20.7,41.7,11.22
6.96,-13.389,-0.64016,0.37629,0.77061,0.12065,-21.48,41.16,10.92
6.5786,-10.093,-0.99429,0.55161,-0.034514,0.10018,-22.14,40.8,10.62
5.5435,-8.3901,-0.9398,0.60323,-0.84696,-0.050091,-22.8,40.5,10.26
3.514,-6.3743,-0.9398,0.56261,-1.2248,-0.26359,-24.3,39.84,9.24
2.6423,-5.2983,-1.185,0.52473,-1.2263,-0.44899,-24.9,39.66,8.58
2.3427,-4.2495,-2.0703,0.50732,-1.1087,-0.50183,-25.8,39.42,7.8
2.438,-3.732,-2.3972,0.416,-0.90347,-0.48228,-27.54,39.06,6.54
2.6696,-3.2689,-2.4108,0.28741,-0.83108,-0.42822,-28.2,38.88,5.76
2.942,-3.1872,-2.2201,0.14722,-0.89217,-0.33995,-28.92,39.0,5.1
2.8058,-4.4402,-2.2201,-0.081856,-0.88911,-0.22022,-30.06,38.76,4.08
3.1463,-4.8897,-2.3427,-0.46701,-0.46151,-0.040012,-30.48,38.58,3.66
3.9363,-5.6797,-2.5061,-0.5565,-0.40531,0.013439,-30.78,38.34,3.12
4.699,-6.3471,-2.2882,-0.69639,-0.62461,0.11393,-31.38,37.92,2.82
4.3858,-6.7966,-2.1793,-0.76053,-0.51679,0.091019,-31.5,37.86,2.82
4.3858,-7.1507,-1.975,-0.75747,-0.28955,-0.010996,-31.62,37.62,2.88
4.699,-7.3958,-2.4108,-0.62797,-0.32406,-0.14325,-31.68,37.44,2.94
4.6445,-7.6274,-2.942,-0.39034,-0.3543,-0.28283,-31.86,37.2,3.0
4.699,-11.196,-2.9284,-0.33414,-0.26481,-0.2474,-31.8,36.96,3.12
5.094,-12.926,-2.8739,-0.39859,0.20892,-0.026878,-31.62,36.84,3.18
5.4754,-13.675,-2.8467,-0.51099,0.42913,0.14386,-31.68,36.84,3.3
6.5241,-15.2,-3.0373,-0.51496,0.45876,0.30635,-31.74,36.6,3.12
6.7966,-15.214,-3.2961,-0.38943,0.46212,0.37141,-31.8,36.3,3.0
6.3471,-12.667,-3.8818,0.16707,0.01741,0.32987,-32.28,36.48,3.06
5.7478,-11.128,-4.0997,0.416,-0.24007,0.2813,-32.64,36.36,2.94
5.2575,-10.311,-4.1406,0.79932,-0.74464,0.16005,-33.06,36.42,2.82
4.2904,-9.2618,-4.1814,0.88423,-0.99968,0.026267,-33.42,36.3,2.52
3.3097,-7.8181,-3.7728,0.67592,-0.96272,-0.03207,-34.44,36.3,2.34
2.3155,-7.0009,-3.3506,0.3656,-0.81092,-0.030238,-34.86,36.18,2.34
1.3348,-5.2983,-3.0646,-0.017104,-0.37599,-0.030543,-35.58,36.12,2.28
1.0488,-4.7399,-2.9011,-0.16035,0.059865,-0.065057,-36.0,36.06,2.1
1.1032,-4.3994,-2.5879,-0.25137,0.4948,-0.079412,-36.66,35.88,1.98
1.7162,-4.3313,-2.2201,-0.25534,0.80023,-0.12309,-37.68,35.7,2.04
2.152,-4.7399,-2.2882,-0.20189,1.0531,-0.19517,-38.28,35.64,2.22
2.7377,-5.2438,-2.4517,-0.12462,0.88148,-0.12584,-38.7,35.7,2.22
3.514,-6.3471,-2.8603,0.017715,0.35033,-0.029932,-39.66,35.28,2.28
3.514,-6.96,-2.942,0.12614,-0.43616,0.033598,-40.14,35.16,2.28
3.1327,-7.3414,-2.8603,0.14386,-0.62125,0.048258,-40.62,34.92,2.22
2.7649,-8.1995,-2.833,0.14386,-0.92913,0.036041,-41.52,34.8,2.52
2.6151,-8.7306,-2.9965,0.10812,-0.94257,-0.045815,-42.12,34.74,2.46
2.5061,-8.8668,-3.2144,0.031154,-0.80237,-0.16096,-42.42,34.68,2.58
2.6287,-11.128,-2.9965,-0.023213,-0.54092,-0.29902,-43.5,34.68,2.52
2.8739,-12.79,-2.833,-0.21166,-0.027184,-0.25779,-43.92,34.68,2.52
3.5004,-15.323,-2.5061,-0.45143,0.38943,-0.23182,-44.28,34.8,2.7
3.9908,-15.609,-2.3291,-0.59804,0.79382,-0.13653,-44.88,35.04,2.82
4.3721,-14.587,-2.2201,-0.63591,1.0351,0.017715,-45.06,35.04,2.88
4.4266,-13.743,-2.0431,-0.60628,1.1609,0.10965,-45.24,35.1,3.06
4.3313,-13.77,-1.6072,-0.60109,1.2697,0.22999,-45.72,35.22,3.12
4.9578,-15.445,-1.0215,-0.6411,1.306,0.48167,-45.78,35.46,3.24
5.094,-14.547,-1.471,-0.60048,1.2581,0.62461,-45.78,35.64,3.3
4.6718,-11.686,-1.8387,-0.54611,1.2275,0.64843,-45.9,35.7,3.18
3.623,-8.9349,-1.7025,-0.43616,1.2343,0.5339,-46.14,36.06,2.94
2.9692,-7.75,-1.6344,-0.39706,1.3048,0.36957,-46.5,36.12,2.64
2.656,-7.2869,-1.9341,-0.38393,1.4218,0.24893,-46.56,36.3,2.28
2.8603,-6.7829,-2.0158,-0.44074,1.4985,0.25168,-46.74,36.72,1.26
2.9011,-6.674,-1.9068,-0.54398,1.4621,0.32009,-46.8,36.96,0.48
3.0646,-6.6195,-1.7434,-0.58887,1.438,0.37751,-46.98,37.2,-0.24
2.8739,-6.7966,-1.4982,-0.75472,1.3958,0.57482,-47.16,37.38,-1.08
2.7104,-7.7364,-1.58,-0.80634,1.5146,0.66829,-47.22,37.98,-3.0
2.7786,-8.2948,-1.6344,-0.82009,1.6869,0.78007,-47.22,38.28,-3.78
2.9556,-8.717,-1.5663,-0.78863,1.8723,0.86315,-47.16,38.58,-4.56
3.4187,-9.2074,-1.1441,-0.72449,2.0299,0.97586,-46.98,39.18,-6.3
3.6366,-9.3436,-1.0488,-0.67104,1.9911,1.0431,-46.86,39.24,-7.14
3.8137,-9.3844,-1.0215,-0.59804,1.8558,1.1255,-46.62,39.6,-8.04
3.7865,-9.7385,-1.2122,-0.50183,1.7364,1.2074,-46.08,39.96,-9.66
3.909,-10.065,-1.3076,-0.40592,1.5675,1.3011,-45.6,40.02,-10.14
3.9363,-10.338,-1.4846,-0.33475,1.3909,1.3934,-44.64,40.38,-11.04
3.8273,-10.406,-1.6889,-0.29108,1.1625,1.532,-44.04,40.62,-11.22
3.5004,-10.324,-1.9205,-0.3375,1.1371,1.5571,-43.44,40.68,-11.58
3.2689,-10.351,-1.9341,-0.42211,1.2663,1.5446,-42.6,41.04,-11.64
2.7786,-11.223,-1.3212,-0.57238,1.558,1.5082,-41.28,41.52,-11.7
2.6832,-12.04,-0.95342,-0.76419,1.9673,1.4645,-40.44,41.7,-11.82
2.8739,-12.354,-1.0488,-0.92943,2.4343,1.4157,-39.54,41.94,-11.94
3.4187,-11.55,-1.1305,-1.0171,2.9044,1.2233,-37.62,42.12,-11.7
3.4459,-10.964,-1.076,-0.94562,2.9789,0.9896,-36.48,42.42,-11.7
3.4459,-10.637,-1.0896,-0.84299,2.8298,0.69303,-35.28,42.48,-11.52
3.2144,-9.507,-1.2395,-0.75014,2.5724,0.39859,-32.76,43.08,-11.52
3.1054,-9.0848,-1.3076,-0.70036,2.2886,0.18418,-31.74,43.38,-11.58
2.7377,-7.9951,-1.58,-0.69944,2.0278,0.073304,-29.52,43.74,-11.52
2.4517,-7.355,-1.471,-0.81886,1.908,0.082161,-28.38,43.8,-11.58
2.2201,-6.96,-1.4982,-0.86865,1.9493,0.10904,-27.18,43.86,-11.52
1.8387,-6.4288,-1.2395,-0.98807,2.295,0.2306,-26.16,43.8,-11.52
2.0431,-6.3879,-1.0215,-1.0342,2.6096,0.32987,-24.0,43.86,-11.88
2.6423,-6.674,-1.2531,-1.007,2.7721,0.45662,-22.98,43.8,-12.0
3.4596,-7.1915,-1.7025,-0.87629,2.733,0.58154,-21.18,43.8,-12.42
4.0589,-7.4776,-1.757,-0.58887,2.3268,0.7309,-20.34,43.86,-12.6
4.0589,-7.5457,-1.8115,-0.37721,1.9679,0.76572,-19.62,44.04,-12.78
3.9635,-7.6138,-2.0567,-0.17196,1.6506,0.75931,-18.12,44.04,-13.02
3.8818,-7.6002,-2.3155,0.014966,1.4154,0.69822,-17.34,44.16,-13.14
3.6366,-7.5457,-2.6015,0.16157,1.2846,0.60415,-16.5,44.16,-13.26
3.3097,-7.6274,-2.7377,0.24496,1.2556,0.51526,-15.78,44.22,-13.32
3.0918,-7.927,-2.6287,0.27092,1.3057,0.45571,-14.34,44.22,-13.38
3.2008,-8.6217,-2.5061,0.26725,1.4093,0.4441,-13.56,44.34,-13.44
3.3915,-9.0439,-2.4108,0.22419,1.5183,0.45571,-12.9,44.46,-13.68
3.7728,-10.025,-2.3836,0.18295,1.6313,0.49572,-11.52,44.64,-13.62
3.8954,-10.365,-2.1248,0.18418,1.6493,0.48808,-10.74,44.88,-13.5
4.0861,-10.924,-1.9886,0.23763,1.6148,0.48136,-10.14,45.12,-13.44
4.413,-11.713,-1.9205,0.28955,1.4175,0.45479,-8.58,45.48,-13.32
4.4811,-12.136,-1.8387,0.31398,1.303,0.43768,-7.74,45.6,-13.26
4.4947,-12.435,-1.8524,0.27733,0.91324,0.43646,-7.02,45.72,-13.14
4.2495,-12.054,-1.8524,0.1295,0.74128,0.36866,-6.42,45.84,-13.14
2.9965,-10.147,-1.1577,-0.074526,0.78496,0.19487,-4.98,46.14,-12.9
2.5061,-9.8884,-0.78998,-0.26237,1.033,0.000305,-4.08,46.32,-12.72
2.4925,-10.188,-0.83084,-0.44471,1.3537,-0.19334,-3.18,46.5,-12.54
2.8058,-10.542,-1.0488,-0.56597,1.6313,-0.3262,-1.74,46.86,-11.88
2.8739,-10.283,-1.1577,-0.64568,1.7379,-0.38026,-0.72,46.86,-11.28
2.9011,-9.8748,-1.1169,-0.66584,1.6982,-0.35247,0.06,46.98,-10.68
2.7649,-9.3436,-0.89894,-0.68692,1.6228,-0.30268,1.56,47.58,-9.6
2.547,-9.0303,-0.85808,-0.70066,1.5919,-0.25809,2.34,47.82,-8.94
2.1929,-8.5536,-0.92618,-0.70158,1.5818,-0.2138,3.96,48.06,-7.38
2.2201,-8.431,-0.95342,-0.69089,1.5892,-0.16218,4.86,48.42,-6.48
2.3427,-8.54,-0.89894,-0.67531,1.551,0.031765,5.64,48.66,-5.76
2.4789,-8.5672,-0.84446,-0.6692,1.4218,0.19426,6.54,48.9,-4.86
2.5879,-8.6489,-0.74912,-0.66676,1.3103,0.35644,8.34,49.38,-3.42
2.5606,-8.6217,-0.8036,-0.61697,1.2816,0.51252,9.18,49.74,-2.7
2.6968,-8.7306,-0.81722,-0.52443,1.3751,0.71166,11.04,50.1,-1.26
2.9965,-8.5808,-0.8717,-0.45693,1.4197,0.79687,12.06,50.46,-0.72
3.1463,-8.4038,-1.0215,-0.39462,1.2929,0.83658,13.02,50.88,-0.24
3.1191,-8.2539,-0.8717,-0.37538,1.164,0.84635,13.86,51.12,0.06
3.0237,-8.6762,-0.96704,-0.36285,1.1047,0.85491,15.84,51.54,0.6
2.942,-9.2074,-1.1169,-0.37415,1.1154,0.88484,16.86,51.72,0.72
2.7513,-10.038,-0.96704,-0.45112,1.2917,0.90652,18.9,52.2,0.66
2.6968,-9.9565,-0.99429,-0.52198,1.4566,0.87354,19.74,52.26,0.6
2.7377,-9.5751,-1.2122,-0.56536,1.6399,0.80604,20.82,52.38,0.54
2.6696,-9.2482,-1.2258,-0.60934,1.7785,0.68081,21.9,52.5,0.36
2.438,-8.8124,-0.8717,-0.64538,1.898,0.55741,22.74,52.44,0.42
2.6423,-10.896,0.027241,-0.68967,2.014,0.53023,24.18,52.68,0.36
3.3097,-14.056,0.54481,-0.75075,2.1249,0.68203,24.72,52.86,0.18
4.413,-15.05,-0.081722,-0.78771,2.1597,0.92271,25.8,52.74,-0.12
4.2904,-11.713,-0.7355,-0.56047,1.9096,0.93249,26.28,52.62,-0.18
3.7865,-9.4117,-0.92618,-0.39248,1.7816,0.81825,26.76,52.38,-0.12
3.3506,-8.7987,-1.0624,0.097128,1.3295,0.17654,27.12,52.26,-0.12
2.0158,-8.7987,-1.7979,0.36805,1.0376,-0.39279,27.36,52.14,-0.12
1.3348,-9.112,-2.2474,0.51099,0.87048,-1.0064,27.42,51.96,0.06
1.0488,-9.0575,-2.4108,0.39676,0.9331,-1.0599,26.88,51.66,0.06
0.91256,-8.4719,-2.1929,-0.10568,1.4355,-0.82467,26.4,51.6,0.06
0.68102,-7.8589,-2.6015,-0.46853,1.7834,-0.40623,25.86,51.54,0.06
0.38137,-7.6683,-2.9829,-0.75533,2.0091,-0.051618,25.38,51.54,0.18
0.38137,-7.5729,-4.2495,-1.0067,2.16,0.19059,24.36,51.18,0.24
1.0351,-7.0281,-4.3313,-1.0033,2.3506,0.33903,23.94,51.0,0.36
2.1793,-6.7148,-4.3858,-0.62797,1.8628,0.47037,23.4,50.82,0.54
3.5958,-6.5241,-3.8273,-0.43646,1.4969,0.51099,22.92,50.76,0.96
3.8818,-6.4424,-3.4323,0.070555,0.21411,0.64477,22.14,50.94,1.38
3.7456,-6.4152,-3.2961,0.26634,-0.52504,0.65057,21.84,50.82,1.38
3.4459,-6.1155,-3.3234,0.33017,-1.0131,0.59987,21.66,50.82,1.32
2.6968,-5.2438,-3.0646,0.37324,-1.3525,0.47312,21.54,50.82,1.68
2.1929,-4.9714,-2.9284,0.31185,-1.2938,0.2529,21.78,50.94,1.74
1.4438,-4.9306,-2.833,0.26298,-1.157,0.17929,22.02,51.06,1.8
0.95342,-5.0259,-2.6968,-0.0079412,-0.47953,0.020769,22.74,51.3,1.92
1.0215,-5.2711,-2.5742,-0.17898,0.051924,-0.11698,23.22,51.36,1.92
1.2531,-5.5299,-2.4108,-0.31643,0.43433,-0.20525,23.58,51.66,1.8
2.3972,-7.069,-2.2474,-0.41264,0.62033,-0.21961,24.54,52.26,1.56
2.7377,-7.6002,-2.3699,-0.49847,0.68356,-0.19212,25.02,52.68,1.02
3.1872,-8.1177,-2.4517,-0.58551,0.65118,-0.18937,25.62,52.98,0.66
2.9148,-7.5729,-1.8932,-0.61758,0.61392,-0.3259,26.28,53.88,-0.12
2.7104,-7.8998,-1.1032,-0.59712,0.63622,-0.40073,26.58,54.42,-0.66
2.8603,-9.6704,-0.7355,-0.29413,0.62064,-0.51496,26.76,54.9,-1.08
4.2495,-16.249,-0.88532,-0.14997,0.3879,-0.41233,27.18,55.98,-2.34
4.7944,-18.224,-1.0896,-0.10507,0.069639,-0.28711,27.0,56.58,-3.06
4.8352,-17.025,-0.57205,-0.016493,-0.3824,-0.037263,26.94,57.48,-4.86
4.3858,-18.633,0.46309,0.135,-0.53084,0.18631,26.64,58.02,-5.82
4.127,-19.177,0.50395,0.14264,-0.58643,0.30238,26.46,58.56,-6.78
3.7047,-17.734,0.20431,0.10873,-0.53084,0.19731,26.28,59.1,-7.8
2.0975,-11.85,-0.54481,0.197,-0.33384,0.037874,25.44,60.18,-10.14
1.6753,-9.6432,-0.64016,0.32498,-0.010079,-0.15944,25.02,60.72,-11.16
1.2122,-6.6331,-0.64016,0.32712,0.062614,-0.21808,23.82,61.56,-13.38
1.0079,-5.7069,-0.84446,0.33384,0.21228,-0.31765,23.34,62.04,-14.64
1.0896,-5.3528,-0.96704,0.32254,0.2364,-0.29566,22.74,62.46,-15.72
1.2939,-4.4947,-1.5663,0.24648,0.26084,-0.14936,21.36,63.12,-17.94
1.2667,-4.0861,-1.7706,0.094684,0.28222,-0.040928,20.58,63.54,-18.78
1.185,-3.6775,-1.4982,-0.1463,0.36713,0.064141,19.98,63.84,-19.68
0.96704,-4.5901,-0.7355,-0.40348,0.52198,0.17379,18.66,64.38,-21.42
1.1169,-6.1428,0.40861,-0.68783,0.97005,0.41569,18.24,64.74,-22.2
1.5391,-7.6683,0.40861,-0.81642,1.1515,0.50274,17.88,64.92,-23.1
2.0975,-8.3357,0.081722,-1.1533,1.6466,0.63408,17.46,65.04,-23.7
2.9829,-7.6683,-0.20431,-1.135,1.814,0.63897,17.46,65.1,-25.08
3.1872,-7.3141,-0.16344,-0.92516,1.7465,0.54764,17.58,65.04,-25.86
3.3915,-7.0417,-0.8717,-0.59926,1.5959,0.4835,18.24,64.86,-27.42
3.6366,-7.7772,-1.4301,-0.17287,1.1264,0.34636,18.84,64.68,-28.02
3.9499,-8.6898,-1.58,0.2416,0.50152,0.30238,19.5,64.32,-28.74
4.808,-12.449,-1.8251,0.63835,-0.62889,0.47128,21.36,63.3,-30.24
4.985,-14.506,-2.152,0.76267,-1.2798,0.67898,22.38,62.58,-31.02
4.7944,-16.086,-2.3699,0.74556,-1.6774,0.83841,23.34,61.8,-31.92
3.4732,-17.489,-2.0839,0.61514,-1.6072,0.83322,25.38,60.0,-33.54
3.1191,-19.177,-1.9205,0.60079,-1.4022,0.78893,26.16,59.1,-34.44
3.1735,-19.491,-2.6968,0.56719,-0.91263,0.66676,26.76,58.14,-35.4
2.8603,-17.053,-3.7047,0.39492,-0.21289,0.047342,27.42,57.3,-36.48
2.0839,-8.431,-3.6775,0.34544,0.055589,-0.37629,27.84,55.74,-38.46
1.9886,-5.9249,-3.0918,0.28253,0.11209,-0.75045,27.66,55.2,-39.3
2.1656,-4.4811,-2.4517,0.36469,-0.10751,-0.94623,26.88,54.24,-41.22
2.0431,-4.6445,-2.7104,0.40775,-0.57055,-0.94928,25.98,53.82,-42.36
1.8932,-4.7399,-2.9284,0.26114,-0.71441,-0.84422,25.08,53.52,-43.26
1.7025,-4.3994,-2.9965,0.13011,-0.73487,-0.62278,23.82,53.52,-44.28
1.7162,-4.2495,-2.833,0.045815,-0.65149,-0.35247,20.52,53.64,-46.08
2.0567,-4.6445,-2.6015,-0.0054978,-0.53756,-0.14294,18.84,53.7,-46.92
2.2474,-4.8761,-2.4653,-0.027794,-0.44654,-0.054367,17.04,53.94,-47.88
2.7377,-6.0066,-2.1248,-0.034819,-0.47373,-0.12095,13.02,54.42,-49.8
3.2008,-6.8647,-2.0567,-0.015272,-0.71532,-0.18204,10.98,54.72,-50.7
3.4187,-6.9872,-2.0975,-0.026267,-0.99296,-0.35797,6.48,55.2,-52.68
2.8603,-6.9872,-1.7298,-0.050091,-1.284,-0.55558,1.56,55.2,-54.72
2.2882,-7.4231,-1.2258,-0.10415,-1.3909,-0.73609,-3.72,54.72,-56.82
1.8115,-8.0224,-0.68102,-0.23152,-1.2465,-0.86621,-9.42,54.0,-59.04
1.5391,-8.6898,-0.36775,-0.45235,-0.59071,-0.95264,-12.36,53.4,-60.3
1.7979,-11.509,0.24517,-0.56047,-0.14142,-0.81886,-18.3,52.14,-62.76
2.7922,-14.901,0.61292,-0.72479,0.11759,-0.60018,-24.54,50.88,-65.04
3.5413,-17.775,0.83084,-0.88514,0.41417,-0.40225,-30.72,49.2,-67.26
4.7126,-18.333,0.8036,-0.80115,0.66737,-0.13286,-36.66,47.46,-69.12
5.1485,-17.829,0.96704,-0.55131,0.60231,0.12523,-42.3,45.84,-71.04
5.0123,-17.802,1.2258,-0.076664,0.11179,0.28191,-47.7,44.88,-72.48
4.8488,-17.094,1.1577,0.20342,-0.37813,0.24893,-50.1,44.46,-73.02
3.8954,-13.293,0.027241,0.45968,-0.7929,0.13439,-54.9,44.1,-73.2
3.2553,-11.032,-0.57205,0.64843,-1.0119,0.0085521,-57.06,44.22,-72.72
2.3155,-8.6489,-0.64016,0.70341,-1.1005,-0.10599,-59.22,44.52,-71.82
1.8387,-7.7091,-0.65378,0.6524,-0.98655,-0.18173,-63.24,45.78,-69.12
0.7355,-5.2166,-0.99429,0.55619,-0.7141,-0.2584,-65.22,46.5,-67.26
0.69464,-4.7263,-1.1577,0.36408,-0.2532,-0.2138,-66.9,47.16,-65.1
0.8036,-4.127,-1.2258,0.2642,-0.12859,-0.18326,-68.34,48.18,-62.76
0.88532,-3.5822,-1.2258,-0.025962,0.14569,-0.065057,-69.84,49.02,-60.36
0.99429,-3.6639,-1.0079,-0.18112,0.2926,0.052229,-72.24,50.64,-55.5
1.2122,-4.5083,-0.85808,-0.34331,0.52534,0.27703,-73.2,51.24,-53.04
1.7162,-6.4288,-1.2803,-0.48991,0.60323,0.36285,-74.88,52.26,-48.72
2.152,-7.0281,-1.4165,-0.67867,0.80634,0.5339,-75.36,52.68,-46.68
2.4108,-7.2188,-1.2803,-0.88575,1.0211,0.65424,-75.78,52.98,-45.24
2.5742,-7.3822,-0.7355,-0.97769,1.2107,0.65637,-75.72,53.16,-43.32
2.6696,-7.7091,-0.47671,-1.0201,1.4679,0.58765,-75.24,52.8,-43.14
2.9284,-8.1041,-0.89894,-0.99296,1.6325,0.48167,-74.52,52.38,-43.56
3.7728,-8.7443,-1.3212,-0.75778,1.4536,0.30757,-72.12,51.0,-45.96
4.3858,-10.243,-1.4165,-0.50091,1.1023,0.31062,-70.62,50.04,-47.7
4.8352,-12.19,-1.4029,-0.25809,0.65729,0.41203,-68.76,49.08,-49.86
5.2983,-15.05,-1.7162,-0.07758,0.25779,0.57605,-64.38,46.92,-54.18
5.1076,-15.732,-1.8796,0.064752,0.000611,0.69394,-61.98,45.84,-56.46
4.8625,-16.521,-1.7434,0.25381,-0.076053,0.76633,-59.52,44.88,-58.8
5.0531,-19.395,-2.152,0.58826,-0.000916,0.83383,-54.24,42.9,-62.76
5.0259,-17.543,-3.2825,0.66309,-0.030543,0.77672,-51.72,42.0,-64.56
4.8488,-15.091,-3.9908,0.88209,-0.2532,0.50824,-49.08,41.34,-66.06
4.1951,-10.256,-4.413,0.9276,-0.79565,-0.0076358,-46.68,40.74,-67.14
2.6015,-5.9249,-3.2144,0.69242,-1.0079,-0.43738,-42.66,39.9,-68.34
1.471,-4.0725,-2.152,0.53603,-0.97586,-0.73945,-41.22,39.78,-68.22
0.78998,-3.1599,-2.261,0.46548,-0.7761,-0.85307,-39.24,40.02,-66.96
0.6674,-2.7786,-2.5061,0.32467,-0.45632,-0.85552,-38.76,40.38,-65.7
0.76274,-2.261,-2.833,0.135,-0.13317,-0.78679,-38.58,40.68,-64.38
1.076,-1.8251,-2.9965,0.036346,0.10782,-0.58582,-38.52,41.04,-62.7
1.8251,-2.2337,-2.8058,0.10385,0.11576,-0.39492,-39.36,42.12,-59.64
2.3155,-3.1463,-3.0237,0.21319,-0.0039706,-0.17226,-39.9,42.54,-58.08
2.7104,-5.203,-3.4868,0.2868,-0.32345,0.03146,-41.46,43.02,-55.32
3.3234,-5.7886,-3.3778,0.31093,-0.75808,0.19212,-42.48,43.08,-54.12
3.2416,-6.0883,-2.7241,0.22388,-1.2859,0.24893,-43.56,43.08,-53.04
2.8739,-6.7557,-1.8524,0.13195,-1.2966,0.18754,-44.76,42.78,-52.2
2.8467,-8.5808,-0.54481,-0.014661,-1.2233,0.097128,-46.92,41.58,-51.0
2.9556,-11.264,0.38137,-0.19151,-1.1616,-0.080023,-47.88,40.56,-50.7
3.2825,-16.249,0.8036,-0.39523,-1.1344,-0.22816,-48.84,39.48,-50.52
3.8001,-19.109,1.1441,-0.85857,-1.12,-0.4444,-50.7,36.54,-50.58
3.7865,-19.477,0.96704,-0.81886,-0.8604,-0.42028,-51.72,35.1,-50.58
3.8954,-19.518,0.76274,-0.70341,-0.65424,-0.3262,-52.98,33.66,-50.64
4.413,-19.286,0.74912,-0.18295,0.037874,0.029016,-55.26,30.72,-50.4
4.3313,-19.096,0.95342,0.12156,0.41203,0.22602,-56.46,29.4,-49.98
4.127,-17.162,0.64016,0.27458,0.5681,0.25168,-57.66,28.26,-49.62
3.3234,-10.637,-0.58567,0.39218,0.45845,0.030238,-59.94,26.94,-47.94
2.8603,-8.0088,-0.96704,0.36316,0.25534,-0.23213,-60.78,26.46,-46.74
2.4108,-6.4424,-0.92618,0.32926,0.15058,-0.34331,-61.5,26.34,-45.48
1.7979,-5.0531,-0.6674,0.17746,0.014966,-0.6185,-62.64,26.64,-42.42
1.4165,-4.4539,-0.61292,0.052229,0.036652,-0.70799,-63.06,27.0,-40.62
1.2939,-4.2495,-0.69464,-0.06353,0.079107,-0.65699,-63.24,27.42,-38.7
1.185,-4.3177,-0.98067,-0.31276,0.24801,-0.3824,-63.18,28.92,-34.86
1.471,-4.3177,-1.0215,-0.478,0.36591,-0.10812,-62.88,29.64,-32.94
1.6753,-4.4539,-1.1032,-0.54153,0.44013,0.011912,-62.4,30.48,-31.2
1.9477,-5.094,-1.1032,-0.66951,0.71257,0.32742,-61.74,31.14,-29.64
2.261,-6.5378,-0.5993,-0.74953,0.8998,0.45143,-60.12,32.34,-27.06
2.3972,-7.4503,-0.47671,-0.7703,1.0458,0.48991,-58.98,32.76,-25.8
2.6015,-7.9815,-0.9398,-0.79443,1.1689,0.4893,-57.72,32.82,-24.9
2.8194,-7.641,-1.185,-0.71838,1.3109,0.40745,-54.78,32.52,-24.06
3.0646,-7.5729,-1.185,-0.58338,1.2544,0.33475,-53.04,32.1,-23.88
3.2961,-8.0088,-1.2531,-0.44196,1.0788,0.30604,-51.0,31.62,-24.0
3.9227,-10.869,-0.98067,-0.28833,0.85674,0.3543,-46.56,30.24,-24.96
4.413,-12.149,-1.2531,-0.12737,0.5507,0.51679,-44.1,29.52,-25.74
5.0259,-14.41,-2.0567,0.10385,-0.048869,0.86376,-41.58,28.62,-26.4
5.1894,-14.451,-2.6696,0.1799,-0.24832,0.90469,-36.54,27.36,-27.66
4.7944,-14.969,-2.0431,0.48625,-0.68753,0.92088,-33.9,26.7,-28.14
4.5628,-17.666,-1.185,0.67714,-0.79199,0.94654,-31.44,26.22,-28.38
4.5083,-16.562,-3.3506,0.67745,-0.92485,0.78099,-26.7,25.26,-28.86
3.6366,-12.313,-4.3449,0.74434,-1.0189,0.42577,-24.66,25.02,-29.04
2.1112,-7.6138,-3.8546,0.72937,-0.99815,0.11393,-22.5,24.84,-29.1
1.1169,-6.1019,-2.9148,0.41569,-0.59468,-0.32376,-19.14,24.84,-28.5
0.7355,-5.7614,-2.4789,0.29505,-0.11576,-0.4215,-17.76,25.02,-28.02
0.72188,-5.9385,-2.4653,0.18387,0.26267,-0.32254,-16.68,25.26,-27.6
1.1713,-6.5378,-2.9148,-0.061087,0.49786,-0.12278,-15.78,25.62,-27.0
2.0431,-5.9657,-3.0646,-0.29322,0.6072,0.089797,-14.52,26.4,-25.38
2.4244,-5.094,-2.833,-0.41966,0.5339,0.3372,-13.98,27.06,-24.72
2.6423,-4.2087,-2.4789,-0.44502,0.47983,0.36744,-13.5,28.08,-23.28
2.6696,-4.1542,-2.3836,-0.2251,0.17562,0.24007,-13.32,28.56,-22.56
2.6423,-4.6582,-2.5742,-0.1347,0.0097738,0.15394,-13.08,28.98,-21.96
2.5334,-5.4618,-2.6968,0.098044,-0.51924,-0.15974,-12.48,29.94,-20.76
2.6015,-5.993,-2.4925,0.17807,-0.79351,-0.31582,-12.12,30.36,-19.98
2.5198,-7.2188,-2.0022,0.14019,-1.0018,-0.38515,-11.34,31.2,-18.72
2.3427,-7.9679,-1.7434,-0.012217,-0.92913,-0.34758,-10.8,31.62,-18.12
2.1248,-8.2948,-1.7025,-0.11484,-0.83322,-0.32254,-10.2,31.8,-17.76
1.9477,-8.0632,-1.5663,-0.36041,-0.35216,-0.34972,-9.42,32.1,-17.1
1.9886,-9.8884,-0.40861,-0.34819,0.044593,-0.36408,-7.74,32.64,-16.14
2.7377,-12.299,-0.1362,-0.34147,0.31337,-0.30268,-6.96,33.0,-15.72
3.5413,-14.628,-0.068102,-0.46487,0.3204,-0.21838,-5.52,33.42,-15.0
4.4539,-17.693,-0.027241,-0.36957,0.15669,-0.043066,-4.8,33.6,-14.7
5.0531,-19.191,-0.054481,-0.19761,-0.1295,0.18937,-4.02,33.96,-14.4
5.1757,-19.491,0.47671,-0.13836,-0.24465,0.26512,-3.54,34.32,-14.22
4.9442,-19.532,0.72188,-0.007025,-0.36805,0.36011,-2.94,34.68,-13.86
3.8682,-15.541,-0.040861,0.083078,-0.38332,0.22327,-2.16,35.22,-13.86
2.9556,-12.354,-0.47671,0.18784,-0.23366,-0.30146,-1.8,35.46,-13.68
1.5119,-7.4503,-0.92618,0.25198,-0.15852,-0.51191,-1.74,36.0,-13.5
1.1305,-6.3062,-1.2667,0.29902,0.000611,-0.82833,-1.74,36.3,-13.26
0.91256,-5.7069,-1.4574,0.30818,0.20372,-1.0156,-1.8,36.6,-13.32
1.1169,-4.9442,-1.8524,0.20036,0.49663,-1.0678,-2.82,37.2,-13.02
1.1577,-4.7399,-1.9613,0.0088575,0.60476,-0.95997,-3.54,37.38,-12.9
1.4165,-4.3449,-1.6889,-0.22083,0.62278,-0.74342,-4.08,37.56,-12.72
1.4846,-3.9635,-1.1713,-0.49816,0.49663,-0.34972,-5.4,37.98,-12.42
1.4165,-3.909,-1.0896,-0.57971,0.43219,-0.20403,-6.18,38.1,-12.3
1.5255,-4.1678,-1.0896,-0.71349,0.37751,0.031154,-6.72,38.22,-12.12
1.58,-4.7399,-0.91256,-0.82925,0.42974,0.39951,-7.26,38.34,-11.94
1.8932,-6.6059,-0.38137,-0.87506,0.58643,0.63774,-8.28,38.4,-11.52
2.3291,-7.4095,-0.36775,-0.90744,0.80481,0.84819,-8.7,38.46,-11.4
3.2416,-7.641,-0.50395,-0.90164,0.95692,0.95997,-9.06,38.28,-11.16
3.4051,-7.8181,-0.81722,-0.76267,1.0128,0.97555,-9.24,38.34,-11.22
3.6094,-8.0769,-1.0215,-0.55436,0.98807,0.95051,-9.12,38.22,-10.92
3.6366,-8.9894,-1.2122,-0.21838,0.8375,0.79382,-8.88,38.28,-10.98
4.1542,-12.177,-0.96704,-0.040012,0.67898,0.74281,-8.16,38.1,-10.74
4.5083,-13.934,-1.0624,0.071777,0.51557,0.73212,-7.8,37.98,-10.56
4.8625,-16.126,-1.5663,0.21136,0.33384,0.77305,-6.84,37.74,-10.26
4.9169,-17.475,-1.8524,0.36835,0.24343,0.77885,-6.3,37.62,-10.02
4.9442,-18.197,-2.1248,0.57666,0.16157,0.74556,-5.94,37.5,-9.96
4.9987,-18.319,-2.3563,0.7028,0.081856,0.70708,-5.58,37.44,-9.66
4.7944,-14.655,-3.7184,1.0861,-0.45845,0.42516,-4.68,37.38,-9.3
4.0861,-11.523,-4.1542,1.2278,-0.94501,0.11973,-4.44,37.2,-9.0
2.9556,-8.0905,-3.9363,1.1078,-1.3903,-0.35216,-4.02,37.14,-8.94
1.7025,-5.8295,-3.1599,0.95845,-1.4059,-0.55558,-3.36,36.96,-8.34
0.92618,-4.9442,-2.9692,0.78557,-1.2071,-0.5904,-3.18,36.72,-8.04
0.6674,-4.5356,-2.9011,0.56108,-0.85613,-0.51832,-3.06,36.42,-7.8
0.51757,-3.9227,-3.1191,0.33078,-0.46976,-0.39462,-2.94,36.3,-7.56
0.69464,-3.0918,-3.0918,0.19914,-0.16616,-0.25045,-2.82,36.18,-7.08
1.0896,-3.1872,-3.0373,0.14264,-0.026878,0.019853,-2.82,36.0,-6.72
2.3563,-5.0531,-3.2008,0.18692,-0.097128,0.12156,-2.82,35.52,-5.88
2.7377,-6.2381,-3.3778,0.19823,-0.33109,0.26206,-2.64,35.28,-5.1
2.9965,-6.7966,-3.4732,0.11209,-0.83353,0.35552,-2.46,34.92,-4.56
3.0237,-7.5184,-2.5879,0.064752,-1.1099,0.28039,-2.22,34.26,-2.94
2.6968,-7.641,-1.8524,-0.13775,-1.2327,0.17898,-1.98,33.96,-2.1
2.1656,-8.0224,-1.1713,-0.27214,-1.1332,0.011606,-1.62,33.6,-0.96
1.9613,-9.0712,-1.1986,-0.4554,-0.83902,-0.15302,-0.84,32.64,1.8
1.8796,-9.0303,-0.92618,-0.65332,-0.53451,-0.3766,-0.3,32.22,3.18
1.8932,-9.221,-0.64016,-0.79962,-0.0085521,-0.68539,0.48,31.86,4.92
1.9886,-10.215,0.01362,-0.83414,0.32437,-0.76938,1.14,31.32,6.72
2.6696,-13.539,0.28603,-0.9053,0.57391,-0.79748,3.0,30.12,10.74
3.0646,-15.541,0.12258,-0.8998,0.80176,-0.65363,4.14,29.7,12.84
3.9908,-18.51,-0.5993,-0.75808,0.83933,-0.54703,5.4,29.22,14.94
4.3449,-18.864,-0.44947,-0.54031,0.93493,-0.14905,7.86,28.26,19.26
4.4539,-19.068,-0.054481,-0.46945,0.98105,-0.019548,9.12,27.78,21.66
4.2087,-18.605,0.1362,-0.44654,1.1161,0.16066,10.62,27.24,23.82
3.5413,-13.77,-0.21793,-0.46823,1.16,0.015577,13.32,25.86,27.3
3.1872,-10.815,-0.6674,-0.36377,0.94257,-0.20708,14.64,25.2,28.8
2.6423,-7.4776,-0.92618,-0.20678,0.55497,-0.45265,16.92,23.88,30.84
2.3155,-6.1292,-0.91256,0.007025,0.020159,-0.57727,17.94,23.28,31.5
2.2201,-5.489,-0.9398,0.065973,-0.23305,-0.52473,18.96,22.56,31.92
2.0022,-5.2575,-0.9398,0.059865,-0.38271,-0.39462,19.8,21.84,31.92
1.6208,-4.3858,-1.1169,-0.017104,-0.42852,-0.25412,21.36,20.7,31.14
1.4438,-3.8818,-0.99429,-0.13073,-0.39706,-0.16463,22.02,20.1,30.66
1.2122,-3.5685,-0.68102,-0.27855,-0.22571,-0.1292,22.56,19.62,29.82
1.1577,-4.018,-0.57205,-0.54489,0.25595,-0.08827,23.88,18.48,27.84
1.4029,-4.9306,-0.46309,-0.74342,0.62461,-0.08094,24.6,18.0,26.82
1.5119,-5.3937,-0.35413,-0.94562,0.98013,-0.068722,25.2,17.4,25.86
2.1656,-6.6467,-0.35413,-1.1167,1.2758,-0.066279,26.76,16.8,25.02
2.4517,-6.8238,-0.34051,-1.2373,1.5058,-0.054672,27.54,16.38,24.9
2.9148,-6.9872,-0.69464,-1.2532,1.6347,-0.045509,28.44,16.08,25.08
3.6366,-6.7557,-1.2395,-1.0486,1.5137,-0.043066,30.12,15.6,26.58
3.9908,-6.6195,-1.8387,-0.79229,1.2379,-0.038485,30.78,15.48,27.96
4.2632,-7.5048,-2.1929,-0.47037,0.85552,0.062003,31.38,15.36,30.0
4.7535,-9.5479,-2.2474,-0.19273,0.49083,0.35155,31.8,15.48,32.28
6.1292,-14.655,-2.6423,0.026267,0.22022,0.80695,32.1,15.78,37.44
7.0009,-16.699,-2.9148,0.2755,-0.063225,1.3851,31.98,16.14,40.38
6.96,-18.919,-2.6832,0.36774,-0.14019,1.5186,31.14,17.4,46.26
7.0009,-19.096,-3.4732,0.73457,-0.094073,1.7129,30.66,18.06,48.9
6.7285,-17.298,-4.127,0.86865,-0.093462,1.6188,30.0,18.84,51.42
5.8431,-12.64,-5.1485,1.3021,-0.41814,1.0269,29.28,19.74,53.76
4.1814,-8.9486,-4.5356,1.3665,-0.70341,0.51252,28.14,21.54,57.12
3.1735,-7.5865,-3.8273,1.1512,-0.76114,-0.076358,27.78,22.5,58.2
1.6753,-5.5707,-2.833,0.8827,-0.61911,-0.18784,27.3,24.6,59.46
1.2531,-5.094,-2.6423,0.64843,-0.31337,-0.23793,27.36,25.5,59.46
1.0624,-4.8352,-2.6832,0.28955,0.31857,-0.088881,27.48,26.52,58.98
1.3212,-4.3585,-2.8058,0.11118,0.69272,0.040317,28.32,27.84,57.66
1.7706,-4.2495,-2.8875,-0.031154,0.94654,0.17959,28.98,28.38,56.7
2.3427,-3.9635,-2.8739,-0.12737,1.08,0.20067,29.94,28.86,55.74
2.942,-3.7456,-2.7104,-0.041233,0.85063,0.084605,31.8,29.28,54.24
2.9692,-4.1678,-2.4108,0.062919,0.44685,-0.035125,32.76,29.52,53.94
2.9284,-4.4539,-2.2882,0.11057,0.22602,-0.098349,33.84,29.7,53.94
2.9556,-5.5707,-2.0567,0.26756,-0.43158,-0.23213,34.92,29.88,54.12
2.6832,-7.8045,-1.866,0.2025,-0.74464,-0.22541,36.9,30.48,56.1
2.3155,-8.2539,-1.4982,-0.012523,-0.81245,-0.22449,37.86,31.2,57.9
1.8387,-8.1858,-1.1713,-0.36988,-0.39523,-0.2868,39.06,31.92,60.06
1.5391,-9.1665,-0.027241,-0.4496,-0.16493,-0.30238,40.68,33.84,66.0
1.9068,-11.891,0.38137,-0.59926,0.62858,-0.29688,41.28,35.1,69.84
2.6832,-14.683,0.35413,-0.70494,1.0675,-0.21472,41.64,36.9,73.92
3.514,-16.903,0.40861,-0.86315,1.3488,-0.11698,41.4,38.94,78.72
4.7944,-15.759,0.095342,-0.74464,1.4508,-0.011606,39.54,43.44,89.16
5.0259,-15.963,0.40861,-0.43066,1.3127,0.24312,38.28,46.14,94.44
5.0259,-15.963,0.40861,-0.11942,1.211,0.26603,38.28,46.14,94.44
4.7807,-16.794,0.24517,0.16341,0.77244,0.23182,33.54,54.36,110.16
4.3585,-14.928,-0.32689,0.31551,0.51679,0.19578,31.98,56.94,115.26
4.1133,-13.593,-0.47671,0.35461,0.44776,0.17043,30.66,59.58,120.06
2.8467,-9.8066,-0.72188,0.24923,0.5339,0.13195,28.74,63.3,128.58
2.2201,-8.0088,-0.6674,0.0076358,0.89003,0.037568,28.08,64.62,132.36
1.2531,-5.5299,-1.1441,-0.057421,1.0507,0.0067195,27.6,66.24,138.54
1.2258,-4.3449,-1.1577,-0.18448,1.3763,-0.013134,27.66,66.36,140.94
1.2803,-3.8818,-1.0624,-0.41569,1.7599,0.018937,27.96,66.0,142.86
1.5119,-3.4596,-0.39499,-0.54764,1.8518,0.13683,29.22,64.44,145.38
1.9341,-3.6775,-0.12258,-0.66554,1.8207,0.29169,30.06,63.3,146.16
2.2882,-4.1814,0.068102,-0.75992,1.7022,0.45509,30.84,61.98,147.0
2.656,-5.3392,0.027241,-0.87476,1.5397,0.77488,31.38,59.82,148.08
2.6015,-5.9112,0.21793,-0.90316,1.5498,0.94654,30.9,58.8,148.44
2.6696,-6.4833,0.49033,-0.87354,1.6454,1.0913,29.64,58.44,148.56
2.8739,-7.4503,0.6674,-0.76022,1.7498,1.1967,24.78,58.68,147.66
3.0237,-7.8045,0.29965,-0.57788,1.8387,1.2443,21.06,59.58,146.7
3.3506,-7.3686,-0.8036,-0.31001,1.7849,1.1606,16.8,61.02,145.14
3.4868,-7.6138,-0.72188,0.014355,1.3861,0.92027,7.14,65.52,139.62
3.4187,-10.665,-0.25879,0.23427,1.0504,0.82039,2.22,68.52,136.14
3.3506,-12.735,-0.1362,0.2868,0.87293,0.78771,-2.76,71.94,132.06
3.0237,-17.175,0.1362,0.19639,0.38332,0.65821,-7.08,75.42,127.44
3.2144,-19.45,-1.0079,0.030849,0.23274,0.59804,-14.46,82.68,117.12
3.3234,-19.532,-1.7025,-0.12889,0.42119,0.57605,-17.34,86.22,111.42
2.8058,-18.224,-2.4517,-0.058032,0.49694,0.54764,-21.0,92.28,100.38
2.5606,-16.903,-3.1191,0.5287,0.42364,0.26817,-21.9,94.92,95.04
2.1248,-15.337,-3.7728,0.73273,0.30085,0.12065,-21.96,96.9,90.12
1.4029,-12.626,-3.9635,1.0287,-0.0082467,-0.28069,-20.1,99.9,81.78
1.0215,-10.951,-3.732,0.90439,0.028405,-0.40836,-18.36,100.8,78.6
0.47671,-7.5729,-2.656,0.44502,0.48533,-0.40134,-13.32,100.8,74.82
0.35413,-5.9521,-2.2201,0.17623,0.88362,-0.3036,-10.32,99.96,74.34
0.20431,-4.5083,-1.7979,-0.043982,1.2413,-0.21166,-7.2,98.76,74.58
0.28603,-3.9908,-1.6072,-0.11942,1.4025,-0.18815,-3.78,97.08,75.9
0.83084,-3.7865,-1.2258,-0.25015,1.6741,-0.05681,-0.72,95.04,77.82
1.7025,-4.2495,-0.42223,-0.28833,1.595,0.017715,5.22,90.72,83.52
1.9068,-4.5083,0.095342,-0.29291,1.4444,0.10446,8.04,88.56,87.06
2.1248,-5.7069,0.36775,-0.20128,1.3369,0.13317,13.62,85.02,94.74
2.0975,-6.4697,0.34051,-0.096822,1.2856,0.16127,16.5,83.7,98.82
2.152,-7.0281,0.36775,0.11515,1.2978,0.062614,19.56,82.92,102.66
2.3836,-9.221,-0.19068,0.3091,1.2935,0.0088575,26.4,82.62,109.14
2.4789,-10.351,-0.58567,0.48625,1.2883,-0.12889,30.24,83.22,111.3
2.5198,-11.346,-0.84446,0.60201,1.277,-0.27886,34.32,84.42,112.98
2.0975,-12.449,-0.53119,0.64263,1.2446,-0.4331,42.3,88.32,112.68
1.6753,-12.871,-0.27241,0.44899,1.3338,-0.63194,46.26,90.72,110.94
1.4165,-13.416,0.14982,0.30788,1.5339,-0.63835,49.92,93.3,108.18
1.5527,-14.002,0.12258,0.15882,1.7736,-0.48106,53.46,95.94,104.4
2.4925,-14.805,-0.57205,0.055589,1.9432,-0.19395,59.82,100.86,94.5
3.0646,-13.593,-1.0624,-0.025351,1.9746,0.097433,62.52,103.08,88.8
3.2553,-11.278,-0.83084,-0.013744,1.6875,0.25656,65.22,104.88,82.44
3.1054,-10.025,-0.38137,-0.021686,1.2251,0.08491,67.56,106.2,75.48
2.6696,-9.5615,-0.054481,-0.029322,0.71929,-0.19456,69.66,107.22,67.86
1.9205,-9.4525,0.21793,-0.029322,0.71929,-0.19456,71.34,107.52,59.82
1.1032,-10.406,0.14982,-0.40439,0.41172,-0.65424,72.24,104.88,35.82
0.89894,-10.447,0.46309,-0.55772,0.52809,-0.64507,71.1,103.02,28.38
0.9398,-10.215,0.85808,-0.83963,0.75381,-0.53573,69.54,100.68,21.72
0.89894,-9.2891,1.3076,-1.0595,0.9783,-0.4328,65.4,95.16,10.32
0.77636,-8.7306,1.471,-1.1774,1.2278,-0.37415,63.06,92.04,5.88
0.83084,-8.3629,1.3212,-1.1295,1.5073,-0.34361,60.54,89.04,2.16
1.1032,-8.0769,1.3757,-1.0272,1.5394,-0.3372,55.2,83.64,-4.02
1.2258,-8.4038,1.58,-0.94409,1.5281,-0.28191,52.38,80.94,-6.6
1.4574,-8.9486,1.7025,-0.94165,1.5641,-0.19731,46.26,76.26,-10.92
1.6481,-9.1256,1.8796,-0.98197,1.635,-0.10751,42.84,74.22,-12.24
1.6753,-9.4117,1.9341,-1.0214,1.7028,-0.052229,39.48,72.42,-13.14
1.7979,-9.2891,2.0158,-1.1451,1.9111,-0.028405,33.0,69.24,-14.04
1.7979,-9.0439,2.0158,-1.2086,2.1267,-0.051313,30.0,67.92,-14.04
1.5391,-8.7851,1.866,-1.2468,2.3824,-0.098044,27.06,66.54,-13.92
1.6481,-8.9622,1.9613,-1.2239,2.6472,-0.14966,21.42,64.26,-12.78
1.7025,-9.3436,1.8251,-1.1313,3.0055,-0.18051,18.84,63.3,-11.94
1.8387,-10.379,1.6481,-1.0864,3.0995,-0.15669,16.32,62.46,-11.28
2.2337,-10.569,1.1577,-0.94959,3.2461,-0.034514,12.06,60.78,-9.24
2.4244,-10.12,0.89894,-0.83078,3.1808,0.11332,9.84,60.0,-8.28
2.7513,-9.6977,0.43585,-0.68325,2.9279,0.29627,7.86,59.34,-7.38
3.051,-9.0575,-0.34051,-0.5452,2.503,0.45173,4.44,58.14,-5.22
3.2144,-10.379,-0.16344,-0.38026,1.7291,0.68142,3.0,57.6,-4.44
3.6639,-11.836,-0.25879,-0.34086,1.2645,0.88026,1.68,57.0,-3.72
4.0044,-12.885,-0.5993,-0.38362,1.0198,0.93585,0.6,56.58,-2.94
3.5685,-10.106,-1.58,-0.38912,0.26848,0.88667,-1.32,55.86,-1.62
2.9965,-9.221,-1.866,-0.25595,-0.10415,0.6579,-1.98,55.56,-0.96
2.3018,-9.1801,-2.4108,-0.085827,-0.31307,0.37354,-2.58,55.08,-0.3
0.68102,-9.6841,-2.6015,-0.099571,0.010996,-0.053756,-3.72,54.3,0.54
0.10896,-9.6977,-2.6696,-0.27825,0.71685,-0.18051,-4.14,54.0,1.08
0.24517,-9.7385,-2.4517,-0.50763,1.5131,-0.1069,-4.68,53.76,1.32
0.83084,-9.9429,-2.1929,-0.76725,2.0837,0.069639,-4.92,53.34,1.38
2.261,-9.4389,-2.0839,-0.9499,2.2342,0.17135,-5.4,52.92,1.8
2.3563,-9.0167,-2.2337,-1.0687,2.1872,0.20708,-5.7,52.62,2.04
2.4108,-7.927,-2.3563,-1.1176,2.1686,0.15516,-6.18,52.08,2.28
2.4517,-7.7091,-2.4789,-0.96639,2.0449,-0.013439,-6.36,51.78,2.64
2.656,-7.5184,-2.6968,-0.80665,1.8586,-0.11179,-6.72,51.6,2.82
2.8194,-7.5729,-2.6968,-0.65729,1.639,-0.18998,-7.2,51.3,2.94
2.9011,-7.7091,-2.6968,-0.55986,1.3998,-0.21228,-8.28,50.58,3.06
2.8875,-7.464,-2.7513,-0.49266,1.2236,-0.19273,-8.88,50.46,3.12
2.8058,-7.1915,-2.9284,-0.41111,1.1179,-0.15547,-9.3,50.46,3.24
2.9692,-7.0962,-3.1463,-0.25443,0.93401,-0.086132,-10.08,49.98,3.12
3.0373,-7.1234,-3.2689,-0.14752,0.80848,-0.065057,-10.56,49.74,3.06
3.1463,-7.246,-3.3097,-0.052534,0.67776,-0.038179,-11.04,49.68,3.0
3.337,-7.9134,-3.1872,0.01069,0.58277,-0.041844,-11.64,49.08,2.58
3.6094,-8.2948,-3.051,0.04215,0.55253,-0.053756,-12.06,49.02,2.46
4.0044,-9.4661,-2.8194,0.065973,0.45509,-0.043371,-13.02,49.02,2.04
4.2632,-10.12,-3.051,0.11179,0.15913,0.0015272,-13.32,49.08,1.62
4.3177,-10.324,-2.9692,0.12462,0.069028,0.0094684,-13.62,48.96,1.26
4.4811,-10.774,-2.8058,0.1573,-0.22694,0.044899,-13.8,48.9,0.84
4.1542,-10.76,-2.261,0.10843,-0.40714,0.01069,-14.28,49.08,-0.06
3.8137,-10.283,-1.8932,0.0281,-0.50855,-0.071471,-14.46,49.08,-0.66
3.514,-10.706,-1.6344,-0.018937,-0.60689,-0.13531,-14.82,49.08,-1.26
3.4596,-11.264,-1.5527,-0.09499,-0.53573,-0.21655,-15.84,49.26,-2.16
3.3778,-11.577,-1.3348,-0.13195,-0.47556,-0.23274,-16.26,49.38,-2.64
3.2689,-11.482,-1.185,-0.22358,-0.35155,-0.26909,-16.98,49.44,-3.12
2.9556,-10.515,-0.9398,-0.35888,-0.10782,-0.39126,-17.76,49.8,-3.54
2.2746,-8.9213,-0.50395,-0.42608,0.090408,-0.52168,-19.56,50.28,-4.44
1.9068,-8.3765,-0.46309,-0.46762,0.43921,-0.69975,-20.7,50.52,-5.04
1.7979,-8.1858,-0.21793,-0.47159,0.53909,-0.72571,-21.96,50.58,-5.34
2.0022,-8.3493,-0.027241,-0.4893,0.64171,-0.71716,-25.2,50.94,-5.94
2.1248,-8.4038,0.095342,-0.51435,0.61789,-0.63102,-26.88,51.18,-6.12
2.261,-8.3629,0.12258,-0.5565,0.49847,-0.38546,-28.8,51.36,-6.18
2.3018,-8.2539,0.34051,-0.55741,0.40348,-0.21228,-32.22,51.54,-6.3
2.0567,-8.036,0.31327,-0.53542,0.33811,-0.086743,-34.14,51.84,-6.24
1.6481,-7.0962,0.027241,-0.50091,0.35277,-0.032376,-37.38,52.08,-5.94
1.4165,-6.4833,-0.24517,-0.47953,0.46609,-0.08094,-39.18,52.2,-5.76
1.2803,-6.2109,-0.28603,-0.49358,0.58277,-0.16554,-40.62,52.26,-5.46
1.0896,-6.4833,-0.36775,-0.55741,0.69516,-0.21197,-43.26,52.32,-4.74
1.1169,-6.8374,-0.47671,-0.66432,0.75228,-0.20861,-44.46,52.32,-4.44
1.2258,-6.6195,-0.6674,-0.79993,0.84116,-0.14264,-45.36,52.26,-4.02
1.5936,-6.1836,-0.85808,-0.88545,0.93249,-0.036957,-46.8,52.02,-3.18
1.7843,-5.8976,-0.96704,-0.85796,0.87384,0.20739,-47.1,51.9,-2.94
1.9341,-6.1428,-1.0079,-0.82528,0.84574,0.30849,-47.34,51.6,-2.88
2.3972,-6.9872,-1.1713,-0.66737,0.84605,0.64019,-47.16,51.48,-2.94
2.7649,-7.3414,-1.7298,-0.53817,0.78496,0.88423,-47.04,51.42,-3.12
2.833,-7.5457,-1.9613,-0.3992,0.67501,1.0831,-46.56,51.36,-3.54
3.2961,-11.196,-1.6344,-0.26359,0.55405,1.2865,-45.48,51.36,-4.98
3.9227,-14.043,-1.8387,-0.12278,0.36713,1.7159,-44.52,51.6,-5.94
4.5901,-16.576,-2.3972,-0.090408,0.33475,1.9138,-43.56,51.6,-6.9
4.7535,-17.461,-2.8058,0.027794,0.43799,1.9371,-42.36,51.72,-7.92
4.7535,-18.769,-2.7786,0.34544,0.61361,1.9413,-39.78,51.84,-10.32
5.5843,-19.382,-4.3994,0.83322,0.56383,1.9218,-38.34,52.14,-11.46
5.489,-16.222,-6.3471,1.3244,-0.012217,1.6921,-36.54,52.38,-12.84
3.6911,-9.0303,-5.7342,1.6429,-0.97036,1.0452,-33.18,53.28,-15.66
2.8603,-7.3822,-4.6037,1.397,-1.1832,0.62858,-31.62,53.82,-16.86
2.3155,-6.7829,-3.9908,0.90378,-1.106,0.39034,-30.06,54.24,-18.12
1.1032,-5.2166,-3.2825,0.45204,-0.73762,0.28894,-27.3,54.96,-20.16
0.8036,-4.6445,-3.4187,0.12339,-0.22358,0.27519,-26.16,55.2,-21.12
0.8717,-4.2359,-3.228,-0.15088,0.281,0.28497,-25.2,55.56,-21.84
1.9341,-4.3858,-2.8603,-0.35552,0.82131,0.31062,-23.82,56.28,-23.22
2.5334,-4.7399,-2.8058,-0.3259,0.94928,0.28741,-23.28,56.82,-23.82
3.1054,-5.2302,-2.8467,-0.25198,0.85216,0.21136,-22.86,57.18,-24.48
3.6094,-5.1349,-3.1327,-0.14203,0.50885,0.041539,-22.14,57.9,-25.92
3.7047,-4.6854,-3.0918,0.007025,0.020159,-0.197,-21.96,58.14,-26.64
3.5549,-4.7807,-2.6968,0.13256,-0.47556,-0.43341,-22.2,58.44,-27.42
2.9284,-6.0747,-2.5334,0.16066,-0.95997,-0.73945,-22.92,58.62,-29.1
2.5606,-7.0417,-2.4108,0.041539,-0.98563,-0.86315,-23.46,58.62,-30.18
2.3155,-7.6002,-2.4108,-0.023213,-0.92393,-0.88514,-24.3,58.5,-31.14
2.0567,-9.5887,-2.0567,-0.36194,-0.50396,-0.905,-26.16,57.84,-33.78
1.9886,-9.6704,-1.7706,-0.68234,-0.12004,-0.96547,-27.24,57.42,-35.22
1.7706,-9.507,-0.65378,-0.90042,0.6243,-1.1197,-29.28,55.8,-38.64
2.152,-12.762,-0.49033,-0.88056,1.0592,-1.1161,-30.48,54.84,-40.56
2.9148,-15.582,-0.47671,-0.90836,1.266,-1.047,-31.74,53.58,-42.6
3.7047,-17.216,-0.61292,-0.92577,1.2868,-1.007,-32.94,52.32,-44.58
4.1406,-17.053,-0.88532,-0.76083,1.077,-0.85399,-34.26,51.06,-46.74
4.2087,-16.481,-0.61292,-0.46976,0.75136,-0.68509,-37.44,48.42,-51.24
4.1678,-17.911,-0.12258,-0.19792,0.39218,-0.57116,-39.06,47.22,-53.58
3.6639,-16.208,-0.47671,-0.066584,0.018021,-0.4444,-42.9,44.94,-57.54
3.1599,-13.348,-1.0896,0.19609,-0.43921,-0.32437,-45.12,44.16,-59.22
2.833,-11.645,-1.076,0.28833,-0.57605,-0.28772,-47.16,43.68,-60.72
2.2201,-8.6762,-1.076,0.37538,-0.8491,-0.31765,-49.5,43.44,-61.8
1.0896,-6.2245,-0.68102,0.31276,-0.87476,-0.3992,-54.66,43.62,-62.94
0.1362,-5.094,-0.50395,0.23793,-0.70921,-0.47709,-57.42,43.92,-62.88
-0.28603,-4.7263,-0.68102,0.14142,-0.34575,-0.4612,-63.06,45.0,-61.56
0.29965,-4.5356,-0.85808,-0.011301,0.18479,-0.28527,-65.82,45.72,-60.72
0.8036,-4.413,-0.9398,-0.076358,0.29444,-0.20342,-68.64,46.56,-59.7
1.0896,-4.413,-0.95342,-0.2303,0.35552,0.077885,-71.28,47.4,-58.38
1.4982,-5.0395,-0.6674,-0.33842,0.32437,0.27703,-76.2,48.96,-55.98
1.5391,-5.5435,-0.43585,-0.45693,0.38179,0.44104,-78.24,49.56,-54.9
1.4438,-6.7421,-0.27241,-0.63744,0.69852,0.65821,-81.36,50.58,-53.28
1.7979,-6.8374,-0.46309,-0.68906,0.8491,0.70372,-82.08,50.7,-53.1
2.3427,-7.1098,-0.55843,-0.74067,1.1506,0.75656,-82.38,50.64,-53.34
2.5606,-7.4367,-0.76274,-0.64019,1.3848,0.72296,-82.02,50.34,-53.94
3.3642,-7.7364,-1.58,-0.46548,1.2636,0.64385,-79.14,49.02,-56.7
3.6503,-8.826,-1.7298,-0.21991,0.99205,0.61361,-76.98,47.82,-58.56
4.6037,-12.817,-1.9477,-0.0054978,0.46273,0.78374,-71.1,45.18,-62.88
5.2711,-15.214,-2.3836,0.21166,0.26817,0.89919,-67.74,43.62,-64.92
6.1019,-17.557,-2.8603,0.41814,-0.10507,1.1301,-64.08,41.88,-66.84
6.279,-18.347,-3.2416,0.65607,-0.59559,1.2712,-60.36,40.2,-68.64
5.2711,-19.409,-3.2689,0.85002,-0.71044,1.2269,-53.22,36.72,-71.82
4.8897,-17.311,-3.9635,0.91721,-0.69578,0.98044,-49.92,35.04,-72.9
4.2632,-13.375,-4.7944,0.97097,-0.68173,0.55283,-46.74,33.54,-73.8
2.7649,-7.2324,-4.4402,0.79993,-0.75442,-0.10018,-41.7,30.84,-74.64
2.2201,-5.7342,-3.4459,0.5849,-0.64232,-0.38118,-39.78,29.7,-74.7
1.757,-4.985,-3.0646,0.48075,-0.56169,-0.45571,-38.52,28.62,-74.52
1.6344,-4.5764,-2.9556,0.24465,-0.23702,-0.42516,-38.04,27.84,-73.92
1.7979,-4.0452,-3.514,0.06353,-0.073915,-0.29841,-38.28,26.7,-72.18
2.0567,-3.4323,-3.6911,-0.13286,-0.029932,-0.15638,-39.24,26.34,-71.04
2.5061,-3.0373,-2.9692,-0.14997,-0.043371,-0.13531,-42.24,26.34,-69.54
2.6696,-3.1463,-2.5334,-0.17104,-0.093462,-0.16799,-44.16,26.52,-68.88
2.8058,-3.3642,-2.3563,-0.077885,-0.3656,-0.36285,-46.14,26.58,-68.28
2.942,-4.9987,-2.2882,0.011301,-0.63774,-0.4777,-48.18,26.64,-67.44
3.0373,-6.1292,-2.3018,-0.0048869,-0.88942,-0.58124,-52.14,26.52,-66.36
2.9965,-6.0883,-2.1384,-0.044899,-1.0751,-0.68173,-53.94,26.16,-66.0
2.4517,-6.0202,-1.5119,-0.084605,-1.1423,-0.76297,-55.38,25.8,-65.58
2.0294,-7.1234,-0.85808,-0.14203,-1.0153,-0.82833,-57.66,24.48,-64.98
1.8524,-9.4798,-0.24517,-0.17165,-0.47953,-0.8543,-58.38,23.7,-64.74
2.438,-11.768,0.47671,-0.29108,-0.064141,-0.65699,-58.8,22.74,-64.92
3.5958,-18.932,1.0896,-0.55131,0.26909,-0.44318,-59.1,20.4,-65.34
4.3721,-19.463,1.1441,-0.69028,0.56688,-0.19303,-58.86,19.26,-65.94
4.985,-19.532,1.4438,-0.58399,0.83536,0.39309,-58.5,17.94,-66.6
5.7342,-19.532,1.4029,-0.38576,0.82956,0.5455,-57.78,15.54,-68.34
5.1894,-18.633,0.6674,-0.24129,0.64324,0.61545,-57.72,14.64,-69.36
4.8352,-15.772,0.29965,0.1573,0.078496,0.34117,-57.84,14.22,-70.56
3.3642,-10.774,-0.14982,0.32926,-0.39615,-0.042761,-59.04,13.92,-72.78
2.8058,-9.5751,-0.17706,0.34208,-0.76541,-0.45509,-60.42,14.04,-73.62
2.8058,-9.5751,-0.17706,0.23518,-0.85857,-0.91691,-60.42,14.04,-73.62
0.20431,-5.8976,-0.8717,0.19303,-0.7367,-0.98807,-67.2,16.14,-73.98
-0.12258,-5.1076,-0.96704,0.014661,-0.11423,-0.95814,-70.02,17.1,-73.14
-0.14982,-4.6037,-0.96704,-0.13714,0.30452,-0.79474,-72.72,18.24,-71.82
0.44947,-3.4459,-1.1441,-0.281,0.61056,-0.54092,-78.72,20.82,-68.76
0.9398,-3.0237,-1.0896,-0.4215,0.72846,-0.25351,-81.66,21.9,-66.9
1.4982,-3.2825,-0.72188,-0.58857,0.60537,0.11606,-87.36,24.06,-62.88
1.4165,-3.8273,-0.40861,-0.64202,0.54459,0.21014,-89.76,24.96,-60.78
1.5119,-4.3449,-0.31327,-0.73273,0.50427,0.36163,-91.86,25.74,-58.86
1.6072,-5.2166,-0.25879,-0.8546,0.73976,0.51893,-93.42,26.04,-57.18
2.1248,-6.6604,-0.14982,-0.89034,0.99327,0.58674,-94.56,25.92,-54.0
2.5198,-7.0009,-0.50395,-0.84269,1.1671,0.59315,-93.84,25.38,-52.68
3.1463,-7.9815,-1.2122,-0.69211,1.2217,0.56261,-92.52,24.54,-51.78
3.8954,-10.569,-1.1169,-0.30177,1.0953,0.61789,-87.54,22.26,-50.7
4.5628,-12.98,-0.9398,-0.068722,0.85643,0.78741,-84.3,20.94,-50.58
5.1076,-14.56,-1.2667,0.18876,0.4496,1.0418,-80.88,19.68,-50.34
6.4288,-17.243,-2.1384,0.49419,-0.069639,1.3024,-77.22,18.42,-50.22
7.2869,-19.463,-2.1384,0.87201,-0.6805,1.5223,-70.38,16.44,-49.68
7.4231,-19.532,-2.9011,1.1148,-1.4823,1.4719,-67.14,15.6,-49.14
5.6116,-14.506,-5.2166,1.3234,-1.7306,1.2868,-60.9,14.52,-47.46
4.1542,-10.501,-5.5843,1.408,-2.2217,0.44257,-58.14,14.04,-46.14
2.4925,-8.0496,-4.7126,1.1341,-2.0302,-0.18479,-55.74,13.74,-44.64
0.6674,-5.7614,-3.3506,0.78985,-1.4035,-0.52137,-52.2,13.44,-41.1
0.5993,-5.2302,-3.2825,0.51496,-0.71838,-0.56444,-51.12,13.62,-39.12
0.6674,-5.1757,-3.5413,0.22297,-0.087048,-0.38393,-50.28,13.92,-37.08
1.4438,-4.808,-3.6094,-0.25107,0.5849,-0.0281,-49.8,14.64,-33.42
2.2065,-4.4811,-3.4187,-0.42883,0.72143,0.18723,-50.1,15.06,-31.74
2.6696,-4.3449,-3.2008,-0.48533,0.75503,0.26328,-50.58,15.42,-30.3
3.5413,-4.0044,-2.7786,-0.54642,0.74098,0.24221,-51.48,16.02,-27.66
3.6911,-3.8273,-2.6832,-0.44929,0.40959,0.03146,-51.96,16.32,-26.34
3.7047,-3.8682,-2.4244,-0.11515,-0.39401,-0.38607,-52.68,16.68,-23.82
3.7047,-5.2847,-2.2882,0.082772,-0.95845,-0.6127,-52.8,16.68,-22.5
3.514,-6.6059,-1.975,0.13073,-1.3494,-0.77305,-52.74,16.62,-21.12
3.3097,-7.1779,-1.7025,0.098044,-1.4551,-0.80298,-52.26,16.5,-19.56
2.9011,-8.1177,-1.4029,-0.14722,-1.3668,-0.79168,-51.54,16.32,-17.88
2.1793,-8.6353,-0.92618,-0.40348,-1.029,-0.78313,-49.44,16.08,-14.52
1.9205,-8.8532,-0.36775,-0.62125,-0.5058,-0.81367,-48.12,15.9,-12.84
1.7979,-11.85,0.8036,-0.78863,0.43555,-0.86499,-45.12,15.54,-8.7
2.547,-14.655,0.99429,-0.90042,0.96975,-0.8042,-43.62,15.36,-6.6
3.9227,-17.693,0.51757,-0.93585,1.1442,-0.73395,-41.82,15.18,-4.5
4.4947,-18.387,0.1362,-0.72204,1.2062,-0.46731,-40.2,15.0,-2.4
5.4345,-19.314,0.49033,-0.38057,0.9728,-0.1909,-36.78,14.58,1.8
5.7478,-19.504,0.7355,-0.037263,0.62247,0.12431,-34.98,14.46,3.6
5.1621,-16.481,-0.28603,0.24709,0.1014,0.29413,-31.56,14.34,6.54
4.2495,-12.0,-1.2667,0.7367,-0.77336,0.30116,-30.06,14.34,7.5
3.1463,-9.2074,-1.4438,0.84422,-1.1631,0.08827,-28.86,14.52,8.28
2.2882,-7.8317,-1.2258,0.79871,-1.3033,-0.14203,-27.9,14.7,8.7
0.9398,-5.6933,-0.91256,0.64324,-1.1002,-0.33842,-26.88,15.0,9.0
0.50395,-5.2438,-0.76274,0.4386,-0.7419,-0.46762,-26.7,15.18,9.18
0.1362,-4.4947,-1.0488,0.058338,-0.10965,-0.46181,-26.34,15.6,8.58
0.38137,-4.1678,-0.9398,-0.16982,0.30268,-0.37293,-26.28,15.9,8.34
1.1169,-4.1542,-0.6674,-0.26695,0.41844,-0.28741,-26.34,16.2,7.98
1.7706,-4.304,-0.54481,-0.43341,0.16677,0.085827,-26.16,16.68,7.44
2.3699,-4.985,-0.84446,-0.53451,-0.17746,0.3259,-26.04,17.28,6.36
2.2201,-5.2166,-0.72188,-0.57635,-0.32651,0.55405,-25.92,17.46,5.88
2.0703,-5.6116,-0.32689,-0.5507,-0.20006,0.82253,-25.68,17.82,5.34
1.975,-6.5105,0.01362,-0.51313,-0.11698,0.87109,-25.08,18.42,5.04
1.9341,-7.2869,0.095342,-0.38607,0.28955,0.92088,-24.6,18.54,4.98
2.0158,-7.75,-0.040861,-0.24679,0.61056,0.89889,-24.0,18.78,4.98
2.8603,-8.7306,-1.3212,-0.032681,0.74709,0.83872,-22.32,19.56,5.52
3.4187,-9.0848,-1.8524,0.20495,0.60751,0.77794,-21.42,20.04,5.76
3.6911,-11.863,-1.4301,0.3879,0.3708,0.75228,-20.58,20.46,6.06
3.9227,-13.757,-1.471,0.51099,0.069944,0.80665,-19.08,21.96,6.66
3.9771,-14.805,-2.2065,0.48197,-0.11087,0.81734,-18.42,22.68,7.02
3.7456,-15.132,-2.3155,0.4441,-0.13408,0.81184,-17.94,23.34,7.32
3.623,-16.835,-2.0022,0.56933,0.035736,0.92577,-17.4,24.24,7.68
3.9908,-19.355,-1.866,0.57299,0.26389,1.1167,-17.1,24.9,7.74
4.699,-15.377,-4.7535,0.4609,0.35552,0.98105,-16.68,26.64,8.04
4.1814,-12.19,-4.9987,0.61789,0.042761,0.55772,-16.44,27.36,8.16
2.9965,-7.4776,-4.522,0.49144,-0.23121,0.0024435,-16.38,27.96,8.04
1.8932,-4.9987,-3.1191,0.45326,-0.49786,-0.44471,-16.32,29.4,7.92
1.3212,-4.7126,-2.7241,0.47342,-0.68356,-0.71288,-16.32,29.76,7.56
1.1713,-5.1076,-2.9011,0.37751,-0.67989,-0.78069,-16.38,30.24,7.14
1.1032,-5.1894,-3.1872,0.078802,-0.45509,-0.64568,-16.5,30.96,6.3
1.3348,-4.9442,-3.051,-0.34239,-0.075442,-0.2584,-16.56,31.14,5.82
1.6072,-4.6718,-2.7377,-0.47373,0.077885,-0.044899,-16.38,30.96,5.46
2.1384,-4.5492,-2.3427,-0.52107,0.18448,0.044593,-16.26,30.96,4.98
2.6968,-4.8761,-2.7922,-0.47922,0.17318,-0.030543,-15.66,30.48,4.38
2.7922,-4.9714,-2.833,-0.37171,-0.05681,-0.21716,-15.42,30.3,4.08
2.7513,-5.489,-2.7649,-0.20189,-0.40561,-0.44379,-15.12,30.0,3.96
2.7922,-6.8102,-2.0839,-0.096517,-0.81825,-0.69639,-14.64,29.4,3.96
2.6151,-7.246,-1.8115,-0.19028,-0.89583,-0.79596,-14.46,29.34,4.14
2.4108,-7.4095,-1.5119,-0.28588,-0.87048,-0.8152,-14.22,29.04,4.5
1.8796,-7.464,-1.0896,-0.61972,-0.51343,-0.85399,-13.98,28.86,4.92
1.471,-8.1722,-0.24517,-0.77916,-0.12553,-0.89095,-13.38,28.44,6.54
1.5391,-10.052,0.16344,-0.82009,0.35644,-0.89034,-12.9,28.26,7.5
2.1929,-12.735,0.50395,-0.89034,0.77213,-0.75778,-12.36,27.84,8.58
3.9635,-16.862,0.57205,-1.0217,1.0229,-0.47525,-11.82,27.78,11.28
4.5901,-17.352,0.35413,-0.85796,0.94531,-0.19212,-11.64,27.66,12.78
5.1213,-17.775,0.24517,-0.51007,0.68997,0.11118,-11.46,27.78,14.1
5.2302,-18.932,0.35413,-0.12645,0.35675,0.35277,-11.58,27.78,15.54
5.2302,-19.504,0.6674,0.14355,0.0015272,0.48869,-11.22,27.78,18.18
3.9635,-14.901,-0.54481,0.53206,-0.50549,0.38576,-11.16,27.66,19.14
3.514,-11.536,-0.89894,0.65149,-0.613,0.29963,-11.04,27.66,20.1
2.7649,-8.7851,-1.1032,0.78985,-0.84849,-0.065363,-10.92,27.36,20.82
1.5391,-6.5378,-0.46309,0.76786,-0.85765,-0.281,-10.8,26.88,21.78
0.83084,-6.2926,-0.40861,0.69089,-0.64691,-0.3989,-10.86,26.64,21.96
0.38137,-5.9112,-0.74912,0.50793,-0.10324,-0.34789,-10.98,26.22,21.72
0.58567,-4.2495,-1.471,0.19761,0.20433,-0.18143,-11.22,25.92,21.3
1.0624,-3.1735,-1.5391,-0.0281,0.38393,0.040623,-11.16,25.5,20.7
1.2122,-2.833,-1.471,-0.13836,0.42302,0.14905,-11.16,25.14,19.98
1.4029,-2.833,-1.0896,-0.44624,0.52718,0.42333,-11.28,24.9,19.26
1.4301,-4.5901,-0.5993,-0.6182,0.67531,0.5452,-11.16,24.36,17.94
1.7706,-5.5162,-0.24517,-0.72785,0.7422,0.61758,-11.22,24.18,17.46
1.8932,-6.5514,-0.31327,-0.83261,0.90988,0.74006,-11.22,24.0,16.98
2.2882,-7.0417,-0.40861,-0.86071,1.1487,0.71166,-11.52,24.06,17.1
2.5198,-6.9328,-0.6674,-0.78496,1.3014,0.57727,-11.7,24.36,17.34
2.6151,-7.2869,-0.54481,-0.69944,1.3167,0.50824,-12.06,24.96,17.7
3.228,-11.931,-0.83084,-0.25962,1.1215,0.48717,-13.2,25.98,18.42
4.0861,-14.601,-1.3076,0.045815,0.76419,0.68631,-14.1,26.7,18.72
5.6388,-17.992,-2.5606,0.37171,0.30207,0.98258,-14.88,27.36,19.14
5.7069,-19.382,-2.6015,0.92607,-0.33811,1.4823,-16.86,29.46,20.04
5.7069,-19.518,-2.547,1.2828,-0.65454,1.7443,-17.64,30.48,20.1
5.4754,-19.532,-3.3778,1.3818,-0.83719,1.752,-18.24,31.56,20.22
3.4323,-14.642,-5.2575,1.3818,-1.3027,1.1075,-19.32,33.42,19.92
2.0975,-11.073,-5.2711,1.0983,-1.3473,0.40317,-19.68,34.56,19.56
0.54481,-7.6138,-3.2961,0.76541,-1.0873,-0.22052,-19.98,35.4,19.08
0.50395,-6.7966,-2.8603,0.43066,-0.49877,-0.61575,-20.1,36.9,18.0
0.69464,-6.2517,-2.9011,0.19578,-0.14569,-0.56719,-19.92,37.38,17.34
0.7355,-6.1292,-3.0782,0.066584,0.011912,-0.48442,-19.5,37.62,16.44
1.2258,-5.1213,-3.6639,-0.28039,0.23091,-0.20769,-18.3,38.1,15.0
1.5119,-4.4266,-3.5413,-0.40775,0.27947,-0.033598,-17.34,37.98,14.28
1.8932,-3.7865,-3.3642,-0.43188,0.35705,0.10843,-16.32,37.8,13.68
2.3699,-2.9284,-2.9965,-0.28924,0.19731,0.064141,-13.98,37.14,12.42
2.4517,-2.7513,-2.8194,-0.11148,-0.21686,-0.087659,-12.78,36.78,12.24
2.4108,-2.9556,-2.6151,0.11851,-0.77916,-0.22083,-11.7,36.12,11.94
2.8058,-4.8352,-2.4517,0.24923,-1.3589,-0.29566,-9.54,35.1,11.94
2.833,-6.1019,-2.3155,0.24129,-1.8198,-0.29627,-8.46,34.38,12.0
2.5198,-7.75,-2.0703,0.09163,-2.0314,-0.19914,-7.38,33.84,12.06
2.1929,-8.2539,-1.757,-0.20861,-1.8714,-0.10873,-6.18,33.3,12.12
2.1929,-8.2539,-1.757,-0.64019,-1.1234,-0.10385,-6.18,33.3,12.12
1.4165,-8.5808,-0.38137,-0.86193,-0.45723,-0.19945,-4.5,32.94,12.24
1.6344,-9.3572,0.27241,-1.0027,0.1463,-0.39187,-1.44,32.4,13.02
2.2201,-12.313,0.44947,-1.0232,0.61911,-0.57574,1.8,31.92,14.04
2.8875,-14.383,0.49033,-1.0431,0.87293,-0.74831,3.42,31.8,14.64
3.3915,-15.636,0.44947,-0.91141,0.88728,-0.81795,6.84,31.56,15.96
4.9306,-18.51,-0.081722,-0.50244,0.41478,-0.68753,8.28,31.32,16.5
5.1485,-17.952,-0.21793,-0.24862,-0.06017,-0.57544,10.92,31.2,17.28
4.3994,-18.238,0.61292,-0.079412,-0.35766,-0.48778,13.2,31.14,17.46
3.8818,-18.66,1.0624,-0.055894,-0.50763,-0.46242,14.94,30.96,17.52
2.9556,-15.514,0.095342,-0.13836,-0.57146,-0.61239,15.54,30.78,17.22
2.0294,-11.632,-0.53119,-0.17593,-0.47647,-0.82497,15.18,30.42,15.78
1.3212,-8.54,-0.43585,-0.16188,-0.31643,-1.0397,14.16,30.0,13.62
1.0351,-7.5048,-0.38137,-0.13622,-0.062308,-1.2162,13.38,29.88,12.36
0.74912,-6.3471,-0.35413,-0.10812,0.041233,-1.2312,12.3,29.76,11.04
0.85808,-5.5026,-0.72188,-0.089797,0.24557,-1.0751,10.02,29.76,8.22
1.0624,-4.9306,-0.96704,-0.1124,0.27153,-0.88026,8.82,29.46,6.9
1.1986,-3.3778,-0.99429,-0.16432,0.28008,-0.63652,7.56,29.46,5.58
1.0896,-3.0373,-0.62654,-0.28558,0.22419,-0.27397,4.92,29.34,3.36
0.9398,-3.1599,0.12258,-0.39065,0.15394,-0.04612,3.72,29.28,2.34
0.8036,-3.6366,0.64016,-0.43707,0.12126,0.059559,2.64,29.34,1.26
0.76274,-6.1836,1.0624,-0.59468,0.32437,0.44776,0.36,29.4,-0.54
0.96704,-6.5241,0.64016,-0.73365,0.72785,0.68967,-0.42,29.52,-0.96
1.185,-5.1894,0.21793,-0.72449,1.1396,0.86407,-1.14,29.52,-1.2
1.471,-4.7399,-0.10896,-0.49114,1.6735,0.93921,-2.1,29.94,-1.14
1.6072,-4.7671,-0.27241,-0.31276,1.9062,0.83169,-2.22,30.24,-0.84
1.5663,-5.5843,-0.57205,-0.21197,2.0052,0.75564,-2.28,30.42,-0.48
2.3699,-8.9077,-1.1169,0.17226,2.0528,0.65485,-2.34,31.2,0.78
3.8273,-12.408,-1.6481,0.40164,1.7346,0.8656,-2.28,31.68,1.32
5.8704,-17.652,-2.152,0.76664,1.164,1.3283,-2.28,32.34,2.1
7.9679,-19.477,-3.514,1.3738,-0.35888,2.0201,-1.92,33.84,3.06
7.0417,-19.532,-3.2825,1.7184,-0.96272,2.3607,-1.92,34.62,3.48
6.5786,-19.532,-3.1872,1.8857,-1.1096,2.4264,-1.8,35.58,3.84
5.094,-18.769,-4.7807,1.9517,-1.5153,1.8781,-1.38,36.66,4.08
2.2337,-12.517,-6.3743,1.5085,-1.4807,1.0299,-1.02,38.4,4.08
0.96704,-9.1393,-4.6582,0.97036,-1.0547,0.044899,-0.84,39.42,3.9
0.64016,-6.5378,-2.8875,0.60995,-0.39737,-0.12828,-0.54,41.1,3.0
0.54481,-5.7342,-2.6151,0.1182,0.67989,-0.3259,-0.42,41.88,2.22
0.61292,-5.2983,-2.5334,-0.062614,1.0415,-0.31612,-0.24,42.72,1.5
1.0624,-4.5901,-2.4517,-0.60262,1.8103,-0.31521,0.42,43.8,-0.12
1.3348,-4.0589,-2.261,-0.86529,2.1518,-0.34239,0.6,44.4,-0.84
2.0975,-3.7047,-1.8796,-0.9725,2.4407,-0.28527,1.02,44.76,-1.74
3.5004,-4.5356,-1.4165,-0.94226,2.5036,-0.19945,1.86,45.42,-2.88
3.9771,-5.38,-1.2531,-0.78313,2.0681,-0.14416,2.22,45.66,-3.24
4.1951,-6.3743,-1.0624,-0.6692,1.5275,-0.093157,2.52,45.78,-3.66
4.4266,-7.0826,-1.1577,-0.42669,0.89797,-0.034819,2.7,45.9,-3.84
4.6037,-8.1177,-0.98067,-0.14722,0.21289,-0.0030543,2.94,46.32,-4.26
4.0589,-9.0167,-0.64016,0.095906,-0.39004,-0.023518,3.0,46.74,-4.26
3.2961,-9.4117,-0.47671,0.23457,-0.76022,-0.11301,3.06,47.22,-4.08
1.3076,-8.9622,-0.20431,0.20036,-0.7199,-0.45112,2.82,48.18,-4.14
0.69464,-10.283,0.57205,0.18021,-0.40103,-0.63805,2.76,48.6,-4.14
0.50395,-12.054,0.99429,0.086437,-0.087048,-0.69669,2.64,49.32,-4.26
0.61292,-16.916,1.6072,-0.21044,0.30024,-0.74831,2.1,50.7,-4.74
0.74912,-18.061,1.6072,-0.5681,0.8998,-0.75228,1.8,51.36,-4.98
1.5391,-16.93,1.7843,-0.7703,1.4755,-0.56627,0.96,52.74,-5.94
1.7979,-16.998,1.9341,-0.76205,1.967,-0.26237,0.72,53.4,-6.6
1.8932,-17.175,1.9886,-0.63897,2.0779,-0.20036,0.36,54.06,-7.02
1.6889,-16.045,1.5391,-0.49083,2.021,-0.22694,0.06,54.54,-7.68
1.4301,-12.98,0.76274,-0.30116,1.9276,-0.22877,-0.48,55.38,-8.82
1.6753,-11.645,0.44947,-0.16616,1.8903,-0.1967,-0.84,55.5,-9.6
1.6344,-9.398,0.040861,-0.11698,1.8528,-0.048258,-0.96,55.74,-10.86
1.6481,-8.3765,-0.31327,-0.083383,1.751,0.07422,-1.14,55.68,-11.64
1.7025,-7.5321,-0.47671,-0.11057,1.6637,0.20342,-1.08,55.68,-12.24
1.7162,-6.8919,-0.46309,-0.18448,1.6057,0.34697,-1.02,55.44,-12.78
1.6072,-5.6524,-0.23155,-0.25534,1.6286,0.48258,-0.42,54.84,-13.74
1.5936,-5.489,-0.10896,-0.31826,1.7052,0.59437,-0.06,54.66,-14.1
1.7298,-5.6116,0.12258,-0.35064,1.8054,0.7138,0.36,54.3,-14.34
2.2882,-6.5105,-0.054481,-0.35094,1.9086,0.8488,1.44,53.58,-14.82
2.5606,-7.1779,-0.25879,-0.31307,1.9551,1.0376,1.92,53.34,-15.18
3.0237,-7.8998,-0.14982,-0.28008,1.9215,1.1057,2.46,53.16,-15.48
3.6094,-9.9973,0.31327,-0.19242,1.6328,1.2535,3.66,52.74,-16.08
3.8137,-11.346,0.44947,-0.15027,1.4242,1.2694,4.44,52.62,-16.26
3.6366,-12.354,0.42223,-0.16768,1.2733,1.1958,5.04,52.62,-16.68
3.0918,-11.768,0.040861,-0.1857,1.2407,0.90927,6.48,52.74,-17.22
2.656,-11.346,-0.054481,-0.16127,1.2804,0.68264,7.02,52.68,-17.52
2.4789,-11.509,0.027241,-0.13439,1.2975,0.58063,7.68,52.8,-17.88
2.261,-12.272,0.068102,-0.18815,1.4481,0.37018,8.34,52.86,-18.18
2.3972,-14.179,0.50395,-0.31154,1.6542,0.38149,9.78,53.1,-19.08
2.9829,-14.138,-0.31327,-0.47617,1.8787,0.51007,10.44,53.1,-19.62
2.5879,-9.4117,-1.4165,-0.5962,1.8964,0.50519,11.82,53.04,-20.4
1.9886,-7.1507,-1.4438,-0.57574,1.9612,0.19761,12.36,52.92,-20.82
1.2939,-6.8102,-1.185,-0.38057,1.9804,-0.11087,13.14,52.8,-21.24
0.62654,-9.2482,-1.185,-0.2529,1.9661,-0.43585,14.28,52.5,-21.66
0.54481,-10.978,-1.2803,-0.31612,1.952,-0.74678,14.82,52.38,-22.02
0.8036,-11.591,-1.185,-0.53756,1.9563,-0.91263,15.24,52.2,-22.32
0.91256,-10.215,-1.4438,-0.91172,2.0513,-0.84391,15.66,51.66,-22.56
0.76274,-9.0575,-1.6344,-0.97738,2.087,-0.76755,15.9,51.6,-22.62
0.58567,-8.3493,-1.7025,-1.0052,2.1533,-0.63225,16.02,51.42,-22.74
0.53119,-7.1507,-2.0431,-0.83414,2.2077,-0.52993,16.08,51.3,-22.74
0.7355,-6.4969,-2.2201,-0.64049,2.1673,-0.4722,16.2,50.82,-22.56
1.0624,-6.5105,-2.261,-0.48228,2.0378,-0.39462,16.2,50.76,-22.44
1.5119,-6.96,-2.0703,-0.36072,1.7339,-0.25076,15.9,50.76,-21.96
1.7298,-7.5184,-2.2065,-0.34147,1.6304,-0.19609,15.9,50.76,-21.66
1.8524,-7.8589,-2.2337,-0.32345,1.3393,-0.039095,15.66,50.82,-21.3
1.9341,-7.9543,-2.2882,-0.30116,1.2214,0.070555,15.48,50.88,-21.24
1.9886,-8.1858,-2.3018,-0.25443,1.1646,0.17104,15.18,51.18,-20.88
2.1248,-8.4719,-2.3699,-0.16768,1.149,0.24954,15.12,51.24,-20.7
2.152,-8.4719,-2.3018,-0.037568,1.1478,0.3091,15.18,51.48,-20.52
2.2746,-8.6625,-2.3291,0.090713,1.1448,0.32467,15.24,51.6,-20.4
2.4108,-9.1665,-2.3155,0.23427,1.091,0.32009,15.3,51.84,-20.22
2.5742,-9.793,-2.4108,0.30482,1.0507,0.31979,15.36,51.84,-20.04
2.9284,-10.733,-2.4517,0.46426,0.80695,0.29963,15.6,52.08,-20.04
2.833,-10.978,-2.3291,0.47617,0.62583,0.24954,15.96,52.2,-20.16
2.4789,-11.496,-1.8387,0.45387,0.51465,0.17349,16.26,52.2,-20.58
2.3427,-12.149,-1.58,0.35339,0.52718,0.12798,16.8,52.38,-21.42
2.2746,-12.286,-1.5391,0.27061,0.56505,0.10507,17.22,52.5,-21.72
2.3836,-12.653,-1.4165,0.099571,0.69211,0.13042,17.64,52.5,-22.14
2.4108,-12.231,-1.2531,-0.063835,0.76847,0.14203,18.0,52.44,-22.56
2.0567,-10.052,-0.50395,-0.22907,0.83627,0.091324,18.96,52.2,-23.46
1.9341,-9.5751,-0.19068,-0.36957,0.90194,-0.040623,19.44,52.08,-24.0
1.9205,-9.3027,0.35413,-0.4777,0.77855,-0.32437,20.4,52.14,-25.32
1.9068,-9.6023,0.38137,-0.51588,0.64171,-0.53359,20.82,52.02,-25.98
1.5936,-10.42,0.38137,-0.60109,0.61789,-0.69425,21.78,51.9,-27.36
1.2667,-10.542,0.46309,-0.63591,0.66798,-0.74373,22.38,51.9,-27.96
1.076,-9.9565,0.6674,-0.73793,1.0107,-0.79474,23.88,51.72,-29.28
1.0624,-9.6704,0.74912,-0.77213,1.2993,-0.7535,24.36,51.66,-29.7
1.2395,-8.7306,0.72188,-0.79077,1.5134,-0.68417,25.02,51.66,-30.9
1.3757,-8.3084,0.61292,-0.71532,1.6936,-0.58704,25.44,52.14,-32.1
1.5527,-8.2539,0.46309,-0.6463,1.7199,-0.47953,26.1,52.68,-33.12
1.7979,-8.6625,0.51757,-0.61758,1.653,-0.32406,26.76,53.16,-34.02
1.8524,-8.9486,0.57205,-0.61789,1.5861,-0.12462,27.6,53.64,-34.98
1.8796,-9.0984,0.68102,-0.62522,1.595,0.064446,28.44,54.48,-36.12
1.866,-9.0848,0.51757,-0.61758,1.6594,0.25931,29.28,55.08,-37.74
2.1248,-9.1801,0.55843,-0.54245,1.8228,0.46976,30.48,55.92,-39.24
2.1656,-9.1937,0.49033,-0.46548,1.9123,0.57116,31.26,56.34,-39.66
2.3563,-8.6353,0.27241,-0.3598,1.9572,0.63194,33.12,56.82,-40.62
2.6287,-8.5672,0.10896,-0.24496,1.9135,0.67928,35.16,57.18,-41.7
2.7922,-8.8668,0.054481,-0.1631,1.8164,0.72143,37.08,57.18,-42.72
2.8875,-9.3436,-0.12258,-0.12584,1.6976,0.76725,38.1,57.12,-43.44
2.9284,-10.542,-0.14982,-0.15455,1.6185,0.83566,40.14,56.64,-44.64
2.9829,-10.869,-0.19068,-0.2978,1.5522,0.93126,41.1,56.34,-45.18
2.9556,-11.659,-0.24517,-0.42547,1.562,0.9783,43.02,55.44,-46.14
2.7513,-11.482,-0.21793,-0.58979,1.5992,0.97708,44.76,54.54,-46.86
2.3972,-11.605,-0.054481,-0.71166,1.6845,0.92546,46.14,53.64,-47.64
2.2882,-12.299,0.19068,-0.76389,1.8384,0.90225,46.68,53.22,-48.12
2.8875,-15.704,0.7355,-0.81764,2.0244,0.94104,47.76,52.38,-48.42
3.6775,-15.091,-0.36775,-0.90286,2.1255,0.95234,48.24,51.84,-48.78
3.1463,-8.7306,-1.58,-0.80207,1.9789,0.7138,48.6,52.02,-48.36
2.5061,-5.6388,-1.471,-0.54428,1.7303,0.33995,48.6,52.38,-48.06
1.1032,-6.0474,-0.91256,-0.24862,1.4774,0.002138,47.88,53.4,-46.98
0.54481,-7.8998,-1.1305,-0.11148,1.3097,-0.29932,46.62,54.66,-45.42
0.54481,-8.6081,-1.1169,-0.16524,1.3189,-0.50213,45.72,55.32,-44.76
1.1032,-9.6023,-1.185,-0.52993,1.609,-0.3598,43.62,56.64,-43.2
1.6753,-9.0848,-1.185,-0.7648,1.7776,-0.064446,41.16,57.96,-41.28
2.0839,-8.6353,-1.471,-0.85613,1.8583,0.26267,38.4,59.46,-39.18
2.2201,-8.0496,-2.1112,-0.83444,1.8528,0.46029,35.88,60.66,-36.84
2.2201,-7.5729,-2.3155,-0.67928,1.7727,0.52565,34.44,61.02,-35.76
2.4653,-6.9464,-2.6832,-0.41264,1.5785,0.54062,31.44,61.56,-33.24
2.8603,-6.96,-2.6696,-0.10507,1.2416,0.54184,29.04,61.74,-31.26
3.228,-7.355,-2.7513,0.22633,0.53848,0.53329,27.18,61.74,-29.34
3.2825,-7.5593,-2.9011,0.33537,0.048258,0.54184,26.4,61.56,-28.38
2.9829,-7.641,-2.9284,0.36041,-0.32865,0.53573,25.02,61.44,-26.94
2.6968,-7.5184,-3.051,0.36835,-0.55558,0.50183,23.82,61.2,-25.98
2.4517,-7.1915,-3.0782,0.35583,-0.70372,0.42669,23.1,60.96,-25.74
2.2474,-6.7148,-3.1872,0.32132,-0.72388,0.20892,21.42,60.24,-25.62
2.1248,-6.3879,-3.1599,0.27489,-0.67104,0.044593,19.56,59.58,-26.22
2.0431,-6.1564,-2.9965,0.22327,-0.60964,-0.14386,17.16,58.92,-27.72
2.0703,-6.3743,-2.6287,0.16768,-0.55497,-0.30116,14.1,57.96,-29.04
2.1929,-6.7421,-2.6968,0.14569,-0.57177,-0.39798,12.18,57.48,-29.64
2.3836,-7.3822,-2.9556,0.054367,-0.64171,-0.46365,7.56,56.1,-31.08
2.2201,-7.4776,-2.8194,-0.0562,-0.68631,-0.5342,2.28,54.06,-31.62
2.0839,-7.2324,-2.5742,-0.22663,-0.5568,-0.61758,-0.42,52.8,-31.56
1.8524,-7.2324,-2.1112,-0.33109,-0.3711,-0.68845,-5.88,49.62,-30.48
1.8932,-7.3958,-1.757,-0.41936,-0.17562,-0.76297,-8.46,48.06,-29.34
2.2474,-7.8317,-1.5391,-0.5006,-0.01069,-0.8152,-13.26,44.28,-25.86
2.547,-8.1586,-1.6072,-0.54092,0.099266,-0.86163,-16.86,40.26,-21.18
2.8875,-8.2539,-1.4438,-0.53787,0.13256,-0.9502,-18.78,36.18,-15.18
2.9284,-8.4174,-1.2531,-0.47342,0.12675,-1.04,-19.08,34.38,-11.88
3.2144,-11.25,-0.68102,-0.31337,0.094684,-1.047,-18.54,31.32,-4.5
4.0725,-15.296,-0.77636,-0.23518,-0.018631,-0.97158,-16.32,29.04,2.94
4.5356,-17.257,-1.0079,-0.27306,-0.19273,-0.93035,-12.9,27.48,10.26
4.3721,-16.671,-0.92618,-0.30727,-0.32681,-0.95051,-10.92,27.18,13.68
3.8001,-15.119,-0.47671,-0.26786,-0.4496,-0.92454,-6.72,26.88,19.5
2.1248,-14.029,0.43585,-0.24801,-0.63041,-0.89125,-2.46,27.3,24.06
1.3076,-14.86,1.0624,-0.24893,-0.52595,-0.75228,1.86,27.9,27.72
1.757,-15.745,0.74912,-0.16524,-0.32437,-0.45418,3.6,28.32,28.98
2.5742,-14.124,-0.35413,-0.081856,-0.20128,-0.061392,6.66,29.34,30.72
2.4789,-9.1937,-0.54481,0.12248,-0.23152,0.27397,9.0,29.7,31.38
2.1248,-7.7636,-0.32689,0.34544,-0.33659,0.45815,9.96,29.94,31.38
1.0896,-5.1894,-0.054481,0.51557,-0.56322,0.31704,11.64,30.12,30.78
0.64016,-4.1406,0.20431,0.54917,-0.59284,0.12859,12.96,30.42,29.52
-0.095342,-4.0452,0.31327,0.51557,-0.48075,0.01069,13.68,30.42,28.98
0.20431,-4.5901,0.17706,0.40745,-0.29474,0.030849,15.06,30.54,27.66
0.6674,-6.3471,0.01362,0.24435,-0.076053,0.17807,-10.38,30.72,50.4
1.185,-6.9736,-0.095342,0.01069,0.17257,0.42974,-9.78,30.78,49.86
1.4846,-7.6819,-0.095342,-0.3427,0.60903,0.79993,-8.4,30.9,49.14
1.4982,-7.1507,-0.19068,-0.50916,0.95234,0.93432,-6.84,31.2,48.48
1.7298,-6.7421,-0.25879,-0.56047,1.3384,0.98441,-5.4,31.62,48.6
1.9341,-6.8374,-0.19068,-0.53329,1.6658,0.94134,-4.68,31.8,48.78
2.4925,-7.7091,-0.49033,-0.41661,1.8247,0.87384,-3.3,32.04,49.74
3.5413,-8.5263,-1.4438,-0.11454,1.5757,0.78466,-3.42,32.7,50.7
4.127,-8.826,-2.1656,0.093157,0.98166,0.76267,-3.24,33.0,51.48
4.1951,-9.6977,-2.3155,0.26756,0.34392,0.79779,-3.36,33.96,53.28
3.8409,-11.795,-1.5936,0.32193,-0.083994,0.89583,-4.08,35.22,54.96
3.732,-14.724,-1.7434,0.31704,-0.23763,1.0458,-5.16,36.72,56.22
3.8273,-15.309,-2.2474,0.26298,-0.2529,1.1668,-5.76,37.5,56.88
3.7728,-16.195,-2.7649,0.24862,-0.17043,1.1982,-7.2,38.82,58.02
4.1814,-19.082,-2.7786,0.47037,0.067195,1.2336,-8.58,40.26,58.68
4.9033,-19.0,-3.4596,0.416,0.11393,1.1084,-9.18,41.04,58.92
4.8761,-13.838,-4.4402,0.44654,-0.15302,0.75472,-9.9,42.0,59.16
4.5492,-10.379,-4.5628,0.51924,-0.7645,0.34728,-9.84,42.3,59.04
3.2689,-7.5865,-3.6094,0.45173,-1.2773,-0.17165,-9.6,42.66,58.26
1.8251,-5.7886,-2.5742,0.30482,-1.4523,-0.613,-8.4,42.42,57.6
1.3484,-4.985,-2.4108,0.1857,-1.3647,-0.8659,-6.66,42.06,56.58
1.2258,-4.7944,-2.656,-0.065057,-0.96456,-0.89125,-5.88,41.64,56.16
1.1986,-4.1542,-2.6423,-0.26512,-0.66096,-0.81978,-3.78,40.8,55.2
1.471,-3.4323,-2.3563,-0.36896,-0.3934,-0.74556,-1.62,39.48,54.12
2.1929,-3.3234,-2.0022,-0.36285,-0.28619,-0.65729,0.78,38.22,53.1
2.547,-3.9908,-2.1112,-0.27153,-0.39706,-0.63163,1.98,37.56,52.56
2.9011,-4.8625,-2.152,-0.17257,-0.66004,-0.65882,4.2,36.3,51.9
2.8194,-4.9578,-1.8524,-0.11454,-1.1383,-0.83689,5.4,35.58,51.48
2.4925,-5.4209,-0.85808,-0.044899,-1.3613,-0.9334,7.8,34.68,51.18
2.261,-6.9328,-0.54481,-0.039401,-1.4658,-0.98319,9.9,33.96,50.76
2.1929,-7.7364,-0.5993,-0.081856,-1.3589,-1.0073,11.04,33.72,50.7
2.0294,-9.1665,-0.85808,-0.21319,-1.1179,-1.0263,13.44,33.36,50.64
2.1656,-11.346,-0.46309,-0.36316,-0.73884,-1.0354,15.66,33.42,51.06
2.4517,-12.395,0.72188,-0.62797,-0.1741,-0.9331,16.86,33.66,51.36
3.3506,-14.996,1.3212,-0.759,0.079107,-0.77519,18.72,34.26,52.32
4.1951,-18.592,0.92618,-0.7025,0.21961,-0.48869,20.34,35.16,53.22
4.5356,-19.3,0.55843,-0.52321,0.30207,-0.22938,21.72,36.24,54.36
5.6252,-19.532,0.44947,-0.26267,0.26909,0.055589,22.2,36.72,54.54
5.7205,-18.483,0.36775,0.029322,-0.072998,0.24068,23.22,37.5,55.32
4.6854,-15.35,0.40861,0.30085,-0.57452,0.16249,23.88,38.16,55.92
2.8875,-12.258,0.34051,0.32834,-0.77122,-0.12065,24.3,38.46,55.62
2.2746,-9.8748,0.40861,0.31093,-0.90255,-0.40561,24.54,38.58,55.14
0.36775,-6.7693,-0.17706,0.36102,-0.63041,-0.52809,24.42,38.4,53.64
0.19068,-5.5435,-0.92618,0.34086,-0.30268,-0.56627,24.18,38.1,51.54
-0.095342,-5.0259,-1.185,0.21472,0.033903,-0.46517,23.88,37.74,50.34
0.16344,-4.304,-0.78998,-0.052534,0.43952,-0.15608,23.16,37.32,47.94
0.44947,-4.3313,-0.29965,-0.17929,0.4163,-0.077274,22.86,37.14,46.68
1.7434,-4.7399,0.43585,-0.68325,-0.64599,0.24526,22.74,37.08,45.54
-0.12258,-4.6173,-0.43585,-0.68447,-0.42883,0.42058,22.5,36.84,44.22
0.31327,-5.2438,-0.61292,-0.63927,0.41661,0.96333,22.14,36.66,43.26
0.31327,-5.2438,-0.61292,-0.50488,0.36285,0.99052,22.26,36.54,42.18
2.2201,-7.6546,0.27241,-0.27947,0.46334,1.0779,22.44,36.48,41.4
2.2201,-7.6546,0.27241,-0.14905,0.61087,1.0815,22.44,36.48,41.4
2.2337,-7.5048,0.14982,0.11881,0.78191,0.98227,22.74,36.6,40.86
2.2474,-7.6002,-0.31327,0.36652,0.84849,0.88759,22.92,36.96,40.62
2.4653,-8.5672,-1.1577,0.5791,0.70097,0.83933,23.16,37.38,40.62
3.3642,-11.073,-2.4517,0.82009,0.48228,0.91691,23.16,38.04,40.92
4.1678,-13.729,-3.0918,0.90011,0.30055,1.1212,23.28,39.48,41.64
4.8625,-16.181,-3.8546,0.84269,0.085521,1.3696,23.7,41.04,42.72
4.6037,-16.317,-3.8409,0.57177,0.036957,1.4532,24.42,42.48,43.74
3.5822,-14.901,-3.3778,0.21747,0.24893,1.2984,24.84,43.56,44.76
2.9692,-15.8,-2.9284,0.078191,0.63866,1.0293,25.26,44.7,45.78
4.0316,-16.249,-3.7184,0.033903,0.88301,0.76511,24.84,45.84,46.26
4.7126,-13.184,-4.6309,0.093157,0.35888,0.17959,24.18,46.14,46.44
3.8273,-9.5751,-4.2223,0.17165,-0.36744,-0.10599,23.64,45.9,45.9
2.6968,-7.5048,-3.2689,0.11057,-0.89095,-0.38607,23.58,45.24,44.88
2.0294,-6.7966,-2.9011,-0.007025,-1.062,-0.61209,23.64,44.94,44.22
0.74912,-5.1485,-2.4789,-0.12553,-0.87568,-0.74067,23.88,44.34,42.42
0.21793,-4.2495,-2.6968,-0.30665,-0.16616,-0.83627,23.82,44.1,41.34
0.35413,-3.4187,-2.7649,-0.34178,0.054062,-0.84941,23.7,43.98,40.32
1.6617,-2.9556,-2.4517,-0.34941,0.16707,-0.80756,23.16,43.74,37.98
2.0703,-3.2144,-2.3427,-0.34117,-0.022297,-0.77763,22.68,43.8,36.96
2.2201,-3.4459,-2.2474,-0.29993,-0.26695,-0.73976,22.2,43.92,35.76
2.5061,-5.6252,-2.4108,-0.22449,-0.50213,-0.66279,20.82,44.52,33.12
2.4925,-6.4288,-2.3427,-0.16371,-0.67928,-0.51496,19.92,45.0,31.8
2.6968,-7.9679,-2.2474,-0.1741,-0.68417,-0.48167,18.9,45.36,30.42
2.7649,-7.9679,-2.0839,-0.26206,-0.61789,-0.50549,16.38,46.56,27.6
2.6696,-7.75,-1.9341,-0.34025,-0.50855,-0.62156,14.88,47.1,26.52
2.5061,-7.6138,-1.7706,-0.40592,-0.34392,-0.7813,13.02,47.52,25.2
2.3699,-7.7908,-1.2258,-0.47983,-0.16829,-0.978,8.64,48.54,23.1
2.1929,-8.6762,-0.61292,-0.55039,0.18784,-1.2086,6.24,49.02,22.14
2.1793,-10.215,-0.24517,-0.58613,0.5339,-1.2028,3.84,49.32,21.18
2.1793,-10.215,-0.24517,-0.62033,0.81337,-1.0626,3.84,49.32,21.18
3.8273,-16.385,-0.068102,-0.66615,0.7926,-0.832,-1.62,49.86,19.14
4.413,-17.992,0.53119,-0.70188,0.64599,-0.5003,-7.02,49.98,17.46
4.6445,-18.428,0.70826,-0.69578,0.6408,-0.088881,-9.72,49.86,16.56
4.5356,-19.0,1.185,-0.56383,0.66981,0.33689,-14.7,49.92,15.6
4.413,-17.87,0.96704,-0.36072,0.47892,0.46578,-19.08,49.92,14.82
4.0861,-13.974,-0.10896,-0.030543,0.12614,0.42302,-22.86,50.04,14.76
3.2553,-9.2618,-1.1441,0.37599,-0.25962,0.24984,-25.44,50.34,15.36
2.3427,-6.7148,-1.1577,0.66951,-0.64935,0.01741,-27.06,50.58,16.38
1.4029,-5.9249,-0.68102,0.85002,-0.91111,-0.15119,-27.66,51.0,17.76
0.89894,-5.2575,-0.44947,0.7929,-0.89675,-0.22694,-27.54,51.66,19.32
0.24517,-4.9442,-0.38137,0.52321,-0.38851,-0.16096,-27.36,51.84,20.16
0.35413,-4.1406,-0.20431,0.33353,-0.083689,0.061087,-26.76,52.26,21.48
1.2122,-3.9499,-0.14982,0.16524,-0.095906,0.35339,-26.04,52.56,22.74
1.4846,-4.5628,-0.34051,0.017104,-0.18021,0.67806,-25.02,52.56,23.52
1.9886,-5.3256,-0.44947,-0.049786,-0.14752,0.94073,-24.0,52.38,23.64
2.438,-6.0883,-0.49033,0.038179,-0.1127,1.1674,-22.8,51.9,22.98
2.3563,-6.7148,-0.5993,0.14844,-0.098655,1.3357,-21.36,51.18,21.78
2.2474,-7.4912,-0.36775,0.32437,0.21747,1.3998,-19.32,50.22,20.1
2.3155,-8.826,-0.027241,0.3882,0.52901,1.3738,-16.92,49.32,18.3
2.3972,-9.8203,-0.38137,0.43524,0.77977,1.2972,-14.1,48.36,17.04
2.8739,-10.256,-1.6344,0.53817,0.91294,1.1802,-10.86,47.4,15.72
3.5413,-11.332,-2.2474,0.72418,0.8265,1.1533,-7.56,46.32,14.58
3.732,-13.443,-1.8387,0.85765,0.42638,1.2575,-4.14,45.72,13.86
3.8137,-14.778,-1.5119,0.83719,0.32254,1.3021,-2.52,45.42,13.68
3.7592,-16.576,-1.8524,0.62339,0.13347,1.3182,0.78,45.06,13.44
3.4459,-16.467,-2.1112,0.47831,0.12217,1.1219,2.22,44.88,13.56
3.051,-18.537,-2.0703,0.53634,0.27092,0.90713,4.5,44.7,13.98
3.9635,-19.477,-2.547,0.56597,0.2923,0.71654,5.46,44.7,14.1
4.127,-15.078,-4.1678,0.43494,-0.095906,0.21869,6.9,44.7,14.4
3.1054,-9.7385,-4.1678,0.42119,-1.1203,-0.42761,8.1,44.64,14.28
2.3291,-8.0632,-3.5549,0.26053,-1.4868,-0.88667,8.46,44.64,14.34
0.70826,-5.8976,-2.4108,0.10751,-1.4459,-1.1298,8.58,45.0,14.1
-0.054481,-4.9033,-2.2882,-0.038485,-1.124,-1.1558,8.28,45.12,13.68
-0.29965,-4.4811,-2.7377,-0.17715,-0.6411,-0.9841,7.68,45.48,12.9
0.43585,-4.0316,-2.9284,-0.30177,-0.23946,-0.68906,6.42,45.78,12.48
1.3212,-4.1406,-2.5879,-0.36011,-0.065668,-0.15791,5.28,46.38,11.76
1.8796,-4.6309,-2.3427,-0.34514,-0.10965,0.091324,4.68,46.74,11.58
2.3427,-5.3664,-2.2882,-0.20097,-0.31582,0.19609,3.3,47.34,11.04
2.4789,-5.6116,-2.3155,-0.080023,-0.66401,0.11729,2.64,47.76,10.86
2.5061,-5.3937,-2.2746,0.051007,-1.1304,-0.10568,1.02,48.48,10.68
1.9341,-5.6661,-1.7298,0.14752,-1.5937,-0.40195,-0.18,49.38,10.5
1.2667,-5.9249,-1.3212,0.12156,-1.8622,-0.68173,-1.26,49.8,10.62
1.0215,-6.0747,-1.1441,-0.12339,-1.6988,-0.94928,-1.86,50.1,10.86
0.8036,-7.2869,-1.0215,-0.35491,-1.3442,-0.91508,-3.24,50.64,11.16
1.0215,-8.322,-1.0215,-0.63713,-0.89247,-0.77,-4.56,51.18,11.58
1.4029,-8.7034,-0.8717,-0.93432,-0.37874,-0.65118,-5.28,51.42,11.88
2.0975,-8.6081,-0.72188,-1.1319,0.06689,-0.59712,-6.9,51.9,12.3
2.3972,-9.0848,-0.12258,-1.2407,0.43158,-0.64935,-9.0,52.2,12.84
2.6151,-11.795,0.36775,-1.1952,0.87873,-0.78466,-11.4,52.62,13.44
2.9148,-14.342,0.24517,-1.1762,1.1316,-0.84727,-12.78,52.8,13.8
3.8546,-16.453,-0.16344,-1.088,1.3131,-0.8546,-16.02,53.04,14.64
4.9306,-17.72,-0.9398,-0.89156,1.2856,-0.69852,-19.2,53.22,15.6
4.9714,-18.387,-1.0351,-0.66065,1.2,-0.50549,-22.38,53.22,16.2
4.8625,-18.851,-0.81722,-0.51771,1.1292,-0.33414,-24.0,53.28,16.62
4.3994,-17.924,-0.51757,-0.47953,1.0275,-0.21716,-27.18,53.4,17.34
4.3313,-15.854,-0.64016,-0.55375,0.82711,-0.24709,-28.68,53.52,17.82
3.7728,-11.169,-0.54481,-0.60201,0.56597,-0.38637,-31.68,54.06,18.96
3.514,-9.4525,-0.38137,-0.60048,0.2025,-0.57269,-34.5,54.6,20.46
2.7241,-6.6195,-0.081722,-0.51038,-0.12828,-0.76083,-35.7,54.9,21.42
2.0975,-5.9793,0.054481,-0.36988,-0.38637,-0.84269,-37.86,55.56,23.28
1.6344,-5.2847,0.054481,-0.29749,-0.56291,-0.83566,-39.48,56.28,25.56
1.1577,-4.6718,-0.040861,-0.281,-0.52015,-0.65363,-40.62,56.82,27.78
1.0488,-4.3994,0.095342,-0.30635,-0.30543,-0.42486,-40.98,57.06,29.1
1.0624,-4.4811,0.24517,-0.39431,-0.04948,-0.13439,-41.64,57.6,31.56
0.89894,-5.3256,0.44947,-0.54092,0.24374,0.18784,-41.88,57.72,33.9
0.96704,-5.7614,0.42223,-0.72724,0.66004,0.52534,-41.88,57.78,34.86
1.4301,-6.1428,0.29965,-0.89767,1.1842,0.84086,-41.58,57.36,36.3
2.3291,-5.7069,0.12258,-0.99754,1.748,1.124,-41.16,56.94,37.02
2.7649,-5.5299,-0.040861,-0.91813,1.9343,1.1823,-40.68,56.58,37.14
3.0782,-5.6116,-0.47671,-0.72662,1.9868,1.2025,-39.6,56.1,36.48
3.7047,-6.6059,-1.7025,-0.3879,1.9667,1.2272,-38.16,55.38,35.04
4.2768,-7.2188,-2.2474,0.048869,1.7596,1.2746,-37.38,54.96,34.2
5.2302,-9.7658,-3.1872,0.47861,1.3491,1.3662,-35.22,54.12,32.1
5.4481,-12.694,-2.9011,0.91813,0.76328,1.576,-32.58,52.98,29.88
5.4754,-14.451,-2.3972,0.98197,0.41875,1.7089,-31.14,52.56,28.56
5.0259,-16.889,-1.9341,0.94134,0.17379,1.7926,-27.84,51.42,26.16
5.8023,-19.45,-2.833,0.98105,0.16707,1.9972,-24.24,50.22,24.18
6.5514,-18.96,-4.699,0.93065,0.22541,2.0333,-20.64,49.2,22.2
6.3198,-16.903,-5.2847,1.1668,-0.043677,1.8448,-18.78,48.72,21.3
4.9033,-12.04,-5.1485,1.518,-0.60445,1.219,-15.3,48.18,20.16
3.732,-9.8066,-4.1678,1.6344,-1.5143,0.60079,-12.48,47.64,19.38
3.0237,-8.6217,-3.6503,1.4759,-1.9105,0.10904,-11.16,47.46,18.9
2.3018,-7.3822,-3.337,1.171,-2.0201,-0.14936,-9.18,47.22,17.76
1.3893,-5.993,-3.4323,0.84696,-1.7825,-0.17898,-8.04,47.16,16.68
0.83084,-5.5162,-3.4596,0.53573,-1.3366,-0.073609,-7.62,47.28,16.08
0.49033,-4.8352,-3.514,0.099876,-0.5397,0.080634,-7.2,47.64,14.76
0.57205,-4.5764,-3.3234,-0.1408,0.030849,0.082161,-7.2,47.94,14.04
1.0624,-4.1542,-2.8058,-0.29871,0.57208,0.0079412,-7.38,48.3,12.54
1.6889,-4.0861,-2.3836,-0.36866,0.92454,-0.13439,-7.8,48.54,11.58
2.0158,-4.1951,-2.2882,-0.36011,1.0119,-0.3204,-7.92,48.66,10.86
2.7649,-4.7399,-2.4653,-0.30513,0.8207,-0.4948,-8.28,48.96,9.9
3.3097,-5.2983,-2.1929,-0.20159,0.31307,-0.67195,-8.82,49.08,9.0
3.3097,-5.5707,-1.9205,-0.20128,-0.58826,-0.72632,-9.06,49.14,8.88
2.5061,-6.6331,-1.471,-0.22113,-0.96425,-0.72174,-9.66,49.2,8.04
2.2882,-7.5457,-1.2531,-0.32254,-1.0088,-0.6857,-10.38,48.96,7.38
1.9205,-7.9679,-1.185,-0.47709,-0.76908,-0.70585,-10.74,48.6,7.08
1.7843,-9.8066,-0.49033,-0.66004,-0.34911,-0.7926,-11.4,48.3,6.66
2.2065,-12.367,0.24517,-0.91874,0.38393,-0.89217,-12.06,47.94,6.0
2.2065,-12.367,0.24517,-1.0327,0.62369,-0.8998,-12.06,47.94,6.0
3.732,-17.666,0.47671,-1.3103,1.139,-0.85888,-13.44,47.22,4.68
4.7535,-18.864,-0.027241,-1.2572,1.1157,-0.72693,-14.22,46.98,4.14
5.5299,-19.123,-0.47671,-1.0513,0.8265,-0.55864,-15.84,46.44,3.24
5.3528,-19.477,0.58567,-0.79932,0.53237,-0.36744,-17.88,46.26,2.28
5.0531,-18.646,0.92618,-0.6918,0.32559,-0.30391,-19.08,46.08,1.86
4.2223,-15.282,0.69464,-0.60506,0.087354,-0.41417,-21.78,46.14,1.08
3.2961,-11.605,0.12258,-0.46242,-0.098349,-0.56749,-24.9,46.56,0.6
2.5334,-8.1177,0.20431,-0.33842,-0.30849,-0.75167,-28.56,47.04,0.66
1.471,-6.1155,0.38137,-0.25504,-0.37538,-0.90744,-32.34,47.64,1.44
1.0896,-5.3528,0.36775,-0.17013,-0.24251,-0.97066,-34.2,48.18,2.04
0.98067,-4.699,0.19068,-0.085521,0.088575,-0.85735,-37.8,49.14,3.72
1.3484,-4.4947,-0.027241,-0.043677,0.23305,-0.69089,-41.16,50.22,5.58
1.3757,-4.3449,-0.17706,-0.067501,0.3372,-0.47067,-42.48,50.64,6.78
1.7979,-4.0452,-0.19068,-0.11606,0.36377,-0.23854,-44.76,51.18,9.0
1.6344,-4.2904,-0.10896,-0.17868,0.29169,-0.051924,-46.32,51.66,11.22
1.4029,-4.7126,-0.040861,-0.28924,0.27245,0.10293,-46.92,51.78,12.3
1.0624,-6.2517,0.27241,-0.43982,0.47709,0.25229,-47.52,51.42,14.04
1.185,-6.8783,0.40861,-0.59865,0.86804,0.42699,-47.46,51.3,14.7
1.6753,-6.96,0.35413,-0.78649,1.4322,0.60659,-47.34,51.12,15.12
2.5061,-6.9736,0.095342,-0.72662,1.5794,0.66371,-46.56,50.1,15.24
2.5061,-6.9736,0.095342,-0.53756,1.5418,0.70952,-46.56,50.1,15.24
3.909,-8.7715,-1.7025,-0.22358,1.3011,0.72571,-44.82,48.9,14.94
4.3858,-11.468,-1.58,0.18112,0.85796,0.90042,-43.62,48.12,14.7
4.9987,-14.764,-1.471,0.5003,0.41722,1.2712,-42.24,47.46,14.34
6.7557,-18.047,-2.4108,0.85216,-0.20739,1.8647,-39.18,46.08,13.5
6.3743,-18.701,-2.4244,1.0773,-0.67562,2.1258,-37.62,45.3,13.2
6.2926,-19.45,-2.438,1.4035,-0.97525,2.3469,-35.82,44.64,12.78
5.2847,-17.407,-4.018,1.4899,-1.281,1.8619,-32.58,43.38,12.0
4.1814,-13.375,-4.5083,1.5024,-1.4468,1.2376,-30.78,42.84,11.52
3.1599,-10.351,-4.3449,1.4407,-1.493,0.6127,-29.1,42.24,11.1
1.471,-8.0769,-2.6423,1.2587,-1.3454,0.17165,-25.92,41.16,10.14
0.99429,-7.4912,-2.2201,0.96089,-1.051,-0.10415,-24.48,40.86,9.78
0.68102,-7.0553,-2.2882,0.63102,-0.60262,-0.14936,-23.22,40.56,9.6
0.85808,-6.5105,-2.7786,0.281,-0.17685,-0.03879,-21.54,40.2,8.88
0.89894,-6.3062,-2.7649,-0.21625,0.33323,0.10934,-20.94,40.02,8.52
1.0215,-5.8704,-2.7649,-0.49358,0.73212,0.17104,-20.58,39.9,8.34
1.4165,-4.9306,-1.975,-0.69058,1.1518,0.15913,-20.16,40.02,8.04
1.58,-4.1406,-1.866,-0.73304,1.4038,0.042455,-20.04,40.2,7.92
1.7025,-3.9363,-1.7706,-0.65424,1.4261,-0.14386,-20.16,40.26,7.74
2.0567,-4.1678,-1.7706,-0.51679,1.2978,-0.31979,-20.52,40.14,7.86
2.2746,-4.6718,-1.5936,-0.28588,0.88881,-0.52993,-20.76,40.14,7.92
2.5061,-5.1213,-1.3757,-0.1744,0.44929,-0.55955,-21.06,40.08,8.22
2.8194,-6.2926,-1.3212,-0.15272,0.20097,-0.54581,-21.48,39.84,8.46
2.3563,-6.7693,-1.1577,-0.29108,-0.26237,-0.51801,-22.14,39.18,9.72
1.7025,-6.8374,-0.61292,-0.40745,-0.21105,-0.52809,-22.32,38.76,10.44
1.471,-7.4095,0.01362,-0.51465,0.027184,-0.5623,-22.5,38.28,11.46
1.58,-10.106,0.50395,-0.57513,0.46762,-0.63347,-22.86,37.14,13.86
1.8932,-12.694,0.69464,-0.58735,0.78313,-0.56841,-22.98,36.6,15.48
2.2746,-14.288,0.9398,-0.65363,0.97861,-0.51099,-23.16,35.94,16.98
3.4732,-15.527,1.0896,-0.8488,1.5269,-0.41417,-23.7,34.8,20.88
4.0452,-15.541,1.0896,-0.72326,1.6884,-0.24251,-24.0,34.26,23.1
4.5356,-16.086,1.1577,-0.50702,1.6087,-0.10599,-24.48,33.66,25.32
4.6718,-17.924,1.0079,-0.18448,1.1075,-0.011912,-25.62,32.82,29.76
4.6173,-16.753,0.28603,-0.091019,0.87934,0.018937,-26.34,32.58,32.16
4.2904,-14.737,-0.25879,0.094073,0.47678,0.095906,-26.88,32.52,34.62
3.7047,-12.898,-0.38137,0.21808,0.33445,0.20617,-27.42,32.4,36.84
2.438,-9.616,-0.38137,0.16982,0.48961,0.22419,-28.5,32.34,41.34
1.9613,-8.2948,-0.58567,0.11759,0.74831,0.19731,-28.86,32.16,43.56
1.7025,-6.456,-1.076,0.096211,1.0623,0.17013,-29.52,32.1,47.4
2.0022,-5.8431,-1.185,0.03207,1.3799,0.2025,-29.88,32.04,48.96
2.261,-5.094,-1.0896,-0.041844,1.4206,0.2474,-30.24,32.1,50.64
2.4517,-4.7944,-0.95342,-0.1066,1.2892,0.32193,-30.48,32.1,52.02
2.5198,-4.5356,-0.83084,-0.18631,1.0641,0.40042,-30.84,31.92,53.4
2.2201,-4.4402,-0.57205,-0.25198,0.93187,0.44532,-31.08,31.92,55.86
2.0567,-4.8352,-0.40861,-0.3375,0.98471,0.5791,-31.26,32.04,57.24
2.1656,-5.9385,-0.081722,-0.37263,1.0455,0.63774,-31.44,31.92,59.82
2.3291,-6.5378,0.12258,-0.47831,1.3134,0.78954,-31.68,31.92,61.2
2.547,-6.7012,0.5993,-0.52382,1.4151,0.82284,-32.16,32.22,62.82
2.7786,-6.456,0.61292,-0.6017,1.5421,0.81581,-32.82,32.76,64.56
2.8603,-5.884,0.5993,-0.55375,1.5449,0.69822,-34.86,34.62,67.56
2.6696,-6.3879,0.21793,-0.35949,1.4658,0.38882,-35.94,36.0,68.94
2.1656,-9.1529,0.54481,-0.30879,1.4591,0.27642,-38.7,39.36,71.82
2.0431,-12.967,1.2122,-0.20525,1.6252,0.19364,-39.78,41.28,72.84
2.4789,-16.549,1.0896,-0.24221,1.6948,0.19884,-40.8,43.44,73.68
3.228,-19.409,0.34051,-0.42089,1.9639,0.14722,-42.18,47.88,74.58
3.1599,-18.565,-0.21793,-0.44929,2.1936,0.27428,-42.78,50.22,74.82
2.942,-19.15,-0.44947,-0.28558,2.3775,0.41386,-43.26,54.66,74.82
3.4596,-19.477,-1.2258,0.20036,2.23,0.4105,-43.08,56.58,74.64
4.0316,-18.973,-2.0022,0.44838,1.8137,0.29841,-42.72,58.5,74.28
3.4187,-13.947,-3.1735,0.68417,1.2905,0.090713,-41.16,61.8,72.9
2.4653,-10.379,-3.2553,0.78313,0.78527,-0.20067,-39.9,63.0,72.3
1.6072,-8.826,-3.0646,0.74739,0.4499,-0.49724,-38.52,63.96,71.46
0.44947,-7.5321,-2.9284,0.54611,0.50855,-0.74403,-35.04,65.16,70.44
0.25879,-7.3822,-2.9284,0.35613,0.72143,-0.72937,-33.24,65.34,70.08
0.39499,-7.1915,-2.9556,0.22571,0.8433,-0.68478,-31.38,65.34,69.84
0.46309,-6.7285,-2.6832,-0.056505,1.0672,-0.55833,-29.64,65.16,69.54
0.64016,-6.3879,-1.9205,-0.39615,1.3134,-0.29474,-26.4,64.74,69.78
0.88532,-6.6195,-1.7025,-0.53237,1.4978,-0.1741,-25.02,64.2,70.2
1.0488,-6.7693,-1.7025,-0.62186,1.6597,-0.081856,-23.64,63.78,70.56
1.5119,-6.6467,-1.5255,-0.57727,1.7468,0.029627,-21.36,63.12,71.52
1.7979,-6.8647,-1.5936,-0.42638,1.7223,0.1124,-20.46,62.94,72.12
1.9886,-7.246,-1.3212,-0.32742,1.6845,0.16982,-19.5,62.82,73.02
2.3972,-8.2539,-1.1577,-0.080329,1.4517,0.31185,-18.9,62.88,73.74
2.7513,-9.2755,-1.185,0.06689,1.2489,0.41569,-17.82,63.48,75.42
2.8875,-10.297,-1.185,0.17013,1.0104,0.52931,-17.28,64.02,76.32
2.6423,-11.278,-1.2258,0.1912,0.85827,0.61423,-16.92,64.68,77.28
2.4517,-11.305,-1.0215,0.090713,1.003,0.59804,-16.2,65.76,78.06
2.0022,-11.482,-0.40861,0.044899,1.1399,0.56902,-15.48,66.84,78.84
1.8524,-12.721,-0.21793,-0.026573,1.5739,0.5287,-13.5,69.54,80.64
2.4108,-12.817,-0.5993,-0.059559,1.7636,0.48136,-12.3,71.1,81.48
2.942,-12.858,-0.61292,0.0082467,1.6729,0.46426,-10.8,72.78,82.14
3.7047,-12.286,-0.55843,0.049175,0.97708,0.38912,-7.32,76.2,82.92
3.3506,-11.7,-0.17706,-0.040012,0.38485,0.20342,-4.92,77.64,83.04
2.8058,-11.359,0.21793,-0.13408,0.16524,0.065057,-2.46,79.02,82.68
0.92618,-9.902,1.185,-0.47983,-0.091019,-0.43891,2.7,80.82,81.18
0.25879,-9.7522,1.4574,-0.7025,0.032376,-0.72235,5.28,81.36,80.16
-0.20431,-9.6568,1.4165,-0.93187,0.42913,-0.9499,7.74,81.72,79.08
-0.40861,-9.0575,1.0624,-1.1289,1.1576,-1.0788,12.0,81.24,76.5
0.14982,-9.0575,1.1577,-1.1744,1.4954,-1.0113,13.62,80.7,75.36
0.62654,-9.1665,1.362,-1.1823,1.6066,-0.95112,14.94,79.86,74.16
1.0215,-9.1393,1.4438,-1.1616,1.7025,-0.74709,15.9,78.66,73.02
1.2395,-8.7851,1.0896,-1.1044,1.6466,-0.64996,17.4,75.78,70.62
1.185,-8.9486,0.69464,-1.04,1.5455,-0.59284,17.82,74.16,69.6
1.3212,-9.5342,0.6674,-1.0333,1.5382,-0.59743,17.58,70.62,67.98
1.4165,-9.6296,0.44947,-1.0605,1.6539,-0.5904,16.92,68.82,67.32
1.4438,-9.6704,0.25879,-1.117,1.8335,-0.60231,16.02,67.14,67.08
1.8115,-9.6023,-0.14982,-1.1558,1.8573,-0.60231,14.88,65.52,67.02
2.3155,-9.5342,-0.1362,-1.1921,1.8595,-0.55741,12.3,62.46,67.44
2.438,-9.3163,-0.21793,-1.2071,1.8955,-0.45998,10.92,60.96,67.68
2.9284,-8.7443,-0.5993,-1.157,1.8656,-0.2868,9.66,59.76,68.16
3.1872,-8.4174,-0.76274,-0.94501,1.6448,-0.016493,7.56,57.36,68.7
3.4187,-8.2403,-0.83084,-0.75595,1.4923,0.14722,6.48,56.28,69.0
3.4323,-7.9679,-0.83084,-0.58093,1.3506,0.27519,5.64,55.26,69.12
3.4596,-7.8998,-0.99429,-0.40195,1.2074,0.35461,3.66,53.52,69.24
3.4051,-8.0224,-1.0079,-0.29047,1.0611,0.39737,2.52,52.62,69.0
3.2553,-7.927,-1.3212,-0.21808,0.97402,0.39431,1.62,51.72,68.76
3.0373,-8.0088,-1.2939,-0.1408,0.89797,0.41203,-0.48,50.4,68.04
2.9965,-8.5127,-1.3484,-0.12706,0.87323,0.44807,-1.38,49.62,67.5
2.9284,-8.8805,-1.4029,-0.13011,0.88148,0.48289,-2.16,49.02,66.9
2.8058,-9.6296,-1.3076,-0.22907,0.97097,0.61972,-3.54,48.0,65.58
2.6423,-9.7522,-0.96704,-0.31337,1.1634,0.69822,-4.32,47.64,64.86
2.656,-10.229,-0.54481,-0.38149,1.3848,0.77061,-4.92,47.22,63.96
2.8875,-10.42,-0.44947,-0.41356,1.5803,0.81856,-6.66,46.38,62.1
2.9556,-10.297,-0.38137,-0.38332,1.6817,0.87537,-7.38,45.84,61.26
2.9829,-10.134,-0.35413,-0.35613,1.6661,0.89706,-8.34,45.3,60.42
2.9829,-9.6977,-0.5993,-0.21777,1.5516,0.96731,-9.18,44.82,59.58
2.5742,-10.038,-0.70826,-0.14905,1.4682,0.99785,-10.92,44.16,57.84
2.4789,-11.087,-0.72188,-0.13134,1.504,1.0653,-11.76,43.92,57.12
