Ax,Ay,Az,Gx,Gy,Gz,Mx,My,Mz
5.7614,-7.4776,1.6072,-0.2474,0.53267,0.10201,-13.62,31.62,-17.22
5.8295,-8.0224,1.2531,-0.30085,0.37965,0.21533,-13.26,31.38,-17.58
5.5707,-9.0031,0.70826,-0.39859,0.45204,0.30635,-13.02,31.5,-17.88
5.0804,-9.9292,0.5993,-0.73151,1.2792,0.23396,-12.66,31.44,-18.06
4.7944,-10.12,0.5993,-1.1142,2.0042,0.07758,-12.54,31.56,-18.0
4.7126,-10.229,1.1441,-1.4361,2.4535,-0.044288,-11.94,31.44,-17.88
5.0123,-10.202,1.8251,-1.6283,2.5088,-0.089186,-11.22,31.5,-17.7
4.8625,-10.093,2.4925,-1.8054,2.3821,-0.078191,-10.68,31.68,-17.46
4.0861,-9.2891,2.7377,-1.9358,2.3381,-0.0082467,-10.08,31.92,-16.92
3.7728,-8.717,2.2474,-1.9377,2.6735,-0.03146,-8.94,32.16,-16.2
4.2223,-8.2948,2.0839,-1.8549,2.6637,-0.058338,-8.58,32.22,-15.78
3.6911,-7.5457,1.5255,-1.7785,3.1423,-0.013134,-7.68,32.4,-14.82
5.38,-6.7966,1.3348,-1.8653,3.2232,-0.021686,-6.72,32.88,-13.5
6.3607,-6.4424,1.5391,-1.7752,2.4932,-0.18387,-5.58,33.48,-12.66
7.2324,-6.2245,1.3757,-1.6234,1.5715,-0.08491,-4.98,33.66,-12.06
7.0962,-7.1234,0.40861,-1.4997,-0.1124,0.47464,-4.2,34.26,-10.86
5.8976,-8.3629,-0.68102,-1.569,-1.3424,0.80543,-3.42,34.62,-9.48
4.5764,-9.3436,-1.58,-1.9007,-2.2129,1.2969,-2.88,34.92,-8.94
3.8001,-9.0167,-0.85808,-2.1472,-2.6368,1.74,-2.16,35.64,-7.74
3.2553,-7.8317,-0.68102,-1.3613,-2.7449,1.8607,-1.68,36.18,-6.3
3.0237,-7.9407,-0.31327,-0.76847,-2.6127,1.9392,-1.2,36.48,-5.64
2.8058,-8.036,0.040861,-0.3149,-1.919,2.0711,-0.42,36.84,-4.68
2.5742,-7.6274,-0.068102,0.10934,-1.2413,1.9942,0.66,37.08,-3.9
2.6696,-7.464,-0.27241,0.32467,-0.62094,1.6851,1.38,37.02,-3.36
3.0373,-7.3822,-0.51757,0.50213,-0.22724,1.2944,2.88,37.38,-2.76
3.6366,-7.0553,-0.89894,0.64232,-0.13714,0.96333,3.9,37.44,-2.4
3.8954,-6.1428,-1.076,0.7254,-0.30024,0.65912,5.22,37.44,-2.34
3.6094,-4.9306,-1.2395,0.759,-0.5455,0.35583,6.42,37.2,-2.46
3.4732,-4.5356,-1.2531,0.8543,-0.81367,-0.054367,7.14,37.14,-2.64
3.3234,-4.1678,-1.3484,0.93676,-0.97464,-0.26817,8.16,36.96,-3.0
3.2689,-4.127,-1.4301,1.0232,-1.1664,-0.41905,8.82,36.72,-3.48
3.1191,-4.6718,-1.6889,1.1002,-1.3769,-0.48258,9.24,36.18,-3.9
3.1191,-5.0668,-1.866,1.1368,-1.5553,-0.48319,9.3,35.82,-4.62
3.1463,-6.0747,-2.1929,1.1466,-1.6585,-0.38026,9.24,35.7,-4.92
3.2144,-7.1098,-2.4925,1.1112,-1.6087,-0.26512,9.18,35.1,-5.82
3.228,-7.6138,-2.5061,1.0427,-1.5143,-0.12004,9.12,34.8,-6.18
3.3506,-8.4446,-2.438,0.94531,-1.4267,0.018021,8.88,33.96,-7.02
3.6911,-10.392,-2.7241,0.84635,-1.3934,0.14142,8.58,33.18,-7.8
4.2495,-11.645,-2.7649,0.74892,-1.5168,0.25443,8.28,32.4,-8.28
3.9363,-13.348,-2.7241,0.71135,-2.1661,0.14508,7.8,31.32,-9.3
2.8058,-14.397,-1.3484,0.2251,-2.6505,0.36408,7.2,30.18,-9.96
3.2689,-16.603,-0.78998,0.17257,-2.9749,0.70555,6.84,29.76,-10.38
3.5685,-18.946,-1.4165,-0.1014,-2.8903,0.80817,6.12,28.74,-11.04
3.6911,-17.407,-1.1577,-0.79443,-2.193,1.1774,5.52,27.66,-11.4
2.8875,-14.138,-0.34051,-1.2932,-1.1377,1.1286,4.62,27.12,-11.58
2.3155,-13.062,0.12258,-1.7312,0.076664,0.6634,4.08,26.7,-11.46
0.85808,-11.264,-0.054481,-2.0067,1.3561,-0.7367,3.18,26.52,-10.98
0.70826,-10.338,-0.57205,-1.9667,1.8928,-1.5828,2.7,26.76,-10.44
1.6072,-9.4117,-0.6674,-1.9319,2.4346,-2.1124,2.22,27.06,-9.36
1.9886,-8.9349,-0.6674,-1.8445,2.8643,-2.4603,1.92,27.3,-8.94
2.5742,-7.9951,-0.57205,-1.6643,3.0754,-2.6606,1.08,27.9,-8.04
3.2144,-7.6819,-0.42223,-1.5195,3.0296,-2.6796,0.12,28.32,-6.72
3.3915,-7.6819,-0.29965,-1.4627,2.397,-2.4978,-0.36,28.62,-6.06
3.5004,-8.0224,-0.12258,-1.4865,1.679,-2.3195,-1.5,29.04,-4.68
2.8467,-8.4174,-0.10896,-1.5742,0.9841,-2.1075,-2.4,29.46,-3.48
2.3155,-8.5536,0.10896,-1.6939,0.53909,-1.7856,-2.94,29.58,-3.06
1.8524,-8.5808,0.27241,-1.7804,0.43524,-1.4591,-4.92,29.82,-1.44
1.0896,-8.2539,0.55843,-1.8216,0.66065,-1.1387,-5.52,29.82,-0.96
1.0896,-7.2052,0.64016,-1.7446,1.3619,-0.66493,-6.6,30.0,-0.12
1.0351,-6.456,0.76274,-1.5082,1.8185,-0.39462,-7.08,29.94,0.6
0.85808,-7.4095,0.78998,-1.1237,2.0831,0.037874,-7.62,29.76,1.26
2.0975,-8.9758,0.21793,-0.59682,2.0919,0.63652,-8.1,29.58,2.1
3.8001,-7.1098,-1.3484,0.08491,1.7257,1.1683,-8.04,29.52,2.76
4.2632,-6.8102,-2.0022,0.84208,0.894,2.0378,-7.98,29.4,3.24
4.808,-8.2676,-2.5198,1.4905,-0.13256,2.2791,-7.8,29.4,3.6
4.6037,-9.6023,-2.833,2.2587,-1.7132,2.8534,-7.14,29.4,4.02
4.1542,-10.787,-3.1872,2.4978,-2.0644,3.1725,-6.18,29.22,3.96
4.5764,-11.564,-3.3234,2.16,-2.1799,3.157,-5.52,29.1,3.84
4.4539,-10.583,-3.2825,1.8286,-2.832,3.1664,-4.2,28.92,3.36
2.942,-9.9156,-3.2008,1.4725,-2.2168,3.3766,-3.48,28.74,3.36
2.2746,-8.6353,-3.3097,1.3555,-1.4001,3.2993,-2.52,28.62,3.42
3.0646,-6.5378,-3.7047,1.1084,-0.71044,2.1649,-0.24,27.96,3.06
2.9829,-5.1894,-3.8001,0.83475,-0.37935,1.5354,1.02,27.78,2.76
2.9148,-4.1814,-2.6968,0.70524,-0.48839,0.98777,2.22,27.3,2.46
2.2746,-4.2087,-2.2065,0.8378,-0.78313,0.5058,4.98,26.1,2.04
3.1191,-5.9793,-1.8932,1.1628,-1.0611,0.20097,6.24,25.56,1.68
3.8001,-8.4174,-1.7843,1.4536,-1.9105,0.054367,7.38,25.02,1.38
3.2416,-15.473,-2.4108,1.2706,-2.1047,0.38515,10.02,24.18,0.66
3.051,-18.442,-2.4244,0.33903,-1.5733,0.78649,11.1,23.76,0.3
2.9284,-16.739,-1.6072,-0.73457,-0.46762,0.90713,12.3,23.34,0.3
2.833,-12.803,-0.74912,-1.2761,0.70952,0.90255,14.7,22.38,-0.66
2.1929,-9.3844,0.5993,-1.5751,2.1695,0.57971,15.78,22.2,-0.96
1.7979,-9.0575,0.027241,-1.595,2.5152,0.28955,16.62,21.84,-1.08
1.975,-8.7987,-0.61292,-1.533,3.0061,-0.69669,17.46,21.66,-1.26
2.833,-7.6683,-1.185,-1.4523,3.0708,-1.1842,18.9,21.48,-0.96
3.2825,-6.7421,-0.96704,-1.3066,3.0094,-1.5608,19.5,21.54,-0.6
3.3778,-6.1292,-0.38137,-1.2153,2.8662,-1.8219,19.8,21.72,-0.12
2.9556,-7.6002,0.58567,-1.0113,2.5042,-1.9905,20.28,22.38,0.78
2.7377,-9.6704,0.54481,-0.93432,2.1811,-1.9771,20.58,22.74,1.38
2.4517,-12.49,0.6674,-1.0272,1.8894,-1.8109,20.52,23.04,2.4
3.1872,-16.263,-0.19068,-0.9893,1.6099,-1.4361,20.34,23.7,4.26
4.6718,-13.402,-0.9398,-0.74037,1.3796,-0.95234,19.8,24.18,5.34
5.3392,-10.311,-1.0488,-0.31368,1.1585,-0.22571,19.56,24.72,6.54
5.2575,-9.3436,-1.3757,0.22297,0.65576,0.39401,18.6,25.68,8.28
4.6718,-9.4661,-1.58,0.96914,-0.71349,0.43127,18.3,26.4,9.12
4.127,-9.3436,-1.866,1.3555,-1.6069,0.3598,17.76,27.0,9.9
3.4732,-8.4174,-1.6753,1.5934,-2.2391,0.24587,16.74,28.08,10.8
3.3778,-8.2131,-1.58,1.7202,-2.6139,0.14355,16.44,28.62,10.86
3.6366,-7.7091,-1.9477,1.6551,-2.9193,0.12187,16.26,29.16,10.92
2.656,-6.279,-3.0918,1.2016,-2.773,0.072082,16.14,30.0,10.56
1.3076,-6.3743,-4.9714,0.47647,-1.9462,-0.23732,15.96,30.36,10.14
0.89894,-6.3743,-5.8431,-0.11026,-1.7245,-0.5623,16.08,30.72,9.48
1.1713,-6.4152,-5.993,-0.24557,-2.1441,-0.7083,16.26,31.08,8.94
-1.2803,-6.6331,-3.5277,0.10965,-2.4233,-0.37507,16.62,31.74,7.56
-1.0079,-9.9973,-2.6423,0.29108,-1.6209,-0.21838,16.62,32.1,6.72
0.5993,-13.675,-2.0567,0.53939,-0.28283,0.17593,17.04,33.0,5.22
4.2359,-13.212,-1.2122,0.34667,0.092241,0.50183,17.1,33.36,4.2
4.5901,-11.305,0.20431,-0.16585,0.63041,1.0266,17.46,33.72,3.36
4.413,-10.774,1.2531,-0.38423,0.82222,1.2095,17.76,34.02,2.52
3.5685,-10.787,1.4574,-0.91019,0.72388,0.98288,18.0,34.26,1.8
1.8932,-10.924,-0.21793,-1.1961,0.46517,0.55833,18.18,34.74,0.96
2.0022,-9.9292,-0.68102,-1.3121,0.4496,-0.12645,18.42,35.04,0.72
2.3972,-7.9951,-0.74912,-1.2617,0.69089,-0.23305,18.78,35.58,0.66
2.4925,-7.0962,-0.72188,-1.1945,1.1087,-0.30146,19.02,35.94,0.84
2.4653,-6.5922,-0.6674,-1.135,1.5131,-0.38362,19.14,36.3,0.96
2.0022,-6.7285,0.21793,-1.0495,1.8289,-0.69028,19.44,36.84,1.68
1.8115,-8.1858,0.6674,-0.99021,1.8601,-0.79871,19.62,37.14,2.22
1.8387,-10.42,0.92618,-0.9557,1.8259,-0.7929,19.74,37.5,2.76
2.5606,-13.253,0.43585,-0.79015,1.7681,-0.35583,19.8,37.8,4.38
3.4732,-12.612,-0.21793,-0.60751,1.7043,-0.11118,19.74,38.04,5.4
4.699,-11.25,-0.89894,-0.094379,1.4868,0.51526,19.62,38.4,6.36
5.6933,-10.569,-1.5255,0.77519,0.52351,1.3427,19.44,38.76,7.32
5.4073,-10.161,-1.8251,1.2718,-0.49511,1.5623,19.38,39.36,8.76
4.7944,-9.6704,-1.6344,1.5882,-1.3534,1.5632,19.32,39.66,9.24
3.7456,-8.0224,-1.5391,1.6994,-1.8699,1.441,19.5,40.2,10.14
3.2825,-7.0281,-1.5255,1.3931,-2.1915,0.94073,19.5,40.26,10.2
2.9829,-6.1836,-1.6889,1.2523,-2.1808,0.69303,19.74,40.38,10.26
2.5879,-4.5083,-1.8932,1.0788,-1.9871,-0.040928,20.16,40.44,10.08
2.3563,-3.7728,-1.9205,1.1719,-1.9288,-0.43433,20.64,40.44,9.96
1.6889,-4.4266,-1.8251,1.3164,-2.0635,-0.64568,21.42,40.44,9.12
0.44947,-6.5786,-2.6423,1.0599,-1.4111,-0.60323,21.72,40.5,8.4
0.46309,-13.634,-4.7126,0.73548,-1.2651,-0.47006,22.74,40.62,6.72
2.0839,-14.982,-4.6854,0.099266,-0.69425,0.046426,23.22,40.86,5.76
3.3097,-14.914,-4.3313,0.071471,-0.51588,0.35705,23.76,41.04,4.74
4.6854,-13.157,-1.3757,-0.35858,0.12401,1.1206,24.48,41.4,2.82
4.6445,-12.64,-0.027241,-0.86376,0.80756,1.6628,24.9,41.58,1.92
2.8739,-11.032,0.28603,-1.2608,1.051,1.4783,25.62,42.06,0.6
2.152,-9.9292,-0.16344,-1.7779,1.0886,0.70066,26.16,42.36,0.24
1.8115,-9.2755,-0.51757,-1.85,1.2874,-0.0048869,26.52,42.66,-0.12
1.6889,-8.3493,-1.0215,-1.7956,1.4419,-0.34453,26.82,43.02,-0.18
2.2201,-6.8647,-0.70826,-1.6145,1.8751,-1.076,27.24,43.74,0.3
2.3836,-6.6331,-0.095342,-1.4844,2.1084,-1.3708,27.42,44.16,0.78
2.2882,-7.355,0.77636,-1.3347,2.3265,-1.5766,27.6,44.4,1.5
2.0567,-11.128,1.0896,-1.2138,2.4679,-1.6426,27.48,45.24,3.24
2.4653,-13.348,0.91256,-1.0116,2.4612,-1.4157,27.24,45.72,4.32
2.9556,-14.451,0.57205,-0.88117,2.3463,-1.2514,26.94,46.08,5.46
4.699,-13.021,-0.40861,-0.21533,1.6643,-0.50152,25.92,46.92,7.98
5.38,-11.087,-0.7355,0.29474,1.1698,0.20342,25.2,47.34,9.06
5.2711,-10.134,-1.0079,1.0208,-0.040012,0.69455,23.7,48.48,11.1
4.2223,-9.1256,-1.1169,1.3888,-0.88117,0.74006,22.8,49.08,11.94
3.6366,-8.7306,-1.5527,1.6545,-1.536,0.67317,21.96,49.62,12.66
3.3506,-8.145,-1.7298,1.7459,-1.7856,0.59132,21.24,50.04,12.9
3.2144,-7.2733,-1.9886,1.7446,-2.2025,0.2248,20.46,50.58,13.14
2.7513,-5.1213,-2.2201,1.4728,-2.1661,-0.067195,19.14,51.42,12.48
2.4925,-4.0589,-2.0839,1.2346,-1.9758,-0.54459,18.42,51.84,12.06
1.1032,-2.7104,-1.7706,1.1191,-1.9551,-0.72113,17.4,52.26,10.62
0.70826,-3.7047,-2.5742,1.0104,-1.5394,-1.0434,17.1,52.32,9.66
1.185,-5.4073,-3.5277,0.31979,-2.1664,-0.80329,16.74,52.5,8.58
-0.6674,-9.4525,-5.9249,-0.90378,-1.2511,-0.12126,16.02,52.74,6.3
0.85808,-9.8748,-5.0531,0.30482,-1.2428,-0.21686,15.66,52.86,5.1
1.58,-12.149,-3.8818,0.6411,-0.78832,0.14355,15.24,52.98,3.84
3.4051,-15.037,-0.040861,0.48533,0.36133,1.1429,14.34,53.34,1.32
4.127,-14.301,1.6481,-0.79748,2.1487,2.0922,14.22,53.52,0.12
3.8954,-13.212,1.8387,-1.1637,2.3534,2.1139,13.98,53.82,-0.72
3.7047,-12.408,1.3484,-2.0638,2.3057,1.7385,13.86,53.94,-1.56
2.9011,-9.4389,-0.88532,-2.3582,2.0992,1.0748,13.98,54.18,-1.98
2.6832,-8.3765,-1.1169,-2.2422,1.7581,0.22877,14.16,54.24,-2.04
2.0431,-6.7693,-0.74912,-1.7404,1.6903,-0.60323,14.34,54.48,-1.92
1.6617,-7.1643,0.47671,-1.5965,1.8314,-0.77183,14.4,55.26,-0.84
1.7025,-8.4174,0.89894,-1.2969,2.4432,-1.1472,14.46,55.56,-0.12
1.7979,-10.011,1.0215,-1.0849,2.7553,-1.1325,14.7,55.74,0.66
2.3563,-13.389,0.98067,-0.77397,2.8262,-0.83291,14.82,56.16,2.4
3.8273,-14.601,-0.068102,-0.34147,2.4679,-0.37324,14.7,56.4,3.54
5.7614,-12.095,-0.91256,0.12095,1.7862,0.16585,14.7,56.46,4.68
6.279,-10.542,-1.1032,0.75686,0.56474,1.1301,13.98,56.46,6.9
5.6388,-9.7522,-1.6072,1.1035,-0.48167,1.3152,13.5,56.58,7.74
5.1213,-9.0848,-1.9205,1.3604,-1.3839,1.1912,13.02,56.7,8.58
4.1133,-7.5729,-2.4108,1.4975,-2.1237,0.88698,12.42,56.82,8.94
2.7377,-6.674,-2.3018,1.4645,-2.5867,0.46029,11.22,57.18,9.24
1.7979,-6.5786,-1.975,1.3167,-2.5623,-0.12401,10.68,57.18,9.0
0.96704,-6.7148,-1.9477,1.2275,-2.3607,-0.26848,9.78,56.94,8.1
0.7355,-7.1234,-1.9613,1.0058,-1.4371,-0.40439,9.42,56.82,7.56
0.70826,-7.8589,-2.3699,0.87476,-0.40989,-0.24068,8.94,56.58,6.78
-1.2531,-8.8668,-3.2553,0.98716,1.2966,0.23915,8.7,56.34,6.06
1.9068,-11.768,-3.4732,0.45021,1.4459,-0.13714,8.52,55.8,4.26
1.5663,-11.441,-2.6696,-0.5006,2.2959,0.31826,8.34,55.62,3.36
3.051,-11.468,-0.92618,-0.89064,2.1725,0.35858,8.4,55.38,1.92
2.7104,-12.313,0.49033,-1.2428,2.2801,0.29505,8.4,55.08,1.32
2.942,-13.144,0.50395,-1.4673,2.3027,0.35552,8.34,54.96,0.84
3.3506,-12.762,1.1169,-1.9826,2.5666,0.23396,8.22,54.6,0.54
3.3915,-11.264,1.1441,-1.8094,2.7012,0.19853,7.98,54.48,0.66
3.2144,-9.6296,0.84446,-1.3766,2.8393,0.12737,7.86,54.48,0.96
2.5606,-7.7364,0.40861,-0.54275,2.7962,-0.12217,7.56,54.18,1.92
2.3427,-7.8726,0.50395,-0.1686,2.7516,-0.14936,7.26,54.06,2.46
2.3427,-7.8726,0.50395,0.000305,2.7202,-0.082467,7.26,54.06,2.46
2.4517,-7.7227,1.1169,-0.034514,2.6906,0.069944,6.84,54.3,3.9
2.6423,-7.355,1.3757,-0.19456,2.6399,0.2532,6.48,54.42,4.56
2.7649,-6.5514,1.4574,-0.39156,2.529,0.44807,6.06,54.72,5.82
2.6696,-6.2245,1.4438,-0.50732,2.3656,0.68936,5.4,55.02,7.2
2.6287,-6.3607,1.3348,-0.51801,2.3396,0.80481,5.04,55.2,7.8
2.7786,-6.8374,1.2531,-0.46181,2.3631,0.89828,4.14,55.44,8.82
3.1054,-7.7908,1.4165,-0.35736,2.3897,1.0003,3.66,55.86,9.36
3.1191,-8.8941,2.0703,-0.30452,2.3796,1.0589,3.06,56.22,9.48
3.1872,-11.945,2.8603,-0.2587,2.3686,1.1099,3.0,56.88,9.36
3.3234,-14.342,3.1872,-0.20617,2.3515,1.2245,3.0,56.94,9.36
4.304,-18.946,2.9556,-0.16127,2.325,1.5027,3.36,57.42,9.06
6.6467,-19.504,1.5391,0.097433,2.233,1.5391,3.78,57.9,8.76
7.5321,-18.156,0.25879,0.38271,1.8824,1.4102,4.8,58.26,8.4
5.9657,-15.732,-0.27241,0.62461,1.2587,1.1307,6.06,58.56,8.1
2.4517,-15.01,-1.2122,0.84971,0.52779,0.56352,6.84,58.8,7.62
-0.54481,-15.023,-1.7162,1.0183,0.10599,-0.19303,7.8,58.62,7.08
-1.4982,-14.506,-1.4846,0.6747,0.9221,-1.1139,8.22,58.74,6.84
-1.6617,-12.49,-0.74912,0.41417,1.4893,-1.1973,8.46,58.8,6.72
0.5993,-9.3708,-0.1362,-0.21594,3.1768,-0.97525,8.34,58.92,6.18
2.6423,-8.0088,-0.58567,-0.33231,3.7052,-0.72326,8.16,58.92,6.12
3.5277,-6.279,-1.3893,-0.29505,3.6719,-0.41203,7.32,58.92,6.6
3.5685,-5.993,-1.5527,-0.10507,2.6985,-0.049175,6.78,58.8,6.66
3.0918,-6.0338,-1.2531,-0.018631,2.233,-0.047342,5.94,58.74,6.66
2.5061,-6.17,-0.8036,0.097128,1.1521,-0.058948,4.32,58.5,6.96
2.0294,-6.17,-0.35413,0.07086,1.0183,-0.033903,3.36,58.5,7.2
1.6344,-6.4016,-0.14982,0.068111,1.2987,-0.058948,2.46,58.5,7.44
0.85808,-6.9464,-0.19068,0.019853,1.8152,-0.026267,0.72,58.74,8.04
1.471,-7.246,0.27241,-0.023518,2.5171,0.13134,-0.12,58.86,8.46
2.8194,-7.7227,0.12258,0.054367,2.5501,-0.024129,-1.62,59.1,9.0
3.4187,-7.927,0.12258,0.15913,2.0898,-0.21197,-2.28,59.34,9.18
3.8546,-8.4855,-0.16344,0.32803,1.4423,-0.15882,-2.64,59.4,9.36
3.3097,-9.7522,0.095342,0.43005,1.004,-0.19853,-2.7,59.7,8.94
2.2065,-10.556,0.83084,0.41172,0.85735,-0.24435,-2.64,59.82,8.46
1.6481,-12.871,0.99429,0.35675,1.0327,-0.21258,-2.58,59.88,7.92
2.6015,-16.699,0.92618,0.058948,1.5406,0.0076358,-2.16,60.12,6.6
3.3234,-15.745,1.7434,-0.36011,1.7394,0.029932,-1.86,60.12,6.0
3.2553,-14.451,2.2065,-0.5849,1.7581,0.016799,-1.56,60.12,5.1
1.3757,-12.122,2.0431,-0.8656,1.5831,-0.2303,-0.9,59.82,3.12
0.068102,-12.19,1.2531,-0.72326,1.4371,-0.69089,-0.66,59.58,2.16
-0.70826,-11.863,0.88532,-0.50519,1.5531,-1.087,-0.66,59.22,1.2
-0.40861,-10.106,1.4438,-0.38332,1.9832,-1.1939,-0.66,58.2,-0.84
-0.32689,-9.0848,1.3757,-0.38393,2.0727,-1.1442,-0.84,57.54,-1.92
-0.21793,-8.3629,1.1169,-0.35919,2.1154,-0.99357,-1.26,56.82,-2.94
0.040861,-7.9543,0.8036,-0.32193,2.0317,-0.73731,-1.86,55.98,-4.08
0.70826,-7.4231,0.5993,-0.34453,1.8347,-0.55711,-3.3,54.24,-5.76
0.72188,-7.3141,0.72188,-0.39431,1.5018,-0.29322,-4.2,53.46,-6.48
0.70826,-7.9679,1.0351,-0.46548,1.4465,-0.22724,-6.12,51.72,-8.04
1.1986,-8.1586,1.2122,-0.58918,1.5986,-0.084605,-7.2,50.82,-9.0
1.5663,-8.1858,1.1577,-0.61606,1.6909,-0.0051924,-8.34,49.86,-9.78
1.9205,-8.3765,1.1169,-0.56047,1.7349,0.086437,-9.6,49.14,-10.5
2.261,-8.6081,1.0896,-0.48106,1.7229,0.16127,-11.94,47.46,-12.06
2.3018,-8.7034,1.2803,-0.37874,1.715,0.17013,-12.96,46.8,-12.78
2.261,-8.5536,1.3757,-0.29444,1.7346,0.15547,-15.24,45.72,-14.28
2.4517,-8.7579,1.1577,-0.18509,1.7132,0.11942,-16.38,45.3,-14.94
2.6968,-8.9622,0.78998,-0.030543,1.4401,0.093462,-17.28,44.94,-15.54
2.6968,-8.9622,0.78998,0.032987,1.1374,0.1011,-17.28,44.94,-15.54
3.228,-9.1393,-0.61292,0.075442,0.82772,0.1182,-19.26,44.46,-16.56
2.833,-9.9565,-0.72188,0.017715,0.58857,0.15577,-21.06,44.16,-17.64
2.5742,-10.515,-0.32689,-0.24893,0.53542,0.20128,-21.96,43.98,-17.94
2.3563,-13.471,0.50395,-0.53878,0.70127,0.25198,-23.7,43.98,-18.36
2.6151,-14.696,0.57205,-0.91233,0.956,0.26878,-24.48,43.98,-18.6
3.7865,-14.342,-0.19068,-1.2306,1.1377,0.20495,-25.98,44.22,-18.66
3.7047,-10.815,-0.9398,-1.3347,1.1787,-0.022907,-27.42,44.4,-18.42
1.8932,-7.7091,-1.8524,-1.2529,1.2324,-0.26053,-28.8,44.64,-17.76
0.57205,-7.6002,-1.9886,-0.8827,1.0715,-0.80573,-29.82,44.7,-16.98
-0.1362,-8.0905,-1.8796,-0.58613,-0.36896,-1.7492,-31.08,44.58,-16.14
0.027241,-9.507,-1.6753,-0.59987,-0.94898,-1.6683,-32.28,44.16,-14.82
0.64016,-10.365,-1.6344,-0.821,-1.4569,-1.6359,-32.94,43.92,-14.1
0.47671,-9.8203,-1.6481,-1.0299,-1.8906,-1.3363,-34.38,43.14,-12.66
0.40861,-8.431,-0.9398,-0.94012,-2.4322,-0.57635,-36.06,42.48,-10.68
0.50395,-6.8919,-0.19068,-0.72357,-3.1811,-0.049175,-37.98,41.46,-8.52
-0.10896,-6.4152,0.095342,-0.20556,-3.3216,0.43616,-39.84,40.44,-6.0
-0.55843,-6.456,0.10896,0.025351,-2.7214,0.46334,-40.8,40.08,-4.74
-1.757,-5.7205,0.095342,0.12584,-1.5363,0.45082,-41.82,39.72,-3.36
-1.6617,-5.2166,-0.21793,0.19151,-0.56413,0.38118,-43.44,39.24,-0.18
-0.84446,-5.38,-0.28603,0.27092,0.45845,0.3821,-44.04,39.24,1.26
0.081722,-6.17,-1.2667,0.39951,1.1188,0.35125,-44.52,39.24,2.58
0.51757,-6.8238,-1.5391,0.58399,1.8326,0.53512,-45.6,39.48,4.86
1.4029,-7.9134,-1.6753,0.76511,2.0739,0.57177,-45.84,39.72,5.82
1.5527,-8.7034,-2.0158,0.84544,1.9871,0.45143,-46.14,40.14,6.6
2.4108,-9.1801,-2.6696,0.87537,0.9447,0.48625,-46.26,40.74,7.32
2.152,-8.1177,-2.9011,0.75259,0.24709,0.38362,-46.38,41.16,7.38
0.58567,-5.0531,-2.4108,0.38729,-0.10873,0.27122,-46.08,41.7,7.5
-0.095342,-3.732,-1.7025,0.068111,-0.20097,0.17471,-45.84,42.72,6.96
-0.28603,-3.1463,-1.0215,0.0956,-0.20189,-0.25687,-45.72,43.14,6.72
-0.96704,-3.2553,-0.8036,0.19914,-0.12339,-0.51068,-45.66,43.56,6.12
-0.95342,-4.7944,-0.6674,0.26481,0.34178,-0.53848,-45.66,44.04,5.46
1.58,-11.7,-1.0215,0.11209,0.54642,-0.36927,-46.02,44.28,4.02
2.1248,-13.607,-0.64016,-0.49266,0.72998,0.13958,-46.32,44.46,3.3
2.8467,-14.41,-0.20431,-0.69211,0.81367,0.39828,-46.5,44.46,2.52
4.0044,-14.928,0.89894,-0.96975,1.146,1.1252,-46.92,44.7,1.26
4.6037,-14.506,0.88532,-1.0968,1.3576,1.2627,-47.28,44.76,0.84
4.6718,-13.471,0.57205,-1.1292,1.3396,1.1026,-47.52,44.7,0.54
3.8954,-11.564,0.23155,-1.1219,1.0666,0.68356,-48.06,44.88,0.12
2.4517,-9.8339,-0.34051,-1.1093,0.76114,-0.25717,-48.48,44.88,-0.18
1.0079,-8.3629,-0.095342,-1.135,0.87995,-0.83841,-49.32,44.7,-0.24
0.96704,-7.8862,-0.027241,-1.1988,1.3784,-1.211,-49.68,44.52,-0.48
1.2803,-7.9679,-0.027241,-1.2144,1.6426,-1.3158,-50.04,44.16,-0.42
1.6481,-8.2131,-0.1362,-1.2801,2.1976,-1.5149,-50.58,44.04,-0.6
2.1248,-10.283,-0.64016,-1.171,2.3243,-1.4731,-51.96,43.5,-0.72
2.2882,-12.381,-0.8036,-1.0266,2.3311,-1.2489,-52.68,43.14,-0.9
3.8001,-13.484,-1.3076,-0.87384,2.1811,-0.90439,-53.34,42.78,-1.08
4.5628,-12.095,-1.471,-0.50488,1.6362,-0.23305,-54.96,41.58,-1.5
5.0668,-11.005,-1.6889,-0.32406,1.3867,0.029016,-55.62,40.92,-1.86
5.1213,-10.637,-1.9477,0.30574,0.19945,0.45082,-56.58,40.32,-2.1
4.7944,-10.052,-2.2201,0.74128,-0.87109,0.42089,-58.26,39.0,-2.34
4.127,-9.8611,-2.2474,1.1209,-1.8967,0.27611,-59.16,38.22,-2.46
3.4732,-8.5263,-2.152,1.3256,-2.5965,0.11545,-59.88,37.5,-2.4
2.5198,-7.2733,-2.1793,1.3338,-3.0778,-0.13989,-61.26,36.24,-1.98
1.9886,-6.2926,-2.4653,1.0959,-3.1264,-0.22358,-61.92,35.76,-1.38
1.5255,-5.6116,-2.6696,0.85002,-3.0073,-0.33903,-62.28,35.16,-0.54
0.65378,-4.5356,-2.6423,0.62858,-2.7037,-0.64141,-62.4,34.8,0.36
-0.92618,-3.8273,-2.1929,0.47678,-2.1307,-0.92546,-62.4,34.14,3.24
-0.31327,-4.9033,-1.9068,0.48533,-1.5134,-1.1151,-62.16,33.84,4.92
0.21793,-6.9464,-1.0896,0.47892,-1.4444,-1.0263,-62.16,33.66,6.6
0.49033,-15.541,-1.185,0.33201,-1.1527,-0.59834,-61.56,33.48,10.5
1.6344,-17.502,-0.25879,-0.65973,0.1744,0.25534,-60.96,33.48,12.48
3.228,-13.675,0.81722,-1.0238,0.87079,0.49908,-60.36,33.24,14.34
3.8682,-11.673,1.7162,-1.3213,1.5311,0.9218,-58.86,33.0,17.88
3.5413,-11.591,1.3893,-1.4844,1.8601,0.8491,-58.14,33.0,19.26
2.7649,-11.128,-1.0896,-1.3561,1.7627,0.58368,-57.48,33.0,20.58
1.8387,-9.616,-1.362,-1.0055,1.4038,-0.051313,-55.8,33.06,22.44
2.0567,-8.7851,-0.99429,-0.74831,1.1209,-0.489,-55.14,33.0,22.98
2.1112,-7.641,-0.40861,-0.81917,1.2709,-0.82039,-54.3,33.0,23.4
1.8387,-5.4073,0.17706,-1.0171,1.6784,-0.91599,-53.1,32.94,23.1
1.7162,-4.7126,0.12258,-1.0519,1.9163,-1.0565,-52.86,32.88,22.68
1.7434,-6.565,-0.29965,-0.96089,1.8103,-1.0757,-52.02,32.4,21.66
1.6344,-8.5944,-0.40861,-0.84666,1.5345,-1.0037,-51.72,32.1,20.76
1.5936,-11.577,-0.61292,-0.61789,1.0925,-0.33384,-51.6,31.74,19.86
2.3563,-14.301,-0.83084,-0.42822,0.89767,0.42302,-51.48,31.5,18.96
4.3858,-12.708,-0.40861,-0.26206,0.93126,1.2501,-51.24,30.54,16.98
4.8897,-11.959,-0.40861,0.0281,1.1298,2.1499,-51.18,30.06,15.96
5.094,-11.972,-1.8932,0.35461,0.96486,2.6686,-50.4,29.46,14.1
4.9033,-10.297,-2.3155,0.87904,0.036957,2.6738,-49.92,29.22,13.14
4.808,-9.221,-2.5742,1.0382,-0.40042,2.5363,-49.44,29.16,12.12
4.5356,-7.355,-2.5606,1.2679,-1.5272,1.8344,-48.78,29.04,11.22
3.514,-4.9033,-2.5334,1.0693,-1.9105,1.1457,-46.8,29.1,9.78
2.6696,-3.3506,-2.1929,0.87537,-1.9761,0.055283,-45.66,29.34,9.24
2.1112,-2.1929,-1.58,0.97677,-1.9374,-0.21777,-43.26,30.18,8.58
1.866,-3.4732,-1.1713,1.452,-2.0027,-0.63897,-41.94,30.54,8.4
1.7434,-6.7148,-0.89894,1.7397,-2.1707,-0.67837,-40.62,31.02,8.34
1.6344,-9.2074,-1.2531,1.8891,-2.2996,-0.4215,-39.24,31.5,8.34
3.1463,-18.891,-3.4051,1.1237,-2.1112,0.12248,-36.48,33.06,8.58
3.6094,-17.393,-2.2474,-0.27336,-1.4065,0.5116,-35.16,33.72,8.88
3.7456,-11.727,0.23155,-0.98105,0.11454,1.1988,-32.52,34.98,9.66
2.9829,-12.217,0.88532,-1.2483,1.0345,1.3735,-31.32,35.52,10.2
2.1656,-12.381,0.7355,-1.7178,1.7938,0.99327,-30.06,36.18,10.8
1.0624,-11.005,-0.8036,-1.8402,2.156,0.18051,-28.26,37.32,12.24
1.6072,-9.5751,-0.85808,-1.7077,2.3665,-0.54062,-27.54,37.74,13.08
2.2474,-8.1995,-0.51757,-1.4734,2.5827,-0.90042,-26.7,37.98,13.8
2.833,-6.0883,-0.14982,-1.1716,2.8775,-1.1332,-25.92,38.4,14.82
2.7649,-5.8976,0.095342,-0.93737,2.9572,-1.237,-25.68,38.76,15.48
2.6968,-6.8919,0.46309,-0.82681,2.9019,-1.2596,-25.74,39.0,15.9
2.7377,-8.3901,0.64016,-0.53329,2.3115,-1.1771,-25.98,39.18,16.26
3.5413,-12.122,-0.32689,-0.24343,1.5586,-0.97769,-26.76,39.42,16.92
4.5628,-12.844,-0.92618,0.11362,0.67867,-0.62308,-27.24,39.42,17.1
4.8625,-11.237,-0.9398,0.44318,-0.1237,-0.15974,-27.78,39.36,17.1
4.1814,-10.951,-0.9398,0.86926,-0.94257,0.51801,-29.52,39.24,16.92
3.514,-10.828,-1.2939,1.0727,-1.3247,0.69944,-30.3,39.18,16.74
2.8603,-9.9973,-1.6344,1.1936,-1.6356,0.71777,-31.08,39.18,16.38
2.1384,-8.0224,-1.7298,1.2223,-1.8014,0.66004,-32.46,39.18,15.36
1.9341,-7.3141,-1.7434,1.2037,-1.7477,0.55161,-33.12,39.36,14.88
1.7025,-6.4697,-2.9011,1.0409,-1.6267,0.49083,-33.84,39.78,14.16
0.47671,-5.2438,-4.0044,0.68661,-1.1945,0.32956,-33.96,40.02,13.8
-0.24517,-4.4402,-3.9908,0.43005,-0.53573,0.0073304,-33.96,40.32,13.44
0.068102,-4.018,-3.4868,0.30024,-0.30116,-0.14142,-33.9,40.56,13.08
1.3484,-4.1133,-2.6696,0.19792,-0.82284,-0.43433,-33.78,40.86,12.72
1.3757,-8.6217,-0.85808,0.26267,-1.489,-0.16249,-33.24,41.52,12.6
1.6072,-13.416,-0.027241,0.25595,-1.6246,0.18173,-33.0,42.06,12.54
2.5742,-18.456,0.14982,-0.16616,-0.90958,0.53787,-32.46,42.48,12.66
4.1406,-14.492,2.0294,-0.45143,-0.5733,0.70097,-31.98,42.96,12.9
3.9908,-12.095,2.6423,-1.3283,0.47189,1.1551,-30.96,43.68,13.74
3.3778,-11.523,2.1793,-1.2914,1.0718,0.98869,-30.18,44.1,14.34
2.0022,-10.229,-1.3076,-0.94287,1.2181,0.28894,-29.22,44.82,15.6
2.0703,-9.2891,-1.866,-0.43982,0.89309,-0.69669,-28.62,45.12,16.08
2.4517,-8.6353,-1.7025,-0.15241,0.52687,-0.84513,-28.44,45.6,16.86
2.5334,-7.5457,-0.29965,-0.19273,0.58704,-1.0788,-28.14,46.14,18.06
2.3018,-6.851,0.027241,-0.43646,0.9841,-1.0983,-28.08,46.62,18.78
2.0431,-6.4833,0.34051,-0.63377,1.3173,-1.1038,-28.08,46.8,19.32
2.1929,-7.8453,0.64016,-0.76755,1.3885,-1.1316,-28.74,47.16,20.34
2.1656,-9.4798,0.44947,-0.91355,1.2892,-1.1237,-29.4,47.16,20.7
2.3155,-13.525,0.095342,-0.95448,1.142,-0.96272,-31.08,46.68,21.42
2.8739,-13.893,-0.095342,-0.79474,0.99296,-0.59895,-32.1,46.32,21.66
3.4323,-13.035,0.14982,-0.45112,0.88392,-0.16921,-33.3,46.02,21.96
3.9363,-10.065,-0.1362,0.26725,0.78007,0.56077,-35.94,45.12,21.84
4.1542,-9.8339,-0.8717,0.84208,0.37354,0.81948,-37.38,44.64,21.84
4.0861,-9.4798,-1.7298,1.3433,-0.36957,0.86651,-38.7,44.22,21.72
2.9011,-8.6625,-2.2337,1.5876,-1.4105,0.88759,-40.74,43.14,21.3
2.3018,-7.9543,-2.2201,1.5485,-1.649,0.78863,-41.4,42.78,21.0
1.7162,-7.4776,-2.2882,1.1173,-1.4847,0.63958,-41.94,42.24,20.64
-2.0839,-5.6933,-4.1406,0.38546,0.29505,0.53298,-42.3,41.4,20.22
-0.89894,-4.1542,-3.5549,-0.20067,1.9123,0.11698,-42.12,40.98,20.1
1.7298,-3.1599,-2.4108,0.03207,2.1475,-0.40134,-41.88,40.68,19.92
2.8058,-5.5299,-1.7434,0.07758,0.57818,-0.39309,-41.22,40.44,19.02
2.6423,-8.7851,-1.1305,0.024129,0.33995,-0.1124,-40.74,40.5,18.72
3.4187,-11.223,-0.47671,0.13928,-0.0058032,0.20281,-40.14,40.62,18.18
4.6718,-16.521,0.78998,0.051924,-0.65637,0.58521,-38.7,40.92,17.52
4.5764,-14.083,1.866,-0.43768,-0.81092,1.0351,-37.98,41.1,17.34
3.8818,-12.136,2.7241,-0.93218,-0.58765,1.2486,-37.26,41.46,17.4
2.1793,-11.727,1.4301,-1.0134,0.04612,0.75259,-35.7,42.0,17.46
1.0488,-11.482,-0.28603,-0.76328,0.25229,0.084299,-35.1,42.3,17.64
0.89894,-11.032,-0.57205,-0.55589,0.48655,-0.43249,-34.44,42.72,18.0
1.4165,-9.6977,0.54481,-0.52626,1.0131,-0.67195,-33.78,43.38,18.3
1.3348,-8.54,0.83084,-0.64904,1.7584,-0.75136,-33.54,43.8,18.36
1.2939,-7.1643,0.8036,-0.84086,2.4981,-0.76022,-33.3,44.04,18.48
1.58,-5.9112,0.83084,-0.88789,2.8821,-0.86407,-33.12,44.58,18.9
1.7979,-6.7966,0.8036,-0.7813,2.7617,-0.91874,-33.12,44.64,18.84
1.9341,-8.4038,0.74912,-0.68997,2.3772,-0.8262,-33.36,44.64,18.78
2.4925,-12.381,0.8036,-0.57391,1.9511,-0.49877,-34.08,44.52,18.42
3.2416,-13.729,0.64016,-0.41569,1.5812,0.068417,-34.62,44.4,17.88
4.1133,-13.511,0.61292,-0.197,1.2883,0.71349,-35.04,44.16,17.16
4.7535,-12.081,0.027241,0.1069,1.0183,1.2428,-36.12,43.74,15.42
4.7944,-9.5751,-1.0624,0.74556,0.28772,1.4838,-36.72,43.56,14.28
4.5083,-9.0575,-1.471,1.1729,-0.37477,1.3259,-37.26,43.38,13.14
3.2825,-8.4991,-1.9613,1.3463,-0.72907,1.2058,-37.62,43.32,11.88
2.6423,-8.2812,-1.757,1.5259,-1.4908,0.77672,-38.28,43.26,9.48
2.1793,-8.2948,-1.6208,1.3861,-1.558,0.4612,-38.46,43.32,8.28
1.7298,-8.2403,-1.8251,1.0705,-1.2419,0.2248,-38.34,43.38,6.06
1.6617,-8.1313,-1.7843,0.5901,-0.29658,0.23396,-38.04,43.56,5.1
1.7025,-7.9951,-1.4982,0.42516,0.065668,0.23182,-37.62,43.62,4.08
1.471,-8.54,-1.0624,-0.032987,1.0519,0.13408,-36.66,44.16,2.04
1.757,-9.1665,-0.96704,-0.31337,1.5281,0.0030543,-36.0,44.46,1.08
1.9205,-9.902,0.21793,-0.55803,1.8604,-0.10782,-35.34,44.58,0.3
2.0294,-11.536,0.58567,-0.86254,2.16,-0.13286,-34.5,45.06,-1.14
3.0918,-14.846,2.1112,-1.5366,2.6829,-0.090103,-34.08,45.12,-1.74
3.3097,-13.566,2.261,-1.6011,2.8973,-0.069639,-33.78,45.24,-2.52
3.5004,-11.863,2.3427,-1.4655,2.9471,0.0073304,-33.66,45.24,-3.06
3.2961,-10.488,1.6753,-0.71838,2.5498,0.13042,-33.12,45.3,-4.2
2.9011,-9.8475,0.92618,-0.11729,1.9068,0.039706,-32.82,45.3,-4.86
2.6968,-9.0031,0.42223,0.5006,1.1057,0.018631,-32.22,45.18,-6.12
2.5061,-8.9622,0.39499,0.63622,0.8265,0.098655,-32.16,45.18,-6.9
2.1112,-8.5263,0.32689,0.62583,0.78832,0.146,-31.86,45.18,-7.5
1.8932,-8.1858,0.44947,0.47709,0.89583,0.23702,-31.56,45.0,-8.22
1.6208,-7.3686,0.70826,-0.0079412,1.284,0.30635,-31.32,44.88,-8.82
1.4574,-6.1428,0.98067,-0.31337,1.5815,0.26573,-30.6,44.64,-10.08
1.5527,-6.1155,0.92618,-0.43433,1.8027,0.20983,-30.12,44.46,-10.62
1.9886,-7.1915,0.70826,-0.50457,1.9679,0.17776,-29.7,44.28,-11.28
2.2201,-7.7364,0.70826,-0.49694,2.0116,0.19578,-28.5,43.74,-12.36
2.3427,-9.221,1.2395,-0.39309,1.967,0.26084,-27.78,43.5,-13.08
2.3836,-10.256,1.5663,-0.24984,1.8097,0.42089,-27.06,43.14,-13.8
2.942,-14.71,1.9068,-0.12828,1.6432,0.55986,-25.68,42.48,-15.12
3.4596,-17.829,2.1793,-0.012523,1.409,0.6463,-24.9,42.18,-15.78
3.9908,-19.314,2.2746,0.083994,1.179,0.69058,-24.18,42.18,-16.5
4.4539,-18.238,1.1305,0.20739,1.0479,0.56352,-22.44,41.58,-17.58
3.337,-16.086,0.12258,0.56047,0.57879,0.045815,-21.54,41.4,-17.94
1.4438,-14.928,-0.6674,0.92607,0.16646,-0.41478,-20.64,41.04,-18.54
-1.3076,-13.198,-1.6072,1.1139,0.020464,-0.90378,-19.2,40.5,-19.32
-1.6889,-12.272,-1.6072,1.1307,0.33323,-1.1564,-18.54,40.2,-19.74
-1.1032,-8.8941,-0.91256,0.76725,1.1341,-1.0324,-17.94,39.78,-20.1
-0.57205,-7.246,-0.7355,-0.077274,2.4823,-0.50427,-16.68,39.06,-21.18
-0.21793,-5.4481,-0.88532,-0.25656,2.8332,-0.33872,-16.08,38.76,-21.54
-0.01362,-4.985,-1.0896,-0.24679,2.7119,-0.27978,-15.48,38.4,-21.96
0.53119,-4.985,-1.3757,-0.20586,2.3634,-0.2926,-14.16,37.68,-22.74
0.49033,-5.2302,-1.1305,-0.32101,2.0782,-0.26909,-13.56,37.44,-23.16
1.0215,-5.5435,-0.21793,-0.46731,2.0137,0.026573,-12.96,36.9,-23.4
2.152,-7.1915,-0.34051,-0.40317,1.8008,0.20067,-11.88,36.36,-24.12
2.2201,-8.1586,-0.35413,-0.44227,1.6851,0.25229,-11.22,35.94,-24.42
2.4244,-8.7034,-0.40861,-0.36621,1.6353,0.29596,-10.62,35.88,-24.66
2.6968,-9.4117,-0.51757,-0.036346,1.3928,0.32498,-9.78,35.7,-24.96
2.7377,-10.637,-0.12258,0.11668,1.2462,0.27397,-8.1,35.34,-25.68
2.3291,-10.869,0.35413,0.14875,1.3803,0.10293,-7.2,35.46,-25.92
1.3212,-11.577,1.5119,0.085827,1.5278,0.026267,-5.46,35.22,-26.22
1.185,-11.577,1.7706,-0.14936,2.142,-0.28924,-4.62,35.16,-26.52
1.4301,-10.637,2.0294,-0.23976,2.3595,-0.38882,-3.72,35.28,-26.46
1.7298,-10.338,2.0839,-0.26817,2.8714,-0.48625,-2.82,35.34,-26.46
2.3972,-10.774,1.1577,-0.16341,2.9007,-0.52382,-0.84,35.16,-26.64
2.4789,-11.346,1.1441,-0.099571,2.6939,-0.54886,0.18,35.1,-26.76
1.9613,-12.245,3.1463,-0.26023,2.4557,-0.57513,1.98,34.98,-26.82
1.5255,-12.994,4.0589,-0.73426,2.1814,-0.75533,2.88,34.98,-26.82
1.1986,-13.457,3.623,-1.0122,2.2498,-0.88453,3.72,34.86,-26.64
1.0488,-12.898,3.0101,-1.0104,2.39,-0.99693,4.44,34.92,-26.58
1.1305,-10.447,1.185,-0.66645,2.3509,-1.0614,5.94,34.8,-26.1
0.83084,-9.7249,0.8036,-0.31429,2.1796,-1.0256,6.72,34.74,-25.8
0.46309,-8.7034,0.53119,-0.073915,2.0724,-0.93523,8.22,34.98,-25.02
0.54481,-8.4855,0.29965,0.037568,2.0837,-0.80115,8.88,35.1,-24.54
0.76274,-8.2812,0.054481,0.03879,2.0797,-0.63102,9.48,35.04,-24.3
0.88532,-8.1041,0.027241,-0.15577,1.9679,-0.38271,9.96,35.1,-23.88
1.4165,-8.4038,0.040861,-0.26237,1.8732,-0.23732,10.68,35.4,-23.04
1.7843,-8.4446,-0.14982,-0.37293,1.7578,-0.11393,11.04,35.52,-22.62
1.8932,-7.9407,-0.27241,-0.4441,1.628,0.014661,11.34,35.64,-22.14
1.7843,-7.4231,-0.14982,-0.42791,1.6258,0.030849,12.12,35.82,-21.06
1.5663,-7.464,-0.054481,-0.39462,1.6869,0.028711,12.48,35.76,-20.76
1.4301,-7.8045,-0.054481,-0.26817,1.8888,-0.043677,12.9,35.76,-20.22
1.5663,-9.7658,0.34051,-0.21472,2.0363,-0.044593,13.62,36.0,-19.38
2.0567,-10.774,0.61292,-0.23366,2.1243,0.042761,13.92,36.0,-19.02
2.8875,-11.768,0.76274,-0.25107,2.0559,0.26389,14.64,36.24,-18.18
3.4323,-12.136,0.6674,-0.26573,1.9624,0.34728,15.0,36.24,-17.64
3.5958,-12.149,0.53119,-0.25504,1.4334,0.51801,15.48,36.3,-17.04
3.514,-12.04,0.40861,-0.25198,1.1154,0.55833,15.9,36.18,-16.62
2.9284,-12.122,0.44947,-0.27306,0.98135,0.5455,16.8,36.36,-15.54
2.8058,-12.381,0.57205,-0.31612,1.0397,0.53573,17.22,36.36,-14.94
2.9556,-12.231,0.20431,-0.38332,1.1658,0.51191,17.7,36.6,-14.46
3.0646,-10.46,0.01362,-0.4496,1.2694,0.36133,18.36,36.78,-13.38
3.0646,-9.507,-0.34051,-0.41264,1.2645,0.19914,18.6,37.08,-12.72
3.0101,-8.6898,-0.38137,-0.40623,1.2339,0.065973,18.9,37.14,-12.18
1.8524,-7.0826,-0.58567,-0.31918,1.0916,-0.4444,19.2,37.26,-10.8
1.1577,-7.3958,-1.0215,-0.18357,0.98991,-0.76664,19.2,37.38,-10.02
0.43585,-8.0632,-1.4438,-0.087659,0.92088,-1.0278,19.26,37.56,-9.3
-0.28603,-9.0167,-1.2803,-0.10049,0.96028,-1.1093,18.54,38.4,-7.2
-0.31327,-9.0575,-0.78998,-0.26725,1.1075,-0.95203,18.12,38.88,-6.0
-0.027241,-8.9894,-0.51757,-0.36408,1.2074,-0.83841,17.76,39.54,-4.38
0.47671,-8.4174,-0.54481,-0.52076,1.3583,-0.45601,17.46,40.26,-2.82
1.362,-7.641,-1.1986,-0.4664,1.1515,-0.17532,17.58,41.76,0.96
1.58,-7.5321,-1.3348,-0.27275,0.67012,0.023213,18.0,42.48,2.7
1.58,-7.3958,-1.362,0.039401,-0.20708,0.13042,19.32,43.74,5.82
1.5119,-7.4095,-1.0896,0.23274,-0.57879,0.13867,20.34,44.34,7.2
1.5119,-7.3822,-0.98067,0.30238,-0.69425,0.12523,21.3,45.0,8.22
1.4574,-7.2188,-1.0215,0.40378,-0.88392,0.18051,22.44,45.54,9.0
1.3893,-7.4912,-1.1986,0.44227,-0.87629,0.16157,25.08,46.5,9.84
1.4438,-7.6002,-1.2258,0.42455,-0.83383,0.097433,26.4,46.8,9.72
1.8387,-7.8726,-1.3893,0.39981,-0.80726,0.16554,29.7,47.28,8.4
1.866,-7.6002,-1.6617,0.37446,-0.82986,0.19914,31.26,47.34,7.32
1.866,-7.6002,-1.6617,0.36652,-0.87537,0.16952,31.26,47.34,7.32
1.866,-7.6002,-1.6617,0.36652,-0.87537,0.16952,31.26,47.34,7.32
-0.47671,-2.8194,-2.8875,0.040012,-1.2074,-0.18143,35.52,47.28,-1.62
-0.58567,-1.1713,-2.4108,-0.13683,-1.504,-0.061087,35.7,47.16,-4.5
0.64016,-1.1169,-0.31327,-0.11454,-1.7651,-0.022602,34.98,47.28,-10.62
0.21793,-2.0839,0.054481,0.23793,-2.1139,-0.66035,33.9,47.28,-13.74
-0.61292,-7.9134,0.85808,0.29413,-1.6322,-0.63622,31.08,47.1,-20.04
-0.19068,-12.313,0.44947,-0.5959,-0.80634,-0.17837,29.22,46.8,-23.28
0.64016,-14.097,1.3757,-1.6222,0.055589,0.24526,27.06,46.56,-26.52
2.7377,-14.451,2.0294,-1.7795,0.70585,0.62522,22.38,45.84,-32.82
3.7184,-15.037,2.1248,-1.8552,1.4175,0.96761,19.98,45.36,-35.88
4.1133,-15.35,1.7979,-1.7914,1.5418,0.95936,15.18,44.28,-41.88
3.4323,-14.846,1.471,-1.6448,1.2278,0.42913,12.84,43.74,-44.52
2.6151,-13.579,1.1305,-1.5211,1.0828,-0.1237,10.56,43.32,-47.28
2.0839,-12.286,1.076,-1.3686,1.2932,-0.66035,8.22,42.72,-49.86
2.1384,-9.616,0.65378,-1.2126,1.7168,-1.004,3.96,41.94,-54.42
2.152,-8.7851,0.68102,-1.0699,2.2025,-1.2575,2.04,41.58,-56.46
2.8058,-9.6977,0.42223,-0.87751,2.2477,-1.296,0.24,41.34,-58.5
3.4459,-10.992,-0.31327,-0.34789,1.8234,-1.2202,-2.7,40.92,-61.62
3.9363,-12.939,-0.81722,0.052229,1.0812,-0.95295,-3.78,40.92,-62.52
4.1951,-13.28,-1.1169,0.39248,0.12492,-0.5507,-4.68,40.92,-63.54
4.4811,-12.803,-1.2667,0.65301,-0.63255,-0.07086,-6.66,40.86,-64.98
4.3721,-12.585,-1.362,0.90866,-1.2733,0.46059,-7.86,40.86,-65.28
3.1599,-10.651,-2.3563,0.90713,-1.4087,0.55008,-9.24,40.98,-65.46
1.2395,-8.8396,-2.5879,0.44685,-2.8359,1.124,-12.6,41.16,-65.28
-0.44947,-5.993,-3.6911,0.39828,-3.6252,1.3381,-14.7,41.22,-64.68
-3.051,-3.9499,-3.7592,0.31612,-2.2718,1.208,-16.92,41.4,-63.9
-3.8546,-2.9692,-4.2768,0.27642,-0.96425,0.71044,-21.48,41.46,-61.86
-2.2337,-2.6968,-3.3506,0.41447,-0.2361,-0.34483,-23.76,41.4,-60.78
0.96704,-3.0782,-1.5391,0.36957,-0.29505,-0.60812,-28.68,40.86,-58.32
1.3484,-4.4402,-0.65378,0.48289,-0.15027,-1.0501,-31.38,40.5,-57.24
1.8387,-6.0066,-0.32689,0.49236,-0.20953,-1.0247,-34.32,39.72,-56.22
3.0101,-11.155,0.19068,0.065668,-0.34514,-0.55864,-40.02,38.1,-54.06
3.5004,-12.858,0.83084,-0.24374,-0.34606,-0.090408,-42.66,37.2,-53.1
4.2632,-13.471,1.1577,-0.81031,-0.15638,0.56108,-47.1,35.04,-51.12
4.2632,-13.471,1.1577,-1.0128,-0.17623,0.78954,-47.1,35.04,-51.12
4.3449,-12.449,0.24517,-1.0275,-0.27122,0.75106,-49.02,34.26,-50.1
3.5958,-11.836,-0.44947,-0.93493,-0.41172,0.49877,-51.6,32.46,-48.36
2.7377,-11.346,-0.31327,-0.9053,-0.39554,0.14661,-52.44,31.62,-47.52
1.8251,-10.338,-0.12258,-1.003,-0.087659,-0.33048,-53.1,30.96,-46.68
1.1577,-9.0575,0.027241,-1.139,0.53848,-0.87934,-54.18,29.82,-44.94
0.6674,-7.927,0.44947,-1.1949,1.7874,-1.3347,-54.42,29.4,-44.04
0.91256,-8.7987,0.84446,-1.1503,2.3885,-1.4255,-54.42,28.86,-43.2
1.2667,-10.76,1.0351,-1.087,2.583,-1.3937,-54.12,28.68,-42.48
3.1054,-13.866,0.44947,-0.70677,2.7235,-0.94806,-52.68,28.62,-41.16
4.3585,-12.694,0.040861,-0.3262,2.2269,-0.42608,-51.66,28.8,-40.32
4.9714,-11.087,-0.57205,0.17746,1.5974,0.30574,-50.46,28.92,-39.6
4.9578,-11.25,-1.1577,0.85094,0.13195,0.94837,-47.94,29.76,-38.46
4.3177,-11.005,-1.8524,1.0088,-0.45051,1.0592,-46.68,29.76,-37.86
4.0316,-10.583,-2.6015,1.2211,-2.1292,1.2297,-45.48,29.88,-37.26
1.6208,-9.8611,-4.0861,0.88759,-1.9645,1.3665,-44.04,29.82,-36.54
-2.4244,-8.0224,-7.069,0.49327,0.46792,1.43,-41.64,29.28,-35.52
-0.74912,-7.4095,-7.069,0.24404,1.97,0.72235,-40.38,28.98,-35.1
3.9635,-3.6775,-3.9771,0.28619,2.0895,-0.21594,-37.62,28.02,-34.56
4.6037,-3.3506,-2.3563,0.57574,0.69242,-0.76572,-36.36,27.66,-34.08
4.522,-3.2553,-1.8387,0.8152,-0.83963,-1.1173,-35.34,27.06,-33.54
3.623,-3.3234,-0.53119,0.61972,-2.3741,-0.84666,-34.44,26.64,-32.94
2.2474,-9.3163,-0.8036,0.61697,-2.9508,-0.54275,-33.24,25.56,-31.38
2.2201,-13.048,-0.38137,0.26053,-2.8173,-0.26328,-33.0,25.08,-30.3
2.6151,-14.914,-0.17706,0.15516,-2.7095,-0.000916,-32.82,24.36,-29.22
2.833,-12.939,0.7355,-0.50183,-1.5003,0.90103,-32.7,23.34,-26.64
2.6423,-12.054,1.2258,-0.89461,-0.27184,1.284,-32.64,22.98,-25.38
2.3155,-11.931,1.3348,-1.1927,0.88606,1.3115,-32.58,22.68,-24.36
1.2803,-11.455,0.20431,-1.3228,1.7385,0.91233,-31.98,22.2,-22.14
1.0896,-10.815,-0.24517,-1.2517,2.1664,0.22266,-31.68,21.9,-21.12
2.4108,-8.826,-0.01362,-1.0892,2.3778,-0.39554,-31.2,21.48,-18.84
3.0101,-7.7636,-0.054481,-0.81703,2.4755,-0.60537,-30.66,21.3,-17.76
3.2553,-6.9872,-0.12258,-0.61239,2.3808,-0.71532,-30.0,21.36,-16.56
3.228,-6.7693,-0.1362,-0.40439,2.0821,-0.76664,-28.38,21.54,-14.64
2.9011,-7.6546,0.054481,-0.2193,1.5837,-0.77672,-27.42,21.9,-13.8
2.6015,-9.0575,0.068102,-0.043066,0.99815,-0.70311,-26.28,22.08,-13.14
3.0101,-12.626,-0.42223,0.1686,0.18906,-0.20831,-23.58,22.86,-11.88
3.6775,-12.871,-0.95342,0.52198,-0.16616,0.31643,-22.2,23.22,-11.46
4.3313,-11.496,-1.1169,0.64904,-0.28344,0.624,-20.76,23.34,-11.22
4.6037,-10.951,-1.2939,1.0904,-0.60201,1.4187,-18.12,23.88,-10.44
4.2495,-11.155,-1.5119,1.3149,-0.9951,1.6466,-16.8,24.12,-10.2
4.2495,-10.542,-1.9068,1.456,-1.4597,1.66,-15.48,24.48,-9.9
3.8818,-9.0575,-3.0646,1.4181,-1.908,1.5174,-12.84,25.14,-9.36
1.9886,-8.2267,-4.7126,0.99449,-0.94012,1.3561,-11.82,25.5,-9.18
-0.54481,-7.5048,-5.8704,0.85155,0.095295,1.2449,-10.56,25.68,-9.18
-0.12258,-4.5356,-4.699,0.12889,1.7523,0.042455,-8.28,26.28,-8.94
2.1112,-3.1599,-3.1191,-0.146,0.93523,-0.77366,-7.2,26.4,-8.88
3.3506,-2.7241,-1.9613,0.046426,-0.24984,-1.1283,-6.3,26.82,-8.82
3.7184,-3.3915,-1.1169,0.2361,-1.5715,-1.1142,-5.34,27.36,-8.88
3.1191,-9.2482,-0.6674,-0.012217,-2.58,-0.64507,-4.02,27.66,-8.82
3.4187,-13.076,-0.50395,-0.17532,-2.616,-0.47281,-3.66,28.14,-8.82
3.6366,-15.119,-0.57205,-0.39645,-2.2733,0.30788,-3.54,28.26,-8.94
3.3506,-12.531,0.68102,-0.67256,-1.5146,0.79871,-3.3,28.68,-8.94
2.8875,-11.795,1.5255,-0.93523,-0.47037,1.055,-3.42,28.86,-8.82
1.4846,-12.408,0.85808,-1.1826,0.96395,0.77091,-3.84,29.1,-8.4
1.2395,-12.122,-0.054481,-1.1759,1.4444,0.12278,-4.08,29.34,-8.1
1.2803,-11.768,-0.43585,-1.1115,1.5941,-0.22113,-4.62,29.52,-7.8
2.152,-10.774,-0.29965,-0.99876,1.9111,-0.65118,-5.1,29.58,-7.5
2.5061,-9.5615,0.027241,-0.96975,2.4089,-1.0015,-5.94,29.52,-6.9
2.4925,-7.5321,0.38137,-0.97433,2.7113,-1.1387,-7.74,29.28,-5.4
2.3836,-7.5457,0.53119,-0.90775,2.8152,-1.2401,-8.88,28.98,-4.38
2.2474,-9.2618,0.57205,-0.79474,2.6814,-1.295,-10.62,28.14,-2.28
2.5061,-10.842,0.12258,-0.4835,1.9994,-1.022,-11.52,27.42,-0.84
4.0725,-12.572,-0.7355,-0.13592,1.3201,-0.57299,-12.24,26.88,0.66
4.8216,-12.258,-1.1169,0.25229,0.53512,-0.022907,-13.08,26.28,2.16
5.3256,-10.61,-1.185,0.63561,-0.16554,0.60048,-14.46,24.96,5.4
4.8352,-10.883,-1.1441,0.98624,-0.81489,0.95387,-14.94,24.36,7.02
4.304,-10.828,-1.4574,1.2459,-1.4129,1.0495,-15.36,23.76,8.64
3.6366,-9.221,-1.9341,1.4774,-2.3118,0.82375,-15.54,22.62,12.42
2.9284,-8.7987,-2.1793,1.3622,-2.737,0.62675,-15.18,22.26,14.34
2.3427,-8.3493,-2.2882,1.1344,-2.6209,0.32987,-14.58,21.9,16.14
-0.34051,-6.4969,-4.808,0.56688,-1.5537,-0.17013,-12.48,21.3,19.62
-1.8796,-5.0259,-4.9987,-0.32926,0.8995,-0.48686,-11.1,21.12,21.36
2.2065,-2.4653,-2.6832,-0.47922,1.1292,-1.1527,-8.34,21.0,24.72
2.5198,-3.1191,-1.58,0.047342,0.24587,-1.3317,-6.48,21.18,26.34
2.261,-4.7671,-0.8717,0.13836,-0.96883,-1.1988,-4.5,21.3,28.02
0.9398,-8.8532,-0.14982,-0.11118,-0.75472,-0.56749,-2.28,21.6,29.88
1.5119,-12.858,1.6753,-0.24984,-0.11851,-0.31307,2.64,22.38,33.84
1.8387,-15.228,2.2882,-0.44807,0.45815,0.13958,5.1,22.86,36.12
2.7104,-15.595,2.6287,-0.81642,1.423,1.1038,9.96,24.12,40.98
3.5277,-13.171,2.4789,-0.91172,1.9639,1.3854,12.12,24.72,43.8
3.6775,-12.217,2.2201,-0.84208,2.1848,1.335,14.1,25.44,46.74
3.6639,-11.809,1.7979,-0.74464,2.1072,1.1903,15.84,25.98,49.86
2.8603,-9.616,0.61292,-0.33659,1.4951,0.55864,18.42,27.42,56.52
2.6015,-8.1041,0.21793,-0.06353,1.222,0.135,19.44,28.26,59.82
2.7241,-6.7557,-0.39499,0.061392,1.2165,-0.18265,20.34,29.34,63.18
2.6832,-4.5083,-0.51757,0.052534,1.3405,-0.50183,20.88,31.68,69.6
2.2474,-4.1814,0.35413,0.0067195,1.3964,-0.65271,20.58,33.12,72.66
1.7162,-4.7535,0.8036,-0.014966,1.3851,-0.70433,19.62,34.62,75.48
1.471,-6.4424,1.2122,-0.13775,1.3592,-0.66981,18.18,36.06,77.94
1.8796,-12.871,0.58567,-0.27489,1.361,-0.3488,13.44,39.54,82.14
2.5334,-14.478,0.46309,-0.25779,1.39,0.18723,10.56,41.22,83.52
3.7728,-14.86,0.55843,-0.039706,1.4346,1.3473,7.26,42.96,84.3
5.2575,-11.577,0.50395,0.058948,1.5189,1.715,0.36,46.5,84.3
5.4481,-10.038,-0.38137,0.56108,1.547,2.3292,-3.0,48.66,83.58
5.6388,-9.902,-1.6344,1.0376,0.83933,2.1011,-6.3,50.88,82.5
5.489,-9.9973,-2.656,1.4694,-0.51954,1.5519,-9.36,53.16,81.0
4.3585,-9.7658,-2.5742,1.642,-1.7284,0.99785,-14.7,57.84,77.16
3.7047,-9.4934,-1.7843,1.0779,-2.2672,0.17593,-16.74,60.24,75.06
1.9613,-7.641,-0.46309,0.68906,-2.0052,-0.051313,-20.1,64.86,70.86
0.98067,-6.279,-0.068102,-0.25565,-0.55864,-0.50793,-21.06,67.14,68.7
0.51757,-5.4345,0.095342,-0.30452,0.39401,-0.77916,-21.84,69.48,66.48
0.12258,-6.3335,0.054481,-0.15424,1.1558,-0.87079,-22.56,73.56,62.1
0.36775,-8.4719,0.21793,-0.24465,1.7614,-0.81215,-22.74,75.66,60.0
1.2258,-11.509,0.40861,-0.85063,2.3967,-0.60903,-22.74,77.64,58.08
3.051,-14.07,2.6015,-1.7565,3.3842,-0.19334,-23.1,81.66,53.94
4.9306,-12.258,3.1191,-1.7495,3.5311,-0.025962,-23.34,83.46,52.2
5.5571,-11.536,3.051,-1.2938,3.3362,0.67226,-23.82,85.02,50.28
5.2438,-10.61,2.3836,-0.82956,2.419,0.70433,-25.5,87.96,47.16
4.0589,-9.7113,1.7979,-0.34544,1.3744,0.41539,-26.22,89.16,45.78
3.1463,-8.2131,1.2395,0.086132,0.66554,0.12981,-27.3,90.3,44.4
1.58,-7.6819,1.1713,0.33414,0.50793,-0.14111,-29.16,92.4,41.22
1.185,-7.7636,1.1713,0.28283,0.93371,-0.18143,-29.94,93.24,39.42
1.0896,-7.9679,1.076,0.20586,1.2214,-0.15272,-30.66,93.9,37.5
1.5119,-8.2676,1.1169,-0.11087,1.9994,0.038485,-30.96,94.5,35.58
2.7922,-8.0496,1.0624,-0.32803,2.1872,0.15424,-31.02,95.4,31.74
2.6287,-7.9951,1.0215,-0.44746,1.9545,0.16188,-30.54,95.58,29.82
2.1656,-8.9349,1.0351,-0.35919,1.6988,0.11606,-29.58,95.7,28.08
2.0294,-13.988,1.471,-0.21472,1.4481,0.11637,-26.7,95.64,24.96
2.8875,-18.251,1.4982,-0.095906,1.3305,0.28619,-24.84,95.46,23.46
4.1406,-19.45,1.9613,-0.048564,1.3659,0.43677,-22.8,95.28,22.08
4.985,-17.965,1.5391,-0.11912,1.3586,0.49297,-18.6,94.44,19.38
4.7671,-17.284,0.21793,0.38179,0.82467,0.1967,-16.38,93.96,18.12
1.5119,-15.35,-2.1248,0.64049,0.43952,-0.061697,-14.28,93.42,17.28
-0.027241,-13.988,-2.3427,1.1548,-0.46914,-0.83017,-10.38,92.46,15.84
-1.2395,-11.891,-1.5119,1.1683,-0.48594,-0.99663,-8.52,92.1,15.6
-1.4438,-10.733,-1.0896,0.54672,0.24496,-1.0473,-6.78,91.68,15.54
-1.362,-6.8238,-0.64016,-0.07086,1.2489,-0.82406,-3.36,90.96,16.26
-0.92618,-6.0202,-0.83084,-0.25107,1.9383,-0.72388,-1.98,90.9,17.04
-0.57205,-5.3528,-1.7979,-0.18876,1.9954,-0.85094,-0.96,90.6,18.12
0.16344,-5.3119,-1.7162,-0.27275,1.836,-0.72968,0.72,90.24,20.52
0.65378,-5.4481,-1.185,-0.43952,1.701,-0.33964,1.26,90.06,21.96
0.7355,-5.5843,-0.77636,-0.56505,1.5831,0.088575,1.86,90.06,23.28
0.84446,-6.1019,-0.19068,-0.68661,1.7385,0.26145,2.82,90.06,26.22
1.2258,-6.4288,-0.19068,-0.62308,1.9661,0.36072,3.12,90.24,27.6
2.2882,-8.3629,0.40861,-0.55803,2.1173,0.43371,3.9,90.18,29.64
2.6423,-9.6841,0.89894,-0.42669,2.1808,0.52473,4.32,90.18,30.42
3.2144,-11.141,1.2667,-0.31643,1.9505,0.55497,4.74,90.18,31.14
3.2825,-11.564,1.4438,-0.18906,1.9227,0.60995,5.28,90.18,31.62
3.7592,-12.0,1.6344,-0.038485,1.8778,0.62614,6.54,90.18,31.74
3.9227,-11.373,1.5119,0.13164,1.7874,0.54184,7.14,90.0,31.56
3.514,-11.264,1.362,0.35033,1.6286,0.38087,9.24,89.88,30.6
2.7649,-12.068,1.185,0.58765,1.4581,0.12004,10.5,89.76,29.94
2.6287,-12.34,1.0896,0.60048,1.4759,-0.032376,11.76,89.82,29.22
2.6696,-12.299,1.0351,0.51404,1.5461,-0.1631,12.84,89.7,28.32
3.2416,-10.992,0.14982,0.37446,1.5079,-0.24984,15.3,89.16,25.98
2.547,-10.215,0.38137,0.15913,1.3671,-0.37446,16.56,88.74,24.84
0.53119,-9.9565,1.0079,-0.2865,1.346,-0.66157,19.26,87.9,22.44
0.53119,-10.624,1.2667,-0.56658,1.584,-0.9279,20.58,87.3,21.3
-0.054481,-11.482,1.4438,-0.68478,1.7691,-1.007,21.72,86.58,19.98
0.28603,-12.64,1.866,-1.1454,2.3582,-1.0782,22.74,85.92,18.72
0.54481,-11.713,2.1384,-1.3387,2.5708,-1.1069,24.06,84.0,17.04
0.62654,-9.9292,1.5663,-1.2645,2.5131,-1.1023,24.54,82.86,16.26
0.21793,-8.2403,0.39499,-0.78191,2.1295,-1.1322,24.66,80.46,14.94
-0.081722,-7.5457,0.24517,-0.48808,1.846,-1.0675,24.54,79.14,14.34
-0.01362,-7.3141,0.19068,-0.37324,1.7611,-1.015,24.36,77.7,13.74
0.29965,-7.4776,0.42223,-0.22846,1.5614,-0.78985,23.82,76.2,13.26
1.5119,-8.3493,0.44947,-0.27092,1.4206,-0.57452,22.14,73.5,12.54
1.9613,-8.5672,0.31327,-0.37996,1.3256,-0.28711,21.0,72.12,11.94
2.2882,-8.7306,0.34051,-0.4609,1.1628,-0.10201,19.8,70.68,11.52
2.4108,-8.3493,0.1362,-0.4722,0.99693,0.045204,17.1,67.74,10.56
2.4789,-8.1041,0.1362,-0.37477,0.96456,0.066584,15.66,66.42,10.38
2.3836,-8.0632,0.20431,-0.28405,0.93585,0.042455,14.22,64.86,9.96
1.7298,-8.3901,0.40861,-0.21808,1.0421,0.04215,11.52,62.22,8.88
1.3484,-8.2131,0.76274,-0.24221,1.4209,0.029322,10.14,60.9,8.28
1.1713,-8.1722,0.96704,-0.32559,2.0217,0.061392,7.74,58.8,6.84
1.7434,-9.2891,0.61292,-0.36805,2.6878,0.082772,6.48,57.66,6.0
1.6753,-9.6977,0.40861,-0.3934,2.9315,0.21441,5.16,56.76,5.16
1.9477,-9.902,0.46309,-0.41142,2.9997,0.31704,4.08,55.8,4.5
2.9011,-10.842,0.36775,-0.31918,3.1716,0.57666,2.22,54.24,2.7
3.9499,-11.128,0.21793,-0.18967,2.8637,0.57818,1.32,53.46,2.04
4.9033,-11.278,-0.24517,0.0039706,1.9734,0.56047,0.54,52.74,1.38
5.8023,-11.496,-0.31327,0.26237,0.13134,0.61484,-1.08,51.6,0.06
4.9714,-12.149,-0.34051,0.33475,-0.73304,0.62247,-1.86,51.12,-0.96
4.0044,-12.871,-0.28603,0.32254,-0.93768,0.63041,-2.7,50.7,-1.8
3.5958,-13.321,-0.38137,0.043982,-1.1457,0.48869,-3.3,50.22,-2.46
2.4244,-10.147,-0.70826,-0.28619,-1.0037,0.22541,-4.92,49.62,-4.08
1.866,-9.5751,-0.95342,-0.50244,-0.75717,-0.25076,-5.76,49.2,-4.8
1.1305,-9.7794,-1.3757,-0.48808,-0.63988,-0.55803,-6.78,48.84,-5.28
0.24517,-10.188,-1.2531,-0.58765,-0.68845,-1.2031,-8.7,48.12,-6.06
0.27241,-10.297,-0.62654,-0.84116,-0.76114,-1.5907,-9.72,47.76,-6.36
0.69464,-10.406,-0.28603,-1.3189,-1.2281,-1.7681,-11.16,47.28,-6.36
1.9068,-10.188,0.54481,-1.5782,-2.4624,-1.8262,-14.22,46.26,-5.94
0.01362,-9.4117,1.6481,-1.4203,-4.893,-1.5522,-15.96,45.78,-5.34
-4.7671,-7.7636,2.833,-0.7083,-5.8597,-0.41172,-17.7,45.24,-4.38
-3.9908,-4.3449,3.1599,0.000916,-4.0674,1.0369,-21.0,44.28,-1.8
-3.4732,-4.8625,2.2474,0.13531,-1.2208,0.96333,-22.2,43.98,-1.8
-3.1327,-6.0202,2.3427,0.23732,0.46181,0.64874,-23.52,43.8,1.56
-1.5391,-6.6467,0.29965,0.11942,2.6017,0.98777,-25.98,43.44,5.16
-1.0896,-7.1507,0.38137,-0.043677,4.8811,0.29627,-27.06,43.32,6.66
2.261,-8.1858,0.92618,0.37018,3.6282,0.22816,-27.9,43.2,7.98
2.0158,-7.5457,-0.27241,0.45907,4.222,0.47831,-29.76,43.14,9.96
2.6423,-7.4776,-0.9398,0.67104,3.6698,0.43921,-30.48,43.2,10.62
3.4459,-6.9055,-1.3893,0.69242,2.6612,0.51343,-30.9,43.38,11.04
3.732,-6.1973,-1.8251,0.74556,1.5113,0.52595,-31.14,43.62,11.34
2.0294,-3.8409,-2.0567,0.67042,0.4777,0.26634,-31.2,44.16,10.74
1.5119,-3.0237,-1.6753,0.42638,-0.49114,-0.17043,-31.2,44.46,9.96
0.19068,-1.2803,-1.0624,0.21655,-0.61514,-0.27581,-31.26,44.7,9.06
-0.51757,-1.2667,-0.72188,0.1741,-0.53481,-0.50396,-32.1,44.76,6.9
-0.64016,-3.0782,0.28603,0.13622,-0.35216,-0.48778,-32.52,44.64,5.64
-0.31327,-4.3858,0.44947,0.13042,0.39248,-0.42883,-33.0,44.52,4.08
1.0488,-11.169,0.54481,-0.4609,0.99999,-0.26909,-34.02,43.74,1.26
1.975,-13.484,1.1169,-1.1222,1.7581,0.31734,-34.8,43.2,0.06
3.732,-16.59,1.58,-1.1982,1.8549,0.50213,-35.76,42.12,-1.92
4.6854,-17.407,1.1577,-1.3066,1.8332,0.83841,-36.18,41.52,-2.76
5.0668,-16.794,1.0624,-1.2721,1.5363,0.72907,-36.66,40.86,-3.42
4.5901,-15.418,1.2803,-1.2593,1.2123,0.3708,-37.32,40.14,-4.08
2.0567,-12.708,1.1169,-1.1933,1.0046,-0.15638,-38.28,38.76,-5.04
0.89894,-11.278,0.62654,-1.0617,1.1313,-1.0812,-38.82,38.04,-5.4
0.14982,-9.3163,-0.054481,-0.92638,1.3021,-1.2706,-39.6,36.48,-6.24
0.14982,-8.54,0.21793,-0.83689,2.0055,-1.4545,-40.08,35.7,-6.72
0.49033,-8.3901,0.54481,-0.83505,2.2309,-1.4389,-40.44,34.86,-7.14
2.547,-10.665,0.23155,-0.62919,2.6017,-1.2504,-41.04,33.18,-7.98
2.3291,-11.482,-0.31327,-0.32132,2.3082,-1.1527,-41.28,32.4,-8.34
2.5879,-12.721,-2.0022,0.033903,1.6493,-0.64721,-41.34,31.56,-8.76
2.8058,-12.776,-2.7377,0.51435,0.73121,-0.24221,-41.64,29.94,-9.78
3.9635,-13.171,-3.1463,1.0776,-0.489,0.5681,-41.76,29.04,-10.26
4.7126,-13.729,-2.9284,1.1716,-0.88942,0.86773,-41.94,28.38,-10.8
3.3642,-13.293,-1.9886,1.0146,-1.839,1.8482,-42.48,27.0,-11.52
1.2258,-11.278,-1.6072,0.60048,-1.996,2.2095,-42.66,26.52,-11.76
-0.1362,-9.0031,-1.3212,-0.25626,-1.4111,1.6609,-42.9,25.92,-11.88
-0.27241,-5.0531,-1.2803,-0.37049,-1.0556,0.34789,-43.02,25.74,-12.06
0.081722,-2.9148,-1.6753,-0.12553,-1.0632,-0.62156,-43.02,25.56,-12.18
0.095342,-2.0158,-1.7162,-0.146,-0.9838,-0.66462,-43.26,25.5,-12.06
0.095342,-0.76274,-1.3757,0.029932,-0.45112,-0.29627,-43.5,25.38,-11.76
0.8036,-0.83084,-1.2395,0.22174,-0.35583,-0.43249,-43.98,25.26,-11.16
1.1577,-2.9284,-1.2258,0.29749,-0.32254,-0.54336,-44.28,25.32,-10.8
1.7979,-7.5865,-0.76274,0.16157,-0.23396,-0.24038,-44.58,25.44,-9.78
2.3836,-10.706,-0.76274,-0.028711,-0.11484,0.1967,-45.0,25.38,-9.18
2.9148,-13.934,0.83084,-0.18112,-0.044899,0.43463,-45.24,25.26,-8.7
4.2223,-15.091,1.2803,-0.82345,0.1405,0.98869,-45.48,25.02,-7.74
4.2223,-13.961,1.1169,-1.1292,0.10263,1.0119,-45.72,24.9,-7.38
3.6094,-13.988,1.185,-1.2941,0.092546,0.84941,-45.9,24.66,-7.02
1.5527,-12.449,0.5993,-1.4025,0.15485,0.18234,-46.38,24.36,-6.42
0.77636,-10.801,0.16344,-1.3112,0.45326,-0.46334,-46.38,24.06,-6.06
0.57205,-9.5479,0.01362,-1.2596,0.72937,-0.73182,-46.44,23.76,-5.76
0.31327,-7.2324,0.01362,-1.08,1.8415,-1.1442,-46.56,23.58,-5.7
0.32689,-5.6661,-0.095342,-0.9166,2.3983,-1.2871,-47.04,23.22,-5.46
0.99429,-7.1234,-0.095342,-0.67653,2.627,-1.3928,-47.22,23.1,-5.28
1.6344,-11.891,-0.1362,-0.32162,2.2914,-1.146,-47.94,22.74,-5.28
4.0044,-14.751,-0.28603,-0.16646,1.6457,-0.63927,-48.18,22.44,-5.46
4.985,-14.478,-0.28603,-0.12798,1.2394,-0.34208,-48.48,22.08,-5.46
5.3528,-13.866,-0.21793,0.086132,0.14447,0.79138,-48.78,21.96,-5.52
4.9987,-12.735,-0.50395,0.31551,-0.44104,1.2083,-49.14,21.18,-5.58
4.3313,-11.645,-0.85808,0.56474,-0.93218,1.2825,-49.38,20.88,-5.58
2.7922,-8.4719,-1.471,0.83047,-1.4328,1.098,-49.5,20.04,-5.52
2.0839,-7.0009,-1.7434,1.0675,-2.0217,0.51862,-49.8,19.86,-5.4
1.3212,-5.489,-2.1112,1.0165,-2.0217,0.0045815,-49.86,19.62,-5.16
0.68102,-3.9908,-2.2474,0.75167,-1.6765,-0.42974,-49.98,19.5,-4.68
-1.8251,-2.3291,-2.7513,0.37232,-0.88301,-0.5959,-49.5,19.02,-3.42
-1.7706,-2.0839,-2.6968,0.20617,0.072388,-0.68356,-49.44,18.78,-2.88
-0.7355,-5.5299,-3.1054,0.0054978,0.45418,-0.63225,-48.96,18.18,-1.08
0.27241,-8.4038,-2.8739,0.027489,0.28253,-0.33475,-48.6,18.18,-1.08
1.5936,-12.803,-2.0431,0.15669,0.17746,-0.23763,-48.18,18.06,1.02
3.3915,-17.148,-1.2258,-0.038485,0.13103,0.19395,-47.64,17.82,2.04
6.1428,-15.187,0.85808,-0.45112,-0.099876,0.90775,-46.62,17.76,4.14
5.7614,-13.484,1.3484,-0.73212,-0.22816,1.4062,-46.2,17.76,5.16
4.7671,-12.912,0.29965,-0.81398,-0.44227,1.4035,-45.6,17.82,6.42
1.4982,-12.027,-0.50395,-0.66432,-0.57513,0.58154,-44.4,17.82,8.46
0.6674,-10.992,-0.78998,-0.56963,-0.53054,-0.17959,-43.62,17.88,9.42
0.8036,-9.7249,-0.46309,-0.56933,-0.3656,-0.44135,-42.72,18.06,10.2
1.1986,-7.4912,-0.027241,-0.71319,0.64935,-0.63438,-41.28,18.3,11.58
1.1986,-6.3198,0.21793,-0.80207,1.4997,-0.58796,-40.38,18.54,12.12
1.58,-6.6467,0.23155,-0.76541,2.0378,-0.59254,-39.6,18.84,12.66
1.8251,-7.2869,0.23155,-0.65637,2.1564,-0.5901,-38.7,18.96,13.08
2.9148,-11.863,0.095342,-0.48075,1.8931,-0.45784,-37.86,19.2,13.5
3.8954,-13.974,0.01362,-0.15027,1.0565,0.030543,-36.72,19.68,14.04
4.6173,-13.539,-0.081722,0.087354,0.46914,0.50488,-36.24,19.86,14.16
5.1349,-12.749,-0.28603,0.38149,-0.093768,0.95112,-35.64,20.1,14.4
4.4811,-11.7,-0.81722,0.71227,-0.69547,1.1442,-34.32,20.34,14.28
4.0316,-11.441,-1.1577,1.1484,-1.4377,1.0492,-33.72,20.58,14.22
3.0646,-10.488,-1.4165,1.2233,-1.6426,0.95173,-33.24,20.7,14.16
1.8932,-7.8317,-1.757,1.1939,-1.8421,0.5623,-32.4,21.06,13.92
1.4165,-6.2245,-2.0975,1.0113,-1.5989,0.28161,-31.74,21.18,13.8
1.0624,-4.7263,-2.5879,0.71532,-1.2242,0.014661,-31.2,21.48,13.56
0.69464,-3.1191,-2.8194,0.47861,-0.8998,-0.27886,-30.6,21.66,13.38
-0.24517,-1.4438,-2.2882,0.46212,-0.63255,-0.6072,-29.52,22.02,13.02
-0.31327,-1.9886,-2.0703,0.53695,-0.69089,-0.62827,-28.92,22.26,12.84
-0.17706,-4.0044,-2.1793,0.58521,-0.7816,-0.59132,-28.14,22.62,12.9
1.076,-10.91,-1.8115,0.68234,-1.0959,-0.28039,-26.88,23.22,12.84
1.6889,-15.119,-0.34051,-0.12798,-0.64141,-0.13836,-26.28,23.46,12.96
2.3291,-16.304,0.99429,-0.95967,-0.12492,0.25168,-25.68,23.64,13.14
3.4868,-13.103,0.92618,-1.6509,0.66951,0.71716,-24.78,24.24,13.56
3.4459,-12.354,0.25879,-1.6069,0.84666,0.70188,-24.24,24.42,13.8
2.8603,-11.972,-0.24517,-1.3335,0.9615,0.41081,-23.82,24.48,14.04
1.866,-11.632,-0.39499,-0.85674,0.6295,-0.37904,-23.4,24.54,14.16
0.77636,-9.8475,-0.43585,-0.66981,0.68875,-0.7929,-23.16,24.84,14.88
0.92618,-8.7715,-0.28603,-0.60079,1.0812,-0.95906,-23.1,24.96,15.24
1.5527,-7.4503,0.14982,-0.65393,1.6603,-0.94073,-22.98,25.2,16.14
1.7706,-7.4776,0.28603,-0.70799,2.1212,-0.94043,-23.28,25.2,16.38
1.8932,-7.8726,0.38137,-0.73151,2.1872,-0.92454,-23.58,25.26,16.62
2.0431,-9.5342,0.47671,-0.65576,1.7831,-0.73304,-23.94,25.2,16.98
2.8194,-13.021,-0.34051,-0.44349,1.2883,-0.34483,-24.66,24.96,17.64
3.9635,-14.56,-0.68102,-0.12462,0.64721,0.23274,-25.2,24.9,17.88
5.0123,-12.381,-0.57205,0.18815,0.1124,0.85827,-25.98,24.6,18.3
4.8897,-11.673,-0.68102,0.69272,-0.3937,1.4594,-26.4,24.6,18.6
4.5356,-10.869,-1.2258,0.98166,-0.76786,1.4847,-26.58,24.54,18.72
3.228,-7.7636,-1.8932,1.1335,-1.2507,1.1991,-26.76,24.3,19.14
2.2474,-5.5162,-1.8932,1.04,-1.6564,0.71716,-26.88,24.18,19.14
0.43585,-3.0782,-1.7298,0.71074,-1.7214,0.13103,-26.64,24.18,19.44
-0.91256,-0.54481,-1.5119,0.4609,-1.0892,-0.57085,-25.74,24.24,19.62
-1.3484,0.38137,-1.3484,0.56322,-0.59376,-0.75747,-25.02,24.24,19.92
-1.2667,0.027241,-1.0215,0.65973,-0.40959,-0.75625,-24.24,24.24,20.16
0.27241,-6.3879,-0.64016,1.2144,-0.023824,-0.70799,-22.5,24.78,20.64
1.6753,-12.653,-2.3563,1.2544,0.14325,-0.45021,-21.66,25.14,20.82
2.7649,-18.129,-0.20431,-0.46395,0.51374,0.027794,-20.58,25.62,21.06
3.4596,-13.007,1.4982,-1.0962,0.59376,0.68111,-18.66,26.46,21.54
3.1735,-13.184,1.8524,-1.7251,1.2016,0.94379,-17.82,26.88,21.78
2.7241,-13.511,1.7025,-1.8066,1.4038,0.89431,-17.04,27.24,22.08
2.0703,-12.027,0.89894,-1.6649,1.8506,0.19059,-16.26,27.66,22.26
0.92618,-6.7012,0.35413,-1.288,1.9633,-0.52993,-14.88,28.56,22.98
0.55843,-5.9657,0.8036,-0.87109,1.9853,-1.003,-14.7,28.86,23.22
0.62654,-6.5786,1.1577,-0.50121,2.0006,-1.2572,-14.7,29.52,23.88
1.1577,-12.04,1.0079,-0.16707,2.1261,-1.1927,-15.0,30.06,24.06
1.6208,-13.757,0.62654,0.26848,2.0812,-0.76114,-15.48,30.54,24.18
3.3234,-16.644,0.31327,0.36652,1.9615,-0.42577,-16.14,30.78,24.24
5.6388,-14.86,0.51757,0.46487,1.3891,0.89034,-17.28,31.62,23.82
5.8976,-12.898,-0.24517,0.55253,0.90133,1.6127,-18.0,31.98,23.46
5.6116,-11.25,-1.9341,0.80268,0.092241,1.8466,-18.6,32.28,23.16
3.7728,-8.9349,-2.7649,1.0589,-0.82986,1.7065,-19.44,33.0,22.02
2.5742,-7.1234,-2.7649,1.1356,-2.0791,1.0143,-19.74,33.6,21.54
1.6344,-6.1292,-2.4517,0.71685,-2.1878,0.42455,-19.86,34.02,20.88
-0.47671,-4.304,-1.975,0.16799,-0.99205,-0.1069,-20.04,34.68,20.16
-2.0567,-1.9205,-0.44947,-0.11332,0.10599,-0.56719,-19.86,35.64,18.78
-2.1248,-1.4165,0.28603,0.087354,1.2477,-0.8491,-19.74,36.36,18.0
-0.054481,-5.2711,1.076,0.62278,2.0568,-0.96333,-19.2,37.44,16.32
0.55843,-9.8203,-0.12258,0.41814,2.4502,-0.81276,-18.78,38.04,15.3
1.9341,-16.086,1.0624,-1.1371,2.9239,-0.33598,-18.24,38.76,14.22
5.2575,-15.173,1.7706,-1.2413,2.7623,0.2532,-17.58,39.96,12.24
6.8374,-12.735,2.7241,-1.3088,2.4862,0.98624,-17.16,40.44,11.34
6.8238,-12.122,3.1599,-1.0629,1.9221,1.3812,-16.74,41.04,10.26
3.5958,-11.863,1.6208,-0.43738,0.73334,0.85582,-16.14,42.0,8.22
2.1656,-10.651,0.96704,0.082467,0.11332,0.2025,-15.84,42.48,7.08
1.7025,-9.7794,0.8036,0.27397,-0.03207,-0.10079,-15.6,43.08,6.0
0.74912,-8.8941,0.96704,0.51771,0.4444,-0.64355,-15.36,43.92,3.36
0.40861,-9.0984,0.81722,0.49847,1.3274,-0.67623,-15.24,44.4,1.98
0.49033,-8.826,0.54481,0.37354,2.2174,-0.56413,-15.0,44.64,0.66
1.4846,-9.1937,1.0215,0.16982,2.9285,-0.31673,-14.52,45.3,-2.34
2.0022,-11.06,1.1577,0.022907,3.0058,-0.094073,-14.1,45.6,-3.54
2.3563,-14.124,1.7298,-0.18845,2.8026,0.15577,-13.62,45.66,-4.8
3.2689,-18.115,1.9613,-0.45448,2.4706,0.40867,-12.96,45.84,-6.12
5.8704,-19.463,2.0022,-0.67531,2.0772,0.53848,-11.16,45.9,-8.34
5.6661,-18.605,1.8932,-0.69394,1.6014,0.55589,-10.5,45.9,-9.6
2.2337,-17.952,0.83084,-0.49358,1.139,0.050702,-9.0,45.96,-11.34
0.44947,-15.214,0.21793,-0.076053,0.58674,-0.62094,-8.34,45.96,-12.12
-0.054481,-13.511,0.1362,0.13439,0.82528,-1.1319,-7.86,45.9,-13.02
0.14982,-8.9213,-0.38137,0.21808,1.4954,-1.1442,-6.9,45.84,-14.46
0.31327,-7.246,-0.68102,0.24312,2.2242,-0.92577,-6.42,45.84,-14.94
0.57205,-6.0883,-0.83084,0.27428,2.7052,-0.73762,-6.06,45.66,-15.42
1.185,-4.9306,-0.76274,0.18662,2.7978,-0.49052,-5.28,45.84,-15.96
1.6208,-4.7807,-0.6674,0.093157,2.5403,-0.40073,-4.86,45.78,-16.32
1.7706,-4.9306,-0.44947,0.014661,2.1628,-0.33934,-4.32,45.9,-16.44
1.8524,-5.0804,-0.21793,-0.085521,1.8302,-0.26023,-3.78,45.96,-16.38
1.866,-5.5162,-0.21793,-0.18876,1.7269,-0.18631,-3.66,46.2,-16.5
2.0567,-6.456,0.027241,-0.20708,1.8017,-0.12187,-2.94,46.32,-16.92
2.3291,-8.036,0.054481,-0.065057,1.9435,-0.050091,-2.46,46.26,-17.22
3.1327,-9.6704,-0.28603,0.219,1.748,0.020159,-1.8,46.26,-17.82
3.8682,-10.665,-0.16344,0.36438,1.3845,0.051618,-1.14,46.14,-18.12
4.127,-11.332,-0.027241,0.3992,1.219,0.054672,-0.48,46.08,-18.54
3.5822,-11.645,0.32689,0.30757,1.1286,-0.02474,0.18,45.84,-19.2
1.7298,-12.408,1.6481,0.067501,1.4371,-0.14783,1.74,45.66,-20.64
1.2667,-12.776,1.6753,-0.23854,1.9771,-0.34636,2.4,45.42,-21.3
1.6208,-13.893,1.1305,-0.48075,2.8729,-0.53451,3.3,45.12,-22.14
2.9965,-12.49,1.4029,-0.56994,3.0568,-0.55375,5.04,44.46,-23.76
2.8739,-11.169,1.8387,-0.77183,3.1991,-0.61972,5.88,44.1,-24.3
2.8739,-11.169,1.8387,-0.83658,3.1701,-0.66462,5.88,44.1,-24.3
1.2122,-10.392,1.9886,-0.94654,2.6508,-1.3057,7.62,43.5,-25.38
0.027241,-11.673,2.2201,-1.0088,2.5568,-1.482,9.42,43.02,-26.34
0.35413,-12.204,2.3836,-1.2462,2.781,-1.328,10.2,42.66,-26.82
1.4982,-10.733,2.4925,-1.4041,2.8897,-1.0647,11.64,42.18,-27.12
1.7298,-8.9894,1.4029,-1.306,2.7229,-0.78588,13.26,42.06,-26.7
1.4165,-8.2812,0.50395,-1.0351,2.4273,-0.54031,14.52,42.0,-26.1
0.8036,-8.3084,0.23155,-0.7761,2.1249,-0.44104,15.6,41.94,-25.5
0.55843,-8.322,0.040861,-0.62614,2.021,-0.36682,16.5,42.18,-24.72
0.50395,-8.3493,0.027241,-0.63835,2.1142,-0.25687,16.92,42.36,-24.3
0.8036,-8.6081,0.44947,-0.88148,2.4957,-0.078496,17.88,42.54,-23.46
1.5527,-8.8124,0.89894,-1.1121,2.795,0.061697,18.36,42.42,-22.26
2.6287,-8.431,0.58567,-1.1988,2.8558,0.17349,19.44,42.42,-21.36
3.228,-8.1586,0.095342,-1.113,2.6182,0.20372,19.98,42.36,-20.58
2.9011,-7.6274,0.35413,-0.91477,2.1695,0.21777,20.94,42.24,-19.86
2.5198,-7.3958,0.47671,-0.66706,1.7614,0.16524,21.42,42.12,-19.32
2.1112,-7.7772,0.64016,-0.39462,1.5461,0.10446,22.5,41.88,-18.0
2.1384,-8.3765,0.5993,-0.12004,1.4239,0.15791,23.52,41.76,-16.8
2.4517,-9.0439,0.57205,-0.040012,1.3659,0.28069,24.48,41.28,-16.2
2.7241,-9.1665,0.47671,-0.0085521,1.3094,0.46273,24.96,41.16,-15.78
2.9556,-9.8066,0.61292,-0.0061087,1.1869,0.63683,26.22,41.04,-15.36
2.9965,-10.474,0.69464,-0.035736,1.0226,0.78649,27.06,40.8,-15.0
3.0782,-10.924,0.6674,-0.041844,0.8937,0.90805,27.6,40.74,-14.94
3.3097,-11.55,0.35413,-0.018937,0.82131,1.0006,28.74,40.08,-14.94
3.7047,-11.795,0.01362,0.062614,0.70708,1.0791,30.06,39.36,-15.3
3.5822,-12.476,-0.095342,0.14294,0.60842,1.0788,30.72,38.94,-15.54
3.4459,-13.934,-0.027241,0.14569,0.54795,1.062,31.98,37.86,-16.44
3.3097,-12.898,0.095342,0.0048869,0.54764,0.94379,33.6,36.36,-17.52
3.3506,-11.441,-0.040861,-0.1857,0.56658,0.67531,34.44,35.52,-18.36
3.0782,-8.8668,-1.0079,-0.24648,0.51496,0.25137,36.42,33.18,-20.46
0.72188,-7.7636,-1.7706,-0.037568,0.21838,-0.63133,38.04,30.42,-24.12
-1.8251,-8.1995,-1.5255,0.0048869,0.2364,-1.1246,38.64,26.82,-29.7
-2.6968,-8.7715,-1.0624,-0.1069,0.62033,-1.4398,38.22,24.66,-33.0
-2.4789,-9.4798,-0.61292,-0.42272,1.3928,-1.58,34.44,20.46,-39.72
-0.70826,-9.3708,-0.21793,-0.81123,2.211,-1.493,27.78,16.68,-45.78
0.54481,-8.7443,-0.47671,-1.091,2.7184,-1.1939,19.98,14.1,-49.98
0.96704,-8.3901,-0.61292,-1.2095,2.8167,-0.78374,15.78,13.2,-51.42
1.3348,-7.641,-1.1441,-1.0101,2.1432,-0.35033,7.02,12.12,-52.68
1.3893,-7.0962,-1.5119,-0.70555,1.2819,-0.25168,-2.04,12.3,-52.26
1.4574,-7.1915,-1.6481,-0.31154,0.36408,-0.23763,-10.8,13.26,-48.84
1.0624,-7.4231,-1.7706,0.055894,-0.45173,-0.24587,-17.94,15.3,-42.54
0.96704,-7.6546,-1.6208,0.37965,-0.96364,-0.064752,-22.62,18.54,-34.02
0.96704,-7.7227,-1.4438,0.4218,-1.0513,0.002138,-23.58,19.92,-29.28
0.58567,-7.8998,-1.3893,0.41386,-1.0663,0.22571,-23.28,22.98,-20.46
0.69464,-7.8317,-1.4438,0.36285,-1.0049,0.3204,-22.44,24.18,-16.32
0.77636,-7.1779,-1.6344,0.3372,-0.91172,0.36866,-19.8,26.1,-9.06
0.61292,-5.38,-1.9886,0.33262,-0.7984,0.41294,-16.5,27.6,-3.0
0.76274,-3.8818,-2.1929,0.3769,-0.77122,0.36316,-12.9,28.62,1.98
0.62654,-3.0373,-2.2882,0.38454,-0.84238,0.23976,-10.92,29.04,4.02
0.68102,-1.3484,-2.1656,0.28558,-1.2401,-0.000305,-6.96,29.88,7.44
0.58567,-0.57205,-1.7706,0.30543,-1.5824,-0.31001,-3.18,30.66,9.96
-0.68102,-0.99429,-0.84446,0.21777,-1.7239,-0.41814,0.84,31.14,11.46
-0.7355,-2.0294,-0.27241,0.14172,-1.5754,-0.25717,2.76,31.38,12.12
-0.10896,-6.3471,0.89894,0.2022,-1.2065,-0.16432,6.66,32.04,13.02
0.85808,-12.83,0.76274,-0.48381,-0.46853,0.22297,10.02,32.46,13.26
1.5119,-15.023,1.6753,-1.416,0.085216,0.59376,11.7,32.82,13.26
3.0237,-16.549,1.6344,-1.6081,0.33537,0.76541,14.34,33.3,13.62
4.1406,-17.039,1.5119,-1.7205,0.47434,0.91599,16.86,33.78,14.04
3.6366,-15.187,1.2531,-1.617,0.49327,0.80146,19.14,33.9,14.46
2.8058,-14.247,1.2531,-1.4722,0.49388,0.42547,21.12,34.08,15.18
1.1169,-12.354,1.0079,-1.2645,0.58002,-0.14813,21.96,34.02,15.6
-0.38137,-9.5479,0.95342,-1.0263,0.94409,-1.1252,23.04,34.26,16.62
-0.58567,-8.7851,0.69464,-0.87384,1.3803,-1.4505,23.82,34.08,17.64
0.76274,-10.637,0.25879,-0.64385,1.7898,-1.5653,23.94,33.96,18.9
1.5936,-12.926,0.25879,-0.37141,1.9303,-1.5278,23.88,33.72,19.56
3.3778,-15.895,-0.16344,-0.18387,1.7651,-1.1716,23.64,33.48,20.52
3.9908,-15.159,0.027241,-0.041233,1.3598,-0.4835,22.92,33.42,21.78
3.8682,-14.043,-0.16344,0.16829,0.35216,0.48503,22.32,33.48,22.14
3.7047,-12.544,-1.2803,0.50671,-0.31032,0.74892,21.24,33.48,22.74
2.8603,-9.8203,-2.3155,0.8433,-0.91599,0.81734,20.34,33.66,22.92
2.1112,-8.3765,-2.6696,0.89003,-1.5174,0.748,20.16,33.6,22.8
-1.4438,-4.3313,-2.8875,0.53512,-1.8476,0.79779,19.92,33.66,22.44
-5.4345,-1.8387,-4.2768,-0.18754,0.30116,0.51038,20.16,33.54,21.9
-6.8783,-0.14982,-4.1542,-0.33384,2.1356,0.12126,20.46,33.48,21.6
-0.44947,0.095342,-2.1248,-0.07758,2.0049,-0.47678,21.06,33.42,21.3
1.4982,-1.3484,-1.5936,0.13622,1.1622,-0.87934,21.36,33.42,21.12
2.4789,-6.1973,-0.99429,0.25901,0.22327,-0.77061,22.26,33.48,20.64
3.7728,-13.402,0.54481,0.16493,-0.23885,-0.38607,23.46,33.36,20.16
4.0452,-14.478,1.076,-0.11148,-0.50855,0.47922,24.0,33.54,19.86
4.0316,-14.342,1.3212,-0.59101,-0.8094,0.97525,25.02,33.96,19.38
3.7728,-14.274,0.92618,-0.73365,-0.81489,1.0846,25.86,34.38,19.26
3.3234,-14.247,0.72188,-0.7703,-0.71319,0.967,26.4,34.56,19.26
2.4653,-13.307,0.14982,-0.7532,-0.58704,0.69394,27.24,35.22,18.9
1.3757,-10.501,-0.16344,-0.72143,-0.34636,0.22174,28.26,35.82,18.48
0.95342,-7.8726,-0.19068,-0.72907,0.49388,-0.52962,29.16,36.42,17.76
0.70826,-6.5241,0.1362,-0.75533,1.2648,-0.83933,29.58,36.6,17.34
0.78998,-6.7693,0.40861,-0.69242,1.8864,-1.0177,30.06,36.9,16.44
1.6753,-10.692,0.57205,-0.56749,2.1991,-1.0748,30.3,37.2,15.96
2.0431,-12.354,0.40861,-0.43982,2.1713,-0.93004,30.24,37.32,15.66
3.2961,-15.091,0.17706,-0.20372,1.8323,-0.5452,30.0,37.56,15.24
4.8761,-14.819,0.28603,0.017715,1.3018,0.082467,29.28,37.86,14.82
5.3256,-12.858,-0.10896,0.40287,0.54764,1.1515,28.5,38.04,14.4
4.9714,-11.632,-0.36775,0.74587,-0.13775,1.3977,27.96,38.16,14.28
3.5685,-8.0769,-1.4982,1.0861,-0.8436,1.3314,27.3,38.28,13.44
1.3076,-4.9169,-2.4244,1.3598,-1.5559,1.029,26.64,38.22,12.48
-0.50395,-4.1814,-3.8001,1.4221,-1.836,0.65882,26.34,38.16,12.06
-4.3177,-3.1054,-5.4073,1.0941,0.54947,0.62247,26.34,38.16,10.8
-0.24517,-1.9886,-4.1542,0.65546,0.79871,0.054062,26.28,37.98,9.48
2.152,-1.9886,-3.1463,0.63377,0.014661,-0.34453,26.4,37.8,8.82
2.5879,-3.5277,-1.7025,0.65454,-0.73731,-0.27886,26.46,37.62,7.14
3.2144,-8.6625,-0.054481,0.76175,-1.5125,-0.025045,26.7,37.56,5.46
3.8818,-17.025,0.20431,0.62094,-2.1759,0.16402,26.82,37.38,3.42
3.7728,-18.905,0.77636,-0.66371,-2.3582,0.51893,26.7,37.5,2.52
2.8058,-15.636,1.5119,-1.1802,-2.4404,0.90133,26.4,37.8,0.84
2.3972,-13.988,1.866,-1.8256,-1.2037,1.0372,26.28,37.8,0.3
1.0215,-12.585,1.7843,-1.7715,0.0024435,0.7532,25.98,38.1,-0.96
-0.61292,-10.774,0.36775,-1.5287,1.0339,0.11576,25.68,38.58,-1.68
-0.5993,-8.2539,-0.28603,-1.1289,1.8757,-0.64294,25.32,39.0,-2.1
0.1362,-7.1098,0.027241,-0.76755,2.5895,-1.0467,25.14,39.18,-2.04
1.2258,-6.7693,0.96704,-0.53817,3.1637,-1.3011,24.3,39.78,-1.86
2.1929,-9.3163,0.99429,-0.24404,3.2193,-1.347,23.46,40.2,-1.26
2.7241,-10.91,0.76274,-0.066584,2.8054,-1.1625,22.98,40.5,-0.72
4.6718,-14.356,-0.35413,0.064752,1.9004,-0.79046,21.78,41.34,0.48
5.3392,-13.92,-0.72188,0.21869,0.60964,-0.22877,21.06,41.58,1.2
6.0474,-12.463,-1.0624,0.42761,-0.65485,0.41661,20.34,41.82,1.62
5.0804,-11.441,-1.185,0.67195,-1.5815,0.87476,18.84,42.48,2.76
3.9771,-10.76,-1.2667,0.8885,-2.2779,1.0486,18.06,42.6,3.0
2.6151,-9.4389,-1.4982,1.0137,-2.8555,0.87568,17.46,42.9,3.12
0.76274,-7.641,-1.7843,0.97066,-2.8118,0.50152,16.02,43.26,3.0
-0.69464,-6.9191,-2.6968,0.81215,-1.4679,0.06353,15.48,43.5,2.7
-2.4925,-4.6309,-3.4868,0.42394,-0.49388,0.039706,14.4,43.92,1.98
-0.44947,-3.4459,-2.5606,0.043371,0.3262,-0.10629,13.86,44.04,1.56
0.83084,-2.9284,-2.1248,0.007025,0.36621,-0.47128,13.44,44.28,1.02
0.51757,-4.127,-1.1986,0.089186,-0.1799,-0.56322,12.42,43.98,0.18
0.95342,-6.6059,-0.61292,0.2474,-0.55711,-0.45601,12.06,43.68,-0.36
1.8524,-12.871,-0.92618,-0.056505,-0.62889,-0.36133,11.76,43.62,-0.96
3.3642,-16.249,-0.53119,-0.66554,-0.50366,-0.059254,10.74,43.38,-2.22
3.228,-13.062,0.74912,-0.99296,-0.39095,0.26512,10.32,43.14,-2.76
3.0237,-12.299,1.1441,-1.1716,-0.095295,0.53512,9.9,43.02,-3.18
2.1248,-11.645,0.027241,-1.004,0.48045,0.35522,9.12,42.48,-3.84
1.6753,-11.25,-1.185,-0.64507,0.6182,-0.044899,8.88,42.54,-3.96
1.4846,-10.515,-1.6072,-0.35216,0.65301,-0.41722,8.52,42.48,-3.9
1.4165,-8.7579,-0.36775,-0.32956,1.0314,-0.6072,7.74,42.0,-4.02
1.2395,-7.7636,0.19068,-0.44532,1.2602,-0.60781,7.26,41.88,-4.14
1.3757,-6.8102,0.42223,-0.7138,1.7581,-0.61392,6.84,41.64,-4.26
1.7706,-6.6059,0.28603,-0.76938,1.9154,-0.69516,6.54,41.64,-4.38
2.547,-10.488,-0.19068,-0.6521,1.5815,-0.65699,5.88,41.52,-4.8
3.7865,-14.547,-0.54481,-0.43799,1.0498,-0.38026,5.46,41.46,-4.86
4.2359,-14.914,-0.47671,-0.10904,0.11606,0.24893,5.22,41.4,-4.74
4.3994,-12.626,0.040861,0.022907,-0.10354,0.53298,5.04,41.4,-4.98
4.5356,-12.313,-0.40861,0.55589,-0.4667,1.1606,4.8,41.46,-5.16
4.2359,-11.223,-1.3348,0.96608,-0.88667,1.1454,4.56,41.58,-5.34
3.9227,-9.8611,-1.8932,1.2947,-1.5006,0.88087,4.32,41.88,-5.76
2.2882,-4.9987,-2.6968,1.3806,-2.0433,0.4725,3.72,41.7,-6.66
0.78998,-3.2825,-2.4789,0.74831,-2.1295,-0.24129,3.48,41.7,-7.08
-2.4789,-0.20431,-1.7298,0.50732,-1.9517,-0.4725,2.88,41.7,-7.92
-3.7728,0.44947,-1.3757,0.34086,-0.79351,-0.86376,2.52,41.58,-8.4
-3.3915,-0.38137,-1.1577,0.59682,-0.054978,-0.76358,2.04,41.4,-9.0
0.19068,-8.1586,0.21793,1.0247,0.28802,-0.71563,1.2,40.86,-10.26
2.152,-16.739,-1.6344,0.46823,0.51832,-0.46945,0.84,40.5,-11.04
4.1133,-19.191,0.19068,-1.0146,0.79199,0.49724,0.42,40.02,-11.76
5.1213,-12.953,1.3757,-1.5296,0.64446,1.138,0.42,39.48,-12.24
4.9578,-12.272,1.471,-1.5379,0.69852,1.2822,-0.42,38.7,-12.84
3.7456,-11.727,0.6674,-1.1353,0.50916,0.77702,-0.84,38.16,-13.32
1.4029,-9.2346,-0.92618,-0.70372,0.22297,0.014661,-1.8,36.36,-14.22
0.81722,-7.1915,-0.7355,-0.43371,0.1686,-0.72724,-2.28,35.58,-14.4
0.57205,-5.2575,0.31327,-0.42394,0.51496,-1.1573,-2.76,34.92,-14.4
0.62654,-6.4016,0.99429,-0.48289,1.2214,-1.3164,-3.66,33.3,-14.28
0.8036,-9.0031,1.1441,-0.5284,1.8943,-1.3549,-3.9,32.46,-13.8
0.91256,-10.61,1.1032,-0.63408,2.4227,-1.1044,-4.08,31.62,-13.26
2.9011,-17.189,0.62654,-0.58918,2.4587,-0.51924,-4.26,30.24,-11.7
4.522,-16.753,0.89894,-0.56444,2.2675,0.15394,-4.38,29.76,-10.56
5.203,-14.329,1.2531,-0.50855,2.2031,1.0088,-4.44,29.22,-9.3
5.2847,-13.28,0.23155,-0.015272,1.9254,1.6961,-4.56,28.56,-6.72
4.9033,-12.19,-1.58,0.56749,1.2007,1.5528,-4.68,28.5,-5.22
4.1133,-10.924,-2.7104,0.89278,0.62919,1.3882,-4.62,28.14,-3.9
2.6015,-9.5206,-3.1327,1.605,-0.79077,0.98349,-4.5,28.02,-0.72
2.0431,-8.6762,-3.1054,1.726,-0.75595,0.68386,-4.26,28.14,0.66
0.92618,-6.7012,-3.5822,1.1469,-0.16402,0.27092,-4.02,28.08,1.86
0.25879,-3.4596,-2.6968,0.33048,0.64843,-0.069028,-3.6,28.38,4.32
-0.040861,-1.2531,-1.7979,-0.060781,1.0788,-0.42547,-3.3,28.5,5.64
-0.20431,-0.72188,-1.0215,-0.0085521,1.2642,-0.58002,-3.24,28.8,6.84
0.12258,-1.471,-1.0215,0.43494,1.2752,-0.67531,-3.18,29.16,7.98
1.7025,-5.8159,0.64016,0.75961,1.0223,-0.71746,-3.3,30.48,10.26
2.8875,-10.392,-0.35413,0.91019,0.58613,-0.53909,-3.6,31.26,11.22
4.3177,-18.21,0.8717,-1.7984,0.7251,0.63163,-4.5,33.12,12.78
4.6445,-14.465,2.1248,-1.8033,0.68845,0.97616,-4.92,34.08,13.62
4.7671,-12.967,3.0101,-1.6518,1.4499,1.6805,-5.64,35.28,14.46
4.9306,-11.441,2.6968,-1.1041,1.6319,1.5916,-7.2,37.8,16.2
4.1133,-10.283,1.6344,-0.53084,1.3586,1.1051,-7.98,38.94,17.04
2.7377,-9.616,0.76274,0.068111,0.89797,0.47006,-8.7,40.26,18.3
1.4301,-10.665,1.3893,0.54886,0.85735,-0.29719,-10.02,43.08,20.34
0.84446,-10.665,1.4301,0.53359,1.336,-0.65912,-10.68,44.88,21.06
0.6674,-10.161,1.2803,0.37354,1.9505,-0.78741,-11.16,46.56,21.84
1.2803,-9.7385,1.1713,0.23335,2.3534,-0.7141,-12.18,49.32,22.98
1.6753,-11.046,1.2531,0.15058,2.4813,-0.56474,-12.54,50.82,23.52
1.9068,-13.634,1.4029,0.036346,2.4062,-0.26756,-12.6,52.2,24.06
4.522,-18.96,1.7025,-0.11179,2.1787,0.25748,-12.24,54.84,24.84
5.1349,-19.286,1.9205,-0.49786,1.5785,0.562,-11.88,56.16,25.14
4.9987,-17.461,2.0703,-0.57208,1.1894,0.67042,-11.4,57.24,25.62
2.833,-16.208,0.46309,-0.29108,0.81398,0.34636,-9.84,59.34,26.34
1.3212,-15.268,-0.64016,0.17349,0.38912,-0.34361,-8.82,60.54,26.82
0.64016,-13.906,-0.9398,0.52046,0.33872,-0.92027,-7.86,61.8,27.24
0.69464,-10.569,-0.7355,0.63561,0.74953,-1.0363,-5.7,63.96,28.32
0.70826,-9.5615,-0.74912,0.49144,1.6591,-0.71624,-4.56,65.04,28.98
0.92618,-7.8998,-1.0624,0.44196,1.8665,-0.60384,-3.48,66.18,29.76
1.4029,-6.2517,-1.7025,0.30757,1.89,-0.40836,-0.54,68.34,31.68
1.1441,-5.2302,-2.0022,0.26786,1.5455,-0.4722,0.96,69.12,32.7
0.77636,-4.699,-2.1112,0.17623,1.1637,-0.41478,2.52,70.02,33.78
0.61292,-4.4811,-1.5663,0.1463,0.94318,-0.20983,5.82,71.46,35.88
0.51757,-4.7399,-1.5527,0.1295,0.8604,-0.090408,7.56,72.18,36.72
0.46309,-4.9578,-1.5119,0.11545,0.92546,-0.050396,9.24,72.96,37.26
0.76274,-7.0145,-1.3212,0.10568,1.0122,-0.009163,12.42,74.34,38.04
1.0896,-8.5127,-1.0079,0.055589,1.1258,0.029627,13.74,74.76,38.16
1.6753,-10.052,-0.40861,-0.036957,1.3332,0.099876,15.18,74.94,38.04
2.8875,-12.258,0.84446,-0.16921,1.5718,0.20769,17.94,75.3,37.2
3.2825,-12.068,1.1577,-0.4725,1.6667,0.45601,19.2,75.18,36.6
3.8954,-12.204,1.5391,-0.48655,1.5192,0.41966,20.4,74.88,35.94
2.5198,-13.348,1.5663,-0.22694,1.2373,0.048869,22.44,74.34,34.14
2.1793,-14.942,1.4438,-0.089797,1.255,-0.1124,23.58,73.92,33.06
2.5742,-14.383,1.6072,-0.085521,1.5388,-0.13561,24.42,73.5,32.04
2.9011,-12.939,1.8251,-0.23457,1.7984,-0.20036,25.74,72.66,30.48
1.58,-8.1177,1.8796,-0.31887,1.751,-0.58002,26.16,71.94,29.88
0.8717,-8.0769,1.6344,-0.25229,1.5641,-0.93279,26.46,71.28,29.52
-0.24517,-9.1801,1.4574,-0.27489,1.5201,-1.0504,26.7,70.5,28.98
0.49033,-12.054,2.6015,-0.5681,1.7465,-1.0757,26.88,69.0,28.38
1.0351,-12.64,3.514,-1.0281,2.1124,-0.86193,26.7,68.34,28.26
1.0215,-12.095,4.3449,-1.4557,2.3903,-0.65821,26.4,67.62,28.38
0.57205,-9.4798,3.4051,-1.5186,2.4859,-0.65454,25.5,66.0,29.1
0.58567,-8.5127,2.3427,-1.3219,2.3961,-0.73334,25.08,65.28,29.52
0.5993,-8.4174,1.6208,-0.65699,1.6634,-0.8995,24.42,64.62,30.06
0.068102,-8.3084,1.5255,-0.38912,1.4239,-0.83963,22.8,63.18,31.2
-0.19068,-8.1586,1.7298,-0.30055,1.6506,-0.73884,21.9,62.46,31.86
0.24517,-8.2267,2.0294,-0.42822,2.2025,-0.53145,20.82,61.68,32.46
1.6753,-8.5536,1.8251,-0.65332,2.5308,-0.2868,18.36,60.42,33.6
2.2201,-8.6081,1.3757,-0.68173,2.4743,-0.22205,17.04,59.64,34.08
2.7241,-8.6353,1.1441,-0.67012,2.1588,-0.098349,15.6,59.04,34.8
2.8058,-8.5536,1.1169,-0.53481,1.6606,0.15547,12.72,57.84,36.12
2.6968,-8.4855,1.1169,-0.43707,1.6539,0.2868,11.34,57.24,36.84
2.4517,-8.3765,1.2803,-0.35858,1.9334,0.31643,10.02,56.16,37.74
2.1112,-8.1177,1.3212,-0.29932,2.7235,0.31093,7.56,55.74,38.1
2.2337,-8.1586,1.2803,-0.19853,3.0953,0.25595,6.3,55.26,38.34
2.4789,-8.3084,1.1169,-0.16218,3.1988,0.26237,4.98,54.84,38.46
2.9556,-9.0439,0.96704,-0.0027489,3.3436,0.33995,2.34,54.06,38.58
3.5685,-9.5887,0.85808,0.11545,3.2318,0.4835,1.08,53.76,38.34
3.8409,-10.311,0.64016,0.27153,2.9233,0.58185,-0.3,53.4,38.28
4.7399,-11.128,0.027241,0.57696,2.1044,0.74159,-2.82,53.16,37.8
5.8976,-11.836,-0.19068,0.80817,1.1481,0.75228,-3.9,53.04,37.32
6.1564,-12.136,-0.44947,0.93187,0.28986,0.75656,-4.62,53.04,36.66
4.8761,-11.795,-0.54481,0.79565,-0.17349,0.85491,-6.0,52.86,35.16
3.9363,-11.768,-0.12258,0.50702,-0.38668,0.73212,-6.42,52.92,34.32
2.4789,-12.231,0.01362,0.17165,-0.3543,0.49175,-6.6,52.98,33.54
0.5993,-12.272,0.53119,-0.27886,0.43768,0.091935,-6.72,53.04,32.16
0.5993,-11.278,0.65378,-1.0366,1.3014,-0.2474,-6.72,52.92,31.2
0.7355,-10.447,0.78998,-1.2037,1.6851,-0.37629,-6.3,52.86,30.6
0.91256,-9.6568,0.89894,-1.3836,2.0195,-0.82345,-6.0,52.68,30.06
0.50395,-10.188,0.62654,-1.2388,1.5858,-1.0855,-4.8,52.44,29.28
-0.12258,-10.774,1.1577,-1.208,0.86437,-1.2495,-3.84,52.02,28.74
-1.471,-9.6704,1.8115,-1.2929,0.2645,-1.2715,-1.86,50.88,27.66
-2.2201,-8.1995,1.471,-1.2068,0.13714,-1.0431,-0.96,50.28,27.18
-2.4789,-7.5865,1.0624,-1.0751,0.3207,-0.92057,-0.06,49.44,26.76
-2.3155,-7.0281,0.78998,-0.62675,0.63683,-0.44135,0.78,48.48,26.22
-1.3348,-6.6059,0.5993,-0.32437,1.2465,0.0054978,1.74,46.8,24.78
-0.12258,-6.9736,0.42223,-0.095906,0.91996,0.15088,1.92,45.84,24.0
0.64016,-7.246,0.095342,0.07758,0.64232,0.31948,1.8,44.94,23.04
1.2531,-7.4776,0.12258,0.16157,0.39431,0.36285,1.56,43.98,21.96
1.0215,-7.7772,-0.61292,0.48747,-0.58368,0.56077,0.72,41.88,18.24
1.0215,-7.7772,-0.61292,0.48747,-0.58368,0.56077,0.72,41.88,18.24
0.70826,-8.322,-0.64016,0.50335,-0.53359,0.562,-0.24,40.74,15.54
1.4574,-9.0031,-0.58567,0.44043,-0.686,0.43707,-0.96,40.32,14.1
0.76274,-8.3765,-0.96704,0.29108,-0.40042,0.41203,-2.46,39.9,11.22
1.2395,-8.4582,-0.81722,0.18784,-0.044899,0.52931,-3.18,39.78,9.96
0.99429,-7.2188,-0.7355,-0.024129,0.059865,0.3091,-4.8,40.08,7.32
0.25879,-5.094,-0.58567,-0.19853,0.040012,0.051007,-5.52,40.2,6.24
-0.095342,-4.0044,-0.47671,-0.44043,0.21228,-0.3094,-6.42,40.26,5.22
-0.5993,-1.1577,-0.31327,-0.44776,0.30421,-0.47861,-8.1,40.68,3.36
-0.57205,-0.21793,-0.23155,-0.34422,0.22297,-0.59804,-8.82,40.86,2.46
-0.68102,0.1362,0.095342,-0.25656,0.16127,-0.65546,-10.74,41.04,0.96
-0.040861,-1.1577,0.6674,-0.18082,0.13775,-0.54856,-11.7,40.98,0.12
0.31327,-3.6503,0.76274,-0.12828,0.18021,-0.46151,-12.78,40.92,-0.78
1.3076,-8.7443,1.3484,-0.40287,0.41814,-0.19273,-15.0,40.5,-2.7
2.1248,-13.062,1.7706,-0.48991,0.47525,0.19059,-16.32,40.08,-3.54
2.9148,-16.44,1.975,-0.55955,0.42761,0.54275,-17.52,39.66,-4.32
4.522,-18.673,2.2882,-0.71227,0.32162,0.78802,-19.98,38.52,-6.12
4.4402,-16.93,2.6832,-0.91508,0.31215,0.75778,-21.3,37.8,-6.96
3.8954,-15.99,2.8603,-0.99724,0.3207,0.66187,-22.56,36.96,-7.74
1.9477,-14.833,2.3155,-1.0024,0.45784,-0.014355,-23.76,36.48,-8.4
-0.6674,-13.116,0.77636,-0.86224,0.81062,-0.67378,-25.86,34.98,-9.66
-0.92618,-11.278,0.50395,-0.72235,1.5461,-1.0776,-27.0,34.32,-10.26
-0.28603,-8.1177,0.62654,-0.67684,2.354,-1.0531,-29.04,32.7,-11.22
0.76274,-6.9872,0.74912,-0.48747,2.9993,-0.92424,-30.0,31.92,-11.88
1.2258,-7.355,0.62654,-0.197,2.8756,-0.77091,-30.78,31.14,-12.36
1.8932,-9.3708,-0.068102,0.13531,2.1356,-0.44166,-31.5,30.36,-12.78
4.0044,-14.737,-1.4438,0.43341,0.88881,-0.081856,-32.7,29.1,-13.62
5.0259,-15.568,-1.5663,0.65393,-0.50549,0.28619,-33.36,28.62,-14.1
5.0395,-13.92,-1.1577,0.78221,-1.7358,0.78252,-34.56,27.54,-14.7
3.8137,-12.994,-0.96704,0.90683,-2.9578,1.1261,-35.34,27.12,-14.94
2.7241,-12.354,-0.89894,0.73609,-3.1359,1.1387,-35.94,26.82,-14.94
-1.6072,-8.9213,-0.98067,0.3821,-2.591,1.0452,-37.5,26.22,-14.82
-3.0782,-7.0145,-1.5527,-0.076969,-1.5018,0.72357,-38.34,25.92,-14.58
-3.3778,-5.4754,-2.0294,-0.46792,-0.19151,0.27917,-39.12,25.86,-14.28
-3.2825,-1.7162,-2.3155,-0.59712,0.74892,-0.021075,-40.56,26.04,-13.5
-0.95342,-1.3212,-1.58,-0.34758,0.39218,0.0051924,-41.4,26.28,-12.84
0.10896,-1.1169,-1.3484,-0.32101,0.069028,-0.66737,-42.3,26.52,-12.24
0.32689,-1.1169,-0.85808,-0.38851,0.16799,-0.8998,-43.2,26.64,-11.46
0.14982,-3.3097,0.6674,-0.26512,0.63102,-0.56872,-45.06,26.58,-9.96
1.4982,-7.8862,-0.1362,-0.26237,0.58124,-0.19731,-46.08,26.34,-9.12
3.2553,-15.405,1.5255,-1.0211,0.33537,0.20922,-47.76,26.16,-7.68
3.514,-15.541,2.1929,-1.1496,0.20464,0.51893,-48.3,25.92,-7.14
3.5277,-15.159,2.656,-1.2416,0.20831,0.62827,-48.78,25.74,-6.6
3.2961,-14.737,3.4051,-1.2889,0.20433,0.6411,-48.96,25.5,-6.18
2.0431,-13.961,2.1656,-1.022,0.39095,0.32956,-49.14,24.84,-5.52
1.4165,-12.422,1.076,-0.66493,0.53603,-0.091935,-49.02,24.36,-5.34
1.0215,-10.324,0.38137,-0.34117,0.74709,-0.47434,-48.9,23.94,-5.1
0.31327,-6.3062,0.10896,-0.19059,1.0498,-0.71685,-48.18,22.86,-4.86
-0.054481,-5.4209,0.16344,-0.14233,1.4795,-0.88637,-47.7,22.38,-4.8
0.27241,-6.6059,0.35413,-0.067806,1.6878,-0.97738,-47.1,22.02,-4.8
0.78998,-8.1995,0.40861,-0.018021,1.7098,-0.95967,-46.38,21.66,-4.86
2.6696,-13.484,0.01362,-0.098349,1.5094,-0.68325,-44.82,21.18,-4.98
3.7728,-16.413,0.01362,-0.13561,1.0519,-0.16829,-43.86,21.06,-5.04
4.3858,-14.22,0.20431,-0.12584,0.45907,0.44899,-42.18,20.82,-5.16
4.5764,-13.171,-0.25879,0.32681,-0.37385,1.0996,-41.34,20.76,-5.4
4.5628,-12.735,-1.1713,0.82803,-1.0165,1.1429,-40.68,20.7,-5.46
4.2223,-12.299,-1.8251,1.3167,-1.8109,0.99327,-39.9,20.58,-5.58
2.3836,-9.5887,-2.0431,1.5828,-2.5143,0.80146,-38.76,20.58,-5.94
0.76274,-7.9679,-2.3836,1.5317,-2.766,0.51404,-38.22,20.76,-6.12
-0.96704,-6.674,-2.6423,1.0669,-2.1377,0.31551,-37.8,20.82,-5.94
-3.7184,-3.2416,-3.2144,0.033292,0.043371,-0.23824,-36.66,21.18,-5.64
-3.3097,-0.77636,-2.2882,-0.30635,0.99663,-0.3882,-36.24,21.3,-5.34
-2.4517,-0.12258,-1.8932,-0.05284,1.1072,-0.44654,-36.0,21.48,-5.16
-0.65378,-1.3076,-1.4438,0.11423,0.65301,-0.51893,-35.46,22.02,-4.62
0.64016,-3.7047,-0.19068,0.37018,0.1182,-0.46914,-35.4,22.26,-4.32
2.4108,-13.253,-1.8251,0.6127,-0.23396,-0.17807,-34.92,22.5,-3.48
3.3778,-19.123,1.4301,-1.6234,-0.20892,0.38454,-34.68,22.5,-2.94
3.732,-17.829,1.5391,-1.8185,-0.3204,0.70494,-34.26,22.32,-2.46
3.514,-14.111,1.6344,-1.8189,-0.22235,0.79321,-33.96,22.38,-1.98
2.7649,-13.116,1.6072,-1.2226,0.067806,0.72326,-33.06,22.5,-0.54
1.4438,-13.416,1.58,-0.85124,0.10446,0.36285,-32.52,22.44,0.06
0.01362,-12.122,2.0567,-0.57085,0.72113,-0.22969,-31.44,22.5,1.2
0.44947,-10.692,2.3291,-0.52473,1.5427,-0.43249,-31.02,22.38,1.8
0.85808,-9.4253,2.0703,-0.52748,1.9288,-0.42302,-30.54,22.32,2.22
1.3893,-6.1292,0.83084,-0.36591,2.364,-0.37293,-29.46,22.32,3.6
1.5936,-5.7886,0.40861,-0.095906,2.032,-0.405,-28.92,22.5,4.14
1.9886,-6.8102,0.19068,0.17135,1.4484,-0.43646,-28.26,22.62,4.86
2.547,-11.673,-0.23155,0.42638,0.30574,-0.25168,-27.18,23.22,5.82
3.7184,-14.288,-0.49033,0.52382,-0.38057,0.13989,-26.7,23.46,6.24
4.0725,-15.541,-0.54481,0.55405,-0.67195,0.37568,-26.28,24.06,6.78
3.8954,-14.029,-0.40861,0.51893,-1.2801,0.85246,-25.92,24.3,7.02
3.1191,-12.081,-0.65378,0.62705,-1.4383,0.96211,-25.26,25.02,7.56
2.7513,-12.245,-1.4029,0.79474,-1.5782,0.86926,-24.96,25.44,7.8
2.4789,-12.217,-2.0839,0.94134,-1.7575,0.60445,-24.6,25.92,7.86
1.8932,-10.474,-2.4108,0.87568,-1.7462,0.28711,-23.52,26.7,8.04
1.1169,-8.9622,-1.9613,0.54703,-1.3601,0.15608,-22.92,27.18,8.28
0.38137,-7.355,-2.0431,0.3204,-1.0617,0.072388,-22.38,27.6,8.46
-0.6674,-5.5707,-2.0839,-0.30452,0.0094684,-0.23854,-21.84,28.14,8.64
-1.3484,-1.8932,-2.1112,-0.45509,0.32467,-0.52229,-20.76,29.04,9.3
-1.2258,-1.2531,-1.3757,-0.45571,0.50519,-0.57269,-20.4,29.4,9.66
-0.61292,-1.6072,-0.78998,-0.12065,0.39462,-0.86621,-20.04,29.82,10.14
-0.28603,-3.6094,-0.21793,-0.068111,0.1912,-1.0232,-19.44,30.66,10.62
0.19068,-7.8862,-0.95342,0.018326,-0.087048,-1.0134,-19.02,31.08,11.1
0.36775,-11.182,-0.21793,-0.91966,0.23671,-0.53084,-18.66,31.38,11.22
2.3427,-15.704,1.4438,-0.99418,0.41233,0.077274,-18.48,31.98,12.12
3.0646,-15.8,1.8387,-1.0788,0.61056,0.52473,-18.54,32.16,12.42
3.9227,-13.743,2.152,-0.75717,0.61728,0.76205,-19.02,32.88,13.32
3.5685,-13.62,1.866,-0.56291,0.48258,0.70341,-19.02,33.06,13.68
2.547,-13.593,1.7298,-0.2022,0.047342,0.41814,-19.26,33.36,14.04
1.5119,-12.762,1.2667,0.12187,-0.20372,-0.11912,-19.44,33.6,14.46
1.0215,-11.046,0.8036,0.15302,0.14905,-0.32376,-19.74,34.02,15.0
0.8717,-10.025,0.57205,0.044899,0.7251,-0.30971,-19.68,34.38,15.48
0.70826,-7.6546,-0.068102,-0.1066,1.2816,-0.19426,-19.98,34.92,16.08
0.8717,-6.6195,-0.095342,-0.20831,1.5663,-0.10599,-20.22,35.28,16.32
0.91256,-6.3062,0.081722,-0.26481,1.5479,-0.091935,-20.46,35.58,16.56
1.3076,-7.2869,0.44947,-0.24587,1.3421,-0.092241,-20.88,36.18,17.1
1.7434,-8.6489,0.25879,-0.14233,1.0269,-0.027184,-21.36,36.42,17.4
2.4244,-10.256,0.01362,0.08827,0.55222,0.14661,-21.54,36.72,17.7
4.0861,-14.805,-1.185,0.46334,-0.087965,0.61697,-22.14,37.08,17.88
4.5356,-15.214,-1.3076,0.99388,-1.1109,0.92149,-22.56,37.44,17.88
4.3994,-14.124,-1.185,1.2104,-1.6041,1.0818,-22.92,37.74,17.88
3.8137,-13.416,-0.8717,1.3329,-1.8705,1.1139,-23.22,38.34,18.06
2.5061,-12.503,-0.92618,1.2364,-1.9939,0.95936,-23.22,38.58,18.0
0.39499,-10.733,-1.2667,0.91324,-1.5916,0.85094,-23.22,39.06,17.76
-0.62654,-8.54,-1.8932,0.60934,-0.92516,0.8604,-22.68,39.6,17.76
-1.2939,-6.4424,-2.3427,0.17318,-0.077885,-0.3653,-22.26,39.9,17.94
-1.6889,-5.1349,-2.5606,0.036041,0.33262,-0.47342,-21.72,40.08,17.94
-0.70826,-2.4789,-2.6015,0.031154,0.92271,-0.53115,-20.58,40.44,18.06
-0.19068,-1.7706,-2.2474,0.016188,0.96944,-0.88301,-19.8,40.5,18.0
-0.12258,-1.0079,-1.975,-0.10751,0.87079,-1.0232,-19.2,40.62,18.12
0.34051,-1.2258,-0.46309,-0.17898,0.51007,-0.65149,-17.88,40.68,18.12
0.64016,-3.5822,0.19068,0.12217,-0.097433,-0.29138,-17.4,40.74,18.36
0.83084,-7.6274,-0.25879,0.47373,-0.55772,-0.20281,-16.74,40.74,18.48
1.7025,-16.767,1.2395,-0.98105,-0.36377,0.27642,-16.08,41.04,19.08
3.0646,-17.352,2.3427,-1.1658,-0.2868,0.67684,-15.78,41.28,19.44
3.4323,-15.881,2.8058,-1.4465,-0.016188,0.91691,-15.54,41.22,19.98
3.4732,-14.955,3.1599,-1.416,0.20739,0.84025,-15.36,41.46,20.64
1.3484,-13.607,2.0158,-1.1448,0.26145,0.42577,-15.0,41.82,21.96
0.55843,-12.871,1.2803,-0.75931,0.2193,-0.23854,-14.94,42.18,22.68
-0.57205,-10.569,0.57205,-0.34544,0.70524,-1.0198,-14.64,42.6,24.18
-0.54481,-9.6704,0.61292,-0.26878,1.3818,-1.0931,-14.64,43.02,24.84
-0.28603,-8.5127,0.46309,-0.354,2.0992,-0.93707,-14.52,43.2,25.44
1.0079,-6.7148,0.31327,-0.45876,2.5458,-0.73457,-14.76,43.62,26.76
1.4438,-6.6059,0.40861,-0.56658,2.4648,-0.47861,-15.0,43.8,27.24
1.9477,-7.2733,0.40861,-0.59071,2.2382,-0.40042,-15.36,43.98,27.72
2.4108,-10.079,0.25879,-0.58887,1.1997,-0.17349,-16.14,43.98,28.38
2.547,-12.095,-0.081722,-0.52931,0.81092,-0.069028,-16.62,43.98,28.44
3.1191,-14.369,-0.38137,-0.06689,-0.15149,0.44196,-17.22,44.1,28.5
3.6503,-13.157,-0.40861,0.27336,-0.63377,0.748,-18.48,43.98,28.14
3.5277,-12.299,-0.6674,0.82009,-1.1561,0.91996,-19.02,44.1,27.84
3.3642,-11.482,-1.0488,1.0211,-1.3189,0.88117,-19.5,44.22,27.48
2.4108,-11.618,-1.5255,1.4087,-1.8778,0.56841,-20.34,44.7,26.28
2.4108,-11.618,-1.5255,1.4374,-2.0568,0.30116,-20.34,44.7,26.28
1.5663,-10.91,-1.8796,1.2077,-1.9282,0.047037,-20.46,44.76,25.74
0.8036,-9.4253,-1.4846,0.80023,-1.482,-0.10476,-19.98,45.48,24.66
0.27241,-8.0905,-1.4574,0.10018,-0.46976,-0.27397,-19.62,45.72,24.06
-0.10896,-6.4697,-1.5391,-0.061087,-0.14539,-0.35308,-18.3,46.2,22.86
0.14982,-5.8976,-1.6344,-0.31307,0.56597,-0.60689,-17.46,46.38,22.32
0.54481,-5.5435,-1.7162,-0.44166,0.79626,-0.73823,-16.56,46.62,21.72
0.68102,-5.1076,-1.185,-0.52748,0.88973,-0.83291,-15.12,46.74,20.76
0.32689,-5.6933,-0.62654,-0.54428,0.97708,-0.91049,-14.28,46.86,20.28
-0.01362,-8.2267,0.1362,-0.58735,1.1151,-0.92516,-13.32,47.04,19.26
0.19068,-9.8339,0.81722,-0.84605,1.3573,-0.78771,-13.08,46.98,18.78
0.62654,-11.21,1.5936,-0.99479,1.4786,-0.5397,-13.08,46.92,18.36
1.7706,-14.41,2.9965,-1.1014,1.6515,-0.15027,-13.32,46.98,17.76
2.7922,-15.023,3.0101,-1.087,1.8717,0.2135,-13.92,47.04,17.4
3.1735,-13.484,2.7377,-0.82436,1.7605,0.40164,-14.52,47.1,17.34
2.833,-12.299,2.4108,-0.41111,1.2877,0.41233,-16.26,47.58,16.8
2.2201,-11.509,1.9341,0.15913,0.52626,0.18418,-17.1,47.76,16.62
1.5255,-10.27,1.5255,0.41111,0.42669,0.040623,-18.0,47.94,16.26
1.1441,-9.4117,1.185,0.45601,0.47922,0.013744,-18.9,48.12,15.84
0.64016,-8.2539,0.81722,0.41264,0.82375,0.090408,-20.58,48.66,14.94
0.68102,-7.8726,0.027241,0.30879,1.1628,0.22449,-21.54,48.84,14.34
1.6072,-7.6546,-0.44947,0.21075,1.6041,0.3992,-22.44,49.02,13.62
2.3427,-7.5457,-0.40861,-0.040623,1.8586,0.61606,-24.0,49.38,12.24
2.6423,-7.6002,-0.21793,-0.27,1.8195,0.74862,-24.66,49.68,11.4
2.8058,-7.8181,-0.095342,-0.37293,1.7156,0.76786,-25.38,49.74,10.38
3.3778,-8.6898,-0.24517,-0.47159,1.35,0.69058,-26.64,50.04,8.16
3.514,-9.398,0.040861,-0.42822,0.88484,0.64904,-27.24,50.16,6.9
2.8603,-12.994,0.89894,-0.34758,0.46792,0.64385,-27.78,50.22,5.58
2.8058,-14.805,1.1169,-0.30391,0.44624,0.65912,-28.8,50.58,2.82
2.833,-15.582,1.3484,-0.30329,0.61728,0.63652,-29.34,50.82,1.44
2.8058,-15.282,1.4438,-0.30391,0.78893,0.54642,-29.7,51.0,0.24
2.6832,-14.914,0.51757,0.0051924,0.71074,0.17868,-30.36,51.66,-2.1
1.8796,-15.459,-0.14982,0.30452,0.45845,-0.08827,-30.36,51.84,-3.18
0.83084,-14.928,0.17706,0.42852,0.40745,-0.28711,-30.36,52.2,-4.2
-0.89894,-14.124,0.68102,0.26909,1.0754,-0.45907,-29.7,52.56,-5.64
-1.4574,-12.953,0.7355,0.12645,1.4313,-0.52901,-29.34,52.56,-6.24
-1.58,-11.904,0.54481,-0.15516,2.1695,-0.71074,-28.62,52.5,-6.72
-1.6072,-9.9973,0.12258,-0.25259,2.7953,-1.1585,-27.9,52.38,-7.26
-1.2939,-7.5184,-0.31327,-0.27703,2.9096,-1.2782,-26.1,51.6,-7.98
-1.0215,-6.0611,-0.42223,-0.21105,2.9645,-1.2,-25.02,51.18,-8.28
0.054481,-5.1349,-0.12258,-0.21258,3.1133,-0.72662,-23.88,50.52,-8.46
1.9068,-5.7342,0.36775,-0.2306,3.1114,0.37935,-21.72,49.2,-9.12
2.6015,-6.4152,0.14982,-0.13683,2.5217,0.478,-20.64,48.48,-9.54
2.4517,-6.456,0.16344,-0.22388,1.9484,0.43066,-19.32,47.64,-10.02
3.0237,-6.279,0.64016,-0.31948,0.87629,0.66065,-16.98,45.96,-11.22
2.3699,-7.6683,0.40861,0.058948,0.93859,0.57513,-15.96,45.06,-11.94
2.4653,-8.54,0.8717,0.09499,0.54703,0.38332,-14.1,43.68,-13.74
2.3563,-8.4174,0.91256,0.23946,0.65271,0.47953,-13.08,43.02,-14.76
2.4653,-8.54,0.74912,0.43677,0.80726,0.51313,-12.36,42.3,-15.84
3.337,-10.229,0.23155,0.6014,0.88789,0.49999,-10.98,41.34,-18.3
3.9363,-11.332,-0.027241,0.69303,0.59468,0.49786,-10.32,40.8,-19.56
3.7865,-12.367,-0.095342,0.71838,0.60292,0.56413,-9.66,40.32,-20.76
2.9011,-13.579,0.47671,0.47312,0.82039,0.50183,-8.76,39.24,-23.58
1.1713,-9.6704,-0.040861,-0.069028,-0.07025,-0.071777,10.98,38.28,-23.58
1.2803,-9.5479,-0.081722,-0.079107,-0.05284,-0.058032,10.98,38.22,-23.64
1.3212,-9.6432,-0.040861,-0.094379,-0.048258,-0.035736,10.98,38.22,-23.52
1.3076,-9.6023,-0.095342,-0.097128,-0.031154,-0.037568,10.92,38.22,-23.58
1.2939,-9.6296,0.068102,-0.10201,-0.018631,-0.041844,10.86,38.28,-23.58
1.2803,-9.6432,0.027241,-0.11698,0.047647,-0.062919,10.74,38.22,-23.46
1.2803,-9.6841,0.054481,-0.12278,0.070555,-0.062003,10.62,38.22,-23.58
1.3484,-9.6977,0.068102,-0.11729,0.085216,-0.067501,10.56,38.22,-23.58
1.3893,-9.7794,-0.01362,-0.09163,0.077274,-0.039095,10.44,37.92,-23.64
1.3348,-9.7658,-0.027241,-0.074526,0.066584,-0.03879,10.32,37.92,-23.7
1.4165,-9.793,-0.027241,-0.072998,0.069028,-0.035736,10.44,37.98,-23.64
1.2803,-9.8748,-0.027241,-0.085216,0.10263,-0.042761,10.44,38.04,-23.58
1.2258,-9.7522,-0.054481,-0.0956,0.16218,-0.06689,10.32,38.16,-23.46
1.2395,-9.6023,-0.10896,-0.089797,0.18509,-0.065973,10.32,38.16,-23.52
1.1441,-9.5751,-0.21793,-0.07758,0.19853,-0.062919,10.26,38.16,-23.52
1.076,-9.4117,-0.31327,-0.054062,0.22633,-0.031154,10.2,38.22,-23.46
1.1169,-9.3572,-0.35413,-0.05681,0.24038,-0.016493,10.08,38.28,-23.4
1.1441,-9.398,-0.46309,-0.047647,0.2587,0.0048869,10.08,38.28,-23.4
1.2395,-9.3844,-0.61292,-0.060476,0.27855,0.030849,10.14,38.34,-23.28
1.3348,-9.6568,-0.47671,-0.097128,0.33842,0.029932,10.14,38.52,-23.1
1.2803,-9.7385,-0.35413,-0.1628,0.43738,0.012828,10.2,38.58,-23.04
1.2803,-9.7385,-0.31327,-0.23549,0.6243,-0.027184,10.44,38.58,-22.92
1.5119,-9.8339,-0.32689,-0.22694,0.70158,-0.050396,10.44,38.52,-22.98
1.5255,-9.902,-0.44947,-0.18906,0.71532,-0.057727,10.62,38.52,-22.92
1.4982,-9.8748,-0.44947,-0.14264,0.70372,-0.058948,10.74,38.46,-23.04
1.4165,-9.8339,-0.44947,-0.12278,0.71777,-0.052229,10.98,38.4,-22.68
1.2803,-9.6023,-0.57205,-0.12217,0.76267,-0.053756,11.04,38.52,-22.62
1.5663,-9.3436,-0.77636,-0.09499,0.79412,-0.057421,11.16,38.34,-22.44
1.7706,-9.2346,-0.98067,-0.034514,0.67623,-0.041539,11.76,38.22,-22.32
1.7298,-9.2755,-1.1305,0.0061087,0.57299,-0.015882,11.94,38.28,-22.2
1.8932,-9.221,-1.1305,0.019548,0.51862,-0.0048869,12.12,38.34,-22.2
1.9613,-9.112,-1.1032,0.043371,0.43158,0.032681,12.36,38.22,-22.2
1.9613,-9.0167,-1.2122,0.052534,0.47128,0.051313,12.66,38.28,-22.08
2.2882,-9.4117,-1.2803,0.10812,0.50977,0.069028,12.96,38.28,-21.96
2.547,-9.8884,-1.4165,0.12431,0.48442,0.068417,13.2,38.34,-21.84
2.6696,-9.7794,-1.3757,0.17226,0.30696,0.096211,13.38,38.28,-21.84
2.6696,-9.6296,-1.3076,0.18021,0.2303,0.11332,13.68,38.22,-21.84
2.7377,-9.0984,-1.2939,0.20983,-0.0051924,0.11606,13.98,38.16,-21.9
2.5334,-8.9486,-1.2803,0.21502,-0.1347,0.12523,14.22,37.98,-21.96
2.438,-9.2482,-1.4165,0.23305,-0.11545,0.1744,14.34,38.04,-22.08
2.547,-9.6568,-1.3757,0.19823,-0.087048,0.19334,14.4,37.86,-22.38
2.5198,-9.8339,-1.2395,0.12675,0.02138,0.26542,14.34,37.74,-22.5
2.5606,-9.9973,-1.2258,0.087354,0.08827,0.2813,14.4,37.56,-22.62
2.5742,-9.8339,-0.9398,-0.064752,0.343,0.28924,14.52,37.38,-22.68
2.547,-9.5751,-0.84446,-0.13042,0.51496,0.25595,14.4,37.26,-22.86
2.6696,-9.3436,-0.85808,-0.15638,0.64507,0.17837,14.52,37.08,-22.92
2.7649,-9.0167,-0.85808,-0.12339,0.65301,0.096822,14.4,37.02,-22.98
2.6968,-8.9894,-0.8717,-0.034819,0.5284,0.0042761,14.34,37.08,-23.1
2.547,-9.0303,-0.81722,-0.016493,0.48411,-0.0085521,14.16,37.14,-23.04
2.2474,-9.0575,-0.61292,-0.027794,0.45723,-0.014661,14.16,37.14,-23.1
1.9477,-9.0848,-0.54481,-0.05681,0.49847,-0.017715,13.92,37.38,-23.22
1.866,-9.0575,-0.70826,-0.083383,0.53267,-0.012217,13.8,37.32,-23.28
1.8115,-9.5887,-0.62654,-0.11301,0.56566,0.002138,13.68,37.5,-23.04
1.7434,-10.093,-0.57205,-0.16952,0.58949,0.012828,13.8,37.56,-22.92
1.7025,-10.61,-0.47671,-0.26817,0.69211,0.040012,13.68,37.68,-22.74
1.7025,-11.577,0.10896,-0.48045,1.0091,0.068417,13.68,38.1,-22.5
1.9477,-11.577,0.16344,-0.57177,1.2019,0.063225,13.74,38.28,-22.38
2.3018,-11.182,-0.14982,-0.48594,1.1457,0.03146,13.62,38.88,-21.78
2.547,-8.9894,-0.92618,-0.31734,0.84238,-0.011912,13.5,39.06,-21.42
2.2337,-7.9951,-1.0896,-0.25015,0.67867,-0.051313,13.44,39.18,-20.94
1.5936,-7.246,-0.84446,-0.17837,0.48533,-0.19151,13.44,39.42,-20.46
0.95342,-6.8238,-0.83084,-0.2303,0.51343,-0.41539,13.32,39.78,-20.04
0.89894,-7.7364,-0.99429,-0.24832,0.63225,-0.53787,13.32,40.32,-18.96
1.2667,-8.7579,-1.1441,-0.27275,0.67042,-0.551,13.26,40.74,-18.6
1.7434,-10.569,-1.1305,-0.28772,0.59254,-0.42058,12.84,41.34,-17.46
1.7706,-11.25,-1.1577,-0.31032,0.53481,-0.24404,12.48,41.7,-16.92
1.757,-11.264,-1.0896,-0.34025,0.47403,-0.11698,12.3,42.12,-16.56
1.3212,-10.678,-1.185,-0.24923,0.34239,0.14539,11.94,42.6,-16.2
1.1577,-9.902,-1.185,-0.099571,0.21441,0.2306,11.1,43.44,-15.12
1.185,-9.4661,-1.1713,0.10629,-0.13928,0.31918,10.74,43.8,-14.76
1.4438,-8.4855,-0.70826,0.38637,-0.85643,0.48625,9.96,44.58,-14.1
1.1305,-7.5865,-0.69464,0.46609,-1.1307,0.65912,9.54,45.06,-13.8
0.50395,-6.5105,-0.89894,0.46304,-0.77274,0.73793,9.24,45.48,-13.68
0.21793,-4.2087,-1.0079,0.38485,-0.19212,0.57085,8.52,46.14,-13.68
0.46309,-2.656,-1.0624,0.32559,0.24221,0.30146,8.16,46.38,-13.62
0.70826,-0.76274,-1.3484,0.28833,0.37721,0.018631,7.86,46.62,-13.5
0.31327,0.39499,-1.4301,0.25229,0.23702,-0.16738,7.44,46.98,-13.56
-0.23155,0.1362,-1.3484,0.2248,0.1628,-0.32162,7.32,47.16,-13.74
-0.50395,-1.3076,-1.0079,0.14355,0.31062,-0.4218,6.96,47.22,-13.74
1.0351,-4.808,0.42223,0.16066,0.23488,-0.50702,6.54,46.86,-14.1
1.7025,-7.7364,0.38137,0.12156,-0.041844,-0.34758,6.24,46.68,-14.34
2.2474,-11.468,0.43585,-0.11606,-0.1741,0.16829,5.7,46.44,-14.64
3.3642,-16.889,0.43585,-0.23457,-0.17135,0.61392,4.8,45.66,-15.66
3.4459,-16.916,0.98067,-0.59193,-0.090103,0.81703,4.38,45.12,-16.2
3.1191,-16.004,1.7162,-0.95814,0.097128,0.83627,3.66,44.52,-16.56
2.0431,-14.506,2.0567,-1.285,0.46395,0.61087,2.4,43.38,-17.22
2.0431,-14.506,2.0567,-1.3561,1.0333,0.1124,2.4,43.38,-17.22
0.14982,-9.7794,0.14982,-1.1857,1.7181,-0.41142,1.2,42.18,-17.64
0.19068,-7.4095,-0.19068,-0.87873,2.6408,-0.80756,0.6,41.7,-17.94
0.29965,-6.6195,-0.01362,-0.50793,2.9401,-0.86499,0.12,41.16,-18.12
1.1713,-8.8668,0.21793,-0.37721,2.9948,-0.87262,-0.48,40.44,-18.24
2.2065,-11.496,-0.10896,-0.050396,2.766,-0.61087,-1.2,39.18,-18.6
4.1542,-14.547,-0.57205,0.10812,2.0861,-0.15119,-1.5,37.86,-19.02
5.6524,-14.86,-0.51757,0.22022,1.0486,0.4667,-1.26,36.9,-18.96
5.9112,-13.743,-0.76274,0.33628,-0.065057,1.1286,-1.02,35.88,-18.78
5.4345,-13.076,-1.471,0.57391,-1.0556,1.4487,-0.42,35.16,-18.6
5.1349,-12.408,-1.8524,1.003,-2.263,1.3317,-0.18,34.68,-18.72
3.228,-8.7987,-2.3836,1.0556,-2.5439,1.0809,0.3,33.9,-18.78
0.74912,-6.0883,-2.4108,0.88423,-2.084,0.75961,0.6,33.18,-18.84
-1.6753,-4.0316,-2.9011,0.36927,-0.71257,-0.020769,0.84,32.46,-18.9
-3.8682,-0.35413,-2.7786,0.037263,0.53817,-0.97922,1.02,32.04,-18.66
-3.1599,1.2803,-1.8115,-0.11454,0.87537,-1.1741,0.66,31.62,-18.3
-0.31327,-1.362,-1.1169,0.55711,0.51771,-0.78099,0.6,30.9,-18.12
1.1986,-5.1894,-0.44947,0.88026,0.10415,-0.86865,0.42,30.6,-18.06
2.7649,-13.171,-1.1441,0.42608,-0.088575,-0.68936,0.06,29.82,-18.0
4.2495,-17.529,1.1169,-1.1151,0.0012217,0.027794,-0.3,29.1,-17.76
4.4402,-15.187,1.3893,-1.463,-0.23091,0.79474,-0.54,28.44,-17.7
3.8682,-13.579,1.4029,-1.4823,-0.23121,1.0657,-0.6,28.02,-17.64
1.9205,-12.721,0.8036,-1.3503,-0.23946,0.91172,-0.72,27.9,-17.46
0.64016,-11.414,0.081722,-0.88637,-0.17746,0.15944,-0.9,27.66,-17.22
0.64016,-9.8475,-0.1362,-0.61972,0.11454,-0.44502,-0.84,27.42,-16.98
-0.14982,-8.6489,-0.16344,-0.50732,0.78313,-0.86285,-1.08,27.36,-16.8
-0.35413,-6.0747,0.53119,-0.49724,1.6096,-1.0082,-1.32,27.36,-16.56
0.054481,-6.674,0.6674,-0.40561,2.5281,-1.1194,-1.5,27.36,-16.38
1.9341,-12.027,0.47671,-0.3711,2.6276,-1.0846,-1.74,27.54,-16.08
2.8875,-14.478,0.27241,-0.32865,2.2116,-0.66584,-2.16,27.84,-15.6
4.0589,-15.663,0.24517,-0.27764,1.4661,-0.10354,-2.28,28.02,-15.12
4.9033,-15.377,0.23155,-0.13897,0.68936,0.62736,-2.34,28.02,-14.82
5.5571,-14.043,-0.14982,0.1124,-0.0042761,1.2171,-2.76,28.32,-14.22
5.38,-12.381,-0.46309,0.4105,-0.63866,1.4227,-2.76,28.38,-13.92
4.8352,-9.7385,-0.70826,0.66768,-1.2471,1.3112,-2.76,28.38,-13.62
2.0975,-4.2632,-0.84446,0.82253,-1.8014,0.90286,-2.94,28.32,-13.02
0.65378,-2.3563,-1.3212,0.89767,-2.1771,0.27275,-3.12,28.38,-12.66
-0.98067,-1.5119,-3.0237,0.63713,-0.76267,-0.65546,-3.12,28.32,-12.24
-4.699,-0.83084,-4.0997,0.38301,0.31185,-0.63163,-3.12,27.96,-11.46
-1.4438,-1.58,-3.3234,0.43707,0.44257,-1.1054,-3.18,27.96,-11.04
0.16344,-6.8647,-1.3484,0.43524,0.13164,-1.1362,-2.94,27.36,-10.32
1.5119,-12.19,-0.32689,0.20067,-0.27214,-0.6411,-2.82,27.0,-9.72
3.2553,-16.467,0.72188,-0.14936,-0.17746,-0.099266,-2.88,26.64,-9.3
4.5764,-17.516,1.5255,-0.55986,-0.26786,0.59468,-2.94,26.16,-8.88
4.6718,-15.364,1.9886,-0.96975,-0.59071,1.0559,-2.58,25.5,-7.92
3.5004,-14.029,1.6072,-1.1182,-0.75411,1.0037,-2.46,25.26,-7.26
1.471,-11.986,0.19068,-0.73029,-0.61423,0.42211,-2.04,24.66,-5.88
0.72188,-10.093,-0.61292,-0.40745,-0.35522,-0.25931,-1.74,24.18,-5.16
0.25879,-8.0224,-0.58567,-0.31032,-0.1689,-0.54459,-1.38,23.64,-4.56
0.14982,-6.1155,0.068102,-0.21258,0.82956,-0.92577,-0.6,22.92,-3.36
0.62654,-7.2188,0.61292,-0.21289,1.6383,-0.99479,-0.18,22.74,-2.76
1.2803,-8.9077,0.89894,-0.23549,2.127,-0.89064,0.18,22.38,-2.04
3.3506,-12.408,-0.16344,-0.082467,1.9319,-0.60018,0.96,22.32,-0.48
4.6173,-15.459,-0.68102,0.16432,1.0947,-0.13592,1.5,22.44,0.18
5.1485,-15.84,-0.81722,0.40409,0.053451,0.4667,1.98,22.44,0.9
5.2983,-14.56,-0.34051,0.59162,-0.82528,1.109,2.88,22.68,2.4
4.9578,-13.675,-0.40861,0.77458,-1.46,1.4041,3.54,22.74,3.0
4.2495,-11.768,-0.83084,0.90897,-1.9792,1.4603,3.9,22.62,3.54
1.2667,-6.5105,-2.0294,0.88026,-2.4077,1.2245,4.68,22.62,4.2
-1.3484,-4.304,-2.656,0.48411,-2.6261,0.95387,5.28,22.62,4.32
-3.9227,-2.5334,-3.8682,0.19334,-1.963,0.6521,5.76,22.62,4.62
-4.3858,-0.62654,-2.7922,-0.12248,0.39279,-0.41478,7.02,22.44,5.04
-1.6481,-0.57205,-2.1929,-0.072082,0.82222,-0.80451,7.5,22.32,5.4
0.1362,-1.7706,-0.61292,-0.098349,0.93187,-0.81123,8.16,22.32,5.58
1.8932,-7.0009,0.31327,0.2978,0.75839,-0.63163,9.36,21.96,6.06
3.1054,-15.65,1.0215,-0.064141,0.75472,-0.46701,9.96,21.66,6.48
3.7728,-17.775,1.1441,-0.90866,0.82131,0.18662,10.68,21.6,6.9
4.2768,-15.895,0.96704,-1.2135,0.46578,0.8042,11.28,21.66,7.5
3.9771,-13.089,1.6072,-1.3234,0.22449,0.81245,12.48,21.24,8.94
2.942,-11.809,1.3757,-1.2584,0.1518,0.58002,13.2,21.18,9.78
0.8717,-8.2403,0.29965,-1.0583,0.17074,0.12675,14.76,20.76,12.06
-0.42223,-6.0611,0.20431,-0.68234,0.55161,-0.7981,15.3,20.64,13.32
-0.57205,-5.5571,0.49033,-0.51649,1.0708,-1.1689,15.9,20.58,14.64
-0.14982,-6.2245,0.70826,-0.3653,1.6661,-1.3216,16.44,20.52,16.08
1.5663,-10.706,1.0351,-0.20556,1.9853,-1.2969,17.16,20.7,19.02
2.2201,-13.579,0.68102,0.02138,1.9193,-1.0314,17.34,20.82,20.58
3.1599,-16.045,-0.027241,0.32345,0.9502,-0.14508,17.64,21.0,22.14
5.1076,-14.41,-0.84446,0.76877,-0.058643,0.5339,17.94,21.66,25.2
5.6797,-13.634,-1.1169,1.0895,-0.96853,1.1671,18.06,21.96,26.76
5.6116,-13.484,-1.4574,1.3757,-1.7865,1.4642,18.48,22.2,28.2
3.9908,-11.387,-1.7843,1.4832,-2.4212,1.5052,19.8,23.16,30.48
2.3155,-9.3844,-1.3076,1.292,-2.8304,1.2932,20.58,23.64,31.5
-0.14982,-5.7205,-0.76274,0.71716,-2.7061,0.85216,21.6,24.24,32.34
-2.656,-3.6094,-0.5993,0.01405,-1.9358,0.17196,24.12,25.32,33.6
-3.0918,-1.2531,-0.35413,-0.41264,0.11423,-0.65027,25.68,25.8,34.08
-3.0782,-0.51757,-0.054481,-0.34728,0.78802,-0.72998,27.36,26.34,34.62
-0.92618,-3.1872,1.0215,0.14172,2.073,-0.68814,30.9,27.72,35.7
0.24517,-7.927,-0.50395,0.21105,2.438,-0.69914,32.82,28.56,36.36
1.1305,-13.511,1.4846,-0.91966,2.9786,-0.32345,35.88,30.6,37.98
2.9829,-14.587,1.9886,-0.9166,2.7642,0.17226,37.14,31.74,38.88
3.8546,-14.601,2.4653,-0.92821,2.4508,0.71349,38.22,33.12,39.66
4.3721,-14.152,2.8194,-0.85796,2.2104,0.90988,39.06,34.5,40.5
4.0589,-13.184,2.5061,-0.55039,1.1829,0.79596,39.42,35.76,41.76
1.7706,-10.134,1.0624,-0.23335,0.51313,0.4047,39.3,38.22,44.1
0.5993,-8.0496,0.58567,-0.0015272,0.19639,-0.029932,38.94,39.6,45.18
-0.95342,-4.0589,0.57205,0.044593,0.36072,-0.43738,37.62,42.6,47.58
-1.2667,-3.732,0.74912,0.029322,1.2822,-0.72388,36.42,44.22,48.54
-0.57205,-5.8023,0.92618,0.1347,1.9719,-0.80023,34.98,45.84,49.38
0.28603,-8.7034,1.0215,0.029932,2.3989,-0.73884,33.24,47.34,49.86
1.3484,-12.817,0.76274,-0.11423,2.5076,-0.38576,29.16,50.16,50.16
2.1929,-14.383,0.54481,-0.12492,2.1451,0.23824,27.06,51.3,49.86
4.699,-16.086,0.62654,0.043677,1.3699,1.2404,23.4,53.28,48.66
5.6661,-14.642,0.49033,0.10721,1.1087,1.5647,21.96,53.88,47.82
6.279,-13.144,-0.32689,0.39584,0.38546,1.9719,20.52,54.54,46.74
6.5378,-12.149,-1.5663,1.087,-1.2416,1.741,19.5,55.14,45.48
4.0725,-8.9758,-2.6696,1.3638,-2.3616,1.2837,18.06,56.58,42.36
2.0158,-7.2596,-2.261,1.1109,-2.7663,0.65729,17.64,57.24,40.8
-1.6617,-4.1951,-0.36775,0.28375,-2.157,-0.12492,16.98,58.62,37.5
-3.7865,-1.3484,0.32689,-0.55436,0.24496,-1.1102,16.74,59.34,36.0
-3.5822,-0.095342,0.92618,-0.20189,1.6952,-1.4432,16.56,60.0,34.62
-2.0975,-0.9398,0.99429,0.47892,2.6756,-1.4978,16.5,60.72,33.42
1.2531,-10.637,-1.4029,1.0113,3.0959,-1.4536,16.44,62.16,30.54
2.9556,-18.156,1.1986,-0.51496,3.5558,-1.1777,16.56,62.76,28.74
5.0123,-17.965,1.6889,-1.2685,3.3836,-0.074831,16.32,63.3,27.06
6.4152,-12.435,3.7184,-1.4306,3.2559,0.39492,16.08,64.5,23.88
5.9385,-12.708,3.7047,-1.1338,2.1625,1.1686,15.72,65.1,22.44
5.2166,-12.64,3.1463,-0.66187,0.87965,0.84574,15.36,65.7,20.94
3.623,-12.013,1.8796,-0.14355,-0.14997,0.31093,14.88,66.24,19.5
1.3348,-9.8203,2.152,0.13958,-0.44685,-0.030238,13.62,67.32,17.1
-0.12258,-7.7772,2.6287,0.1576,0.35827,-0.39798,12.84,67.74,15.9
-2.2746,-6.0883,1.3484,0.092241,0.83322,-0.48839,10.98,68.52,12.9
-2.5742,-6.4152,0.89894,0.25351,2.0088,-0.6857,10.38,68.82,11.4
-2.0839,-8.5127,0.83084,0.32865,2.3219,-0.71838,9.84,68.76,9.96
-0.49033,-16.957,2.6151,0.30849,2.8833,-0.44654,9.66,68.28,7.38
2.1656,-19.218,2.7649,-0.047953,3.0183,-0.075136,9.84,67.92,6.48
5.1894,-19.504,1.975,-0.38026,2.5977,0.18082,10.32,67.62,5.64
4.2768,-18.02,1.471,-0.49175,1.7312,0.54367,11.28,66.84,4.32
0.68102,-17.856,0.6674,-0.043677,0.21228,0.1292,11.82,66.36,3.84
-1.3757,-16.835,0.50395,0.098655,-0.22113,-0.29291,12.18,66.06,3.3
-2.9965,-12.572,0.68102,0.27306,-0.25076,-1.1949,12.9,65.28,2.88
-2.2337,-11.305,0.54481,0.22327,0.71044,-1.1719,13.08,65.04,2.82
-1.4165,-10.161,-0.39499,0.19975,1.8769,-0.76419,13.2,64.86,3.18
0.28603,-8.0905,-0.78998,0.26634,2.9157,-0.11393,13.68,64.32,4.5
1.0624,-7.3277,-1.076,0.27886,2.8842,0.074526,13.86,64.14,5.46
1.3212,-6.17,-1.4029,0.23335,2.7165,0.084605,14.22,64.02,6.48
1.2939,-4.4539,-1.3076,0.059865,1.9896,0.1347,14.52,64.26,9.18
1.362,-4.0589,-0.8717,0.10537,1.441,0.058032,14.7,64.5,10.8
1.3484,-3.9363,-0.84446,0.15241,1.149,-0.039401,14.76,64.62,12.3
1.5663,-4.6445,-0.8717,0.18418,1.0907,-0.055283,15.36,64.98,15.0
2.152,-6.279,-0.85808,0.23579,1.1228,-0.03879,15.9,65.16,16.02
2.3836,-7.3686,-0.9398,0.24709,1.1301,-0.030543,16.44,65.1,17.04
2.6832,-9.6296,-0.5993,0.21747,1.1661,-0.034819,16.92,65.22,17.64
2.2065,-11.863,0.61292,0.059559,1.3295,-0.019548,18.12,64.98,18.0
1.58,-12.503,1.7843,-0.27855,1.664,-0.085521,18.84,64.62,17.82
1.0488,-12.926,2.2474,-0.55253,2.0681,-0.26481,20.52,63.6,16.74
1.3076,-12.817,2.2882,-0.58704,2.3882,-0.41936,21.3,63.12,16.02
1.6753,-13.198,2.0839,-0.41294,2.4453,-0.48961,21.9,62.58,15.18
2.5061,-12.898,1.185,0.039706,1.9609,-0.46426,22.68,61.8,14.16
2.6015,-10.188,0.6674,0.29749,1.3412,-0.45876,23.88,60.12,11.7
1.471,-9.8203,1.0351,0.37538,0.66859,-0.53756,24.48,59.34,10.2
-0.83084,-10.474,1.7298,0.065363,0.43249,-0.80543,25.14,57.48,7.14
-1.6889,-11.904,2.6832,-0.11851,0.66157,-0.87201,25.08,56.52,5.58
-1.7298,-12.463,3.7456,-0.64782,1.4419,-0.97402,25.14,55.56,4.26
-1.4574,-11.713,4.522,-1.5522,2.8912,-1.0226,25.02,54.3,3.06
-0.57205,-9.3844,4.1678,-1.7724,3.5522,-1.0217,24.48,51.96,1.56
0.12258,-7.9134,2.9692,-1.42,3.7205,-1.0305,24.24,50.82,1.02
0.9398,-7.3141,1.6208,-0.55986,3.1389,-0.82284,22.98,48.9,0.6
0.85808,-7.6002,1.6072,-0.18295,2.6625,-0.52687,22.26,47.82,0.24
0.7355,-7.8726,1.9068,-0.000305,2.3699,-0.27,21.48,46.86,0.12
0.88532,-8.0905,1.975,-0.022907,2.2782,-0.010385,20.64,46.08,-0.12
1.6617,-8.8668,1.7843,-0.080329,2.1735,0.208,18.84,44.28,-0.18
1.8796,-9.221,1.4982,-0.13225,2.0479,0.32865,17.88,43.5,-0.12
1.9613,-9.1256,1.3212,-0.13347,1.9969,0.3598,17.04,42.72,-0.12
1.975,-8.6353,1.2803,-0.026267,1.9875,0.32865,15.24,41.16,0.48
2.0839,-8.6898,1.1305,0.11668,2.0165,0.2755,14.28,40.56,0.78
2.1929,-8.8532,1.0215,0.23579,2.0684,0.21289,13.56,39.9,1.02
2.3699,-9.4525,0.89894,0.31551,2.084,0.19456,12.0,38.88,1.14
2.5606,-9.7658,0.92618,0.34117,2.0433,0.21166,11.16,38.34,1.02
3.3097,-10.134,0.5993,0.34606,1.7785,0.28283,9.84,37.14,0.54
3.6094,-10.569,0.34051,0.34056,1.6301,0.31337,9.42,36.54,0.24
3.4732,-11.346,0.095342,0.33628,1.3042,0.36194,8.94,35.94,-0.3
3.2961,-11.7,0.027241,0.31612,1.0556,0.40959,8.76,35.4,-0.84
2.9829,-12.027,0.054481,0.17349,0.9615,0.41844,8.64,34.8,-1.26
2.5879,-11.768,-0.027241,0.040317,0.99754,0.34972,8.22,33.78,-2.64
2.3291,-12.599,-0.027241,-0.06689,1.0999,0.17287,8.04,33.18,-3.42
1.9886,-11.278,0.28603,-0.26573,1.2755,0.087048,8.04,32.04,-5.28
1.58,-9.3436,0.54481,-0.63652,1.5748,-0.30635,8.16,31.38,-6.3
1.4165,-8.4719,0.054481,-0.65912,1.6255,-0.48442,8.22,30.78,-7.5
0.14982,-8.2131,-1.4438,-0.38882,1.346,-1.0815,8.58,28.98,-10.32
-0.53119,-9.5479,-1.8251,-0.14019,1.0217,-1.3207,8.76,28.02,-12.0
-1.1577,-10.515,-0.27241,-0.18998,0.83261,-1.3974,8.82,26.7,-13.92
-1.58,-11.414,0.61292,-0.53665,0.99785,-1.2831,8.64,23.64,-18.78
-1.362,-11.087,1.1305,-1.0376,1.4233,-1.0739,8.16,21.66,-21.48
-1.185,-10.569,0.76274,-1.4135,1.6967,-0.89858,7.02,19.32,-24.54
-1.0624,-8.9077,0.14982,-1.4743,1.4334,-0.72143,3.12,14.4,-31.68
-0.89894,-8.3084,0.28603,-1.3021,1.1283,-0.55008,0.24,12.18,-35.1
-0.91256,-7.8317,0.51757,-1.015,0.82192,-0.4218,-3.18,10.08,-38.28
-0.9398,-7.0962,1.0896,-0.73304,0.56047,-0.27367,-11.22,6.96,-43.92
-0.91256,-6.7421,0.85808,-0.28466,0.30665,-0.026573,-15.66,5.82,-46.32
-0.74912,-6.7421,0.7355,-0.13011,0.22755,0.035125,-20.16,5.04,-48.48
-0.47671,-6.9055,0.36775,0.22633,0.2416,0.28894,-29.88,4.56,-51.78
-0.054481,-7.0009,0.38137,0.36957,0.20097,0.37171,-34.62,4.68,-52.92
0.46309,-6.6331,-0.31327,0.47128,0.31857,0.47098,-39.36,5.28,-53.76
0.72188,-6.2381,-0.72188,0.56719,0.39065,0.52076,-48.6,7.56,-54.0
0.89894,-5.8567,-1.1169,0.66279,0.32132,0.4725,-52.68,9.24,-53.46
0.76274,-5.7205,-0.99429,0.6411,0.10812,0.41814,-56.28,11.4,-52.5
1.3212,-5.6388,-0.96704,0.51221,-0.47556,-0.0048869,-59.28,13.74,-51.06
0.12258,-2.3563,-1.3212,0.19578,-0.40592,-0.034514,-63.66,18.24,-47.64
0.14982,-1.0624,-1.5255,0.088881,-0.42028,-0.033903,-65.1,20.28,-45.96
-0.7355,-0.36775,-0.64016,0.10934,-0.40684,-0.14783,-66.72,22.98,-43.08
-0.6674,-1.9341,0.38137,0.25595,-0.35155,-0.12004,-67.08,23.82,-41.94
-0.35413,-3.6775,0.7355,0.33323,-0.26695,-0.081856,-67.38,24.12,-40.68
1.0896,-12.749,1.2258,-0.21991,0.32254,0.20128,-66.9,23.28,-38.7
2.438,-16.372,1.9886,-0.78679,0.63286,0.50152,-66.42,22.44,-37.92
3.623,-18.183,2.4244,-0.97341,0.64904,0.62247,-65.58,21.42,-37.08
4.1951,-17.162,2.5334,-1.1451,0.48778,0.67562,-63.6,18.96,-35.34
2.7241,-14.574,2.6423,-1.1655,0.15333,0.34575,-62.52,17.7,-34.56
1.6753,-13.416,2.3291,-0.99785,0.11606,-0.19273,-61.56,16.26,-33.84
-0.47671,-10.093,0.6674,-0.68631,0.33323,-0.77122,-59.4,13.56,-32.28
-0.69464,-8.145,0.28603,-0.45968,0.748,-1.0828,-58.32,12.12,-31.44
-0.77636,-6.7421,0.040861,-0.36011,1.1075,-1.1325,-57.12,10.74,-30.66
-0.27241,-6.4152,0.36775,-0.31887,1.3592,-1.0211,-54.72,8.58,-29.1
0.14982,-8.0905,0.88532,-0.34361,1.58,-0.90225,-53.52,7.62,-28.26
0.72188,-9.6432,1.2395,-0.48869,1.5629,-0.65515,-52.08,6.96,-27.54
2.4789,-16.126,1.0488,-0.6017,1.2908,-0.26237,-49.74,6.36,-25.8
3.8954,-18.292,0.49033,-0.50244,0.71654,0.2303,-48.54,6.24,-24.96
4.6582,-17.448,0.095342,-0.31643,-0.083383,0.6353,-47.7,6.24,-24.3
3.9908,-14.138,0.40861,-0.10385,-0.83078,0.86285,-46.44,6.42,-22.74
2.9284,-13.212,0.1362,0.35216,-1.6539,0.68936,-46.14,6.6,-22.02
2.1929,-12.408,-0.12258,0.59284,-2.1026,0.35033,-45.84,6.9,-21.06
0.21793,-9.9837,-1.2258,0.68234,-2.1756,0.015272,-45.3,7.5,-19.08
-0.61292,-8.1586,-1.3212,0.60415,-1.554,0.18387,-45.12,8.1,-18.0
-0.99429,-6.7012,-1.6344,0.41997,-1.0974,-0.040012,-44.94,8.82,-16.86
-1.7434,-3.5549,-2.4244,0.10965,-0.64507,-0.25412,-44.58,10.14,-14.22
-2.3018,-2.0158,-2.8603,-0.21686,-0.83566,0.026878,-44.64,10.92,-12.96
-2.0703,-0.91256,-2.0839,-0.1405,-0.97219,0.16463,-44.76,11.76,-11.7
-0.81722,-2.0703,-0.77636,-0.055894,-0.98319,-0.24954,-44.88,13.62,-9.0
-1.1713,-3.7456,-0.77636,-0.062003,-0.93921,-0.17685,-45.0,14.46,-7.68
-0.40861,-6.8919,0.29965,-0.089797,-0.5342,-0.026878,-45.12,15.3,-6.12
1.2395,-15.159,2.0022,-0.94837,0.076358,0.13439,-44.7,16.86,-3.54
1.9886,-15.881,2.3291,-1.6423,0.53054,0.61392,-44.22,17.46,-2.4
3.0918,-13.484,2.4653,-1.7358,0.67928,0.64752,-43.68,18.12,-1.32
2.942,-11.972,1.9613,-1.4597,0.87751,0.39615,-42.36,19.14,0.18
2.3291,-11.182,1.4165,-1.003,0.64019,0.0094684,-41.7,19.5,0.84
1.2531,-11.032,0.85808,-0.54306,0.405,-0.46945,-40.86,19.74,1.38
0.14982,-9.6568,0.55843,-0.2697,0.5507,-0.81123,-39.3,20.16,1.98
-0.095342,-8.3629,0.81722,-0.2364,1.1936,-0.89644,-38.58,20.16,2.4
0.095342,-6.8102,0.89894,-0.28191,1.4273,-0.85002,-37.14,20.1,2.7
0.42223,-7.0009,0.99429,-0.37874,1.7795,-0.71838,-36.48,20.04,2.64
0.89894,-7.7364,1.076,-0.40409,1.6924,-0.58613,-36.0,19.92,2.52
1.2258,-12.19,1.076,-0.40134,1.4096,-0.29596,-34.92,19.56,1.92
1.9886,-14.71,0.81722,-0.25045,0.96517,0.13195,-34.44,19.5,1.68
3.1327,-15.432,0.44947,0.25687,0.073915,0.8998,-33.66,19.02,1.32
4.6718,-14.342,-0.54481,0.50641,-0.2584,1.1423,-33.18,18.9,1.2
4.9987,-14.07,-1.2803,1.3082,-1.4132,1.4826,-33.0,18.78,1.32
4.6582,-13.634,-1.3212,1.7187,-2.208,1.4224,-32.52,18.78,1.26
2.8467,-11.237,-1.2531,1.8735,-2.8637,1.1915,-31.8,18.96,1.26
1.1169,-9.0439,-1.1169,1.7071,-3.1539,0.71807,-31.26,19.08,1.56
-0.58567,-6.3198,-1.7706,1.3244,-2.9807,-0.15577,-29.76,19.56,2.34
-2.0022,-4.9169,-3.0918,0.64874,-1.6054,-0.5003,-29.16,19.8,2.7
-2.6968,-3.228,-3.6366,0.33567,-0.18998,-0.56994,-28.44,20.16,3.24
-2.2474,-0.74912,-2.8739,0.12737,0.33048,-0.52993,-26.7,21.0,4.68
-1.6208,-0.53119,-1.9886,0.22633,0.62675,-0.54764,-25.8,21.42,5.46
-0.92618,-1.8524,-1.1169,0.3934,0.46578,-0.56719,-25.02,21.96,6.06
1.1305,-6.5786,-0.12258,0.70311,0.016188,-0.58063,-23.46,22.86,7.56
1.975,-11.359,-1.3212,0.11912,-0.18784,-0.28955,-22.68,23.16,8.16
2.5198,-17.884,0.7355,0.11912,-0.18784,-0.28955,-21.66,23.64,8.76
3.3506,-13.634,2.1248,-1.8476,-0.54092,0.70708,-19.68,24.18,10.08
3.0101,-12.245,2.1929,-1.722,-0.48014,0.75503,-18.6,24.48,10.74
2.4653,-11.795,2.1248,-1.2483,-0.42302,0.59407,-17.58,24.66,11.22
1.2803,-11.346,1.5663,-0.76022,-0.52015,0.11729,-16.68,24.9,11.7
-0.027241,-10.079,0.81722,-0.36255,-0.40775,-0.37507,-14.7,25.5,12.48
0.14982,-9.4117,0.74912,-0.17685,0.15027,-0.65699,-13.8,25.68,12.84
0.31327,-8.0905,0.70826,-0.31734,1.284,-0.69242,-12.78,26.04,13.08
0.040861,-6.3335,1.185,-0.50946,1.8283,-0.66432,-11.34,26.7,13.32
0.29965,-7.0962,1.5119,-0.61484,2.0678,-0.72357,-10.8,26.94,13.56
0.70826,-8.1995,1.4165,-0.7083,2.0638,-0.73273,-10.2,27.24,13.68
2.3563,-13.43,0.61292,-0.75289,1.8024,-0.57482,-9.48,27.96,13.68
3.0101,-14.846,0.14982,-0.59468,1.3393,-0.14019,-9.24,28.08,13.62
4.304,-15.282,-0.20431,-0.19242,0.36744,0.7364,-9.06,28.32,13.56
5.1621,-15.214,-0.7355,0.14875,-0.2587,1.2004,-9.18,28.74,12.84
5.1213,-14.71,-1.0488,0.47983,-0.80512,1.3613,-9.36,29.1,12.48
3.1599,-10.665,-0.65378,0.61881,-1.2859,1.2795,-9.66,29.64,11.46
1.975,-8.7715,-0.78998,0.48442,-1.562,0.94409,-9.9,29.7,10.98
-1.3348,-4.2768,-2.5742,0.26176,-1.2559,0.47495,-10.2,29.94,10.02
-3.5277,-2.8058,-4.3721,-0.020464,0.61728,-0.5397,-10.44,30.0,9.54
-5.0259,-1.3757,-5.2711,-0.081856,1.0125,-0.68967,-10.74,29.82,9.12
-3.4732,-0.44947,-4.1133,0.17868,0.30696,-0.58124,-10.92,29.88,8.52
0.70826,-1.6208,-2.6423,0.23854,-0.39034,-1.0669,-11.34,29.64,7.38
0.8036,-2.5742,-1.1305,0.1909,-0.91691,-0.98594,-11.52,29.58,6.84
2.1248,-7.927,-0.54481,0.26176,-1.1512,-0.63072,-12.0,29.28,5.76
3.2825,-14.86,-0.35413,-0.45448,-1.5504,0.12126,-12.36,28.98,5.22
4.3449,-19.218,-0.054481,-0.66676,-1.6423,0.40989,-12.9,28.86,4.92
4.0589,-18.115,0.34051,-0.98899,-1.7394,1.1023,-13.38,28.62,4.5
3.6775,-13.375,2.0294,-1.1829,-1.4413,1.215,-14.4,27.9,4.14
3.1327,-13.157,1.9477,-1.1683,-0.79535,0.80329,-14.94,27.66,4.14
1.4301,-12.79,1.0624,-1.0409,-0.43371,0.16432,-15.6,27.3,3.96
0.12258,-12.449,0.27241,-0.86651,0.052229,-0.62156,-16.44,27.06,3.78
0.29965,-10.256,0.12258,-0.76816,0.92882,-1.0993,-17.64,26.7,3.84
0.42223,-8.4855,0.31327,-0.78588,1.836,-1.2181,-18.12,26.4,4.02
0.19068,-6.8238,0.40861,-0.79779,2.4798,-1.2651,-18.9,26.1,4.32
0.47671,-7.1915,0.35413,-0.56383,2.7843,-1.3561,-20.28,25.56,4.56
1.2395,-9.9565,0.65378,-0.41233,2.5852,-1.2752,-20.94,25.44,4.5
2.2882,-12.926,0.5993,-0.38851,2.3427,-1.1524,-21.54,25.08,4.74
4.1814,-14.07,0.31327,-0.30696,1.2581,-0.3992,-22.26,24.54,5.1
4.808,-13.089,-0.21793,-0.040928,0.39523,0.30788,-22.5,24.18,5.16
4.6309,-13.375,-0.57205,0.35888,-0.44563,0.73273,-23.16,23.94,5.1
3.1191,-13.021,-0.57205,0.88331,-1.2624,0.95051,-23.88,23.58,4.98
2.4925,-11.645,-0.46309,1.04,-1.591,0.91844,-24.3,23.52,4.92
2.1248,-10.474,-0.5993,1.0678,-1.6707,0.84055,-24.6,23.46,4.98
1.076,-7.4776,-1.58,1.1472,-1.5091,0.48503,-25.02,23.46,5.22
0.92618,-6.4424,-2.3155,1.2052,-1.2193,0.27214,-25.32,23.64,5.28
0.81722,-5.598,-3.1872,1.0623,-0.97525,0.1463,-25.14,23.76,5.4
-1.5391,-4.5764,-5.7342,0.66554,-0.48197,0.11576,-24.78,24.12,6.06
-2.9148,-3.5822,-5.775,-0.46853,2.1509,-0.11148,-24.6,24.24,6.3
-0.95342,-1.8251,-4.4811,-0.4893,2.0913,-0.23671,-24.36,24.48,6.54
2.1793,-0.85808,-2.7377,0.14661,1.0189,-0.92729,-24.12,24.9,7.02
3.3097,-3.4187,-2.0431,0.38149,-0.29138,-0.97097,-24.06,25.14,7.32
2.7922,-8.0224,-2.2474,0.30238,-1.0504,-0.52473,-23.82,25.38,7.8
3.4459,-16.208,-1.3076,0.17807,-1.1704,0.27855,-23.22,25.56,8.52
3.9771,-18.96,-0.62654,-0.080634,-1.4633,0.61423,-23.04,25.74,8.82
3.5685,-17.325,0.47671,-0.83169,-1.2511,1.1081,-22.86,25.8,9.24
2.9829,-14.152,2.152,-1.1796,-0.9499,1.2886,-22.62,25.8,9.66
2.5742,-13.321,1.3484,-1.7071,0.39279,1.2346,-21.72,25.98,10.5
1.7025,-12.34,-0.095342,-1.532,0.96211,0.55864,-21.42,25.8,10.92
0.92618,-11.455,-0.77636,-1.1661,1.1945,-0.20128,-20.82,25.98,11.88
1.2258,-8.9622,-0.19068,-0.87323,1.715,-0.85094,-20.52,25.98,12.48
1.3757,-7.4912,0.24517,-0.85307,1.96,-0.97616,-20.22,25.86,13.08
1.3757,-6.1564,0.34051,-0.78374,2.708,-1.1445,-20.04,25.74,13.74
1.9205,-5.5707,0.50395,-0.66523,2.8702,-1.1628,-19.86,25.68,14.82
2.152,-7.1371,0.49033,-0.4948,2.6069,-1.0812,-19.86,25.62,15.24
2.4925,-9.2891,0.23155,-0.28588,1.978,-0.81917,-19.92,25.5,15.84
4.1133,-14.369,-0.12258,0.066584,0.78557,0.026267,-20.1,24.96,16.74
4.8625,-13.77,0.095342,0.2529,0.097738,0.73793,-20.1,24.84,17.04
5.203,-12.0,0.054481,0.56658,-0.41966,1.3479,-20.22,24.72,17.28
5.0259,-11.605,-0.68102,0.99296,-0.96822,1.6215,-20.46,24.54,17.52
4.4402,-11.278,-1.4846,1.4248,-1.6289,1.5638,-20.7,24.72,17.58
3.6366,-10.515,-1.8932,1.7715,-2.3445,1.3018,-20.7,24.72,17.64
2.1112,-7.8181,-2.2201,1.9025,-2.9526,0.6744,-20.4,25.02,17.88
1.1169,-6.2381,-2.3972,1.7104,-2.8983,0.41936,-20.16,25.44,18.0
0.61292,-5.1349,-2.4517,1.1817,-2.4401,-0.020464,-19.74,25.62,18.06
-0.27241,-2.8058,-2.5061,0.50793,-1.3408,-0.53878,-19.14,25.98,18.06
-2.2201,-0.95342,-3.4459,0.36469,-0.57879,-0.70524,-17.52,26.7,18.24
-2.6832,-1.3484,-3.6911,0.29871,0.17287,-0.81123,-16.8,27.3,18.3
0.10896,-4.8352,-2.261,0.30177,0.29719,-1.1423,-15.24,28.5,18.72
0.21793,-8.7715,-2.656,0.26328,0.064446,-0.72357,-14.46,29.1,19.02
1.471,-15.255,-1.8932,-0.21258,0.10996,-0.4499,-13.8,29.64,19.26
2.3563,-18.932,-0.58567,-1.0507,0.60567,0.22327,-13.32,30.12,19.56
4.0997,-17.693,1.6344,-1.7654,1.018,0.84513,-12.18,31.26,20.34
4.5901,-15.99,2.4925,-2.2715,1.5119,1.4884,-11.82,31.74,20.76
4.522,-13.334,0.7355,-2.0702,2.058,1.3262,-11.1,32.52,21.84
2.9965,-11.768,-0.43585,-1.5061,1.6582,0.5455,-11.04,32.58,22.56
2.5198,-10.719,-0.89894,-1.2019,1.3155,0.14539,-10.92,32.94,23.34
2.2201,-8.9349,-0.72188,-0.58154,0.759,-0.55955,-11.04,33.0,24.3
2.0022,-7.3277,-0.095342,-0.46517,1.0354,-0.84971,-11.4,33.06,26.28
1.7979,-5.7069,0.054481,-0.53878,1.6151,-0.99846,-11.64,33.0,27.06
1.5391,-5.0668,0.38137,-0.68173,2.1976,-1.0818,-12.54,32.58,28.8
1.9341,-6.3198,0.58567,-0.7196,2.1322,-1.1344,-13.14,32.34,29.7
1.9613,-7.9679,0.54481,-0.75869,1.8576,-1.0394,-13.62,31.92,30.72
1.9341,-9.4798,0.58567,-0.75808,1.6704,-0.89309,-14.46,31.5,31.68
2.7513,-13.198,0.01362,-0.50519,1.0736,-0.027489,-15.3,30.96,32.7
4.5083,-11.673,0.50395,-0.24587,0.72998,0.66768,-17.4,30.0,34.5
4.7535,-11.114,0.25879,0.1799,0.54184,1.6377,-18.72,29.64,35.16
5.094,-10.828,-0.57205,0.77824,0.1912,1.7908,-19.86,29.22,35.7
1.9068,-10.556,-3.0237,1.9911,-0.31796,0.22388,-21.12,48.24,17.7
2.0567,-10.665,-3.0646,1.8949,-0.14508,0.33384,-21.18,47.88,15.3
2.261,-10.583,-2.8875,1.7092,0.000916,0.41783,-20.82,47.28,10.86
2.3427,-10.229,-2.9556,1.4493,0.11973,0.54459,-20.34,46.86,8.46
2.2201,-10.12,-3.0237,1.3396,0.22235,0.58154,-19.92,46.32,6.3
2.2201,-9.9973,-3.1327,1.2999,0.2642,0.58093,-19.26,45.9,4.14
2.3155,-9.5615,-3.0646,1.1561,0.43585,0.53756,-17.82,44.76,0.24
2.3699,-9.3027,-3.1599,1.069,0.52229,0.51374,-16.92,44.16,-1.62
2.5061,-9.1529,-3.1054,1.0012,0.59346,0.52962,-16.02,43.56,-3.42
2.6696,-8.9486,-2.9556,0.9163,0.65271,0.46609,-13.74,42.12,-6.48
2.7513,-8.7987,-2.9556,0.7083,0.686,0.40959,-12.6,41.28,-7.92
2.6968,-8.5944,-2.9556,0.6295,0.76877,0.38301,-11.58,40.44,-9.24
2.3291,-7.9679,-3.0101,0.26939,1.274,0.25351,-10.44,39.72,-10.38
2.4108,-6.8783,-2.8058,-0.042455,1.3925,0.21838,-8.04,38.28,-12.48
2.2882,-6.0883,-2.5334,-0.22205,1.4258,0.047647,-6.78,37.44,-13.38
2.5879,-5.5707,-2.0431,-0.35247,1.3781,0.0033598,-4.44,36.36,-14.64
2.7513,-5.7342,-1.9613,-0.4328,1.0757,-0.060781,-3.24,35.76,-15.3
2.8603,-6.17,-1.866,-0.45173,0.93554,-0.040623,-2.34,35.1,-15.84
3.0918,-6.8374,-1.8387,-0.51282,0.46426,0.15974,-1.32,34.62,-16.38
3.1599,-7.7772,-1.7298,-0.55161,0.24557,0.39706,-0.36,34.14,-16.74
3.3778,-10.379,-1.6481,-0.71135,0.208,0.62461,0.48,33.6,-17.1
3.3778,-11.482,-1.2803,-0.73487,0.36927,0.85735,2.34,32.46,-17.46
3.3778,-11.931,-1.0215,-0.74526,0.45204,0.91813,3.18,32.04,-17.64
3.3234,-12.299,-0.6674,-0.75686,0.66981,0.99999,3.9,31.62,-17.82
3.3506,-13.866,-0.12258,-0.79138,1.0168,0.85765,5.46,30.78,-17.88
3.4596,-14.982,-0.027241,-0.77427,1.1347,0.68295,6.3,30.36,-17.76
3.7728,-16.562,-0.36775,-0.63713,1.1243,0.5452,7.02,30.0,-17.58
4.7944,-14.478,-1.3348,-0.27978,1.0186,0.23793,8.46,29.22,-17.22
4.808,-12.149,-1.5119,-0.15547,0.90103,0.11057,9.18,28.86,-17.04
4.4811,-10.637,-1.6072,0.16188,0.52046,-0.13989,9.66,28.68,-16.68
4.4811,-10.637,-1.6072,0.33475,0.24282,-0.2813,9.66,28.68,-16.68
3.3642,-10.474,-2.1248,0.82772,-1.1756,-0.86743,10.56,28.14,-16.14
3.1191,-10.379,-2.0294,0.81612,-1.6561,-0.95234,10.8,27.9,-15.9
2.1929,-9.1529,-1.7298,0.66951,-1.7349,-0.85277,10.8,27.9,-15.78
1.6753,-8.1858,-1.5936,0.40195,-1.401,-0.64507,10.44,27.96,-15.66
1.4301,-7.4776,-1.5255,0.11301,-0.79443,-0.44379,10.02,27.96,-15.6
0.72188,-5.3392,-1.4165,-0.22266,0.22388,-0.35675,9.18,27.9,-15.06
0.68102,-4.5083,-1.4438,-0.28711,0.74587,-0.42333,8.58,28.08,-14.88
0.92618,-3.8818,-1.471,-0.26939,1.0605,-0.50183,7.92,28.2,-14.7
