Ax,Ay,Az,Gx,Gy,Gz,Mx,My,Mz
3.6366,-7.8181,-1.6753,-0.24923,-0.52993,-0.40073,4.2,21.9,-31.26
3.7865,-7.9407,-1.6344,-0.2306,-0.39554,-0.45204,2.76,21.36,-32.04
4.3449,-8.0224,-1.4982,-0.20892,-0.2926,-0.62369,1.26,20.88,-32.82
4.7944,-7.9679,-1.2803,-0.24007,-0.44593,-0.77061,-1.68,19.68,-33.78
4.7944,-7.7636,-0.95342,-0.26664,-0.66676,-0.96792,-3.06,19.08,-34.08
4.4811,-7.927,-0.47671,-0.31673,-0.86346,-1.1759,-4.62,18.48,-34.32
4.018,-10.283,-0.28603,-0.34392,-1.0311,-1.4184,-7.86,16.92,-33.9
3.8546,-12.572,-0.35413,-0.35949,-1.1029,-1.4453,-9.3,16.14,-33.48
3.8001,-14.07,-0.24517,-0.43066,-1.1304,-1.3693,-10.92,15.36,-32.88
3.5277,-17.992,0.28603,-0.60964,-1.065,-1.2272,-14.28,14.34,-31.08
3.5277,-19.341,0.61292,-0.84422,-0.8604,-1.0446,-15.96,13.98,-29.94
3.5685,-19.191,0.85808,-1.065,-0.55283,-0.79565,-18.96,13.44,-26.64
2.9284,-14.928,1.58,-1.2364,0.13989,-0.84391,-20.46,13.5,-24.78
2.4789,-13.375,1.9613,-1.3488,0.8827,-1.109,-21.78,13.68,-22.62
2.261,-12.463,2.3018,-1.3564,1.679,-1.4517,-22.92,14.04,-20.4
2.6696,-11.727,2.4244,-1.2058,2.2168,-1.6912,-24.66,14.88,-15.78
2.9965,-10.801,2.0703,-0.91141,2.2797,-1.7068,-25.38,15.48,-13.44
3.6503,-8.9077,1.6208,-0.5284,1.7593,-1.5113,-25.86,16.26,-11.28
3.2008,-6.6604,0.76274,-0.18357,0.89461,-1.2343,-26.28,17.7,-7.5
2.547,-5.7069,0.61292,0.066279,0.075747,-0.98074,-26.34,18.54,-5.76
2.0294,-5.4209,0.49033,0.19884,-0.57208,-0.66584,-26.16,19.32,-4.14
0.85808,-5.1213,0.34051,0.13256,-0.58521,-0.49297,-25.68,20.82,-1.08
0.62654,-5.0804,0.34051,0.088575,-0.43585,-0.29749,-25.38,21.36,0.18
0.76274,-5.2847,-0.19068,0.071471,-0.25412,-0.083383,-25.02,21.9,1.26
0.95342,-5.9521,-0.25879,-0.046731,0.091935,0.20342,-23.52,22.86,2.82
1.0215,-6.2109,-0.38137,-0.20342,0.41142,0.33231,-22.8,23.34,3.24
1.0215,-6.5105,-0.24517,-0.40592,0.80634,0.41508,-22.08,23.58,3.72
1.1032,-6.7421,0.12258,-0.64294,1.2599,0.50244,-20.88,24.0,4.38
1.3212,-6.8647,0.49033,-0.81642,1.6515,0.61117,-20.28,24.0,4.56
1.6481,-6.9328,0.8036,-0.86926,1.8879,0.79962,-19.68,23.76,4.8
2.2065,-6.8919,1.1032,-0.83475,1.9667,1.0592,-18.78,23.46,5.22
2.5198,-6.7285,0.92618,-0.6408,1.8802,1.4578,-18.36,23.28,5.34
2.7377,-6.5378,0.76274,-0.57238,1.8069,1.587,-17.88,22.98,5.52
3.1463,-6.3198,0.47671,-0.36652,1.4682,1.8494,-17.28,22.5,5.58
3.2961,-8.431,0.31327,-0.33506,1.2419,1.9294,-16.2,21.72,5.82
3.0918,-11.06,0.54481,-0.41905,1.1496,2.0577,-15.36,21.3,5.94
3.3234,-14.22,0.7355,-0.46059,1.1961,2.5149,-14.7,21.0,6.12
4.9578,-18.66,1.076,-0.3708,1.2129,2.755,-13.8,20.52,6.24
6.279,-19.423,0.8717,0.2474,1.1319,3.4447,-11.88,19.86,6.78
7.8045,-19.518,0.21793,0.90652,0.7761,3.6377,-10.8,19.44,7.02
9.7794,-19.123,-1.0488,1.6842,0.028711,3.5317,-9.54,19.14,7.14
11.373,-13.811,-3.0237,2.3631,-1.1371,3.0809,-7.02,18.78,7.08
9.5751,-11.414,-3.6775,2.5339,-2.1771,2.2828,-5.76,18.72,7.08
5.8295,-9.6841,-3.623,1.5852,-2.4554,0.84941,-3.0,18.54,6.96
4.3994,-8.6081,-3.5413,0.58307,-1.9352,-0.030849,-1.74,18.6,6.84
3.7728,-7.4231,-3.4732,0.16524,-1.6197,-0.34728,-0.66,18.72,6.84
3.3097,-6.279,-3.514,-0.49847,-0.66554,-1.0592,0.6,19.02,6.48
2.7649,-4.2904,-3.2416,-0.53634,-0.03207,-1.2336,2.34,19.32,6.06
2.9284,-3.5685,-3.1872,-0.26512,0.52718,-1.0831,3.18,19.5,5.94
3.909,-3.1054,-3.0646,-0.14936,0.52473,-0.97983,4.26,20.04,5.82
4.5083,-3.1872,-2.9829,0.065363,-0.13958,-0.59223,4.8,20.4,5.82
4.5901,-3.2553,-2.8467,-0.0051924,-0.92149,-0.29871,5.34,20.76,5.82
4.1814,-3.5685,-2.438,-0.1463,-1.5736,-0.057116,5.94,21.54,6.36
3.9499,-3.9227,-2.0294,-0.28436,-1.905,0.079412,6.3,22.08,6.72
3.7728,-5.8159,-0.78998,-0.45326,-1.9175,0.19517,7.14,23.34,7.68
3.8682,-7.5729,-0.095342,-0.58215,-1.748,0.24099,7.62,23.94,8.22
4.3994,-10.542,0.43585,-0.63713,-1.6759,0.27855,8.1,24.6,8.88
5.1349,-14.56,0.74912,-0.71135,-1.66,0.4945,8.94,25.32,9.54
6.6331,-19.286,1.4982,-0.74312,-1.6188,0.59529,10.8,26.7,10.98
7.3686,-19.504,2.3836,-0.89003,-1.3821,0.5003,11.76,27.3,11.82
7.5593,-19.246,4.7399,-1.3738,-0.83627,0.084605,12.96,28.02,12.54
6.1564,-15.595,4.9714,-2.1078,0.31673,-1.4432,15.3,29.22,13.5
5.1485,-13.28,3.9227,-1.6765,0.75778,-2.8246,16.56,29.76,14.1
4.808,-14.22,3.337,-0.66859,0.82039,-4.0189,17.82,30.36,14.46
4.3858,-16.794,2.2201,0.15669,0.52015,-4.6209,18.84,31.08,14.64
3.6366,-16.944,1.3348,0.37263,0.12248,-4.3222,20.04,32.4,14.82
2.4244,-12.926,0.8717,0.14233,-0.41661,-3.4975,20.34,32.94,14.58
0.99429,-8.5127,0.51757,-0.16768,-0.92118,-2.9419,20.34,34.14,13.98
-1.1169,-6.7966,0.40861,-0.38851,-1.0837,-2.6634,20.1,34.68,13.44
-1.8115,-5.8159,0.31327,-0.40897,-0.49083,-2.4936,19.5,35.4,12.66
-1.9205,-5.1757,-0.054481,-0.35033,0.12248,-2.2785,17.46,36.48,11.4
-1.3757,-4.9987,-0.21793,-0.28772,0.58949,-1.9954,16.14,37.14,10.5
-0.54481,-4.985,-0.61292,-0.27733,0.79443,-1.7031,14.46,37.68,9.54
-0.054481,-5.7069,-0.7355,-0.43402,0.82406,-1.2828,10.92,38.94,7.92
0.19068,-6.4424,-0.76274,-0.64996,0.79321,-1.0082,8.88,39.54,6.78
0.25879,-6.5786,-0.7355,-0.78771,0.76541,-0.87537,7.08,40.32,5.94
0.12258,-6.3879,-0.50395,-1.1558,0.65088,-0.49266,3.78,41.1,4.56
-0.12258,-6.0474,-0.29965,-1.3534,0.8378,-0.2645,2.16,41.52,4.02
-0.20431,-5.8023,-0.10896,-1.4957,1.2275,-0.048258,0.78,42.0,3.54
-0.068102,-5.0259,0.25879,-1.5406,1.9102,0.31582,-1.8,42.48,3.12
0.21793,-5.1485,0.31327,-1.5146,2.2016,0.64019,-3.0,42.72,3.3
0.70826,-5.8567,0.5993,-1.4985,2.252,1.0892,-4.02,42.72,3.84
1.9613,-8.6081,1.1577,-1.4688,2.105,1.7025,-5.4,42.9,4.92
2.6832,-11.128,1.757,-1.4007,1.8552,2.5104,-5.88,42.9,5.82
5.8023,-18.279,1.6889,-2.2804,3.1548,3.237,-6.06,42.84,6.84
13.797,-19.491,0.61292,-3.3711,6.3328,-0.85277,-6.84,42.48,9.6
18.687,-16.222,2.3155,-2.0259,3.4291,4.755,-7.2,42.36,11.1
17.243,-13.266,0.35413,-1.0556,2.4123,6.8725,-7.56,42.06,12.6
14.124,-5.5026,-0.57205,2.2468,-2.0342,6.5503,-7.56,41.82,13.98
11.128,-8.9894,0.36775,4.1301,-4.7504,4.8655,-6.24,41.7,16.38
11.128,-10.61,0.64016,4.9709,-6.5903,3.3375,-5.22,41.58,17.28
9.1529,-12.027,0.25879,3.1673,-7.5973,2.6655,-2.34,41.58,17.94
5.6933,-9.1665,-0.35413,1.4868,-6.4336,2.8146,-0.6,41.64,17.7
3.9635,-7.3958,-1.7162,0.51129,-5.0687,2.3628,1.32,41.64,17.22
2.9148,-6.6331,-2.3155,0.032376,-3.6411,1.4022,3.18,41.58,16.56
0.81722,-4.985,-3.1191,0.06017,-1.5314,0.1689,5.16,41.46,15.66
1.2258,-3.9771,-3.2553,0.33872,0.49327,-0.7083,9.0,41.46,13.5
2.7786,-4.7399,-3.5822,0.3879,2.4206,-1.204,10.92,41.52,12.12
4.8352,-5.1485,-3.6094,0.3598,2.6906,-1.2004,15.0,41.76,9.18
5.9385,-5.2847,-3.5685,0.25015,2.6273,-0.99876,16.92,42.0,7.68
6.7012,-5.7069,-3.514,0.048564,1.7187,-0.72968,18.66,42.3,6.36
7.1234,-7.0417,-2.9556,-0.34239,-0.52412,-0.31582,20.82,42.42,3.72
6.1155,-7.464,-1.9341,-0.49511,-2.2562,0.042455,21.48,42.66,2.7
5.1757,-8.3493,-1.4165,-0.60415,-3.9563,0.55192,22.08,43.26,1.56
2.5198,-10.447,-0.12258,-0.44807,-4.9801,0.8772,22.32,43.44,1.26
0.8036,-11.346,0.74912,-0.27061,-5.324,0.98624,22.44,43.68,0.96
-0.054481,-12.463,0.92618,-0.089797,-4.5787,1.131,22.38,44.04,0.72
0.76274,-18.782,0.47671,-0.47739,-1.3384,0.99082,22.26,44.88,0.18
2.4789,-19.45,0.42223,-0.86499,0.35003,0.15211,22.38,45.18,0.18
3.8818,-19.518,0.96704,-1.4923,1.7694,-0.34941,22.44,45.6,-0.12
5.0259,-17.87,2.4108,-2.4716,3.1945,-1.2468,22.98,46.44,0.18
5.4073,-13.825,2.8603,-2.6402,3.3304,-1.8024,23.1,46.56,0.6
4.9714,-11.182,2.7922,-2.4022,3.029,-2.2086,23.22,46.74,1.26
4.0316,-10.706,2.4244,-1.9297,2.8894,-2.5571,23.28,47.22,2.88
3.8954,-10.828,2.152,-1.4615,2.5864,-2.6991,23.16,47.28,4.56
3.7865,-10.678,2.0839,-1.1481,1.9997,-2.6136,22.86,47.34,5.46
3.2825,-9.4253,1.8115,-1.0073,1.2746,-2.3842,21.78,47.46,7.56
2.0294,-6.7693,1.6617,-0.94257,0.34239,-1.9514,20.28,47.34,9.96
0.91256,-4.8761,1.5391,-0.86896,0.077885,-1.7257,18.24,47.34,12.42
0.50395,-3.4323,1.2803,-0.71685,0.135,-1.5944,15.9,47.16,14.76
0.53119,-3.1191,0.99429,-0.52595,0.3375,-1.503,13.56,47.28,16.14
0.6674,-3.4732,0.21793,-0.35125,0.49236,-1.4157,11.1,47.16,16.74
0.91256,-4.0044,-0.19068,-0.27031,0.46304,-1.2318,8.82,47.16,16.92
0.76274,-4.3994,-0.35413,-0.44196,0.080634,-0.80115,6.72,47.16,17.28
0.44947,-4.5901,-0.28603,-0.56322,-0.027184,-0.63133,5.76,47.28,17.46
-0.081722,-4.9033,-0.081722,-1.0195,0.13561,-0.11759,3.9,47.7,17.82
-0.01362,-4.8761,0.12258,-1.23,0.61209,0.17776,2.52,47.94,18.54
0.70826,-5.1621,0.40861,-1.2914,1.1661,0.4667,1.2,48.0,19.32
1.5391,-5.6661,0.64016,-1.2446,1.6167,0.76419,0.78,48.18,19.74
3.2144,-7.8045,0.77636,-1.0739,1.8305,1.1188,-0.3,48.12,20.94
5.7069,-11.346,0.99429,-0.67684,1.4963,1.8524,-1.08,48.3,22.56
6.7693,-13.089,0.77636,-0.416,0.91691,2.437,-1.44,48.42,23.46
9.4934,-17.257,0.6674,-0.29993,0.11148,2.781,-1.98,48.72,25.32
9.1529,-17.734,-2.5198,0.57727,-0.45112,3.3326,-1.98,48.96,26.88
10.569,-13.511,-4.7671,1.0198,0.57574,3.5073,-1.32,49.14,28.26
8.6353,-13.239,-4.8625,2.2336,0.27428,3.4083,-0.9,49.38,28.68
11.673,-12.149,-2.6015,4.1673,-0.89247,2.97,0.3,50.1,28.92
9.0303,-12.681,-2.8875,4.3093,-3.0287,2.6151,2.04,51.06,28.02
5.38,-11.305,-2.7649,3.2461,-3.3344,2.2929,4.5,51.84,26.28
4.6718,-10.079,-2.833,1.5742,-2.438,2.003,5.88,52.2,25.2
4.127,-7.927,-2.8467,0.30696,-1.7599,1.2709,8.88,53.04,22.5
3.5277,-6.1019,-3.2144,-0.31948,-1.109,0.60384,12.06,53.4,19.8
3.4459,-4.5356,-3.3097,-0.36072,-0.089186,-0.29169,14.94,53.7,16.92
3.5004,-4.2223,-3.2553,-0.2865,0.24007,-0.4722,16.32,53.88,15.42
3.8137,-4.1951,-3.1599,-0.000611,1.011,-0.63225,18.42,54.36,13.2
4.5356,-4.2904,-3.0782,0.15974,1.1087,-0.55314,20.16,54.6,11.34
4.7807,-4.4402,-3.0918,0.20189,0.80817,-0.43707,20.82,54.6,10.98
5.1076,-4.9714,-2.8739,0.11942,0.1909,-0.29169,21.54,54.78,10.44
5.1213,-5.6252,-2.5742,-0.12126,-0.87018,-0.016493,21.78,55.44,10.32
5.0123,-6.2245,-2.1929,-0.24343,-1.4899,0.15638,21.84,55.68,10.38
4.6582,-7.927,-1.6753,-0.31093,-1.8876,0.28436,22.02,56.52,10.44
4.5764,-9.3708,-1.362,-0.34911,-2.0204,0.37629,21.96,56.94,10.5
4.4947,-11.645,-1.0215,-0.40623,-1.9071,0.42333,22.26,57.9,10.74
4.8625,-15.772,-0.55843,-0.51588,-1.6729,0.3989,22.68,58.68,10.86
5.5435,-19.15,-0.040861,-0.6805,-1.3241,0.30727,23.46,59.46,10.92
5.993,-19.436,0.21793,-1.0742,-0.77824,0.044288,23.88,59.82,10.92
6.1836,-19.532,1.2258,-1.5944,-0.30727,-0.26664,25.02,60.66,10.68
5.0668,-17.053,2.5742,-2.1316,0.33598,-0.77458,26.28,61.2,10.86
4.3858,-15.159,2.7786,-2.4587,1.1609,-1.4957,27.0,61.32,11.28
3.514,-12.612,2.4517,-2.2767,2.0024,-2.3396,28.2,61.56,12.24
3.8954,-11.945,1.5391,-1.6469,2.4798,-3.0326,28.86,61.5,13.2
4.3449,-11.21,0.85808,-0.81337,1.9816,-3.3555,28.44,61.44,14.34
4.5083,-9.8066,0.53119,-0.54428,1.091,-3.0574,27.96,61.26,14.76
3.8954,-7.927,0.10896,-0.44593,0.11362,-2.5849,26.28,61.32,15.36
2.4244,-6.2109,0.01362,-0.47647,-0.59804,-2.2755,24.0,61.26,15.78
1.8932,-5.7478,0.027241,-0.59284,-0.93951,-2.1383,22.56,61.26,15.84
0.98067,-4.9442,0.1362,-0.7254,-0.86682,-2.1246,19.2,60.84,15.96
0.095342,-4.8625,-0.20431,-0.86407,-0.51618,-2.0885,15.24,60.84,15.36
0.027241,-4.7944,-0.35413,-1.0412,0.012523,-1.8705,10.8,60.78,14.4
-0.081722,-4.7535,-0.34051,-1.1716,0.2248,-1.5595,8.52,60.84,13.98
-0.47671,-4.7399,-0.19068,-1.3329,0.44166,-1.2019,4.26,60.96,12.84
-0.8036,-4.1542,0.16344,-1.478,0.75014,-0.81978,0.6,60.78,12.3
-0.89894,-3.8954,0.21793,-1.5766,1.1322,-0.42822,-1.02,60.72,12.06
-0.6674,-3.5413,0.58567,-1.5785,1.4994,-0.000305,-4.14,60.3,12.24
0.29965,-3.3778,0.70826,-1.4462,1.8586,0.75167,-6.66,59.94,12.9
0.89894,-3.6094,0.81722,-1.2401,1.8683,1.2642,-8.7,59.58,13.92
1.8387,-4.6173,0.92618,-0.93707,1.7168,1.7749,-9.6,59.4,14.64
3.8273,-8.9622,1.2531,-0.55161,1.5275,2.3579,-10.98,58.98,16.38
5.1349,-12.762,1.3348,-0.1295,1.2862,3.0088,-11.34,58.92,18.42
5.6797,-14.533,1.2939,0.34544,0.90622,3.6673,-11.34,58.86,19.5
7.0553,-18.987,0.85808,1.3176,0.31307,4.6313,-10.68,59.04,21.6
8.9894,-19.504,-1.0624,2.2501,-0.20281,5.2055,-9.48,59.88,23.28
10.637,-19.395,-5.2847,3.3439,-1.0812,5.4984,-7.08,60.78,24.18
11.972,-17.734,-4.9169,3.9416,-1.3818,5.5937,-5.46,61.14,24.24
11.577,-15.418,-4.2359,4.6933,-3.1478,5.2382,-1.14,61.98,23.28
7.3822,-13.607,-4.413,4.2559,-4.0238,4.7305,1.32,62.46,22.14
5.8431,-12.449,-4.3858,1.7758,-2.9557,2.8979,6.9,62.94,19.44
3.7728,-9.1529,-3.8682,0.13378,-1.8494,1.182,12.54,63.12,15.78
2.9965,-7.0145,-3.7728,-0.69364,-0.74862,-0.021686,18.06,63.18,11.88
2.8058,-6.4152,-3.8818,-1.0944,0.41264,-1.0027,20.58,63.3,9.96
3.1872,-5.4754,-3.5413,-1.2459,1.6087,-1.6298,24.9,63.06,6.12
4.3585,-4.8625,-3.228,-0.93554,2.5482,-1.5385,28.62,62.76,3.18
5.4754,-4.5083,-3.1191,-0.51221,2.2275,-1.0507,29.88,62.58,2.1
6.279,-3.8954,-2.9965,-0.12034,1.2587,-0.47556,31.44,62.58,0.66
6.7421,-4.0316,-2.6968,0.13653,-0.15272,0.038485,31.68,62.64,0.54
6.5378,-5.2575,-2.0703,0.20342,-1.5815,0.47739,31.26,63.06,0.84
6.1428,-6.5241,-1.58,0.11606,-2.6386,0.74159,30.9,63.42,1.08
5.9249,-7.2869,-1.5391,-0.037874,-3.2379,0.84666,30.18,64.2,1.44
5.38,-9.0848,-1.2531,-0.29719,-3.2336,0.73182,29.4,64.62,1.38
5.0259,-10.542,-0.8717,-0.48136,-2.6395,0.45296,29.04,65.28,0.9
5.1076,-13.838,-0.19068,-0.76205,-1.8085,-0.014966,28.98,65.64,-0.3
5.4209,-17.543,0.61292,-1.1121,-0.99082,-0.59651,28.86,66.06,-2.04
5.5571,-18.946,1.0488,-1.4948,-0.22907,-1.223,28.74,66.06,-2.88
5.2711,-19.518,1.9341,-1.8204,0.47403,-1.7981,28.08,66.24,-4.8
4.9169,-19.532,2.5742,-2.1072,1.4905,-2.4807,26.7,66.24,-6.36
4.5492,-19.491,2.6696,-2.1539,2.0916,-2.7929,25.74,66.12,-6.84
4.3721,-15.078,2.1929,-1.8751,2.4062,-2.9349,22.98,66.0,-7.62
4.3858,-12.558,1.7025,-1.3289,2.3301,-3.0418,21.3,66.0,-7.74
4.4402,-11.182,1.0624,-0.72632,1.9032,-3.1402,17.4,65.7,-7.68
4.0861,-10.392,0.17706,-0.28833,1.1842,-3.2092,12.54,65.46,-7.38
3.8273,-9.6296,-0.068102,-0.023518,0.31612,-3.1539,9.78,65.1,-7.26
2.6696,-7.4776,-0.50395,0.0082467,-0.7645,-2.8869,4.2,64.26,-6.66
2.2746,-6.7012,-0.44947,-0.096211,-1.1051,-2.7043,1.32,63.78,-6.42
1.0624,-5.489,-0.62654,-0.23946,-1.0986,-2.6212,-4.5,62.64,-6.12
0.027241,-5.5843,-0.62654,-0.42211,-0.79565,-2.6188,-10.08,61.38,-5.88
-0.38137,-5.38,-0.64016,-0.78069,-0.068111,-2.478,-15.6,59.88,-6.12
-0.43585,-5.2166,-0.72188,-0.88759,0.13317,-2.3341,-18.18,59.28,-6.06
-0.6674,-4.4947,-0.64016,-1.1322,0.43799,-1.7248,-22.92,57.48,-6.36
-0.83084,-3.7728,-0.39499,-1.237,0.54886,-1.208,-27.3,55.68,-6.6
-0.96704,-3.1599,-0.40861,-1.3011,0.72876,-0.66676,-29.28,53.52,-6.6
-0.7355,-2.7241,-0.16344,-1.3616,0.99082,-0.17257,-32.52,52.68,-6.66
-0.44947,-2.5198,0.12258,-1.4145,1.2385,0.21472,-35.28,50.88,-6.6
0.72188,-3.3097,0.27241,-1.4419,1.4713,0.68936,-37.2,49.26,-6.06
1.2531,-4.1133,0.50395,-1.3705,1.4688,1.0971,-37.86,48.54,-5.88
2.3836,-8.3901,1.362,-1.3491,1.3949,1.6768,-38.4,47.22,-5.28
3.2825,-11.319,2.1248,-1.3625,1.2969,2.4716,-38.46,46.62,-4.62
5.1894,-16.399,3.7728,-1.3118,1.1942,3.4581,-37.86,45.48,-3.36
6.674,-18.524,3.7728,-0.96272,1.259,4.5286,-36.9,45.3,-2.46
7.9815,-18.156,3.0918,-0.083383,1.4346,5.4926,-35.94,45.3,-1.32
10.501,-16.099,0.19068,1.5201,1.2468,6.1612,-34.8,45.72,-0.24
13.212,-14.356,-5.3392,4.2678,-0.57696,5.9168,-31.32,46.68,1.56
10.637,-15.691,-6.1019,4.5766,-1.1078,5.3576,-29.4,47.46,2.04
11.863,-13.607,-3.0101,4.2281,-1.149,4.415,-26.94,48.42,2.34
7.2869,-10.624,-0.64016,2.6249,-3.4838,3.4053,-21.84,50.28,2.22
3.9908,-10.079,-0.9398,0.79596,-2.5574,2.3173,-19.08,51.12,1.86
3.1599,-10.025,-1.2667,-0.99357,-1.0107,1.1487,-16.38,52.08,1.38
2.7649,-8.7034,-1.3757,-1.8192,0.65363,-0.073304,-11.16,54.12,0.84
2.7649,-7.2052,-1.1577,-1.7431,2.0916,-1.0027,-8.7,55.08,0.36
2.8603,-6.2245,-0.89894,-1.2349,3.4227,-1.3528,-6.36,56.28,0.06
5.2711,-5.8431,-0.19068,-0.37477,4.3762,-0.81642,-2.88,58.26,-1.32
6.565,-5.8567,-0.12258,0.10751,3.7186,-0.32162,-1.26,59.16,-2.28
7.2869,-6.1155,-0.35413,0.28344,3.0497,-0.079412,0.12,59.7,-3.36
7.1507,-6.9328,-0.70826,0.50732,0.64446,0.41936,1.98,61.14,-5.16
6.1564,-7.641,-0.44947,0.45357,-0.44563,0.59468,2.58,61.62,-5.7
5.3119,-8.7851,-0.16344,0.24862,-0.74739,0.62339,2.76,61.98,-6.24
4.1133,-12.054,0.65378,-0.044288,-0.38729,0.2981,2.94,63.0,-6.72
4.1133,-12.054,0.65378,-0.38301,0.42272,0.1237,2.94,63.0,-6.72
4.8625,-17.992,1.7434,-0.83811,1.7233,-0.39034,2.22,64.08,-6.72
5.8295,-19.327,1.9477,-1.0641,2.2715,-0.70066,1.86,64.8,-6.72
6.6331,-19.477,2.0839,-1.1539,2.3973,-0.98044,1.32,65.34,-6.9
6.7421,-18.864,2.4244,-1.0989,2.2092,-1.3689,0.12,66.66,-7.02
6.5786,-18.115,2.0975,-0.94715,1.8824,-1.8787,-0.36,67.38,-6.84
6.1836,-14.901,0.70826,-0.36255,0.88239,-2.7168,-1.2,68.58,-6.48
4.7399,-12.558,0.20431,-0.12706,0.43555,-2.9648,-1.98,69.12,-6.12
4.1133,-12.79,-4.0316,0.0018326,-2.715,-3.7855,-2.76,69.3,-5.88
-1.2531,-12.79,-3.1327,-0.82589,-5.5329,-3.3384,-3.78,69.24,-5.28
-5.4481,-8.6489,0.43585,-1.4893,-3.7339,-2.011,-6.24,68.52,-3.78
-5.3392,-7.7091,0.72188,-1.4496,-0.93646,-1.2425,-7.74,67.74,-2.7
-3.7456,-6.9872,0.8036,-1.7895,2.1585,-1.201,-9.36,67.02,-1.62
-3.1599,-3.3778,-0.99429,-1.6637,1.2853,-1.9096,-13.02,65.04,1.02
-5.4481,-4.0044,0.21793,-1.533,1.4288,-1.8751,-14.94,63.66,2.4
-0.92618,-5.7342,0.53119,-1.8509,3.7217,-0.2868,-17.04,62.46,3.72
-1.2803,-5.7478,1.1169,-1.7681,4.2513,0.30085,-21.24,59.76,5.7
0.57205,-5.7614,0.89894,-1.7721,5.3594,0.74678,-23.58,58.2,6.36
0.89894,-5.6797,1.3212,-1.9129,4.8518,0.62797,-25.74,56.76,6.9
1.185,-7.5729,1.9886,-1.9129,4.6994,0.69852,-29.52,54.06,7.44
1.8796,-9.4525,2.3563,-2.0647,4.3726,1.4303,-31.32,52.8,7.68
2.6423,-10.774,2.5879,-2.1728,3.8918,2.1612,-32.7,51.9,7.74
3.6094,-11.836,2.6968,-2.1557,3.1695,2.8854,-33.84,51.3,7.8
5.1894,-14.056,2.8603,-1.9548,2.2135,3.4166,-34.86,51.0,7.44
5.598,-16.467,3.2416,-1.4645,0.75778,3.8616,-34.92,51.0,7.14
6.0338,-19.082,3.8682,-1.1417,0.0088575,4.0342,-34.68,51.36,6.78
7.8045,-19.504,3.8954,-0.64752,-0.54642,4.0116,-33.84,51.96,6.6
9.5751,-14.192,1.3484,0.15424,-1.1533,3.7205,-30.66,53.58,5.94
8.717,-5.1621,1.3484,1.1319,-1.627,2.8973,-28.62,54.36,5.94
6.674,-2.3699,-0.34051,1.9594,-1.7217,1.6515,-26.22,55.08,5.82
2.5742,-7.3414,-0.081722,2.0058,-1.2281,-0.60628,-20.94,56.82,5.64
1.3484,-9.6568,-0.01362,0.88789,-0.13347,-1.7391,-18.48,57.48,5.82
0.35413,-10.896,0.23155,-0.50702,1.2385,-2.2755,-16.2,58.14,5.82
0.027241,-11.087,0.040861,-1.6176,2.6851,-2.3298,-13.98,58.86,5.94
0.068102,-10.161,0.16344,-2.2214,3.9407,-2.0143,-12.24,59.46,6.0
2.0567,-6.4833,0.84446,-2.2465,4.7226,-1.4346,-9.72,60.24,6.48
2.833,-5.6252,1.0079,-1.9233,4.718,-0.71593,-8.88,60.18,6.78
3.1327,-5.3528,1.1032,-1.5531,4.4816,-0.60079,-8.34,60.12,7.14
3.5549,-5.0259,1.3484,-0.98105,3.5592,-0.34728,-8.16,59.7,7.5
4.1814,-5.1894,1.0215,-0.56933,2.8045,-0.15302,-8.76,59.16,7.74
4.5356,-5.2711,0.76274,-0.082467,1.8473,0.088575,-9.84,58.62,7.86
5.1894,-6.7693,-0.58567,0.47831,0.75778,0.34575,-12.42,57.54,7.56
5.3256,-7.4776,-1.2803,1.0223,-0.74892,0.6411,-14.04,57.0,7.56
5.3256,-9.0303,-2.4789,1.5125,-1.1613,0.72357,-17.04,56.22,7.32
4.985,-9.8611,-2.9692,1.8793,-1.7962,0.81428,-18.3,55.8,7.26
4.3449,-10.433,-3.3234,1.9639,-2.018,0.7813,-19.32,55.5,7.02
3.1191,-10.869,-3.5413,1.4719,-1.3512,0.39859,-20.22,55.2,6.72
1.866,-11.319,-3.5004,0.85032,-0.405,-0.048564,-21.24,54.66,5.64
1.7706,-11.536,-3.2825,-0.11973,1.0953,-0.75411,-21.9,54.54,4.98
2.8194,-12.544,-2.547,-0.62919,1.6939,-0.93737,-22.92,54.36,3.42
3.3915,-13.048,-1.9341,-0.97586,1.9716,-0.93859,-23.52,54.24,2.7
3.8818,-13.157,-1.5391,-1.0986,1.9181,-0.74495,-24.12,54.18,1.8
5.5162,-11.713,-1.1169,-0.96944,1.5024,-0.48014,-25.2,53.94,0.12
6.0883,-10.052,-1.0079,-0.67867,0.70799,-0.28558,-25.92,53.7,-0.72
5.3256,-7.6683,-0.46309,-0.42364,-0.18387,-0.29322,-26.58,53.52,-1.44
4.4811,-7.6819,-0.10896,-0.28955,-1.0006,-0.69394,-28.38,52.74,-2.64
3.8001,-8.5127,0.14982,-0.39095,-1.0773,-1.0058,-29.58,52.38,-3.18
3.6094,-9.6841,0.23155,-0.53329,-1.0146,-1.1692,-31.02,51.96,-3.42
3.2961,-12.49,0.65378,-0.71838,-0.95326,-1.2068,-34.32,50.76,-3.24
3.0237,-13.184,1.2258,-0.95448,-0.77091,-1.1597,-36.24,50.16,-2.88
2.7649,-13.334,1.6208,-1.23,-0.4218,-1.1237,-38.22,49.38,-2.4
2.5061,-11.645,1.7706,-1.4572,0.33353,-1.2239,-42.42,47.64,-0.72
2.3972,-10.719,1.4165,-1.3888,0.91477,-1.423,-44.34,46.86,0.36
2.3018,-10.065,1.1713,-1.2352,1.4878,-1.689,-46.14,45.84,1.5
2.2882,-9.616,0.69464,-1.1365,2.0091,-1.9426,-48.18,45.0,2.76
2.5742,-9.9565,0.19068,-1.1536,2.3286,-2.1304,-52.14,42.72,5.04
2.6696,-9.9156,0.095342,-1.2425,2.3259,-2.2168,-54.18,41.4,6.06
2.4517,-9.6296,-0.027241,-1.3418,2.0879,-2.1958,-58.08,38.94,7.92
2.152,-9.1256,-0.027241,-1.4258,1.7724,-2.0614,-59.76,37.44,8.64
1.6617,-8.6353,0.027241,-1.503,1.518,-1.8353,-61.62,35.94,9.12
0.84446,-7.641,0.20431,-1.555,1.4047,-1.3717,-64.8,33.24,9.3
0.38137,-7.1507,0.35413,-1.5623,1.5143,-0.97372,-66.18,31.92,9.06
0.19068,-6.8238,0.53119,-1.5449,1.7184,-0.49633,-67.32,30.54,8.82
0.61292,-6.7148,0.89894,-1.4572,2.0577,0.33628,-69.42,27.78,7.5
1.362,-6.8783,0.96704,-1.4233,2.1267,0.63866,-70.5,26.28,6.48
1.9341,-7.1371,1.1713,-1.3286,2.1087,1.2107,-71.52,25.26,5.22
3.8273,-8.1858,1.58,-1.127,1.6725,1.9661,-72.96,23.22,2.7
4.7671,-8.8668,1.7843,-0.98838,1.157,2.4001,-73.44,22.5,1.68
5.8295,-9.4798,2.0022,-0.84086,0.57177,2.7312,-73.5,22.38,0.66
6.8783,-10.188,2.152,-0.53084,-0.10934,2.938,-73.32,22.5,-1.2
6.8374,-10.351,2.1384,-0.42913,-0.21166,2.9248,-73.14,23.04,-1.98
6.4424,-10.61,2.0975,-0.25045,-0.18357,2.7596,-72.42,23.64,-2.52
5.9657,-10.692,1.8251,-0.12065,0.36835,2.2932,-70.86,25.62,-3.24
5.7205,-11.278,1.866,-0.15241,0.83047,1.9535,-69.78,26.94,-3.36
5.3528,-12.898,2.2474,-0.34178,1.2547,1.6542,-68.64,28.38,-3.66
5.3528,-12.898,2.2746,-0.61697,1.9502,1.4227,-65.88,31.86,-3.72
5.7886,-9.6704,1.7843,-0.47434,2.23,1.3341,-64.38,33.84,-3.66
5.6524,-7.246,1.6072,-0.34697,2.3024,1.2208,-63.0,35.76,-3.48
5.598,-7.4095,1.0215,0.011301,2.23,0.63163,-59.94,39.72,-3.6
5.8567,-8.036,0.34051,0.23305,1.8051,0.26084,-58.56,41.52,-3.78
5.9521,-9.0575,-0.64016,0.40623,1.2239,0.10415,-57.3,43.02,-4.02
5.4073,-9.8748,-1.1441,0.43097,0.58582,0.13103,-54.84,45.54,-4.86
4.8216,-9.7522,-1.0624,0.28955,-0.014966,0.24648,-53.7,46.56,-5.34
3.7728,-9.3844,-0.99429,0.13011,0.03543,0.25534,-52.74,47.46,-6.06
3.2825,-7.927,-1.0215,-0.27153,0.64966,0.18479,-51.24,48.48,-7.38
3.5549,-6.7421,-1.1441,-0.21472,1.0773,0.065057,-50.52,48.78,-8.16
4.0861,-6.279,-1.362,0.0033598,1.2178,-0.0054978,-50.04,48.9,-9.06
5.0668,-6.5105,-2.0567,0.24343,1.022,0.040012,-48.96,49.02,-11.22
5.38,-6.8647,-2.6287,0.5006,0.16524,0.12706,-48.48,48.96,-12.36
5.5026,-7.0553,-2.9965,0.51252,-0.22174,0.18387,-48.18,48.78,-13.32
5.2166,-6.9736,-3.3234,0.48625,-1.4255,0.31612,-47.7,48.54,-14.04
4.2223,-6.565,-3.2553,0.44349,-2.0565,0.34361,-47.4,47.76,-15.36
3.4187,-6.674,-3.1872,0.3485,-2.4196,0.29352,-47.34,47.46,-15.78
2.7922,-6.7012,-3.0782,0.16799,-2.4007,0.14264,-47.4,47.1,-16.02
2.0294,-6.8647,-2.8603,0.009163,-1.9413,0.007025,-47.58,46.98,-16.02
2.0839,-6.9872,-2.8603,-0.25045,-1.3036,-0.14539,-47.88,46.74,-15.84
2.3699,-6.96,-2.6423,-0.3879,-1.0974,-0.22022,-48.06,46.62,-15.72
2.4653,-7.927,-2.0567,-0.70891,-0.83689,-0.35216,-48.96,46.14,-15.48
3.1327,-8.0905,-1.6753,-0.85338,-0.43952,-0.44471,-49.56,46.02,-15.06
3.2144,-8.1858,-1.3484,-0.91752,-0.44379,-0.46701,-50.22,45.84,-14.58
3.4187,-8.5263,-0.91256,-1.1408,0.28741,-0.84513,-52.26,44.94,-13.5
3.9771,-8.4991,-0.6674,-1.0632,0.56139,-1.142,-53.28,44.46,-13.2
4.0316,-9.5751,-0.50395,-0.98502,0.25107,-1.1759,-54.72,44.04,-12.96
3.9908,-12.367,-0.40861,-0.94165,0.064752,-1.1726,-57.72,42.6,-12.72
4.3313,-14.792,-0.21793,-0.90561,-0.19028,-0.97036,-59.28,41.7,-12.78
4.3449,-17.734,0.095342,-0.94898,-0.57544,-0.70372,-61.08,40.8,-12.96
4.3585,-19.504,0.69464,-1.0794,-0.78679,-0.3937,-65.64,38.94,-13.44
4.018,-17.162,1.0488,-1.2462,-0.6243,-0.067195,-68.16,38.28,-13.62
3.6503,-15.391,1.3076,-1.3247,-0.075747,0.092852,-71.22,37.74,-13.8
2.9284,-12.531,1.6617,-1.3085,1.153,-0.38668,-78.24,37.98,-12.84
3.0782,-12.081,1.6481,-1.0999,1.8662,-0.90286,-81.78,38.28,-12.0
3.0782,-12.081,1.6481,-0.95295,2.0849,-1.0831,-81.78,38.28,-12.0
3.0782,-12.081,1.6481,-0.65821,2.1738,-1.2883,-81.78,38.28,-12.0
4.1133,-7.8045,0.40861,-0.28314,1.6087,-1.2446,-90.66,39.18,-8.88
3.8001,-6.1564,0.14982,-0.13134,0.9954,-1.1872,-95.46,39.78,-6.06
3.623,-5.8704,-0.027241,-0.11545,0.14111,-1.1139,-97.32,40.14,-4.5
2.8194,-5.8431,-0.068102,-0.20311,-0.24221,-1.0403,-100.74,40.98,-1.2
2.5742,-6.1292,0.14982,-0.30574,-0.42852,-0.89247,-102.18,41.34,0.66
2.0567,-6.1564,0.31327,-0.37629,-0.42364,-0.66798,-103.8,41.82,4.5
1.7434,-5.8023,0.43585,-0.3937,-0.22388,-0.40195,-104.28,41.76,6.3
1.4574,-5.4754,0.54481,-0.41905,0.16432,-0.15577,-104.1,41.64,7.98
1.4165,-4.8897,0.83084,-0.4722,1.0263,0.13134,-102.9,40.08,10.38
1.7025,-4.5764,0.91256,-0.45296,1.5663,0.29444,-102.36,39.12,10.8
2.2474,-4.413,0.89894,-0.37477,1.8231,0.4777,-101.94,38.04,11.28
3.2553,-4.7944,0.77636,-0.20525,1.6041,0.8491,-102.42,36.42,10.68
3.623,-4.8625,0.8036,-0.083078,1.1753,1.1277,-102.96,35.76,9.78
4.0316,-4.9169,0.6674,0.041844,0.62644,1.3671,-103.68,35.34,8.64
4.0316,-4.985,0.40861,0.18998,0.18357,1.511,-105.6,34.38,4.32
3.7456,-5.2847,0.027241,0.3543,-0.023824,1.5617,-106.14,33.84,1.02
3.8682,-6.7966,0.095342,0.41294,0.16371,1.7801,-105.96,33.12,-2.4
3.7592,-10.351,-0.55843,0.46578,0.41722,1.2285,-103.44,31.68,-8.94
2.5606,-17.339,-3.2689,-0.6576,1.2926,1.2336,-101.46,31.08,-11.7
3.0237,-17.87,-1.5119,-1.4496,3.4993,1.2999,-99.18,30.6,-14.52
5.2847,-17.761,-1.5119,-0.81459,3.5378,1.7828,-96.54,30.18,-17.16
7.1915,-19.314,0.44947,-0.14233,2.967,2.3634,-93.72,30.24,-19.86
11.196,-14.56,-1.0896,1.2385,1.6423,2.6493,-87.36,30.48,-24.66
11.536,-12.231,-2.7513,3.4346,-2.259,2.6918,-83.88,30.72,-26.76
7.7908,-13.198,-2.8058,3.6343,-3.8622,2.2174,-76.38,31.26,-30.12
5.6116,-13.988,-2.3155,2.7284,-4.2913,1.766,-72.6,31.26,-31.2
4.6309,-13.743,-1.9613,1.2413,-3.9117,1.4419,-68.58,31.56,-31.74
2.8739,-11.645,-2.2201,-0.06353,-3.0739,1.0437,-64.8,32.04,-31.14
1.9613,-7.4776,-2.7649,-0.72876,-1.8613,0.61972,-58.8,33.24,-28.56
1.8387,-5.1485,-2.6968,-0.82406,-0.44868,0.09896,-57.0,34.02,-27.12
2.7104,-3.0918,-2.5198,-0.51465,0.82833,-0.36866,-54.84,35.58,-25.32
4.127,-3.2144,-2.3155,-0.009163,1.7736,-0.73029,-54.36,36.18,-24.78
5.0668,-3.3642,-2.2201,0.14111,1.6341,-0.74373,-54.12,36.66,-24.42
5.8976,-3.4459,-2.1793,0.15363,0.9499,-0.63988,-53.88,36.9,-24.18
5.7205,-3.9908,-1.362,-0.23396,0.49541,-0.61239,-54.0,36.6,-24.0
6.1019,-3.8273,-1.0896,-0.36988,-0.24862,-0.59956,-54.18,36.18,-23.76
5.993,-5.1485,-0.51757,-0.27336,-0.85338,-0.5733,-54.3,35.58,-23.58
6.1019,-6.0202,-0.38137,-0.22816,-1.263,-0.52626,-54.96,34.38,-22.8
6.3471,-6.7421,-0.10896,-0.035736,-1.5516,-0.39951,-55.2,33.48,-22.2
6.0747,-7.3958,-0.10896,0.13103,-1.6408,-0.34697,-55.56,32.4,-21.6
5.6524,-9.4798,0.054481,0.1069,-1.5458,-0.4496,-56.52,30.18,-19.92
5.4481,-10.76,0.35413,-0.081551,-1.565,-0.5846,-57.12,29.22,-18.66
5.0123,-14.315,0.70826,-0.33292,-1.6588,-0.5623,-57.84,27.54,-15.18
5.4754,-18.769,0.89894,-0.83169,-0.89644,-0.6521,-58.14,26.82,-13.32
6.5105,-19.436,1.2939,-1.2456,-0.3036,-0.53726,-58.26,26.04,-11.16
7.1915,-19.504,2.0703,-1.602,0.071166,-0.52687,-58.5,25.14,-9.12
7.0553,-16.644,2.3836,-1.4804,-0.79107,-1.0208,-59.1,23.76,-5.58
5.4209,-13.961,2.7377,-1.4581,-0.53848,-1.9374,-59.94,23.34,-3.96
2.2474,-14.642,2.1248,-1.2465,0.1854,-2.7281,-62.76,22.92,-0.54
2.2201,-14.342,1.5936,-0.71044,1.4303,-3.3604,-64.38,23.1,1.44
2.4517,-13.457,1.2122,-0.42486,1.7092,-3.2602,-66.0,23.4,3.42
3.0373,-10.283,0.43585,-0.19945,1.3326,-2.8393,-67.38,23.88,5.16
3.8682,-6.0611,-0.44947,-0.022907,0.38149,-2.3735,-69.66,24.72,8.1
3.337,-5.1213,-0.49033,0.029016,-0.67073,-2.0782,-70.68,24.96,9.0
2.4653,-5.1349,-0.19068,-0.078802,-1.387,-1.9258,-71.7,25.26,9.66
0.61292,-5.1349,0.081722,-0.34453,-1.5345,-1.8964,-73.5,25.26,11.1
0.027241,-4.9306,0.14982,-0.83414,-0.95753,-1.8302,-74.46,25.38,11.76
-0.28603,-4.8625,0.12258,-1.0055,-0.40287,-1.6634,-75.48,25.38,12.48
-0.8036,-4.985,0.21793,-1.124,0.074526,-1.3796,-76.86,25.14,14.7
-0.9398,-4.8625,0.35413,-1.2871,0.50091,-0.95906,-77.1,24.9,15.84
-0.99429,-4.0997,0.6674,-1.478,0.9331,-0.45204,-76.2,23.64,17.76
-0.50395,-3.7047,0.77636,-1.5996,1.4423,0.28314,-75.72,22.62,18.18
0.53119,-3.6911,0.69464,-1.5617,1.5861,0.74067,-75.18,21.6,18.36
1.2531,-3.7592,0.74912,-1.4975,1.5605,0.94318,-74.94,20.58,18.24
2.8058,-3.8546,0.70826,-1.2104,1.1435,1.4875,-74.58,19.56,17.88
3.7865,-5.7342,0.7355,-0.94348,0.75472,1.8176,-74.4,17.82,16.98
4.1814,-7.7636,0.85808,-0.70647,0.47312,2.2165,-74.64,16.8,16.14
4.6173,-13.184,1.4846,-0.48136,0.39523,2.7416,-74.7,16.02,14.88
6.0474,-18.442,0.23155,-1.3451,2.0788,3.5678,-74.22,14.82,11.82
11.727,-19.45,-0.47671,-1.2275,2.2251,1.2037,-73.44,14.52,10.14
10.256,-19.504,-2.0294,-0.63499,3.459,4.915,-72.36,14.34,8.34
11.128,-12.926,-0.84446,0.57116,4.5626,5.8982,-69.12,14.34,5.1
14.097,-12.381,-1.0896,2.5116,2.576,6.3246,-67.2,14.94,3.6
14.969,-12.885,-0.19068,4.3164,-0.8714,5.4752,-65.22,15.72,2.22
12.449,-13.634,-1.1305,5.1704,-6.0778,3.8463,-60.78,17.94,-0.3
8.1177,-13.021,-0.9398,3.4486,-6.3845,3.3631,-58.08,19.2,-1.08
5.2711,-11.21,-0.83084,1.0556,-4.6325,3.0818,-55.56,20.64,-1.74
3.9908,-7.0962,-2.0567,-0.27122,-3.2602,1.8915,-49.68,23.46,-2.4
2.9556,-6.0474,-3.0373,-0.89309,-2.0027,0.86468,-46.56,25.14,-2.58
3.6503,-3.7865,-3.6366,-0.62369,-0.27489,-0.59926,-40.86,27.84,-1.86
4.3585,-3.732,-3.6911,-0.26359,0.28863,-1.1637,-38.64,29.1,-1.2
4.9987,-4.3177,-3.8001,0.041844,0.43249,-1.1399,-36.9,30.18,-0.42
5.2847,-4.5901,-3.7456,0.27184,0.20739,-0.79504,-35.34,31.26,0.24
5.9249,-5.3119,-3.6366,0.3149,-0.39584,-0.41905,-33.36,33.06,1.26
5.6661,-5.9793,-3.2825,0.12339,-1.2202,-0.17287,-32.52,33.66,1.74
4.9714,-7.1915,-2.5742,-0.19303,-1.8314,-0.062003,-31.74,34.2,2.04
4.6854,-8.2131,-2.1112,-0.61361,-2.1014,-0.07025,-30.42,34.74,2.76
4.413,-8.8668,-1.8387,-0.79687,-1.8671,-0.14508,-29.88,34.92,3.12
4.3585,-9.1801,-1.4574,-0.88606,-1.4093,-0.31643,-29.34,35.1,3.24
4.2495,-10.283,-1.1441,-0.93829,-0.87354,-0.58154,-29.22,35.46,3.66
4.3177,-11.319,-0.43585,-0.8995,-0.89278,-0.77183,-29.46,35.52,3.9
4.0044,-14.111,-0.27241,-1.0232,-0.80573,-0.82436,-30.06,36.18,4.68
4.8897,-18.796,-0.01362,-1.4658,-0.07086,-1.1121,-30.36,36.3,5.1
5.2166,-19.6,0.51757,-1.6399,0.20342,-1.2605,-30.72,36.54,5.46
5.203,-19.518,0.96704,-1.7736,0.21228,-1.2382,-31.38,36.66,6.12
3.9908,-17.734,1.8932,-2.2681,0.96333,-1.2373,-33.12,37.02,7.62
3.5685,-14.342,2.0839,-2.328,1.7889,-1.4224,-34.26,37.02,8.22
3.1599,-11.455,2.152,-2.1151,2.4737,-1.8295,-35.58,36.84,8.82
3.3642,-11.768,1.9477,-1.4847,3.0244,-2.4465,-38.82,36.54,9.66
3.8954,-11.509,1.7025,-1.0718,2.7755,-2.6289,-40.8,36.36,10.02
4.3177,-10.896,1.2531,-0.76419,1.9358,-2.4771,-42.96,36.06,10.38
4.4266,-8.8805,0.99429,-0.54734,0.84422,-2.1414,-45.06,35.64,10.5
3.1191,-5.6524,0.6674,-0.34606,-0.089186,-1.8555,-49.14,34.32,10.92
2.2201,-5.1621,0.76274,-0.19914,-0.72998,-1.6738,-51.12,33.6,10.92
1.076,-4.6718,0.76274,-0.2022,-0.74373,-1.6545,-55.02,31.86,10.92
0.77636,-4.3585,0.62654,-0.24679,-0.45784,-1.6185,-56.88,30.96,11.1
0.61292,-4.0589,0.55843,-0.25168,-0.33323,-1.5629,-58.62,30.06,11.1
0.43585,-4.127,0.29965,-0.25259,-0.057727,-1.2288,-61.68,28.08,10.74
0.20431,-4.413,0.19068,-0.29841,0.018631,-0.88301,-62.94,27.12,10.68
0.027241,-4.699,0.25879,-0.40561,0.10996,-0.43402,-64.14,26.34,10.8
-0.38137,-4.699,0.38137,-0.57146,0.28436,0.044593,-65.94,24.6,11.1
-0.16344,-4.7671,0.44947,-0.71471,0.54398,0.57513,-66.54,23.64,11.16
-0.01362,-4.6718,0.55843,-0.83658,0.93768,1.3723,-66.96,22.86,11.34
0.46309,-4.7671,0.68102,-0.82222,1.1747,1.883,-67.32,21.78,11.46
1.0351,-5.0531,0.74912,-0.70219,1.3677,2.3662,-67.38,21.54,11.4
1.8796,-6.8647,0.7355,-0.42211,1.4242,3.0363,-67.08,21.42,10.98
4.413,-8.4719,0.76274,-0.17379,1.2306,3.394,-66.66,21.6,10.62
7.7364,-14.111,-2.2201,-0.87445,1.4862,3.4144,-66.06,22.08,10.26
11.06,-14.261,-1.5936,-0.98594,0.74923,1.9911,-65.22,22.74,10.02
6.4697,-18.51,-0.7355,-1.6448,3.2309,3.4053,-63.24,24.6,9.96
8.7306,-18.905,2.0703,-0.45754,4.3448,3.7382,-62.1,25.86,9.66
10.692,-19.45,0.35413,1.4038,2.9798,4.5216,-60.96,27.3,9.18
15.064,-17.706,-2.5061,3.773,-0.58246,4.156,-58.02,30.96,7.62
14.41,-15.732,-3.1054,4.222,-2.0052,4.1411,-56.1,32.94,6.72
12.776,-14.942,-3.0782,3.6356,-4.517,3.3524,-54.06,34.98,5.76
6.3198,-12.19,-1.7434,2.2672,-4.8683,2.4764,-49.92,39.12,3.9
3.9635,-10.406,-1.9205,0.82833,-4.018,1.6008,-47.88,41.1,3.24
2.8739,-8.6081,-3.0646,-0.21777,-2.606,0.79993,-45.84,42.78,2.7
2.5879,-7.2596,-3.8682,-0.832,-0.63316,-0.26298,-43.86,44.58,2.28
2.5198,-4.4402,-3.7047,-0.84727,-0.0012217,-0.54153,-40.56,47.94,1.5
3.0646,-3.732,-3.4051,-0.62797,1.5653,-0.80298,-39.18,49.26,0.96
4.1951,-3.3234,-3.0918,-0.44257,1.9969,-0.63133,-37.92,50.34,0.24
6.1292,-2.8875,-2.6696,-0.31062,1.6765,-0.40317,-35.7,52.5,-0.78
7.246,-3.1191,-2.4653,-0.20617,0.6576,-0.16188,-34.62,53.16,-1.26
7.9543,-4.0316,-2.0022,-0.076358,-1.4954,0.10018,-33.0,54.06,-1.14
7.355,-4.6037,-1.7025,-0.036346,-2.6328,0.13958,-32.64,54.3,-0.9
6.2517,-5.6116,-1.4165,-0.069639,-3.2373,0.078191,-32.34,54.3,-0.48
5.7342,-6.2517,-1.3757,-0.17959,-3.3338,-0.069333,-32.22,54.42,-0.48
4.9714,-8.4038,-1.3212,-0.35461,-3.0452,-0.25473,-32.1,54.48,1.32
4.9033,-9.3844,-1.3076,-0.59865,-2.5824,-0.48503,-31.92,54.66,1.86
4.8625,-9.8611,-0.95342,-0.91385,-2.0629,-0.79199,-31.98,54.54,2.46
4.1133,-12.258,-0.14982,-1.4258,-1.1274,-1.3613,-31.98,54.24,3.84
3.9635,-14.833,0.17706,-1.6893,-0.40836,-1.7614,-32.1,54.06,4.68
3.8954,-16.985,0.42223,-1.7715,-0.040317,-1.9245,-32.34,53.88,5.58
3.8954,-19.355,0.5993,-2.0867,1.0641,-2.2959,-32.76,53.28,6.36
3.9227,-19.532,1.6344,-2.3717,1.8402,-2.4639,-33.78,52.08,8.46
3.9227,-19.096,2.2201,-2.4786,2.4325,-2.5769,-34.62,51.42,9.36
3.9227,-19.314,2.4925,-2.2526,2.6695,-2.7119,-36.78,49.5,10.8
4.413,-16.031,1.8115,-1.8002,2.4655,-2.7828,-38.22,48.6,11.1
4.0725,-12.694,1.471,-1.212,1.7532,-2.5998,-39.6,47.28,11.52
3.514,-10.12,1.1032,-0.3207,0.53665,-1.9926,-41.4,46.02,11.64
2.7649,-7.7364,0.83084,0.094073,-0.13073,-1.624,-45.0,43.26,11.58
2.3836,-7.1779,0.8036,0.30543,-0.67989,-1.376,-46.98,41.88,11.52
1.975,-6.2245,0.7355,0.37293,-1.0107,-1.2288,-48.96,40.38,11.34
1.2531,-4.7807,0.29965,0.35186,-1.0864,-1.1399,-52.74,37.62,10.86
0.64016,-3.8682,0.14982,0.28527,-0.9615,-1.0928,-54.54,36.24,10.62
0.44947,-3.4732,0.14982,0.11118,-0.48686,-1.0525,-56.1,35.16,10.32
-0.24517,-3.1463,-0.081722,-0.030543,-0.1014,-0.97922,-58.92,33.06,9.66
-0.46309,-3.2553,-0.14982,-0.19578,0.31307,-0.78863,-60.18,31.98,9.36
-0.46309,-3.3097,-0.24517,-0.40378,0.81642,-0.24771,-61.2,31.02,9.0
-0.068102,-3.4323,-0.28603,-0.47403,0.93432,-0.01405,-62.82,29.1,8.82
0.19068,-3.6366,-0.27241,-0.61728,1.0974,0.48991,-63.48,28.38,8.58
0.51757,-3.9908,0.054481,-0.87232,1.358,1.1952,-63.72,27.72,8.64
1.1713,-4.6718,0.57205,-1.0012,1.5986,1.6002,-64.32,26.7,8.58
2.0022,-5.1485,1.0079,-1.0574,1.8567,1.9807,-64.44,26.4,8.58
3.7592,-5.993,1.3484,-0.91019,1.9743,2.4532,-64.26,26.1,8.4
4.2904,-6.8647,1.4438,-0.81886,1.9462,2.5788,-64.14,26.28,8.16
4.4811,-8.0224,0.89894,-0.63499,1.8466,2.8191,-63.9,26.46,7.8
9.4934,-12.926,-0.38137,-2.003,2.233,1.1402,-63.66,27.54,7.2
5.9249,-15.963,-2.4517,-1.5776,1.93,2.9056,-63.6,28.08,6.84
6.0066,-19.082,-1.0215,-1.0605,3.5277,3.8714,-63.24,28.92,6.42
12.653,-19.532,-0.027241,1.9319,1.886,5.9364,-62.16,31.68,4.74
16.344,-18.673,-2.1112,2.8488,0.84574,6.3194,-61.38,33.48,3.78
17.23,-14.424,-2.4789,4.6588,-2.7767,5.9611,-60.06,35.46,2.46
10.828,-12.939,-1.6753,5.2452,-6.674,4.2742,-57.0,39.78,-0.18
5.1485,-14.152,-0.57205,3.4792,-6.6218,3.1707,-55.26,41.88,-1.32
2.9284,-13.866,-0.69464,0.90316,-5.0549,2.1047,-53.58,44.04,-2.76
1.9886,-10.215,-2.3427,-0.87445,-2.6111,0.50244,-50.34,48.12,-4.86
1.6072,-8.2267,-3.0373,-1.9578,-1.1115,-0.25901,-48.72,49.86,-5.58
1.4982,-6.4969,-3.2689,-1.7092,0.55619,-1.0629,-47.16,51.84,-6.06
2.5334,-3.3097,-3.3097,-1.0501,1.9468,-1.3796,-44.04,54.72,-6.9
3.8954,-3.0646,-3.0237,-0.3711,2.6899,-1.2373,-42.48,56.1,-7.38
5.2575,-3.0646,-3.0101,0.088575,2.532,-1.0165,-40.98,57.3,-7.56
7.1643,-3.3915,-2.9556,0.21686,0.69364,-0.75442,-39.0,58.74,-7.44
7.0962,-3.6094,-2.547,0.061087,-0.9389,-0.62217,-38.34,59.1,-7.2
6.2517,-4.1406,-2.2882,-0.016799,-1.62,-0.56627,-38.34,59.16,-6.42
5.3528,-4.8625,-2.0567,-0.21166,-2.8491,-0.4047,-38.34,58.98,-5.64
4.1542,-6.7693,-1.7979,-0.24862,-3.0745,-0.26053,-38.94,58.5,-3.48
3.909,-7.8862,-1.7979,-0.24282,-2.9764,-0.11362,-39.24,58.14,-2.1
3.9908,-9.0712,-1.7162,-0.26328,-2.6893,0.0051924,-39.6,57.72,-0.9
4.0861,-10.556,-1.5119,-0.52076,-2.0342,-0.020464,-39.72,56.76,1.68
3.9635,-11.768,-1.1169,-0.81948,-1.4591,-0.26237,-39.6,55.98,2.76
3.8546,-12.898,-0.8036,-1.1781,-0.81612,-0.64355,-39.3,55.32,3.96
3.9908,-18.633,0.25879,-1.5403,-0.13592,-1.015,-38.94,54.12,6.36
4.413,-19.423,0.61292,-1.8415,0.46273,-1.2721,-38.7,53.58,7.5
4.7671,-19.518,1.0896,-2.1677,0.96975,-1.431,-38.22,52.92,8.88
4.413,-19.3,2.4517,-2.5751,1.6142,-1.6472,-37.32,51.18,11.58
4.0589,-17.094,2.6287,-2.4948,2.0415,-1.9361,-36.96,50.28,12.6
3.6775,-14.206,2.3018,-2.0641,2.2785,-2.3127,-36.84,49.32,13.5
3.4051,-10.815,1.8932,-1.4755,2.3088,-2.6044,-36.84,47.1,14.4
3.4187,-10.311,1.6889,-0.92363,2.058,-2.7351,-37.02,45.96,14.52
3.5413,-9.9429,1.2395,-0.54611,1.5046,-2.7074,-37.38,44.64,14.52
3.3642,-8.6762,0.89894,-0.27672,0.21502,-2.3998,-38.88,42.24,13.56
2.3836,-7.6274,0.89894,-0.22816,-0.52107,-2.1252,-40.02,40.98,12.9
1.7979,-6.9191,0.8036,-0.21961,-0.71532,-1.9923,-41.28,39.66,12.18
0.19068,-5.0259,0.85808,-0.27428,-0.70463,-1.6719,-43.86,37.02,10.56
-0.20431,-3.9227,0.78998,-0.35216,-0.32498,-1.5168,-45.18,35.52,9.78
-0.32689,-2.9692,0.7355,-0.40928,0.10354,-1.3799,-46.56,34.14,9.0
-0.64016,-2.9284,0.36775,-0.44166,0.54886,-1.1292,-49.38,31.68,7.26
-0.70826,-2.9284,0.31327,-0.54123,0.81337,-0.83291,-50.64,30.36,6.48
-0.7355,-3.0918,0.1362,-0.61239,0.90347,-0.6463,-51.78,29.16,5.82
-0.38137,-3.2553,0.027241,-0.84452,1.0653,-0.023518,-53.58,27.06,4.68
0.1362,-3.4868,-0.12258,-0.9612,1.0785,0.41722,-54.48,26.1,4.14
0.7355,-3.514,-0.054481,-1.0501,1.0559,0.81092,-55.08,25.38,3.66
1.6617,-4.4811,0.21793,-1.0788,1.0305,1.2767,-55.86,23.76,3.36
2.2474,-6.4288,0.5993,-1.0073,1.1695,1.628,-56.1,23.22,3.3
2.5198,-7.7636,0.8036,-0.905,1.3073,2.2095,-56.34,22.8,3.06
4.1133,-10.733,1.5119,-0.81153,1.3586,2.6096,-56.34,22.5,3.18
6.456,-17.897,2.4244,-0.3821,1.3867,4.1093,-55.98,22.8,3.42
8.4174,-19.327,1.9477,0.039706,1.5828,5.0143,-55.62,23.22,3.42
10.828,-18.864,-1.7025,1.4963,1.3262,5.6529,-54.36,25.08,3.6
11.346,-17.775,-2.7377,2.6221,1.3601,5.6566,-53.46,26.4,3.54
14.601,-15.909,-2.438,4.4969,-0.32926,5.5506,-52.44,27.9,3.36
14.71,-15.99,-2.3563,5.2873,-2.0162,5.3683,-51.3,29.58,3.06
11.237,-15.84,-2.7649,4.8933,-4.6307,4.0543,-49.86,31.56,2.58
5.7342,-13.253,-2.1656,2.8161,-3.6426,3.3521,-46.38,35.64,1.2
4.4402,-10.474,-2.5879,-0.049786,-1.4878,1.2846,-44.7,37.56,0.48
3.051,-7.1371,-3.337,-0.62094,-0.88087,0.68142,-41.04,41.82,-1.08
3.0101,-5.6524,-3.5004,-1.1912,1.058,-0.94073,-39.24,43.8,-1.68
3.6639,-4.9442,-3.5549,-1.1744,1.6017,-1.3925,-37.38,45.6,-2.4
5.094,-4.1814,-3.5685,-0.89492,2.489,-1.8326,-34.8,48.72,-4.14
6.0883,-3.7728,-3.3915,-0.5962,2.226,-1.4777,-33.66,49.92,-5.1
6.4833,-3.2825,-2.9965,-0.35766,1.3189,-1.0956,-32.58,50.88,-5.88
5.9657,-3.4868,-2.7377,-0.29749,-0.40928,-0.73395,-31.14,51.96,-7.14
5.094,-4.3858,-2.3018,-0.4102,-1.1698,-0.5959,-30.48,52.08,-7.5
4.8625,-4.9987,-2.0567,-0.49602,-1.3806,-0.55344,-30.3,52.26,-7.68
4.7126,-8.0632,-1.1305,-0.77366,-1.6228,-0.41936,-30.3,51.96,-7.2
4.9033,-10.365,-0.46309,-0.95326,-1.5928,-0.33903,-30.84,51.6,-6.84
5.2575,-13.321,0.6674,-1.1032,-1.4416,-0.26023,-31.2,51.54,-6.3
6.2517,-19.096,1.1713,-1.2046,-1.0201,-0.17837,-32.52,50.94,-5.1
6.9736,-19.477,1.3893,-1.2886,-0.66065,-0.24038,-33.0,50.58,-4.62
6.8919,-19.518,1.8387,-1.5085,-0.20403,-0.53787,-33.6,50.22,-4.2
6.1292,-19.532,2.4789,-1.7168,0.37263,-1.1283,-33.84,49.62,-3.48
4.6173,-17.325,2.4925,-1.719,0.98807,-1.8802,-34.5,48.9,-2.04
4.2904,-14.737,1.6344,-1.3879,1.3057,-2.5913,-34.92,48.48,-1.32
3.7184,-12.803,0.12258,-0.61484,1.2587,-3.2416,-35.88,46.92,-0.06
2.9011,-10.774,-0.29965,-0.39737,1.2233,-3.3078,-36.72,46.14,0.24
2.6696,-10.12,-0.64016,-0.1576,1.0748,-3.2584,-37.5,45.06,0.36
2.547,-9.4934,-0.96704,-0.26084,0.67409,-2.9752,-38.46,43.92,0.42
1.7706,-7.6955,-1.2531,-0.55436,0.24587,-2.7568,-40.86,41.34,0.18
1.0488,-6.9464,-1.2939,-0.89583,-0.031154,-2.576,-42.24,39.9,-0.36
0.24517,-6.4152,-1.1169,-1.4212,0.15852,-2.3204,-43.56,38.34,-0.84
-0.61292,-5.3119,-0.95342,-1.7239,0.5455,-2.1652,-46.5,35.1,-2.16
-0.95342,-4.9033,-0.78998,-1.9786,0.89247,-1.9655,-48.06,33.48,-2.76
-1.2395,-4.7671,-0.72188,-2.2122,1.2074,-1.66,-49.86,31.8,-3.84
-1.5936,-3.9908,-0.47671,-2.3943,1.4532,-1.2336,-53.28,28.38,-5.88
-1.4438,-3.7047,-0.28603,-2.4847,1.6188,-0.71257,-54.72,26.76,-7.02
-1.0215,-3.6094,-0.29965,-2.4746,1.4972,0.17257,-56.28,25.2,-8.16
0.17706,-4.3449,-0.21793,-2.4566,1.2507,0.70036,-58.5,22.62,-9.9
0.40861,-5.9112,-0.095342,-2.448,1.054,1.1212,-59.34,21.54,-10.5
0.6674,-7.9951,0.10896,-2.4511,1.1145,1.5305,-59.82,20.64,-11.04
1.1577,-13.511,1.4982,-2.5565,1.4453,2.1399,-60.3,19.32,-11.7
2.2882,-17.121,2.7786,-2.6279,1.9245,2.9325,-60.24,18.9,-11.7
7.246,-19.504,4.2223,-2.3549,2.4603,4.0342,-59.88,18.84,-11.82
9.6568,-19.532,3.6094,-0.85674,3.2425,5.8661,-58.38,19.32,-11.88
11.441,-17.897,1.2258,0.95753,3.0519,6.5851,-57.24,19.92,-11.94
11.591,-16.154,-0.19068,2.8295,1.9725,6.3353,-55.68,21.06,-11.94
10.76,-15.268,-1.1986,4.2883,0.35308,5.8075,-51.9,23.64,-12.06
9.902,-15.827,-1.2667,4.9211,-1.4447,4.8176,-49.86,25.14,-12.3
9.902,-15.827,-1.2667,3.6169,-2.2749,3.7669,-49.86,25.14,-12.3
8.3765,-15.663,-1.8387,1.6283,-1.2501,3.6096,-47.52,26.76,-12.66
5.489,-10.869,-1.7706,-0.1628,-0.11576,2.9404,-45.12,28.62,-13.14
4.5356,-7.8045,-1.866,-1.3073,0.84635,1.9025,-39.96,31.86,-14.16
3.8001,-6.2517,-1.4574,-1.774,2.1386,0.85643,-37.38,33.66,-14.7
3.3915,-4.4402,-0.64016,-1.7446,3.6163,-0.146,-32.04,36.96,-15.96
4.0861,-4.7399,0.38137,-1.5351,4.9611,-0.77916,-26.82,39.96,-17.28
5.1485,-5.6252,0.54481,-1.0434,6.0234,-0.91508,-22.2,42.24,-18.72
6.5105,-7.0145,0.99429,-0.86193,5.7889,-0.77244,-18.3,43.8,-19.8
7.0962,-8.5263,1.2531,-0.90622,4.8912,-0.58277,-16.5,44.28,-20.28
7.4095,-10.025,1.6072,-1.0705,3.6692,-0.42241,-13.44,44.94,-20.82
7.5048,-10.883,1.975,-1.1283,2.4065,-0.29932,-11.22,45.66,-20.64
7.4912,-12.217,2.0567,-0.90744,1.284,-0.16677,-9.72,46.32,-20.34
7.5048,-13.607,1.5391,0.052534,-0.14386,-0.036957,-8.52,46.62,-20.16
7.3277,-14.029,0.57205,0.84666,-0.87995,-0.0094684,-7.56,47.1,-20.04
7.0145,-12.095,-0.27241,1.4096,-1.2593,-0.10965,-6.9,47.1,-20.1
6.4424,-9.3708,-1.0488,1.7184,-1.2428,-0.31582,-6.54,46.98,-20.1
5.4209,-8.3765,-1.185,1.6405,-1.0247,-0.81917,-6.3,46.68,-20.22
4.5492,-9.616,-0.98067,1.2217,-0.80146,-1.5855,-6.84,46.44,-20.58
4.3858,-12.095,-1.4982,0.63499,-0.66187,-2.3546,-7.38,45.6,-21.24
4.7671,-14.833,-2.1929,-0.055283,-0.78863,-2.9902,-8.16,44.64,-21.96
4.413,-16.154,-2.2882,-0.38973,-0.9841,-3.0519,-9.48,43.62,-22.32
3.8137,-16.413,-2.1248,-0.697,-0.98563,-3.0021,-10.14,42.96,-22.62
3.0373,-15.5,-1.9068,-0.96211,-0.87079,-2.9774,-12.12,41.88,-22.98
2.4789,-14.519,-1.9613,-1.1304,-0.69669,-3.0635,-14.52,40.92,-22.8
1.5391,-13.293,-2.0703,-1.2217,-0.52351,-3.2202,-17.34,40.02,-22.62
1.2122,-12.844,-2.1929,-1.3616,-0.29627,-3.3078,-18.96,39.6,-22.38
0.43585,-11.55,-2.1384,-1.6897,0.080634,-3.2205,-22.38,38.64,-21.72
0.17706,-10.91,-2.0839,-1.9398,0.30818,-3.0562,-24.18,38.22,-21.36
-0.46309,-9.6977,-1.9341,-2.1386,0.55283,-2.77,-27.72,37.26,-20.64
-0.65378,-8.7579,-1.5936,-2.3195,0.87201,-2.3399,-31.2,36.66,-20.28
-0.53119,-8.0905,-1.2258,-2.467,1.2046,-1.8363,-34.32,36.36,-19.86
-0.50395,-7.7636,-1.0351,-2.5809,1.4591,-1.3295,-35.58,36.24,-19.8
-0.34051,-6.8647,-0.40861,-2.718,1.7764,-0.65699,-37.98,36.18,-19.68
-0.1362,-6.0338,0.17706,-2.7694,1.9499,-0.24038,-39.42,35.94,-19.74
-0.1362,-5.7205,0.38137,-2.7529,2.0485,0.17623,-39.9,36.0,-19.56
0.38137,-4.9578,0.89894,-2.594,2.0629,0.62278,-40.56,36.18,-19.62
0.8036,-4.5356,1.1169,-2.2663,2.0217,1.1121,-40.38,36.72,-19.5
1.2803,-4.9714,1.3484,-1.8057,1.9059,1.6463,-39.84,37.5,-19.08
1.7298,-6.279,1.5255,-1.157,1.631,2.5516,-38.64,38.4,-18.48
2.0022,-7.1098,1.5936,-0.85582,1.4126,3.1762,-37.86,39.06,-18.12
3.1191,-9.1801,1.6208,-0.62186,1.0803,3.7507,-36.48,40.14,-17.28
4.2904,-11.114,1.7979,-0.39767,0.60292,4.2339,-34.44,41.34,-16.14
5.3528,-14.315,2.0294,-0.15821,0.098044,4.6151,-32.16,42.84,-15.06
5.8976,-18.347,2.8603,0.023518,-0.38851,4.8875,-29.4,44.16,-14.16
6.456,-19.382,3.623,0.058643,-0.75381,5.0238,-27.78,45.0,-13.62
8.1858,-19.382,3.0918,0.019853,-0.86529,4.7819,-24.12,46.26,-12.18
8.7034,-16.331,2.1248,0.4441,-0.86987,4.2987,-22.08,46.86,-11.76
8.3084,-7.4095,0.054481,1.2993,-0.70738,3.4593,-17.76,47.88,-10.92
5.094,-6.9328,-0.65378,2.0382,-0.26206,2.2342,-13.62,48.42,-10.2
4.2495,-8.3357,-0.65378,2.2816,0.38698,0.68539,-11.4,48.48,-9.9
3.0373,-11.373,-0.47671,1.74,1.1671,-0.75381,-7.56,48.48,-10.02
2.2201,-11.55,-0.20431,0.11576,2.3036,-1.8754,-4.38,48.06,-10.32
1.4846,-10.215,-0.28603,-0.87018,3.1851,-2.0513,-1.62,47.7,-10.56
1.5119,-9.2482,-0.27241,-1.4963,3.9899,-1.8124,-0.54,47.46,-10.8
1.8387,-7.0962,-0.23155,-1.6808,4.5186,-1.3561,0.9,46.98,-11.22
2.2746,-5.598,0.054481,-1.5644,4.769,-0.87629,1.74,46.74,-11.58
2.4517,-5.3528,0.12258,-1.3491,4.7214,-0.4609,1.98,46.74,-11.52
2.8194,-5.2166,0.50395,-1.139,4.3439,0.025656,2.28,46.68,-11.28
3.5413,-5.38,0.64016,-1.0467,3.9923,0.34086,2.64,46.92,-10.74
4.1406,-5.7478,0.85808,-0.95387,3.4712,0.63255,2.76,47.28,-9.54
4.9578,-6.5378,0.8036,-0.76175,2.7749,0.92852,3.06,47.82,-8.94
6.17,-7.7364,0.44947,-0.3937,1.9273,1.1955,3.78,48.24,-7.56
6.6059,-8.0496,0.1362,0.1576,0.99724,1.4166,4.08,48.36,-6.78
7.1915,-8.4719,-0.99429,1.0916,-0.42486,1.4609,5.16,48.78,-5.46
6.6467,-8.7987,-1.6617,1.5562,-1.0663,1.3124,6.54,48.72,-4.62
5.2575,-10.12,-2.3972,1.7431,-1.2364,0.99418,7.98,48.6,-4.2
4.808,-10.719,-2.5742,1.5889,-0.94684,0.54886,8.64,48.48,-4.02
3.9635,-11.605,-2.9965,1.1518,-0.27794,0.092852,9.78,48.42,-4.26
3.7592,-11.7,-2.9148,0.56291,0.49633,-0.35247,10.74,48.0,-4.68
4.0725,-11.319,-2.4789,-0.17746,1.2685,-0.80665,11.64,47.52,-5.58
4.3585,-11.468,-2.2474,-0.416,1.4563,-0.95478,12.06,47.4,-5.88
4.7535,-12.64,-1.7706,-0.45387,1.4038,-0.95539,12.6,47.46,-6.66
5.4618,-14.097,-1.7979,-0.31521,1.1231,-0.7648,12.78,47.4,-7.02
6.7012,-13.457,-2.0431,-0.1408,0.50121,-0.44502,12.72,47.58,-7.2
6.4969,-9.6841,-1.8932,-0.032376,-0.39676,-0.21472,12.54,47.94,-7.26
5.3119,-8.3493,-1.4165,-0.051924,-1.2504,-0.30665,12.42,48.36,-6.9
4.5764,-8.6081,-1.1032,-0.31429,-1.8436,-0.93126,12.18,48.6,-6.66
3.2144,-10.311,-0.88532,-0.5681,-1.7055,-1.3576,12.18,49.26,-6.12
2.7786,-12.0,-0.95342,-0.80146,-1.3396,-1.5916,12.0,50.22,-5.64
2.3972,-13.498,-0.31327,-1.0085,-0.93401,-1.6029,11.52,51.06,-5.34
2.3972,-13.443,-0.054481,-1.2178,-0.29383,-1.605,11.34,51.48,-5.28
2.4108,-12.64,0.40861,-1.4145,0.22785,-1.5855,10.86,52.44,-5.28
2.3699,-11.509,1.1169,-1.7095,0.8659,-1.7104,10.14,53.4,-5.58
2.3427,-10.42,1.4165,-1.7956,1.2749,-1.8796,8.82,54.3,-6.0
2.4517,-9.7522,1.5663,-1.7764,1.5727,-2.0458,6.96,55.2,-6.48
2.5334,-9.5479,1.6072,-1.6472,1.7141,-2.1872,5.94,55.68,-6.66
2.5879,-9.221,1.6072,-1.456,1.6958,-2.2431,3.42,56.52,-6.78
2.4789,-9.1937,1.6208,-1.1912,1.4221,-2.1869,0.36,57.3,-6.84
2.2882,-8.8941,1.5663,-1.0724,1.1475,-2.0629,-3.0,58.14,-6.78
2.0567,-8.6489,1.5119,-0.96883,0.86346,-1.8668,-4.8,58.44,-6.54
1.7298,-8.0632,1.4846,-0.8714,0.58124,-1.5974,-8.64,58.74,-6.24
1.4982,-7.6683,1.1169,-0.76205,0.33017,-1.2569,-12.36,58.86,-5.88
1.3484,-7.4095,0.81722,-0.65821,0.12614,-0.85307,-15.84,58.8,-5.34
1.362,-6.5105,0.69464,-0.58338,0.014355,-0.32773,-19.14,58.8,-4.98
1.4301,-5.5435,0.47671,-0.57116,0.047037,-0.14752,-20.7,58.56,-4.74
1.3893,-4.5356,0.44947,-0.57055,0.14997,-0.091935,-23.28,58.56,-4.38
1.3212,-4.4539,0.44947,-0.55955,0.31704,-0.094379,-25.44,58.32,-4.2
1.362,-4.8216,0.42223,-0.57574,0.4948,-0.078191,-26.22,58.08,-4.08
1.6344,-5.8295,0.57205,-0.60445,0.55955,0.07086,-27.78,57.72,-3.66
1.8796,-6.1564,0.50395,-0.60781,0.49938,0.38759,-28.8,57.48,-3.48
2.0839,-6.1155,0.51757,-0.56597,0.36011,1.0085,-29.16,57.42,-3.18
2.0567,-5.8023,0.46309,-0.55344,0.37935,1.3573,-29.52,57.36,-3.0
2.1793,-5.6524,0.27241,-0.59132,0.58551,1.6206,-29.22,57.48,-2.76
2.3155,-5.6388,0.23155,-0.66706,0.89828,1.8283,-28.44,57.72,-2.64
3.0237,-5.8431,0.081722,-0.72815,1.1735,1.9899,-27.78,57.72,-2.46
3.8682,-7.5184,0.24517,-0.77824,1.3115,2.1429,-26.22,57.72,-2.46
4.2632,-10.515,0.44947,-0.85368,1.3934,2.4169,-23.88,57.78,-2.28
4.5764,-12.476,0.70826,-0.88698,1.4395,2.7333,-22.44,57.9,-2.16
4.8352,-18.292,1.4982,-1.0782,1.7691,3.138,-18.84,58.02,-2.04
7.1507,-19.491,2.6423,-0.82406,1.8775,3.5836,-14.76,57.78,-1.5
8.431,-19.518,1.9068,-0.20861,2.0244,4.1123,-12.42,57.66,-1.14
11.496,-13.743,-1.5391,0.94195,1.7709,4.2672,-7.68,57.06,-0.12
12.313,-11.114,-3.2008,2.6942,0.5061,4.0626,-5.04,56.58,0.3
10.556,-12.122,-3.6775,4.5662,-2.5705,2.9639,0.24,55.56,0.78
6.279,-12.735,-3.6639,4.2605,-3.9132,2.0647,2.76,54.9,0.6
4.8625,-12.054,-3.7047,2.0394,-3.3375,1.5259,7.62,53.58,-0.48
3.1463,-8.826,-4.1814,0.60628,-2.2856,1.0736,9.78,52.8,-1.08
2.7377,-7.1507,-4.8625,0.12339,-1.8546,0.78313,11.88,52.14,-1.62
2.547,-5.6933,-5.0668,-0.49602,-0.59162,-0.061392,15.42,50.58,-3.24
2.6287,-4.413,-4.6718,-0.45601,0.25381,-0.56688,18.24,49.14,-5.16
3.4732,-4.8216,-4.3858,-0.4047,1.1613,-0.74526,20.1,48.0,-7.26
4.0316,-4.8897,-4.2359,-0.41753,1.266,-0.69333,20.82,47.64,-8.58
5.4481,-5.2438,-3.7047,-0.45601,1.0934,-0.52321,21.9,46.86,-10.92
6.1019,-5.9793,-3.1872,-0.57146,0.44654,-0.34972,22.38,46.2,-12.96
6.2381,-7.069,-2.4108,-0.84086,-0.82406,-0.14233,22.5,45.84,-14.22
5.993,-8.4719,-1.757,-1.0452,-1.4267,-0.040928,22.56,45.42,-15.06
5.8159,-9.793,-1.2258,-1.189,-1.7416,-0.016493,22.32,45.12,-16.14
5.6661,-10.774,-0.77636,-1.2547,-1.7746,-0.089492,22.2,44.4,-17.1
5.5299,-12.217,-0.44947,-1.2355,-1.5635,-0.29719,21.72,43.86,-18.84
5.38,-14.873,-0.19068,-1.1894,-1.2159,-0.63591,21.0,43.14,-20.7
5.2166,-18.183,0.54481,-1.3442,-0.49297,-1.3393,19.92,42.48,-23.04
5.0531,-19.368,1.2258,-1.6463,0.054367,-1.872,19.02,42.24,-24.3
4.9033,-19.518,1.7162,-1.938,0.56016,-2.3469,16.98,41.94,-26.88
4.699,-19.532,2.1929,-2.1472,0.93187,-2.7141,14.1,42.24,-29.28
4.2223,-19.368,2.3291,-2.1643,1.1652,-3.0161,12.3,42.54,-30.54
3.2144,-15.514,2.2201,-1.8298,1.4865,-3.4037,7.44,43.68,-32.4
2.8194,-13.797,2.0567,-1.4062,1.591,-3.5595,4.62,44.7,-33.18
2.6696,-12.762,1.8524,-1.1915,1.5843,-3.565,1.38,45.6,-33.66
2.7513,-10.569,1.5391,-0.5846,1.0495,-3.3381,-1.98,46.56,-33.84
2.2474,-7.8589,1.1986,-0.30452,0.24374,-3.0262,-9.54,48.48,-33.54
0.85808,-6.0202,1.0488,-0.12767,-0.5397,-2.6169,-13.56,49.38,-33.0
-0.23155,-4.985,1.0079,0.024129,-0.93554,-1.9768,-17.52,50.1,-32.34
-1.1713,-4.1406,0.64016,0.15485,-0.86621,-1.7678,-25.56,51.54,-30.18
-1.0896,-3.7592,0.50395,0.27306,-0.30727,-1.2764,-29.34,52.02,-29.04
-1.0215,-3.3778,0.12258,0.29077,0.049786,-1.0095,-33.3,52.38,-27.78
-0.46309,-2.6696,-0.29965,0.2865,0.22602,-0.74739,-40.32,52.56,-25.2
-0.40861,-3.1463,-0.42223,0.21991,0.26359,-0.44166,-43.44,52.44,-23.94
-0.54481,-4.7671,-0.62654,0.059865,0.31124,-0.08094,-46.26,52.14,-22.86
-0.50395,-5.4345,-0.46309,-0.39279,0.65088,0.54642,-50.76,50.94,-21.0
-0.29965,-5.7614,-0.19068,-0.57116,0.81459,0.76816,-52.44,50.22,-20.34
0.081722,-5.7478,0.027241,-0.95936,1.3121,1.4395,-53.64,49.5,-19.98
1.6889,-5.5571,0.44947,-1.0027,1.5253,1.8579,-54.9,48.0,-20.1
2.5742,-5.4345,0.50395,-0.87079,1.598,2.1805,-54.78,47.34,-20.7
3.4459,-5.7614,0.64016,-0.51924,1.43,2.4911,-54.48,46.92,-21.48
5.7342,-9.1937,-0.91256,-0.40836,1.3131,2.5809,-53.64,46.44,-22.62
9.5479,-11.605,-1.0351,-0.90378,1.4719,2.4786,-50.34,45.42,-25.44
12.572,-12.871,-1.8932,-1.6967,1.3011,1.2049,-47.94,45.12,-26.58
9.7794,-14.737,-2.8603,-1.4856,0.84513,2.606,-45.24,44.82,-28.02
8.8396,-17.339,-0.40861,-0.64843,2.6249,3.1997,-38.76,44.34,-30.66
11.128,-19.368,0.78998,0.89247,3.2651,4.0528,-34.74,44.16,-31.68
14.506,-16.93,-0.9398,1.6087,2.3268,4.2593,-25.86,43.38,-33.42
16.29,-12.081,-0.70826,2.9123,-0.759,3.5751,-21.18,43.08,-34.2
15.65,-9.6296,-0.44947,3.2929,-2.6848,3.2553,-16.44,42.42,-34.86
8.4991,-9.6432,-0.38137,3.2116,-6.4345,1.9743,-7.98,40.44,-36.06
4.7944,-9.6977,-0.96704,2.3344,-6.7433,1.0803,-4.62,39.3,-36.78
2.6287,-8.7715,-1.6753,0.50152,-4.6114,0.39218,-1.68,37.98,-37.44
0.24517,-6.3471,-3.2144,-0.26298,-2.6884,-0.11393,2.58,35.52,-38.46
-0.14982,-5.203,-3.6094,-0.61331,-0.89003,-0.54764,3.72,34.44,-38.7
0.095342,-4.1814,-3.7456,-0.43768,0.31582,-0.79535,4.5,33.24,-39.3
1.0215,-2.6968,-3.732,-0.033292,0.74587,-0.66004,4.68,31.02,-39.96
1.6344,-2.9011,-3.3642,0.31551,0.52443,-0.26695,4.32,29.88,-40.56
2.5334,-3.8546,-2.9965,0.53359,0.029627,0.11881,2.34,27.48,-42.12
2.7513,-4.3177,-2.547,0.72296,-0.97555,0.57391,0.9,26.4,-43.08
3.0101,-5.094,-2.5198,0.68845,-0.92974,0.63347,-0.66,25.08,-44.1
3.7047,-6.2381,-2.547,0.46853,-0.83444,0.67348,-2.52,23.94,-45.06
4.9033,-7.927,-2.5742,0.27794,-1.0226,0.6353,-5.76,21.78,-46.74
5.0531,-9.793,-2.3836,0.09163,-1.5467,0.72846,-6.66,20.88,-47.34
4.5901,-11.768,-1.7979,-0.067501,-2.1014,0.89889,-7.62,20.04,-47.76
5.2438,-17.053,-1.185,-0.61728,-1.5513,0.92638,-9.18,18.12,-48.6
6.6467,-19.137,-0.054481,-0.78221,-1.3934,0.89889,-9.96,17.04,-49.08
6.96,-19.436,0.20431,-1.0434,-1.5614,0.85643,-10.86,15.84,-49.8
6.7148,-19.532,1.0896,-1.9337,-0.81367,0.44624,-13.32,13.56,-51.54
6.1836,-17.638,2.4108,-2.6258,0.12889,-0.072693,-15.3,12.78,-52.56
4.8352,-14.942,2.7241,-2.8369,1.7168,-1.4099,-20.64,12.36,-54.72
3.1872,-13.239,2.5879,-2.4077,2.9932,-2.3463,-24.3,12.96,-55.5
3.5822,-13.13,2.4244,-1.8161,3.7803,-3.0513,-28.26,14.04,-56.22
4.018,-12.149,2.1793,-1.3201,3.8793,-3.3491,-32.22,15.6,-56.52
4.8897,-9.7522,1.3893,-0.96853,3.332,-3.2935,-40.74,19.38,-56.22
5.0123,-8.6625,0.8036,-0.78985,2.2177,-3.0916,-45.24,21.42,-55.14
4.4539,-7.3277,0.61292,-0.72662,0.90713,-2.8793,-49.44,23.34,-54.0
2.7513,-6.1019,0.57205,-0.74923,-0.53603,-2.6399,-57.3,27.48,-50.16
1.866,-5.9385,0.64016,-0.77549,-0.77946,-2.5571,-60.84,29.4,-47.82
1.0079,-5.2847,0.64016,-0.84055,-0.94043,-2.3925,-64.14,31.38,-44.94
-0.28603,-3.7047,0.64016,-0.87751,-0.57941,-2.1325,-69.48,34.56,-38.16
-0.42223,-3.4323,0.47671,-0.82467,-0.16066,-1.9206,-71.22,35.76,-34.38
-0.40861,-3.7592,0.36775,-0.75869,0.19975,-1.6603,-72.48,36.78,-30.6
-0.1362,-4.3177,0.27241,-0.75045,0.43585,-1.2969,-73.14,37.08,-22.8
0.040861,-4.2223,0.21793,-0.80573,0.60873,-0.6747,-72.78,36.48,-19.32
0.1362,-3.9771,0.10896,-0.86407,0.70616,-0.27581,-72.3,35.64,-16.08
0.14982,-3.5277,0.24517,-0.8882,0.87568,0.038485,-70.62,33.48,-10.68
0.068102,-3.8001,0.38137,-0.90469,1.1689,0.32803,-69.6,32.28,-9.0
0.10896,-5.5707,0.50395,-0.93859,1.5782,0.67226,-68.64,31.02,-7.62
0.92618,-8.6081,1.1577,-1.0055,2.2077,1.5687,-66.84,28.62,-6.6
1.866,-11.087,1.9341,-1.1319,2.481,2.4169,-65.94,27.6,-7.08
3.7047,-14.015,2.7786,-1.0708,2.6637,3.4422,-64.86,26.88,-8.04
7.9815,-18.823,3.8818,-0.74953,2.7067,4.4343,-61.14,26.04,-11.58
10.637,-19.068,2.4789,-0.697,3.3643,5.047,-58.68,25.8,-13.62
15.99,-14.029,-0.92618,0.63805,2.2458,3.6322,-55.86,25.86,-15.54
12.749,-13.539,-8.1586,2.3298,4.7565,4.8277,-48.66,25.74,-19.14
13.212,-12.354,-3.3778,2.9566,4.9095,4.6823,-44.64,25.8,-20.7
16.603,-12.177,-1.8387,3.1661,3.1527,4.3017,-40.08,25.68,-22.26
16.481,-9.793,0.24517,3.0943,-3.9871,3.4428,-35.58,25.44,-23.82
10.27,-7.6274,0.14982,2.1218,-7.1108,3.0073,-26.7,24.6,-26.58
7.5593,-6.2926,-0.31327,0.76694,-7.9712,3.047,-22.62,24.3,-27.9
3.5958,-3.8546,-1.471,0.10171,-7.915,2.744,-15.18,23.28,-30.12
2.3836,-2.5742,-1.4301,0.32712,-6.1276,1.8854,-11.94,22.86,-30.72
1.0896,-2.1656,-2.0975,0.71685,-5.2999,1.4083,-9.06,22.14,-31.02
-0.38137,-3.0373,-3.3097,1.204,-1.7181,0.58613,-6.78,21.24,-30.9
2.3291,-5.3664,-4.1133,1.2068,0.46548,0.1909,-4.02,19.2,-29.94
5.2711,-7.1507,-4.2495,1.0913,1.3515,0.036652,-3.3,18.06,-29.46
7.0553,-8.3765,-4.1814,0.54245,0.70799,0.15333,-3.12,15.96,-28.8
8.5127,-11.21,-2.833,-0.16493,-0.49541,0.30116,-3.24,15.12,-28.5
7.9407,-12.83,-1.8932,-0.96456,-1.5974,0.35186,-3.96,14.4,-28.2
7.5729,-14.206,-1.2258,-1.6151,-2.1826,0.3094,-4.68,13.92,-27.72
6.8374,-19.137,0.69464,-2.0583,-2.2614,0.20433,-6.06,13.5,-26.52
6.9328,-19.477,1.471,-2.4279,-1.8219,0.023213,-6.54,13.56,-25.8
5.9657,-19.532,3.9227,-2.9624,-0.96272,-0.36591,-6.78,13.68,-24.9
4.9987,-18.088,4.5083,-3.5158,0.26725,-0.94959,-7.26,14.58,-22.74
4.0452,-15.813,4.413,-3.2861,2.1371,-2.3448,-7.44,15.18,-21.54
3.6503,-14.002,3.8682,-2.8793,2.6111,-2.806,-7.56,16.26,-20.4
3.623,-12.503,3.0237,-1.376,3.3903,-3.7868,-8.46,18.72,-18.0
3.8546,-11.482,2.3155,-0.5846,3.3228,-3.9731,-9.12,19.98,-16.86
4.3177,-10.093,1.8796,-0.095295,2.8026,-3.8347,-10.32,21.42,-15.6
4.6718,-7.9951,1.0624,0.12462,1.1631,-3.5473,-13.02,24.3,-13.44
4.0861,-7.2324,0.76274,0.072693,-0.050091,-3.4578,-14.52,25.62,-12.42
3.2144,-6.6331,0.72188,0.026573,-0.55192,-3.4483,-16.26,26.82,-11.52
1.5255,-6.1292,0.49033,-0.17257,-1.3079,-3.4236,-19.98,29.22,-10.02
0.38137,-6.1019,0.10896,-0.34422,-1.2727,-3.3142,-21.9,30.12,-9.12
-0.1362,-5.8704,-0.054481,-0.53298,-0.9502,-3.0543,-24.06,31.5,-8.04
-1.3484,-4.6854,-0.46309,-0.78405,-0.33231,-2.4413,-27.84,31.86,-7.56
-1.5527,-4.2904,-0.44947,-0.97219,0.12126,-1.9517,-29.82,32.04,-7.26
-1.866,-3.8954,-0.38137,-1.0608,0.35736,-1.6973,-31.74,31.8,-6.9
-1.3757,-2.9829,-0.31327,-1.2969,1.0278,-0.90103,-34.98,30.9,-6.66
-0.77636,-2.8058,-0.1362,-1.3598,1.2517,-0.36835,-36.36,30.3,-6.54
-0.054481,-3.1872,0.10896,-1.3531,1.2599,0.16616,-37.44,29.58,-6.48
1.471,-5.6661,0.70826,-1.1445,1.0119,1.2581,-39.42,28.02,-6.48
2.942,-7.9407,1.2258,-0.88331,0.68722,2.2452,-40.26,27.36,-6.42
4.0997,-9.6432,1.5527,-0.40623,0.20128,3.3408,-40.8,26.7,-6.42
6.8647,-13.402,1.8524,0.37568,-0.281,4.3591,-41.52,25.62,-6.36
8.0088,-15.377,1.2531,1.5308,-0.72998,5.2293,-41.58,25.32,-6.36
8.0088,-15.377,1.2531,1.689,0.033903,5.7229,-41.58,25.32,-6.36
18.156,-17.775,-6.5786,0.27031,2.2993,-3.4215,-41.28,25.38,-6.24
19.341,-8.0496,-6.674,-0.32101,3.3802,0.73426,-40.02,25.26,-6.12
19.477,-6.17,-4.9033,-0.19548,2.4807,2.1735,-39.06,25.5,-6.18
10.706,-1.757,-3.3097,0.5058,-1.7471,2.2541,-36.96,25.98,-6.36
3.9908,-0.91256,-1.0896,1.0336,-3.24,1.2617,-35.16,26.82,-6.42
3.051,-0.96704,-1.0624,1.5198,-3.4896,1.0348,-34.26,27.24,-6.54
3.1327,-1.1986,-0.6674,1.781,-3.3573,0.92454,-32.52,28.02,-6.18
3.0237,-1.2803,-0.57205,1.9074,-2.9703,0.80023,-31.74,28.32,-6.12
3.0646,-1.975,-0.46309,1.8537,-2.6484,0.77549,-31.02,28.5,-5.82
3.4187,-3.4732,-0.99429,1.4597,-1.5214,0.92057,-29.76,28.44,-4.98
4.304,-4.0044,-1.076,1.1215,-1.0705,0.80604,-29.22,28.2,-4.44
4.9442,-4.7399,-1.0351,0.89706,-1.0076,0.61178,-28.86,27.72,-3.84
6.0474,-8.322,-0.7355,0.74678,-1.2,0.58215,-28.38,26.7,-1.92
6.2517,-10.542,-0.58567,0.61728,-1.4832,0.75167,-28.08,26.1,-0.54
8.0632,-18.864,-0.24517,0.49724,-1.7385,1.1215,-27.66,25.38,1.2
9.3163,-19.45,-0.19068,0.22938,-2.0082,1.7758,-25.86,24.3,5.28
9.3708,-19.518,0.095342,-0.35552,-1.9703,2.0091,-24.48,23.46,7.44
6.7693,-16.358,1.9068,-1.1448,-1.4865,1.7978,-20.82,21.84,11.64
5.6933,-15.282,2.2337,-1.8103,-0.39951,1.0037,-18.66,20.64,13.62
4.4402,-13.648,2.261,-1.9282,1.9606,-0.82009,-16.38,19.5,15.48
4.6445,-9.9973,1.0624,-1.6677,2.6001,-1.397,-11.7,17.28,18.48
4.9442,-8.3629,0.44947,-0.68509,3.1466,-2.5943,-9.6,16.2,19.74
4.9578,-7.0553,0.44947,-0.2251,2.7012,-2.8072,-7.38,15.3,20.76
4.7671,-6.17,-0.50395,0.016188,1.8922,-2.6631,-3.6,14.22,22.2
4.2495,-6.1292,-0.58567,-0.0073304,0.91721,-2.4401,-1.98,13.68,22.44
3.4459,-5.5571,-0.65378,-0.37171,-0.4383,-2.1698,-0.54,13.32,22.5
1.8251,-4.9306,-0.19068,-0.50702,-0.77549,-2.1203,1.68,12.84,21.3
0.81722,-4.6445,-0.14982,-0.79504,-0.99082,-1.9789,2.52,12.54,20.4
-0.054481,-4.413,-0.12258,-0.92943,-0.58002,-1.8051,2.88,12.48,19.32
-0.65378,-4.0044,-0.027241,-1.0504,0.034208,-1.5159,2.88,12.66,18.06
-0.40861,-3.4187,0.21793,-1.142,0.65912,-1.1161,2.76,13.26,16.14
-0.01362,-3.2553,0.20431,-1.1897,1.3149,-0.48075,2.7,13.8,15.36
0.70826,-3.1327,0.21793,-1.1802,1.5608,-0.077885,3.0,14.94,14.58
1.5527,-4.6309,0.62654,-1.2248,1.7562,0.37446,3.54,15.6,14.64
2.3155,-6.4152,1.1441,-1.2382,1.8561,0.65973,4.44,16.02,15.3
3.623,-8.5127,1.7298,-1.2434,1.9994,1.8051,6.84,16.56,18.12
7.6683,-15.377,0.8036,-1.0528,1.7862,2.7501,8.16,16.74,20.7
11.509,-17.529,0.53119,-1.6765,2.8417,3.1044,9.24,16.8,24.0
11.795,-15.854,-0.095342,-1.1426,1.6411,2.1994,9.72,16.86,32.16
11.972,-13.675,-3.4732,1.0431,1.1695,4.5302,9.18,16.98,36.6
11.06,-11.645,-4.7399,2.1185,2.511,4.0119,8.34,17.4,41.04
13.539,-11.128,-6.3471,2.5705,2.7901,3.3708,5.46,18.84,49.62
13.988,-9.0984,-5.1213,2.3931,0.41539,2.4651,3.54,19.98,53.34
12.531,-7.355,-4.0316,1.8466,-2.1991,1.959,1.62,21.6,57.18
7.8726,-4.7807,-1.6889,0.77397,-4.638,1.1548,-1.38,25.14,64.56
6.2109,-3.8818,-0.92618,0.34392,-5.1059,0.90958,-2.22,26.94,68.46
5.0259,-3.5277,-0.72188,0.18051,-4.5751,0.7086,-2.76,28.8,72.06
3.0373,-3.8682,-1.2531,0.092241,-3.1964,0.52534,-1.92,32.58,78.36
3.4732,-4.1542,-1.4438,0.12553,-1.4542,0.25748,-0.66,34.56,80.88
4.6854,-4.4402,-1.3076,0.34392,-0.27031,-0.051924,1.08,36.72,82.86
6.4016,-5.6252,-0.98067,0.4948,-0.11912,-0.45907,6.66,41.34,86.1
6.4969,-6.3607,-0.89894,0.27428,-0.36774,-0.6973,10.32,43.86,87.78
6.4424,-7.4231,-0.69464,-0.094684,-0.59651,-0.8937,14.58,46.14,89.76
6.3062,-10.065,-0.19068,-0.36346,-0.81551,-1.0085,24.84,50.28,94.68
6.5105,-13.988,0.38137,-0.44074,-1.0296,-0.97219,30.78,51.96,97.8
7.3141,-17.911,0.70826,-0.41661,-1.2456,-0.80756,37.02,53.34,100.98
8.0905,-19.504,0.89894,-0.63988,-1.5159,-0.26267,50.82,55.2,106.86
7.1507,-18.224,1.4574,-0.92852,-1.3861,-0.16768,58.32,55.44,108.72
6.456,-17.162,1.7162,-1.117,-0.88056,-0.37324,66.24,54.84,109.38
4.5356,-13.579,1.7434,-1.1991,-0.1014,-0.85521,81.36,51.54,106.74
3.9908,-12.313,1.5936,-1.0938,0.75167,-1.3644,87.66,49.32,103.44
4.0316,-9.6977,0.98067,-0.89889,1.4041,-1.7541,93.18,46.86,98.94
4.1542,-8.1858,0.51757,-0.56688,1.6014,-2.0629,101.34,42.36,87.42
4.127,-6.5922,0.12258,-0.31551,1.262,-2.076,104.04,40.08,80.76
3.8682,-5.4481,-0.21793,-0.095906,0.75381,-2.0351,105.84,38.1,73.44
3.1872,-4.9578,-0.5993,-0.0064141,0.25901,-1.9639,107.04,34.08,57.54
2.6287,-4.6037,-0.6674,-0.041233,-0.13622,-1.8757,106.56,32.28,49.08
2.3427,-4.2768,-0.70826,-0.14875,-0.45815,-1.7367,105.12,30.72,40.2
1.975,-4.2904,-0.84446,-0.28863,-0.85704,-1.39,98.58,27.96,22.32
1.6344,-4.2495,-0.85808,-0.3821,-1.0049,-1.0895,93.48,27.24,13.8
1.4301,-4.1814,-0.8036,-0.4215,-1.0256,-0.93523,86.88,27.6,6.18
0.78998,-4.2632,-0.5993,-0.64904,-0.75228,-0.46578,72.18,30.54,-5.52
0.78998,-4.127,-0.54481,-0.82894,-0.30146,-0.21411,65.16,32.58,-9.66
1.0215,-3.7865,-0.35413,-0.99815,0.26634,-0.012523,58.62,34.62,-13.02
1.9886,-3.8954,0.24517,-1.1371,1.0592,0.21686,48.66,38.58,-17.16
2.7377,-5.0259,0.69464,-1.1109,1.3689,0.45448,45.06,40.26,-18.24
3.4732,-7.1234,1.2803,-1.0266,1.4621,0.88392,42.66,41.82,-18.72
5.5162,-11.032,2.3427,-0.88942,1.376,1.504,40.56,45.12,-17.82
7.9951,-13.716,2.9011,-0.53542,1.1231,2.3179,40.68,46.8,-16.14
9.4661,-15.255,2.7649,0.14233,0.83291,3.1209,41.46,48.48,-13.62
14.097,-17.23,-2.7786,0.44227,1.1927,3.415,44.94,52.32,-6.06
18.851,-13.348,-4.6173,0.70708,0.34239,0.3427,46.86,54.36,-1.32
16.195,-14.152,-7.8181,0.7196,-0.078191,-0.054062,48.66,56.52,3.6
11.7,-8.7715,-9.8475,0.3708,0.75106,1.2822,52.08,60.66,12.96
11.073,-7.0826,-9.3572,0.58582,0.7532,0.5058,53.88,62.58,17.34
8.4719,-6.8647,-7.8998,0.93921,-0.41844,0.15791,55.5,64.62,21.54
4.9306,-5.8976,-4.9033,1.036,-1.127,0.18509,58.62,68.22,28.2
4.699,-4.9578,-4.2359,1.3222,-1.3112,0.10782,60.12,69.96,30.42
4.1133,-4.3177,-2.8739,1.2382,-1.3024,-0.0015272,61.08,71.4,31.8
3.0373,-4.2768,-1.7706,0.92363,-1.1417,-0.16554,61.5,73.68,31.98
2.9692,-4.3177,-0.88532,0.67256,-0.65332,-0.46365,60.66,74.52,30.54
2.6696,-4.8625,-1.1713,0.44746,-0.30879,-0.60934,59.28,75.18,28.26
3.1191,-5.8295,-1.5255,-0.24435,-0.0015272,-0.48717,53.88,75.9,20.64
3.7184,-5.8976,-1.6072,-0.41875,-0.059559,-0.33017,50.7,76.02,15.9
3.9227,-6.0202,-1.7434,-0.41325,-0.32742,-0.040012,47.28,75.72,11.1
3.8818,-6.3062,-1.7979,-0.30665,-0.46365,0.24618,43.74,75.24,6.42
3.5822,-7.3414,-1.58,-0.20159,-0.34941,0.38882,35.88,74.4,-2.28
3.5413,-8.1722,-1.5527,-0.16249,-0.10415,0.46517,31.62,73.92,-6.12
4.4811,-12.435,-1.5936,-0.17074,0.082161,0.63255,22.26,72.3,-12.36
4.9033,-14.097,-1.6753,-0.13073,-0.094073,0.89858,17.34,71.58,-14.52
5.8023,-16.985,-1.5936,-0.11942,-0.22235,1.0657,12.3,70.62,-15.9
6.4833,-19.409,-0.99429,-0.34819,-0.5116,1.5214,2.82,68.64,-17.34
6.1973,-19.041,-0.40861,-0.7025,-0.49602,1.6451,-1.5,67.62,-17.46
5.7205,-17.829,-0.21793,-0.97861,-0.22174,1.5458,-5.22,66.66,-17.16
5.1213,-14.655,-0.28603,-1.0519,0.27458,1.3042,-10.92,64.8,-15.24
4.9306,-13.184,-0.31327,-1.0333,1.1878,0.72693,-13.08,63.9,-14.22
4.699,-11.822,-0.31327,-1.0318,1.5052,0.49052,-14.64,63.12,-13.02
3.9771,-10.202,-0.44947,-1.0351,2.0928,-0.062614,-15.72,62.4,-11.76
3.623,-9.4117,-0.6674,-1.1051,2.8066,-0.82772,-16.68,61.68,-10.44
3.1872,-7.6138,-1.0215,-1.2022,3.1289,-1.1894,-17.76,60.36,-8.22
2.9148,-7.0553,-0.92618,-1.3546,3.3204,-1.4248,-18.36,59.76,-7.08
2.8603,-6.17,-1.0215,-1.4862,3.3756,-1.5855,-18.42,59.46,-5.88
2.7786,-5.8159,-1.076,-1.657,3.0372,-1.6671,-19.14,58.62,-4.32
2.5742,-5.4754,-1.1305,-1.7514,2.6023,-1.6023,-19.62,58.32,-3.48
2.3155,-5.4209,-1.0624,-1.8631,2.1435,-1.4355,-20.04,57.9,-2.76
1.6072,-6.4424,-0.49033,-1.9969,1.7935,-1.1591,-21.36,56.82,-1.26
0.85808,-7.5321,-0.21793,-2.1896,1.6273,-0.78679,-22.32,56.34,-0.48
0.095342,-8.7306,0.57205,-2.4202,1.6884,-0.31521,-24.18,55.08,0.78
-0.14982,-9.0439,1.3076,-2.6725,1.9923,0.22663,-25.2,54.18,1.62
-0.095342,-9.1801,1.8932,-2.8964,2.7733,1.1726,-26.28,53.52,2.4
0.68102,-9.2891,2.5742,-2.9099,3.0461,1.4875,-27.24,52.86,3.3
0.68102,-9.2891,2.5742,-2.9099,3.0461,1.4875,-28.26,52.14,4.2
1.8932,-18.265,5.2166,-2.9523,3.8912,2.97,-29.64,50.7,6.0
3.337,-19.218,5.8295,-3.0519,4.0167,3.755,-30.42,50.04,6.9
7.0145,-14.587,5.1894,-2.9059,3.8564,4.5931,-30.96,49.02,8.88
8.5127,-10.978,4.0589,-2.0391,3.1276,5.1294,-30.9,48.6,9.84
10.188,-5.884,1.58,0.63652,0.57085,4.6731,-30.6,48.36,10.92
10.665,-7.1507,-1.4301,2.6741,-1.8155,3.8949,-28.98,48.54,12.66
8.8396,-9.507,-0.85808,3.7672,-3.813,2.8014,-27.66,48.72,13.02
3.4187,-12.912,0.49033,3.3466,-4.5341,1.7712,-24.24,49.56,13.44
0.91256,-13.198,0.6674,1.7132,-3.0403,1.4074,-22.32,50.22,13.26
-0.8036,-12.572,0.081722,-0.2306,-0.10201,1.2944,-20.1,50.82,12.9
0.21793,-9.1937,-0.47671,-1.5629,3.0998,0.15241,-15.78,52.14,12.06
1.4165,-7.4503,0.17706,-1.7013,4.8408,-0.12889,-13.62,52.74,11.94
2.1929,-6.674,0.70826,-1.4566,5.8887,-0.35949,-11.58,53.52,11.58
3.8273,-6.8919,1.4301,-1.1686,6.4196,-0.20556,-7.86,54.66,11.16
5.1076,-6.96,1.4301,-0.91844,6.3276,0.18998,-6.06,55.32,10.98
6.1564,-7.0145,1.2122,-0.69119,5.5011,0.58551,-4.62,55.68,10.8
7.2869,-7.1098,0.55843,-0.38912,3.3503,0.98533,-2.58,56.46,10.74
7.2733,-6.96,0.38137,-0.11118,1.8253,1.1576,-1.86,56.64,10.68
7.2188,-6.7693,0.054481,0.28253,0.62339,1.2737,-1.38,56.64,10.98
7.069,-6.7693,-0.96704,0.80176,-0.29199,1.2825,-1.02,56.82,11.76
6.9736,-7.3277,-1.471,1.5806,-1.0647,1.1127,-1.02,56.76,12.24
6.17,-10.351,-2.4244,1.7608,-1.1423,1.0049,-1.08,56.82,12.78
5.7069,-13.225,-2.4244,1.7428,-0.81948,0.53665,-1.08,56.88,13.32
5.8295,-17.475,-2.6696,1.3775,-0.32406,0.15149,-1.14,56.94,13.14
6.3743,-19.123,-2.9284,0.67256,0.19761,-0.25534,-1.32,56.94,12.84
6.1564,-13.77,-2.4925,-0.22174,0.72449,-0.7254,-1.74,57.12,12.06
5.2711,-8.4446,-2.547,-0.81703,1.2859,-1.7321,-2.34,57.06,11.1
5.0259,-7.5048,-2.8467,-0.64477,1.4731,-2.5143,-2.88,57.06,10.74
5.094,-8.145,-3.1599,-0.33262,1.4013,-3.156,-3.48,56.82,10.26
5.094,-9.1529,-3.3778,-0.22083,1.0629,-3.5403,-4.38,56.64,9.96
4.6037,-13.77,-3.1599,-0.41783,0.50702,-3.5855,-7.14,55.98,9.24
4.1542,-15.173,-2.9011,-0.84758,-0.094684,-3.3903,-8.94,55.32,8.94
3.4459,-15.323,-2.5606,-1.5678,-0.7419,-2.8665,-10.86,54.66,8.64
2.4925,-14.083,-1.9613,-1.7116,-0.82345,-2.6667,-15.6,52.92,8.46
1.7025,-12.612,-1.6208,-1.9432,-0.58887,-2.1689,-18.18,51.72,8.82
1.4165,-11.959,-1.4301,-1.9981,-0.093157,-2.0904,-20.76,50.64,9.36
0.83084,-10.447,-1.1713,-2.0091,0.562,-2.1252,-25.98,47.76,10.68
0.77636,-9.9156,-1.1577,-1.9755,1.1826,-2.1759,-28.68,46.44,11.34
1.0624,-9.7113,-1.0896,-1.9273,1.5892,-2.1298,-34.02,43.32,12.48
1.2803,-9.398,-0.9398,-1.9038,1.7306,-1.8091,-36.48,41.64,12.72
1.4029,-8.8941,-0.81722,-1.9224,1.6277,-1.4713,-38.82,40.08,13.14
1.3484,-8.54,-0.6674,-1.9178,1.4288,-1.0907,-40.98,38.52,13.38
1.1986,-7.3277,-0.47671,-1.9038,1.2254,-0.67989,-44.4,35.16,13.56
1.0215,-6.674,-0.39499,-1.8195,1.0308,-0.25992,-45.84,33.66,13.68
0.89894,-6.1155,-0.054481,-1.693,0.8262,0.40653,-48.18,30.96,13.8
0.88532,-6.3335,0.14982,-1.5809,0.78221,0.894,-49.14,29.58,13.8
0.84446,-7.3822,0.31327,-1.478,0.81856,1.4071,-49.92,28.5,13.56
0.85808,-7.8317,0.44947,-1.4184,0.96211,1.9377,-50.7,27.36,13.14
1.0215,-8.3765,0.83084,-1.3992,1.2074,2.4383,-51.36,26.4,12.72
0.99429,-10.896,1.9613,-1.4664,1.5357,2.9147,-52.08,25.5,12.12
1.1305,-13.634,2.5742,-1.5959,2.1554,3.711,-52.38,25.32,11.82
3.5413,-15.595,3.3915,-1.6478,2.4593,4.2788,-52.5,25.5,11.16
4.9306,-13.293,3.0237,-1.3616,2.4538,4.7953,-52.2,25.74,10.8
5.8295,-11.536,2.6015,-1.0644,2.2746,4.9465,-51.84,26.28,10.62
7.4503,-8.6762,1.0896,0.30696,1.0434,4.7699,-51.24,27.24,10.32
8.9486,-7.6002,-1.0896,1.3775,-0.2868,4.3564,-49.44,29.76,9.84
8.2131,-8.8124,-0.96704,1.9871,-1.9581,3.408,-48.24,31.08,9.78
5.5843,-11.564,-0.068102,1.7233,-2.0959,3.0501,-45.3,34.5,9.36
3.732,-13.225,0.25879,0.85032,-1.6179,2.2575,-43.5,36.18,9.18
3.1872,-13.716,0.17706,-0.14447,-0.25443,1.4233,-41.64,37.92,9.06
3.0373,-12.476,0.027241,-0.75869,2.3326,0.4383,-38.1,41.4,8.7
3.8001,-9.6704,0.054481,-0.58215,3.8726,0.021075,-36.24,42.72,8.52
4.6037,-7.7636,0.20431,-0.22755,4.7168,-0.19945,-34.38,43.98,8.4
5.9657,-6.4152,-0.25879,0.25962,4.7299,-0.40836,-31.14,46.38,7.92
6.3198,-6.4969,-0.47671,0.3711,3.952,-0.53145,-29.88,47.4,7.68
6.3471,-6.8238,-0.70826,0.36377,3.4468,-0.56566,-28.68,48.12,7.14
5.6797,-7.8998,-0.92618,0.20892,1.9768,-0.42638,-27.24,49.08,6.18
5.2983,-8.1586,-1.0079,0.12156,1.2593,-0.18265,-26.58,49.38,5.7
5.0395,-8.145,-1.0215,0.19212,0.78649,0.10751,-26.28,49.62,5.16
5.0804,-7.5593,-1.4301,0.62858,0.4441,0.42364,-26.16,49.32,3.9
5.1485,-7.2869,-1.9613,0.80909,0.39401,0.45571,-26.34,49.26,3.24
5.0668,-7.3414,-2.3836,1.1084,0.36713,0.41356,-26.46,49.08,2.52
5.2847,-8.2676,-3.051,1.2507,0.39828,0.19456,-26.88,48.72,0.84
5.3528,-9.7522,-3.0782,1.1521,0.3769,0.031765,-27.18,48.6,-0.18
5.4073,-10.91,-3.1599,0.92546,0.3094,-0.12859,-27.42,48.6,-1.26
5.6252,-12.517,-2.9556,0.57208,0.15455,-0.24221,-27.72,47.94,-3.0
5.7205,-13.484,-2.8875,0.47128,0.021075,-0.24618,-27.78,47.7,-4.02
5.9249,-14.451,-2.7377,0.47922,-0.066279,-0.22724,-27.9,47.52,-4.86
6.6331,-16.004,-2.7649,0.4777,-0.66309,-0.12431,-28.02,47.34,-5.7
7.0009,-13.035,-2.6968,0.36438,-1.3121,-0.090408,-28.08,46.86,-7.32
6.2245,-10.379,-2.5742,0.26603,-1.9981,-0.25901,-28.2,46.56,-8.04
4.699,-7.8317,-2.3155,0.17318,-2.6979,-0.54734,-28.56,46.32,-9.3
2.9284,-7.8453,-2.1793,-0.13928,-3.5748,-1.0137,-28.92,46.14,-9.72
2.1248,-8.2948,-1.6481,-0.26817,-3.9019,-1.0486,-29.46,45.9,-10.08
-0.36775,-9.0303,-0.20431,-0.34086,-4.4642,-0.57452,-30.48,45.36,-9.96
-1.4846,-10.27,-0.6674,-0.44257,-2.8231,-0.38454,-31.26,45.0,-9.78
-0.35413,-12.027,-1.2531,-0.89706,-0.47464,-0.31276,-31.98,44.58,-9.42
2.9965,-12.898,-0.14982,-1.3412,1.3583,-0.53023,-33.72,44.22,-8.52
4.1951,-12.871,0.85808,-1.7141,1.7507,-0.52046,-34.56,43.92,-7.92
4.699,-12.64,1.6617,-1.9474,1.5638,-0.42486,-35.4,43.86,-7.32
4.6445,-11.25,3.0101,-2.6038,1.336,-0.76541,-36.36,43.74,-6.84
3.9227,-8.8532,4.0589,-2.6823,1.3494,-1.2193,-38.34,43.56,-5.46
3.2553,-8.1586,3.8954,-2.3292,1.4697,-1.7364,-39.42,43.56,-4.68
2.7649,-8.54,3.2416,-1.6967,1.6741,-2.2458,-40.56,43.32,-3.84
2.656,-9.3844,2.8603,-0.71319,1.9117,-2.5424,-42.84,42.72,-2.52
2.5742,-9.7658,2.5198,-0.31612,1.9447,-2.4545,-43.92,42.48,-2.1
2.7104,-9.9156,2.2337,-0.19792,1.8732,-2.3601,-45.18,42.0,-1.92
3.2008,-9.398,1.1986,-0.062919,1.1936,-2.0082,-47.4,40.98,-1.92
2.9556,-8.9349,0.6674,-0.093768,0.47373,-1.7761,-48.6,40.32,-2.1
2.656,-8.2131,0.24517,-0.2584,-0.29444,-1.4172,-50.58,38.64,-2.4
1.757,-5.9793,0.20431,-0.41142,-0.45173,-1.2581,-51.78,37.8,-2.58
1.0624,-4.9987,0.17706,-0.52901,-0.35919,-1.1949,-52.86,36.78,-2.7
0.76274,-4.8488,0.054481,-0.57452,-0.24251,-1.1781,-53.88,35.64,-2.7
0.24517,-4.8216,-0.027241,-0.66676,0.24587,-1.0452,-55.8,33.3,-2.76
0.23155,-4.8352,-0.28603,-0.69944,0.51038,-0.76175,-56.58,32.16,-2.94
0.20431,-4.7535,-0.34051,-0.6973,0.61697,-0.31154,-57.3,31.02,-3.42
0.58567,-4.6309,-0.50395,-0.6857,0.60384,0.51832,-58.62,28.92,-4.02
0.96704,-4.6037,-0.64016,-0.68386,0.59743,0.79321,-59.1,27.84,-4.38
1.5936,-4.5628,-0.6674,-0.72693,0.57238,1.2611,-59.46,26.94,-4.68
2.5061,-4.3449,-0.81722,-0.748,0.45968,1.7071,-59.76,26.22,-4.92
4.0725,-4.6582,-0.35413,-0.79168,0.27886,1.8176,-60.12,25.38,-5.52
4.0861,-7.355,-2.6696,-1.0198,0.22999,1.8378,-60.24,25.2,-5.88
11.223,-11.169,-0.61292,-2.6957,2.0861,0.95295,-59.7,25.14,-6.6
8.0088,-16.385,-1.5527,-2.1466,1.5901,1.6881,-59.34,25.2,-6.96
10.215,-17.529,0.29965,-1.4716,2.8057,3.3582,-58.8,25.38,-7.5
10.529,-16.739,0.61292,-0.38759,4.0864,4.3158,-58.02,25.8,-8.16
12.435,-11.754,-1.3212,0.57849,5.327,4.4056,-55.74,27.06,-9.96
14.71,-9.0848,-2.3836,1.7788,4.3475,3.9957,-54.3,28.02,-10.92
13.362,-9.616,-3.514,2.7174,2.055,2.8805,-50.52,29.76,-13.44
12.612,-12.286,-4.1542,2.2538,-0.48442,1.2593,-48.66,30.54,-14.58
12.027,-11.891,-4.413,1.591,-0.96578,0.80634,-46.8,31.32,-15.72
9.7658,-7.3414,-2.6968,0.030238,-3.0983,0.49724,-43.08,32.88,-17.76
7.8045,-5.8295,-2.0839,-0.24832,-4.0384,0.34941,-41.52,33.48,-18.66
5.9657,-4.6309,-1.9341,-0.15638,-4.415,0.36805,-40.02,34.08,-19.44
3.2553,-3.4596,-1.6753,0.30146,-3.6209,0.46731,-37.62,35.16,-20.76
2.9556,-3.3234,-1.4438,0.66248,-2.5833,0.45876,-36.66,35.76,-21.3
2.9011,-3.4596,-1.4301,0.91844,-1.675,0.41936,-35.76,36.12,-21.72
3.4868,-4.2495,-1.6617,0.94745,-1.0104,0.343,-34.8,36.54,-22.14
4.2087,-4.9578,-1.6617,0.79504,-0.70127,0.24801,-34.8,36.48,-22.14
4.699,-5.6661,-1.757,0.562,-0.73365,0.17501,-34.98,36.3,-21.84
5.2847,-7.1234,-1.7979,0.27611,-1.1713,0.16677,-35.88,35.82,-21.24
5.3119,-7.5457,-1.7298,0.14569,-1.5223,0.22205,-36.42,35.7,-20.82
5.203,-7.9407,-1.5391,0.082161,-1.6475,0.2529,-37.02,35.64,-20.34
4.8216,-9.5479,-1.1305,-0.01741,-1.741,0.24129,-37.68,35.28,-20.04
4.9033,-14.928,-0.96704,-0.13378,-1.6078,0.15058,-39.06,34.62,-19.26
5.2711,-17.952,-0.78998,-0.22938,-1.4557,0.11637,-39.66,34.2,-19.02
5.6388,-19.341,0.39499,-0.51404,-1.262,0.088881,-40.26,33.72,-18.72
5.7614,-19.532,1.2258,-1.2556,-0.58826,-0.13714,-41.4,33.12,-18.36
5.203,-18.401,1.7298,-1.8051,0.13347,-0.52229,-42.12,33.0,-18.12
4.6445,-15.677,2.3291,-1.9807,0.56658,-0.79718,-42.78,32.7,-18.0
2.7922,-10.147,2.152,-1.8384,1.9761,-1.9157,-44.22,32.1,-17.7
2.7786,-9.9156,1.8932,-1.2095,2.6154,-2.5782,-45.06,31.86,-17.64
3.1191,-10.42,0.96704,-0.57421,2.7028,-2.9499,-45.9,31.5,-17.64
3.7456,-9.4117,0.61292,-0.036346,1.8008,-2.653,-47.94,30.9,-17.76
3.4868,-7.3277,0.16344,0.073304,0.86773,-2.0464,-48.96,30.42,-17.76
2.9829,-6.17,0.16344,0.034514,0.06353,-1.5382,-49.92,30.0,-17.82
1.7979,-5.0259,0.25879,-0.049175,-0.38943,-1.2324,-50.88,29.52,-18.06
0.49033,-3.7865,0.21793,-0.088881,-0.43219,-1.0846,-52.98,28.2,-18.3
0.38137,-3.3915,0.095342,-0.095295,-0.18692,-0.96822,-54.06,27.66,-18.3
0.96704,-3.3506,-0.39499,-0.047342,0.020464,-0.77549,-55.02,27.12,-18.42
1.3212,-3.6366,-0.62654,-0.011912,0.0030543,-0.31093,-57.0,25.2,-18.96
1.4438,-4.3858,-0.6674,-0.039706,-0.067501,-0.15485,-57.84,24.42,-19.02
1.4165,-4.8761,-0.65378,-0.31032,-0.22449,0.26786,-58.68,23.52,-19.14
0.81722,-6.0202,-0.27241,-0.61331,0.0012217,0.47128,-60.0,21.96,-19.5
0.6674,-6.0883,-0.068102,-0.93707,0.48258,0.63591,-60.54,21.24,-19.38
0.7355,-6.0066,0.12258,-1.1606,1.4123,0.84788,-60.9,20.46,-19.32
1.4438,-5.4345,0.47671,-1.1408,1.6942,0.92271,-60.9,19.38,-19.32
2.0022,-5.5707,0.46309,-0.94195,2.1521,1.1671,-60.54,19.02,-19.38
3.4051,-7.3141,-0.64016,-1.5855,2.471,1.0852,-60.06,18.84,-19.44
5.1485,-10.025,-1.4574,-1.9945,1.7239,0.40378,-58.62,18.96,-20.16
4.7671,-13.144,-1.7025,-1.8115,1.3711,1.7071,-57.42,19.08,-20.76
6.6059,-18.238,-0.21793,-1.8476,2.2355,1.9597,-54.6,19.62,-21.54
9.0439,-19.368,0.8036,0.040623,2.2752,3.7125,-52.86,20.16,-21.96
11.155,-18.224,-0.55843,1.3115,1.397,4.2373,-51.12,20.7,-22.56
13.225,-15.936,-1.1169,2.7779,-0.40775,4.2956,-49.02,21.3,-23.04
14.138,-10.61,-2.8603,3.9847,-3.0727,4.0051,-44.7,22.5,-24.3
11.237,-9.8748,-2.5198,4.1597,-4.9578,3.3268,-42.66,23.16,-25.02
5.9521,-9.9973,-2.0158,3.2287,-5.3915,2.5775,-39.18,24.48,-25.92
3.4187,-9.0848,-2.152,1.2459,-4.2327,1.2672,-37.74,25.08,-26.1
2.3155,-8.2812,-2.4517,0.64752,-3.5647,0.88178,-36.54,25.62,-26.16
1.7979,-7.7091,-2.7649,-0.45571,-1.175,-0.093462,-35.52,25.98,-26.16
1.5391,-5.2575,-3.2008,-0.53206,0.51496,-0.5791,-33.9,26.58,-25.92
2.3699,-4.3721,-2.9965,-0.33139,1.8668,-0.74037,-33.48,26.88,-25.62
3.732,-4.127,-2.6151,0.071166,2.6508,-0.68722,-32.7,27.24,-25.44
5.4618,-4.2495,-2.7377,0.21625,2.2281,-0.61148,-32.58,27.06,-25.44
6.5378,-4.5492,-2.7377,0.24648,1.157,-0.52229,-32.46,27.0,-25.5
6.8919,-4.6718,-2.8058,0.22755,-0.26206,-0.38271,-32.64,26.64,-25.56
6.9464,-5.3119,-2.6968,0.21869,-1.0113,-0.2697,-32.94,26.46,-25.44
6.7148,-5.993,-2.4108,0.2025,-3.281,0.15699,-33.24,26.16,-25.44
6.7148,-5.993,-2.4108,0.20403,-3.7278,0.26542,-33.24,26.16,-25.44
4.8352,-8.3493,-1.7025,0.0956,-3.6915,0.28436,-33.66,25.74,-25.2
3.8273,-11.822,-1.2258,0.012523,-3.5106,0.24526,-34.2,25.38,-24.78
3.8273,-14.683,-0.91256,-0.34117,-2.5779,0.11698,-35.64,24.54,-24.0
4.127,-17.23,-0.70826,-0.68142,-2.1148,0.12645,-36.42,24.12,-23.7
5.0395,-19.504,0.31327,-1.2162,-1.3005,0.027489,-38.22,23.64,-22.8
5.1894,-19.532,1.4438,-2.0974,-0.29627,-0.18265,-39.36,23.34,-22.08
4.8352,-19.164,2.7241,-2.908,0.72449,-0.47709,-40.44,23.04,-21.6
3.5822,-13.866,3.2961,-3.2803,1.9297,-1.1387,-43.44,22.44,-20.22
3.4459,-12.245,3.2144,-2.9981,2.9752,-1.9224,-45.12,22.38,-19.5
3.6366,-11.931,3.2553,-1.843,3.7562,-2.8121,-46.98,22.02,-18.9
4.6718,-11.005,2.6423,-1.1277,3.5168,-3.098,-50.76,21.48,-17.52
4.9714,-9.9565,2.3018,-0.61789,2.642,-3.0739,-52.74,21.06,-17.04
4.3585,-7.6683,1.4165,-0.31612,1.3372,-2.8989,-54.66,20.58,-16.68
3.3506,-6.8647,1.3212,-0.17715,0.083078,-2.6939,-58.14,19.32,-16.44
1.9341,-6.3471,1.1986,-0.12889,-0.78588,-2.4804,-59.64,18.48,-16.32
1.2258,-5.9112,1.0079,-0.13347,-1.1139,-2.1591,-60.96,17.7,-16.02
0.081722,-4.3721,0.57205,-0.1408,-0.87232,-1.9328,-63.24,15.66,-15.54
0.081722,-4.0044,0.40861,-0.10721,-0.49786,-1.6835,-64.14,14.46,-15.3
0.01362,-3.8409,0.040861,-0.083994,-0.045509,-1.2297,-65.04,13.32,-15.0
0.28603,-4.2495,-0.23155,-0.15088,0.075747,-0.86651,-66.18,10.68,-14.52
0.24517,-4.6718,-0.31327,-0.20678,0.11057,-0.66615,-66.6,9.3,-14.16
0.23155,-4.9033,-0.34051,-0.41783,0.2529,0.019853,-66.72,8.1,-13.56
0.47671,-5.2166,-0.29965,-0.54672,0.46914,0.48228,-66.96,5.88,-12.54
0.44947,-5.094,-0.095342,-0.64385,0.7648,0.87048,-67.02,4.8,-11.82
0.6674,-5.0123,0.38137,-0.71685,1.3369,1.3467,-66.54,3.3,-10.74
1.2258,-5.1485,0.64016,-0.63897,1.6295,1.6735,-66.06,2.76,-10.38
1.7025,-5.1213,0.54481,-0.55925,1.6863,1.843,-65.64,2.4,-10.2
3.4187,-6.0338,0.50395,-0.18906,1.4429,2.3537,-64.68,1.98,-10.5
4.1406,-7.8317,0.54481,0.0956,0.98227,2.7031,-64.02,2.04,-10.74
5.5299,-11.509,-3.4187,0.049786,0.52015,3.0534,-63.3,2.22,-11.16
11.7,-18.347,-1.8524,-1.3946,1.6267,0.5174,-61.56,3.24,-12.0
8.3084,-19.232,-3.7047,-0.84574,0.53359,3.7645,-60.66,3.84,-12.3
7.7636,-19.518,-1.3212,-0.49602,1.3787,3.9883,-59.64,4.68,-12.72
10.311,-19.314,-1.3212,1.6512,3.31,5.0338,-57.3,6.6,-13.92
14.233,-13.688,-2.6015,2.9691,2.7984,4.6206,-55.92,7.68,-14.7
16.862,-10.229,-2.0431,4.0183,-1.3528,3.6411,-54.36,9.12,-15.54
8.7715,-10.964,-1.0215,4.1753,-4.9379,2.8497,-51.48,11.58,-17.16
5.1076,-10.855,-0.25879,1.7181,-5.8029,1.7333,-50.34,12.96,-17.64
3.7865,-10.338,-0.29965,0.7141,-5.255,1.5153,-49.38,14.22,-18.0
2.8603,-8.4719,-0.91256,-0.95753,-3.5693,0.56597,-48.54,15.48,-18.06
0.91256,-6.279,-2.1929,-1.3008,-2.2746,0.087659,-47.22,17.82,-17.34
0.69464,-4.4539,-2.5334,-0.95478,-0.71166,-0.39431,-46.68,18.78,-16.98
1.4165,-3.1054,-2.7786,-0.26634,1.0125,-0.64232,-46.26,19.68,-16.38
2.9284,-3.4051,-2.7649,0.56566,2.6423,-0.46609,-45.54,21.12,-15.84
4.3177,-3.623,-2.7104,0.70158,2.8085,-0.38057,-45.42,21.54,-15.54
5.993,-3.6775,-2.9692,0.78282,2.4807,-0.22999,-45.24,21.96,-15.24
5.993,-3.6775,-2.9692,0.55619,0.67867,-0.071166,-45.24,21.96,-15.24
7.2869,-4.3994,-3.051,0.35308,-0.89095,0.046426,-45.3,22.2,-14.88
7.0826,-4.9033,-2.8603,0.14019,-2.3005,0.21533,-45.72,22.32,-13.26
5.775,-6.9055,-2.3836,-0.091324,-3.4746,0.39981,-46.2,22.5,-12.06
5.2166,-7.4776,-2.2065,-0.21411,-3.5861,0.4215,-46.38,22.68,-10.86
4.4811,-8.7306,-1.7706,-0.28619,-3.4566,0.38729,-46.38,22.8,-9.42
3.7728,-10.924,-1.1305,-0.61056,-2.4636,0.087965,-45.9,23.04,-6.66
3.8682,-12.885,-0.64016,-0.88087,-1.6215,-0.22633,-45.36,23.1,-5.34
4.699,-16.44,-0.21793,-1.0913,-0.87354,-0.51221,-44.88,23.46,-4.02
5.0395,-17.802,-0.027241,-1.3152,-0.27978,-0.80879,-44.22,23.64,-2.64
5.38,-19.3,0.6674,-1.4224,-0.18143,-0.85399,-43.5,23.88,-1.26
5.5435,-19.532,1.6481,-1.8586,0.33995,-1.1069,-42.06,24.48,1.98
5.2847,-19.436,1.8115,-2.076,0.63897,-1.1136,-41.28,24.72,3.72
4.8625,-16.794,2.2882,-2.1564,1.0369,-1.2303,-40.62,24.78,5.46
3.6366,-12.64,2.438,-2.0693,1.4499,-1.576,-39.12,24.9,8.82
3.2553,-11.686,2.2337,-1.7333,1.8323,-2.025,-38.46,24.84,9.9
3.1191,-11.032,2.0567,-1.3299,2.1258,-2.4172,-37.8,24.66,10.62
3.1054,-9.0848,1.4982,-0.91202,2.2376,-2.6301,-36.96,23.7,11.4
3.1599,-7.8045,1.1441,-0.686,1.9841,-2.5461,-36.66,23.28,11.28
3.1327,-7.0009,0.8717,-0.47525,1.4358,-2.3931,-36.6,22.62,11.1
2.7786,-6.0202,0.38137,-0.30757,0.71838,-2.2211,-36.72,21.24,9.72
2.2474,-6.0066,0.34051,-0.26114,-0.15333,-1.8931,-37.2,20.4,8.82
1.2531,-5.5162,0.12258,-0.3937,-0.34941,-1.649,-38.04,18.78,6.66
0.77636,-4.9169,0.01362,-0.4948,-0.3149,-1.4093,-38.4,17.88,5.4
0.64016,-4.6173,-0.081722,-0.53298,-0.24496,-1.3094,-38.94,17.1,4.02
0.38137,-4.127,-0.16344,-0.63622,-0.0082467,-1.0696,-40.02,15.66,1.8
0.23155,-4.4811,-0.24517,-0.7419,0.19823,-0.90255,-40.62,14.88,0.54
0.1362,-5.3119,-0.14982,-1.025,0.57421,-0.56169,-41.4,13.44,-1.14
0.25879,-5.4073,0.10896,-1.2062,0.77946,-0.26909,-41.82,12.96,-1.86
0.34051,-5.2575,0.27241,-1.3088,0.9783,0.085216,-42.06,12.36,-2.52
0.61292,-5.0259,0.35413,-1.2752,1.1506,0.46731,-42.3,11.58,-3.06
1.2667,-4.3177,0.5993,-1.1454,1.3308,0.83414,-42.6,10.5,-3.78
1.7706,-4.4402,0.57205,-0.94379,1.4481,1.1591,-42.6,10.08,-3.9
2.4789,-5.6661,0.68102,-0.67165,1.3589,1.7465,-42.42,9.3,-3.78
4.1542,-9.5479,0.92618,-0.47281,1.0574,2.3607,-42.3,9.06,-3.54
5.8567,-12.708,1.1577,-0.19731,0.55283,3.0913,-42.24,8.88,-3.24
6.1564,-14.261,1.3893,0.17868,0.067806,3.8252,-42.24,8.94,-2.7
6.565,-18.551,1.5119,0.74128,-0.19364,4.5858,-42.12,9.18,-2.22
9.221,-19.518,-0.23155,1.4792,-0.31032,5.2046,-42.06,10.44,-1.26
9.4798,-19.028,-2.8603,2.4716,-0.46181,5.5906,-41.94,11.58,-0.96
11.591,-16.862,-3.1191,3.6444,-0.478,5.4932,-41.7,12.78,-0.72
11.196,-15.677,-3.9908,4.9147,-2.0666,5.163,-40.62,15.72,-0.18
8.2676,-15.173,-4.0316,4.2519,-2.9358,3.6695,-39.78,17.46,-0.18
6.7966,-14.07,-3.8001,2.5858,-2.3851,2.5947,-39.06,19.2,0.12
3.7592,-9.4798,-3.228,0.82436,-1.4645,1.3958,-37.32,22.86,-0.24
3.5004,-8.7851,-3.4051,-0.27581,0.039401,0.0039706,-36.42,24.6,-0.42
3.5413,-6.7966,-3.8001,-0.78496,0.54459,-0.38179,-34.74,27.9,-0.9
4.2359,-5.5571,-3.4868,-0.88392,1.5085,-0.97952,-33.9,29.4,-1.08
4.7399,-4.7671,-3.3234,-0.70188,2.1405,-1.1057,-32.94,30.78,-1.68
5.8295,-4.0316,-3.1735,-0.1237,1.7764,-0.7196,-32.16,32.04,-2.28
7.8998,-3.7728,-3.1191,0.29199,0.57208,-0.40042,-30.54,33.6,-3.54
8.3765,-4.2495,-3.1463,0.59223,-1.1973,-0.090713,-29.94,34.2,-4.02
6.8374,-5.203,-2.6151,0.6747,-2.8124,0.15974,-29.1,34.68,-4.5
5.6797,-5.6116,-2.2882,0.57635,-3.7761,0.27794,-28.8,34.86,-4.62
4.9714,-5.8431,-2.2474,0.30543,-4.0644,0.25443,-28.68,35.16,-4.62
3.5413,-6.851,-1.7298,-0.20769,-3.5027,-0.036957,-28.74,35.52,-4.2
3.2416,-7.4367,-1.4029,-0.57146,-2.7959,-0.30421,-28.8,35.64,-3.66
3.1054,-7.8998,-1.1577,-0.86437,-2.0375,-0.55589,-28.86,35.88,-3.3
3.2825,-9.6977,-0.27241,-1.1991,-1.0727,-0.80634,-29.34,36.48,-1.98
3.3642,-10.815,0.081722,-1.2901,-0.83414,-0.84635,-29.76,36.9,-1.44
3.7728,-14.41,0.49033,-1.397,-0.45143,-0.79871,-30.24,37.26,-0.48
6.0747,-19.368,0.57205,-1.3412,-0.17715,-0.39951,-31.08,38.16,2.04
7.2188,-19.504,1.1713,-1.4899,-0.24679,-0.0562,-31.68,38.52,3.54
7.2733,-19.532,2.2882,-2.0122,-0.21777,0.1295,-31.98,38.88,5.28
6.8783,-18.823,4.0861,-2.7492,0.35064,-0.30177,-32.34,39.3,8.94
6.1292,-16.004,3.6911,-2.6765,0.81886,-1.1927,-32.28,39.06,10.92
5.4754,-14.397,3.1327,-2.3738,1.0156,-1.7025,-31.98,38.46,12.66
4.6582,-12.762,2.2201,-1.0653,1.3097,-3.1573,-31.5,36.54,15.3
4.413,-12.313,1.8115,-0.45754,1.2535,-3.733,-31.5,35.58,16.26
3.8954,-11.346,1.3212,-0.15363,1.0959,-3.8894,-31.62,34.5,16.8
3.7047,-8.5944,0.74912,-0.074526,0.50366,-3.7,-31.68,31.86,17.22
3.1054,-7.5593,0.44947,-0.13011,-0.13011,-3.5164,-31.8,30.36,17.28
2.6968,-7.2733,0.44947,-0.20311,-0.66829,-3.3326,-31.92,28.92,17.04
1.9613,-6.851,0.24517,-0.27153,-0.98685,-3.1166,-31.92,27.48,16.44
1.1032,-5.884,-0.095342,-0.33017,-1.0626,-2.8509,-32.28,24.3,15.0
0.64016,-5.4345,-0.19068,-0.40073,-0.96853,-2.5675,-32.7,22.62,13.92
-0.040861,-5.2166,-0.20431,-0.51954,-0.72204,-2.2483,-33.12,21.0,12.72
-0.32689,-5.7342,-0.21793,-0.74159,-0.17532,-1.6777,-34.92,18.24,9.96
-0.24517,-5.6661,-0.17706,-0.89644,0.19456,-1.2303,-35.82,17.1,8.7
-0.23155,-5.2847,-0.17706,-1.0272,0.56169,-0.79718,-36.84,16.2,7.5
-0.040861,-3.8001,0.19068,-1.0831,0.88881,-0.43066,-38.7,14.7,5.76
0.12258,-3.0918,0.38137,-1.0721,1.1561,-0.13134,-39.42,13.86,5.34
0.53119,-2.656,0.62654,-0.97402,1.2911,0.15974,-40.08,13.26,4.92
1.866,-2.3563,0.61292,-0.64263,1.0369,0.62033,-40.98,12.12,4.14
2.4108,-2.1929,0.21793,-0.26939,0.53603,0.9389,-41.34,11.58,3.96
2.6968,-2.1793,-0.054481,0.18234,-0.060781,1.2068,-41.64,10.98,3.78
2.547,-3.3778,-0.50395,0.54367,-0.50702,1.4743,-41.76,10.5,3.54
2.3427,-5.4754,-0.44947,0.75228,-0.72815,1.8754,-41.7,10.32,3.48
2.6968,-9.6704,-0.6674,0.89858,-0.77855,2.5256,-41.7,10.38,3.54
4.1678,-15.023,-0.14982,1.0821,-0.84147,3.372,-41.28,10.86,3.66
5.2847,-19.041,0.51757,1.2795,-0.76938,4.3069,-41.1,11.34,3.96
6.3335,-19.409,-5.0804,1.441,-0.28955,5.2446,-40.74,12.0,4.38
16.344,-19.518,-8.0088,-0.45754,2.8384,-0.4496,-40.2,12.84,4.86
19.164,-13.988,-7.8317,-0.64507,5.4486,2.7718,-39.24,14.52,5.82
17.189,-12.149,-5.8159,0.093768,3.6594,5.6349,-38.64,15.6,6.18
13.253,-7.3414,-3.1872,1.3958,1.6845,4.8741,-37.44,18.0,7.32
13.157,-8.2131,-2.5742,3.4636,-1.6527,2.8488,-36.66,19.32,7.68
12.476,-10.447,-2.7649,2.8347,-3.2623,1.5269,-35.64,20.64,8.04
9.5887,-8.8941,-2.547,1.0107,-4.1933,1.0412,-33.72,23.16,8.88
8.1586,-6.7557,-1.3484,-0.28344,-4.8933,0.7535,-32.58,24.6,9.3
6.2517,-5.3664,-0.31327,-0.58643,-5.5473,0.54611,-31.5,25.8,9.66
3.228,-3.1872,-0.12258,-0.22724,-5.4584,0.28222,-28.8,27.72,10.44
2.2337,-2.7649,-0.25879,0.058643,-5.003,0.1182,-27.42,28.5,10.62
1.2122,-3.1872,-0.78998,0.5791,-3.634,-0.17929,-26.1,29.16,10.62
2.1112,-4.7671,-1.6753,0.93523,-1.5012,-0.30513,-23.58,30.42,10.44
3.1054,-5.2847,-2.0839,0.97555,-0.71899,-0.31582,-22.32,30.9,10.32
3.9908,-6.0611,-2.3018,0.80237,-0.47953,-0.29719,-21.12,31.2,10.38
4.5764,-6.9055,-1.9341,0.39126,-0.61117,-0.30513,-18.9,31.62,10.02
4.413,-7.1915,-1.6344,-0.37813,-1.0006,-0.47861,-18.18,31.86,9.9
4.0725,-7.3005,-1.2395,-0.60995,-1.0708,-0.56108,-17.52,31.92,9.84
3.5413,-7.7364,-0.55843,-1.0794,-0.89064,-0.821,-16.56,31.92,9.54
3.2825,-7.9543,-0.24517,-1.1545,-0.49908,-0.97983,-16.32,31.92,9.36
3.4187,-8.4719,0.12258,-1.087,-0.048258,-1.1289,-16.08,31.86,9.06
3.9908,-8.4174,0.25879,-0.87323,0.27947,-1.3399,-16.44,31.86,8.34
4.3177,-9.3163,0.19068,-0.41569,0.3146,-1.5052,-17.22,31.98,7.92
4.4402,-10.283,0.10896,-0.16066,0.093462,-1.6206,-17.82,32.1,7.44
4.522,-13.253,-0.054481,-0.021686,-0.22205,-1.6576,-18.54,32.16,7.02
4.304,-18.578,-0.19068,-0.015272,-0.58246,-1.5165,-20.46,32.04,6.18
4.4402,-19.409,-0.054481,-0.23732,-0.8543,-1.2297,-21.36,32.1,5.7
3.7728,-18.469,0.31327,-0.90775,-0.57146,-0.4328,-23.46,31.92,5.22
3.0646,-15.418,0.58567,-1.1845,0.19792,-0.11301,-24.36,31.86,4.98
2.3972,-12.844,1.0079,-1.3176,1.0999,-0.21716,-25.2,31.74,4.86
2.0839,-11.959,1.1713,-1.3079,1.9343,-0.73823,-26.28,31.68,4.74
2.3836,-10.392,1.2531,-1.0718,2.5641,-1.12,-28.2,31.38,4.14
2.5879,-9.3163,0.8717,-0.74281,2.8567,-1.2419,-29.22,31.2,3.72
2.7513,-7.8589,0.49033,-0.42272,2.806,-1.0226,-30.0,31.02,3.36
3.5413,-5.38,-0.47671,0.06689,2.0415,-0.39095,-31.62,30.48,2.52
3.7728,-4.985,-0.89894,0.28039,1.153,-0.033292,-32.34,30.18,2.04
3.8546,-4.8761,-1.1577,0.34606,0.6579,0.10996,-33.0,29.7,1.5
3.5958,-4.8625,-1.3484,0.28741,-0.63347,0.45235,-33.78,29.34,0.54
3.1054,-4.9578,-1.3484,0.098349,-1.0626,0.58582,-34.26,28.98,-0.06
2.4925,-5.38,-1.1986,-0.38607,-1.0372,0.61453,-34.74,28.68,-1.08
1.9205,-6.2517,-0.88532,-0.7816,-0.60445,0.56444,-34.92,28.44,-1.5
1.7298,-7.0553,-0.38137,-0.98044,-0.29658,0.53726,-35.16,28.2,-1.92
1.7025,-7.3822,-0.20431,-1.3231,0.45418,0.52137,-35.16,28.02,-2.4
1.8251,-7.6546,0.57205,-1.7272,1.7391,0.52443,-34.68,28.02,-3.12
2.0975,-7.464,0.99429,-1.9432,2.5415,0.52382,-34.14,28.2,-3.3
2.3427,-7.2869,1.4301,-2.0992,3.1875,0.47067,-33.84,28.26,-3.48
3.0646,-6.7693,1.6072,-2.2135,3.7788,0.41905,-32.4,28.5,-3.3
3.3506,-6.565,1.6481,-2.1909,3.8842,0.41966,-31.5,28.8,-2.88
3.732,-6.565,1.6753,-2.1499,3.7831,0.47403,-30.42,29.16,-2.28
4.127,-6.674,1.7843,-2.0925,3.4523,0.58582,-28.5,29.76,-0.54
4.0725,-7.5457,2.0158,-2.0992,2.9975,0.79687,-27.6,30.42,0.72
4.0316,-9.6704,2.3972,-2.1521,2.6038,1.1478,-26.88,30.9,2.22
5.1485,-12.408,3.1191,-2.156,2.1802,1.9587,-25.92,32.16,5.22
5.5299,-14.192,3.9635,-1.9816,2.0458,2.5491,-25.98,33.06,6.66
5.8976,-16.126,4.3449,-1.8384,2.0812,2.8268,-26.04,33.84,8.1
9.4389,-17.203,3.5004,-0.93646,2.2061,3.6209,-26.7,35.4,10.26
11.25,-13.838,2.0294,0.11637,1.693,3.9071,-27.12,36.18,10.92
12.708,-12.0,0.14982,1.6044,0.45448,3.8643,-27.18,37.08,11.58
12.858,-12.558,-2.1793,3.1389,-1.2315,3.2678,-27.54,39.0,11.76
11.482,-13.375,-2.2201,3.9938,-3.1792,2.5372,-27.72,39.9,11.58
9.0167,-13.116,-2.7241,3.7327,-3.1322,2.1948,-27.84,40.86,10.98
4.7944,-9.8748,-2.9965,1.9459,-1.1319,1.197,-27.84,42.42,9.24
3.8546,-7.9134,-3.0918,0.53695,0.33537,0.14508,-27.66,42.84,7.86
3.6639,-6.851,-2.9011,-0.36957,1.336,-0.74953,-27.42,43.38,6.3
3.9499,-6.4016,-2.9148,-0.88973,2.4169,-1.525,-26.34,44.04,3.0
4.4675,-6.3743,-2.5742,-0.99082,2.8439,-1.5757,-25.44,44.04,1.26
4.8897,-6.4424,-2.3699,-0.95387,2.9102,-1.2679,-24.42,44.22,-0.48
5.8567,-6.7829,-1.8524,-0.88331,2.7639,-1.0544,-23.4,44.22,-1.98
6.456,-7.2869,-1.5119,-0.54886,1.6722,-0.53451,-21.72,44.16,-4.32
6.3471,-7.5729,-1.2258,-0.32651,0.74464,-0.37171,-21.18,44.1,-5.34
5.9249,-7.9951,-1.185,-0.10751,0.021991,-0.32956,-20.52,43.92,-6.0
5.1213,-8.4446,-1.471,0.11118,-0.47647,-0.37996,-19.8,43.56,-7.14
4.6582,-8.7715,-1.471,0.1631,-0.46762,-0.49724,-19.74,43.2,-7.44
4.4266,-8.7306,-1.6344,0.12859,-0.26756,-0.63927,-19.68,43.08,-7.8
3.9227,-8.6762,-1.7162,-0.002138,0.063225,-0.80756,-19.68,43.08,-7.98
3.732,-8.54,-1.5391,-0.19059,0.36927,-0.96853,-20.1,43.08,-8.16
3.7728,-8.1858,-1.3212,-0.36927,0.56352,-1.0828,-20.34,42.96,-8.28
3.5413,-7.5593,-0.85808,-0.49847,0.58674,-1.0858,-20.58,43.08,-8.46
3.2961,-7.2869,-0.35413,-0.56261,0.62644,-1.0837,-21.12,43.5,-8.64
3.2961,-7.0145,-0.35413,-0.57849,0.67714,-1.0632,-21.24,43.68,-8.58
3.1735,-6.7693,0.095342,-0.52229,0.76694,-1.0238,-21.42,43.86,-8.64
3.0918,-6.3743,0.21793,-0.40287,0.76755,-0.96975,-21.78,44.16,-8.76
3.2553,-7.7636,0.32689,-0.21686,0.68967,-0.85124,-22.44,44.58,-9.06
3.4596,-10.583,0.61292,-0.032987,0.47617,-0.64355,-22.86,44.82,-9.18
3.4459,-11.904,0.70826,0.034514,0.072388,-0.16005,-23.34,45.54,-9.48
3.8001,-15.35,1.1169,-0.015577,-0.20525,0.24038,-23.52,45.96,-10.02
4.2904,-16.971,1.5391,-0.12187,-0.46701,0.65485,-23.76,46.56,-10.62
4.7944,-19.355,2.3018,-0.24251,-0.68661,1.0489,-23.7,47.28,-11.4
5.38,-19.368,2.7241,-0.37874,-0.75503,1.332,-23.46,47.94,-12.12
5.8431,-15.296,2.261,-0.38882,-0.76267,1.46,-23.28,48.6,-12.84
5.5162,-10.093,1.4165,0.15058,-0.79351,1.0809,-22.74,49.26,-13.08
4.9987,-8.5808,1.076,0.64324,-0.64019,0.47189,-22.5,49.62,-13.02
3.4459,-7.5593,0.46309,1.007,-0.20769,-0.16952,-21.96,50.28,-13.2
3.2553,-7.5321,-0.068102,1.0018,0.35064,-0.75106,-21.9,51.06,-13.5
3.0646,-7.1915,-0.16344,0.71074,0.78313,-1.0901,-21.84,51.66,-13.68
2.7377,-6.9736,-0.39499,0.11881,1.2159,-1.2898,-21.78,51.9,-13.62
2.5334,-6.674,-0.44947,-0.076053,1.3082,-1.2956,-21.96,52.08,-13.62
2.2746,-6.17,-0.40861,-0.50916,1.4117,-1.2312,-22.38,52.44,-13.56
2.0158,-6.1292,-0.19068,-0.63286,1.4215,-1.171,-22.86,52.5,-13.38
1.8251,-6.3198,0.01362,-0.98746,1.5605,-0.92454,-23.28,52.56,-13.5
1.3484,-7.0826,0.83084,-1.2071,1.7779,-0.71532,-24.3,52.8,-13.56
1.3212,-7.5321,1.0896,-1.3995,2.0592,-0.48564,-24.78,52.86,-13.74
1.6072,-8.8805,1.7434,-1.5647,2.3305,-0.19487,-25.32,52.86,-14.22
2.2201,-10.542,2.4517,-1.6848,2.5629,0.14539,-26.1,52.92,-14.64
2.547,-11.196,2.8603,-1.7498,2.7779,0.70708,-26.28,52.92,-14.64
2.9692,-11.414,3.1599,-1.704,2.8854,1.0498,-26.34,52.98,-14.7
3.732,-11.087,3.4596,-1.5598,2.8961,1.3515,-26.1,53.22,-14.7
4.4266,-10.774,3.4732,-1.0852,2.5766,1.6991,-25.74,53.4,-14.58
5.5435,-10.038,2.7377,-0.86437,2.317,1.7938,-24.54,53.52,-14.34
6.17,-10.134,2.2065,-0.35247,1.4893,1.9664,-23.46,53.7,-14.34
6.3471,-10.733,1.7025,0.17043,-0.11668,2.2037,-22.2,53.94,-14.28
5.8704,-12.095,1.3484,0.27672,-0.87018,2.3372,-19.26,54.24,-13.68
5.5571,-12.572,1.3212,0.25198,-1.1616,2.4548,-17.7,54.3,-13.74
5.4481,-12.081,0.27241,0.12431,-0.71257,2.3448,-14.34,54.6,-13.38
6.0202,-8.2948,-0.027241,0.35858,-0.44227,2.0476,-12.66,54.54,-13.2
5.9385,-6.0611,-0.44947,0.65668,-0.13897,1.6298,-10.98,54.54,-13.08
5.8976,-5.6797,-0.99429,0.83658,0.094684,0.9783,-9.3,54.36,-12.96
5.9249,-7.0553,-2.2882,0.90652,0.034208,0.27245,-6.12,53.94,-12.9
5.8976,-8.54,-2.8603,0.84116,-0.16157,-0.27581,-4.68,53.76,-12.96
5.4073,-10.27,-3.0782,0.48106,-0.2584,-0.63225,-3.42,53.52,-13.26
4.2359,-13.239,-2.3972,-0.56658,0.17104,-0.99052,-0.96,53.4,-13.62
3.8273,-13.28,-1.8387,-1.2675,0.7367,-1.2874,-0.12,53.28,-13.62
3.5413,-12.599,-1.362,-1.6047,1.347,-1.6243,0.54,53.16,-13.74
3.4596,-11.645,-1.1577,-1.6454,1.8595,-1.9545,1.14,53.28,-13.8
3.8954,-8.8668,-0.76274,-1.438,2.0983,-2.2101,1.98,53.58,-13.68
4.2904,-7.9951,-0.76274,-1.1222,1.9273,-2.3017,2.22,53.88,-13.38
4.6582,-7.4776,-1.185,-0.7816,1.2947,-2.2715,2.58,54.6,-12.9
4.0861,-7.6683,-1.2667,-0.47189,-0.37813,-1.9138,2.76,55.02,-12.66
3.8546,-7.7091,-1.9613,-0.38943,-1.1115,-1.7681,2.7,55.44,-12.66
0.77636,-8.0905,-1.0896,-0.16982,-2.8039,-0.96395,2.1,56.04,-13.14
0.32689,-8.4446,-1.0351,-0.31246,-2.4074,-0.51221,1.62,56.22,-13.56
0.74912,-8.1177,-0.65378,-0.27489,-2.1582,0.0562,0.96,56.34,-13.92
1.8932,-7.7772,-0.72188,0.11515,-1.295,-0.058948,-0.96,56.16,-14.94
2.5606,-9.0439,-0.72188,0.14111,-0.9389,-0.19273,-2.1,56.04,-15.66
2.547,-9.3436,-0.51757,0.084299,-0.3824,-0.017104,-3.24,55.62,-16.44
3.3778,-9.2891,-0.19068,0.020769,0.30574,-0.33078,-4.56,55.02,-17.28
4.413,-9.8748,-0.23155,-0.047647,0.35033,-0.59804,-7.38,53.64,-19.26
4.2495,-9.9837,-0.19068,-0.16952,0.054672,-0.6744,-8.82,52.8,-20.4
3.7728,-9.7113,-0.20431,-0.11545,-0.13408,-0.79687,-12.24,50.7,-22.74
3.3915,-9.7658,-0.1362,0.11332,-0.3317,-0.90927,-14.22,49.8,-23.76
2.9965,-9.8066,-0.19068,0.2138,-0.29413,-0.97891,-16.2,48.6,-24.42
2.7649,-9.8611,-0.23155,0.28711,-0.18357,-1.0296,-18.18,47.4,-24.96
2.152,-9.7385,-0.51757,0.37965,-0.010079,-1.0421,-21.96,45.3,-25.62
1.866,-9.8066,-1.2803,0.51679,0.21625,-0.94073,-23.82,44.4,-25.68
1.8115,-10.079,-1.6889,0.61056,0.42333,-0.71563,-25.56,43.38,-25.74
1.9341,-12.817,-2.1656,0.6576,0.75075,-0.20647,-28.68,41.4,-25.86
2.9965,-11.836,-2.4789,0.70524,0.95631,0.21441,-29.94,40.62,-25.74
3.6094,-10.801,-2.5879,0.7926,0.74526,0.65607,-31.14,39.78,-25.62
4.9987,-9.0031,-3.4051,0.64935,0.089797,0.80481,-32.28,39.12,-25.56
4.6445,-7.5729,-3.5822,0.49633,-0.89247,0.74526,-34.26,37.32,-25.32
3.3506,-7.9407,-3.1463,0.085827,-1.5776,0.79046,-35.28,36.6,-25.14
2.4517,-8.3901,-2.0839,-0.14844,-1.222,0.62308,-37.02,34.98,-24.3
2.2746,-10.855,-1.5391,-0.27611,-0.95753,0.5507,-37.86,34.44,-24.06
2.4108,-11.959,-1.4438,-0.85185,-0.15241,0.60018,-38.58,33.96,-23.58
2.4517,-12.463,-1.185,-1.2743,0.40806,0.74892,-39.06,33.36,-22.92
2.5061,-12.463,-0.21793,-1.5788,1.08,0.88026,-40.08,32.52,-21.66
2.6696,-11.918,0.1362,-1.8286,1.8744,0.82406,-40.26,32.1,-20.94
2.9284,-10.828,0.70826,-2.0482,2.6744,0.71685,-40.56,31.86,-19.98
3.5685,-8.826,1.185,-2.1338,3.4813,0.18906,-41.16,31.38,-17.94
3.7865,-8.4038,1.4438,-2.0094,3.6963,-0.18418,-41.52,31.32,-16.68
3.9908,-8.3629,1.4982,-1.8201,3.6337,-0.49236,-41.82,31.08,-15.48
4.2495,-8.7987,1.3757,-1.6558,3.3042,-0.67653,-42.06,31.14,-12.78
4.0589,-8.9894,1.3212,-1.5262,2.7694,-0.7141,-41.94,31.14,-11.52
3.4323,-8.826,1.1305,-1.4346,2.1823,-0.66157,-41.76,31.38,-9.24
2.9692,-8.5808,1.1169,-1.3021,1.5479,-0.43646,-41.34,31.56,-7.98
2.547,-8.322,1.1713,-1.2343,1.347,-0.22083,-41.04,31.68,-6.96
2.152,-8.0632,1.0896,-1.193,1.3063,-0.099266,-40.8,31.8,-5.94
1.8387,-8.0224,1.1441,-1.131,1.3354,0.29932,-40.38,31.92,-4.92
1.7706,-9.4389,1.4982,-1.1347,1.4536,0.59743,-39.78,32.16,-2.88
1.9341,-9.7385,1.6481,-1.182,1.697,1.1038,-39.36,32.16,-1.92
2.152,-10.311,1.9341,-1.2028,1.7779,1.2581,-39.0,32.1,-1.08
2.2065,-12.926,3.1054,-1.3393,2.149,1.6802,-38.16,31.98,0.36
2.5334,-13.607,3.6366,-1.4484,2.5119,1.9514,-37.86,31.86,1.2
3.514,-11.891,3.7865,-1.3998,2.7657,2.1997,-37.5,31.62,1.86
4.7399,-8.1177,2.9965,-1.0779,2.7694,2.3353,-37.86,30.9,3.0
5.0259,-6.851,2.2337,-0.47159,2.2269,2.1854,-38.04,30.3,3.36
5.5843,-5.1485,1.4165,0.24862,1.8958,2.0571,-38.52,29.82,3.42
5.7614,-6.3743,0.50395,1.0226,0.77519,1.5977,-39.96,28.44,2.82
5.2575,-8.0224,0.14982,1.1029,0.17654,1.3381,-40.8,27.72,2.16
4.6445,-9.7113,0.068102,0.82284,-0.068111,1.1726,-41.7,27.06,1.2
3.8273,-11.931,0.14982,0.33934,0.080634,1.0773,-43.02,25.5,-1.74
3.4732,-12.054,0.14982,-0.15638,0.88239,1.0195,-43.56,24.84,-3.54
3.4051,-10.597,0.040861,-0.17287,1.2868,0.98991,-44.04,24.3,-5.46
3.9908,-9.1393,0.040861,-0.033598,2.1835,0.90225,-44.1,23.58,-10.2
4.7671,-8.4719,-0.39499,0.31215,3.1511,0.62278,-43.68,23.46,-12.9
5.2438,-8.3493,-0.6674,0.51954,3.1872,0.3543,-42.84,23.64,-15.72
6.4016,-8.5808,-1.8524,0.66309,2.7718,0.13256,-39.72,24.36,-20.76
6.5105,-8.6489,-2.2201,0.68936,1.7593,-0.045204,-37.68,25.02,-23.04
5.8295,-8.7034,-2.833,0.59162,1.1796,-0.11606,-32.64,26.46,-26.58
5.2711,-8.4038,-3.0373,0.47586,0.82956,-0.2025,-29.76,27.48,-27.78
5.0259,-8.0224,-3.1872,0.37843,0.6689,-0.31001,-27.06,28.32,-28.8
4.4811,-7.5321,-3.2689,0.31093,0.62217,-0.41753,-24.36,29.28,-29.52
4.3858,-7.5729,-3.3642,0.25412,0.60109,-0.49388,-19.2,31.26,-30.0
4.4266,-8.1313,-3.4051,0.18082,0.46242,-0.51832,-16.98,32.4,-29.94
4.3858,-9.507,-3.2553,0.053756,0.087965,-0.41386,-13.08,33.78,-28.56
4.3177,-11.278,-2.7377,-0.063835,-0.1857,-0.24251,-11.88,34.32,-27.48
4.6445,-14.288,-2.4653,-0.1408,-0.51893,0.036652,-10.92,34.86,-26.1
5.5299,-15.732,-2.1929,-0.2416,-1.0101,0.34697,-10.38,35.34,-22.92
5.4754,-13.225,-1.8251,-0.42333,-1.5779,0.54795,-10.56,35.4,-21.3
4.3449,-9.2482,-1.3484,-0.57421,-2.3757,0.38607,-11.04,35.4,-19.68
1.2258,-6.279,-0.58567,-0.61484,-1.6163,-0.35277,-12.24,35.4,-16.02
1.6072,-6.1155,-0.64016,-0.67317,-0.2361,-1.0486,-13.02,35.22,-14.16
1.9477,-6.5378,-0.43585,-0.66157,0.19151,-1.3537,-13.68,35.46,-12.12
2.3018,-10.351,0.16344,-0.64294,1.088,-1.9224,-14.88,35.7,-7.98
2.5061,-12.667,0.70826,-0.82711,1.4056,-1.8546,-15.36,35.76,-5.94
2.6696,-14.261,1.58,-1.1952,1.6564,-1.5186,-15.72,35.76,-3.9
2.6696,-13.579,2.9011,-1.8121,1.7156,-1.0635,-16.44,36.18,-0.18
2.5334,-11.346,3.5822,-1.963,1.7239,-0.97922,-16.68,36.42,1.68
2.438,-9.4798,3.7184,-1.9878,1.8983,-0.93707,-16.92,36.54,3.48
2.4789,-8.2948,3.514,-1.5049,1.9942,-1.0525,-16.92,36.72,5.22
2.8058,-6.674,2.152,-0.71899,1.8625,-1.1799,-17.1,36.96,8.34
2.8739,-6.851,1.7298,-0.0088575,1.3821,-1.2156,-17.28,37.2,9.6
2.6423,-7.0553,0.92618,0.53512,0.39492,-1.0931,-17.52,37.26,10.56
1.6072,-7.1234,0.27241,0.5733,0.12645,-0.99327,-18.12,37.56,12.18
0.96704,-7.0553,0.27241,0.48961,-0.18906,-0.74831,-18.54,37.8,12.66
0.58567,-6.8783,-0.29965,0.17562,-0.15119,-0.31185,-18.96,37.86,13.08
0.51757,-6.456,-0.65378,-0.029016,0.073609,-0.054978,-19.8,37.98,13.5
0.61292,-6.1973,-0.76274,-0.24923,0.32895,0.13744,-20.28,38.1,13.62
1.185,-6.8238,-1.076,-0.78007,0.87965,0.23457,-21.06,38.16,13.68
1.3757,-6.9736,-1.4438,-1.4697,1.1817,0.11179,-21.24,38.1,13.8
1.4438,-7.0281,-1.6481,-1.9462,1.5046,0.18784,-21.42,38.1,13.8
1.4438,-6.6331,-0.89894,-1.9529,1.8992,0.28711,-21.84,38.04,13.8
1.3893,-6.1155,-0.027241,-1.7776,2.5669,0.49663,-22.32,37.98,14.34
1.4438,-6.4833,-0.17706,-1.7171,3.456,0.68753,-22.44,37.86,14.58
3.9227,-5.884,0.28603,-1.6386,4.0021,0.93432,-22.56,37.5,15.48
4.2087,-5.094,0.27241,-1.277,2.5965,1.4517,-22.62,37.44,15.9
4.1814,-4.5764,0.16344,-1.0635,1.8237,1.5818,-22.44,37.08,16.5
4.1542,-4.8488,0.24517,-0.98349,1.4316,1.5525,-22.44,36.9,17.04
3.8001,-7.8998,1.1169,-0.86834,1.0162,1.6897,-22.38,36.48,18.18
4.0861,-14.029,2.2474,-0.75533,0.44471,2.0229,-22.38,36.36,18.84
5.2847,-18.633,2.7241,-0.56749,-0.27825,2.5467,-22.32,36.24,19.38
8.8668,-19.518,2.2474,-0.094379,-0.72265,3.5803,-21.9,36.42,20.52
9.9837,-18.17,0.98067,0.65118,-0.88209,3.8885,-21.48,36.6,21.18
10.61,-14.424,-0.38137,2.065,-1.4368,3.4215,-20.88,37.02,21.6
9.4934,-9.4798,-3.1735,3.7877,-2.4254,2.3686,-19.14,37.74,21.84
7.7091,-11.223,-3.1054,4.5687,-3.467,1.0431,-17.94,38.4,21.78
5.7069,-11.959,-3.1191,3.8637,-3.6857,0.032681,-16.74,39.06,21.36
3.1054,-9.1937,-3.051,1.3964,-2.5333,-0.46517,-14.1,40.5,20.22
2.833,-7.6002,-3.1599,0.66951,-2.1704,-0.57941,-12.9,41.22,19.44
2.6696,-6.8374,-3.514,-0.1967,-1.6527,-0.84391,-11.7,42.0,18.78
2.5334,-5.8976,-3.6639,-0.59437,-1.233,-1.1814,-10.32,42.78,18.18
2.1656,-4.808,-3.8818,-0.45998,-0.96944,-1.2022,-7.62,43.98,17.16
2.261,-4.9169,-3.6911,-0.22113,-0.85368,-0.90836,-6.24,44.64,16.5
2.4108,-5.0668,-3.514,0.073915,-1.1542,-0.35644,-5.04,45.42,15.9
2.6151,-5.4754,-2.6696,0.21625,-1.5974,0.17379,-3.12,46.26,14.7
2.8467,-5.6797,-2.4789,0.2248,-2.3253,0.41081,-2.16,46.56,14.1
2.6696,-6.0883,-2.1384,0.15882,-3.1166,0.56016,-1.38,46.92,13.68
2.0839,-6.96,-1.3757,0.13897,-4.018,0.67562,-0.72,47.16,13.08
0.19068,-8.4174,-1.2667,0.2419,-4.4007,0.93096,0.66,47.22,12.9
-0.85808,-12.749,-1.6481,-0.080329,-3.1679,1.0739,2.52,46.98,13.14
0.12258,-18.415,-1.58,-1.0311,-0.20128,0.6579,3.6,46.86,13.5
1.4574,-19.395,-0.53119,-1.449,0.77641,0.45754,4.68,46.62,13.68
2.3155,-19.504,0.8036,-3.1866,3.427,-0.30543,5.76,46.26,13.98
4.7535,-19.532,6.0611,-4.3772,4.8527,-0.69089,7.86,45.78,15.06
5.3528,-19.286,7.5729,-5.0855,5.8722,-1.2743,8.82,45.24,15.9
5.2847,-11.455,5.9521,-4.6126,6.3206,-2.1921,10.14,43.5,18.24
5.38,-9.4661,4.6037,-2.9361,5.9339,-2.9774,10.26,42.54,19.38
5.7342,-9.6704,3.7865,-1.0003,4.6945,-3.4404,10.2,41.64,20.76
5.6797,-9.9565,2.6015,0.73548,2.0595,-3.2941,9.84,40.74,21.78
4.7126,-8.3901,1.7025,0.98135,0.31154,-2.8851,8.58,38.94,23.88
2.9284,-6.8919,1.6481,0.78099,-1.0372,-2.5116,7.74,38.04,24.78
0.96704,-5.6388,1.3484,0.47312,-1.7431,-2.2529,5.34,36.48,26.34
-0.068102,-4.7535,1.1577,0.13683,-1.8198,-1.9884,3.96,35.76,26.82
-0.55843,-4.0589,0.88532,0.0051924,-1.4071,-1.7972,2.52,35.1,27.36
-0.8717,-3.6366,0.76274,-0.05681,-0.77274,-1.5278,1.02,34.56,27.6
-0.96704,-3.514,0.34051,-0.11332,-0.075136,-1.2034,-2.1,33.54,27.42
-0.68102,-3.8273,0.040861,-0.22938,0.49083,-0.88423,-3.72,33.18,27.18
-0.24517,-4.2223,-0.027241,-0.62492,0.92882,-0.405,-5.22,33.0,26.58
0.19068,-4.6718,0.027241,-0.95203,1.0495,-0.059865,-7.56,33.18,25.38
0.54481,-4.5901,0.21793,-1.2144,1.146,0.28833,-8.52,33.3,24.42
0.92618,-4.413,0.43585,-1.2987,1.1918,0.45021,-9.18,33.3,24.0
1.2531,-4.7944,0.84446,-1.3662,1.3662,0.8656,-10.62,33.42,23.76
1.6617,-6.2245,1.362,-1.2807,1.5571,1.1842,-6.54,36.54,25.38
2.3972,-7.8317,1.6889,-1.0782,1.744,1.9954,-7.14,36.48,25.68
4.7126,-13.443,1.3757,-0.98533,1.7107,2.3601,-8.58,36.24,26.76
7.9951,-18.687,0.14982,-1.6237,2.7257,3.28,-9.24,36.12,27.48
12.694,-19.314,1.4029,-1.8014,2.9037,2.4059,-9.9,36.06,28.2
10.161,-18.456,-4.7807,0.73701,1.3164,5.8222,-10.86,36.12,29.76
10.188,-16.835,-6.1564,2.4273,5.5302,6.5918,-11.22,36.12,30.42
16.562,-15.868,-5.6661,3.5219,5.8784,6.2837,-11.58,36.36,30.96
19.423,-12.354,-1.4301,4.6447,-4.2965,4.8744,-11.7,37.44,30.96
15.255,-11.278,-0.50395,3.2779,-8.6434,3.6007,-11.16,38.16,31.08
9.9565,-10.733,0.24517,1.2382,-9.3013,2.7403,-10.38,39.06,30.72
4.8216,-7.9407,0.89894,-0.45968,-8.7076,2.5565,-7.62,40.86,29.4
2.5742,-5.7069,-0.57205,-1.255,-7.2931,1.8818,-5.76,41.76,28.62
1.2258,-3.8682,-1.4165,-1.1512,-5.9846,0.76694,-3.78,42.72,27.78
-1.9477,-2.5061,-2.8875,-0.69089,-2.2245,-0.52229,0.96,44.22,25.38
-1.1169,-3.0918,-2.7377,-0.36927,0.58551,-1.1478,3.48,45.0,24.0
0.19068,-3.4459,-2.7786,-0.21594,1.628,-1.2914,5.76,45.78,22.74
3.7728,-4.4402,-2.6015,0.18906,2.9386,-1.2471,10.14,47.4,20.4
5.1213,-5.4481,-2.6015,0.22327,2.6111,-0.90164,12.24,48.12,19.44
6.3471,-6.3471,-2.4789,0.029016,0.66432,-0.3204,16.32,49.08,17.94
7.1507,-7.6138,-1.8932,-0.40225,-1.0037,-0.051924,18.12,49.26,17.52
6.565,-8.1586,-1.3757,-0.54703,-1.7196,0.036957,19.56,49.38,17.04
5.8159,-8.9622,-0.88532,-0.78771,-2.7074,0.12278,20.7,49.38,16.68
5.0531,-9.9565,-0.31327,-1.0073,-3.0378,0.013134,21.72,49.2,16.32
2.8875,-13.484,0.54481,-1.1167,-2.5785,-0.19364,22.62,49.26,15.3
2.547,-16.671,0.64016,-1.3262,-1.2828,-0.51038,22.92,49.26,14.7
4.0589,-19.477,1.0351,-1.4029,0.13256,-0.87568,22.74,49.62,13.86
4.9033,-19.532,1.6208,-1.6729,1.2773,-1.0146,22.56,49.74,13.5
5.1621,-19.532,2.0294,-2.014,1.8167,-1.0779,22.38,49.86,13.14
4.985,-18.66,2.7241,-2.1994,2.2715,-1.2394,21.96,49.86,12.72
4.0589,-13.825,2.7649,-2.0916,2.5879,-1.6622,20.88,50.1,11.88
3.3642,-11.468,2.2201,-1.6304,2.7361,-2.1771,20.04,50.28,11.46
3.2553,-10.065,1.3484,-1.0012,2.653,-2.5183,18.06,50.4,11.04
3.7728,-8.54,0.85808,-0.32009,1.649,-2.4926,16.68,50.4,10.92
3.3778,-7.1779,0.55843,-0.16707,0.48045,-2.1591,15.18,50.4,10.92
2.7377,-6.279,0.57205,-0.14416,-0.073304,-1.9731,13.32,50.58,10.92
-0.027241,-4.4539,0.36775,-0.12431,-1.0547,-1.4957,9.48,50.7,11.4
-0.49033,-4.2359,0.46309,-0.15699,-1.062,-1.2584,7.44,50.82,11.7
-1.0215,-3.909,0.38137,-0.27214,-0.36438,-1.0391,5.22,50.94,12.0
-1.0488,-3.8954,0.31327,-0.3204,-0.039706,-0.97861,1.2,50.94,12.84
-0.89894,-4.2768,0.14982,-0.50244,0.88026,-0.73884,-0.84,50.88,13.2
-0.72188,-4.6718,0.23155,-0.59468,1.1316,-0.6185,-2.58,50.94,13.38
-0.25879,-5.0668,0.44947,-0.94165,1.6209,-0.14813,-6.12,50.76,13.8
-0.068102,-5.0259,0.8036,-1.1555,1.8268,0.24435,-7.56,50.52,13.98
0.46309,-4.7671,1.1305,-1.2593,1.9991,0.65149,-9.9,50.1,14.28
1.362,-4.4675,1.3893,-1.1781,2.1615,1.2544,-10.8,49.92,14.28
2.2746,-4.3858,1.3757,-0.956,2.0882,1.6102,-11.58,49.86,14.4
2.833,-4.4402,1.2939,-0.61178,1.7831,1.9511,-12.0,49.68,14.64
5.0259,-6.565,0.6674,-0.16402,1.1701,2.1951,-12.3,49.38,14.94
6.7285,-10.134,-0.44947,-0.066584,0.45845,2.3518,-12.18,49.26,15.24
7.7636,-11.795,-1.0624,-0.11881,-0.65699,2.1231,-11.82,49.2,15.6
5.8567,-18.592,-2.9148,0.47983,-1.5696,2.9092,-10.44,49.26,16.02
7.5865,-19.409,-1.2258,0.90072,-0.73273,3.4279,-9.3,49.32,16.26
7.927,-19.518,-0.99429,1.3744,-0.93615,3.744,-7.92,49.44,16.74
10.134,-19.109,-1.8524,2.9804,-1.7849,4.4783,-4.2,49.8,17.1
9.6977,-16.494,-3.7047,3.6365,-2.2825,4.4908,-1.98,50.04,17.04
8.7443,-15.078,-4.2495,3.5537,-2.4157,3.8772,0.24,50.22,16.92
5.7069,-12.572,-3.6775,2.3036,-2.193,2.189,5.52,50.28,15.9
4.6854,-11.101,-3.6366,1.0278,-1.5843,1.2251,8.28,50.4,15.06
4.2904,-10.161,-3.5004,-0.09163,-0.77305,0.44929,11.1,50.34,14.16
4.3721,-7.5457,-3.8001,-0.77244,-0.060781,-0.15699,15.72,50.16,12.36
4.2087,-5.8159,-3.5413,-1.1099,0.49908,-0.64263,18.0,50.04,11.28
4.2904,-4.2223,-2.9284,-1.1432,0.92638,-0.90836,19.98,49.86,10.32
4.4402,-3.1872,-2.9284,-1.0886,1.0476,-0.97922,21.84,49.68,9.3
4.4402,-3.1872,-2.9284,-0.99205,1.087,-1.022,21.84,49.68,9.3
5.6388,-2.8467,-2.2201,-0.55283,0.27642,-0.9838,24.42,49.56,7.62
5.6116,-3.228,-2.0294,-0.31765,-1.0348,-0.76816,25.38,49.5,6.6
5.0259,-4.808,-1.5391,-0.25962,-1.8405,-0.56169,26.28,49.5,4.92
4.699,-5.8159,-1.362,-0.25534,-2.3744,-0.31979,26.34,49.38,4.14
4.522,-7.927,-1.0624,-0.28802,-2.6261,-0.1069,25.98,49.56,3.06
4.7263,-8.717,-0.92618,-0.34544,-2.6454,0.043677,25.56,49.74,2.7
4.7671,-9.2755,-0.84446,-0.45265,-2.4905,0.039706,24.9,49.74,2.46
4.7535,-12.517,-0.25879,-0.71807,-2.0229,-0.28314,23.1,50.28,1.86
4.7399,-15.377,-0.068102,-0.9954,-1.5217,-0.66371,22.14,50.58,1.5
4.6037,-18.592,0.28603,-1.3155,-0.94379,-1.1008,21.18,50.88,1.26
4.6718,-19.518,1.6072,-1.7361,-0.21533,-1.7599,18.84,51.78,0.72
4.4402,-19.532,2.5198,-2.2571,0.60903,-1.9853,17.52,52.08,0.54
4.018,-19.532,2.8603,-2.6933,1.4988,-2.4102,15.9,52.38,0.36
3.4187,-15.691,2.4517,-2.4917,2.4603,-2.9083,12.3,53.16,0.9
3.1463,-12.286,1.8387,-1.8427,2.5898,-3.1734,10.38,53.4,1.32
3.1599,-11.346,1.6753,-1.1723,2.2712,-3.2819,8.28,53.7,1.98
2.7104,-9.8066,0.99429,-0.58338,0.90255,-3.022,3.78,54.06,3.42
2.1248,-8.322,0.76274,-0.3937,-0.17257,-2.5592,1.32,54.36,4.26
1.3484,-6.8238,0.62654,-0.21716,-0.956,-1.9997,-1.14,54.48,5.22
-0.31327,-4.8625,0.31327,-0.066279,-1.2828,-1.5385,-5.64,54.42,7.32
-0.70826,-4.2904,0.1362,0.027794,-1.1649,-1.2492,-7.62,54.36,8.46
-0.83084,-3.9363,0.1362,0.051007,-0.77336,-1.1234,-9.66,54.18,9.6
-0.54481,-3.9771,-0.44947,-0.015272,-0.29199,-1.0653,-13.38,53.7,11.58
-0.31327,-4.2632,-0.61292,-0.17715,0.071166,-0.95936,-15.06,53.46,12.42
-0.25879,-4.413,-0.5993,-0.5681,0.40745,-0.62308,-16.38,53.04,13.32
-0.32689,-4.4811,-0.44947,-0.84238,0.5733,-0.28955,-17.7,52.44,13.92
-0.25879,-4.4402,-0.040861,-1.0351,0.77549,0.083383,-19.86,51.36,14.76
-0.14982,-4.3858,0.19068,-1.1118,1.0195,0.49358,-20.7,50.82,15.06
0.095342,-4.4402,0.35413,-1.1011,1.2764,0.956,-21.36,50.28,15.3
1.3757,-4.7399,0.61292,-0.90133,1.5,1.5873,-22.68,49.38,15.72
1.7843,-5.203,0.8036,-0.8042,1.5207,1.7895,-23.04,49.02,15.9
2.3427,-6.7693,1.0079,-0.58918,1.504,2.1997,-23.52,48.9,15.96
4.6445,-11.509,1.3212,-0.26145,1.1365,2.9874,-24.06,48.6,15.96
7.5729,-17.448,-0.21793,-0.11423,0.53695,3.573,-24.18,48.6,15.78
12.544,-18.224,-1.0215,-0.40409,0.49999,3.0998,-23.94,48.66,15.72
8.1858,-19.477,-6.3743,0.34147,1.7596,4.8903,-22.56,48.72,15.6
11.128,-16.453,-5.4618,1.0287,3.368,4.8011,-21.42,48.84,15.42
14.737,-15.813,-4.6037,2.7657,2.9844,5.335,-19.92,49.02,15.12
15.432,-12.422,-2.2474,4.397,-2.4279,3.7981,-16.14,49.5,14.16
10.964,-13.253,-2.1112,4.7177,-5.1639,3.0763,-14.04,49.8,13.32
6.3471,-13.757,-2.4789,3.2755,-4.6099,2.7028,-11.76,49.98,12.36
2.9011,-8.9894,-2.0839,0.36438,-2.6573,1.1429,-6.54,50.34,9.84
1.7843,-7.5048,-2.438,-0.23457,-1.9322,0.66309,-4.02,50.7,8.58
1.4029,-5.8976,-2.6151,-0.748,-0.53512,-0.07422,-1.44,50.88,7.5
2.3427,-3.6366,-2.9148,-0.42364,1.0437,-0.97066,3.18,51.24,5.58
3.4732,-3.4459,-3.2008,0.037263,1.6304,-0.99846,5.34,51.3,4.5
4.5492,-3.732,-3.623,0.46792,1.5999,-0.61514,7.2,51.3,3.54
6.0883,-4.1814,-3.909,0.87384,0.34147,0.094379,10.14,51.42,1.68
6.4152,-4.5901,-3.8818,0.86346,-0.29993,0.26817,11.16,51.48,0.66
6.1292,-5.2711,-3.6094,0.48869,-1.8805,0.53603,12.06,51.42,-0.24
5.2847,-6.9464,-2.8739,0.096822,-2.372,0.47006,13.14,51.24,-1.8
4.9987,-7.5593,-2.4517,-0.25687,-2.5027,0.32712,13.44,51.18,-2.28
4.6445,-8.2539,-2.3427,-0.56108,-2.0134,0.0067195,13.68,50.88,-2.88
4.3721,-9.6296,-1.7298,-0.65088,-1.42,-0.29199,13.62,50.76,-3.0
4.127,-10.924,-1.1986,-0.70616,-1.0898,-0.46395,13.56,50.4,-3.18
4.2223,-12.98,-0.88532,-0.83872,-0.46395,-0.80512,13.56,50.04,-3.54
4.5492,-18.442,-0.01362,-1.1551,0.22816,-1.1713,13.26,49.62,-4.38
5.1485,-19.463,0.78998,-1.5128,0.54734,-1.2587,12.96,49.32,-4.5
5.4073,-19.532,1.6208,-2.0608,0.79748,-1.2905,12.6,49.08,-4.8
4.8625,-18.319,2.9965,-2.7238,1.2801,-1.31,11.52,48.78,-5.34
4.413,-15.091,3.0782,-2.722,1.6484,-1.6109,10.68,48.78,-5.28
4.0589,-13.116,2.9284,-2.5421,1.7883,-1.8555,9.48,49.02,-5.22
3.2825,-10.992,2.2201,-1.5061,1.9209,-2.6255,6.66,49.38,-4.8
3.2961,-10.828,1.8387,-0.82833,1.6814,-2.938,5.1,49.74,-4.44
3.2553,-10.065,1.2803,-0.44135,1.1423,-2.9703,3.24,50.1,-3.96
2.0567,-6.7966,0.76274,-0.31887,0.15638,-2.5779,-0.78,50.88,-2.7
1.0215,-5.7614,0.6674,-0.34178,-0.27733,-2.3094,-3.06,51.24,-2.16
0.17706,-5.4345,0.6674,-0.36499,-0.40745,-2.2034,-5.34,51.6,-1.38
-0.53119,-5.1213,0.54481,-0.50916,-0.43249,-1.9331,-7.62,51.72,-0.6
-1.0215,-3.9908,0.43585,-0.61758,-0.24648,-1.7697,-11.94,52.14,0.6
-1.1986,-4.127,0.14982,-0.71502,0.009163,-1.5357,-14.16,52.2,1.2
-1.0624,-4.9033,-0.054481,-0.92821,0.41875,-1.055,-18.06,52.08,2.7
-0.85808,-5.1349,-0.1362,-1.1518,0.66706,-0.69333,-19.86,51.72,3.12
-0.83084,-4.9987,0.081722,-1.394,0.94715,-0.30177,-21.6,51.24,3.72
-0.34051,-4.6854,0.21793,-1.4722,1.0681,-0.13103,-22.98,50.82,4.14
0.51757,-3.9908,0.1362,-1.4459,1.222,0.31001,-25.5,49.44,4.86
0.92618,-4.2223,-0.34051,-1.1399,1.1845,0.57116,-26.64,48.72,4.92
1.1713,-5.2166,-0.85808,-0.66706,1.0479,0.98166,-27.42,48.06,5.22
2.3018,-9.6296,-1.3757,0.060476,0.54642,2.1457,-28.56,46.8,5.4
3.9363,-13.702,-1.3076,0.24343,0.090408,3.2858,-28.8,46.26,5.22
6.8102,-18.061,-1.1305,0.62919,-0.17226,3.9312,-28.62,45.84,5.1
9.0439,-19.355,-1.6753,1.511,-0.76969,5.5268,-28.08,45.42,4.98
10.147,-16.031,-4.304,2.4102,-1.1145,5.704,-25.92,45.42,4.56
9.6977,-15.677,-4.5356,3.284,-1.4404,5.3222,-24.42,45.42,4.08
9.1393,-15.8,-4.413,3.361,-1.4954,4.3814,-22.62,45.36,3.48
8.4038,-14.833,-3.9908,3.0024,-1.478,4.0082,-17.94,45.42,1.92
7.7908,-12.735,-3.7728,1.5281,-1.2456,2.8836,-15.54,45.42,1.08
7.2869,-11.21,-3.5685,0.6072,-0.80512,2.0265,-12.78,45.3,0.06
5.6524,-5.7205,-2.6696,-0.0012217,-0.23274,1.1338,-7.44,45.3,-1.74
5.2847,-4.4675,-2.6015,-0.208,0.38943,0.36713,-4.74,45.12,-2.76
5.3528,-3.9771,-2.6832,-0.011606,1.0825,-0.39034,-2.16,45.18,-3.72
5.884,-3.732,-2.656,0.093768,1.1582,-0.49572,3.12,45.24,-5.16
6.3743,-3.8273,-2.4653,0.31857,0.76114,-0.53237,5.22,45.18,-5.94
6.5786,-4.3313,-2.4653,0.33995,0.068417,-0.4664,7.14,45.06,-6.54
6.5922,-5.4073,-2.3972,0.28222,-0.75839,-0.4047,9.42,44.22,-7.86
6.2109,-6.2517,-2.2065,0.1573,-1.4447,-0.36927,10.2,43.74,-8.28
5.4754,-7.3822,-1.58,0.023213,-1.8503,-0.41478,10.68,42.9,-9.0
5.0531,-8.5808,-1.1441,-0.22266,-1.9419,-0.69364,10.5,42.48,-9.24
4.6173,-10.215,-0.77636,-0.3149,-1.8369,-0.82467,10.2,42.06,-9.18
4.3449,-15.173,-0.19068,-0.5962,-1.3021,-1.1729,8.82,41.4,-8.58
4.8216,-19.164,-0.21793,-0.76602,-0.90897,-1.3256,7.92,41.16,-8.1
5.2302,-19.491,-0.040861,-1.0797,-0.52809,-1.42,7.08,40.98,-7.62
4.7671,-19.532,1.8251,-2.0107,0.27245,-1.605,4.98,40.44,-6.0
4.1542,-19.45,2.8739,-2.4377,1.0779,-1.9416,3.78,40.08,-4.98
3.9499,-17.597,2.9148,-2.3387,1.6939,-2.4932,2.7,39.72,-3.72
3.7184,-13.648,1.6753,-1.6884,1.8851,-3.0253,0.72,38.88,-0.9
3.7184,-12.422,1.0896,-0.88392,1.7452,-3.3457,-0.42,38.52,0.54
3.6503,-11.387,0.70826,-0.32651,1.4068,-3.3796,-1.38,38.22,1.98
3.1191,-9.0031,0.1362,-0.10201,0.56658,-3.1328,-3.36,37.74,5.28
2.438,-7.6683,0.31327,-0.29383,-0.037263,-2.9688,-4.32,37.5,6.72
1.4165,-6.5105,0.39499,-0.4102,-0.26817,-2.9157,-5.1,37.38,7.86
0.23155,-5.0123,0.24517,-0.64477,-0.4667,-2.7263,-6.6,37.14,9.84
-0.27241,-4.3721,0.10896,-0.65821,-0.25259,-2.5571,-7.08,37.2,10.62
-0.57205,-4.0316,-0.14982,-0.62492,0.067195,-2.3167,-7.74,37.32,11.52
-0.8036,-3.4323,-0.49033,-0.60781,0.42089,-1.7956,-8.94,37.56,12.54
-0.78998,-3.3506,-0.68102,-0.68845,0.83841,-1.3989,-9.36,37.74,12.72
-0.77636,-3.2416,-0.72188,-0.76144,0.92393,-1.2037,-9.84,37.98,12.6
-0.28603,-3.3097,-0.84446,-1.0091,1.0556,-0.63102,-10.44,38.46,12.66
0.42223,-3.4459,-0.68102,-1.1622,0.98807,-0.26145,-10.98,38.64,12.54
0.76274,-3.6094,-0.64016,-1.2291,0.82528,0.12401,-11.16,39.06,12.66
1.8796,-6.0338,-0.24517,-1.2074,0.61331,0.894,-11.64,39.9,13.02
2.1929,-7.2188,-0.068102,-1.0641,0.33598,1.638,-11.7,40.2,13.38
3.0918,-9.4117,0.46309,-0.99418,0.2474,2.0717,-11.58,40.8,14.04
4.9306,-13.525,1.7706,-0.63438,0.17837,3.467,-10.98,41.64,16.2
5.5026,-14.737,1.8251,-0.07025,0.46365,4.3265,-10.38,42.24,17.7
6.4152,-16.344,-0.88532,0.49633,1.1423,5.0363,-9.78,42.6,19.26
15.296,-15.554,-2.1248,0.45876,2.8329,3.7232,-8.46,43.56,22.86
12.136,-16.521,-6.279,1.15,1.2947,3.8885,-7.74,43.98,24.54
10.665,-11.605,-3.5958,1.8757,1.8134,4.9899,-6.54,45.12,28.32
12.272,-10.733,-1.2803,2.9853,0.32223,5.0778,-5.7,45.72,29.94
12.64,-10.692,-0.83084,3.463,-1.81,3.8091,-4.86,46.68,31.44
9.5206,-9.0575,-1.0351,3.2012,-2.9511,2.5152,-2.46,48.66,33.54
6.7012,-7.9951,-1.7979,1.872,-2.9401,2.0192,-1.08,49.86,34.44
3.5549,-5.5707,-1.9886,0.31337,-1.7892,0.85704,0.48,51.24,35.04
2.8739,-5.6661,-1.9613,-1.0079,0.29444,-0.48564,3.54,54.06,35.88
2.7649,-5.2438,-2.0975,-1.1466,1.6667,-1.1936,4.86,55.62,36.36
3.732,-4.9169,-2.0703,-0.84758,2.6215,-1.3854,6.0,57.18,36.6
6.3879,-5.8023,-1.7434,-0.44196,2.9175,-1.0293,7.86,60.72,36.72
8.54,-6.9328,-1.2258,-0.13073,2.7434,-0.46059,8.88,62.76,36.72
11.06,-7.8181,-0.92618,0.16371,1.9945,-0.046426,11.22,67.5,36.42
11.414,-10.161,-0.57205,0.4609,0.19578,-0.011301,12.72,69.9,35.94
10.733,-12.667,-0.16344,0.3207,-0.70524,-0.34789,14.64,72.3,35.16
10.229,-14.424,0.21793,-0.12889,-1.2156,-0.8323,16.56,74.22,34.08
8.0088,-19.382,0.054481,-0.84025,-2.0195,-1.0211,19.74,77.4,31.14
6.2245,-19.504,1.7979,-1.0702,-3.8292,-0.88911,21.06,78.36,29.28
5.0668,-19.532,2.1248,-1.7608,-1.3179,-1.3595,22.08,79.14,27.42
5.1621,-18.387,1.5936,-2.4514,-0.63408,-1.514,23.22,79.86,23.28
4.6037,-16.453,1.58,-2.0568,0.44043,-2.5244,23.58,80.04,21.0
4.6037,-15.187,1.4301,-1.7874,0.71441,-2.9731,23.7,79.98,18.66
3.8273,-13.757,0.24517,-1.1561,0.8769,-3.4294,23.28,79.26,13.92
3.3642,-12.054,-0.054481,-0.91111,0.89706,-3.3625,22.74,78.54,11.46
3.3642,-10.637,-0.47671,-0.79015,0.79596,-3.23,21.72,77.52,9.18
2.4108,-9.221,-1.1169,-0.87934,0.22419,-3.1832,18.6,75.0,5.04
1.866,-8.6898,-1.2803,-0.98869,0.062614,-3.1838,16.26,73.56,3.36
1.3893,-8.2131,-1.2803,-1.3286,-0.22083,-3.1756,13.56,72.42,2.04
-0.31327,-7.2324,-1.4574,-1.5653,-0.047953,-3.0348,7.62,70.26,1.08
-0.99429,-6.6059,-1.3757,-1.8302,0.38576,-2.8246,4.44,69.42,1.26
-1.6889,-6.0611,-1.5527,-2.051,0.78588,-2.5708,1.32,68.52,1.74
-2.438,-5.6116,-1.3757,-2.2865,1.2013,-1.9856,-4.68,66.9,3.06
-2.6423,-5.993,-1.0624,-2.4505,1.3851,-1.365,-7.8,66.06,3.72
-2.5334,-6.4969,-0.84446,-2.5418,1.4575,-0.99357,-10.68,65.1,4.44
-2.3291,-7.2052,-0.14982,-2.883,1.6127,0.35369,-15.6,63.36,5.82
-1.866,-7.464,0.64016,-3.1172,1.8036,1.328,-17.76,62.4,6.66
-1.3348,-7.7636,1.3348,-3.3054,2.0867,2.2672,-19.44,61.56,7.5
0.57205,-9.8066,2.3699,-3.357,2.5058,3.6191,-22.2,59.76,9.42
2.1248,-12.408,3.2825,-3.2544,2.6127,4.4935,-23.16,58.86,10.56
3.1735,-15.05,3.909,-3.1087,2.5745,5.3872,-23.94,58.14,11.82
6.9055,-19.45,5.6388,-3.0033,2.4932,6.2653,-24.54,56.94,14.28
9.3436,-19.518,6.1019,-2.7675,2.3173,6.9052,-24.3,56.58,15.48
10.896,-18.537,4.0997,-2.0204,1.8076,7.0903,-22.68,56.22,17.94
12.544,-9.7249,2.3427,0.14997,-0.064141,6.0567,-21.06,56.1,19.32
12.149,-8.5808,1.2803,0.96211,-0.91813,5.4761,-18.96,56.1,20.58
10.61,-9.6977,1.58,2.1936,-2.7202,4.1609,-16.5,56.34,21.6
6.7829,-12.994,2.0431,2.1811,-4.1331,1.9755,-10.2,56.64,23.28
3.1872,-14.111,1.7979,1.1179,-3.2324,1.1585,-6.6,56.94,23.82
1.185,-14.152,1.362,-0.22083,-1.0452,0.63927,-2.94,57.24,24.24
0.34051,-11.019,0.91256,-1.3769,2.7816,0.19242,4.5,57.48,25.38
0.61292,-9.0984,0.96704,-1.3699,4.9981,0.12156,7.98,57.54,26.04
1.3484,-8.0496,1.2531,-1.2511,5.8081,0.14325,11.28,57.48,26.94
3.6503,-6.7148,2.0294,-0.87751,7.0677,0.32712,16.98,57.3,28.98
4.5901,-6.5105,2.152,-0.81092,6.9761,0.45571,19.02,57.12,30.18
5.4345,-6.6195,1.975,-0.91049,5.6789,0.54947,21.42,56.52,32.58
