Ax,Ay,Az,Gx,Gy,Gz,Mx,My,Mz
-0.84446,-2.7922,-2.9284,-0.44807,1.2147,0.54398,47.04,30.36,8.7
-0.20431,-1.7434,-2.261,-0.47037,1.4083,0.50213,46.38,31.2,9.36
0.69464,-1.7979,-1.4438,-0.30085,1.2901,0.42302,46.02,31.62,9.6
3.2144,-6.3607,-1.1577,0.093462,0.759,0.3372,45.18,32.46,10.38
4.2904,-9.4253,-1.0215,0.69761,-0.18173,0.25931,44.82,33.18,10.44
6.7693,-18.21,-2.6423,1.4581,-1.3906,0.43494,44.46,33.72,10.62
8.5127,-19.491,-5.1485,1.2669,-2.6802,0.84849,43.92,34.62,10.68
5.5162,-15.732,-4.0316,0.37202,-2.9951,0.45479,43.8,34.92,10.56
2.8739,-10.392,-2.2065,-0.37599,-2.9706,-0.10476,43.68,35.22,10.38
-1.1032,-8.3357,-1.5527,-0.35064,-2.5317,-1.0705,43.26,35.52,9.78
-2.3155,-10.065,-1.8932,-0.4273,-1.0776,-1.9227,43.02,35.64,9.36
-2.4517,-11.032,-1.6344,-0.88453,-0.015272,-1.8922,42.66,35.76,9.06
-0.96704,-10.093,-1.362,-1.219,0.7364,-1.5882,41.52,36.18,7.98
-0.35413,-8.7987,-2.8058,-1.3885,0.96028,-1.1005,41.04,36.18,7.44
2.3836,-7.5729,0.5993,-0.75778,-1.2697,0.12523,40.56,36.36,7.08
-4.3858,-3.8409,-1.6208,-0.20708,-1.2165,0.40225,39.66,36.78,5.52
-4.4811,-2.547,-1.4438,-0.40959,0.27825,0.035736,39.18,36.72,4.92
-1.9341,-0.96704,-1.2258,-0.41692,0.36957,-0.20097,38.76,36.66,4.26
-1.2122,1.5119,-1.0488,-0.32467,-0.25992,-0.43768,38.16,36.6,3.48
-2.0839,0.8717,-0.17706,-0.20678,-0.76908,-0.50274,37.74,36.66,3.24
-2.261,-2.0158,0.40861,-0.031154,-1.0705,-0.34453,37.38,36.84,2.94
-1.0624,-9.5342,1.3212,0.058032,-0.93982,-0.0042761,36.84,37.8,2.46
0.54481,-17.025,1.2803,-0.3879,0.43952,0.94562,36.9,38.22,2.28
2.9829,-19.218,2.8603,-0.82253,1.2236,1.3332,37.14,38.82,2.22
5.9793,-19.518,5.2166,-1.6344,3.4062,1.8867,38.4,39.78,2.28
6.0338,-17.257,4.4811,-1.6408,3.8094,1.5699,39.24,40.08,2.7
4.5083,-9.4798,2.7377,-1.0324,3.6701,0.71502,41.16,40.8,4.2
3.9908,-8.0905,1.4846,-0.010385,3.1802,-0.11973,42.0,41.04,5.52
4.4811,-9.5887,-2.0294,1.2651,2.029,-0.81184,43.86,41.82,8.04
5.6661,-11.114,-3.7047,1.4548,1.493,-0.80604,44.52,42.42,9.18
5.5162,-10.351,-3.4187,1.3552,-0.0061087,-0.38637,45.3,43.08,10.44
3.2961,-9.4389,-2.8875,0.86682,-2.0577,0.45051,46.08,43.62,11.46
-0.57205,-7.7364,-2.9011,0.56963,-2.1206,0.86437,47.46,44.46,13.44
-1.4574,-6.4016,-3.9635,0.26267,-1.1719,1.033,48.18,44.64,14.4
-1.3212,-3.5004,-4.4947,-0.051313,1.0431,1.0452,49.38,45.0,15.72
-0.47671,-2.8058,-3.6366,-0.23366,1.9929,0.87659,49.86,45.18,16.5
0.49033,-2.5742,-2.8739,-0.35064,2.2575,0.71319,50.04,45.42,17.04
2.3155,-3.4459,-1.866,-0.31124,1.9597,0.55008,50.34,45.84,18.0
3.7592,-5.8295,-1.9341,-0.090408,1.2031,0.3989,50.46,46.14,18.06
4.9033,-9.4389,-1.4574,0.36316,0.10079,0.38118,50.7,46.44,18.06
8.7034,-19.191,-4.6445,1.0098,-1.824,0.86926,51.06,47.22,17.88
7.8317,-19.491,-3.7865,0.57391,-2.1722,0.77427,51.42,47.46,17.52
5.8159,-19.137,-3.1191,-0.33048,-1.7721,0.16646,51.78,47.52,17.04
0.57205,-8.3901,-0.40861,-0.821,-0.93157,-0.55253,52.86,47.7,16.32
-1.0488,-6.0611,-0.40861,-0.57024,-0.036346,-1.5061,53.22,47.7,16.02
-1.0896,-6.9464,-1.2531,-0.14478,0.55405,-2.0339,53.52,47.88,15.72
0.081722,-10.379,-2.2746,-0.25259,0.88148,-1.981,53.4,48.36,15.42
0.40861,-10.474,-2.4517,-0.51801,0.6802,-1.3934,53.28,48.6,15.24
0.76274,-9.902,-2.6696,-0.37415,0.16585,-0.6072,52.92,48.78,14.82
0.027241,-7.2869,-2.6287,-0.12828,-0.20586,-0.0562,52.02,49.38,13.5
-0.57205,-5.2983,-2.4653,0.000611,-0.21961,0.20189,51.48,49.56,12.66
-0.89894,-3.8001,-2.4789,0.04948,-0.11118,0.23915,50.82,49.8,11.64
-1.1169,-1.3076,-2.3972,0.074831,-0.3543,0.14447,49.74,49.74,9.78
-1.3076,0.040861,-2.5334,0.27519,-0.9951,-0.047647,49.2,49.62,9.0
-1.0624,0.8036,-2.2337,0.36591,-1.4371,-0.23152,48.66,49.74,8.28
-1.1713,-2.7104,-0.6674,0.54123,-2.0385,-0.30696,47.04,50.04,7.14
-1.5527,-6.4424,-0.6674,0.51129,-2.164,-0.1237,46.14,50.52,6.42
-1.0896,-11.754,0.61292,0.27122,-1.5595,0.28405,45.54,50.82,5.76
3.9363,-19.368,3.4187,-0.2248,0.2138,1.2889,44.64,51.48,4.08
5.5162,-19.491,4.4675,-1.3668,1.5,1.5608,44.4,51.9,3.24
6.0883,-19.532,4.1133,-1.3286,2.1139,1.4087,44.46,52.44,2.76
4.699,-11.468,3.2825,-0.85246,2.3812,0.7816,44.82,53.04,2.04
3.4459,-8.9349,2.1656,-0.093462,2.3115,-0.044593,45.36,53.34,2.1
3.4187,-10.079,0.34051,0.68325,2.0171,-0.69608,45.78,53.82,2.28
3.8001,-11.128,-2.2474,0.98594,1.639,-1.0125,46.26,54.72,2.7
3.4596,-9.8611,-2.9011,0.53481,0.36927,-0.55589,46.2,55.32,2.88
2.1793,-8.3629,-2.4517,0.18234,-0.47067,0.030849,46.08,55.74,3.0
-1.1577,-5.7342,-2.6696,-0.084299,-0.51465,0.50824,46.26,56.52,3.42
-1.8932,-4.413,-3.1599,-0.33659,0.23427,0.81367,46.44,56.82,3.72
-1.8932,-2.9965,-3.2553,-0.52809,1.2956,0.9166,46.38,57.0,4.14
-0.14982,-1.7434,-1.7706,-0.61942,2.0617,0.8601,46.68,57.36,5.52
0.5993,-2.0567,-1.185,-0.48381,2.1029,0.74098,46.68,57.42,6.36
1.7979,-3.3642,-0.50395,-0.23305,1.5598,0.62797,46.62,57.42,7.02
3.8001,-8.5263,1.0215,-0.065057,1.1924,0.61148,46.2,58.2,8.22
5.9249,-17.461,0.62654,0.76083,-0.12523,0.72174,45.66,58.5,8.52
7.1643,-19.273,-0.31327,0.68997,-0.63041,1.0128,45.18,58.74,8.58
6.4969,-18.333,-2.547,1.0993,-0.22358,0.7929,44.7,59.28,8.34
5.4073,-12.258,-3.8001,1.0806,-0.7254,-0.061697,44.7,59.4,8.22
4.1951,-8.4719,-3.9499,0.96761,-1.1051,-0.50305,44.58,59.46,8.04
2.0975,-9.1665,-3.4868,1.1832,-2.2523,-1.6484,44.04,59.64,7.08
-0.92618,-10.515,-2.6968,0.6463,-2.3705,-1.8818,43.62,59.4,6.48
-3.2825,-9.4389,-2.5061,-0.1405,-1.8424,-1.635,41.82,59.34,4.68
-3.8001,-8.5808,-3.2008,-0.65515,-1.0165,-1.2361,40.62,59.16,3.54
-3.8001,-7.6546,-3.8682,-1.036,0.18234,-0.8436,39.42,59.1,2.46
-2.9829,-5.4209,-3.5685,-1.3268,2.2061,-0.26053,36.78,58.62,-0.12
-2.0839,-3.9908,-2.6287,-1.3399,2.6041,-0.092546,35.34,58.26,-1.26
-1.2122,-2.5334,-1.6481,-1.3347,2.5247,0.037568,34.02,57.9,-2.1
-0.35413,0.095342,-0.78998,-1.1799,1.7816,-0.029016,31.08,57.06,-3.6
-0.040861,1.0351,-0.65378,-0.83475,0.87476,-0.18387,29.7,56.76,-3.96
0.43585,-2.2201,-0.054481,-0.47006,0.03207,-0.25901,26.82,55.98,-4.56
0.64016,-4.1542,0.32689,-0.1628,-0.62125,-0.1741,25.38,55.68,-4.32
1.6208,-9.7794,1.6072,-0.07025,-0.63561,-0.044899,23.94,55.5,-4.14
3.2553,-18.714,1.6753,-0.22541,-0.064752,0.72754,21.48,55.14,-3.18
4.9033,-19.477,2.8194,-0.63652,1.036,1.1949,20.46,54.9,-2.52
5.8567,-19.532,2.2337,-0.56658,1.8442,1.5785,19.62,54.84,-1.68
6.1428,-16.508,0.31327,-0.21594,2.0482,1.383,18.06,54.6,-0.06
5.7478,-13.634,-0.14982,-0.094684,1.9465,0.80329,17.52,54.54,0.96
4.6854,-10.896,-0.21793,-0.12828,1.8323,0.089492,16.98,54.54,1.68
2.4108,-7.0553,-0.54481,-0.057421,1.7593,-0.59559,16.02,54.48,3.42
1.9886,-6.5514,-0.50395,0.087965,1.7229,-1.0553,15.3,54.66,4.26
2.0839,-7.0962,-0.57205,0.18815,1.5821,-1.2165,14.34,54.78,5.1
2.3155,-8.0632,-0.89894,0.15272,1.3341,-1.0913,12.18,55.32,7.14
2.2201,-8.0496,-1.1169,0.12309,1.0831,-0.4777,11.1,55.38,7.98
2.0022,-7.5729,-1.7025,0.13164,1.0712,0.099266,9.9,55.62,8.88
2.3291,-5.6797,-1.4438,0.17287,0.98105,0.65363,7.5,56.4,10.92
2.3836,-5.5299,-0.40861,0.1741,0.70066,0.99021,6.42,56.94,11.88
2.1656,-6.1973,0.44947,0.12798,0.4945,1.117,5.34,57.42,12.66
2.152,-8.8532,1.6889,0.068111,0.59346,1.1414,3.36,58.74,13.86
2.6151,-11.591,1.866,0.10843,1.2993,1.1503,2.4,59.4,14.28
3.6775,-15.023,2.0975,0.17196,1.883,1.1435,1.56,59.82,14.58
6.3607,-19.423,1.7434,0.43035,2.2981,1.0522,0.3,61.26,14.7
6.851,-19.518,0.21793,0.71807,2.5406,0.71502,0.12,61.8,14.58
6.8374,-18.673,-1.8932,1.1322,2.2684,0.083994,0.3,62.34,14.46
5.2302,-13.007,-4.9578,1.2184,1.4145,-0.64446,1.08,63.18,14.1
3.9908,-11.754,-4.5764,0.82345,-0.11668,-1.5751,1.68,63.6,13.92
1.6889,-10.324,-2.7377,0.55803,-0.40897,-1.6863,2.46,63.9,13.74
-2.4244,-8.0905,-2.4244,0.16982,0.020769,-1.4184,4.02,64.2,13.2
-2.5198,-7.3277,-3.7184,-0.16249,0.81001,-0.97402,4.98,64.08,13.02
-1.9341,-6.9055,-4.7671,-0.36744,1.6438,-0.47434,5.94,63.96,13.08
-0.76274,-5.6933,-5.0259,-0.53817,2.4578,0.042761,7.8,63.54,13.32
0.28603,-5.3119,-4.413,-0.54275,2.9343,0.76847,8.7,63.24,13.68
1.3893,-4.8897,-3.9227,-0.54336,2.536,1.0131,9.72,63.06,14.04
2.2201,-4.6718,-3.7865,-0.44043,1.8983,0.98288,10.8,62.52,14.46
3.337,-4.8488,-4.3313,-0.22144,1.0919,0.85338,12.48,62.34,15.72
4.4675,-7.5593,-5.203,0.12065,0.10537,0.66432,14.34,62.64,16.5
4.8625,-10.869,-5.2847,0.35155,-0.9615,0.47098,16.56,63.24,16.32
4.5492,-15.364,-5.1076,0.46578,-1.982,0.38149,18.66,63.36,15.18
4.2904,-18.701,-5.4618,0.31948,-2.9083,0.70188,19.2,63.48,14.22
3.5549,-19.436,-5.5707,-0.61331,-2.7257,0.92149,19.08,63.06,11.82
1.9341,-17.461,-3.7047,-1.9334,-1.8201,0.87659,18.3,62.22,9.78
0.55843,-13.157,-2.152,-2.6163,-0.55741,0.5003,16.5,60.96,8.52
-0.027241,-11.618,-1.6617,-2.8784,0.75625,-0.16371,13.92,59.4,8.16
0.96704,-12.926,-1.5527,-2.9569,1.9297,-0.88087,10.68,57.0,8.88
2.1929,-13.893,-0.70826,-3.3408,3.237,-1.8167,6.54,54.24,10.98
2.8603,-13.797,-0.040861,-3.6362,3.7336,-2.2672,1.74,51.36,14.76
2.9829,-13.484,0.21793,-3.7458,3.8692,-2.6469,-0.42,49.86,17.22
2.8467,-12.544,-0.068102,-3.6624,3.8326,-2.9529,-4.32,46.86,22.8
3.2008,-11.223,-0.25879,-3.5113,3.6328,-3.1188,-8.04,44.04,28.68
3.3778,-10.215,-0.46309,-3.2672,3.1683,-3.1551,-11.88,40.98,33.84
3.3642,-9.6977,-0.47671,-2.9792,2.4593,-3.0723,-13.68,39.42,36.12
2.9829,-9.0575,-0.51757,-2.6823,1.6298,-2.9028,-17.22,36.24,39.78
2.4108,-8.7306,-0.54481,-2.2657,0.63927,-2.4331,-20.76,32.58,42.3
1.9205,-8.322,-0.50395,-2.0647,0.27245,-2.0748,-22.44,30.78,43.5
1.1032,-7.5048,-0.39499,-1.8482,0.11606,-1.6933,-25.32,27.0,44.94
0.36775,-6.6604,-0.16344,-1.6298,0.15272,-1.2987,-28.02,23.28,46.02
0.12258,-6.4152,-0.27241,-1.3891,0.32956,-0.89247,-29.1,21.6,46.44
-0.027241,-5.7342,-0.25879,-0.96059,0.61606,-0.20678,-30.66,18.18,47.16
0.31327,-5.4345,-0.44947,-0.65454,0.65057,0.28986,-31.68,15.48,47.46
0.64016,-5.5843,-0.53119,-0.35003,0.5849,0.85521,-32.1,12.96,47.88
0.7355,-5.7478,-0.57205,-0.055589,0.5116,1.4197,-32.4,12.06,48.0
1.1169,-6.0883,-0.61292,0.2193,0.46731,1.9856,-32.82,10.62,48.0
1.4438,-6.17,-0.50395,0.46792,0.45296,2.4801,-33.18,10.14,47.88
1.5391,-6.8647,-0.10896,0.84055,0.49969,3.0962,-33.66,10.2,47.4
1.5119,-8.4855,0.21793,1.1521,0.64263,3.5882,-33.84,10.44,47.16
1.7434,-11.713,0.28603,1.4618,0.97128,4.2278,-34.32,11.76,46.5
3.4187,-17.025,-0.12258,1.7565,1.3803,4.9666,-34.86,13.92,45.66
5.5571,-18.919,-1.2395,1.9621,1.6976,5.5335,-35.22,16.8,44.76
6.9464,-19.259,-2.261,2.1756,1.5895,5.791,-35.22,20.28,43.68
7.4095,-19.45,-2.5742,2.2862,0.98288,5.674,-34.98,22.14,43.02
6.9191,-18.469,-3.1463,2.0604,-0.62186,4.5222,-33.84,25.8,41.64
4.7126,-16.317,-2.3155,1.6176,-1.4132,3.459,-32.22,29.76,40.14
2.8603,-14.601,-1.6208,1.1231,-1.3347,2.6212,-31.14,31.74,39.6
0.53119,-12.708,-1.6481,0.61636,-0.30849,2.0214,-28.38,35.46,38.34
-0.39499,-11.278,-1.9341,0.17287,1.3463,1.5146,-25.26,38.76,36.78
0.38137,-10.011,-1.8524,-0.33078,3.8628,1.055,-22.08,41.58,34.92
1.0079,-9.1937,-1.3893,-0.67806,5.1933,0.93096,-19.14,43.5,33.12
1.9886,-8.3629,-0.61292,-0.96883,6.0818,0.99388,-17.88,44.28,31.86
3.1327,-8.0088,-0.14982,-1.2016,6.4168,1.1368,-15.42,45.6,29.82
4.304,-7.8862,0.35413,-1.419,6.2892,1.2874,-13.62,46.68,27.72
4.5492,-7.7091,0.44947,-1.595,5.8692,1.4511,-12.66,46.86,26.64
4.7263,-7.3277,0.70826,-1.6646,5.3512,1.5928,-11.4,47.16,24.54
4.7944,-6.7012,0.88532,-1.5366,4.6951,1.7107,-10.38,47.22,22.74
4.9033,-6.1428,0.8717,-1.2886,4.3799,1.7153,-9.36,47.1,21.48
4.9987,-5.7342,0.58567,-0.9218,4.0467,1.6921,-8.94,47.04,20.88
5.6388,-5.3119,-0.095342,-0.39401,3.5891,1.631,-7.8,46.86,19.98
6.8783,-5.4481,-1.4574,0.20556,2.8552,1.551,-6.24,46.8,19.68
8.322,-6.6331,-2.9011,1.0666,1.0162,1.321,-4.98,46.8,19.38
8.8124,-7.7636,-3.5004,1.4957,-0.5736,1.0675,-4.14,46.68,19.38
8.1586,-9.0575,-3.7728,1.7862,-2.0177,0.69425,-2.82,46.92,19.26
5.7342,-10.011,-3.8001,1.8558,-2.9465,0.19212,-1.8,47.16,18.6
4.7671,-10.964,-3.9908,1.8457,-3.153,-0.33872,-1.44,47.46,17.94
3.2553,-14.329,-5.993,1.7486,-2.8301,-0.80054,-1.14,48.06,16.38
2.2474,-14.478,-6.3471,1.2052,-2.2098,-1.1796,-1.68,48.72,14.46
1.8387,-13.239,-5.1485,0.13011,-0.99693,-1.865,-2.34,48.96,13.56
0.85808,-10.665,-4.2223,-0.14569,-0.32742,-2.3311,-4.8,49.74,11.64
0.69464,-10.896,-4.4402,-0.26756,0.058338,-2.7623,-8.58,49.86,10.32
0.70826,-12.204,-4.9987,-0.39004,0.21502,-2.945,-13.02,49.92,9.96
1.4165,-14.138,-4.9987,-0.53206,0.28497,-2.8469,-17.34,49.62,10.74
1.6344,-15.064,-4.699,-0.82558,0.18723,-2.5427,-19.44,49.14,11.28
1.076,-14.887,-3.0918,-1.4395,-0.16738,-2.2465,-24.18,47.94,12.78
-0.27241,-13.13,-1.8251,-1.671,-0.11637,-2.2055,-29.46,45.84,14.76
-0.44947,-12.286,-1.6072,-1.7388,0.28619,-2.2422,-32.04,44.7,16.08
-0.31327,-11.863,-1.5119,-1.7532,0.74862,-2.2578,-37.14,42.42,18.72
0.28603,-11.155,-1.1032,-1.7028,1.0522,-2.2681,-41.34,39.72,21.42
1.076,-10.052,-0.44947,-1.5876,0.92057,-2.1869,-44.64,37.08,23.64
1.0896,-9.5206,-0.25879,-1.4563,0.21105,-2.0223,-45.9,35.58,24.66
0.25879,-7.75,-0.32689,-1.2318,-0.80695,-1.5348,-48.9,32.64,26.1
-0.64016,-6.5378,-0.51757,-1.0195,-0.86346,-1.0959,-52.02,30.0,27.48
-0.88532,-5.6388,-0.40861,-0.78557,-0.67104,-0.6744,-53.34,28.68,28.26
-0.57205,-4.6445,-0.42223,-0.55344,-0.48503,-0.3488,-55.44,26.64,30.18
0.068102,-4.7671,-0.28603,-0.40225,-0.4215,-0.097738,-56.52,24.96,31.92
0.14982,-4.8897,-0.19068,-0.34453,-0.39492,0.10751,-56.94,24.18,32.58
0.28603,-5.2302,-0.054481,-0.34819,-0.21961,0.32987,-57.24,22.62,34.2
0.6674,-6.2654,0.095342,-0.36133,0.019242,0.47495,-57.18,21.42,35.82
0.99429,-6.96,0.19068,-0.40164,0.36346,0.64752,-57.06,21.0,36.6
1.6889,-7.464,0.19068,-0.41142,0.72601,0.86254,-57.0,20.7,37.92
2.261,-7.3822,0.095342,-0.37751,1.0369,1.0996,-56.88,20.28,38.94
2.5334,-7.1507,-0.12258,-0.20067,1.3674,1.4065,-56.88,20.46,39.54
2.6423,-7.0145,-0.21793,-0.0076358,1.5269,1.6057,-57.0,20.58,39.6
3.051,-6.4969,-0.49033,0.23579,1.5678,1.8164,-57.48,20.82,39.42
3.6094,-5.9249,-1.3757,0.48961,1.4209,2.0107,-58.02,21.6,38.88
3.623,-5.3119,-1.9341,0.7199,1.1344,2.1787,-58.38,22.68,37.86
3.6094,-5.1621,-2.1384,0.88148,0.78435,2.2694,-58.32,23.4,37.2
3.8682,-5.6116,-2.4789,1.018,0.46517,2.2843,-58.74,24.9,35.7
4.3177,-7.4367,-2.261,1.2926,0.15241,2.1991,-58.32,26.52,33.72
4.5356,-9.4525,-1.6072,1.9148,-0.37904,2.3363,-58.08,27.66,32.7
6.3335,-18.742,-4.4402,3.0299,-0.93096,2.8934,-57.0,29.88,30.6
9.1529,-19.477,-9.1256,2.8643,-1.1558,3.2223,-55.26,32.7,28.5
7.1915,-17.502,-10.297,1.5983,-1.2651,2.6176,-52.92,35.64,26.28
4.808,-13.729,-8.0224,-0.097433,-1.2391,1.6035,-51.72,37.08,25.38
-1.0896,-5.9249,-4.5083,-0.4664,-0.85918,-0.18112,-49.2,39.96,24.24
-2.3155,-5.7886,-4.3313,-0.18845,0.24374,-1.6325,-48.0,41.1,23.82
-0.38137,-8.7579,-4.3449,-0.43494,1.1118,-1.9887,-46.2,43.02,23.16
1.1441,-10.828,-4.699,-0.70372,1.7254,-1.9383,-44.94,44.22,22.92
1.471,-10.093,-4.7671,-1.0525,2.2232,-1.5415,-44.64,44.7,22.74
2.2882,-6.4288,-3.5413,-1.1741,2.4682,-1.0033,-44.52,45.12,22.5
2.547,-4.8352,-2.9011,-0.70341,1.5785,-0.029016,-45.3,44.82,22.32
2.1248,-4.3313,-2.9148,-0.65424,1.0281,0.18784,-45.84,44.28,22.26
-0.28603,-1.8932,-3.0101,-0.68142,-0.11026,0.60964,-47.46,43.38,22.62
-1.7843,0.61292,-2.438,-0.6692,-0.17837,0.8042,-48.36,42.9,22.86
-1.1305,2.261,-2.261,-0.45693,-0.000916,0.84422,-50.28,41.88,22.86
0.16344,1.0624,-1.9341,-0.12737,-0.11729,0.75595,-51.18,41.46,22.74
1.3212,-1.7025,-1.4165,0.25656,-0.69242,0.63041,-51.96,41.22,22.74
2.8058,-8.6081,-0.027241,0.76297,-1.7788,0.67104,-53.28,40.8,22.8
4.127,-17.489,1.2803,1.0934,-2.2532,0.96364,-53.76,40.62,22.92
5.3664,-19.286,2.2882,0.51924,-2.1967,1.3748,-54.12,40.8,23.16
5.993,-19.532,2.5334,-0.4612,-1.5632,1.4453,-54.24,41.22,24.12
4.6854,-16.603,1.7706,-0.68936,-0.52443,0.69272,-54.0,41.46,24.84
2.9148,-12.068,1.8387,-0.52168,0.45173,-0.13683,-53.58,41.76,25.74
1.3212,-8.2403,0.89894,-0.091019,1.1032,-0.94257,-52.92,42.54,27.48
1.5527,-8.9894,-0.50395,0.17623,1.3671,-1.5088,-52.68,42.6,28.26
1.185,-8.8396,-1.9613,0.026878,1.3179,-1.7324,-52.26,42.66,29.1
-0.19068,-6.4288,-2.6015,-0.26542,1.0336,-1.5363,-51.78,42.18,30.6
-0.89894,-5.8023,-2.4108,-0.4893,0.56474,-0.90713,-51.48,41.94,31.44
-1.5255,-5.1485,-2.6015,-0.58246,0.60353,-0.52473,-51.36,41.64,32.1
-1.6617,-4.2495,-2.9829,-0.71502,0.83719,-0.25229,-50.88,40.62,33.42
-1.076,-3.2961,-1.8932,-0.80054,1.069,-0.10171,-50.7,40.08,34.08
0.054481,-3.6094,-1.0079,-0.63163,1.1179,-0.055589,-50.52,39.12,34.74
2.261,-7.6546,-0.12258,-0.21533,0.79687,-0.0045815,-50.58,37.38,35.4
3.4868,-10.828,-0.61292,0.63866,-0.11484,0.33598,-50.46,36.54,35.4
4.4675,-18.415,-2.8603,0.81031,-0.37629,0.61453,-50.28,35.22,35.16
5.884,-19.504,-3.732,0.92149,-0.35094,1.3381,-50.22,34.62,35.04
4.413,-15.5,-4.2223,0.88606,-0.50121,1.2034,-49.8,34.14,35.04
2.0839,-8.3493,-2.6423,0.64874,-0.73762,0.53603,-48.72,33.72,34.86
1.4438,-7.3958,-2.5061,0.82894,-1.0525,-0.41294,-48.12,33.78,34.8
0.7355,-10.46,-4.3585,1.1029,-1.4804,-1.022,-46.68,33.48,34.68
0.7355,-9.9565,-4.3177,0.66218,-1.8002,-1.0415,-45.9,33.48,34.68
-0.8036,-8.5263,-3.5685,0.52626,-2.5375,-0.29932,-45.06,33.72,34.92
-4.9987,-6.4969,-3.3778,0.71044,-3.2309,0.42119,-43.02,34.2,34.98
-6.5378,-4.5901,-4.0861,0.49327,-1.4551,0.32254,-41.76,34.56,35.28
-5.1485,-2.9692,-4.1814,0.12492,0.44532,0.49022,-40.38,34.86,35.58
-2.1929,-0.8036,-3.6094,-0.1799,1.281,0.32193,-38.04,35.64,36.3
-1.4165,-0.095342,-3.2553,-0.34453,1.0754,0.16005,-37.02,35.82,36.72
0.38137,0.054481,-2.0431,-0.31948,0.68906,0.082467,-36.06,36.24,36.9
0.62654,-4.6445,-0.20431,0.10904,-0.76725,0.011301,-34.44,36.48,37.08
0.84446,-9.6296,0.40861,0.32498,-1.1878,0.29841,-33.54,36.48,37.08
2.1248,-17.039,0.74912,0.15058,-0.95478,0.91813,-32.7,36.54,37.14
6.2109,-19.491,2.547,-1.1646,0.89064,1.799,-30.66,37.08,37.02
6.4969,-19.382,2.6015,-1.3857,1.6542,1.7834,-29.7,37.14,36.9
5.7069,-14.969,2.6423,-1.4908,1.9004,1.5339,-28.74,37.26,36.6
2.4108,-7.0962,2.438,-1.0693,2.2599,0.080023,-27.36,37.5,36.12
1.6753,-6.3607,1.0896,-0.33811,2.2825,-0.82497,-26.94,37.56,35.64
1.866,-7.2324,0.01362,0.057727,2.2816,-1.4239,-26.58,37.62,35.1
2.6015,-8.0905,-1.6889,-0.14386,1.8008,-1.4175,-26.34,37.32,33.96
2.3836,-7.7091,-1.6753,-0.31185,1.0599,-0.8937,-26.28,37.2,33.3
1.2531,-7.1098,-1.8932,-0.43188,0.49969,-0.36499,-26.22,36.84,32.94
0.42223,-5.8295,-2.3563,-0.52321,0.36896,0.081856,-26.22,36.42,31.86
-0.53119,-4.4675,-2.3563,-0.5736,0.63286,0.36224,-26.34,36.18,31.44
-0.47671,-3.5277,-1.8796,-0.57727,1.1548,0.48442,-26.52,35.88,31.02
1.3757,-4.8761,-0.88532,-0.39248,1.4566,0.47678,-27.0,35.4,30.36
2.547,-7.1915,-1.0215,0.066584,1.16,0.48289,-27.24,34.98,29.94
3.3778,-9.2074,-0.84446,0.24954,0.90927,0.51465,-27.54,34.74,29.64
5.4481,-16.63,-1.5527,1.0983,-0.18021,0.91569,-27.6,34.68,29.04
7.7091,-19.45,-3.7865,1.1426,-0.80207,1.1188,-27.72,34.86,28.14
6.9464,-18.483,-4.4402,0.80054,-1.3977,0.79015,-27.66,34.98,27.9
2.7377,-8.322,-2.9965,0.4047,-1.8784,0.19578,-27.18,35.58,27.6
1.2531,-6.8783,-2.4653,0.62522,-2.1035,-1.0079,-26.82,35.88,27.6
-0.57205,-6.7966,-2.3427,0.75778,-2.0183,-1.2981,-26.4,36.3,27.54
-2.0703,-9.1529,-2.7104,0.48747,-1.3002,-1.5159,-25.44,37.2,27.72
-1.8251,-9.3299,-3.2008,0.26267,-0.78221,-1.2785,-25.08,37.56,27.84
-1.2939,-9.2074,-4.018,0.092852,-0.32926,-0.85246,-24.66,37.98,27.96
-0.24517,-7.641,-4.4539,0.077885,-0.076358,-0.35186,-24.24,38.64,28.08
0.19068,-6.6059,-4.1951,0.28863,-0.36255,0.23824,-24.12,39.18,28.14
0.88532,-5.993,-4.0452,0.31154,-0.60323,0.31093,-23.76,39.54,28.38
1.3484,-4.6718,-3.9635,0.28802,-1.5272,0.24984,-23.64,40.02,28.86
1.2395,-3.6366,-3.4051,0.30421,-2.1979,0.069028,-23.34,40.14,29.22
1.0351,-3.3097,-2.8467,0.37507,-2.7868,-0.1463,-23.16,40.38,29.52
0.96704,-4.7535,-0.99429,0.50213,-3.3332,-0.32865,-22.62,40.86,30.24
1.0079,-7.3005,-0.21793,0.68417,-3.8643,-0.35094,-22.2,41.04,30.6
0.5993,-15.704,0.74912,0.59437,-3.6533,-0.068722,-21.66,41.52,31.26
0.8036,-19.055,0.77636,0.43616,-3.2183,0.17929,-21.18,41.88,31.5
1.3893,-19.409,0.42223,-0.54123,-0.54672,1.3424,-20.58,42.24,31.68
3.3778,-17.189,1.4301,-1.3812,1.4108,1.7572,-19.14,43.08,32.46
3.2553,-13.253,2.3563,-1.9319,2.6994,1.6417,-18.3,43.38,32.82
2.0567,-9.2755,2.7786,-1.9154,3.9569,0.51465,-16.92,43.8,33.72
1.7025,-7.641,1.4438,-1.4019,4.517,-0.39279,-16.32,43.98,34.14
2.656,-7.3822,0.6674,-0.85857,4.733,-1.1087,-15.96,44.04,34.5
3.4323,-7.3141,0.28603,-0.45632,4.0919,-1.401,-16.08,44.16,34.74
4.9987,-6.279,-1.6617,-0.15363,2.4658,-1.2975,-16.68,43.8,34.68
4.9987,-5.8976,-2.1112,0.11851,0.24984,-0.91721,-17.16,43.68,34.68
3.7047,-5.7205,-2.3018,0.27672,-1.7743,-0.46762,-17.94,43.5,34.62
-0.054481,-5.4754,-2.0567,0.26725,-2.7675,0.032681,-19.14,43.02,34.62
-1.2395,-5.5571,-2.1248,0.10324,-2.1249,0.25992,-19.74,42.78,34.8
-1.8932,-5.7478,-2.1384,-0.19212,-0.92821,0.43005,-20.22,42.54,34.92
-1.866,-6.1564,-1.7434,-0.52809,0.47128,0.52473,-21.66,41.94,35.1
-1.0215,-7.0826,-1.1986,-0.81428,1.7437,0.50519,-22.5,41.76,35.28
0.14982,-8.1722,-0.19068,-1.0146,2.8943,0.40378,-23.88,41.46,35.22
2.6968,-11.577,0.43585,-0.96914,3.3109,0.3934,-24.54,41.34,35.22
4.5083,-14.165,0.70826,-0.51679,3.1811,0.43768,-25.14,41.28,34.98
5.7478,-16.481,0.20431,0.13592,2.3305,0.57849,-25.62,41.1,34.8
7.927,-15.527,-1.8796,0.66279,0.99999,0.68661,-25.98,41.28,34.68
7.4231,-11.959,-2.2474,0.97525,-0.6918,0.71685,-26.04,41.28,34.44
4.304,-8.8668,-2.2201,1.2877,-2.7913,0.27917,-25.92,41.76,34.02
2.5198,-9.4117,-2.2474,1.6924,-3.4657,-0.21533,-25.8,41.88,33.9
1.3757,-9.9973,-2.4244,1.492,-3.3985,-0.53329,-25.8,42.06,33.66
-1.5527,-9.8611,-2.3699,1.0773,-2.8075,-0.67287,-25.74,42.48,33.06
-2.2201,-9.4798,-2.8603,0.83505,-1.9395,-0.65729,-25.8,42.66,32.7
-2.5061,-9.2755,-3.7047,0.67409,-0.88026,-0.5058,-25.56,42.84,32.52
-1.8251,-7.3958,-4.699,0.42638,0.13806,-0.24801,-25.32,43.26,32.1
-1.5527,-6.3879,-4.3858,0.15027,0.72204,0.14172,-24.96,43.38,31.86
-1.0896,-4.9306,-3.9227,-0.012828,0.41936,0.34636,-24.66,43.56,31.86
-1.0624,-1.7434,-3.2825,-0.037874,-0.29719,0.48655,-23.82,43.98,31.8
-1.9886,-0.14982,-2.9148,0.057116,-0.38912,0.30788,-23.4,44.16,31.8
-1.1169,-1.5391,-1.9886,0.26909,-0.25381,0.10201,-22.92,44.4,32.04
0.29965,-8.1041,-0.85808,0.48197,-0.65637,0.062919,-22.08,44.64,32.16
0.6674,-14.124,-0.24517,0.4722,-0.99174,0.4383,-21.78,44.76,32.1
1.5663,-18.755,0.74912,0.14936,-0.68692,0.69486,-21.42,44.76,32.22
3.8001,-19.504,1.6481,-1.4062,1.5189,1.4551,-20.82,45.06,32.34
4.8352,-18.347,2.3291,-1.8531,2.6689,1.6258,-20.4,45.3,32.52
4.6037,-15.119,2.5879,-1.7184,3.0763,1.2031,-20.22,45.42,32.46
3.3097,-8.0905,1.3348,-1.1759,2.8928,0.37813,-19.68,45.42,32.76
3.0782,-7.6955,0.14982,-0.11729,2.0522,-0.62125,-19.56,45.42,32.82
3.1599,-9.6977,-1.5391,0.15272,1.4206,-0.88087,-19.26,45.0,32.94
2.7377,-9.4389,-2.0567,0.036041,0.7761,-0.71654,-19.32,45.0,33.06
1.5255,-8.1722,-1.9886,-0.20006,0.2697,-0.33537,-19.38,44.88,33.06
-0.47671,-5.993,-1.5391,-0.39676,0.21838,0.071166,-19.62,44.4,33.06
-0.95342,-5.0395,-1.7025,-0.55925,0.57269,0.40623,-19.74,44.16,33.12
-0.78998,-3.4051,-2.0158,-0.66981,1.3482,0.70524,-20.04,43.5,33.12
-0.78998,-2.8058,-1.7843,-0.64966,1.5864,0.76053,-20.16,43.26,33.12
0.83084,-2.6696,-1.3212,-0.56139,1.4468,0.80176,-20.22,42.66,33.06
2.3155,-3.9908,-0.72188,-0.35613,1.0354,0.85094,-20.52,41.76,32.94
4.3313,-6.674,-0.96704,-0.015882,0.20159,0.88942,-20.82,41.58,32.94
5.8159,-9.5206,-1.4029,0.41875,-1.2355,0.92546,-21.18,41.52,32.82
6.7966,-15.268,-1.7162,0.89736,-3.4337,1.003,-20.82,41.58,32.7
6.7012,-18.81,-2.8058,1.7709,-4.1401,0.98319,-20.4,41.76,32.82
5.4209,-19.45,-3.4459,1.6964,-3.7779,0.62369,-19.74,41.76,32.88
0.9398,-14.233,-2.656,0.73609,-2.5559,-0.073915,-18.12,42.24,32.82
-1.1577,-10.706,-1.4846,0.099571,-1.1328,-0.92271,-17.34,42.48,32.88
-2.4517,-8.826,-0.88532,0.068722,-0.094379,-1.6203,-16.44,42.78,32.76
-1.6617,-10.324,-2.5061,0.021686,0.51496,-1.9477,-15.24,43.38,32.64
-1.0896,-10.828,-3.5685,-0.43585,0.69028,-1.7627,-14.7,43.44,32.46
-0.96704,-10.501,-3.8818,-0.7477,0.59223,-1.2956,-14.58,43.62,32.16
-1.185,-9.4661,-3.8682,-0.79199,0.54764,-1.0305,-14.4,43.62,31.86
-2.6968,-6.2517,-3.3097,-0.47617,0.7028,-0.42089,-14.04,43.5,31.56
-2.9284,-4.8352,-2.7513,-0.28711,0.94745,-0.29047,-13.74,43.32,31.2
-2.4925,-3.2144,-1.4846,-0.19731,0.81215,-0.36377,-13.92,42.78,30.84
-1.8251,-0.44947,-0.99429,-0.06353,-0.072082,-0.5397,-14.28,42.42,30.54
-3.1054,-0.21793,0.095342,0.07025,-1.3195,-0.77641,-14.76,42.12,30.24
-4.2495,-1.9205,1.6344,0.13653,-1.8473,-0.85094,-15.3,41.64,30.24
-3.2144,-8.7443,2.8467,0.015577,-0.79443,-0.36682,-16.56,40.86,30.18
0.17706,-17.257,2.4517,-0.35186,0.62369,0.32101,-17.28,40.38,30.12
3.7728,-19.246,2.7649,-0.14386,2.003,1.2376,-17.88,40.02,30.06
8.0224,-19.123,2.1929,0.36591,2.4383,1.9505,-18.48,39.66,29.82
7.6546,-16.208,1.4982,0.6072,1.7187,2.0934,-18.48,39.72,29.94
7.0009,-14.288,1.1577,0.69975,0.16829,1.1399,-18.36,39.84,29.7
3.1191,-11.972,-0.19068,0.86957,-0.23824,0.343,-18.0,40.26,29.16
3.1191,-11.972,-0.19068,0.86957,-0.23824,0.343,-18.0,40.26,29.16
-0.12258,-9.4117,-1.185,0.076053,1.5272,-0.80604,-17.22,40.98,28.08
-0.38137,-7.246,-1.2803,-0.10049,1.8021,-0.80695,-17.04,41.28,27.6
-0.49033,-6.4016,-1.1577,-0.39034,2.0693,-0.63469,-16.98,41.58,27.12
-0.81722,-4.8761,-1.5391,-0.71654,2.0727,-0.17196,-16.86,41.88,25.98
-1.0079,-4.0861,-1.4846,-0.87812,2.211,0.15485,-16.92,42.18,25.26
-1.2803,-3.0918,-0.54481,-0.96181,2.4444,0.46242,-17.04,42.48,24.06
-1.1441,-3.1327,-0.54481,-0.95081,2.6295,0.66768,-17.16,42.48,23.46
-0.6674,-3.8818,0.6674,-0.85063,2.7019,0.81001,-17.4,42.6,22.92
1.9613,-8.0769,1.4574,-0.65179,2.6765,0.95264,-18.12,42.66,21.9
3.4051,-12.354,0.64016,-0.33628,2.533,1.1054,-18.48,42.72,21.36
4.2904,-17.815,0.64016,0.14936,2.4978,1.3946,-18.9,42.78,20.82
6.2926,-19.477,-2.1112,0.71563,2.9422,1.5156,-19.8,43.08,19.62
7.5729,-18.469,-4.5764,1.0595,2.7593,1.4752,-20.34,43.2,18.9
7.8862,-13.866,-5.8704,0.81367,1.5565,0.99174,-20.58,43.56,18.12
5.8295,-7.6683,-4.2495,0.74373,-0.9279,-0.43097,-20.64,43.98,16.38
3.4596,-7.246,-2.9829,0.89431,-1.6579,-0.87079,-20.64,44.16,15.6
1.4438,-7.6683,-2.6015,0.76267,-2.2755,-1.617,-20.58,44.22,15.0
-1.8387,-8.1995,-3.1599,0.25687,-1.4572,-1.5754,-20.58,44.46,13.5
-1.9068,-7.7636,-3.8137,-0.13408,-0.3375,-1.4175,-20.7,44.58,12.66
-0.85808,-6.5105,-4.127,-0.39248,0.88301,-1.2205,-21.12,44.52,11.22
-0.21793,-5.6116,-3.514,-0.55131,2.2147,-0.7981,-21.24,44.34,10.62
0.36775,-4.8625,-2.8603,-0.45265,2.4352,-0.49755,-21.36,44.1,9.9
2.5742,-4.8761,-2.5061,-0.28711,2.0058,-0.30604,-21.72,43.74,8.76
3.1735,-5.3664,-2.5606,-0.11454,1.1261,-0.18723,-21.9,43.32,8.22
3.0237,-6.0883,-2.547,0.040012,0.23243,-0.18082,-22.08,42.9,7.74
1.4574,-7.4912,-0.92618,0.18326,-0.50732,-0.29658,-22.74,41.82,7.26
0.54481,-9.6568,0.040861,0.30971,-0.57818,-0.34239,-23.22,41.34,7.08
0.027241,-12.735,0.92618,0.28527,-0.45296,-0.2755,-23.64,40.98,6.78
1.2803,-18.224,2.4517,-0.17868,0.49511,0.30849,-24.6,40.08,6.24
3.7592,-19.45,2.8194,-0.61087,1.1041,0.80451,-24.78,39.66,5.94
4.1951,-19.518,3.2689,-1.0556,1.5116,1.0571,-24.96,39.24,5.82
2.4517,-16.467,3.1463,-1.0745,1.898,0.89736,-24.72,38.46,5.28
1.6208,-13.402,2.4517,-0.6634,2.1356,0.066279,-24.54,38.28,4.92
0.96704,-12.0,1.8524,-0.24587,2.0467,-0.57544,-24.36,38.16,4.68
-0.61292,-11.128,-0.095342,0.047647,1.9743,-0.85216,-24.06,37.5,3.9
-0.70826,-10.951,-0.99429,0.083383,2.0342,-0.66981,-23.82,37.38,3.72
-0.44947,-10.256,-1.3348,-0.10324,2.1579,-0.21655,-23.46,37.2,3.42
-0.19068,-8.0088,-1.0488,-0.34636,2.2306,0.20159,-22.62,36.72,2.46
0.027241,-7.2733,-0.92618,-0.60903,2.507,0.3149,-22.26,36.42,1.98
0.35413,-6.0747,-0.8036,-0.6692,2.631,0.27642,-21.9,36.18,1.56
0.64016,-4.3994,-0.20431,-0.68142,2.6169,0.25076,-20.76,35.82,0.36
1.2122,-4.4402,0.17706,-0.64721,2.4328,0.25168,-20.22,35.58,-0.42
1.4165,-5.7342,0.38137,-0.60476,2.0604,0.33537,-19.62,35.4,-1.08
1.3076,-7.9951,0.70826,-0.63744,1.7104,0.51985,-18.72,35.1,-2.28
1.2258,-8.8941,1.0488,-0.69516,1.7147,0.87873,-18.24,34.86,-3.0
1.7706,-9.8611,1.7706,-0.68692,1.8195,0.98471,-17.76,34.74,-3.78
2.3836,-12.381,2.9284,-0.44868,2.0721,1.1836,-16.62,34.56,-4.8
4.1678,-18.292,3.1599,-0.23946,2.1878,1.3735,-15.96,34.56,-5.4
5.9657,-16.113,1.1577,0.064752,2.2911,1.3696,-14.64,34.74,-6.3
6.3743,-12.0,-0.12258,0.56872,1.814,0.96333,-13.92,34.92,-6.72
5.9112,-7.355,-0.83084,1.1802,-0.35552,-0.37782,-12.36,35.16,-7.74
2.0839,-10.855,-0.21793,1.3919,-1.1118,-0.80146,-11.7,35.16,-8.28
-1.7298,-13.253,0.16344,1.317,-1.6643,-1.2929,-11.16,35.28,-8.58
-3.0646,-13.906,0.095342,-0.091935,0.090103,-0.88789,-10.74,35.34,-8.88
-2.5879,-10.828,-1.0624,-0.7929,1.7529,-0.31857,-10.02,35.22,-9.66
-1.2122,-8.8941,-1.1713,-0.96761,2.9291,-0.12187,-9.66,35.28,-10.08
0.51757,-7.0826,-1.0351,-0.85613,3.5482,-0.090408,-9.24,35.46,-10.32
1.7162,-6.9736,-1.3757,-0.62003,3.5684,-0.065363,-8.7,35.58,-11.1
2.438,-7.1507,-1.9477,-0.34667,3.0855,-0.01741,-8.22,35.64,-11.46
2.7241,-7.1643,-2.2337,-0.03207,1.8192,0.083383,-7.68,35.58,-11.76
2.3427,-7.1098,-2.4789,0.075136,1.0208,0.14111,-6.9,35.52,-12.3
1.9886,-7.1371,-2.547,0.15516,0.54611,0.17593,-6.66,35.22,-12.78
1.3484,-7.3958,-2.8058,0.19426,0.39095,0.20097,-6.18,35.22,-13.02
1.362,-7.641,-2.9829,0.21197,0.55986,0.22052,-5.52,35.46,-13.56
1.3893,-7.8862,-3.2008,0.19212,0.75503,0.22724,-5.22,35.52,-13.8
1.6208,-8.0632,-3.2008,0.16616,0.81978,0.2193,-4.68,35.64,-14.04
2.1248,-7.8998,-3.2144,0.075747,0.81703,0.12889,-3.54,35.94,-14.52
2.0839,-7.8589,-3.1599,0.036346,0.686,0.014355,-2.88,35.94,-14.52
2.2746,-8.2131,-3.2553,0.03207,0.52412,-0.11912,-2.4,35.94,-14.82
2.2201,-9.6432,-3.3506,-0.0061087,0.3769,-0.26023,-1.32,35.88,-15.0
1.7162,-10.093,-3.0237,-0.15394,0.3427,-0.35339,-1.02,35.76,-15.06
1.5119,-10.406,-2.6015,-0.36652,0.55222,-0.37751,-0.78,35.88,-15.18
2.4789,-13.525,-3.2144,-0.51557,0.96028,-0.26664,-0.3,35.82,-15.42
3.2825,-14.955,-3.8546,-0.73182,1.0516,-0.13439,-0.12,36.0,-15.3
2.942,-13.797,-2.3427,-1.1316,1.1096,-0.093462,0.06,36.06,-15.18
2.6015,-12.817,-1.6072,-1.5476,1.2297,-0.29169,0.6,36.06,-14.7
2.261,-12.34,-1.471,-1.8225,1.4255,-0.72662,0.84,36.3,-14.34
2.2337,-12.926,-1.6481,-1.9923,1.9233,-1.4975,0.96,36.18,-13.74
2.9556,-13.661,-1.9341,-2.0977,2.1212,-1.9355,0.96,36.78,-12.54
3.3778,-13.253,-1.7979,-2.1643,1.9636,-2.2477,0.78,37.02,-11.82
3.2825,-12.585,-1.7434,-2.2138,1.558,-2.4621,0.66,37.14,-10.92
2.5061,-11.101,-1.6072,-2.2138,0.8882,-2.624,-0.06,37.86,-9.0
1.757,-10.365,-1.6889,-2.1777,0.63255,-2.583,-0.54,38.34,-8.1
1.4165,-9.9973,-1.757,-2.1506,0.6243,-2.5165,-1.14,38.76,-7.08
0.98067,-8.9758,-1.6753,-2.0907,0.86987,-2.1814,-2.76,39.9,-5.1
1.0896,-8.5536,-1.58,-2.0394,1.131,-1.7281,-3.66,40.56,-4.2
1.1169,-7.9679,-1.4438,-2.0192,1.2028,-1.5565,-4.86,41.22,-3.24
1.0488,-7.0281,-1.2395,-1.97,1.3665,-0.98685,-7.44,42.48,-1.62
1.1986,-6.4697,-1.2395,-1.879,1.4716,-0.59132,-8.82,43.02,-0.96
1.3212,-6.0883,-1.1169,-1.7639,1.5397,-0.20739,-10.08,43.68,-0.42
1.5119,-5.7205,-1.0215,-1.5907,1.5773,0.15088,-11.34,44.1,0.12
2.0294,-5.3664,-0.81722,-1.3552,1.5614,0.46884,-13.62,45.0,0.96
2.0975,-5.2711,-0.85808,-1.08,1.4908,0.77,-14.94,45.6,1.26
2.6423,-5.5435,-1.0079,-0.6182,1.3857,1.2562,-16.74,46.32,1.62
3.0101,-6.0611,-1.1169,-0.45112,1.3259,1.4218,-17.52,46.74,1.92
3.3506,-6.4833,-1.1713,-0.12859,1.1677,1.7599,-17.94,47.04,1.98
4.5901,-8.2948,-1.4165,0.35491,0.64935,2.3027,-18.36,47.7,2.28
4.9033,-9.1256,-1.7298,0.63713,0.14997,2.6252,-18.36,47.94,2.34
4.9578,-9.7385,-1.6753,0.87445,-0.33231,2.8524,-17.94,48.12,2.28
4.3313,-12.149,-1.1577,1.2431,-0.69028,3.1298,-16.68,48.72,2.4
4.1542,-14.86,-1.2258,1.4022,-0.60262,3.2935,-15.72,48.84,2.46
4.6854,-16.331,-2.0703,1.4517,-0.30116,3.4013,-14.4,48.96,2.28
5.1485,-14.451,-2.8875,1.3613,-0.11179,3.2971,-12.78,49.08,2.16
5.5162,-12.64,-3.2144,1.2813,-0.28772,2.9077,-11.04,49.08,1.8
5.3256,-10.27,-2.6968,1.2938,-0.80054,2.252,-7.2,49.14,0.96
4.522,-11.25,-2.1929,1.3274,-1.3922,1.2871,-5.16,49.14,0.48
2.5742,-13.375,-2.6696,0.79382,-1.3732,0.93829,-0.78,48.66,-0.6
1.3212,-13.362,-3.0237,0.065057,-0.4386,0.8265,1.32,48.48,-1.2
0.84446,-12.381,-3.0237,-0.5507,0.96761,0.76847,3.36,48.24,-1.86
0.28603,-11.005,-2.6423,-0.98869,2.489,0.6243,5.34,48.0,-2.4
1.0896,-8.4446,-1.6072,-1.2089,3.6716,0.36927,9.18,47.52,-3.18
1.6889,-7.5457,-1.2258,-1.3503,4.3619,0.040928,11.04,47.1,-3.48
2.9692,-6.0338,-0.9398,-1.3995,4.5879,-0.036652,14.4,46.56,-3.6
3.4459,-5.7342,-1.1305,-1.2269,4.0699,-0.16524,15.66,46.44,-3.3
3.6775,-5.5299,-1.0896,-1.0418,3.3763,-0.15241,16.56,46.32,-3.0
3.8546,-5.4209,-1.5391,-0.80207,2.5635,-0.080023,18.3,46.32,-1.86
3.8001,-5.3664,-1.6889,-0.55131,1.7025,0.037263,18.84,46.32,-1.14
3.3642,-5.2983,-1.9205,-0.28772,0.88026,0.15272,19.56,46.44,0.6
3.1872,-5.1894,-2.0294,0.083689,-0.025962,0.18234,19.92,46.62,1.56
2.9965,-5.1485,-2.1929,0.25626,-0.38607,0.11087,20.1,46.86,2.46
2.4925,-5.6116,-2.5742,0.38057,-0.59773,-0.023824,20.52,47.04,4.2
2.3699,-5.993,-2.6832,0.44074,-0.6802,-0.16005,20.64,47.22,4.86
2.1929,-6.3607,-2.6423,0.4496,-0.68906,-0.28527,20.7,47.34,5.46
1.8796,-7.4095,-2.7104,0.44654,-0.62247,-0.36652,20.52,47.82,6.06
1.7979,-7.8589,-2.9965,0.39248,-0.45571,-0.33109,20.16,48.12,6.06
1.7162,-7.7364,-3.1191,0.35125,-0.40317,-0.28924,19.86,48.3,5.88
1.3757,-7.3822,-3.1872,0.26634,-0.31307,-0.1518,19.5,48.42,5.46
0.068102,-5.5026,-3.4051,0.18112,-0.26176,-0.083689,18.6,48.66,4.68
-0.40861,-4.1814,-3.5413,0.065668,-0.20769,-0.085521,18.06,48.78,4.2
-1.5663,-1.3212,-2.7513,-0.072388,-0.21747,-0.1744,16.86,49.14,2.64
-1.5119,-0.95342,-1.9341,0.037568,-0.28894,-0.41539,16.08,49.38,1.92
-1.1305,-2.4108,-1.3757,0.38118,-0.49572,-0.42822,15.3,49.5,1.02
0.28603,-8.9894,-0.40861,0.55925,-0.64294,-0.37904,14.4,49.56,1.02
2.9011,-18.374,0.83084,0.60995,-0.82558,0.47556,13.2,49.62,-1.08
6.0066,-19.518,1.4846,-0.84025,0.13073,1.3069,11.1,49.8,-3.36
5.9521,-17.965,1.4029,-1.2263,1.1832,1.7284,10.14,49.68,-4.56
4.8625,-12.286,2.4108,-1.5134,1.8955,1.3955,9.36,49.74,-5.52
1.6753,-5.6661,1.2803,-1.2703,2.0898,0.90744,8.76,49.68,-6.3
1.4846,-5.6116,-1.0896,0.17746,2.2712,-0.55528,7.68,49.92,-7.56
1.9886,-6.3198,-2.6423,0.81612,2.0354,-1.1261,7.32,49.92,-8.22
3.4459,-7.1643,-4.1542,0.83811,1.1051,-1.1341,6.9,50.04,-8.76
3.1599,-6.851,-2.6968,0.44654,-0.40439,-0.66218,6.06,49.8,-10.02
1.0351,-6.0202,-1.9341,0.0054978,-1.5733,0.04215,5.7,49.68,-10.62
-1.7298,-4.6854,-3.0918,-0.14661,-1.4664,0.26481,5.22,49.38,-11.82
-1.7979,-4.2904,-3.2825,-0.61484,-0.14936,0.80023,4.92,49.26,-12.18
-1.3484,-4.2223,-2.8058,-0.8207,0.93707,0.92821,4.86,49.26,-12.48
0.17706,-5.4754,-1.5255,-0.95723,1.7636,0.87629,4.74,49.14,-12.78
1.5255,-6.7693,-0.51757,-0.96425,2.1893,0.74587,4.74,49.2,-12.96
4.3313,-11.713,1.4165,-0.74648,2.1991,0.64691,4.8,49.02,-13.26
6.3471,-17.611,-0.85808,-0.15485,1.7611,0.69394,4.98,48.42,-14.4
8.6489,-19.409,-2.7649,0.26939,0.53451,0.80451,5.04,48.3,-15.06
8.8805,-19.259,-3.4732,0.64385,-0.47678,0.66004,5.1,47.94,-15.84
6.96,-11.346,-2.5061,0.48136,-1.6399,0.50091,5.1,47.34,-17.46
3.732,-7.8317,-1.8932,0.51129,-2.3647,-0.16035,5.22,47.22,-18.18
0.20431,-8.8941,-2.3427,0.78954,-2.4673,-0.8998,4.92,46.68,-19.2
-0.38137,-10.283,-2.4925,0.59529,-1.4868,-1.3882,4.5,46.44,-19.5
-0.95342,-11.727,-2.4108,0.28497,-0.58399,-1.2889,4.14,46.2,-19.98
-0.6674,-11.387,-2.8467,0.097738,0.30024,-0.94806,3.0,45.36,-20.82
0.24517,-9.5479,-3.4732,-0.0067195,0.8937,-0.51404,2.22,44.82,-21.12
0.61292,-7.4776,-3.4732,-0.000611,0.99082,-0.12737,1.44,44.4,-21.36
0.54481,-4.1951,-3.1327,0.048258,0.46181,0.085216,-0.6,43.56,-21.6
0.28603,-2.5334,-3.2416,0.04215,-0.11209,0.016799,-1.86,43.32,-21.72
0.068102,-1.2803,-3.5277,0.04215,-0.79168,-0.1689,-3.24,42.96,-21.66
-1.2122,1.9886,-3.1191,0.14172,-1.4487,-0.41569,-6.12,42.3,-21.54
-1.9886,1.6208,-2.7104,0.33109,-1.9261,-0.55436,-7.62,42.0,-21.36
-2.2201,-0.83084,-2.2337,0.38393,-1.9413,-0.52198,-9.3,41.58,-21.24
-1.2531,-7.3414,-0.5993,0.17532,-1.5211,-0.26359,-12.78,40.26,-21.6
1.4438,-12.762,0.9398,0.0097738,-0.34941,0.46853,-14.4,39.42,-21.84
2.9965,-18.483,1.0215,-0.096211,0.052229,0.80695,-15.96,38.52,-22.32
5.2847,-19.409,2.0567,-1.1939,1.0238,1.5259,-17.34,37.56,-22.98
6.8374,-18.279,2.6696,-1.3723,1.9743,1.8601,-19.68,36.24,-24.06
6.4016,-14.288,2.0294,-1.0128,1.9077,1.4398,-20.82,35.52,-24.66
5.2847,-9.8339,-0.38137,-0.37843,1.5635,0.61972,-21.78,34.92,-25.44
4.7399,-10.161,-2.152,0.71716,0.66157,-0.57605,-23.28,33.72,-26.64
4.6309,-10.61,-3.4596,0.87873,-0.14203,-1.0314,-23.82,33.18,-27.18
4.0861,-10.229,-2.8603,0.57544,-1.0452,-1.1359,-24.48,32.46,-27.66
0.77636,-7.8862,-0.88532,0.22113,-1.532,-0.97097,-25.56,31.32,-28.26
-0.40861,-6.7421,-1.2531,-0.082467,-1.332,-0.6298,-25.98,30.78,-28.44
-0.92618,-5.8704,-1.975,-0.35705,-0.64446,-0.32223,-26.16,30.54,-28.38
-0.83084,-3.5277,-2.152,-0.57238,0.60812,-0.083689,-26.04,30.24,-28.14
-0.16344,-2.7104,-1.6889,-0.59834,0.94776,-0.064752,-25.92,30.36,-27.6
0.42223,-2.5742,-1.3484,-0.58918,1.2813,-0.089797,-25.74,30.54,-27.12
1.9613,-4.127,-0.6674,-0.44838,1.076,-0.062308,-25.26,30.42,-25.92
2.7649,-5.8023,0.01362,-0.21289,0.64935,0.030238,-25.08,30.3,-25.44
4.2495,-9.5342,0.51757,0.32681,0.10782,0.22785,-24.9,30.24,-24.84
5.993,-19.15,-1.7979,0.48594,-0.51099,0.94806,-24.78,29.7,-24.0
6.6331,-19.477,-2.6423,0.6521,-0.46304,1.1405,-24.6,29.52,-23.7
6.3198,-17.148,-2.8875,0.80115,-0.66554,1.3079,-24.3,29.34,-23.28
3.5685,-10.896,-2.4925,0.43738,-1.3088,0.50091,-23.58,29.22,-22.74
1.9886,-8.8396,-2.4653,0.61209,-1.5629,-0.50885,-23.1,29.1,-22.38
0.83084,-9.6841,-2.8058,0.92057,-1.7147,-1.2523,-22.68,28.98,-21.9
-1.0351,-10.869,-2.3427,0.73121,-1.5317,-1.4817,-22.08,28.56,-21.06
-1.3076,-10.215,-2.6832,0.33689,-0.79382,-0.95631,-21.9,28.32,-20.58
-1.4165,-9.507,-3.5822,0.22297,-0.42791,-0.3091,-21.72,28.14,-19.98
-0.77636,-7.6683,-4.3177,0.33109,-0.62308,0.35461,-21.66,28.02,-19.32
-0.47671,-4.4675,-3.2144,0.39248,-1.5385,0.86651,-21.78,27.72,-17.82
-1.7025,-2.6696,-2.6968,0.36499,-2.2483,0.967,-21.96,27.6,-16.86
-3.3097,-0.5993,-2.3972,0.22297,-1.5061,0.33109,-22.62,27.78,-14.52
-4.304,0.85808,-1.7025,0.20342,-0.98288,0.096822,-23.16,27.84,-13.26
-3.2961,-1.1169,-0.76274,0.086132,0.30116,-0.13561,-23.88,27.9,-12.24
-2.3427,-2.7377,-0.027241,-0.135,0.71288,-0.1069,-24.48,27.78,-11.16
0.43585,-9.2891,1.0215,-0.17135,0.97708,0.092852,-26.1,27.42,-9.36
2.9148,-16.249,0.38137,-0.27886,1.1032,0.51343,-26.7,27.12,-8.82
5.6524,-19.327,1.3076,-1.3216,1.4939,1.1616,-27.36,26.76,-8.4
7.2733,-19.532,3.8001,-1.1399,2.0256,1.7309,-28.38,26.22,-7.98
6.674,-16.916,3.0237,-0.94318,1.6466,1.4963,-28.86,25.98,-7.92
6.0066,-14.41,2.3836,-0.63774,1.3576,0.82222,-29.1,25.8,-7.86
3.2553,-8.4446,0.99429,-0.20128,1.1842,0.069333,-29.58,25.5,-8.1
2.4925,-7.6955,-0.095342,0.14447,1.0638,-0.51649,-29.76,25.32,-8.22
1.9886,-7.2596,-1.5391,0.1857,0.78679,-0.87384,-29.7,24.66,-8.76
0.98067,-6.3471,-2.0567,0.072998,0.46334,-0.70005,-29.58,24.3,-9.12
0.28603,-5.8431,-2.2201,-0.090713,0.25137,-0.32132,-28.98,24.12,-9.42
-0.39499,-5.1757,-2.3972,-0.2813,0.35583,0.1011,-28.44,23.94,-9.6
-0.85808,-4.127,-2.833,-0.45815,0.72326,0.43524,-27.66,23.7,-9.78
-0.77636,-2.6423,-1.9477,-0.55925,1.1215,0.61697,-25.62,23.4,-10.02
-0.12258,-3.0918,-0.8036,-0.45173,1.2645,0.68661,-24.42,23.34,-9.9
2.0294,-6.3471,0.16344,-0.0033598,0.93921,0.73731,-21.78,23.52,-9.6
5.1485,-14.669,0.53119,0.29291,0.65943,0.76328,-20.34,23.46,-9.36
6.7693,-18.319,-1.866,1.0449,-0.23702,1.0718,-19.02,23.22,-9.12
8.6489,-19.382,-2.2474,1.1277,-0.89797,1.2239,-17.4,23.1,-8.64
5.7342,-15.391,-2.9148,0.76144,-1.3583,0.76725,-14.28,22.74,-8.1
2.9692,-10.283,-1.58,0.34911,-1.5113,-0.073915,-12.6,22.74,-7.74
-1.1169,-7.3686,-2.9011,0.63408,-1.4242,-1.1106,-11.1,22.86,-7.38
-2.0158,-8.7715,-4.127,0.91508,-1.2709,-1.5983,-8.34,23.04,-6.6
-2.438,-8.8396,-4.2223,0.31948,-1.0186,-1.3512,-7.14,23.22,-6.3
-2.8058,-7.8453,-4.4402,-0.12065,-0.87354,-0.72846,-6.06,23.46,-5.82
-4.0861,-4.0997,-5.6388,-0.35186,-0.51099,-0.08491,-4.38,23.94,-4.86
-4.1951,-2.3836,-5.2983,-0.58765,0.28222,0.32956,-3.54,24.3,-4.26
-3.4732,-0.72188,-4.7671,-0.73243,0.95784,0.44838,-2.82,24.54,-3.6
-0.8036,0.040861,-3.9908,-0.64232,0.54459,0.17196,-1.56,25.32,-2.64
-0.35413,-1.471,-2.833,-0.54795,0.079107,0.080023,-0.96,25.74,-2.1
-0.39499,-4.0725,-1.2803,-0.42608,-1.0534,-0.065973,-0.54,26.22,-1.74
0.42223,-10.433,1.757,-0.34544,-1.2318,0.082161,-0.06,27.0,-0.9
3.0373,-17.516,2.7377,-0.11332,-1.1496,0.3824,-0.06,27.3,-0.6
8.322,-19.504,2.2882,-1.325,-0.54795,0.94623,0.36,27.9,-0.06
7.3686,-17.516,1.6481,-0.85491,-0.58979,0.92271,0.48,28.32,0.24
6.279,-13.607,2.0839,-0.9841,-0.64538,0.84086,0.6,28.74,0.54
1.1169,-7.5048,2.3836,-0.99999,-0.18509,-0.14111,0.84,29.34,1.02
-1.3757,-7.0417,1.1032,-0.7138,0.73029,-0.90439,0.72,29.7,1.38
-2.7649,-7.0962,-0.31327,-0.77549,2.1588,-1.4087,0.6,29.94,1.68
-1.5391,-5.4073,-0.53119,-1.2107,3.6191,-1.3806,0.42,30.36,2.28
-0.44947,-3.5004,-0.47671,-1.3955,3.6658,-1.0058,-0.42,30.48,2.7
0.068102,-2.5198,-0.8036,-1.3244,2.9404,-0.51221,-1.08,30.66,3.18
1.2803,-0.85808,-1.3757,-0.99296,1.8305,-0.20586,-2.1,30.78,4.32
1.6344,-1.9886,-1.1577,-0.46914,0.74862,-0.027489,-2.88,30.84,5.04
1.9477,-4.2904,-0.40861,0.1182,-0.12981,0.20311,-3.42,30.78,5.76
3.7592,-14.397,0.7355,0.77672,-0.80359,0.51435,-4.68,30.36,7.56
5.5707,-18.891,0.7355,1.4829,-1.3115,1.4529,-5.1,30.12,8.52
6.6059,-19.382,-0.64016,1.8082,-1.1335,1.7284,-5.46,29.76,9.54
7.3414,-18.851,-4.1678,2.3457,-1.627,1.6414,-5.76,29.52,10.44
5.0668,-11.673,-4.3721,1.6997,-2.4884,0.82925,-6.0,28.92,12.18
1.7025,-8.8941,-3.1872,1.4142,-2.8802,-0.40409,-5.82,28.74,13.02
-1.9341,-9.1801,-2.6423,1.4224,-2.8619,-1.2352,-5.4,28.44,14.64
-2.6968,-10.025,-2.4789,0.81856,-2.0281,-1.4065,-4.98,28.2,15.54
-3.5004,-11.128,-2.8194,0.56902,-1.6732,-1.2926,-4.44,28.08,16.26
-3.4051,-10.474,-5.1213,-0.20708,-0.37415,-0.7984,-3.06,27.78,17.64
-3.2416,-7.9543,-5.1349,-0.45845,0.78252,-0.37965,-2.16,27.66,18.3
-2.1248,-2.5742,-4.0316,-0.40409,1.4282,0.037263,-0.24,27.48,19.5
-1.5119,-1.3212,-3.9635,-0.31337,1.1976,0.058032,0.78,27.24,20.1
-1.2531,0.39499,-3.8546,-0.091019,-0.048869,-0.10018,2.82,26.94,21.42
-1.58,2.0294,-2.8875,-0.011912,-0.5171,-0.16188,4.02,26.7,22.32
-1.4438,-0.35413,-1.8796,0.20525,-1.3757,-0.29047,5.28,26.46,23.1
-1.2531,-4.2223,-1.0488,0.32132,-1.9572,-0.18631,6.54,26.28,24.12
-0.39499,-11.809,1.8251,0.21411,-1.3998,0.17165,9.96,25.92,26.58
1.7025,-18.088,2.8194,0.12645,-0.31582,1.003,12.12,25.98,28.2
8.322,-19.504,3.7728,-0.14936,1.1484,2.0901,17.1,26.22,32.16
8.9213,-18.864,3.6094,-0.52962,1.7284,2.4725,19.86,26.22,34.38
7.7364,-15.568,4.018,-1.0843,1.011,1.7987,22.8,26.1,36.78
3.6094,-9.1665,2.4789,-0.50916,0.31918,0.02474,29.04,25.74,41.76
1.8932,-9.9156,0.83084,0.18601,0.79565,-1.0947,32.28,25.68,44.34
1.362,-11.319,-0.44947,0.37415,1.6484,-1.7373,35.52,25.5,46.68
1.6481,-9.7658,-1.6753,0.28619,1.653,-1.5088,41.28,25.68,51.0
1.757,-8.7851,-2.4517,-0.027794,0.67409,-0.79351,43.92,25.92,52.92
1.1032,-6.4152,-2.8467,-0.22388,-0.35552,-0.10079,46.32,25.98,54.9
-1.4029,-3.1054,-2.833,-0.38851,-0.70127,0.35094,50.76,25.8,57.66
-2.4108,-2.152,-2.3291,-0.5284,-0.26481,0.56963,52.74,25.56,58.8
-2.6832,-1.7298,-1.6208,-0.66187,0.62858,0.59651,54.42,25.14,59.7
-1.5391,-3.2144,-0.57205,-0.81825,1.8637,0.52534,57.24,24.36,61.44
-0.99429,-4.1542,-0.095342,-0.8717,2.3509,0.41478,58.38,24.18,62.52
0.10896,-5.7205,0.7355,-0.68845,2.5806,0.30849,59.04,24.48,63.78
3.4051,-12.19,1.6617,-0.36744,2.186,0.29505,58.68,25.74,67.32
5.8023,-17.611,1.2258,-0.045509,1.1539,0.416,57.9,27.06,69.36
7.6955,-19.286,0.38137,0.085216,-0.016799,0.60781,56.82,28.5,71.64
5.5843,-16.126,-1.6481,0.98685,-1.3308,0.34667,54.9,31.62,75.78
3.3642,-11.114,-3.4187,1.4337,-1.949,-0.1741,54.24,33.12,77.52
2.4517,-10.147,-3.8818,1.5492,-2.3298,-0.70891,54.0,34.86,79.08
-0.12258,-10.924,-4.0044,1.4175,-2.4847,-1.0101,53.52,38.52,81.72
-1.0488,-11.005,-3.7592,1.029,-2.3561,-0.97586,53.58,40.44,82.74
-1.9613,-10.637,-3.4868,0.56872,-1.8873,-0.62889,53.7,42.48,83.52
-2.547,-9.5479,-3.6775,0.15852,-1.0602,-0.1741,54.6,46.38,84.0
-2.2882,-8.4719,-3.8818,-0.28314,0.44776,0.31215,55.32,47.94,83.76
-1.8524,-6.9328,-3.9635,-0.63897,1.2086,0.36194,56.58,49.32,83.34
-1.6481,-2.9284,-2.547,-0.91538,1.587,0.18692,61.2,51.3,82.08
-1.6344,-1.076,-1.866,-1.0211,1.653,-0.11973,64.5,51.66,81.96
-1.9341,-1.076,-0.91256,-0.94318,1.4331,-0.40073,68.28,52.14,82.26
-1.58,-1.6072,-0.24517,-0.77427,1.1222,-0.52565,76.2,53.94,86.04
-0.8717,-3.3097,-0.081722,-0.59987,0.84391,-0.405,79.8,55.8,89.76
0.8036,-8.7034,0.6674,-0.50793,0.78282,-0.014966,82.56,58.8,94.92
4.3449,-18.551,2.7377,-0.69333,0.9615,0.7083,83.82,69.0,108.78
6.1019,-19.477,3.6775,-0.5455,1.445,1.3748,81.54,76.32,116.58
6.6331,-19.246,3.3915,-0.51282,1.605,1.6741,77.82,84.48,124.44
4.6854,-13.007,2.0022,-0.47159,1.4972,1.3393,66.72,102.78,140.04
3.7728,-9.9292,1.7434,-0.15699,1.5189,0.12584,60.48,112.56,147.6
2.5742,-8.717,1.5119,0.0039706,1.5681,-0.2587,53.58,122.22,154.62
0.8717,-9.5887,0.47671,0.20464,1.9639,-1.0431,38.58,140.82,166.38
0.58567,-8.9213,0.10896,0.055894,2.2129,-1.1026,30.24,149.46,170.4
0.81722,-8.3084,-0.027241,-0.089186,2.2956,-0.85521,21.42,157.44,173.28
0.81722,-7.6002,-0.095342,-0.2025,2.3335,-0.30665,3.12,170.58,174.42
0.83084,-6.9872,-0.16344,-0.25168,2.3378,0.61453,-6.0,175.62,172.56
1.1032,-4.9033,0.14982,-0.197,2.2715,0.83108,-14.34,179.1,168.72
1.3212,-4.0861,0.76274,0.0097738,1.77,1.128,-27.12,181.02,156.54
1.4438,-4.6037,1.5391,0.23457,1.3042,1.1173,-30.54,179.22,148.74
1.4846,-6.5922,2.0158,0.43921,1.0342,1.0974,-32.34,176.04,140.22
2.7922,-12.286,2.1384,0.59407,1.1597,1.1811,-32.28,166.86,121.98
5.1213,-18.605,2.4108,0.88148,1.7987,1.5223,-31.32,161.28,112.5
6.8647,-19.504,1.7025,0.92516,2.4771,1.5119,-28.02,149.76,93.6
7.2596,-19.532,0.35413,0.87415,2.631,0.99052,-25.68,144.18,84.9
6.4424,-17.38,-1.3484,0.74862,2.0876,-0.15302,-22.92,139.14,76.98
3.6911,-11.101,-3.6094,0.84696,1.182,-1.3699,-16.8,129.6,63.54
1.471,-9.9973,-3.051,1.0519,0.34544,-2.1276,-13.38,125.4,57.96
-1.8524,-10.311,-2.2882,0.68875,0.19334,-2.1557,-6.66,117.24,49.02
-2.833,-9.4117,-2.2746,0.10904,0.74923,-1.595,-3.42,113.46,45.66
-2.6696,-8.6625,-2.9284,-0.33262,1.6304,-0.8207,-0.24,109.92,43.08
-1.4029,-6.7966,-3.9499,-0.52015,2.6594,-0.074831,5.04,103.38,40.14
-0.24517,-6.1292,-3.8001,-0.50519,3.3582,0.48136,7.26,100.5,39.96
1.0351,-5.7478,-3.2144,-0.39828,3.3882,0.73182,9.06,97.8,40.32
2.2065,-5.1485,-2.9011,-0.31734,2.8601,0.72571,11.76,93.6,42.24
2.547,-4.8761,-2.942,-0.054978,1.5385,0.40623,12.66,91.86,43.62
2.9965,-5.1076,-3.2689,0.25381,0.58002,0.17196,13.26,90.54,45.06
2.3836,-8.431,-3.6775,0.41417,-0.21136,-0.028405,14.58,88.38,47.58
1.8932,-10.392,-3.0918,0.35888,-0.56261,-0.065363,15.3,87.96,48.48
2.0294,-13.253,-2.3836,0.27458,-0.46395,0.087965,16.02,87.72,49.2
2.3155,-18.387,-2.1384,-0.10263,0.33903,0.52931,18.0,89.16,50.52
2.0567,-16.794,-1.0896,-1.697,1.2318,0.5452,19.38,90.42,51.6
1.8796,-13.116,1.0215,-2.1741,2.0608,0.28436,20.94,92.46,53.1
1.7162,-10.556,2.5334,-2.2187,2.3723,0.024435,23.04,95.16,55.5
1.471,-10.46,2.2882,-1.9484,3.0058,-0.98013,25.98,98.52,58.68
0.85808,-11.346,0.8036,-1.711,3.3482,-1.4371,35.28,106.56,66.42
1.6617,-11.387,1.2395,-1.5207,3.5592,-1.6429,40.98,110.52,70.02
2.3155,-10.351,1.2258,-1.394,3.1117,-1.5339,47.04,114.3,72.9
1.9477,-8.1041,-0.1362,-1.1527,2.1594,-1.288,58.68,120.06,76.32
1.3893,-7.927,-0.50395,-0.86682,1.2605,-1.0452,63.9,122.04,76.8
0.92618,-7.9951,-0.36775,-0.58857,0.59376,-0.75014,68.4,123.36,76.44
0.69464,-8.9349,-0.16344,-0.53298,0.56963,-0.59956,75.36,124.32,74.7
0.69464,-9.221,-0.068102,-0.58032,0.73487,-0.45601,77.82,123.78,73.38
0.095342,-8.9349,0.35413,-0.65271,1.047,-0.31887,81.0,120.84,69.54
0.20431,-8.6489,0.31327,-0.68814,1.6808,-0.048258,81.72,118.44,67.02
0.54481,-8.6625,0.19068,-0.67562,1.8448,0.050396,81.66,115.44,63.42
1.7434,-8.7715,0.20431,-0.54123,1.8415,0.37293,78.0,107.34,53.76
1.8796,-8.9349,0.19068,-0.45021,1.5308,0.5962,74.34,102.72,48.24
1.8932,-9.221,0.25879,-0.41233,1.2733,0.78679,69.9,98.1,43.02
1.7025,-9.4389,0.29965,-0.40745,1.1985,0.98594,60.3,89.76,34.98
1.7162,-9.7113,0.16344,-0.4215,1.2361,1.0366,55.68,86.22,32.1
1.6208,-9.9701,0.21793,-0.51404,1.4887,1.1866,51.36,83.22,30.18
1.6344,-10.42,0.70826,-0.5846,1.8079,1.295,44.58,78.18,28.62
1.9205,-12.027,1.2395,-0.53054,2.1945,1.4239,41.94,76.14,28.44
2.8603,-13.648,1.076,-0.47434,2.5717,1.5812,39.78,74.16,28.74
4.3585,-10.937,0.14982,-0.29932,2.6844,1.6393,36.42,70.8,30.0
5.4754,-9.3844,-0.42223,0.39798,1.7089,1.4041,35.16,69.36,30.66
5.7342,-9.6023,-0.92618,0.93004,0.3882,1.0208,33.9,67.8,31.5
4.3177,-11.768,-1.8524,1.2428,-0.87934,0.6408,32.28,65.16,32.7
2.9284,-11.931,-1.7979,1.0944,-1.379,0.40195,31.5,63.9,33.24
1.2667,-11.291,-1.2122,0.56933,-0.99693,0.32895,31.14,62.76,33.54
-1.3076,-8.5127,-0.40861,-0.28161,0.91019,0.36102,30.0,60.42,33.9
-1.4301,-7.5729,-0.47671,-0.55467,2.3289,0.25412,29.46,59.34,34.02
-0.64016,-6.9872,-0.61292,-0.59865,2.8943,0.1686,28.86,58.32,33.96
1.6072,-7.1507,-0.81722,-0.71532,3.8491,0.1295,27.36,56.28,34.14
2.7513,-7.1643,-0.85808,-0.72143,3.8686,0.21441,26.28,55.14,34.2
3.6094,-7.1915,-0.81722,-0.60567,3.416,0.34636,25.32,54.24,34.02
4.018,-7.8181,-0.83084,-0.41111,2.3121,0.40989,22.98,52.8,33.42
4.1814,-8.0632,-0.83084,-0.0058032,1.6283,0.37477,21.66,52.08,33.06
4.1951,-8.7443,-1.2939,0.146,1.3268,0.34911,20.64,51.42,32.88
3.8546,-9.1937,-2.1112,0.54184,0.60079,0.17501,18.12,50.28,32.1
3.5685,-9.1801,-2.4653,0.76114,0.18876,-0.0033598,17.04,49.98,31.8
3.6639,-9.2891,-2.7922,0.90378,-0.3094,-0.19945,15.66,49.56,31.68
3.732,-9.4798,-2.8603,0.94501,-1.1903,-0.39095,13.32,48.96,31.08
2.9692,-9.2755,-2.6287,0.80084,-2.6273,-0.50549,12.3,48.72,30.6
1.4438,-8.9758,-2.656,0.67837,-2.6139,-0.50121,11.34,48.54,30.18
-1.0624,-8.826,-2.5742,0.53115,-1.8295,-0.44715,9.72,48.36,28.62
-1.2258,-8.9894,-2.4925,0.39706,-0.74923,-0.43005,9.18,48.48,27.72
-0.65378,-9.4525,-2.3155,0.22144,0.22694,-0.4105,8.46,48.54,26.82
0.24517,-9.4253,-2.2882,0.0042761,0.91447,-0.35064,7.32,48.66,24.72
0.50395,-9.4525,-1.9886,-0.20433,1.4419,-0.32742,7.08,48.66,23.52
0.53119,-9.4798,-1.6481,-0.23518,1.5488,-0.31734,6.54,48.9,22.32
1.5936,-11.06,-1.6344,-0.047953,1.6277,-0.21411,5.58,49.26,20.22
2.7649,-12.572,-2.5334,0.088575,1.1774,-0.031765,5.16,49.26,19.14
3.9499,-13.471,-2.7649,0.028405,0.40561,0.15944,4.74,49.38,18.06
2.8603,-10.665,-0.10896,-0.21564,-0.30818,0.21136,3.54,49.62,16.14
1.9886,-9.9973,0.76274,-0.42883,-0.75442,-0.17837,2.94,49.62,15.36
0.40861,-11.768,1.0624,-0.45907,-0.70921,-0.34819,2.22,49.62,14.52
0.095342,-12.762,1.3212,-0.78557,0.01741,-0.65882,0.84,49.44,13.14
0.76274,-12.231,2.1929,-1.0171,0.31857,-0.6692,0.84,49.38,12.54
0.96704,-11.427,2.7649,-1.1096,-0.12767,-0.55405,-0.84,49.38,11.94
-0.7355,-10.379,1.9205,-1.1072,0.70799,-0.33659,-2.7,48.78,11.16
-0.095342,-8.8668,2.3699,-0.87201,1.6887,-0.17807,-3.6,48.54,10.8
0.10896,-9.1529,2.5061,-0.77244,1.682,-0.18845,-5.7,47.94,10.08
0.92618,-9.1256,2.3699,-0.60842,1.8708,-0.097433,-6.54,47.58,9.9
1.5119,-8.9486,2.1248,-0.44104,1.7028,0.038179,-7.56,47.28,9.66
1.9886,-8.7987,1.8115,-0.22969,1.3601,0.088881,-8.7,47.04,9.42
2.0703,-8.431,1.1986,0.020464,0.9053,0.10446,-10.5,46.44,8.82
1.8932,-8.2267,0.98067,0.34819,0.5061,0.12156,-11.4,46.32,8.46
1.471,-8.1586,0.027241,0.49999,0.50427,0.17013,-13.2,45.78,7.86
1.58,-8.0632,-0.50395,0.57513,0.57635,0.2532,-14.04,45.6,7.5
1.7706,-7.8181,-0.81722,0.34728,0.79993,0.2813,-14.64,45.3,6.96
-3.514,-12.408,-4.5764,-2.0641,3.3961,0.2135,-15.3,44.94,6.54
1.4029,-5.2166,2.0294,-0.79443,4.7324,0.88178,-16.2,44.7,5.4
6.6059,-1.9341,1.1441,0.20281,2.5763,0.73426,-16.62,44.7,4.68
4.0861,-5.6388,-1.2122,-0.13317,1.1426,0.042761,-16.86,44.52,3.18
6.6059,-3.228,0.12258,1.4844,-1.2367,0.15211,-16.92,44.46,2.4
5.6661,-4.7263,-2.9148,1.3515,-2.6924,-0.18082,-17.04,44.4,1.62
1.1986,-8.1313,-0.57205,0.17013,-1.6313,0.61209,-17.4,43.98,0.24
1.076,-7.0281,-0.58567,-0.03207,-0.3036,0.53451,-17.82,43.92,-0.3
0.70826,-7.0145,-0.17706,-0.30177,1.5253,0.38393,-18.42,43.56,-1.2
2.3018,-8.0224,0.027241,-0.51526,2.2746,0.19853,-18.48,43.44,-1.68
3.1599,-7.9679,0.027241,-0.62461,2.5571,0.092852,-18.78,43.32,-2.22
3.8682,-7.8998,-0.19068,-0.63774,2.5546,0.06017,-19.14,43.32,-2.76
4.2223,-7.4912,-1.0488,-0.56291,2.1112,0.021686,-19.44,43.32,-3.96
3.6775,-7.069,-0.6674,-0.42638,1.6142,-0.027184,-19.74,43.26,-4.44
2.8603,-7.8589,-0.62654,-0.13286,0.98838,-0.13439,-20.58,42.9,-4.98
1.5527,-9.8066,0.095342,0.06689,0.82558,-0.15577,-21.12,42.6,-5.46
2.3291,-13.511,0.24517,0.56566,0.68234,0.000916,-21.66,42.36,-5.88
3.9227,-17.57,-1.5119,1.0369,0.14905,0.32956,-22.14,42.06,-6.36
7.8589,-19.137,-5.7342,1.0201,-0.7816,0.51679,-22.74,41.34,-7.26
6.8919,-15.282,-4.9306,0.68875,-2.6389,0.33598,-23.16,40.8,-7.8
-0.8036,-12.108,-0.72188,0.31887,-4.3374,-0.28894,-23.7,40.32,-8.34
-5.1894,-10.883,0.068102,-0.17043,-4.3863,-0.80695,-25.32,39.12,-9.3
-7.4912,-9.5479,0.25879,-1.2178,-1.471,-0.62125,-26.4,38.52,-9.42
-6.0611,-9.1256,-0.46309,-1.5165,0.94654,-0.29413,-27.66,37.8,-9.6
-1.0079,-9.902,-1.2803,-1.8561,2.6267,-0.11179,-30.54,36.36,-9.78
1.6889,-9.4525,-0.62654,-2.0656,3.4541,0.033292,-31.92,35.64,-10.02
3.3506,-8.2403,-0.054481,-1.6078,2.8133,0.32345,-35.1,34.5,-11.46
4.6173,-6.9055,-0.25879,-1.1735,1.6167,0.26389,-36.84,34.2,-12.24
4.0861,-6.17,-0.35413,-0.94195,0.9896,0.18662,-38.76,33.9,-13.26
3.514,-5.6797,-0.47671,-0.36805,-0.48167,-0.11545,-40.92,33.78,-14.16
1.6753,-4.3177,-0.81722,-0.11515,-0.96975,-0.24557,-46.02,33.84,-16.08
1.0896,-3.4868,-0.98067,0.07758,-1.2425,-0.31185,-48.66,33.84,-16.98
0.76274,-2.833,-1.2939,0.19517,-1.5553,-0.30299,-51.78,34.02,-17.94
0.040861,-1.2395,-0.70826,0.23274,-2.0189,-0.28191,-58.26,34.08,-19.56
-0.068102,-0.68102,-0.70826,0.25412,-2.1738,-0.34911,-61.5,34.08,-20.58
0.46309,-1.7298,0.88532,0.47617,-2.3778,-0.49663,-64.98,33.9,-21.42
2.1929,-8.431,2.0294,0.72143,-2.7077,-0.50977,-72.24,32.46,-23.28
3.4459,-16.031,1.866,0.79871,-2.8515,-0.10293,-75.84,31.2,-24.06
3.7728,-19.096,2.3836,0.30452,-1.9981,0.77855,-79.5,29.76,-24.48
4.699,-19.532,4.127,-0.76297,1.0666,1.9716,-86.82,26.28,-25.08
4.4811,-18.306,4.6718,-1.6603,2.471,1.9001,-90.24,24.66,-25.38
2.7377,-11.087,4.2495,-1.8176,3.463,1.1301,-96.54,21.96,-26.52
2.438,-8.9758,2.9829,-1.0504,3.8802,0.053451,-98.94,20.94,-27.36
3.1191,-8.7715,-0.095342,-0.14661,3.8106,-0.88698,-102.42,18.96,-29.82
4.7263,-10.038,-0.83084,0.52321,3.1478,-1.4465,-103.38,16.92,-33.12
4.0861,-9.2891,-1.4846,0.6576,1.8152,-1.3512,-102.9,14.7,-36.36
1.8932,-7.8453,-1.9068,0.48411,-0.57941,-0.6521,-101.34,13.8,-38.94
0.23155,-6.7012,-2.2337,0.36621,-1.4242,-0.2303,-99.36,14.04,-40.86
-0.17706,-6.279,-2.5334,0.23793,-1.4316,0.19334,-98.16,14.46,-41.34
-0.35413,-5.7205,-2.8739,0.079718,-0.85949,0.60079,-95.58,15.0,-41.88
-0.21793,-5.1621,-2.9556,-0.15272,-0.096517,0.84788,-92.64,14.76,-41.1
0.43585,-4.413,-2.656,-0.45571,0.59407,0.89492,-90.24,13.68,-39.54
0.72188,-4.1542,-1.866,-0.79993,1.4774,0.72785,-88.26,12.84,-37.32
1.6889,-5.2983,-0.62654,-0.77763,1.846,0.48533,-86.7,12.18,-35.28
2.4789,-7.0417,-0.081722,-0.686,1.9151,0.3708,-85.62,11.88,-34.44
3.228,-8.7987,0.57205,-0.20892,1.8665,0.20495,-82.5,11.16,-33.54
5.1894,-17.666,-0.85808,0.11851,1.5687,0.45173,-80.7,10.74,-33.24
7.7364,-19.477,-2.3427,0.002138,1.5049,0.72693,-76.26,9.84,-32.94
7.8045,-13.266,-3.3506,0.76847,0.29199,0.84696,-71.76,9.12,-32.76
7.1915,-11.468,-3.0237,0.95661,-1.0815,0.42852,-69.6,8.88,-32.7
5.1485,-9.507,-2.8467,1.2104,-2.4664,-0.26664,-65.58,8.82,-31.98
3.051,-9.7249,-2.9556,1.3396,-3.5244,-0.85063,-62.22,8.88,-30.66
-0.12258,-8.9077,-3.0237,1.0751,-3.8191,-1.0553,-60.84,9.12,-29.4
-1.3757,-8.0632,-3.0373,0.65576,-3.3869,-0.91324,-58.8,9.96,-26.1
-2.9284,-6.1428,-3.4323,0.31673,-2.4743,-0.62094,-57.96,10.92,-21.72
-2.9965,-4.304,-3.9363,0.11423,-0.83047,-0.17013,-58.38,12.48,-16.56
-1.6208,-1.9886,-3.7456,-0.12889,-0.26084,0.036041,-59.52,14.28,-11.64
-1.0896,-0.95342,-3.5413,-0.26542,-0.35766,0.063835,-60.06,15.06,-9.12
-0.095342,0.91256,-2.9011,-0.2584,-0.97128,-0.058948,-61.74,16.5,-4.26
-0.21793,-1.757,-1.7025,-0.097738,-1.6277,-0.2697,-63.18,17.52,-2.04
-0.28603,-3.8682,-1.076,-0.097738,-1.7956,-0.37232,-63.9,17.76,2.22
0.12258,-10.542,0.88532,-0.30024,-1.4123,-0.28344,-65.22,18.18,5.94
1.8932,-18.347,2.5742,-0.67867,-0.16677,0.43646,-66.36,17.88,8.7
3.4868,-19.382,3.2689,-1.766,1.336,1.15,-67.02,17.76,9.66
5.7614,-19.532,3.5549,-2.2941,3.0885,1.5653,-68.4,17.52,11.16
6.7421,-15.473,3.1463,-2.0772,3.8628,1.6405,-69.6,16.98,11.88
5.7069,-11.264,2.6151,-1.7736,3.7999,1.084,-70.92,16.74,12.06
4.9306,-9.7522,2.0431,-0.70188,2.7862,-0.44104,-71.64,16.62,11.94
4.0044,-9.1937,-0.85808,0.092852,2.0495,-1.2037,-72.36,16.26,11.16
4.4266,-9.398,-3.1054,0.47983,1.1949,-1.5342,-72.66,15.96,10.32
4.0725,-8.4446,-3.5413,0.38149,-0.16218,-1.3323,-72.48,15.6,9.84
1.757,-6.8919,-2.656,0.096822,-1.3311,-0.82833,-72.24,15.24,8.94
-1.8796,-4.5083,-2.3155,-0.20067,-1.6225,-0.2865,-71.34,15.0,9.0
-3.1191,-1.866,-3.1599,-0.5003,-1.065,0.21075,-69.96,14.94,9.66
-2.9011,-1.0624,-3.3506,-0.70769,0.52809,0.66951,-69.12,14.76,10.2
-1.6617,-0.55843,-3.514,-0.84055,1.2761,0.68539,-67.56,14.16,11.46
0.36775,-2.4244,-2.2882,-0.83017,1.4826,0.63683,-65.64,13.5,13.02
1.3484,-4.6718,-1.2667,-0.72082,1.4645,0.60751,-64.74,13.02,13.86
2.5334,-10.12,0.34051,-0.48381,1.4346,0.59804,-62.7,12.18,15.36
4.1542,-18.987,0.1362,0.036957,2.1435,1.0684,-60.42,11.7,16.68
5.489,-19.395,0.51757,-0.52443,3.2562,1.573,-59.1,11.52,17.22
9.2755,-16.467,-2.4108,0.063225,3.2941,1.6081,-56.76,11.34,17.46
11.182,-9.0167,-4.2223,0.45968,1.5565,1.482,-54.66,11.28,16.56
10.556,-6.8374,-4.3449,1.2275,-1.6808,0.50244,-53.58,11.28,16.26
8.4582,-7.8862,-3.2416,2.1319,-5.0589,-0.49847,-51.54,11.94,15.6
0.14982,-10.896,-0.70826,2.219,-6.7171,-1.2028,-49.2,12.36,15.84
-4.8488,-10.896,-1.4165,0.78527,-5.1181,-1.0165,-46.5,13.26,16.92
-5.4209,-10.188,-2.152,0.10293,-3.1032,-0.80848,-45.18,13.62,17.64
-4.8352,-7.8181,-4.2632,-0.16432,-1.0391,-0.70738,-42.72,14.7,19.32
-2.9284,-5.1485,-5.5435,-0.40439,0.84147,-0.551,-40.62,15.48,21.24
-0.39499,-1.3484,-5.0123,-0.61117,1.8473,-0.36866,-38.52,16.2,23.22
0.38137,1.2258,-4.6037,-0.63774,1.4948,-0.20861,-36.54,16.74,25.62
1.185,2.5198,-4.0861,-0.58124,0.019548,-0.31062,-35.82,16.74,26.76
-0.20431,0.35413,-3.051,-0.11454,-2.1747,-0.58124,-33.9,16.62,28.56
-0.76274,-6.0611,-1.2258,-0.093768,-2.5562,-0.49175,-32.04,16.74,29.88
-0.5993,-9.1937,-0.095342,-0.27947,-2.1411,-0.29749,-31.26,16.74,30.18
1.2803,-17.652,1.7706,-0.40348,-1.1515,0.051924,-29.7,16.68,30.36
3.8954,-19.477,2.3699,-1.2214,0.33811,0.5736,-28.26,16.44,30.48
4.7399,-19.518,2.656,-2.2507,2.0913,0.75381,-26.7,16.5,30.18
5.3119,-14.587,1.4438,-1.4868,3.3506,0.63499,-25.98,16.44,30.12
5.1076,-9.2482,2.3699,-1.244,3.2623,0.13806,-24.84,16.32,30.06
4.4402,-7.4095,2.0022,-0.62278,2.4868,-0.43188,-23.64,16.08,29.7
4.2495,-9.3572,-0.40861,0.22816,1.5192,-0.78069,-23.04,15.78,29.4
4.1678,-9.7658,-1.4165,0.58582,0.82833,-0.93462,-22.74,15.54,29.16
3.9499,-8.2812,-2.9284,0.65699,0.14997,-0.71441,-22.68,15.06,28.5
3.6503,-7.4912,-3.1191,0.62186,-0.77733,0.018631,-22.68,14.82,28.08
2.3427,-5.7205,-2.9011,0.51588,-1.087,0.44379,-23.1,14.52,27.66
1.6617,-5.2847,-2.9965,0.38026,-1.0632,0.69516,-23.4,14.16,27.18
0.38137,-3.8273,-2.9829,0.23976,-0.70188,0.77641,-23.58,14.1,26.88
0.19068,-2.942,-3.0373,0.091324,-0.13439,0.76755,-23.76,14.04,26.58
0.44947,-2.3836,-2.9148,-0.077274,0.42547,0.70983,-23.58,14.46,26.4
1.1032,-2.3427,-2.1384,-0.24038,0.94287,0.57208,-23.22,14.94,26.34
1.8251,-3.5413,-1.5936,-0.20403,1.0369,0.47617,-22.98,15.3,26.22
2.4789,-5.7886,-0.6674,-0.000611,0.99266,0.42089,-22.8,15.9,26.22
3.9499,-14.764,0.14982,0.50366,0.87659,0.54734,-22.32,16.62,26.4
5.1349,-18.347,-2.4108,1.1674,0.70585,1.0446,-21.96,17.04,26.16
8.8805,-19.463,-4.6854,0.53329,0.85063,1.6341,-21.54,17.88,26.22
8.5808,-15.01,-5.489,0.64294,-0.0067195,1.6628,-21.3,19.08,26.04
5.8567,-9.4117,-3.4732,0.18815,-0.99724,0.85368,-20.94,19.98,25.68
3.6775,-7.3005,-2.9556,0.44746,-1.9392,-0.60018,-20.76,20.46,25.56
1.2258,-8.3493,-2.7104,0.9444,-2.6429,-1.6897,-20.52,21.12,25.38
-1.0215,-11.605,-2.2746,0.77183,-2.3781,-2.1762,-20.52,21.78,25.26
-1.6617,-12.0,-2.5198,0.17593,-1.5293,-2.1295,-20.34,22.08,25.44
-2.261,-11.346,-3.5413,-0.52046,0.35125,-1.5696,-20.34,22.32,25.38
-1.757,-8.3357,-4.0997,-0.77091,1.6735,-1.1341,-20.4,22.44,25.56
-0.96704,-5.5026,-3.4187,-0.61728,2.5711,-0.551,-20.7,22.26,25.56
0.36775,-4.0044,-3.5958,-0.38943,2.7718,-0.036346,-21.06,21.66,25.68
0.61292,-3.7047,-3.1327,-0.28833,1.9016,0.36682,-21.24,21.36,25.68
0.62654,-2.3155,-3.3234,-0.11057,0.4612,0.62278,-22.02,20.82,25.8
-0.50395,-0.027241,-1.7298,-0.098349,-0.43768,0.39645,-22.68,20.34,25.5
-0.6674,1.362,-1.1441,0.13073,-0.85613,0.20067,-23.1,19.92,25.56
-0.89894,-0.25879,-0.76274,0.44654,-1.2068,-0.019853,-23.46,19.8,25.32
-0.72188,-5.2847,-0.20431,0.68386,-1.3653,-0.059559,-23.76,19.92,25.32
1.1169,-15.786,0.96704,0.69608,-1.1649,0.21075,-24.06,20.34,25.38
2.4925,-18.605,1.2803,0.34941,-0.50977,0.87812,-24.06,20.52,25.44
6.7421,-19.504,3.6775,-0.65118,0.64477,1.8323,-24.06,21.3,25.98
7.641,-19.532,3.8682,-1.5272,1.8958,2.5507,-24.12,22.38,26.64
6.851,-16.767,3.7728,-1.7226,2.1417,2.0165,-24.0,22.98,27.0
3.2961,-7.5729,2.2337,-1.0544,2.2672,0.94073,-23.64,24.06,27.78
2.4789,-6.6331,0.24517,0.21869,2.2074,-0.16616,-23.46,24.42,27.96
4.3449,-9.7658,-2.0703,1.3192,2.1194,-0.96578,-23.4,25.26,28.2
5.4618,-10.883,-2.9011,1.8332,1.6371,-1.303,-23.58,25.62,28.26
6.674,-10.978,-3.2553,1.6225,0.26053,-0.94531,-23.64,25.92,28.08
3.3778,-7.7364,-2.0839,0.76725,-2.0974,-0.036957,-24.0,26.34,27.66
-0.34051,-4.5764,-2.2746,0.42608,-2.6114,0.43738,-24.12,26.7,27.18
-1.1577,-3.8682,-2.547,0.19975,-2.2996,0.75625,-24.0,26.7,26.82
-2.0294,-2.9556,-3.0373,0.021686,-1.3247,0.85827,-23.64,26.82,26.46
-2.0839,-2.6015,-2.7241,-0.21869,-0.022297,0.85796,-23.46,26.76,26.16
-1.0624,-2.3427,-1.6072,-0.4383,1.6322,0.75075,-23.22,26.64,25.68
0.32689,-3.6094,-1.0215,-0.29444,2.1594,0.68234,-23.16,26.52,25.2
2.6151,-7.5048,-1.2531,0.056505,2.0281,0.66035,-22.98,26.76,24.96
5.7886,-14.805,-0.8717,0.34208,1.3036,0.80268,-22.74,27.24,24.36
6.8919,-18.02,-0.27241,0.62125,0.31215,1.0434,-22.38,27.54,24.12
8.2131,-19.504,-1.5255,0.76908,-0.6857,1.2245,-21.48,28.14,24.0
6.8783,-18.387,-1.6753,0.26695,-1.4948,0.82833,-21.06,28.44,24.0
4.2495,-12.449,-1.6753,0.19303,-2.3408,-0.57757,-20.64,28.74,23.76
0.50395,-8.6489,-1.6889,0.7816,-2.474,-1.3677,-19.92,29.22,23.64
-0.76274,-11.25,-1.9886,0.97525,-2.2199,-1.788,-19.56,29.34,23.4
-1.8796,-12.585,-2.0294,0.34819,-1.6784,-1.7556,-18.9,29.7,22.98
-2.152,-11.986,-2.0022,-0.29566,-0.88484,-1.4157,-18.54,29.88,22.56
-2.261,-11.4,-2.0839,-0.76877,0.068722,-1.0443,-18.18,29.82,22.32
-1.5663,-9.7522,-2.5879,-1.1573,1.511,-0.55222,-17.82,29.88,22.38
-0.43585,-7.2869,-2.9965,-1.0562,2.0717,-0.34086,-17.1,29.46,22.5
0.17706,-6.0611,-2.942,-0.81276,1.9691,-0.20189,-16.8,29.16,22.44
0.38137,-3.5004,-2.9965,-0.56291,0.82284,-0.11393,-16.02,28.5,22.32
0.040861,-2.0703,-3.337,-0.4612,-0.17623,-0.12248,-15.84,28.08,22.38
-0.78998,-0.7355,-3.3915,-0.41936,-0.8998,-0.16738,-15.48,27.72,22.32
-2.0567,-0.23155,-2.3155,-0.38576,-1.1478,-0.25504,-15.12,26.88,22.38
-2.6015,-1.8387,-0.92618,-0.36469,-1.0849,-0.29627,-14.88,26.58,22.44
-2.1112,-4.1951,0.69464,-0.37996,-0.73945,-0.22388,-14.52,26.34,22.68
0.10896,-9.4934,2.8603,-0.20983,-0.28436,0.11148,-14.28,26.16,22.98
3.8682,-18.837,3.4459,0.050702,0.21411,0.71105,-13.44,26.16,23.64
3.8682,-18.837,3.4459,-0.29077,0.62339,1.0699,-13.44,26.16,23.64
6.8647,-19.409,3.1463,-0.82192,1.6545,1.7672,-13.08,26.28,23.94
6.4697,-10.746,3.1327,-0.85704,1.31,1.5214,-11.94,26.52,24.36
4.5356,-7.1371,2.6423,-0.35186,0.71624,0.6689,-11.34,26.82,24.48
3.0101,-7.1507,1.4165,0.40378,0.26053,-0.21961,-10.56,27.18,24.96
0.96704,-8.0905,-0.89894,0.42425,0.67684,-0.97738,-9.3,27.72,25.5
0.54481,-6.8647,-1.3076,0.020769,0.92302,-0.94745,-8.76,28.14,25.68
0.54481,-5.8976,-1.5663,-0.25779,0.92424,-0.69852,-8.46,28.5,25.74
-1.471,-4.1814,-2.3155,-0.478,1.0217,-0.35064,-7.8,29.34,25.8
-2.0294,-3.6366,-2.6968,-0.70708,1.4313,-0.016188,-7.56,29.82,25.74
-0.8036,-3.514,-1.3484,-0.8827,2.0302,0.27092,-7.38,30.6,25.5
0.36775,-6.2109,-0.7355,-0.76664,2.405,0.55253,-7.56,30.9,25.14
1.1032,-8.1995,-0.068102,-0.52198,2.3854,0.73457,-7.74,31.26,24.96
4.5492,-18.823,0.23155,0.33414,2.3769,1.069,-8.4,31.98,24.48
6.8919,-19.45,0.027241,-0.6463,3.0809,1.4352,-8.76,32.46,24.12
8.1722,-19.518,-1.1441,-0.49114,3.9856,1.3876,-9.24,32.88,23.64
8.1995,-12.34,-3.9771,-0.45662,3.1881,1.1756,-9.72,33.18,22.8
6.96,-3.2825,-3.9227,0.085216,1.0568,-0.11851,-10.56,33.9,21.6
3.5413,-6.9464,-2.3427,1.4759,-1.532,-1.3903,-10.8,34.26,21.0
0.89894,-9.2482,-1.6344,1.7559,-3.0223,-1.6872,-11.04,34.74,20.52
-3.8001,-10.093,-2.2065,0.3882,-2.0522,-0.60781,-11.46,35.28,19.44
-3.1872,-8.717,-3.1327,-0.18479,-0.42852,0.14752,-11.7,35.64,18.9
-2.0703,-7.0553,-3.514,-0.30177,1.2254,0.73334,-11.82,35.82,18.36
0.96704,-5.5162,-2.0703,-0.2642,2.7165,1.2117,-11.82,36.66,17.28
2.3699,-5.2438,-1.6208,-0.25687,2.8048,1.2706,-11.7,36.9,16.56
3.5277,-4.9306,-1.5255,-0.19914,2.4429,1.2602,-11.58,37.32,15.9
4.3449,-4.8216,-1.9886,0.099266,1.2037,1.1008,-11.1,37.8,14.76
4.3858,-6.1155,-2.1248,0.3204,0.45204,0.99968,-10.68,38.04,14.34
4.3177,-7.5457,-2.2474,0.42791,-0.026267,0.91783,-10.56,38.46,13.98
3.6503,-9.6704,-1.7979,0.32345,-0.2138,0.77336,-9.72,39.3,13.32
3.1872,-9.9973,-1.7434,0.23488,-0.1182,0.69242,-9.3,39.78,13.08
2.6696,-9.5751,-1.4165,-0.19823,0.62858,0.20678,-8.82,40.2,12.6
1.3212,-8.4038,0.47671,-0.26786,1.1949,-0.2697,-7.74,41.58,11.64
1.0624,-9.3299,0.95342,-0.1295,1.5235,-0.73059,-7.26,42.12,11.04
1.1169,-11.346,1.2122,0.03879,1.4453,-0.87323,-6.84,42.96,10.38
4.7535,-18.633,1.2939,0.32773,0.55344,-0.20281,-6.0,44.16,9.0
6.4288,-19.423,0.40861,0.19975,-0.30085,0.62736,-5.7,44.82,8.28
6.3471,-19.518,0.9398,0.31734,-1.0571,0.89339,-5.22,45.42,7.44
2.8875,-14.669,0.65378,0.55467,-1.5098,0.47525,-4.5,46.86,5.94
-0.31327,-11.618,-0.35413,0.76022,-1.3735,-0.31734,-4.32,47.58,5.16
-2.3972,-10.665,-0.81722,0.81245,-0.73334,-1.0925,-4.02,48.24,4.44
-2.7377,-10.474,-0.47671,0.31612,0.57544,-1.3063,-3.9,49.38,3.36
-2.152,-9.1801,-0.76274,-0.10599,1.1603,-0.99999,-3.9,49.98,2.76
-1.757,-8.431,-1.185,-0.35216,1.5892,-0.55558,-3.9,50.52,2.52
-2.1656,-6.8647,-1.8251,-0.50244,2.117,-0.21961,-4.08,51.72,2.46
-2.5334,-6.2245,-1.3348,-0.69791,2.919,-0.025351,-4.02,52.14,2.52
-2.9011,-5.4209,-0.28603,-0.99143,3.828,0.089492,-3.84,52.5,2.82
-2.2882,-4.6309,0.32689,-1.1683,4.7904,0.1744,-3.42,53.7,3.96
-1.5255,-5.4209,0.34051,-1.2489,6.0008,0.20189,-3.18,54.18,4.86
-0.24517,-7.0009,0.74912,-1.3677,6.0952,0.20067,-3.18,54.72,5.7
3.0782,-9.1665,1.3484,-1.4514,5.3329,0.23976,-2.7,56.34,7.32
3.8001,-9.3844,1.1305,-1.5287,4.0565,0.31826,-2.4,57.06,8.04
3.4051,-10.065,2.0022,-1.4129,2.916,0.45815,-1.86,57.9,8.94
3.3778,-18.006,2.7104,-0.93462,2.2575,0.67042,-0.48,60.0,9.96
3.8682,-19.15,2.6423,-1.0718,2.5467,0.97189,0.36,60.96,10.5
4.5628,-15.214,2.152,-0.54367,2.4713,0.87262,1.56,61.86,10.86
4.8488,-7.7636,0.69464,0.21472,1.4893,0.37843,4.56,62.76,11.7
3.5685,-9.6296,0.081722,0.9896,0.0058032,-0.37202,6.12,63.12,11.88
1.5391,-12.258,-0.1362,1.266,-0.95081,-0.9163,7.56,63.18,11.52
-1.9205,-12.231,0.46309,0.86132,-0.73151,-1.0565,10.32,62.58,10.08
-2.0703,-11.223,0.50395,-0.1854,1.3625,-0.40775,11.64,62.16,9.12
-1.7434,-9.3844,0.27241,-0.45632,2.1273,-0.12675,12.96,61.5,7.98
0.19068,-7.0962,-0.24517,-0.70127,3.3252,0.20495,15.24,59.58,5.82
0.83084,-6.9464,-0.32689,-0.59407,3.3827,0.27275,16.38,58.5,4.86
2.8058,-7.4231,-0.84446,-0.40897,3.153,0.40287,18.0,55.74,2.88
3.3097,-7.355,-1.1441,-0.22297,2.7293,0.562,18.54,54.12,1.92
3.6775,-7.2733,-1.4165,-0.034208,2.1756,0.69608,19.02,52.5,1.14
3.5958,-7.2596,-1.6617,0.23976,1.3641,0.77336,19.44,49.74,-0.96
3.4732,-7.4776,-1.8387,0.41692,0.99785,0.78863,19.38,48.54,-2.16
3.4187,-7.641,-2.1929,0.56963,0.73884,0.79015,19.32,47.46,-3.24
3.0373,-7.8589,-2.8467,0.67226,0.56933,0.80268,19.38,45.96,-4.62
2.942,-7.7091,-2.9556,0.7083,0.50335,0.79229,19.44,45.18,-5.28
3.3097,-7.641,-3.5004,0.75533,0.38607,0.65393,19.8,44.1,-6.3
3.7047,-8.0224,-3.732,0.77946,0.26939,0.54947,20.28,43.5,-6.72
3.732,-8.4719,-3.8682,0.80573,-0.061697,0.29322,20.64,43.08,-7.32
2.7104,-10.351,-3.3642,0.65057,-0.50855,-0.10201,21.18,42.24,-8.76
2.261,-12.163,-2.6968,0.41722,-0.40928,-0.27672,21.48,41.76,-9.48
2.0431,-14.22,-2.2746,-0.011606,0.064141,-0.35003,21.84,41.64,-10.2
1.6072,-14.928,-0.85808,-1.127,1.2074,-0.52015,22.26,40.86,-12.12
1.2667,-13.116,0.61292,-1.6964,2.1579,-0.78099,22.44,40.56,-12.96
1.2803,-12.108,1.471,-1.8592,2.9609,-1.1341,22.62,40.38,-13.62
1.471,-12.122,1.0215,-1.8488,3.4767,-1.5715,22.92,40.14,-14.7
1.3484,-11.972,0.68102,-1.7492,3.755,-1.9771,22.98,39.9,-15.18
1.4438,-11.741,1.0488,-1.5644,3.8375,-2.2019,22.92,39.9,-15.54
1.8387,-10.542,0.78998,-1.2318,3.146,-2.2843,22.74,39.9,-15.96
1.6344,-9.7658,0.095342,-0.99174,2.1851,-2.2596,22.62,39.84,-16.02
1.58,-9.4389,-0.25879,-0.75961,1.2901,-2.1252,22.44,39.9,-16.32
1.5255,-9.507,-0.74912,-0.61606,0.7138,-1.9597,22.26,39.9,-17.04
1.2531,-9.3572,-0.78998,-0.58796,0.39584,-1.7294,22.02,39.9,-17.52
1.0624,-8.9213,-0.70826,-0.61453,0.3146,-1.5479,21.72,39.72,-18.12
0.95342,-8.7851,-0.36775,-0.6295,0.39248,-1.336,20.7,39.78,-19.74
0.95342,-8.5808,-0.44947,-0.71227,0.81306,-0.88362,19.92,39.54,-20.94
1.1305,-7.927,-0.57205,-0.7025,0.99266,-0.69944,19.08,39.48,-22.26
1.6208,-7.0962,-0.54481,-0.59437,1.4227,-0.098044,16.98,38.7,-25.74
2.0839,-7.0417,-0.44947,-0.48961,1.5149,0.27336,16.02,38.28,-27.48
2.7241,-7.3822,-0.47671,-0.37965,1.4193,0.64019,13.86,36.96,-31.2
2.9148,-7.4503,-0.43585,-0.27917,1.2043,0.9725,12.72,36.06,-33.18
3.1735,-7.8317,-0.58567,-0.15791,0.94837,1.2682,10.26,34.14,-37.02
3.623,-8.8668,-0.68102,-0.029627,0.70066,1.5513,9.18,33.06,-38.7
3.8273,-9.3572,-0.74912,0.075747,0.4496,1.7923,8.16,32.04,-40.02
3.9908,-9.6977,-0.8036,0.17654,0.1014,2.0125,7.2,30.84,-41.16
3.8682,-10.474,-1.5936,0.17623,-0.034514,2.0476,5.58,28.08,-43.02
4.0589,-10.447,-1.6072,0.12339,-0.03543,1.9285,5.04,26.7,-43.56
4.1542,-12.395,-1.1169,0.19609,-0.25717,1.8155,4.14,23.7,-44.34
3.9499,-14.506,-1.1032,0.17104,-0.20159,1.7639,3.6,22.14,-44.34
3.9227,-15.704,-1.2258,0.084605,-0.074526,1.7397,3.06,20.58,-44.58
4.3449,-14.002,-2.547,-0.28588,0.38026,1.5632,1.08,17.34,-45.06
4.0725,-10.215,-2.7649,-0.60262,0.47525,1.1915,-0.36,15.9,-45.48
3.2825,-7.1234,-2.3018,-0.65821,0.3259,0.58551,-2.22,14.7,-45.84
1.0896,-7.1098,-1.3212,-0.40409,-0.026267,0.039706,-7.86,12.66,-46.02
0.21793,-9.3299,-1.5119,-0.2865,-0.12889,-0.31398,-11.46,11.76,-45.42
-0.16344,-10.746,-1.2258,-0.70066,0.34361,-0.36011,-15.36,11.04,-44.58
-0.16344,-10.746,-1.2258,-1.2404,1.3094,-0.17807,-15.36,11.04,-44.58
-0.16344,-10.746,-1.2258,-1.2404,1.3094,-0.17807,-15.36,11.04,-44.58
-0.16344,-10.746,-1.2258,-1.2404,1.3094,-0.17807,-15.36,11.04,-44.58
-0.16344,-10.746,-1.2258,-1.2404,1.3094,-0.17807,-15.36,11.04,-44.58
-0.16344,-10.746,-1.2258,-1.2404,1.3094,-0.17807,-15.36,11.04,-44.58
-0.16344,-10.746,-1.2258,-1.2404,1.3094,-0.17807,-15.36,11.04,-44.58
2.9829,-6.9736,-0.99429,-0.54703,1.1744,-0.46273,-40.2,16.8,-24.06
2.547,-7.0962,-1.185,-0.30299,0.64202,-0.44227,-42.96,19.26,-16.44
1.8932,-7.1779,-1.2531,-0.096822,0.2584,-0.42119,-43.44,21.6,-8.28
1.757,-7.1643,-1.4438,0.06689,0.022602,-0.40378,-41.1,23.82,0.06
1.8524,-7.1915,-1.6481,0.30055,-0.20739,-0.37354,-39.18,24.96,3.54
2.3155,-7.355,-2.1248,0.49266,-0.39187,-0.37996,-34.14,26.58,9.42
2.7104,-7.6274,-2.7104,0.68845,-0.68783,-0.39248,-29.4,26.76,12.96
3.0646,-8.2131,-3.1599,0.82039,-1.1087,-0.37232,-24.9,26.58,15.78
3.0101,-8.5808,-3.7728,0.8885,-1.5696,-0.34636,-20.7,26.34,18.78
2.2474,-8.7987,-3.9908,0.85063,-1.9441,-0.27825,-17.04,26.58,20.88
1.0896,-8.3493,-4.4539,0.56413,-2.0265,-0.13928,-13.62,26.7,22.38
-0.43585,-6.96,-4.522,0.1967,-1.639,-0.091935,-10.26,27.06,23.58
-2.4108,-3.732,-3.8682,-0.25779,-0.89309,-0.12217,-6.9,27.06,24.72
-2.833,-2.3699,-3.5685,-0.67042,0.077274,-0.24496,-5.34,27.12,25.02
-3.0646,-0.29965,-3.0782,-0.89522,0.90378,-0.39126,-2.46,27.36,25.92
-2.8058,0.16344,-2.6015,-0.99449,1.5944,-0.61575,0.3,27.72,26.76
-0.68102,-2.5061,-1.7434,-1.0342,1.8253,-0.70463,1.62,27.66,27.12
0.43585,-4.8352,-0.55843,-1.0797,1.8494,-0.72296,2.88,27.78,27.54
1.1169,-6.8374,0.25879,-1.0125,1.7572,-0.5849,3.96,27.66,27.78
3.1599,-18.101,2.2474,-1.1066,1.6735,-0.091324,6.42,27.66,28.74
4.5356,-19.355,3.4459,-2.1783,2.003,0.8097,7.56,27.72,29.52
5.9249,-19.504,3.8954,-2.1469,3.1371,2.2956,9.78,27.42,31.32
7.355,-14.669,3.7456,-1.66,2.985,2.8488,10.68,27.06,32.46
6.565,-11.387,2.9556,-1.3528,2.6918,2.7596,11.46,26.88,33.66
5.5299,-8.322,1.5119,-0.55161,1.9288,2.1496,12.12,26.58,34.86
4.4539,-5.3528,-1.1713,0.89125,0.8937,0.99021,13.2,25.98,37.44
5.1894,-5.9249,-3.4187,1.5867,0.15119,0.42913,13.62,25.8,38.64
5.8023,-6.9464,-4.4402,1.8344,-1.0128,0.15913,14.04,25.68,39.66
3.7728,-6.3879,-3.0918,1.536,-2.3051,0.090408,14.64,25.92,41.64
1.4438,-4.5901,-2.6423,0.98655,-3.0949,0.26481,14.94,26.04,42.36
-0.054481,-3.2961,-2.4925,0.47403,-3.0485,0.53206,15.42,26.4,43.08
-2.0839,-2.0158,-1.9205,0.20281,-1.8567,0.79748,16.32,26.64,44.1
-1.7979,-3.5685,-1.8251,0.3821,-0.71349,0.82558,16.68,26.88,44.46
-0.24517,-6.3471,-0.6674,0.74648,0.30574,0.91111,16.92,27.12,44.52
8.4446,-18.673,-5.7069,1.8274,0.53634,1.1808,17.34,28.32,44.4
13.375,-19.423,-6.8374,2.321,-0.4499,1.7547,17.76,29.1,43.98
12.0,-19.518,-5.7478,1.0385,-1.4322,1.5656,18.3,29.82,43.26
4.3585,-10.951,-1.4846,-1.0858,-2.7904,0.22938,20.16,31.02,41.88
-0.92618,-4.7535,-0.5993,-0.51526,-3.2944,-1.3723,21.24,31.32,41.16
-4.6718,-5.8567,-1.4301,0.56169,-2.8839,-2.2923,22.44,31.62,40.38
-2.833,-10.542,-2.7513,-0.032987,-1.3552,-1.8784,24.84,31.8,38.46
-1.4982,-8.3493,-2.9011,-0.87568,-1.266,-1.2034,25.92,31.8,37.5
-1.6208,-5.8023,-2.7241,-1.0797,-1.4392,-0.80023,26.88,31.62,36.42
-3.4459,0.69464,-2.5061,-0.42241,-1.9398,0.26848,28.74,31.32,34.14
-3.8409,2.833,-2.0431,-0.12584,-1.7901,0.35064,29.7,30.9,32.94
-3.7184,4.3994,-1.1169,-0.032376,-1.7346,0.19151,30.84,30.72,31.74
-3.8273,3.6639,0.8717,0.23549,-2.2419,0.054367,33.36,29.7,29.04
-4.4811,0.16344,1.1577,0.33078,-2.2181,0.12523,34.74,29.28,27.48
-3.6366,-3.9771,1.8387,0.40042,-1.0754,0.70799,36.18,28.86,26.22
-0.98067,-9.6977,2.2746,0.48045,-0.10324,1.1173,37.74,28.38,25.02
5.7069,-19.246,4.0044,0.19517,0.75778,1.799,40.92,28.44,22.8
8.0632,-19.504,5.1213,0.19609,1.8714,2.2645,42.72,28.5,21.96
8.0224,-19.028,3.623,-0.069944,1.9881,1.9752,46.38,28.56,21.06
5.38,-12.64,3.1599,-0.62522,1.4948,0.1182,48.06,28.5,21.0
3.4732,-8.7034,2.6968,-0.14936,1.3714,-1.0324,49.68,28.62,20.82
0.98067,-8.9486,-1.2531,0.5733,1.6032,-1.8509,52.56,29.04,20.76
1.1441,-11.427,-3.3778,0.32559,1.8912,-2.2669,53.46,29.7,20.94
0.25879,-10.079,-2.9556,-0.39981,1.897,-2.051,54.18,30.24,21.18
-1.0896,-5.9249,-1.5119,-0.86224,1.8155,-1.3494,54.78,31.5,21.78
-1.362,-5.1213,-2.152,-0.9783,2.003,-0.208,54.72,32.04,22.32
-1.5527,-3.3778,-3.1191,-0.93951,2.1411,0.076969,54.36,32.64,23.04
-0.20431,-1.0215,-2.3563,-0.54795,2.1234,0.44929,52.86,33.6,24.36
0.91256,-2.3291,-2.0567,-0.27825,1.5061,0.38973,51.84,33.96,25.02
3.5685,-7.0826,-2.0567,-0.033903,0.75411,0.35888,49.08,34.5,25.62
4.985,-10.474,-2.1248,0.40012,-0.051007,0.38698,47.58,34.86,25.86
9.4117,-19.123,-3.514,0.88484,-1.0544,0.53359,46.2,35.4,25.68
8.8941,-19.504,-3.6366,1.3607,-1.8812,0.88331,43.8,36.18,25.26
6.3335,-16.739,-4.0316,1.3152,-2.4673,0.83505,42.9,36.24,24.96
4.2768,-12.463,-3.5413,0.10965,-2.6185,-0.39065,42.24,36.24,24.24
-0.43585,-8.4855,-3.0237,0.41722,-2.1918,-1.2483,41.04,36.18,22.44
-1.0351,-10.706,-3.4323,0.42364,-1.9352,-1.5672,40.62,36.18,21.24
-2.6015,-8.5127,-2.9011,-0.16829,-1.4655,-1.0971,39.36,36.24,18.54
-3.5413,-7.2869,-3.6503,-0.26512,-1.1829,-0.77916,38.7,36.3,17.04
-4.1814,-6.6467,-4.1406,-0.49755,-0.27214,-0.18387,38.04,36.36,15.66
-4.1814,-3.228,-4.1678,-1.1839,1.7141,0.33078,36.42,36.48,12.48
-3.3097,-0.53119,-3.623,-1.5852,2.6765,0.36469,35.58,36.66,11.28
-2.4108,2.0158,-3.1463,-1.6301,2.8821,0.11576,34.62,36.84,10.08
-0.99429,1.4438,-1.1577,-1.0919,2.0714,-0.19853,32.34,37.26,8.22
-0.76274,-0.70826,-0.21793,-0.95081,1.5446,-0.29016,30.96,37.62,7.68
-0.14982,-5.0259,1.2667,-1.0153,1.4288,-0.27764,29.46,38.04,7.02
3.3506,-12.49,2.8603,-0.86285,1.2679,-0.044899,26.4,38.7,6.42
5.6661,-18.347,4.0997,-0.64019,1.0712,0.071777,25.02,39.0,6.24
8.145,-19.518,6.1564,-1.0452,0.97066,0.29474,22.26,39.24,6.18
7.6819,-19.532,5.2166,-0.62522,0.68722,0.13225,21.36,39.48,6.36
6.1428,-17.325,3.9227,-0.3879,0.57788,-0.02474,20.16,39.66,6.54
3.4732,-10.188,2.9556,0.26939,0.40897,-0.53329,18.3,40.08,6.96
2.7786,-9.8066,1.4165,0.85124,0.27336,-0.8039,17.4,40.32,7.5
2.6423,-10.12,-0.6674,1.0171,0.11026,-0.92363,16.68,40.56,7.8
1.866,-7.8453,-3.2825,0.82345,-0.2303,-0.73059,15.48,41.04,8.46
0.91256,-5.8295,-3.0237,0.48075,-0.62522,-0.26023,14.94,41.16,8.7
-1.2667,-2.6151,-3.2144,0.16157,-1.0116,0.3711,14.4,41.4,9.06
-1.9341,-1.2122,-3.8954,0.085521,-1.0046,0.52015,14.16,41.52,9.24
-2.0839,-0.35413,-4.1406,-0.0033598,-0.43494,0.75778,14.1,41.76,9.48
-2.0975,-0.25879,-3.1735,-0.0051924,0.1857,0.78832,14.1,42.36,10.02
-1.5119,-1.9341,-2.4925,0.016188,0.72418,0.83994,14.22,42.66,10.5
1.3757,-5.094,-1.3484,0.023824,1.1093,0.9893,14.34,42.96,10.8
3.3915,-8.4719,-0.16344,0.45021,0.97311,1.1906,14.7,43.14,10.86
4.9578,-13.157,0.44947,1.3522,0.46517,1.595,15.06,43.14,10.86
13.021,-19.436,-2.3836,1.0702,-0.41142,2.2458,16.14,43.14,10.62
14.124,-19.518,-4.0452,1.4227,-2.0137,2.0003,16.86,43.02,10.2
11.523,-15.35,-3.8137,0.64507,-4.3561,1.1115,17.52,42.66,9.78
3.0373,-6.4152,-1.2667,0.34422,-5.9098,-0.26848,18.66,42.48,8.4
-0.85808,-6.4833,-1.6344,0.81581,-5.3952,-2.1389,19.08,42.42,7.8
-6.5378,-7.7364,-2.6968,-0.068417,-2.9725,-2.0641,19.32,42.36,7.14
-8.1858,-5.2575,-2.6015,-0.89614,-0.50702,-1.6567,19.32,42.24,6.12
-6.0066,-2.4517,-3.2825,-1.1976,1.0831,-1.128,19.2,42.18,5.64
-4.018,-1.1986,-4.0861,-1.1432,1.3659,-0.45662,18.84,42.18,5.28
-1.8932,0.34051,-3.0918,-0.70188,-0.45601,0.49847,18.06,42.18,4.74
-4.808,0.65378,-2.7922,-0.24526,0.10507,0.4499,17.46,42.36,4.44
-4.4402,-1.1713,-2.2065,-0.53298,1.4331,0.29413,16.74,42.54,4.32
1.6072,-7.5457,-0.10896,-0.61148,1.3082,0.18845,14.7,42.9,3.96
3.1872,-13.225,1.0488,-0.53909,1.0024,0.30635,13.38,43.2,3.9
4.8352,-17.843,1.7162,-0.80054,0.96639,0.56719,12.0,43.5,3.84
7.5729,-19.518,5.1621,-1.5855,1.3341,0.73762,9.48,43.86,3.96
6.4016,-19.191,4.9987,-1.3622,1.2007,0.18937,8.28,43.92,3.96
2.8603,-11.468,4.0997,-1.1475,1.2947,-0.064752,7.08,44.1,4.2
1.6481,-9.0575,2.3972,-0.16463,1.9462,-0.78618,5.28,44.28,4.68
1.4982,-9.7385,0.64016,0.39401,2.2736,-1.0162,4.38,44.46,4.92
2.1112,-8.826,-2.6423,0.72449,2.1197,-0.85888,3.06,44.64,5.04
2.1929,-7.7091,-2.7377,0.57971,1.1832,-0.35064,2.7,44.82,5.22
1.7025,-5.8159,-2.0975,0.062003,-0.34025,0.44929,1.8,44.94,5.34
-0.43585,-2.7513,-2.6832,-0.097738,-0.70952,0.83658,1.62,45.06,5.34
-1.4301,-1.9068,-3.1872,-0.16005,-0.63988,0.94287,1.44,45.12,5.46
-1.7979,-1.4165,-3.1327,-0.31673,0.23763,0.90958,1.56,45.18,5.34
-1.4438,-1.5527,-1.866,-0.34575,1.069,0.8039,1.98,45.54,5.7
-0.29965,-3.1191,-1.2395,-0.33323,1.5873,0.79535,2.28,45.54,5.52
2.9284,-7.7364,-0.1362,-0.019853,1.6503,0.84483,3.6,45.12,5.16
5.4618,-13.866,0.62654,0.23824,1.4123,0.89614,4.44,44.94,4.74
7.1779,-18.129,-0.62654,0.86743,0.040623,1.3518,5.58,44.4,4.2
9.3027,-19.504,-1.1169,1.2889,-0.76297,1.4749,7.92,43.26,3.36
7.4231,-14.737,-2.5606,1.3094,-2.1105,0.89247,9.12,42.54,2.82
5.4073,-9.4934,-3.0646,1.1988,-3.2089,0.075136,10.26,41.82,2.28
3.3097,-8.3765,-3.6094,1.5244,-3.4966,-1.2694,11.34,41.22,1.74
0.10896,-11.945,-4.8352,1.2065,-3.2128,-1.481,12.06,40.56,1.08
-3.3506,-10.379,-3.337,-0.08094,-1.7083,-1.42,13.32,39.3,-0.24
-4.5901,-7.7636,-3.7456,-0.5342,-0.26756,-1.0278,13.68,38.76,-0.66
-4.1814,-6.5786,-4.018,-0.68997,0.89675,-0.53054,13.92,38.46,-1.26
-1.7979,-3.0782,-4.1133,-0.66981,1.2171,-0.1518,14.34,37.56,-2.04
-1.2667,-1.3076,-3.7456,-0.58949,0.40561,0.01741,14.16,37.5,-2.4
-1.4165,0.61292,-3.1191,-0.40653,-0.35461,-0.088881,13.44,37.44,-2.82
-1.7706,0.027241,-2.4789,-0.26237,-0.95173,-0.19364,12.66,37.56,-3.0
-2.1248,-2.0431,-1.7434,-0.2926,-1.1066,-0.19578,11.94,37.74,-3.36
-1.2395,-6.5378,0.29965,-0.41356,-0.73029,-0.072693,9.6,38.16,-4.56
1.2667,-14.07,2.3018,-0.41417,-0.021686,0.14294,8.22,38.4,-5.22
3.6366,-18.851,3.337,-0.7086,0.65668,0.75106,5.88,37.92,-6.66
6.7966,-19.518,3.4868,-1.0091,1.9994,1.6799,4.98,37.62,-7.56
6.5241,-15.609,3.514,-1.051,1.9285,1.361,4.32,37.44,-8.34
5.7886,-12.694,3.6094,-0.98777,1.8308,1.0043,3.72,37.14,-9.24
3.1191,-9.5342,2.2201,-0.088881,1.6915,-0.27581,2.64,36.6,-10.8
2.6015,-10.365,0.53119,0.489,1.8747,-0.94776,2.34,36.24,-11.58
2.6696,-9.616,-1.58,0.60048,2.0299,-1.1799,1.62,35.28,-12.78
2.4789,-8.6762,-1.6481,0.25687,1.273,-0.69211,1.56,34.98,-13.2
2.0158,-8.0224,-1.5936,0.040012,0.57452,-0.11851,1.38,34.44,-13.74
0.21793,-6.0474,-2.4653,-0.093462,0.39645,0.35247,1.2,33.66,-13.98
-0.10896,-4.6037,-2.8603,-0.22755,0.60537,0.62125,1.44,33.3,-13.8
-0.068102,-2.9829,-2.8603,-0.24984,0.9166,0.67012,1.68,33.0,-13.74
1.1032,-1.3348,-2.1793,-0.21105,0.97005,0.59071,2.64,33.06,-12.84
1.3893,-1.5119,-1.7979,0.07422,0.38515,0.405,2.88,33.06,-12.18
1.757,-3.1054,-1.4846,0.20861,0.10873,0.34422,3.3,32.82,-11.46
3.4459,-9.7794,-1.0215,0.72326,-0.59132,0.27703,4.02,32.22,-9.48
5.4345,-16.29,-1.1305,1.1368,-0.93218,0.4218,4.38,31.86,-8.52
6.4152,-19.327,-1.6072,1.2233,-0.83627,0.57574,4.62,31.44,-7.68
6.2109,-19.532,-2.1384,0.88087,-0.33475,0.45296,5.22,30.78,-5.94
4.9033,-15.2,-2.7649,0.083689,-0.50427,-0.68111,5.28,30.48,-5.16
3.2008,-10.351,-3.0646,0.10934,-0.72876,-1.0904,5.34,30.18,-4.14
0.29965,-8.7306,-3.051,0.60598,-1.5183,-1.9804,5.46,29.58,-2.28
-1.8524,-9.6568,-2.7513,0.32498,-1.7291,-1.985,5.34,29.22,-1.38
-3.732,-8.0905,-2.6423,-0.14569,-1.481,-1.5159,5.04,28.44,0.96
-3.6094,-7.355,-2.9148,-0.47037,-0.80023,-0.73365,4.74,28.14,2.1
-2.8739,-6.5378,-3.0373,-0.6411,0.098349,-0.32987,4.5,27.9,3.24
-1.6481,-4.2904,-2.5061,-0.72876,0.83689,0.44227,3.9,27.18,5.46
-1.0624,-2.7513,-1.8524,-0.72021,0.66065,0.42272,3.66,27.0,6.48
-0.35413,-1.185,-0.12258,-0.32895,-1.5272,0.41997,3.42,26.76,7.86
-4.7944,1.7162,0.83084,0.022907,-1.2211,0.11668,3.06,26.04,10.62
-6.4016,0.65378,0.99429,-0.011912,0.26114,0.01069,3.24,25.56,12.12
-0.83084,-5.7614,2.3563,-0.19884,1.5895,0.18692,3.9,24.78,16.14
1.1441,-9.8203,2.7649,-0.22785,2.1215,0.61911,4.32,24.72,18.48
3.7865,-15.364,2.8058,-0.31185,2.3915,0.96059,4.56,24.9,21.54
7.8181,-19.382,4.6445,-0.51924,2.6731,1.7226,3.9,26.22,27.3
8.6489,-19.532,4.2495,-0.19028,2.1041,1.9838,3.36,27.36,29.82
8.1177,-18.96,2.656,0.08094,1.3415,1.7449,2.58,28.56,32.28
5.5026,-12.122,0.68102,0.31704,0.72693,0.61423,1.14,31.44,37.14
3.6639,-9.902,-0.12258,0.49938,0.77519,-0.2303,0.72,33.18,39.3
2.7786,-9.2618,-0.8036,0.62583,1.1142,-0.9444,0.72,34.86,41.52
2.1112,-9.3299,-2.5879,0.49205,1.4212,-1.3369,-1.44,38.52,45.66
2.2201,-9.0303,-2.1112,0.19212,1.3305,-1.3592,-2.46,40.38,47.82
1.6072,-8.4446,-1.4165,-0.085827,1.1194,-1.073,-3.72,42.42,49.5
-0.14982,-7.4367,-1.5119,-0.27336,1.0318,-0.55925,-6.3,46.68,52.2
-0.38137,-6.9055,-1.7706,-0.45937,1.5055,0.16096,-7.74,48.54,53.22
-0.27241,-5.8159,-1.7706,-0.45296,1.8583,0.58002,-8.88,50.28,53.7
0.58567,-4.7399,-0.57205,-0.42699,1.8662,0.77733,-9.84,53.04,54.36
0.51757,-5.6116,0.81722,-0.41325,1.6994,0.81978,-10.14,54.24,54.72
0.6674,-7.8181,1.4846,-0.33262,1.7061,0.83017,-10.26,55.38,55.02
2.4789,-14.506,2.8739,-0.24068,2.0159,0.91233,-10.14,57.54,55.14
4.5764,-18.755,3.2825,-0.096822,2.7064,1.1558,-10.14,58.5,54.96
7.8045,-19.504,2.7649,-0.28711,2.9563,1.0825,-9.66,60.24,54.18
8.1313,-19.532,1.2122,0.17623,2.4493,0.53512,-9.24,61.14,53.94
6.3743,-15.827,-2.833,0.80695,1.1518,-0.5116,-8.52,62.1,53.58
3.1599,-12.572,-5.0804,1.1512,-0.33537,-1.5614,-6.72,63.9,53.76
0.28603,-11.918,-3.6775,0.99693,-1.296,-2.0794,-5.7,64.62,54.06
-1.5391,-10.569,-2.0567,0.33323,-1.1231,-2.0962,-4.32,65.64,54.24
-3.5685,-7.7364,-2.0294,-0.28344,-0.22633,-1.7303,-0.6,67.14,55.56
-3.5413,-6.7148,-3.0646,-0.75686,0.76389,-1.2104,1.44,67.68,56.52
-3.0918,-5.6524,-3.4459,-1.0146,2.3188,-0.64232,3.96,67.98,57.9
-1.4438,-4.2223,-3.3778,-1.0278,3.2596,-0.16554,8.76,67.92,61.32
-0.027241,-3.7184,-2.8058,-0.96089,3.5256,0.25748,10.92,67.86,63.78
1.9886,-3.4187,-2.0567,-0.83475,3.0302,0.53665,14.94,67.86,69.72
2.4108,-3.6094,-2.0975,-0.54153,1.7691,0.78038,16.98,68.04,73.14
2.4517,-4.1542,-2.1793,-0.28558,1.15,0.87965,19.2,68.52,76.5
3.0918,-6.0202,-2.3427,0.020769,0.67776,0.93921,24.18,70.2,83.52
3.7047,-8.54,-2.7513,0.32345,0.17074,0.92485,27.42,71.82,86.76
4.127,-10.597,-2.9556,0.4835,-0.343,0.8604,31.14,73.74,89.1
3.9908,-16.358,-2.0294,0.59865,-0.81856,0.80207,39.72,78.6,90.42
3.5822,-18.864,-2.2337,0.47709,-0.79718,0.82314,43.86,80.64,89.22
2.9556,-18.633,-1.866,-0.40378,-0.33262,0.75625,47.88,82.32,86.94
1.5391,-12.435,1.3757,-1.7229,1.0403,0.26939,54.66,84.6,80.94
0.89894,-11.182,1.8251,-1.8864,1.9108,-0.34514,57.54,85.32,77.52
0.27241,-11.319,1.2531,-1.7208,2.6869,-1.044,60.12,85.68,74.1
0.54481,-12.83,0.49033,-1.4847,3.6814,-1.7113,64.62,85.62,66.78
0.84446,-12.476,0.6674,-1.4154,3.9028,-1.7501,66.24,85.14,62.94
1.8251,-10.733,0.83084,-1.3311,3.7608,-1.6603,67.26,84.42,59.04
2.4653,-9.0575,-0.25879,-1.0415,2.2932,-1.1689,67.74,81.54,51.18
2.0567,-8.4446,-0.99429,-0.84635,1.1442,-0.86468,66.72,79.44,47.28
1.7979,-8.6081,-0.96704,-0.71349,0.43188,-0.64202,64.86,73.26,41.46
1.0351,-8.7715,-0.43585,-0.72235,0.20433,-0.53542,59.16,69.84,39.96
0.5993,-8.9894,-0.027241,-0.87476,0.48075,-0.50763,55.92,66.72,39.54
0.28603,-9.2618,0.25879,-0.99876,1.0076,-0.47678,52.5,63.96,39.9
-0.095342,-9.2618,0.50395,-1.0886,1.7135,-0.35583,49.26,61.74,40.74
0.31327,-8.8941,0.54481,-1.1005,2.3659,-0.12767,43.2,58.5,42.66
1.0896,-8.7034,0.46309,-1.0574,2.6771,0.13225,40.56,57.3,43.68
1.9886,-8.3493,0.35413,-0.91233,2.4105,0.59162,35.46,55.32,45.3
2.3155,-8.4991,0.31327,-0.79504,1.9691,0.84055,33.3,54.54,46.02
2.3563,-8.9758,0.23155,-0.73609,1.5736,1.0635,31.38,53.7,46.62
2.0294,-9.3299,0.31327,-0.71929,1.4603,1.2382,28.2,52.38,47.64
1.8387,-9.5479,0.53119,-0.72785,1.569,1.379,26.76,51.48,48.3
1.866,-9.6023,0.6674,-0.76297,1.8207,1.4975,25.62,50.94,49.2
2.1793,-8.8396,0.49033,-0.76908,2.0852,1.6047,23.52,49.44,50.88
2.547,-8.4991,0.61292,-0.64141,2.208,1.7535,22.62,48.72,51.96
3.2825,-11.319,1.2395,-0.40561,2.1298,1.9364,20.7,47.34,54.3
3.8954,-13.293,1.3348,-0.24832,2.1066,2.2504,19.92,46.44,55.44
4.6037,-13.443,0.6674,-0.12248,2.0528,2.4792,19.14,45.72,56.64
5.9385,-9.4798,-0.51757,0.21319,1.6958,2.4685,17.7,44.46,58.62
6.1836,-8.9622,-0.85808,0.68447,0.90683,2.1301,17.28,43.8,59.58
6.0202,-9.3572,-1.7979,1.4282,-0.81428,1.2648,16.74,43.2,60.24
4.699,-11.319,-2.7649,1.5812,-1.6765,0.72876,16.14,42.3,61.26
4.699,-11.319,-2.7649,1.2944,-1.8967,0.38087,16.14,42.3,61.26
1.4438,-10.569,-1.9613,0.69914,-1.4291,0.25381,16.32,41.88,61.32
0.64016,-8.7306,-1.9068,0.15852,-0.42394,0.19823,16.44,41.94,60.78
-0.54481,-7.927,-2.1793,-0.17287,0.78649,0.068111,16.62,41.94,60.6
0.027241,-7.2733,-2.6151,-0.34972,2.0201,-0.12095,16.98,42.0,59.34
0.8036,-6.9736,-2.6696,-0.55436,3.3686,-0.22174,16.86,42.3,58.26
1.7298,-6.7693,-2.2474,-0.63133,3.77,-0.17807,16.56,42.6,57.18
2.5742,-6.9328,-2.1656,-0.6353,3.7492,-0.12309,15.9,42.84,56.16
3.2961,-7.246,-2.2201,-0.56872,3.3885,-0.060781,14.64,43.02,55.44
3.732,-7.8181,-2.2882,-0.42058,2.7996,-0.011606,12.42,42.78,55.02
3.9363,-8.3901,-2.4517,-0.20678,2.105,0.033903,9.84,42.48,55.14
3.8273,-8.6081,-2.5061,0.11423,1.1368,0.028405,8.34,42.18,55.2
3.7184,-8.7987,-2.5334,0.35736,0.5959,-0.061087,5.4,41.7,55.08
3.3778,-9.1937,-2.3155,0.53206,0.13195,-0.22297,2.7,41.58,54.84
2.7377,-9.7658,-2.1248,0.63469,-0.19945,-0.43585,0.9,41.46,54.6
2.1384,-9.9292,-1.8524,0.57666,-0.3543,-0.66035,0.06,41.58,54.24
1.3484,-10.052,-1.58,0.37629,-0.055283,-0.89767,-0.54,41.58,53.94
0.12258,-10.447,-1.2803,0.29169,0.18662,-0.92363,-1.44,41.94,53.16
0.24517,-10.924,-1.1441,0.10232,1.0553,-0.89492,-1.68,42.06,52.86
1.185,-12.435,-1.1441,0.077274,1.4438,-0.76755,-1.86,42.3,52.56
1.866,-13.416,-1.0488,-0.040623,1.5873,-0.54611,-2.04,42.54,52.08
2.833,-14.056,-0.25879,-0.30238,1.4823,-0.3656,-2.28,42.66,51.18
2.3427,-12.0,0.5993,-0.64019,1.2773,-0.41478,-2.4,42.78,50.7
1.0215,-8.7443,1.0896,-0.63377,1.2178,-0.6634,-2.52,43.02,50.22
0.14982,-7.6546,1.0079,-0.42028,1.288,-0.89889,-2.58,43.14,50.04
-0.12258,-7.7091,0.76274,-0.1573,1.3305,-0.95845,-2.76,43.14,49.74
0.58567,-9.3844,0.98067,0.10476,0.56474,-0.72052,-3.12,42.9,48.96
0.19068,-10.215,1.2258,0.38179,-0.50549,-0.10996,-3.3,42.78,48.6
-0.027241,-10.787,1.6072,0.49877,-0.85399,0.4328,-3.18,42.66,47.64
1.1713,-11.496,1.7979,0.30085,-0.13775,0.71135,-2.94,42.42,47.22
1.6344,-11.387,1.7298,0.13653,0.60415,0.65607,-2.76,42.3,46.68
1.9477,-11.128,1.4029,0.033598,1.3363,0.48808,-2.52,42.12,46.2
3.0646,-10.174,0.8717,0.032987,1.6805,0.23824,-1.86,41.76,45.42
3.4187,-9.8339,0.6674,0.087659,1.6545,0.0064141,-1.56,41.7,44.94
3.5685,-9.3844,0.068102,0.15333,1.3204,-0.13531,-0.72,41.58,43.56
3.8001,-8.9213,-0.095342,0.20036,0.92332,-0.13256,-0.36,41.46,42.84
3.514,-8.4991,-0.31327,0.2474,0.52168,-0.10507,-0.06,41.34,41.88
3.1327,-8.0769,-0.53119,0.26786,0.33598,-0.080329,0.36,41.28,40.98
2.547,-7.7227,-0.68102,0.28191,-0.029627,0.034819,1.14,41.34,39.0
2.2201,-7.5048,-0.89894,0.24099,-0.090408,0.12584,1.56,41.28,37.98
2.1248,-7.4776,-1.1169,0.15241,-0.064141,0.21961,1.8,41.22,36.96
2.2201,-7.4231,-1.0079,-0.059254,-0.0097738,0.2587,2.04,41.04,34.38
2.1384,-7.355,-0.8036,-0.22816,0.012217,0.22938,2.16,40.8,33.24
2.0567,-7.246,-0.70826,-0.41294,0.073609,0.13531,2.22,40.8,31.92
1.6481,-7.0962,-0.40861,-0.58154,0.24129,0.03543,2.22,40.62,30.48
1.0079,-6.4969,-0.20431,-0.74312,0.53756,-0.054672,1.98,40.02,27.6
0.8036,-6.3471,-0.095342,-0.87568,0.8714,-0.074831,1.92,39.78,26.22
1.1577,-6.674,0.12258,-0.98838,1.1509,-0.063835,1.44,39.12,23.64
1.5391,-7.0826,0.29965,-1.0675,1.3127,0.049786,1.14,38.82,22.32
1.7979,-7.2869,0.44947,-1.0925,1.3066,0.11606,1.08,38.58,21.12
1.866,-7.5048,0.57205,-1.1573,1.2617,0.31979,0.84,38.22,19.98
1.8387,-7.246,0.83084,-1.1625,1.2785,0.41966,0.3,37.8,17.94
1.8796,-6.9191,0.84446,-1.1225,1.3592,0.46762,-0.06,37.5,16.98
1.6481,-6.0611,0.61292,-1.0489,1.4209,0.489,-1.02,37.02,15.42
1.5119,-5.5435,0.9398,-0.91599,1.4047,0.48564,-1.56,36.84,14.7
1.3484,-5.7342,1.1577,-0.85307,1.3647,0.50396,-1.98,36.66,14.1
1.6889,-8.8532,1.9341,-0.58154,1.2162,0.61453,-2.88,36.54,13.14
2.5198,-11.795,2.6015,-0.3317,1.0809,0.76786,-3.12,36.48,12.72
4.3177,-17.448,1.4165,0.11851,0.90652,1.025,-3.66,36.42,12.24
7.8726,-19.504,-2.2474,0.82131,0.49908,1.1399,-4.26,36.3,11.28
8.2812,-19.177,-3.4323,1.0241,-1.0577,0.5678,-4.38,36.3,10.8
6.4288,-13.866,-4.413,0.89461,-2.0632,0.043982,-4.8,36.18,10.26
-0.12258,-11.182,-2.438,0.57116,-3.9618,-1.5027,-5.58,36.06,9.42
-6.3743,-10.351,-1.6208,-0.057116,-2.9932,-1.792,-6.36,35.94,8.94
-7.4776,-9.3299,-1.5391,-0.81215,-0.71624,-1.4355,-7.08,35.82,8.52
-3.4732,-8.5808,-2.5334,-1.1713,2.2037,-0.80909,-8.76,35.52,7.98
-0.85808,-8.1586,-2.4653,-1.1228,3.1237,-0.29352,-9.84,35.28,7.56
0.83084,-7.6683,-2.3563,-0.71746,2.9248,0.25229,-10.74,34.98,7.26
4.4675,-7.0281,-2.2746,-0.32895,1.6994,0.5452,-12.72,34.62,6.18
4.6718,-6.4424,-2.3563,-0.028405,0.05284,0.5681,-13.68,34.44,5.4
4.0452,-5.6116,-2.3563,0.26756,-1.3268,0.44135,-14.7,34.32,4.86
2.2065,-4.8488,-2.656,0.5006,-2.1872,0.25107,-16.92,34.14,3.66
1.471,-4.6582,-2.7649,0.61972,-2.7101,-0.023213,-18.18,34.02,3.24
0.27241,-4.2495,-3.0101,0.54856,-2.682,-0.12798,-19.5,33.9,2.64
-0.84446,-3.5413,-2.8603,0.37232,-2.478,-0.18112,-22.14,33.42,1.62
-1.8251,-2.5606,-1.9341,0.11148,-2.1026,-0.22571,-23.46,33.12,1.32
-2.2337,-2.438,-1.2122,-0.040317,-1.6365,-0.23702,-24.78,33.06,0.9
-0.14982,-7.9815,-0.28603,-0.036652,-1.2477,-0.17287,-27.48,32.28,-0.12
2.0431,-14.547,0.88532,-0.05284,-0.9276,0.30268,-28.92,31.74,-0.66
3.3506,-18.279,0.8036,-0.13989,-0.821,0.62705,-30.42,31.2,-1.32
4.9578,-19.45,1.9341,-1.5794,0.70341,1.5699,-32.04,30.42,-1.98
5.3528,-19.532,4.2223,-2.4306,1.9816,1.6725,-35.64,29.22,-3.3
4.1814,-16.699,5.1621,-2.9169,3.1756,1.0562,-37.44,28.74,-4.02
0.92618,-8.7851,3.2825,-2.4419,4.0968,-0.072693,-41.04,27.84,-5.7
0.84446,-7.5457,1.3348,-0.71044,4.9398,-1.5983,-42.66,27.54,-6.78
2.4244,-7.927,0.10896,0.14936,4.6963,-2.0907,-44.04,27.42,-7.8
6.3198,-8.4038,-1.4438,0.56597,3.1768,-1.8903,-46.44,26.64,-10.56
6.7285,-7.8045,-1.6753,0.58674,0.66523,-1.0831,-47.34,26.46,-12.24
5.1485,-6.96,-1.3348,0.53237,-1.6893,-0.49114,-48.3,25.86,-13.56
2.0022,-5.9793,-1.2531,0.52351,-2.9599,-0.076053,-50.1,25.2,-15.66
0.39499,-5.5707,-1.2803,0.45601,-2.821,0.3204,-50.94,25.38,-16.32
-0.57205,-5.1485,-1.4982,0.4163,-2.3433,0.41753,-52.56,25.62,-16.62
-0.88532,-5.1485,-1.7025,0.23457,-0.43738,0.71716,-53.16,25.86,-16.62
-0.095342,-4.9578,-2.1929,0.022602,0.67776,0.8659,-53.58,25.92,-16.44
1.362,-3.9227,-2.0839,-0.22022,1.2315,0.9053,-54.18,25.74,-15.84
1.866,-3.3642,-1.7162,-0.37721,1.2669,0.82803,-54.18,25.44,-15.66
2.1248,-3.3234,-0.99429,-0.35919,0.87659,0.58765,-54.24,25.02,-15.3
2.2474,-4.9169,0.1362,-0.27367,0.73487,0.50916,-54.3,24.3,-14.34
2.9965,-8.6081,0.9398,0.016493,0.50396,0.40287,-54.36,23.94,-13.56
3.9635,-13.062,0.21793,0.93585,0.081245,0.57024,-54.12,23.46,-12.78
7.3005,-19.314,-3.7592,0.91355,-0.045204,1.0522,-53.04,22.56,-11.34
8.2812,-19.477,-4.8352,1.368,-0.35308,1.1332,-52.02,22.32,-10.86
5.8704,-11.25,-3.5277,0.69822,-1.5461,0.93493,-49.92,21.6,-10.2
2.8875,-7.641,-2.7649,0.37568,-2.6887,0.053145,-48.96,21.24,-9.84
0.095342,-8.431,-2.5061,0.72265,-3.5082,-1.0647,-48.0,20.82,-9.12
-1.6344,-9.8611,-2.5606,0.55497,-3.0116,-1.7935,-47.16,20.58,-8.4
-2.8194,-10.706,-2.2882,-0.04948,-1.9581,-1.6121,-45.42,19.86,-6.18
-2.1248,-9.8339,-2.8739,-0.4273,-0.97586,-1.2871,-44.94,19.5,-4.86
-1.0215,-7.1915,-3.6366,-0.53603,-0.16524,-0.85063,-44.46,19.14,-3.18
-0.32689,-5.9657,-3.6094,-0.23732,0.50641,-0.075442,-43.56,18.84,-1.8
0.7355,-5.4754,-3.2553,-0.11209,0.17104,0.27764,-43.14,18.72,1.62
1.362,-5.0804,-2.2201,0.076664,-1.6973,0.71074,-43.14,18.78,3.42
-0.12258,-3.2825,-1.0215,0.37996,-2.9923,0.82253,-43.26,19.14,6.78
-2.9692,-2.1248,-1.6344,0.23885,-2.018,0.28741,-43.56,19.38,8.4
-1.9477,-1.5527,-1.1986,-0.053756,-0.58826,-0.034514,-43.98,19.62,11.76
-0.77636,-2.6015,-1.1032,-0.18143,0.037568,-0.44929,-44.16,19.74,13.08
-0.24517,-4.1814,-0.88532,-0.25595,0.16585,-0.42455,-44.28,19.68,14.16
2.6015,-10.052,1.4574,-0.15455,0.075747,-0.21655,-44.28,19.26,15.24
5.1213,-18.374,0.68102,-0.21075,-0.27397,0.34941,-44.52,19.08,15.54
5.9249,-19.382,1.9068,-1.2645,0.17043,1.1964,-44.4,18.96,15.6
7.2733,-19.532,2.3699,-0.80665,1.2785,1.8986,-44.22,18.54,15.0
6.5378,-15.582,2.8875,-0.94928,1.7953,1.8213,-44.1,18.42,14.82
4.9714,-11.155,3.3506,-0.98441,1.8738,1.3796,-44.16,18.48,14.34
1.4574,-8.0224,1.0215,-0.069333,1.7532,-0.35308,-44.16,18.42,13.08
1.1713,-9.9973,-0.027241,0.65546,1.6771,-1.2874,-44.16,18.48,12.42
2.152,-10.774,-1.0896,0.83719,1.6148,-1.6979,-43.92,17.88,10.38
2.7377,-9.7522,-1.5255,0.70402,1.1863,-1.3946,-43.74,17.64,9.42
2.7649,-8.5127,-1.7979,0.48442,0.40287,-0.64843,-43.56,17.28,8.22
1.2939,-7.1643,-2.1248,0.39492,-0.42089,0.042761,-43.2,16.98,6.48
0.29965,-6.6331,-2.152,0.35888,-0.82345,0.42272,-43.08,17.04,5.94
0.095342,-6.5786,-2.0022,0.29322,-0.40684,0.66981,-42.66,17.1,5.4
0.14982,-6.96,-1.7162,0.1909,0.24435,0.77702,-42.12,17.34,4.62
0.64016,-7.3822,-1.7706,0.05681,0.91263,0.85827,-41.82,17.4,4.32
1.8932,-7.3822,-2.1656,-0.12737,1.5046,0.87934,-40.92,17.22,3.6
2.4517,-6.8919,-2.3699,-0.18967,1.5342,0.86773,-40.32,17.22,3.42
2.6696,-6.17,-2.2065,-0.33231,1.3592,0.77641,-39.6,17.22,2.94
2.4653,-5.4754,-1.4165,-0.33017,1.0125,0.58215,-38.1,17.04,2.28
2.4653,-5.4754,-1.4165,-0.28161,0.91996,0.50366,-38.1,17.04,2.28
3.2553,-9.0848,-0.38137,-0.14142,0.7761,0.3653,-36.3,17.22,1.86
3.9908,-11.768,-0.38137,0.13928,0.53878,0.37385,-35.34,17.22,1.8
6.5922,-19.3,-2.1793,0.57238,0.42028,0.49114,-34.32,17.22,1.86
7.1643,-19.504,-2.8467,0.40928,0.37996,0.64355,-32.22,17.52,1.14
6.4424,-16.971,-2.9284,0.03543,-0.030849,0.37477,-31.26,17.76,0.96
4.7126,-12.381,-2.3427,-0.22785,-0.39859,-0.2645,-30.24,18.06,0.84
1.4438,-7.6002,-2.3427,-0.12675,-0.68814,-1.1182,-28.74,18.42,0.84
-0.35413,-7.464,-2.4108,0.21472,-0.65882,-1.8781,-28.08,18.66,1.02
-1.4165,-8.3629,-2.4108,0.069028,-0.46304,-1.9004,-27.3,19.14,1.86
-1.1986,-7.9815,-2.8058,-0.28802,0.014661,-1.6826,-26.94,19.32,2.34
-0.96704,-7.75,-3.0237,-0.63316,0.67928,-0.98869,-26.7,19.44,2.88
-0.31327,-6.9872,-3.0237,-0.65118,1.0183,-0.52809,-26.94,19.8,4.14
-0.095342,-6.1428,-2.6832,-0.56077,1.2101,-0.17104,-27.18,19.92,4.68
1.1577,-5.38,-2.2746,-0.37324,1.1457,0.11515,-27.72,20.46,5.76
2.0839,-5.2575,-2.3018,-0.07025,0.28833,0.21594,-28.14,20.7,6.3
2.8603,-5.1894,-2.4244,0.07025,-0.17165,0.23366,-28.56,20.82,7.02
3.732,-6.2245,-2.8739,0.56963,-1.8106,0.28986,-29.34,20.7,8.28
3.732,-6.2245,-2.8739,0.82284,-2.8121,0.29596,-29.34,20.7,8.28
2.9011,-8.2539,-2.9556,0.91202,-3.5061,0.31185,-29.52,20.82,9.78
1.7298,-8.1586,-2.8058,0.53206,-3.5995,0.21869,-29.52,20.82,10.62
-1.3076,-5.4073,-1.6344,0.056505,-2.8811,0.08827,-29.16,20.7,12.48
-2.5879,-3.8409,-0.69464,-0.14813,-2.335,0.0030543,-28.98,20.76,13.44
-3.1463,-3.2825,0.040861,-0.4609,-0.42883,-0.30727,-28.62,21.0,14.34
-2.3155,-4.7807,0.6674,-0.46548,0.61667,-0.44899,-28.08,21.06,15.42
0.83084,-12.735,2.6423,-0.50793,1.2327,-0.37721,-26.94,21.3,17.52
3.051,-18.428,2.3155,-0.61606,1.5702,0.45601,-26.4,21.36,18.3
6.1836,-19.504,3.2553,-1.493,2.2266,0.82742,-24.96,21.6,20.16
7.1234,-17.815,3.1599,-1.3451,2.8124,1.5043,-24.3,21.72,20.82
6.9328,-12.967,3.0237,-0.88239,1.9939,1.5785,-23.52,21.84,21.6
4.2768,-7.9543,1.1577,-0.2138,1.2382,0.90775,-22.08,22.26,22.86
3.2825,-8.1586,-0.24517,0.70921,0.6576,0.15394,-21.48,22.32,23.28
3.3097,-9.6296,-1.1169,1.3876,0.24801,-0.49541,-20.88,22.38,23.7
3.909,-10.501,-1.6753,1.47,-0.77091,-0.60842,-19.98,22.98,23.64
2.9284,-9.3299,-2.438,1.1176,-1.6249,-0.23793,-19.62,23.22,23.52
1.6617,-8.0905,-2.8058,0.67928,-2.0824,0.19212,-19.2,23.34,23.4
-2.4789,-3.9635,-3.051,0.22633,-1.788,0.54092,-18.66,24.06,22.98
-3.7728,-2.3155,-2.7922,-0.17196,-0.72265,0.8042,-18.24,24.48,22.86
-4.2359,-1.2803,-2.3155,-0.45051,0.69608,0.9166,-17.94,24.84,22.86
-2.7786,-1.2122,-1.4165,-0.74098,2.4395,0.90561,-17.04,25.62,22.92
-1.2531,-2.1929,-0.74912,-0.78191,2.7791,0.88881,-16.62,26.04,23.1
0.55843,-3.909,0.027241,-0.55131,2.9654,0.90775,-16.14,26.46,23.1
5.4754,-9.7385,-0.19068,-0.076053,2.1692,1.0052,-15.48,27.6,23.22
7.8317,-17.924,-0.98067,0.30757,0.84452,1.3161,-15.12,28.32,23.1
9.9429,-19.341,-1.3757,0.86682,-0.71227,1.6579,-14.22,29.7,23.28
9.6023,-19.395,-2.3427,1.1469,-1.8243,1.1805,-13.56,30.42,23.4
7.355,-14.342,-2.547,1.0922,-2.4242,0.70311,-12.84,31.2,23.46
4.7671,-10.025,-2.7513,1.0223,-3.4602,-0.59223,-12.3,31.92,23.64
-1.1577,-9.3163,-2.2201,1.3247,-4.0714,-2.1793,-11.04,32.88,23.64
-4.0044,-9.6977,-2.4244,0.79932,-3.4847,-2.3195,-10.62,33.42,23.64
-5.8976,-8.2676,-2.3836,-0.37935,-1.9942,-1.701,-10.08,34.2,23.7
-7.3277,-2.7649,-2.8739,-0.66126,-0.77885,-1.1215,-9.9,34.5,23.7
-7.1779,-0.70826,-3.0918,-0.81306,0.31734,-0.48136,-9.72,34.74,23.76
-5.6933,2.6287,-2.9011,-0.68967,0.832,-0.14203,-9.66,34.92,23.82
-4.0861,2.9011,-2.1929,-0.33414,0.41692,0.023518,-9.42,34.98,24.12
-1.4438,-3.1054,-0.42223,-0.11759,-0.39492,0.25351,-8.88,35.1,24.96
-0.70826,-8.7034,0.7355,-0.025962,-0.86865,0.4722,-8.1,35.04,26.04
1.7162,-16.181,1.6753,0.11698,-0.67959,1.2,-7.8,35.16,26.82
4.6037,-19.327,2.1248,-0.5904,0.17837,1.9282,-7.02,35.64,29.1
6.6876,-19.504,3.4459,-1.4612,1.346,2.1026,-6.48,36.12,30.42
7.0417,-17.884,3.4459,-1.7782,1.7318,1.5931,-4.86,36.84,33.72
5.0123,-11.877,3.3915,-1.6753,1.7095,0.59987,-2.64,37.5,37.44
1.2531,-9.0984,1.6753,-1.0153,1.6301,-0.58857,-0.42,37.8,40.92
0.47671,-10.474,-0.50395,-0.21747,1.9529,-1.4642,1.62,37.98,44.46
0.70826,-10.338,-1.2395,0.0051924,2.6719,-1.9682,2.22,37.86,45.84
1.5391,-8.2812,-1.2667,-0.36072,2.6118,-1.5809,2.76,37.8,47.94
1.2531,-5.7614,-0.57205,-0.6466,1.7926,-0.78221,2.7,37.2,49.62
-0.21793,-3.8682,-1.0624,-0.65179,0.9728,0.030543,2.16,36.0,50.4
-1.1169,-2.1248,-1.9886,-0.5455,0.58796,0.51221,1.08,34.32,50.64
-1.076,-0.64016,-1.6753,-0.34667,0.58429,0.73793,-0.72,33.0,49.98
0.095342,-1.3212,-0.68102,0.09163,0.55772,0.83017,-2.7,32.58,49.56
1.6753,-4.3449,-0.27241,0.45876,0.2135,0.87415,-4.74,32.4,49.08
2.4517,-6.3198,-0.50395,0.8378,-0.35247,0.93646,-5.64,32.7,48.96
4.2904,-13.007,-1.3757,1.1808,-1.0113,1.0333,-7.2,33.48,48.84
5.5435,-19.109,-1.8524,1.5119,-1.4865,1.0983,-8.1,34.92,48.9
6.0611,-19.423,-2.4108,1.5525,-1.8097,0.94195,-8.64,36.72,48.78
4.3858,-17.938,-2.4789,1.2077,-1.8912,0.65912,-8.64,37.62,48.72
1.6072,-10.774,-2.3427,0.4612,-1.9749,-0.59498,-8.46,39.48,48.18
-0.10896,-9.9973,-2.0567,0.60842,-1.9273,-1.3014,-8.1,40.32,47.88
-2.0839,-11.659,-2.3836,0.52931,-1.558,-1.6628,-7.44,41.82,46.92
-3.0101,-10.637,-2.438,-0.000305,-0.89003,-1.6228,-6.54,42.6,45.72
-2.5061,-9.2891,-2.9284,-0.39828,-0.10934,-1.2688,-5.52,42.96,44.34
-2.3427,-8.4855,-3.0918,-0.58277,0.59926,-0.75167,-4.98,42.9,43.62
-1.6753,-5.4481,-3.2553,-0.60873,1.0516,-0.15821,-3.24,42.42,42.18
-1.3757,-2.9284,-2.9965,-0.55131,1.0247,0.26114,-1.8,41.28,40.92
-1.3757,-1.1577,-2.6423,-0.5116,0.61331,0.22144,-1.14,40.56,40.44
-1.6072,0.55843,-2.4108,-0.33323,-0.014355,0.014355,0.12,39.3,39.54
-2.2474,-0.43585,-1.4846,-0.095906,-0.63835,-0.15882,1.38,38.28,39.36
-2.0975,-2.4108,-0.81722,0.12675,-1.007,-0.18876,2.1,37.98,39.54
-0.7355,-9.3572,0.68102,0.17196,-0.99907,-0.020769,3.72,37.86,40.2
1.3484,-17.543,0.6674,-0.088881,-0.31673,0.60812,5.76,38.58,41.16
2.9692,-19.286,1.9886,-0.75106,0.89767,1.1448,6.9,39.36,42.06
4.7671,-19.518,3.9227,-0.92088,2.2739,1.5146,9.12,41.22,44.28
5.3528,-17.284,3.9499,-1.1787,2.8421,1.383,11.4,43.2,47.34
4.7399,-12.612,3.3506,-1.1047,2.7034,0.5962,12.36,44.16,49.08
3.4187,-9.1256,1.6208,-0.50366,2.1915,-0.29383,14.4,46.08,52.68
2.5061,-9.3436,-0.1362,0.30727,1.4487,-1.2251,15.78,47.82,55.8
1.6344,-8.1041,-1.0215,0.36102,1.1423,-1.3967,16.38,48.48,57.3
0.8036,-5.7205,-1.1713,0.17807,0.8097,-1.2153,16.92,49.38,59.4
0.35413,-4.4266,-0.64016,0.0082467,0.51068,-0.8042,16.8,49.92,61.14
-0.1362,-4.6037,-0.61292,-0.1237,0.33872,-0.30024,16.32,49.98,61.68
-1.3893,-4.2768,-0.77636,-0.37324,0.46517,0.16799,15.3,49.74,62.16
-0.99429,-3.1327,-0.57205,-0.54581,1.1258,0.64416,13.56,49.74,62.1
-0.42223,-3.051,-0.1362,-0.50274,1.5012,0.75106,12.36,49.86,61.92
0.58567,-4.808,0.8036,-0.32223,1.6994,0.83139,9.06,50.7,61.02
2.6151,-9.8203,1.5527,-0.069333,1.8207,0.93554,4.92,52.26,59.4
3.7047,-12.994,1.7434,0.18143,1.821,1.1292,2.52,53.34,58.32
7.8726,-19.246,0.85808,0.45968,1.5754,1.4642,-2.46,55.68,55.26
9.1256,-17.57,-1.1577,1.2923,0.41997,1.4038,-6.96,57.84,51.6
7.9679,-11.959,-2.6287,1.445,-1.1139,0.58674,-8.94,58.92,49.56
5.2166,-7.8045,-2.2201,1.5116,-2.5366,-0.53756,-12.6,60.66,45.36
0.64016,-9.5342,-1.5936,1.8308,-3.3872,-1.4652,-15.48,61.86,40.92
-1.4301,-10.311,-1.6481,1.5534,-3.0794,-1.9429,-16.8,62.04,38.52
-3.4868,-9.9292,-1.4029,0.57605,-1.5556,-1.8628,-18.96,61.98,33.36
-3.0782,-7.9815,-1.757,-0.16707,0.39218,-1.533,-20.28,60.96,28.5
-1.7979,-6.7421,-2.3155,-0.69119,2.7926,-0.99724,-20.76,59.4,24.12
-0.34051,-5.884,-2.438,-0.79321,3.7968,-0.69791,-20.76,58.38,22.5
1.9613,-5.5299,-2.1929,-0.66096,4.0485,-0.37446,-21.24,56.22,19.68
4.2904,-6.8374,-2.1929,-0.43494,3.3759,-0.12462,-22.26,54.3,17.16
4.5083,-8.1858,-2.1248,-0.29963,2.0788,-0.016188,-23.4,52.44,14.52
3.9499,-9.0031,-1.7025,-0.28344,0.97738,0.0024435,-24.42,51.6,13.2
2.3699,-9.9973,-0.91256,-0.44593,0.5455,-0.06353,-26.58,50.4,10.5
1.6072,-10.447,-0.64016,-0.6463,1.0327,-0.22235,-27.6,49.68,9.06
0.62654,-11.25,0.58567,-0.85613,1.894,-0.40378,-29.82,48.84,6.24
2.0431,-14.097,3.514,-0.95264,2.7452,-0.46762,-31.92,48.48,3.06
4.7944,-18.987,2.7104,-1.0321,3.35,-0.16035,-34.08,48.42,-0.42
5.1076,-19.463,3.4323,-1.42,3.5702,-0.02138,-34.8,48.48,-2.16
4.5764,-18.864,4.6037,-1.8323,4.3246,0.42486,-36.12,48.78,-5.34
3.7592,-15.813,4.4402,-1.598,4.3023,0.38057,-36.54,49.14,-6.72
2.3836,-11.863,0.85808,-0.92088,4.2079,-0.03146,-37.14,50.16,-8.7
3.6094,-10.025,-2.833,0.14752,3.7171,-0.33262,-37.08,51.48,-10.02
5.4345,-10.12,-4.6037,1.0024,2.033,-0.30452,-36.24,52.68,-10.56
4.7944,-9.6977,-4.2359,1.212,-0.37996,0.063835,-35.46,53.46,-10.44
2.152,-7.8998,-2.0567,0.71716,-3.4502,1.0592,-33.06,55.2,-9.12
0.38137,-6.4833,-1.4846,0.58185,-4.309,1.3314,-28.56,57.12,-6.42
-1.9886,-5.5571,-1.7298,0.5287,-3.8515,1.2239,-21.48,59.16,-3.48
-1.1032,-4.1406,0.32689,-0.8601,-0.87568,1.2156,-12.96,60.72,-1.74
-1.7979,-4.0997,-1.6208,0.59315,0.41081,0.38943,-8.58,61.02,-1.44
-0.88532,-7.0962,0.095342,-0.51343,1.781,0.34514,-0.36,61.08,-2.58
1.1986,-7.9951,1.3484,-1.0311,2.9935,0.016799,6.48,60.66,-5.4
2.547,-9.8066,1.7025,-1.2679,2.8448,-0.0036652,12.24,59.94,-9.24
2.547,-10.161,1.7706,-1.5052,2.4697,0.016493,14.52,59.34,-11.52
2.1248,-8.8668,2.261,-1.6118,2.1765,0.1295,17.4,57.42,-16.98
1.8796,-11.809,4.0589,-1.3876,2.0766,0.3934,17.7,54.9,-23.28
2.6423,-15.595,4.6854,-1.0666,2.3668,0.87965,15.18,52.14,-29.34
3.3097,-15.323,4.4811,-0.73426,2.7394,1.0409,13.14,50.76,-31.68
4.7535,-11.278,3.3234,-0.17959,2.4761,0.89492,8.52,48.3,-35.28
4.2087,-9.8748,1.5119,0.44074,1.474,0.35277,4.32,46.02,-36.78
3.4323,-10.842,0.76274,1.0076,0.17226,-0.33567,2.52,45.0,-36.9
0.9398,-12.762,0.31327,1.2117,-0.53145,-0.88911,-0.78,42.84,-36.54
-2.3427,-12.34,0.7355,0.8659,-0.23213,-1.0788,-3.54,40.62,-35.64
-2.7649,-11.55,0.64016,-0.087965,1.821,-0.73059,-4.44,39.66,-34.98
-1.6208,-8.9077,-0.095342,-0.55405,3.1493,-0.3485,-5.52,37.74,-33.78
0.14982,-7.5457,-0.96704,-0.70433,3.6805,-0.18509,-5.76,35.88,-32.52
0.89894,-7.3005,-1.4574,-0.6973,3.627,-0.039095,-5.82,35.04,-31.86
2.0022,-7.1234,-1.8251,-0.60109,3.2822,0.11484,-5.46,33.66,-30.72
2.3427,-7.0281,-1.9068,-0.49572,2.853,0.27214,-4.86,32.58,-29.82
2.5334,-7.0962,-1.8932,-0.33475,2.3054,0.45876,-4.5,32.16,-29.52
2.8739,-7.5184,-1.9068,-0.22052,2.0082,0.53848,-3.36,31.38,-28.92
3.2961,-8.1586,-2.1929,-0.10904,1.7309,0.58796,-1.62,31.02,-28.5
3.3097,-8.2948,-2.3427,-0.0061087,1.5143,0.61636,-0.6,31.02,-28.32
3.4323,-8.5944,-2.5742,0.11026,1.3512,0.6017,1.44,31.14,-28.2
3.5413,-8.6489,-2.7377,0.19028,1.1875,0.53939,3.48,31.2,-27.9
3.4051,-8.2267,-2.9011,0.24404,1.004,0.44685,4.44,31.32,-27.84
3.2689,-7.927,-3.0101,0.31032,0.7422,0.21258,6.24,31.2,-27.9
3.228,-8.0496,-3.1191,0.35919,0.54703,0.012523,7.62,31.08,-28.08
3.2008,-8.4446,-3.2825,0.38271,0.29963,-0.16218,8.1,31.02,-28.2
2.8875,-9.4389,-3.3915,0.27275,0.15363,-0.29505,8.94,30.78,-28.92
2.2201,-10.311,-3.0237,0.080329,0.15699,-0.37477,9.36,30.54,-29.16
2.1793,-11.768,-2.7649,-0.082467,0.34483,-0.35125,9.54,30.3,-29.4
2.9556,-14.71,-2.8739,-0.55619,0.76175,-0.208,9.66,30.06,-30.36
2.6832,-13.866,-2.0158,-1.1258,1.0785,-0.22113,9.84,29.7,-30.78
2.5742,-12.599,-1.185,-1.4902,1.376,-0.40775,9.72,29.58,-31.26
2.547,-10.992,-0.83084,-1.5547,1.5608,-0.77061,9.54,29.52,-32.34
2.8467,-11.809,-1.6072,-1.4404,1.4914,-1.3851,9.24,29.46,-32.82
3.7728,-12.544,-1.5527,-1.4404,1.372,-1.5485,9.0,29.46,-33.18
4.0589,-12.667,-1.0079,-1.4652,0.67226,-1.8274,7.92,29.94,-33.6
3.6094,-12.749,-0.98067,-1.5369,0.080023,-1.9581,7.26,30.3,-33.84
2.8058,-12.286,-1.076,-1.6435,-0.17287,-2.1307,6.3,30.42,-33.96
1.8251,-10.937,-1.0896,-1.7486,-0.024129,-2.2709,3.66,30.96,-33.6
1.0896,-10.324,-1.1441,-1.8857,0.56536,-2.3668,1.98,31.44,-33.3
0.57205,-9.4389,-0.95342,-2.0305,0.80756,-2.3692,-1.62,32.4,-32.22
0.91256,-9.1256,-0.8036,-2.1539,1.4917,-2.2162,-3.78,32.88,-31.5
1.0215,-8.7987,-0.47671,-2.1652,1.7077,-2.0009,-6.12,33.54,-30.72
1.4846,-8.3629,-0.40861,-2.0693,1.7291,-1.7083,-11.1,34.56,-28.68
1.6481,-8.0632,-0.47671,-1.9279,1.6038,-1.3158,-13.5,35.16,-27.6
1.7979,-7.2188,-0.36775,-1.6029,1.3295,-0.59682,-18.54,36.36,-25.26
1.8387,-6.9736,-0.25879,-1.3198,1.1936,-0.12248,-20.7,36.9,-24.12
1.757,-6.9736,-0.23155,-1.0195,1.0751,0.26542,-22.86,37.5,-22.92
1.6072,-6.7966,-0.27241,-0.72876,0.98899,0.58582,-26.64,38.58,-20.58
1.6344,-6.9055,-0.43585,-0.44563,0.99876,0.87109,-28.08,39.3,-19.44
2.0567,-7.3005,-0.72188,-0.18937,1.0437,1.1765,-29.22,39.84,-18.36
2.438,-7.9951,-0.92618,-0.019548,1.0837,1.5061,-30.6,40.98,-16.86
2.4653,-8.2539,-1.0079,0.16585,1.1029,2.0174,-30.96,41.52,-16.2
2.7377,-8.9077,-1.1441,0.2022,1.1179,2.1753,-30.84,41.88,-15.54
3.2553,-9.8339,-0.96704,0.27825,1.0489,2.5916,-29.94,42.48,-14.7
3.6094,-10.297,-1.1577,0.26053,0.84269,2.8366,-29.04,42.66,-14.46
3.6366,-10.924,-0.96704,0.21991,0.64996,3.16,-26.52,42.78,-14.28
3.3097,-11.618,-0.89894,0.25412,0.56444,3.4181,-24.96,42.66,-14.28
3.0918,-13.062,-0.91256,0.43952,0.88484,3.6322,-21.42,42.3,-14.88
4.0316,-15.473,-1.471,0.51649,1.0522,3.6643,-19.2,42.06,-15.48
4.8625,-13.961,-2.3836,0.6973,1.317,3.6459,-17.1,41.82,-15.96
5.4754,-11.686,-3.1463,0.81001,1.076,3.2159,-14.64,41.34,-16.68
5.9249,-9.0848,-3.1872,0.75533,0.46792,2.6282,-9.66,40.56,-18.24
5.5162,-9.1256,-2.7649,0.76053,-0.3485,1.9236,-7.2,40.02,-19.08
3.7184,-11.141,-1.8251,0.73731,-0.98288,1.2581,-2.64,38.94,-21.06
2.6968,-11.754,-1.4165,0.38271,-0.99143,0.72265,-0.54,38.46,-22.08
2.0703,-11.673,-1.362,-0.14355,-0.31368,0.31398,1.2,38.1,-23.04
1.1032,-10.311,-1.6753,-0.70097,1.5149,-0.13683,4.14,37.74,-24.54
1.5391,-9.2891,-1.3484,-0.86071,2.6896,-0.42272,5.16,37.68,-25.2
1.866,-8.3084,-0.8717,-0.91049,3.4434,-0.67104,6.3,37.86,-25.62
2.3563,-6.4833,-0.38137,-0.79535,3.6166,-0.88484,7.98,38.34,-25.86
2.3427,-6.1155,-0.35413,-0.63438,3.1646,-0.89522,8.64,38.52,-25.68
2.0839,-5.5162,-0.65378,-0.54031,2.8399,-0.8488,9.06,38.94,-25.32
1.8796,-5.4754,-1.3212,-0.18021,1.7342,-0.55497,9.72,39.96,-23.82
1.5391,-5.9657,-1.5527,0.087659,0.99785,-0.26634,9.72,40.44,-22.98
1.2667,-6.0883,-1.7025,0.34331,0.37141,-0.015577,9.84,41.1,-21.96
1.0624,-6.2654,-1.9477,0.61392,-0.081245,0.13347,10.38,42.36,-19.8
1.2122,-6.5105,-2.2474,0.84513,-0.45296,0.19975,10.74,43.02,-18.72
1.3076,-6.5786,-2.547,1.0107,-0.85399,0.1967,11.28,43.44,-17.52
1.185,-5.993,-3.3097,1.1044,-1.4569,0.07422,12.42,44.28,-15.66
0.96704,-5.7342,-3.3915,1.0559,-1.7776,-0.032987,12.9,44.64,-14.94
0.47671,-5.5707,-3.3506,0.92852,-1.9386,-0.12798,13.38,44.7,-14.52
-0.17706,-5.5707,-3.228,0.58429,-1.8164,-0.23335,13.86,44.7,-14.1
-0.64016,-5.884,-3.1872,0.30849,-1.4896,-0.23854,13.86,44.82,-14.22
-0.76274,-6.0747,-3.1191,-0.01069,-0.96211,-0.21472,13.86,44.58,-14.58
-0.70826,-6.8647,-2.3563,-0.26939,-0.27245,-0.19639,13.14,43.98,-15.9
-0.29965,-7.927,-1.5391,-0.39584,0.40409,-0.21105,12.6,43.62,-16.92
0.35413,-9.5479,-0.92618,-0.47739,0.93218,-0.18967,12.0,43.2,-17.94
2.438,-15.241,1.4846,-0.44838,1.3085,-0.045204,10.8,41.76,-20.64
4.7399,-18.987,1.58,-0.20983,1.127,0.29169,10.08,40.98,-22.08
6.1292,-19.395,1.0896,-0.65912,0.93707,0.71166,9.36,40.2,-23.82
6.851,-16.576,1.2258,-0.63316,0.46029,0.75686,7.92,38.52,-27.42
6.0202,-12.027,2.2474,-0.61148,-0.59101,0.68814,7.08,37.8,-29.1
3.8273,-10.188,2.0567,-0.24862,-1.3906,-0.0058032,5.76,37.32,-30.6
-0.46309,-9.9292,-0.8717,0.30116,-1.2168,-1.1588,2.64,36.84,-33.42
-1.3212,-9.5206,-1.9205,0.34483,-0.36896,-1.4123,1.02,36.72,-34.5
-0.83084,-9.1256,-1.5527,0.069944,0.30482,-1.1619,-0.78,36.78,-35.58
0.19068,-7.6683,-0.54481,-0.075747,0.40897,-0.99449,-4.62,37.14,-37.02
0.61292,-6.7966,-0.78998,-0.39798,-0.12156,-0.5452,-6.66,37.56,-37.26
0.57205,-5.8295,-0.96704,-0.48686,-0.53298,-0.3937,-8.64,38.16,-37.5
-0.21793,-5.0259,-0.68102,-0.51557,-0.56108,-0.26023,-13.56,40.02,-36.96
-1.1441,-5.094,-0.40861,-0.6353,-0.0027489,-0.0281,-16.2,41.22,-36.36
-1.4301,-5.38,-0.6674,-0.7196,0.3259,0.069333,-19.02,42.6,-35.58
-0.40861,-5.7886,-1.1441,-1.0767,1.3253,0.44471,-24.9,45.36,-33.72
0.095342,-4.9442,-1.2803,-1.3696,1.8292,0.6689,-27.84,46.68,-32.82
0.47671,-4.2223,-1.2803,-1.5971,2.1105,0.70158,-30.6,47.82,-32.34
0.99429,-2.833,-0.44947,-1.6469,2.2141,0.56413,-35.76,49.74,-32.28
1.2531,-3.2825,0.01362,-1.4291,2.1142,0.25901,-38.16,50.58,-32.82
1.9477,-5.1349,1.1441,-1.3124,2.0259,0.19303,-40.32,51.24,-33.84
3.4459,-10.855,2.1793,-0.39523,1.5094,0.39187,-42.06,51.6,-35.64
5.5299,-18.238,-1.362,-0.5339,1.3558,1.1884,-43.14,51.3,-38.34
10.079,-19.504,-3.3097,0.76114,1.7214,1.7437,-43.62,49.74,-44.46
9.7113,-11.822,-4.9306,1.317,0.4163,1.8091,-43.38,48.66,-47.58
6.96,-3.0237,-4.304,1.3955,-3.032,0.10629,-42.96,46.86,-53.64
3.4459,-5.0123,-2.6423,1.9148,-4.2165,-0.61545,-43.14,45.84,-56.1
1.2803,-6.8919,-2.2201,2.5824,-5.7461,-1.5797,-43.86,44.82,-58.2
-3.9499,-8.4038,-2.3155,1.3787,-4.8692,-1.4578,-46.2,42.18,-60.84
-4.7535,-7.6274,-3.4323,0.59804,-3.3234,-0.76908,-47.58,40.8,-61.2
-4.413,-6.3471,-4.0997,0.040623,-1.6292,-0.35461,-49.02,39.48,-61.02
-2.3563,-2.5742,-3.4732,-0.31124,0.76358,0.047342,-52.38,36.78,-59.4
-0.8036,-1.1577,-2.7377,-0.4554,1.4789,0.0097738,-54.48,35.4,-57.96
0.39499,-0.42223,-2.1793,-0.4835,1.2584,-0.22785,-57.06,34.32,-56.34
2.1929,-0.89894,-0.47671,-0.2755,0.34911,-0.5116,-64.8,32.7,-51.9
2.5198,-3.8273,0.095342,0.044593,-0.8039,-0.61209,-69.36,31.32,-49.74
2.5742,-7.927,1.4165,0.18998,-1.6591,-0.35033,-73.98,29.4,-47.88
5.1757,-18.891,0.58567,-0.22877,-1.9294,0.77885,-82.44,23.58,-44.82
7.8045,-19.491,1.9613,-0.65118,-0.95906,1.576,-85.8,20.34,-43.68
7.8453,-19.518,2.0839,-0.53665,-0.39431,1.7697,-88.68,17.46,-43.2
4.3721,-12.64,3.8137,-0.88514,0.028711,1.2281,-93.3,13.02,-42.54
1.9886,-9.7658,3.7728,-0.63072,0.53359,0.063835,-95.1,11.58,-42.54
0.44947,-9.5206,2.2201,0.1295,0.88881,-1.0354,-96.6,10.2,-42.66
0.21793,-10.828,-0.36775,0.44379,1.5941,-1.8641,-97.26,7.68,-42.96
1.1032,-9.9292,-1.2258,0.16524,1.7138,-1.5849,-96.78,6.42,-43.08
1.6753,-9.0848,-1.5119,-0.069639,1.1664,-0.72021,-95.64,5.4,-42.78
1.2258,-6.8919,-2.2337,-0.11668,0.23488,0.15302,-91.92,4.26,-41.58
0.21793,-6.0066,-2.438,-0.12401,-0.2645,0.6466,-89.82,4.68,-40.62
-0.44947,-5.2983,-2.2337,-0.18143,-0.10965,0.94257,-87.54,5.7,-39.36
-0.51757,-4.0997,-2.0839,-0.39309,0.80665,0.99876,-83.1,9.84,-36.9
-0.068102,-3.514,-1.8932,-0.551,1.4212,0.92485,-80.94,12.24,-36.0
0.34051,-3.3234,-1.7298,-0.60415,1.8042,0.76816,-78.54,14.4,-35.34
1.7025,-4.2223,-0.85808,-0.52595,1.781,0.57055,-72.72,17.22,-35.4
2.4517,-5.598,-0.5993,-0.33903,1.5204,0.45509,-69.54,17.88,-36.12
3.5413,-8.0088,-0.78998,0.026267,0.9612,0.46792,-66.18,18.12,-37.38
5.775,-17.216,-2.2746,0.52382,0.18326,0.63377,-59.82,17.88,-40.38
7.246,-19.246,-3.2825,0.74587,-0.53512,1.0592,-56.82,17.76,-41.88
7.3822,-19.504,-2.833,0.64721,-0.5284,1.0198,-54.3,17.34,-43.38
3.4596,-10.842,-2.1248,-0.031765,-0.95936,0.13867,-49.92,16.86,-45.66
2.3836,-8.1041,-1.9341,0.22541,-1.2633,-0.7532,-48.18,16.62,-46.56
0.17706,-8.7306,-2.152,0.75625,-1.5824,-1.4694,-45.48,16.26,-47.76
-0.69464,-9.6977,-2.1929,0.61423,-1.6252,-1.7141,-44.4,15.9,-47.76
-0.51757,-9.4389,-2.3291,0.032681,-1.2129,-1.3555,-42.96,15.42,-46.38
-0.39499,-9.4661,-2.4653,-0.18815,-0.74526,-0.85368,-42.72,15.48,-44.88
-0.95342,-8.2948,-2.2201,-0.27672,-0.44013,-0.6127,-42.84,15.54,-43.08
-1.1169,-7.0962,-1.8932,-0.3766,0.47067,-0.12431,-43.08,15.78,-40.8
-0.095342,-3.7728,-1.9613,-0.2697,0.65973,-0.079412,-44.64,17.1,-35.4
-0.20431,-2.547,-2.0839,-0.20495,0.208,-0.096517,-46.08,18.0,-32.34
-1.1169,-0.81722,-1.757,0.012217,-1.1347,0.075136,-48.9,20.04,-26.22
-2.2337,0.17706,-1.0896,0.14294,-1.3323,-0.13775,-50.34,20.76,-23.22
-1.6344,-0.40861,-0.98067,0.13897,-0.97647,-0.33842,-51.42,21.18,-20.34
0.081722,-6.1019,-0.31327,0.19914,-1.0956,-0.27825,-53.4,20.88,-15.6
1.1169,-10.801,1.2803,0.074526,-0.90164,0.000305,-54.12,20.22,-13.86
2.942,-17.543,2.0839,-0.018937,-0.45754,0.56291,-54.48,19.2,-12.42
5.993,-19.504,3.2416,-1.0595,1.1145,1.4603,-54.3,16.56,-10.68
6.7012,-19.532,3.0373,-1.062,1.5785,1.6127,-53.82,14.94,-10.26
6.2245,-16.086,2.6287,-0.78679,1.9432,1.1328,-53.4,13.44,-10.02
4.5356,-10.215,1.3076,-0.18662,1.5867,0.18998,-52.02,10.44,-9.72
3.8818,-9.616,0.027241,0.64385,0.90469,-0.66859,-51.3,8.94,-9.72
3.7184,-12.054,-1.6481,1.1603,0.17471,-1.2113,-50.28,7.44,-9.66
3.4459,-11.754,-2.2474,1.0064,-1.0162,-1.0351,-47.7,4.74,-9.24
1.7706,-10.27,-2.0567,0.70524,-1.4667,-0.50121,-46.14,3.72,-9.06
0.64016,-8.4719,-2.2474,0.57727,-1.5269,-0.1628,-44.52,3.0,-8.76
-0.50395,-6.4424,-2.942,0.37293,-1.3552,0.35797,-42.6,2.64,-8.04
-0.85808,-4.0861,-3.2825,0.011606,0.0085521,0.72021,-36.9,3.66,-5.58
-0.85808,-4.0861,-3.2825,0.011606,0.0085521,0.72021,-36.9,3.66,-5.58
-0.53119,-3.7047,-2.4925,-0.28863,0.53329,0.78985,-33.3,5.4,-3.24
-0.44947,-3.1599,-2.1793,-0.62614,0.94409,0.76144,-31.62,6.54,-1.92
-0.23155,-2.3699,-1.5255,-0.83353,1.2346,0.61606,-29.76,7.56,-0.6
0.040861,-2.9829,-0.14982,-0.77458,1.4554,0.34208,-26.04,9.36,1.62
0.7355,-4.8216,0.35413,-0.50793,1.4829,0.30604,-24.06,10.02,2.76
2.0839,-8.4174,-0.19068,-0.21564,1.3314,0.43921,-22.14,10.62,3.9
5.3528,-18.483,-0.47671,-0.19609,1.1524,0.7929,-18.12,11.52,5.58
6.5105,-19.273,-0.36775,0.040928,1.138,1.2917,-15.96,11.88,6.3
8.1177,-19.518,-0.76274,0.41508,1.1011,1.5519,-13.92,12.12,6.72
7.1234,-13.607,-2.9965,0.52657,-0.42302,0.59529,-9.66,12.6,7.5
4.9306,-8.2676,-2.8058,0.79474,-2.0721,-0.73426,-7.68,12.66,7.92
2.6015,-9.0439,-1.8932,1.3387,-3.5928,-1.7355,-5.88,12.72,8.34
-3.0237,-11.741,-1.5391,1.2043,-3.9318,-2.1252,-2.34,13.26,8.76
-4.7399,-9.9701,-1.3348,-0.17532,-2.1115,-1.6246,-0.66,13.32,9.0
-5.1621,-8.2539,-1.5255,-0.76786,-0.41356,-1.0091,0.96,13.62,9.12
-3.5685,-4.3858,-2.2474,-0.92546,1.0602,-0.52137,3.72,13.98,9.6
-2.4517,-2.7513,-2.438,-0.87048,1.8839,-0.21502,4.86,14.22,9.96
-1.471,-1.2531,-2.0158,-0.67378,1.9371,-0.069639,6.0,14.46,10.08
0.095342,1.0624,-1.4029,-0.46976,1.2141,-0.002138,7.74,15.12,10.62
0.47671,1.4301,-1.4438,0.0018326,-0.67531,-0.055589,8.4,15.3,10.92
0.32689,0.1362,-1.1713,0.32345,-1.7587,-0.036041,9.24,15.48,11.22
-0.12258,-4.7399,-0.25879,0.4331,-2.2602,0.14172,10.86,15.48,11.82
0.6674,-10.746,0.35413,0.4218,-2.0855,0.47037,11.88,15.42,12.06
2.6696,-17.57,1.9613,0.30635,-1.3769,1.0617,13.08,15.36,12.42
6.1564,-19.477,3.8954,-0.40256,-0.15669,1.9288,15.96,14.7,13.74
7.0553,-19.532,3.4187,-1.5711,1.6179,1.9783,17.58,14.4,14.34
5.3119,-12.408,3.8137,-1.7859,1.8653,1.5452,19.32,13.86,15.24
3.3778,-8.2948,3.4868,-1.0522,1.985,-0.38332,22.86,12.78,17.52
1.4574,-7.5048,2.6423,0.098349,1.8815,-1.3964,24.6,12.36,18.54
1.4301,-11.346,-0.55843,0.72082,2.3075,-2.1081,27.66,11.94,20.82
2.152,-10.869,-1.6753,0.61911,2.456,-2.1912,29.04,11.82,22.02
2.3155,-7.8317,-1.6344,-0.15638,1.2181,-0.91202,31.26,12.0,24.36
0.8036,-6.1019,-1.7298,-0.38607,0.24343,0.059865,32.28,12.18,25.56
-0.99429,-4.7671,-2.1656,-0.44838,0.029322,0.38454,32.94,12.3,26.7
-2.0158,-3.4051,-2.2882,-0.57116,0.43707,0.92638,33.42,12.48,27.84
-1.7025,-1.185,-1.6889,-0.53878,1.1597,0.95173,33.9,13.02,29.58
-0.64016,-1.5119,-1.1305,-0.37507,1.675,0.91202,33.9,13.56,30.54
1.7298,-4.5356,-0.47671,-0.11668,1.6087,0.88301,33.24,14.64,32.58
4.0589,-7.6683,1.185,0.55772,1.1066,0.94287,32.7,15.54,33.54
5.6388,-15.772,0.43585,1.0791,0.67867,1.0834,31.98,16.44,34.2
9.0575,-19.409,-3.3097,1.1869,-0.43555,1.7822,30.42,18.48,35.7
8.5944,-17.965,-4.7944,1.2975,-1.1597,1.482,29.82,19.32,36.24
6.7966,-11.536,-4.0589,0.43707,-2.1765,0.91874,29.4,20.04,36.66
1.4301,-6.9328,-2.2882,0.76114,-3.083,-0.81184,29.28,21.12,37.14
-1.0215,-9.3163,-2.3155,0.98716,-3.0537,-1.2312,29.58,21.72,37.32
-2.1929,-10.978,-2.0839,0.6298,-2.1936,-1.6286,30.0,22.32,37.32
-2.6287,-10.515,-2.0158,-0.60873,-0.1909,-1.591,31.2,23.34,37.14
-2.1248,-9.3299,-2.4653,-0.99571,1.0818,-1.3799,31.68,23.82,37.02
-1.0896,-8.3357,-2.9148,-1.1808,2.1692,-1.1176,32.28,24.18,36.9
1.076,-6.0611,-2.8467,-1.1325,2.7593,-0.78099,33.66,24.9,36.9
1.7706,-5.489,-2.7104,-0.75381,2.4667,-0.33139,34.38,24.84,36.84
2.5334,-4.9578,-2.6151,-0.34361,0.61239,0.029016,35.4,24.9,36.96
1.3757,-4.0316,-2.3836,-0.15272,-0.56536,0.11423,38.16,24.66,37.5
0.50395,-3.2961,-2.1929,-0.034819,-1.2645,0.13928,39.72,24.42,37.68
-0.16344,-2.9011,-2.0975,0.0024435,-1.5635,0.058032,41.46,24.3,38.16
-1.6344,-2.3018,-1.2258,0.0030543,-1.566,-0.18326,44.88,24.36,39.54
-1.7298,-3.337,-1.1713,0.039095,-1.3369,-0.2529,46.68,24.6,40.38
-1.3757,-5.0531,-1.0215,0.095906,-1.1243,-0.16768,48.54,24.96,41.52
1.0488,-16.699,1.0351,0.18815,-0.80665,0.18906,52.62,26.52,44.1
2.5606,-19.191,0.62654,-0.40959,0.049786,0.85979,54.9,27.84,45.6
