Ax,Ay,Az,Gx,Gy,Gz,Mx,My,Mz
3.2825,-5.9521,-4.1542,0.2251,-0.60567,-0.21564,30.66,10.56,23.22
3.3097,-6.5378,-4.3858,0.12889,-0.85552,-0.37354,30.96,10.62,23.16
3.3234,-6.674,-4.2495,-0.039095,-1.0611,-0.4945,31.2,10.62,22.92
2.9011,-6.5514,-3.6094,-0.18754,-1.2123,-0.60537,31.5,10.14,22.62
2.6151,-6.5378,-3.2416,-0.281,-1.2648,-0.70097,31.74,10.2,22.5
2.4653,-6.9736,-2.9556,-0.37293,-1.2401,-0.75075,31.98,10.2,22.5
2.5606,-7.8317,-2.8058,-0.56627,-1.1057,-0.79077,32.46,10.56,22.5
2.656,-8.2131,-2.7377,-0.65271,-1.0449,-0.81123,32.58,10.8,22.56
2.7377,-8.6762,-2.5606,-0.83353,-0.88575,-0.86987,32.76,10.98,22.62
3.2008,-10.025,-1.6753,-0.99388,-0.54611,-1.0162,33.36,11.58,22.8
3.2008,-11.904,-1.6072,-0.9838,-0.281,-1.1179,33.66,11.82,22.92
3.3506,-13.62,-1.2939,-1.0666,0.064141,-1.2608,33.9,12.18,23.1
3.6366,-14.846,-0.21793,-1.317,0.46945,-1.452,34.32,12.84,23.58
3.9908,-15.473,0.19068,-1.3534,0.96944,-1.6185,34.5,13.26,23.76
4.5492,-16.304,-0.31327,-1.2269,1.0382,-1.6319,34.68,13.74,24.18
5.3119,-16.603,-1.8932,-1.7071,0.81215,-1.6567,34.98,14.94,25.14
5.203,-14.192,-1.7706,-1.4591,0.53359,-1.6154,34.92,15.48,25.74
4.8352,-13.539,-0.68102,-1.0088,0.1179,-1.6267,34.62,16.62,26.76
3.909,-11.877,-0.35413,-0.80634,-0.077274,-1.6478,34.26,17.22,27.18
3.3915,-10.624,-0.53119,-0.7083,-0.16249,-1.6215,33.9,17.76,27.72
3.1191,-9.6432,-0.76274,-0.51252,-0.27733,-1.5623,33.48,18.36,28.14
2.9284,-7.8862,-1.2803,-0.35216,-0.3204,-1.4306,32.28,19.5,29.16
2.5742,-6.4833,-1.2667,-0.30146,-0.35064,-1.3839,31.74,20.1,29.64
2.3699,-5.6388,-1.362,-0.28894,-0.38637,-1.3305,30.96,20.64,30.0
1.9886,-5.094,-1.185,-0.22724,-0.44349,-1.1982,29.34,21.54,30.42
1.8387,-5.2438,-1.1577,-0.24435,-0.4499,-1.0382,28.62,21.96,30.66
1.757,-5.38,-1.0351,-0.27306,-0.42761,-0.94776,27.66,22.32,30.72
1.6072,-5.5435,-0.8036,-0.41569,-0.18631,-0.65118,26.76,22.62,30.72
1.5119,-5.9385,-0.46309,-0.50916,0.099266,-0.41783,25.02,23.16,30.6
1.4165,-6.1292,-0.36775,-0.60598,0.4499,-0.1854,24.3,23.46,30.72
1.3893,-6.4697,-0.19068,-0.66859,0.79321,0.088881,22.98,23.76,30.9
1.7706,-6.5105,-0.38137,-0.61789,1.1719,0.55131,22.56,24.0,30.84
1.975,-6.5378,-0.50395,-0.56352,1.2846,0.87048,22.08,24.12,31.02
2.3427,-6.851,-0.72188,-0.41264,1.3063,1.1842,21.54,24.54,31.2
2.547,-7.9407,-1.076,-0.25351,1.3112,1.4972,21.36,24.54,31.38
2.7649,-9.1937,-1.4029,-0.17165,1.3405,1.8207,21.24,24.54,31.68
3.2008,-10.896,-0.83084,-0.03879,1.3986,2.3017,21.36,24.84,32.28
3.6366,-12.299,-0.64016,0.33231,1.3854,2.6118,21.72,24.9,32.7
4.2223,-13.539,-0.6674,0.60934,1.2394,2.8292,22.08,24.9,33.12
4.9442,-16.018,-1.8387,1.0201,0.94531,2.9923,23.4,24.9,33.9
5.38,-16.154,-2.656,1.4019,0.40531,3.0708,24.18,24.96,34.32
5.0395,-15.187,-3.2825,1.7312,-0.22938,3.0143,25.14,24.9,34.56
4.6854,-14.982,-3.4459,1.996,-0.73793,2.9245,27.3,25.02,34.68
4.699,-15.037,-3.4459,1.8973,-1.2055,2.7599,28.38,24.9,34.74
4.5764,-14.342,-3.4732,1.7251,-1.2669,2.6875,29.64,24.84,34.38
4.2904,-12.354,-3.2144,1.2883,-1.1176,2.3964,30.84,24.66,34.2
4.0725,-10.869,-2.9011,1.1008,-0.83444,2.1567,32.34,24.42,33.78
3.7047,-8.8668,-2.9965,1.036,-0.61453,1.8812,35.22,23.88,32.76
3.5685,-8.1722,-3.4459,0.9502,-0.52687,1.5678,36.54,23.34,32.04
3.623,-6.9328,-3.8682,0.85918,-0.58154,1.2324,39.24,22.38,30.6
3.7592,-6.1973,-3.9363,0.7645,-0.6857,0.92454,40.56,21.78,29.94
3.7728,-5.5162,-4.0997,0.69852,-0.8097,0.59834,41.76,21.36,29.1
3.6639,-5.0531,-4.1678,0.58277,-1.0082,0.13744,42.9,20.82,28.08
3.4732,-5.203,-3.8682,0.56169,-1.1176,-0.10721,44.82,19.86,25.8
3.5413,-5.8023,-3.9635,0.50213,-1.244,-0.26664,45.72,19.32,24.78
3.9227,-7.2596,-3.9635,0.38546,-1.3882,-0.37904,46.8,18.48,22.98
4.0589,-8.1995,-4.1542,0.24526,-1.5357,-0.4328,47.28,18.12,22.26
4.0316,-8.7715,-4.1133,-0.18998,-1.6173,-0.50855,47.82,17.76,21.42
2.833,-9.0575,-3.2553,-0.64752,-1.3803,-0.66981,48.18,17.82,19.86
2.4517,-8.9349,-2.3018,-0.9499,-0.90775,-0.84116,48.12,17.7,19.14
2.3699,-10.42,-2.1929,-1.0504,-0.4273,-1.0177,48.18,17.94,18.72
2.7241,-11.605,-2.0839,-1.1796,-0.062308,-1.2065,47.88,18.48,17.58
2.8467,-12.122,-1.8251,-1.4071,0.30635,-1.4398,47.64,18.96,17.16
3.4732,-13.007,-1.5255,-1.6371,0.65271,-1.6887,47.4,19.2,16.86
3.9227,-13.266,-1.2258,-1.9447,0.81367,-2.0589,46.68,20.46,16.86
3.8682,-13.43,-0.7355,-2.0061,0.78679,-2.3033,46.2,21.12,17.1
3.9227,-14.288,-0.19068,-1.8766,0.77397,-2.4929,45.66,21.84,17.4
4.6718,-18.565,-0.88532,-1.876,0.56719,-2.5256,44.16,23.4,18.36
5.094,-18.578,-1.1577,-2.1331,0.38485,-2.3143,43.32,24.18,19.2
5.2711,-16.889,-1.5391,-1.8995,0.09163,-2.1368,42.18,24.9,19.86
4.7535,-13.702,-1.0624,-1.6463,-0.13806,-2.0049,39.66,26.1,22.02
3.8001,-12.776,-0.28603,-1.5153,-0.09163,-2.0684,38.46,26.94,23.22
2.8058,-11.55,0.29965,-1.434,0.041233,-2.1527,37.14,27.72,24.12
2.0567,-8.6762,0.16344,-1.3088,0.10079,-2.1921,34.08,29.04,26.22
2.0158,-7.4231,-0.29965,-1.0131,-0.0079412,-2.1603,32.46,29.52,27.24
2.0294,-6.4424,-0.51757,-0.91447,-0.064752,-2.1115,30.66,30.12,28.02
2.1112,-5.489,-0.99429,-0.73029,-0.23121,-1.9426,28.92,30.54,28.74
2.0294,-5.0804,-1.1577,-0.51557,-0.58796,-1.5766,25.38,31.32,29.94
1.7979,-4.9033,-1.1577,-0.46487,-0.71624,-1.2831,23.4,31.62,30.48
1.471,-4.7944,-1.1032,-0.47525,-0.71624,-0.7929,20.1,32.22,31.2
1.1986,-4.699,-0.85808,-0.52168,-0.4777,-0.44043,18.48,32.28,31.38
0.89894,-4.7944,-0.74912,-0.54795,-0.34239,-0.2419,17.04,32.46,31.5
0.76274,-4.7944,-0.19068,-0.6182,0.18234,0.33934,14.58,32.64,31.56
0.8036,-4.6173,0.054481,-0.61239,0.56719,0.71929,13.44,32.64,31.56
0.92618,-4.5628,0.14982,-0.49205,0.91141,1.0773,12.6,32.52,31.86
1.3484,-5.2302,-0.64016,-0.33628,1.1793,1.584,11.58,32.4,32.58
1.471,-5.598,-0.95342,-0.10904,1.3653,1.9273,11.28,32.4,32.94
2.1248,-6.456,-1.3076,-0.022297,1.3824,2.1047,11.34,32.28,33.48
3.1872,-8.4174,-1.7979,0.26786,1.3042,2.5953,11.82,32.22,34.62
4.413,-10.474,-1.8115,0.50213,1.0938,2.9181,12.3,32.16,35.16
4.7807,-12.204,-1.7025,0.84299,0.87262,3.1957,13.08,32.16,35.64
7.0553,-18.932,-2.8467,1.241,0.81092,3.5711,15.24,32.22,36.72
7.5321,-19.463,-3.8409,2.102,-0.17074,4.0219,16.5,32.46,36.9
6.5514,-17.216,-4.7944,2.2626,-0.43066,3.93,18.24,32.58,37.26
5.9657,-14.696,-5.1349,2.4954,-0.93676,3.5769,19.86,32.7,37.26
4.2223,-13.43,-4.8897,2.3863,-1.5879,2.8873,24.12,33.0,36.84
4.0861,-12.83,-4.3313,2.1393,-1.8192,2.4264,26.1,33.06,36.3
4.1814,-12.217,-3.8954,1.9954,-1.8528,2.0666,28.14,32.94,35.58
4.3721,-11.536,-3.5413,1.591,-1.2706,1.7019,32.22,32.64,33.48
4.1542,-10.569,-3.732,1.3485,-0.94654,1.5895,34.14,32.4,32.28
3.8682,-9.4934,-3.8954,0.84452,-0.36682,1.3118,36.12,32.22,31.02
2.0567,-6.4152,-4.0452,0.37477,0.19426,0.78099,39.78,31.56,28.26
1.6753,-5.2438,-3.8546,0.25626,0.51038,0.46609,41.64,31.2,27.06
1.9613,-4.6309,-4.3721,0.31215,0.6463,0.24465,43.14,30.66,25.8
3.3506,-5.38,-5.2302,0.34728,0.49694,-0.0012217,45.96,29.76,23.28
3.732,-5.8159,-5.5843,0.16005,0.27367,-0.15211,46.92,29.34,22.38
3.9635,-6.0338,-5.3937,-0.034514,0.013439,-0.24496,47.94,28.92,21.66
4.0861,-6.4288,-4.9578,-0.11637,-0.31307,-0.30971,48.48,28.5,20.94
4.1406,-8.4174,-4.8897,-0.22449,-0.68203,-0.41233,49.5,28.02,19.86
3.6775,-9.0439,-4.4811,-0.54886,-0.86712,-0.55741,49.92,27.9,19.14
2.9965,-9.0167,-3.4732,-0.93004,-0.7703,-0.77916,50.1,27.9,18.96
2.6423,-9.5479,-2.0431,-1.0693,-0.55344,-1.0082,50.46,28.26,18.78
2.5198,-11.7,-1.7162,-0.98594,-0.24832,-1.299,50.46,28.68,18.84
2.6287,-12.871,-1.866,-1.0977,0.08094,-1.4991,50.52,29.1,19.08
2.9011,-14.506,-2.0839,-1.3983,0.50183,-1.7468,50.34,29.52,19.32
3.3915,-15.541,-1.8524,-1.7633,0.90775,-1.9978,49.68,30.9,19.74
3.9227,-15.282,-1.6889,-2.0128,1.1173,-2.361,49.14,31.56,20.28
4.5628,-16.93,-1.2531,-1.9303,1.0501,-2.4658,48.0,32.88,21.66
4.9033,-18.864,-2.0294,-2.0241,0.57421,-2.4569,47.1,33.72,22.32
4.9306,-18.129,-1.9205,-2.0568,0.42577,-2.4071,46.2,34.44,23.16
4.7126,-15.364,-1.6753,-1.6637,-0.03543,-2.2556,45.06,35.16,24.06
3.623,-13.443,-0.57205,-1.4966,0.002138,-2.1237,42.6,36.66,26.28
2.9829,-11.931,-0.21793,-1.3616,0.27794,-2.0427,41.16,37.38,27.3
2.2201,-9.0031,-0.42223,-1.3073,0.34544,-2.0088,37.86,38.64,29.64
2.1929,-7.6138,-0.81722,-1.1484,0.41722,-1.9826,36.0,39.24,30.78
2.0567,-6.7421,-1.0488,-0.89522,0.21258,-1.8488,34.08,39.54,31.74
1.7706,-5.7614,-1.2258,-0.80634,0.061392,-1.6377,30.06,40.2,33.6
1.7298,-5.4345,-1.2803,-0.75931,-0.046731,-1.4148,28.02,40.32,34.44
1.6753,-5.1621,-1.1713,-0.74067,-0.10843,-1.0308,24.0,40.68,35.7
1.3348,-4.6445,-0.92618,-0.76572,-0.073609,-0.79382,22.14,40.74,36.12
0.95342,-4.2904,-0.85808,-0.78588,0.03543,-0.54062,20.34,40.74,36.6
0.8036,-4.1542,-0.76274,-0.76114,0.18448,-0.26939,18.6,40.8,36.9
0.6674,-4.5764,-0.64016,-0.72143,0.30971,0.058643,15.48,40.68,37.5
0.70826,-4.7671,-0.72188,-0.69516,0.47678,0.40684,14.16,40.56,37.8
0.8036,-4.9033,-0.57205,-0.67653,0.70524,0.80665,13.14,40.38,38.34
0.96704,-5.0668,-0.55843,-0.61667,0.97952,1.2352,11.34,40.02,38.88
1.4029,-5.2575,-0.47671,-0.43433,1.3714,1.8909,10.74,39.72,39.3
1.7434,-5.38,-0.58567,-0.34941,1.4697,2.0916,10.5,39.54,39.9
3.4187,-6.7421,-1.5936,-0.17257,1.5864,2.6377,10.86,39.24,41.1
4.4266,-7.5457,-2.1112,0.026267,1.4911,2.9377,11.16,39.36,41.7
5.7069,-8.6353,-2.438,0.34819,0.99846,3.2733,12.6,39.18,43.08
7.5321,-11.741,-2.2746,0.72326,0.79596,3.3384,13.56,39.24,43.8
7.6546,-12.898,-2.4108,1.2446,0.029322,3.3387,14.88,39.36,44.22
6.7693,-13.961,-2.4517,1.5626,-0.48503,3.1771,17.88,39.36,45.12
6.4152,-15.159,-2.4517,2.0638,-0.84758,3.0604,19.5,39.72,45.36
7.0009,-18.932,-4.127,2.4089,-1.1814,2.8934,23.1,40.08,45.3
6.8374,-17.025,-5.9521,2.2003,-1.3925,2.456,27.24,40.68,44.76
5.6524,-13.634,-5.8976,1.6005,-1.3787,1.9813,31.5,41.16,43.38
4.127,-11.128,-4.699,1.135,-0.88301,1.2608,35.16,41.46,41.7
3.3097,-10.665,-4.1678,1.0934,-0.41325,0.90897,37.02,41.46,40.74
2.9692,-10.637,-4.1406,0.92057,0.0079412,0.66676,40.38,41.58,38.28
2.8875,-10.065,-4.304,0.52015,0.4499,0.53206,42.9,41.34,36.0
3.0237,-7.6683,-4.0861,0.082772,0.90561,0.41233,45.18,41.34,33.96
3.228,-5.5707,-4.0316,-0.1689,1.2178,0.25534,46.8,40.98,32.52
3.5958,-4.522,-4.2087,-0.17043,1.1842,0.1179,48.0,40.74,31.32
3.9499,-4.3449,-4.699,-0.020464,0.58704,0.0073304,48.48,40.56,30.72
3.9908,-4.3449,-4.9033,-0.051618,0.090408,-0.077274,48.78,40.44,30.6
3.8954,-4.0316,-4.7399,-0.11942,-0.3204,-0.13775,48.9,40.44,30.48
3.8682,-4.0316,-4.2359,-0.076969,-0.66187,-0.18418,49.08,40.5,30.42
4.127,-6.0611,-4.0861,0.054367,-1.1872,-0.23915,49.02,40.62,30.48
3.8682,-7.464,-4.0316,-0.042455,-1.4423,-0.29108,49.14,40.86,30.54
3.8682,-8.5127,-3.9227,-0.14905,-1.5021,-0.32956,49.14,41.1,30.54
3.7184,-9.2482,-3.3097,-0.50244,-1.3644,-0.52382,49.02,41.22,30.42
2.8058,-10.256,-2.3291,-0.71471,-1.0211,-0.73701,48.9,41.7,30.12
2.3291,-10.692,-1.8524,-0.91019,-0.48564,-0.9557,48.72,42.0,29.94
2.2882,-11.55,-1.362,-0.9499,0.081856,-1.1677,48.48,42.18,29.94
2.942,-13.293,-1.4165,-0.94134,0.48106,-1.3265,47.76,43.08,29.52
3.6503,-14.519,-1.4438,-0.95081,0.75014,-1.467,47.22,43.44,29.46
4.0044,-14.764,-1.757,-1.0806,0.91966,-1.664,46.44,43.86,29.34
4.699,-16.058,-1.6344,-1.1209,0.81215,-1.7025,44.76,44.76,29.4
5.1349,-18.265,-2.261,-1.1442,0.58215,-1.5721,43.68,45.18,29.58
5.4481,-17.611,-2.4925,-1.077,0.18876,-1.3702,42.48,45.48,29.82
4.3177,-13.225,-1.6072,-0.82986,-0.40042,-1.1915,40.02,46.14,30.54
3.5413,-12.245,-0.83084,-0.75869,-0.40073,-1.2049,38.64,46.44,30.9
2.9965,-11.346,-0.24517,-0.75686,-0.33384,-1.2187,37.26,46.92,31.38
1.5119,-8.0224,0.01362,-0.69578,-0.020769,-1.2559,33.96,47.4,32.22
1.5527,-6.7829,-0.21793,-0.46945,0.12828,-1.1677,32.46,47.64,32.52
1.8115,-6.1836,-0.89894,-0.25137,0.1518,-1.0052,31.02,47.82,32.88
2.2474,-5.3256,-1.866,-0.16585,0.11576,-0.84422,27.78,47.82,33.78
2.3563,-4.9987,-2.0294,-0.12553,0.054367,-0.686,26.22,47.88,34.08
2.3836,-4.8488,-2.0703,-0.15669,-0.091019,-0.44471,24.72,47.76,34.2
2.1656,-4.699,-1.866,-0.22755,-0.17746,-0.32498,23.4,47.64,34.26
1.7298,-4.304,-1.4301,-0.30207,-0.22938,-0.24038,20.88,47.34,34.26
1.4438,-4.413,-1.0624,-0.36072,-0.20036,-0.1292,19.74,47.22,34.14
1.3076,-5.38,-0.38137,-0.39767,-0.074526,0.023213,17.52,46.98,33.96
1.3757,-5.8431,-0.21793,-0.47037,0.15088,0.19517,16.62,46.8,33.96
1.4982,-6.1292,-0.01362,-0.57574,0.46731,0.3879,15.72,46.56,33.9
1.7434,-5.9657,-0.054481,-0.66493,0.96028,0.60659,15.0,46.38,33.96
2.2065,-5.6116,-0.24517,-0.55314,1.171,0.71166,13.74,45.84,34.08
2.4244,-5.6388,-0.68102,-0.36377,1.2004,0.78557,13.08,45.6,34.08
3.1599,-6.4424,-1.8387,-0.16829,1.0516,0.8937,12.72,45.24,34.08
4.0725,-8.0769,-2.6832,0.1014,0.63897,1.193,12.48,45.0,34.02
4.4402,-8.8941,-2.9011,0.2306,0.49205,1.3253,12.36,44.94,34.32
6.3471,-13.375,-3.8546,0.88637,0.13256,1.8674,12.48,44.64,34.56
7.6683,-14.805,-4.8352,1.1585,-0.080023,2.1673,12.72,44.46,34.62
7.9134,-14.86,-5.0395,1.065,-0.36744,2.117,12.96,44.34,34.68
6.8919,-15.282,-4.3721,1.2398,-0.55314,1.8372,14.28,44.22,34.5
6.5786,-14.955,-5.3256,1.0461,-0.70463,1.409,15.0,44.04,34.38
6.2245,-14.329,-5.7614,0.92577,-0.78557,1.1438,15.9,44.04,34.2
4.8897,-12.503,-6.851,0.69028,-0.70005,0.53939,17.58,44.04,33.54
4.1542,-11.427,-6.7421,0.27184,-0.08827,0.24099,18.24,43.92,33.18
3.7184,-9.7522,-6.1836,-0.13714,0.72235,-0.0058032,19.2,44.04,32.88
3.5549,-6.9055,-5.3119,-0.31185,1.2975,-0.1744,20.46,43.92,32.28
3.6094,-6.4424,-5.094,-0.42944,1.6924,-0.32773,21.24,43.86,31.92
3.9363,-5.7069,-4.7263,-0.49297,1.7095,-0.35583,21.9,43.74,31.5
4.2495,-4.5492,-4.1678,-0.57666,1.3638,-0.45601,22.92,43.62,31.02
4.3449,-3.8818,-3.8137,-0.53267,1.0171,-0.48228,23.4,43.56,30.9
4.2768,-3.5549,-3.5277,-0.44654,0.69608,-0.53206,23.64,43.44,31.02
3.9908,-3.7592,-3.0782,-0.29841,0.39645,-0.57727,23.22,42.9,31.5
4.1678,-4.5764,-2.9829,0.021075,-0.018021,-0.53176,22.74,42.48,31.86
4.5083,-5.884,-3.3097,0.12126,-0.24832,-0.47037,22.2,42.12,32.4
4.8216,-7.5729,-3.6775,0.13103,-0.34025,-0.44104,21.72,41.76,33.24
4.8761,-8.0905,-3.7728,-0.035125,-0.45815,-0.34728,21.3,41.34,34.32
4.7535,-8.54,-3.3915,-0.14142,-0.3824,-0.39706,20.94,40.74,37.32
4.5764,-8.7306,-3.0782,-0.16035,-0.26328,-0.49999,21.36,40.62,39.0
4.4947,-9.507,-2.7649,0.082467,-0.23763,-0.62827,21.96,40.8,40.8
4.6718,-12.544,-3.1735,0.16799,-0.2926,-0.65179,23.76,42.0,43.56
4.7399,-13.743,-3.3642,0.12004,-0.27489,-0.72235,24.36,42.9,44.04
5.0395,-14.478,-3.5685,-0.034819,-0.19639,-0.72968,24.42,43.56,44.22
5.2983,-14.628,-3.7456,-0.22633,-0.25992,-0.67867,23.94,44.04,44.22
5.094,-14.342,-3.3234,-0.36591,-0.41386,-0.63866,22.56,44.76,43.86
4.8761,-14.696,-3.1599,-0.33995,-0.64966,-0.54581,21.6,44.7,43.68
4.7263,-15.228,-3.2553,-0.37965,-0.72265,-0.50183,20.52,44.88,43.38
3.8001,-14.506,-3.2553,-0.72174,-0.74098,-0.4383,18.3,44.82,43.02
2.9284,-13.253,-2.9556,-0.96272,-0.44654,-0.47831,17.04,44.58,42.66
2.2201,-12.054,-2.6015,-1.1277,0.082772,-0.56444,15.42,44.4,42.06
1.2939,-10.011,-2.0022,-1.2801,0.74556,-0.67042,11.58,43.56,40.56
1.4165,-9.0848,-1.866,-1.3616,1.58,-0.78618,9.18,42.96,39.66
1.5119,-8.4446,-1.8932,-1.3693,1.7581,-0.77091,6.24,41.88,39.06
1.8796,-7.8726,-1.975,-1.4105,1.9771,-0.71044,3.24,40.5,38.82
2.3836,-6.5922,-2.0567,-1.4349,1.9334,-0.53145,-1.62,37.56,39.9
2.3972,-6.0474,-2.0431,-1.3943,1.7355,-0.39248,-3.3,36.12,40.92
2.3699,-5.5843,-2.1929,-1.3369,1.5085,-0.24954,-4.8,34.98,42.0
2.152,-4.9578,-2.0703,-1.2523,1.226,-0.071777,-7.08,33.12,43.74
1.9477,-4.9169,-2.0294,-1.1487,1.182,0.068722,-7.98,32.28,44.76
1.9477,-5.1621,-2.0294,-1.1118,1.2135,0.16738,-8.94,31.56,45.54
2.8058,-5.8295,-2.1112,-1.0513,1.3641,0.54917,-10.44,30.18,46.86
3.5685,-6.279,-2.2337,-0.97158,1.368,0.80543,-11.22,29.58,47.52
4.1678,-6.8102,-2.2337,-0.89339,1.3134,1.0504,-12.0,28.98,48.12
4.9169,-8.145,-2.8467,-0.80787,1.2376,1.4099,-13.14,27.66,49.32
5.5571,-8.7851,-3.2961,-0.81703,1.171,1.6167,-13.74,27.0,49.86
5.9249,-9.1665,-3.514,-0.84666,1.189,1.7404,-14.22,26.52,50.4
6.4152,-10.842,-3.051,-0.84086,1.325,1.8528,-15.0,25.68,51.42
6.7421,-12.217,-2.7922,-0.80023,1.5437,1.9438,-15.48,25.5,52.02
7.2188,-13.702,-2.9284,-0.76297,1.7578,2.0119,-15.72,25.2,52.5
8.1722,-12.871,-4.985,-1.0088,1.7724,1.8564,-16.2,24.72,53.52
7.2188,-9.2482,-5.2847,-1.4401,1.3983,1.5149,-16.38,24.48,53.94
6.5378,-8.0632,-5.0668,-1.2532,1.0861,1.1099,-16.56,24.24,54.36
5.4073,-8.1858,-3.9227,-0.91569,0.87537,0.88087,-16.8,24.0,54.9
5.2166,-11.564,-3.3642,-0.96547,0.81489,0.78435,-17.04,23.52,55.92
5.0531,-11.06,-2.942,-1.3564,0.91202,0.63011,-17.16,23.22,56.4
4.2359,-8.0088,-2.1929,-1.616,1.2669,0.5342,-17.52,22.8,57.66
3.4187,-7.2869,-2.3291,-1.6466,1.9652,0.39706,-17.58,22.5,58.26
3.4732,-6.3743,-2.5334,-1.6955,2.1878,0.37049,-17.82,21.96,58.98
3.5413,-5.7069,-2.5198,-1.6878,2.168,0.37446,-18.06,21.3,59.58
3.7728,-4.4402,-2.4789,-1.5892,2.0174,0.405,-18.72,19.86,60.6
3.732,-4.413,-2.3836,-1.4499,1.821,0.44685,-19.2,18.96,60.9
3.7047,-4.5083,-2.2337,-1.2764,1.6005,0.60292,-20.1,17.4,61.92
3.7865,-4.6173,-2.1112,-1.1506,1.5241,0.72235,-20.64,16.62,62.46
3.8273,-4.9306,-2.1112,-1.0052,1.4484,0.86712,-21.18,15.84,62.88
3.9635,-5.598,-2.2474,-0.85063,1.4364,0.99021,-21.84,15.0,63.06
4.5356,-6.6195,-2.3972,-0.76022,1.5214,1.0754,-23.04,13.32,63.42
4.7399,-7.0145,-2.5198,-0.69639,1.5956,1.1243,-23.76,12.54,63.54
5.1076,-7.1779,-2.7377,-0.59437,1.5996,1.1194,-24.54,11.94,63.48
5.1213,-7.2188,-3.5004,-0.39462,1.4184,0.99724,-26.16,10.74,63.24
4.9169,-7.2596,-3.9227,-0.29566,1.2575,0.86651,-26.76,10.2,63.06
4.7944,-7.0417,-3.9635,-0.27,1.1958,0.80481,-27.54,10.02,62.82
4.9306,-6.9872,-3.9908,-0.1182,1.0852,0.66584,-28.74,9.72,62.34
4.9714,-7.7091,-4.0725,-0.0012217,1.0788,0.6017,-29.22,9.78,62.22
4.9578,-8.4174,-4.2904,-0.0094684,1.1341,0.54703,-29.94,9.78,62.04
4.808,-8.4446,-3.8001,-0.14203,1.3085,0.53054,-31.08,10.02,61.32
4.8761,-8.4174,-3.514,-0.14416,1.3909,0.55864,-31.5,10.08,61.02
5.1894,-8.7306,-3.4732,-0.13103,1.5598,0.62705,-31.98,10.26,60.78
5.9657,-10.569,-3.3097,-0.067806,1.6643,0.82284,-33.12,10.62,60.18
6.4424,-11.891,-3.4732,-0.0015272,1.5879,0.94562,-33.66,10.92,59.76
7.0553,-12.517,-4.1814,-0.13714,1.383,0.97158,-34.14,11.16,59.34
6.1973,-9.0575,-3.909,-0.55772,0.91324,0.73609,-35.1,11.76,58.5
5.094,-7.3141,-2.2337,-0.5229,0.81123,0.62125,-35.58,12.18,58.2
4.8625,-7.6683,-1.6753,-0.24923,0.7199,0.41539,-36.0,12.42,57.96
5.5843,-11.237,-1.9886,-0.0058032,0.58154,0.27367,-36.78,13.02,57.24
5.9657,-12.068,-2.3155,-0.12523,0.34086,0.21838,-37.08,13.26,56.7
5.7886,-11.85,-2.547,-0.34636,0.13134,0.17837,-37.5,13.44,56.4
4.3858,-10.256,-1.8251,-0.56261,0.20067,0.078191,-37.92,13.86,55.92
3.8682,-9.7385,-1.5255,-0.63255,0.4273,0.021075,-38.22,13.98,55.68
3.623,-9.4934,-1.6344,-0.67898,0.69822,-0.028405,-38.52,14.22,55.5
3.2825,-8.5672,-1.7162,-0.74587,0.96395,-0.061697,-39.12,14.7,55.02
3.2825,-8.2131,-1.7025,-0.81337,1.1716,-0.04215,-39.42,14.7,55.02
3.3642,-7.8317,-1.4165,-0.84483,1.2642,-0.000611,-39.66,14.7,54.9
3.514,-7.5184,-1.1441,-0.83902,1.2605,0.071471,-40.26,14.64,54.9
3.5277,-7.4367,-1.1577,-0.821,1.1555,0.21075,-40.62,14.52,54.6
3.5004,-7.4231,-1.1169,-0.81489,1.1188,0.27,-40.86,14.46,54.6
3.2689,-7.0553,-0.99429,-0.78985,1.0568,0.46456,-41.64,14.22,54.6
3.3097,-7.0826,-0.99429,-0.73945,1.069,0.60689,-42.12,14.28,54.6
3.3506,-6.9872,-1.1032,-0.69944,1.077,0.74526,-42.36,14.16,54.48
3.4459,-6.7421,-1.3757,-0.69761,1.0602,0.8265,-42.84,13.98,54.3
3.5958,-6.5105,-1.3076,-0.68783,1.0156,0.89309,-43.44,14.1,54.0
3.6911,-6.7012,-1.0896,-0.65332,0.9612,0.93065,-44.4,14.1,53.4
3.7865,-7.0145,-0.96704,-0.63713,0.93951,0.93829,-44.82,14.16,53.28
3.9363,-7.246,-0.84446,-0.63958,0.87476,0.98594,-45.24,14.28,52.98
3.8682,-7.3277,-0.54481,-0.67195,0.90469,0.97402,-45.96,14.76,52.44
3.7592,-7.2869,-0.58567,-0.69058,1.0461,0.95875,-46.26,14.94,52.26
3.7184,-7.2188,-0.50395,-0.69761,1.3723,0.90042,-46.38,15.3,51.9
3.9908,-7.1915,-0.23155,-0.69486,1.4649,0.88178,-46.98,15.96,51.06
4.2359,-7.4776,-0.23155,-0.59223,1.6454,0.90408,-47.28,16.14,50.46
4.6173,-8.1041,-0.49033,-0.53573,1.6099,0.98471,-47.4,16.68,49.8
4.9306,-8.6353,-0.77636,-0.49511,1.4389,1.0886,-47.64,17.04,49.14
5.1213,-9.112,-0.6674,-0.50457,1.2171,1.1619,-48.12,17.94,47.76
4.7671,-8.6353,-0.21793,-0.54489,1.146,1.1512,-48.24,18.42,46.98
4.4402,-8.2131,-0.21793,-0.52809,1.1958,1.1212,-48.42,19.08,46.08
4.0316,-8.3765,-0.38137,-0.49022,1.4245,1.0058,-48.3,20.22,44.1
3.9771,-8.2812,-0.64016,-0.52351,1.5663,0.9108,-48.18,20.64,42.96
3.8682,-8.0088,-0.76274,-0.59376,1.7022,0.82497,-48.06,21.18,42.0
3.7047,-7.7091,-0.57205,-0.6353,1.8381,0.74953,-47.82,22.32,39.3
3.6911,-7.5865,-0.1362,-0.56994,1.8989,0.72082,-47.46,22.92,38.04
3.8954,-7.9679,-0.40861,-0.48197,1.8005,0.78435,-47.04,23.46,36.66
4.127,-8.7987,-0.47671,-0.38851,1.6893,0.87751,-46.62,24.12,35.22
4.127,-12.871,0.99429,-0.090713,1.6988,1.1258,-45.48,25.14,32.76
5.094,-17.829,0.55843,0.089797,1.7758,1.6331,-44.94,25.74,31.44
7.7091,-19.314,-0.81722,0.016493,1.8955,2.0128,-44.16,26.52,30.24
9.0439,-14.942,-4.8897,0.53237,1.5305,2.0745,-42.12,28.02,27.42
6.9055,-9.3436,-6.7012,0.82253,0.86132,1.471,-41.04,28.8,26.34
4.9442,-7.7772,-6.7148,0.9499,0.091019,0.8488,-39.78,29.64,24.9
1.7434,-7.75,-4.7807,1.0363,-0.69547,0.45448,-37.56,30.9,22.68
2.6151,-8.4174,-4.127,1.1332,-1.1051,0.3091,-36.48,31.68,21.6
3.6366,-9.0167,-3.8273,1.0394,-0.99296,0.19914,-35.58,32.34,20.7
3.5822,-8.9213,-4.3177,0.71105,-0.38637,0.3934,-33.6,33.36,18.78
3.5685,-8.2267,-4.2087,0.15516,0.52412,0.61636,-32.82,33.9,18.06
3.6639,-7.3005,-4.3177,0.017104,0.6185,0.62064,-31.92,34.32,17.28
3.5958,-5.598,-4.7944,-0.083689,0.39492,0.47739,-30.3,35.46,15.96
3.4187,-4.699,-4.7944,-0.10751,0.040928,0.22541,-29.58,35.82,15.48
3.1191,-3.7047,-4.3449,-0.04948,-0.40561,-0.01741,-28.86,36.18,14.94
2.9148,-3.4732,-3.6775,0.092241,-0.99266,-0.33353,-28.14,36.6,14.4
2.9284,-3.8409,-3.5685,0.31521,-1.2889,-0.4609,-27.96,36.72,14.16
3.0782,-4.8761,-3.6775,0.2868,-1.5064,-0.51954,-28.08,36.6,14.16
3.2553,-5.9112,-3.0646,0.21655,-1.6512,-0.5287,-28.26,36.6,14.46
3.3915,-6.7693,-2.656,0.18448,-1.7599,-0.48411,-28.5,36.36,14.64
3.5822,-7.9951,-2.4108,0.15333,-1.8473,-0.40103,-28.8,36.36,14.82
3.3506,-9.8611,-2.6696,-0.0082467,-1.8576,-0.35369,-29.76,36.0,15.78
3.1054,-10.433,-2.3699,-0.4444,-1.4074,-0.46609,-30.18,35.88,16.32
2.8058,-10.61,-1.6072,-0.63194,-0.8543,-0.54092,-30.6,35.7,17.1
2.7786,-11.782,-0.62654,-0.71899,-0.25168,-0.6802,-31.74,34.86,18.72
2.9965,-12.64,-0.55843,-0.73487,0.26634,-0.82528,-32.34,34.44,19.56
3.7456,-14.274,-0.78998,-0.68417,0.613,-0.90408,-33.18,33.96,20.46
5.0804,-17.162,-1.7162,-0.73823,0.78343,-0.97708,-34.8,32.7,22.56
6.17,-19.314,-1.866,-1.0663,0.74342,-1.0302,-35.76,31.92,23.4
6.7012,-19.477,-2.0703,-1.0431,0.60659,-1.0308,-36.48,31.2,24.48
6.4016,-17.243,-1.6344,-1.128,-0.093768,-1.175,-37.5,30.48,25.38
4.413,-14.301,-0.24517,-1.1191,-0.31185,-1.3928,-39.42,28.8,27.0
3.337,-12.871,0.44947,-1.124,-0.24099,-1.6735,-40.26,27.9,27.96
2.0703,-10.774,0.36775,-1.0748,0.04215,-1.9163,-41.22,26.94,28.98
1.9477,-8.9622,-0.99429,-0.88575,0.48136,-2.0968,-43.08,24.6,30.48
2.1248,-7.927,-1.471,-0.82925,0.58124,-2.102,-44.22,23.4,31.26
2.2474,-7.355,-1.7298,-0.73457,0.69242,-2.04,-45.42,22.08,31.86
2.5879,-5.8023,-1.9205,-0.66432,0.58002,-1.8027,-47.82,19.38,33.18
2.5198,-5.3528,-1.7979,-0.67592,0.33445,-1.6341,-49.02,17.76,33.78
2.2337,-4.8761,-1.5119,-0.73701,0.065057,-1.4755,-51.24,14.76,34.92
1.3757,-4.2223,-1.2258,-0.80634,-0.10996,-1.3063,-52.26,13.2,35.46
1.1577,-4.3721,-1.0896,-0.84941,-0.093768,-0.99632,-53.22,11.64,35.94
0.8036,-4.7263,-0.88532,-0.96211,0.093768,-0.74709,-54.06,10.08,36.48
0.61292,-4.9033,-0.7355,-1.106,0.42241,-0.45876,-54.84,8.52,37.08
0.50395,-4.985,-0.095342,-1.19,0.85918,-0.12462,-55.68,6.84,37.44
0.89894,-5.2711,0.14982,-1.2336,1.3057,0.24343,-56.64,3.78,37.92
1.3757,-5.3256,0.25879,-1.2181,1.7901,0.77488,-57.3,2.46,38.1
2.2065,-5.2166,0.25879,-1.1689,1.8613,0.95356,-57.84,0.24,37.98
2.8603,-5.6252,-0.28603,-0.93646,1.8888,1.4548,-57.96,-0.54,37.62
3.3778,-6.4833,-0.58567,-0.93982,1.8641,1.6222,-57.9,-1.26,37.26
3.7047,-6.6195,-0.72188,-0.69364,1.6695,2.1826,-57.72,-1.86,36.6
5.4754,-8.7443,-1.5391,-0.20647,1.31,2.565,-57.12,-2.04,35.1
6.7693,-10.964,-1.7979,0.58796,0.53573,3.0748,-56.58,-1.92,34.14
8.2267,-13.634,-2.1248,0.82589,0.21594,3.2058,-55.44,-0.78,32.04
8.1313,-14.07,-2.0975,1.4132,-0.86682,3.3625,-54.6,0.24,30.96
7.5865,-15.187,-1.9886,1.8708,-1.6423,3.2923,-53.76,1.56,29.94
7.4231,-17.284,-2.5334,2.3311,-2.3747,3.2559,-52.68,3.0,28.86
7.2869,-17.897,-4.5083,2.2321,-2.8714,2.8772,-50.52,6.54,26.76
6.1564,-14.86,-5.2983,1.5094,-2.8616,2.0986,-49.26,8.34,26.1
4.3449,-11.564,-4.5492,1.3876,-2.6719,1.8381,-46.5,12.36,25.08
3.228,-10.637,-4.2223,1.2556,-2.0171,1.3686,-45.12,14.4,24.96
2.6015,-10.256,-3.6503,0.96731,-0.74342,0.88209,-43.74,16.32,24.84
2.7377,-9.5887,-3.7047,0.71135,-0.015882,0.74251,-40.92,20.1,24.9
3.2825,-8.9213,-3.8682,0.41661,0.49694,0.61881,-39.66,21.9,25.08
3.6775,-7.069,-4.7399,0.08827,0.8097,0.42425,-37.38,25.08,25.56
3.6366,-5.9249,-4.5083,-0.28008,0.89309,0.12034,-36.24,26.4,25.8
3.7184,-4.9578,-4.2223,-0.30818,0.76328,-0.046731,-35.22,27.42,26.1
4.1678,-4.2904,-4.1406,-0.18906,0.42394,-0.19578,-33.6,29.16,26.52
4.4539,-4.5356,-4.4675,-0.07086,-0.051924,-0.32101,-33.12,29.82,26.82
4.3177,-4.9578,-4.6445,-0.069333,-0.52962,-0.42852,-32.58,30.3,27.0
4.2223,-5.3392,-4.0452,-0.14752,-1.1002,-0.551,-31.8,30.84,27.24
4.1542,-5.9249,-3.1872,-0.19273,-1.416,-0.61575,-31.68,30.96,27.42
3.9908,-6.4833,-2.9556,-0.19426,-1.5638,-0.64019,-31.44,30.9,27.6
3.8273,-7.7772,-2.6287,-0.21777,-1.7825,-0.66493,-31.32,30.84,27.84
3.5958,-9.5342,-2.2201,-0.40134,-1.7843,-0.71288,-31.14,30.6,28.92
3.3097,-10.433,-1.8932,-0.60231,-1.5495,-0.79015,-30.96,30.36,29.7
3.051,-11.182,-1.7979,-0.85765,-1.1359,-0.90194,-30.78,29.94,30.72
2.6015,-11.605,-0.9398,-1.1527,-0.30543,-1.1869,-30.36,29.04,32.94
2.5061,-12.286,-0.68102,-1.1493,0.2532,-1.3989,-30.36,28.62,34.02
2.6696,-12.967,-0.8036,-1.1225,0.697,-1.5818,-30.18,27.96,35.28
3.4596,-14.574,-1.3212,-1.1817,0.99724,-1.7517,-30.0,26.4,37.62
3.4596,-14.574,-1.3212,-1.2281,1.0901,-1.8485,-30.0,26.4,37.62
3.4596,-14.574,-1.3212,-1.2978,1.117,-1.9297,-30.0,26.4,37.62
4.6037,-13.729,-1.3076,-1.1649,0.68845,-2.0299,-30.36,22.56,42.06
4.5764,-14.955,-1.0896,-0.82772,0.33506,-1.9184,-30.78,21.66,42.96
4.699,-15.268,-1.1441,-0.58002,-0.017104,-1.6374,-31.02,20.76,43.8
4.6445,-12.871,-1.3484,-0.42364,-0.55741,-1.1661,-31.98,18.72,45.0
4.0044,-11.114,-1.185,-0.37904,-0.65088,-0.97769,-32.46,17.7,45.42
2.6287,-8.4719,-0.70826,-0.38546,-0.4725,-0.9276,-33.66,15.84,45.96
1.8524,-7.2869,-0.53119,-0.36835,-0.19364,-0.91049,-34.44,14.76,46.2
1.4438,-6.0474,-0.76274,-0.22755,0.059865,-0.86437,-35.82,12.84,46.74
1.866,-5.5162,-1.3757,-0.051007,0.25656,-0.65973,-36.6,11.82,46.8
2.1248,-5.203,-1.5936,-0.045509,0.23915,-0.5171,-37.26,11.16,47.04
2.261,-5.0123,-1.7025,-0.099266,0.19731,-0.38179,-37.98,10.56,47.1
2.1248,-4.6445,-1.6481,-0.16524,0.18234,-0.2584,-39.06,9.36,47.58
1.866,-4.3858,-1.4574,-0.23549,0.21472,-0.11393,-39.42,8.82,47.7
1.5119,-4.5492,-1.0624,-0.30665,0.26664,0.054672,-39.9,7.62,47.94
1.3212,-4.8897,-0.8036,-0.34728,0.36255,0.23885,-40.02,7.26,48.24
1.2258,-5.0668,-0.61292,-0.46701,0.72143,0.60323,-40.2,6.9,48.12
1.2667,-5.7886,-0.19068,-0.52687,1.1365,0.93523,-40.38,6.12,48.0
1.4029,-6.2109,0.16344,-0.52351,1.5788,1.2608,-40.38,6.0,47.82
1.7162,-6.6467,0.16344,-0.4777,2.1417,1.7486,-40.26,5.88,47.64
2.4925,-7.7636,-0.28603,-0.354,2.4016,2.0672,-39.84,6.06,46.74
3.0646,-9.0303,-0.89894,-0.53817,2.6279,2.3729,-39.3,6.3,46.26
3.7592,-9.6977,-1.1441,-0.54245,2.6918,2.5412,-38.94,6.72,45.6
5.1213,-11.005,-1.9205,-0.058948,2.3265,3.0956,-37.92,7.8,43.86
6.0202,-12.803,-1.866,0.32284,1.7321,3.3952,-37.2,8.7,42.78
6.5378,-14.22,-1.9886,0.66248,0.99938,3.5693,-35.76,10.98,40.62
7.3141,-14.71,-2.5742,1.0372,-0.35949,3.4642,-34.74,12.3,39.48
6.7693,-14.138,-1.975,1.1527,-1.3124,3.0717,-33.6,13.74,38.4
6.279,-14.914,-1.4574,1.5721,-2.1014,2.7461,-32.34,15.3,37.5
6.3198,-17.257,-3.4187,1.7336,-2.8405,2.3534,-29.58,18.66,35.7
5.4618,-15.445,-4.1951,1.2993,-3.2605,1.7929,-28.02,20.22,34.8
4.413,-13.307,-3.9771,1.0547,-3.0387,1.2999,-26.64,22.08,34.08
2.942,-12.313,-3.5413,1.0235,-2.2526,0.88362,-23.76,25.44,32.94
2.547,-12.027,-3.7184,0.57818,-0.70158,0.34208,-22.32,27.0,32.52
2.3972,-11.032,-3.8001,0.3711,-0.22541,0.20189,-20.76,28.5,32.16
2.9556,-8.7034,-3.7865,-0.082772,0.76908,-0.065668,-17.88,31.14,31.8
3.2689,-7.2052,-3.9635,-0.24496,1.0156,-0.27184,-16.74,32.1,31.86
3.3097,-6.4288,-3.8818,-0.34911,1.0388,-0.43738,-15.42,33.0,31.86
3.8409,-5.0668,-3.5685,-0.41447,0.77916,-0.59712,-13.74,34.26,31.86
4.2223,-4.8216,-3.514,-0.36194,0.3992,-0.68173,-13.02,34.74,31.8
4.304,-4.9033,-3.5004,-0.26114,-0.11301,-0.7364,-12.54,35.1,31.74
4.3177,-6.0202,-3.8273,-0.18845,-0.68539,-0.76572,-12.12,35.4,31.8
4.1133,-6.5378,-3.9363,-0.25595,-1.1698,-0.81398,-12.24,35.46,31.86
3.6503,-6.5105,-3.6094,-0.42089,-1.3885,-0.91416,-12.24,35.46,31.92
2.942,-6.565,-3.2553,-0.53939,-1.4071,-1.0635,-12.36,35.34,31.98
2.8603,-7.3958,-2.9692,-0.56933,-1.2953,-1.2364,-12.66,35.16,32.28
2.656,-8.5263,-2.942,-0.61331,-1.1136,-1.4105,-13.02,34.86,32.52
2.6423,-10.12,-2.6151,-0.85277,-0.63347,-1.638,-14.16,34.38,33.24
2.833,-10.883,-2.152,-1.0773,-0.22174,-1.7944,-14.64,34.08,33.78
2.9011,-11.25,-1.7843,-1.2792,0.19456,-1.9319,-15.36,33.18,34.92
2.9148,-10.706,-1.2258,-1.5192,0.74953,-2.153,-16.68,32.7,35.58
2.9011,-10.733,-0.54481,-1.5207,0.90744,-2.2324,-17.58,32.04,36.42
3.0646,-11.182,-0.19068,-1.237,1.2495,-2.3531,-18.48,31.38,37.14
3.8001,-13.579,-0.12258,-1.0632,1.3622,-2.3381,-20.76,29.82,38.34
4.4266,-14.805,-1.1713,-1.2223,1.2972,-2.241,-22.02,28.86,39.06
4.7807,-14.165,-1.2258,-1.4557,1.0974,-1.992,-23.16,27.9,39.48
4.9578,-12.313,-0.8036,-1.0547,0.72601,-1.6026,-25.98,25.62,40.38
4.699,-13.375,-0.36775,-0.43891,0.16554,-1.2391,-27.42,24.48,40.62
4.6037,-14.615,0.027241,-0.2978,0.011606,-1.0143,-28.74,23.28,40.92
4.6582,-12.572,-0.25879,-0.0027489,-0.41966,-0.38271,-31.2,20.94,41.28
4.2495,-11.087,-0.40861,0.17898,-0.62308,-0.14203,-32.4,19.8,41.28
3.514,-9.0575,-0.24517,0.29535,-0.66645,-0.0012217,-33.54,18.84,41.4
2.4108,-6.6467,-0.5993,0.49083,-0.56444,0.12859,-35.64,17.04,41.34
2.2201,-6.0883,-1.1713,0.68509,-0.54306,0.19578,-36.66,16.2,41.4
2.2474,-5.884,-1.6208,0.80237,-0.56383,0.35613,-37.26,15.54,41.4
2.4789,-5.5299,-2.6968,0.80054,-0.58551,0.53542,-38.16,14.58,41.52
2.547,-5.1349,-2.5606,0.73151,-0.53176,0.68783,-38.34,14.4,41.46
2.6696,-4.808,-2.5198,0.6353,-0.43677,0.8039,-38.64,14.22,41.58
2.547,-4.3585,-2.1248,0.52718,-0.3653,0.86712,-38.52,14.34,41.88
2.4517,-4.2223,-2.0703,0.37293,-0.36316,0.89767,-38.34,14.52,42.0
2.3427,-4.3994,-1.7025,0.3094,-0.36988,0.92057,-38.16,14.76,42.24
2.3427,-6.1428,-1.1169,0.23366,-0.31032,0.97494,-37.38,15.72,42.72
2.3836,-7.3141,-0.7355,0.087354,-0.14386,1.0379,-36.96,16.44,42.84
2.3155,-8.4446,-0.38137,-0.12523,0.16768,1.0989,-36.48,16.98,43.14
2.4108,-9.6296,0.28603,-0.27092,0.67165,1.1674,-35.34,18.06,43.44
2.6696,-10.052,0.28603,-0.40225,1.5971,1.2343,-34.56,18.72,43.38
3.0237,-9.9565,0.054481,-0.44899,1.8644,1.2492,-33.96,19.44,43.26
3.6775,-9.4525,-0.98067,-0.72998,2.2211,1.2853,-33.24,20.22,43.2
3.9363,-9.0031,-1.2803,-0.56688,2.1576,1.3198,-32.64,20.94,43.02
4.5628,-9.2618,-1.362,-0.14233,1.7446,1.3405,-31.32,22.32,42.36
4.8488,-10.501,-1.1577,0.27703,1.1182,1.4038,-30.72,23.16,41.88
5.1621,-13.539,-0.7355,0.79932,0.17287,1.5595,-29.52,24.72,40.92
5.4073,-14.928,-1.0624,0.93615,-0.030543,1.6047,-28.86,25.56,40.26
5.6524,-15.091,-1.6617,1.0773,-0.35094,1.6499,-28.32,26.28,39.6
5.3256,-14.288,-1.8251,1.1157,-0.95753,1.5693,-27.06,27.78,38.22
5.2438,-15.282,-2.2882,1.325,-1.3176,1.5009,-26.34,28.62,37.38
5.2166,-15.636,-2.9148,1.2242,-1.6658,1.3485,-25.62,29.64,36.6
4.127,-12.626,-3.514,0.78405,-1.8207,1.0009,-23.94,31.62,35.16
3.2416,-11.169,-3.5413,0.64202,-1.481,0.72937,-23.1,32.4,34.44
2.547,-10.243,-3.4187,0.57269,-1.1881,0.59407,-22.14,33.12,33.9
1.9341,-9.1529,-3.5004,0.29322,-0.12737,0.2419,-20.4,34.62,32.82
2.1793,-8.1586,-3.4323,0.09163,0.46273,0.11545,-19.62,35.4,32.52
2.547,-7.2733,-3.3097,-0.079107,0.83933,0.040317,-18.9,35.82,32.28
3.0373,-5.6524,-3.4051,-0.23335,1.0452,-0.11026,-17.34,36.9,31.68
3.3506,-4.8761,-3.2416,-0.24282,0.98655,-0.16768,-16.74,37.38,31.38
3.6639,-4.3449,-3.1054,-0.17257,0.68295,-0.25717,-16.08,37.8,31.02
4.3177,-4.4539,-3.2961,0.13225,-0.1689,-0.34667,-15.06,38.34,30.6
4.6582,-4.9033,-3.6366,0.31673,-0.94806,-0.36469,-14.76,38.4,30.6
4.7671,-5.38,-4.0589,0.43707,-1.7828,-0.3879,-14.52,38.46,30.6
4.3858,-6.5922,-4.1542,0.4215,-2.8216,-0.43585,-14.4,38.7,30.42
3.732,-6.9464,-3.6366,0.29322,-3.1777,-0.48869,-14.34,38.76,30.48
3.2144,-7.4776,-3.1599,0.1744,-3.229,-0.51496,-14.46,38.82,30.6
2.547,-8.7987,-2.5879,0.0012217,-3.0314,-0.51618,-14.4,38.52,31.2
2.0703,-9.8611,-2.2882,-0.31398,-2.5864,-0.551,-14.4,38.28,31.44
1.58,-10.052,-1.8524,-0.74312,-1.9016,-0.624,-14.4,38.34,31.98
1.4029,-10.27,-1.0624,-1.0941,-1.1078,-0.8207,-14.52,37.98,33.18
1.3757,-10.924,-0.51757,-1.3192,0.10415,-0.96975,-14.7,37.74,33.9
1.471,-12.286,-0.095342,-1.3164,0.49511,-1.025,-14.82,37.56,34.86
2.9284,-15.786,-0.54481,-1.4227,1.4887,-1.1634,-15.42,36.9,36.66
3.8001,-15.963,-0.81722,-1.777,1.8882,-1.3295,-15.78,36.54,37.56
4.3177,-15.296,-0.98067,-2.0577,2.1136,-1.4783,-16.2,36.06,38.52
4.522,-16.671,-0.51757,-2.0495,2.2425,-1.54,-17.76,34.44,40.38
5.0123,-17.148,-0.92618,-1.7074,1.9856,-1.4401,-18.6,33.54,41.16
5.4073,-16.099,-1.362,-1.5186,1.6945,-1.3754,-19.56,32.76,41.76
5.2847,-13.947,-1.4165,-0.96395,0.58857,-1.2086,-20.7,31.74,42.24
4.2495,-10.91,-0.5993,-0.70097,0.053145,-1.1799,-23.1,29.76,43.32
3.3506,-9.5479,-0.17706,-0.52718,-0.25962,-1.201,-24.24,28.56,43.62
1.975,-7.5457,-0.1362,-0.34636,-0.37018,-1.1982,-26.64,26.1,44.1
1.9613,-7.1371,-0.61292,-0.058338,-0.33078,-1.1029,-27.84,24.9,44.28
1.9205,-6.8238,-1.076,0.018937,-0.29291,-0.95784,-29.22,23.64,44.34
1.9341,-5.7069,-1.757,-0.011606,-0.1912,-0.80665,-31.32,21.36,44.34
1.8524,-5.1757,-1.58,-0.084605,-0.032376,-0.64721,-32.34,20.22,44.28
1.8387,-4.7944,-1.4574,-0.17287,0.1463,-0.48411,-33.24,19.14,44.22
1.6072,-3.732,-0.96704,-0.22235,0.26359,-0.31154,-34.56,17.4,44.28
1.5391,-3.514,-0.92618,-0.24893,0.3146,-0.069944,-35.04,16.56,44.28
1.5527,-3.4459,-0.77636,-0.25534,0.29749,0.020769,-35.52,15.78,44.28
1.58,-4.413,-0.65378,-0.25229,0.25351,0.33659,-36.0,14.64,44.46
1.7298,-5.2575,-0.68102,-0.30818,0.32987,0.58093,-36.06,14.22,44.4
1.866,-6.17,-0.38137,-0.47403,0.53573,0.83108,-36.12,13.86,44.4
1.7025,-6.4152,0.31327,-0.64752,0.86132,1.0424,-36.24,13.5,44.64
1.6753,-6.5105,0.6674,-0.67134,1.492,1.3616,-36.0,13.32,44.82
1.8387,-6.7693,0.96704,-0.62461,1.7147,1.4777,-35.82,13.32,44.7
2.9556,-7.6955,-0.1362,-0.49694,2.0745,1.7135,-35.7,13.38,44.64
3.732,-8.717,-0.64016,-0.61056,2.193,2.0672,-35.28,13.68,44.22
4.5356,-8.9894,-1.2258,-0.33078,2.029,2.3515,-34.86,13.92,43.98
5.5162,-9.8066,-1.8932,0.15699,1.4627,2.6322,-34.44,14.22,43.44
6.5241,-12.068,-2.4244,0.90652,0.26237,2.9459,-33.84,15.6,42.18
6.7966,-12.871,-2.5879,1.3231,-0.48564,3.0204,-33.24,16.2,41.7
6.8919,-13.743,-2.4517,1.6237,-1.0913,2.9618,-32.76,17.28,40.92
6.674,-18.837,-0.91256,2.1328,-1.456,2.8992,-31.44,19.8,39.3
7.6002,-19.45,-3.1191,2.3931,-1.8799,2.726,-30.54,21.18,38.34
7.5865,-19.177,-5.3256,1.6432,-2.3931,2.2486,-29.4,22.56,37.38
4.6037,-12.313,-5.1894,0.98013,-2.4401,1.3531,-27.18,25.38,35.46
3.3234,-10.992,-4.5356,1.0461,-1.897,0.76694,-25.8,26.76,34.86
2.3563,-11.046,-3.9635,1.0519,-1.5446,0.5171,-24.54,28.2,34.08
1.7706,-10.651,-3.5413,0.54092,-0.28375,0.099571,-21.96,30.84,32.7
2.0158,-8.9622,-2.9011,0.30268,0.13897,0.02474,-20.88,32.1,32.1
2.1929,-7.4776,-2.8058,-0.21716,1.23,-0.197,-19.68,33.42,31.62
2.2474,-5.9249,-2.833,-0.3882,1.737,-0.42669,-18.42,34.44,31.08
2.6968,-4.808,-3.0646,-0.42547,1.774,-0.47953,-16.32,36.06,30.3
3.514,-4.3858,-3.2825,-0.34697,1.478,-0.6017,-15.36,36.66,30.12
3.8409,-4.0997,-3.3642,-0.26023,1.0104,-0.67776,-14.58,36.96,29.76
4.1678,-3.8818,-3.5549,-0.12278,0.38668,-0.74556,-14.04,37.26,29.64
4.2768,-4.4675,-4.0725,0.049175,-0.30452,-0.7761,-13.5,37.26,29.16
4.2904,-5.38,-4.2495,0.17898,-1.3335,-0.74984,-13.44,37.14,29.04
3.7865,-7.4503,-3.6366,0.14508,-1.5977,-0.72724,-13.68,36.9,28.5
3.337,-8.0905,-3.0237,0.015882,-1.9206,-0.66157,-13.86,36.6,28.38
3.1191,-8.54,-2.5606,-0.094684,-2.0076,-0.56047,-14.04,36.3,28.44
2.8058,-10.637,-2.2201,-0.26664,-1.799,-0.48106,-14.64,35.7,28.68
2.6696,-11.414,-2.1248,-0.57024,-1.4471,-0.52809,-14.94,35.34,28.92
2.5742,-11.373,-1.6072,-0.89797,-1.0162,-0.65699,-15.24,35.04,29.28
2.2882,-10.924,-0.92618,-1.0974,-0.56658,-0.85857,-15.72,34.2,30.18
1.975,-11.278,-0.34051,-1.1573,0.11606,-1.2199,-16.08,33.66,30.78
2.0022,-12.163,-0.19068,-1.1051,0.53451,-1.4319,-16.44,33.12,31.5
2.5742,-13.988,-0.40861,-1.1493,0.90133,-1.5666,-17.04,31.98,32.94
3.1463,-14.519,-0.58567,-1.2553,1.1542,-1.6936,-17.46,31.5,33.72
3.5822,-15.323,-0.57205,-1.4664,1.2837,-1.7565,-17.88,30.84,34.44
4.4675,-17.094,-0.8036,-1.3549,1.3375,-1.4868,-18.9,29.4,35.94
4.8761,-15.391,-1.1441,-1.1839,1.0495,-1.2352,-19.62,28.56,36.66
4.808,-13.838,-1.185,-1.0599,0.82894,-1.1304,-20.22,27.9,37.14
3.5413,-11.046,-0.6674,-0.6182,0.29963,-0.9163,-21.3,26.16,37.8
2.9284,-10.297,-0.46309,-0.41142,0.19884,-0.79229,-21.96,25.2,38.22
2.4789,-9.1801,-0.50395,-0.28375,0.12462,-0.72388,-22.74,24.18,38.64
1.9341,-6.8919,-1.0896,-0.093462,0.078802,-0.61423,-24.3,22.38,38.76
1.8932,-6.1428,-1.3757,-0.050091,0.072693,-0.5452,-24.84,21.66,38.76
1.7843,-5.4345,-1.4438,-0.033903,0.10812,-0.29963,-25.5,20.94,38.82
1.7843,-4.3177,-1.5527,-0.030543,0.18815,-0.13775,-26.76,19.44,38.76
1.7706,-3.623,-1.7162,-0.037568,0.22449,0.027794,-27.42,18.9,38.7
1.8796,-3.2416,-1.6753,-0.072082,0.20678,0.19609,-27.78,18.36,38.52
1.6753,-3.1599,-1.2122,-0.11973,0.16127,0.4215,-28.56,17.34,38.22
1.6072,-3.7728,-0.85808,-0.11393,0.17013,0.51221,-28.68,16.98,38.04
1.6617,-4.808,-0.44947,-0.11576,0.24832,0.72357,-28.8,16.62,37.92
1.9613,-6.96,0.16344,-0.25137,0.54734,1.0751,-28.92,16.32,37.8
2.261,-7.4776,0.28603,-0.38057,0.8323,1.2572,-28.86,16.38,37.68
2.5198,-7.5048,0.42223,-0.46487,1.1267,1.3836,-28.68,16.62,37.32
2.8739,-7.2188,0.10896,-0.36072,1.4945,1.43,-28.08,17.1,37.2
3.1463,-7.6138,-0.55843,-0.2978,1.5656,1.4111,-27.96,17.28,37.02
3.2689,-8.9213,-1.1441,-0.3766,1.536,1.4435,-27.6,17.7,36.54
3.9363,-10.42,-1.3893,-0.04948,1.2541,1.6597,-26.82,18.48,35.7
4.5356,-11.482,-1.4165,0.28955,0.87506,1.8243,-26.46,18.9,35.28
4.8352,-11.822,-1.1713,0.58185,0.54672,1.9899,-26.04,19.5,34.86
5.094,-12.476,-1.3076,0.83322,0.2923,2.1008,-24.96,21.18,33.84
5.2438,-12.572,-1.7979,1.1765,-0.082467,2.0165,-24.24,22.02,33.12
5.2166,-13.048,-1.9613,1.5073,-0.47159,1.825,-23.58,22.98,32.64
6.1155,-17.216,-3.4187,1.9105,-1.1136,1.7135,-22.2,24.9,31.32
6.5514,-17.38,-4.7671,1.7966,-2.0214,1.5165,-21.42,25.8,30.6
5.8159,-15.323,-5.6661,1.3473,-2.7287,1.2101,-20.64,26.64,29.88
2.7104,-10.079,-5.2302,0.78741,-2.4487,0.63683,-19.2,28.38,28.62
1.2803,-8.1995,-4.699,0.55528,-1.4517,0.23182,-18.42,29.22,28.14
0.43585,-7.4095,-4.0589,0.52015,-0.33475,-0.044288,-17.64,29.82,27.66
0.8036,-8.8668,-3.5958,0.5623,0.50641,-0.06353,-16.02,31.38,26.82
1.9886,-9.9973,-4.1542,0.29322,1.0345,0.009163,-15.12,32.1,26.4
2.833,-9.4389,-4.5492,-0.22083,1.3809,-0.0067195,-14.46,32.58,26.22
3.9227,-7.5457,-4.5492,-0.57146,1.5256,-0.084299,-13.26,33.42,25.56
4.2495,-6.6876,-4.4402,-0.72937,1.1808,-0.26573,-12.78,33.6,25.32
4.1542,-6.0883,-4.3177,-0.68325,0.71166,-0.53451,-12.48,33.78,25.02
3.5958,-5.9657,-4.1406,-0.55375,0.2193,-0.73365,-11.94,33.9,24.66
3.5413,-6.7012,-4.2223,-0.49388,-0.19761,-0.89339,-11.94,33.78,24.54
3.6775,-7.3277,-3.9908,-0.54795,-0.40256,-1.0571,-11.88,33.66,24.54
3.8273,-8.4174,-3.4323,-0.60781,-0.52901,-1.2046,-12.24,33.12,24.54
3.732,-8.7034,-3.3234,-0.75931,-0.60048,-1.3363,-12.3,32.76,24.54
3.5822,-8.7851,-2.9965,-0.81031,-0.58979,-1.3812,-12.78,32.52,24.6
3.1463,-8.6353,-2.3427,-0.87506,-0.43555,-1.4862,-13.5,31.44,24.96
3.1054,-9.1937,-1.6208,-0.78924,-0.2642,-1.5269,-13.98,30.84,25.26
3.8682,-12.19,-1.4438,-0.55894,-0.09499,-1.4545,-15.06,29.46,25.8
4.2495,-13.416,-1.9613,-0.41905,-0.028711,-1.332,-15.54,28.74,25.98
4.8352,-14.996,-3.0237,-0.69089,-0.1628,-1.1295,-16.2,27.96,26.46
5.4618,-15.5,-3.0646,-0.8375,-0.25045,-1.0244,-17.76,25.98,27.12
5.1213,-14.71,-2.3836,-1.0586,-0.42608,-0.85949,-18.36,25.08,27.6
4.6445,-14.574,-1.7162,-0.93126,-0.62889,-0.84696,-19.26,24.18,28.14
4.0589,-15.623,-1.7025,-0.79901,-0.69761,-0.83169,-20.76,22.26,29.04
3.8954,-15.8,-2.152,-0.88117,-0.69089,-0.80695,-21.6,21.36,29.52
3.0237,-13.797,-1.8932,-1.1154,-0.38698,-0.894,-23.28,19.68,30.36
2.6151,-12.449,-1.6753,-1.1777,-0.17593,-0.92821,-24.18,19.02,30.72
2.2065,-11.346,-1.6617,-1.3054,0.31276,-1.0406,-25.14,18.3,31.08
1.6208,-8.4582,-1.7706,-1.3445,1.0067,-1.2083,-26.88,16.98,31.38
1.4165,-7.4912,-2.0703,-1.2535,1.2068,-1.3332,-27.72,16.26,31.5
1.3893,-6.8647,-2.3972,-1.1542,1.2694,-1.3167,-28.5,15.78,31.5
1.9613,-6.3335,-2.6423,-1.1188,1.2159,-1.1246,-30.12,14.88,31.32
2.1112,-6.0747,-2.3291,-1.1304,1.0959,-0.95448,-30.78,14.46,31.08
2.1384,-5.8295,-2.152,-1.1194,0.97647,-0.74862,-31.44,13.98,30.84
1.9886,-5.3119,-1.7162,-1.1231,0.88148,-0.53206,-32.52,13.02,30.06
1.7025,-5.0259,-1.4438,-1.0953,0.81398,-0.32834,-33.12,12.6,29.58
1.5119,-5.1076,-1.2395,-1.0339,0.7984,-0.10293,-33.48,12.18,29.04
1.3893,-5.5435,-0.81722,-0.93982,0.85827,0.14844,-33.9,11.1,27.96
1.4165,-6.0474,-0.76274,-0.75411,1.0852,0.63316,-34.14,10.62,27.36
1.58,-6.4424,-0.70826,-0.68417,1.1832,0.82406,-34.2,10.2,26.76
2.1929,-7.5865,-0.83084,-0.49358,1.4655,1.4264,-34.26,9.6,25.86
2.5742,-8.4582,-1.2395,-0.43982,1.6173,1.8634,-34.2,9.54,25.2
2.9829,-9.2755,-1.6072,-0.3879,1.7535,2.3149,-34.14,9.54,24.78
3.8954,-10.964,-1.7434,-0.20036,1.8085,2.7706,-33.78,9.66,23.64
4.018,-11.754,-1.2667,-0.020464,1.8543,3.1472,-33.54,10.08,23.34
4.5628,-15.132,-0.24517,0.1967,2.1591,3.4835,-33.42,10.62,22.8
7.464,-18.36,-1.3757,0.13073,2.4609,3.773,-32.58,12.18,21.72
9.0575,-14.097,-2.6015,-0.15638,1.6692,3.5907,-31.92,13.02,21.24
8.5127,-11.21,-2.2882,-0.27519,0.63774,3.0852,-31.08,14.16,20.88
5.0259,-9.221,-1.3348,-0.10873,0.020769,2.4377,-29.16,16.5,20.16
3.8682,-10.515,-1.8115,0.30696,-0.19761,1.54,-27.96,17.52,20.04
3.514,-11.182,-1.8932,0.2416,-0.054062,1.3705,-26.7,18.6,20.1
3.0237,-10.964,-1.0624,-0.19823,0.90133,1.0067,-25.2,19.74,19.98
3.1054,-8.2948,0.19068,-0.82161,3.4431,0.45907,-22.32,21.54,20.1
4.304,-7.1915,0.40861,-0.95051,4.7171,0.29993,-20.88,22.32,20.22
5.1894,-6.7012,0.28603,-1.1072,5.2776,0.20372,-17.58,23.82,20.64
6.4833,-5.1757,-0.44947,-1.0647,4.8194,0.16371,-16.02,24.48,20.64
6.6059,-4.8897,-0.68102,-0.97708,4.4172,0.15363,-14.52,25.02,20.88
6.3062,-5.4754,-0.70826,-0.5342,3.0113,0.11362,-12.9,25.32,21.0
5.7614,-6.279,-0.76274,-0.31001,2.3017,0.1576,-11.4,25.56,21.24
5.2438,-7.5048,-2.1384,-0.11393,1.7791,0.2755,-8.76,26.1,21.3
4.6445,-8.2539,-3.0101,0.035125,1.5101,0.38332,-7.68,26.28,21.3
4.3858,-9.112,-4.0452,0.067501,1.489,0.4945,-5.52,27.0,20.88
4.9578,-8.3493,-4.2223,0.078496,1.1328,0.62889,-4.44,27.36,20.28
5.0259,-7.7772,-4.2768,0.20433,0.3427,0.67745,-3.6,27.6,19.86
4.699,-7.4776,-4.3449,0.34086,-0.48564,0.66645,-2.64,28.02,19.38
2.9829,-8.1177,-5.0395,0.4273,-0.92149,0.63652,-0.72,29.1,18.24
2.5198,-9.1393,-5.5707,0.39523,-0.77794,0.60628,0.24,29.46,17.46
2.9692,-10.215,-5.4481,0.040623,0.25992,0.2981,1.26,30.0,16.8
4.413,-11.278,-3.0782,-0.1011,0.57666,0.19242,3.12,30.96,15.36
5.489,-12.531,-2.2201,-0.18784,0.70097,0.020159,3.96,31.5,14.64
5.8431,-13.253,-1.9886,-0.17257,0.47892,-0.19731,4.92,31.98,13.68
5.6116,-15.445,-3.4596,-0.2361,0.17471,-0.26053,6.24,32.76,12.3
5.1213,-14.206,-3.4051,-0.75961,-0.024435,-0.43799,6.72,33.0,11.34
3.9227,-11.223,-2.1929,-1.2651,0.1347,-0.81795,6.96,33.18,10.44
3.0237,-9.2482,-1.0624,-1.1548,0.1909,-0.90255,7.08,33.42,9.12
2.9556,-10.542,-1.2803,-0.91294,0.31154,-1.16,6.84,33.48,8.58
2.9148,-11.346,-1.7298,-0.96914,0.36072,-1.2055,6.48,33.66,8.1
2.9556,-11.605,-2.0431,-1.2324,0.65668,-1.2593,5.34,33.54,7.44
3.1191,-11.618,-1.7025,-1.3916,0.956,-1.2627,4.44,33.42,7.32
3.0646,-10.992,-1.185,-1.518,1.1365,-1.3173,3.36,33.36,7.32
2.8467,-10.365,-0.96704,-1.6338,1.2428,-1.3827,1.26,33.12,7.56
2.6015,-9.398,-0.9398,-1.6478,1.2862,-1.3815,-0.06,32.88,7.86
2.6015,-8.9894,-0.98067,-1.6087,1.3018,-1.3787,-1.62,32.76,8.46
2.547,-8.4446,-0.99429,-1.5485,1.2947,-1.3195,-4.56,32.64,9.36
2.5334,-8.3629,-1.0624,-1.5119,1.2465,-1.211,-6.06,32.7,10.02
2.5334,-8.322,-0.99429,-1.4905,1.1787,-1.0498,-7.38,32.76,10.68
2.438,-8.1041,-0.65378,-1.4734,1.127,-0.82497,-9.9,32.7,11.82
2.3155,-7.9407,-0.39499,-1.4725,1.1777,-0.47464,-11.1,32.76,12.36
2.2474,-7.5865,-0.21793,-1.4737,1.2217,-0.36011,-12.24,32.58,12.78
2.0294,-6.8783,0.054481,-1.438,1.4004,-0.040623,-14.16,32.52,13.56
1.9613,-6.9191,0.24517,-1.3573,1.5473,0.1741,-15.06,32.7,13.92
2.0703,-7.8998,0.61292,-1.2779,1.7022,0.43158,-15.96,32.7,14.22
2.3427,-8.3357,0.74912,-1.2065,1.9352,0.86804,-17.34,32.7,14.7
2.3699,-8.2131,1.0624,-1.1756,2.0644,1.1707,-17.7,32.82,14.76
2.438,-7.8589,1.1169,-1.088,2.1539,1.4685,-18.0,32.88,14.76
2.6423,-7.6002,0.7355,-0.96395,2.1948,1.7657,-18.36,32.94,14.94
2.7649,-8.0496,0.5993,-0.80695,2.1661,2.0623,-18.24,33.12,15.0
2.9965,-8.54,0.54481,-0.69944,2.0898,2.3958,-18.06,33.24,15.18
3.2416,-9.7249,0.84446,-0.55467,2.0113,2.9346,-16.68,33.66,15.48
3.7728,-11.55,1.2122,-0.48442,2.044,3.3961,-15.78,33.84,15.66
4.3994,-12.64,1.2803,-0.48228,2.0589,3.6441,-14.46,34.26,15.96
6.7829,-13.471,0.32689,-0.44929,1.8967,4.1878,-11.04,35.22,16.2
8.0632,-12.885,-0.38137,-0.3262,1.4203,4.2962,-8.94,35.64,16.32
8.4582,-11.536,-0.83084,-0.15669,0.78588,4.0974,-6.42,36.06,16.38
7.0281,-11.182,-1.2531,0.28741,-0.21014,3.3604,-0.9,36.9,16.74
5.5435,-11.727,-1.9613,0.44715,-0.51679,3.1224,1.98,37.2,16.92
5.0531,-11.877,-2.152,0.63041,-0.9728,2.6512,5.22,37.56,16.92
4.0316,-11.155,-1.7843,0.52382,-0.88362,1.876,11.94,37.86,17.1
3.5004,-10.161,-1.4574,0.32193,-0.21014,1.3354,15.24,37.86,16.98
3.2008,-9.2074,-1.0896,0.14264,0.70708,0.88667,18.48,37.92,16.92
3.0918,-7.9679,-0.8036,-0.0054978,1.9361,0.42852,24.24,37.86,16.8
3.228,-7.7227,-0.84446,-0.046426,2.2495,0.34178,27.0,37.74,16.74
3.4459,-7.6274,-1.1577,-0.1295,2.7266,0.22174,29.28,37.5,16.68
4.2495,-7.3414,-1.3212,-0.27458,3.04,0.18173,33.48,36.96,17.22
4.7944,-7.0417,-1.5119,-0.30757,2.9709,0.1854,35.04,36.54,17.64
5.2983,-6.6059,-1.866,-0.26542,2.6652,0.20006,36.54,36.12,18.0
5.3664,-5.8023,-2.5879,-0.12065,1.9218,0.1347,38.64,35.64,18.84
5.3664,-5.8023,-2.5879,0.0097738,1.3793,0.0088575,38.64,35.64,18.84
4.6445,-5.0668,-3.4323,0.15608,0.84208,-0.12767,39.96,35.22,19.86
4.4811,-5.1076,-3.8546,0.30635,0.31551,-0.2813,40.32,35.1,20.4
4.1406,-5.5162,-4.304,0.35919,-0.11301,-0.44135,40.62,35.16,20.88
3.3642,-5.993,-4.5764,0.29047,-0.39462,-0.60201,40.8,35.28,21.9
3.1191,-6.0747,-4.3585,0.14233,-0.49877,-0.81795,40.86,35.34,22.38
2.8875,-6.1836,-3.7456,0.02474,-0.40042,-0.88331,40.8,35.46,22.86
2.942,-7.246,-3.0782,-0.041844,-0.25656,-0.95173,40.74,36.06,23.4
2.9829,-8.1041,-3.0237,-0.16371,-0.14813,-0.9951,40.26,36.24,23.52
3.2144,-8.8396,-3.0373,-0.30788,-0.1124,-1.0486,39.78,36.42,23.34
3.4596,-10.215,-2.9965,-0.41936,-0.12462,-1.0898,38.76,37.02,22.86
3.3778,-10.569,-2.8875,-0.53298,-0.14752,-1.19,38.1,37.44,22.5
3.2144,-11.332,-2.6696,-0.51526,-0.18326,-1.3216,36.6,37.92,21.54
3.2416,-13.716,-2.5061,-0.44379,-0.21319,-1.4126,35.82,38.34,20.94
3.514,-15.704,-2.2474,-0.46029,-0.22999,-1.4826,34.86,38.58,20.46
3.6775,-16.344,-2.2337,-0.70891,-0.17685,-1.4975,33.66,38.82,19.86
3.909,-16.154,-2.0158,-0.95936,-0.1292,-1.4218,31.38,39.24,18.84
3.8818,-16.494,-1.362,-0.97891,0.061392,-1.2691,30.0,39.6,18.48
3.8546,-17.448,-1.2939,-0.90927,0.12339,-1.2065,26.94,39.96,17.64
3.6094,-15.173,-1.3484,-1.0095,0.22755,-1.1209,25.32,40.26,17.28
3.4459,-13.797,-1.2803,-0.99999,0.27672,-1.0534,23.64,40.56,17.04
2.833,-10.134,-1.3757,-0.9108,0.29322,-1.0284,20.04,41.16,16.86
2.4517,-8.6217,-1.4574,-0.84605,0.28558,-1.0571,18.3,41.4,16.98
1.9886,-7.5729,-1.3348,-0.79138,0.3207,-1.0525,16.56,41.58,17.16
1.6208,-6.3335,-1.2122,-0.69058,0.40195,-0.99205,12.6,42.06,17.7
1.6481,-5.775,-1.2258,-0.64935,0.49419,-0.90591,10.74,42.06,18.12
1.7025,-5.3528,-1.0215,-0.64202,0.64385,-0.75595,8.94,42.24,18.24
2.0022,-4.3858,-0.83084,-0.61148,0.67745,-0.67501,5.28,42.54,19.26
1.9886,-4.0861,-0.62654,-0.60109,0.62736,-0.58002,3.54,42.72,19.68
1.8387,-4.5083,-0.31327,-0.53054,0.55039,-0.48411,0.36,42.6,20.58
1.4982,-5.0531,-0.28603,-0.54489,0.49694,-0.24435,-1.08,42.66,20.82
1.3212,-5.4073,0.027241,-0.68539,0.67165,-0.026878,-2.4,42.66,21.12
1.3484,-5.5299,0.35413,-0.73609,0.80451,0.10996,-3.54,42.54,21.42
1.6208,-5.7614,0.72188,-0.74892,1.248,0.58002,-5.16,42.54,21.78
1.9886,-6.0338,0.70826,-0.73304,1.5064,0.90347,-5.88,42.54,21.78
2.1248,-6.5105,0.51757,-0.70005,1.6551,1.2327,-6.3,42.54,21.78
2.5198,-7.5184,-0.095342,-0.62522,1.7947,1.825,-5.88,42.54,21.36
3.0373,-8.0905,-0.43585,-0.41661,1.763,2.2923,-5.58,42.6,21.06
3.4732,-8.54,-0.6674,-0.13836,1.6023,2.7345,-4.56,42.66,20.82
4.7399,-10.025,-0.8717,0.16096,1.3247,3.1185,-1.8,42.48,19.98
5.1621,-10.801,-1.0896,0.46792,0.90897,3.3894,0.12,42.42,19.5
5.4754,-11.509,-1.3212,0.7981,0.32956,3.5424,2.22,42.36,18.96
5.6388,-12.994,-2.261,1.2559,-0.63133,3.5051,7.44,41.64,18.06
5.6116,-14.029,-2.3018,1.4795,-1.2914,3.2865,10.26,41.1,17.4
5.489,-15.337,-1.58,1.832,-1.7596,3.0992,13.32,40.5,16.86
7.1234,-19.423,-3.3915,2.2168,-2.1258,2.8955,19.38,38.76,15.48
6.7693,-18.51,-4.5356,1.4056,-2.43,2.3411,22.68,37.74,14.82
5.3528,-14.601,-4.4811,0.69486,-2.364,1.6994,25.68,36.54,14.16
2.3699,-10.828,-3.5685,0.66981,-1.5794,0.73915,30.96,34.14,12.72
1.6481,-10.855,-3.6639,0.76022,-0.87568,0.21716,33.54,33.0,12.12
1.1441,-11.128,-3.9635,0.40531,-0.075747,-0.045509,35.46,31.74,11.4
2.0294,-9.1529,-3.5277,-0.025656,0.6689,-0.20097,38.88,29.64,10.2
2.4925,-7.6274,-3.228,-0.34056,1.2813,-0.32712,40.2,28.68,9.66
2.9829,-6.2245,-2.9011,-0.5116,1.6032,-0.44043,41.4,27.78,9.24
3.8001,-4.2904,-2.4108,-0.50183,1.5336,-0.50274,42.9,26.4,8.1
4.4539,-3.6639,-2.3836,-0.26114,0.70219,-0.51526,43.32,25.98,7.68
4.7399,-3.5685,-2.4517,-0.043677,-0.18418,-0.52687,43.56,25.68,7.14
4.8216,-3.909,-3.0918,0.15699,-1.1463,-0.5339,43.56,25.26,6.12
4.5901,-4.699,-3.1463,0.30543,-1.978,-0.50427,43.26,25.14,5.7
4.3177,-5.9385,-3.1327,0.36285,-2.5394,-0.4725,42.9,25.38,5.1
3.9908,-8.6625,-3.2144,0.32101,-2.8833,-0.42119,42.06,25.56,3.72
3.6775,-9.507,-2.9556,0.12095,-3.0333,-0.42089,41.28,25.5,2.64
3.1599,-9.793,-2.0158,-0.23243,-2.8848,-0.51007,40.62,25.44,1.8
2.8058,-9.7385,-1.5391,-0.60109,-2.4328,-0.66462,39.6,25.32,0.84
2.1929,-10.392,-0.64016,-0.8546,-1.5113,-0.95356,36.96,24.84,-1.26
2.0703,-11.305,-0.31327,-0.98655,-0.90622,-1.2266,35.28,24.54,-2.46
2.2065,-12.286,-0.24517,-1.0253,-0.36621,-1.4649,33.54,24.12,-3.6
3.2144,-14.587,-0.77636,-1.0522,0.19028,-1.678,29.64,23.46,-5.82
4.0316,-15.732,-1.2258,-1.1408,0.36255,-1.8185,27.54,23.22,-6.9
4.7944,-16.331,-1.8524,-1.2318,0.37843,-1.8824,25.26,22.92,-7.92
4.9033,-16.985,-0.85808,-1.6903,0.32162,-1.9893,20.4,22.62,-9.42
4.7263,-17.339,-0.53119,-1.5421,0.29108,-1.9462,17.64,22.32,-9.9
4.9987,-18.101,-1.1713,-1.3546,0.11026,-1.7608,15.06,22.32,-10.02
4.6445,-15.064,-1.3212,-1.1542,-0.23763,-1.6368,9.42,22.44,-9.48
3.9499,-13.43,-0.95342,-1.0342,-0.26176,-1.6383,6.48,22.62,-8.94
3.5685,-12.19,-0.47671,-1.0091,-0.24374,-1.6857,3.6,22.86,-8.22
2.0839,-9.6568,0.31327,-0.91233,-0.12034,-1.8091,-1.74,23.52,-6.12
1.7162,-7.9951,0.095342,-0.76877,0.054367,-1.8283,-4.32,23.94,-4.8
1.7025,-6.96,-0.25879,-0.61087,0.21961,-1.7675,-6.9,24.54,-3.48
1.9886,-5.094,-1.185,-0.40989,0.30849,-1.6417,-12.06,25.32,-0.54
2.0839,-4.5083,-1.362,-0.26176,0.23396,-1.4917,-14.52,25.44,0.96
2.1112,-4.3313,-1.5255,-0.20097,0.16585,-1.4001,-16.86,25.86,2.58
2.0158,-4.1678,-1.5255,-0.1405,-0.0956,-1.0858,-19.08,26.04,4.02
1.8932,-4.2904,-1.3076,-0.16188,-0.24251,-0.82589,-21.24,26.1,5.4
1.7025,-4.522,-0.83084,-0.17501,-0.33017,-0.51832,-24.96,26.04,7.92
1.3893,-4.985,-0.47671,-0.19181,-0.24526,0.054062,-26.52,26.04,9.06
1.3484,-5.5707,-0.027241,-0.208,-0.14325,0.26664,-29.04,25.5,11.04
1.3484,-5.5707,-0.027241,-0.27611,0.32467,0.90897,-29.04,25.5,11.04
1.58,-6.1428,-0.081722,-0.30696,0.72326,1.2669,-30.24,24.84,12.3
1.8387,-6.2245,0.24517,-0.2978,1.128,1.5855,-30.96,24.24,13.08
1.9341,-6.279,0.19068,-0.19395,1.4645,1.8589,-31.08,24.0,13.26
2.4517,-7.3822,-0.31327,-0.065668,1.6747,2.1539,-30.12,23.52,13.2
3.1327,-8.3901,-0.99429,0.07086,1.639,2.6353,-28.2,22.98,12.42
4.2632,-9.1801,-1.58,0.40989,1.2865,2.9312,-25.68,22.86,11.34
4.9033,-9.9156,-2.0567,0.79932,0.71746,3.1686,-22.38,23.04,9.9
4.9987,-10.351,-2.0567,1.1243,0.11057,3.3063,-18.42,23.28,7.92
4.9033,-11.332,-1.9477,1.3796,-0.42638,3.3167,-14.1,23.58,5.46
4.5764,-13.021,-1.4438,1.5348,-0.82406,3.2354,-9.54,23.52,3.18
4.413,-13.825,-1.3212,1.5266,-1.0385,3.0928,-7.2,23.52,1.86
4.5083,-13.961,-1.6753,1.295,-1.1988,2.7321,-2.64,22.98,-0.6
4.1542,-12.681,-1.0079,1.1533,-1.2004,2.3607,1.2,22.44,-2.94
4.127,-16.004,-0.44947,1.6875,-1.0287,2.1368,5.4,21.72,-4.8
5.2711,-18.891,-2.6423,1.8699,-1.0482,1.97,7.38,21.0,-5.58
5.1076,-15.282,-4.4266,0.95417,-1.124,1.5006,9.18,20.1,-6.42
4.0316,-12.122,-4.1542,0.41356,-0.81428,0.78435,12.3,18.78,-7.8
2.5742,-10.106,-3.8409,0.46212,-0.29535,0.27917,13.68,18.06,-8.34
2.1656,-9.7794,-3.9227,0.48778,0.16127,-0.14691,15.0,17.4,-8.58
2.3972,-9.3844,-4.0316,0.3488,0.40806,-0.29993,16.74,16.14,-9.3
2.8058,-8.7851,-3.6639,0.12767,0.53573,-0.35705,17.34,15.66,-9.42
3.1872,-8.0088,-3.3506,-0.078191,0.68234,-0.42486,17.94,15.12,-9.54
3.732,-6.2517,-3.1735,-0.29016,0.68356,-0.4383,18.84,14.52,-9.78
3.8001,-5.4481,-3.1599,-0.35675,0.44013,-0.44685,19.32,14.4,-9.72
3.7728,-4.8761,-3.1054,-0.36255,0.04612,-0.50335,19.56,14.34,-9.54
3.3915,-4.1542,-3.0237,-0.34789,-0.40073,-0.59895,19.68,14.34,-9.06
3.228,-4.1678,-2.8875,-0.2584,-0.79138,-0.69578,19.5,14.58,-8.82
3.1872,-4.9578,-2.7649,-0.13928,-1.1335,-0.73579,19.5,14.88,-8.4
3.3506,-6.9736,-2.942,-0.047037,-1.46,-0.72479,18.78,15.36,-7.44
3.4459,-9.1529,-3.4459,-0.045509,-1.711,-0.70769,18.18,15.6,-6.96
3.4459,-10.065,-3.3642,-0.21961,-1.8192,-0.68661,17.64,15.84,-6.54
3.2553,-11.223,-2.547,-0.68264,-1.5797,-0.77702,16.98,16.2,-5.88
3.0237,-11.441,-1.9613,-0.89553,-1.2504,-0.90775,16.14,16.38,-5.22
2.833,-11.414,-1.8251,-1.0495,-0.97372,-1.0828,14.64,17.04,-3.78
2.6287,-11.25,-1.8387,-1.1872,-0.63072,-1.4233,13.8,17.4,-2.7
2.5061,-12.122,-1.076,-1.2486,-0.49144,-1.5427,11.94,17.88,-0.54
2.5334,-12.858,-0.8036,-1.3699,-0.041233,-1.9218,10.8,18.06,0.6
2.4925,-13.048,-0.62654,-1.4349,0.28191,-2.1112,9.78,18.36,1.8
2.656,-13.838,-0.49033,-1.4242,0.62461,-2.219,7.62,18.84,4.14
2.7513,-14.233,-0.40861,-1.4899,0.92271,-2.2932,6.36,19.08,5.4
2.8603,-16.957,0.054481,-1.5629,1.2398,-2.2199,4.2,19.2,7.92
4.413,-16.671,-0.31327,-1.4386,1.3821,-1.7416,3.24,19.32,9.18
4.8625,-13.893,-0.72188,-1.2639,1.1191,-1.4129,2.16,19.5,10.68
4.7399,-11.332,-0.6674,-0.93249,0.7422,-1.1671,1.32,19.68,11.94
3.6775,-9.0712,-0.054481,-0.59162,0.41966,-1.0797,-0.54,19.86,14.28
2.8739,-8.4174,0.10896,-0.26695,0.14294,-0.99571,-1.5,19.92,15.42
2.2201,-7.5457,-0.27241,0.1854,-0.35247,-0.80726,-3.36,20.04,17.34
2.2337,-7.0962,-0.78998,0.37965,-0.5959,-0.66401,-4.2,19.98,18.24
2.2474,-6.5378,-1.1713,0.44043,-0.65515,-0.49511,-4.86,19.86,19.08
2.1929,-6.1836,-1.185,0.37446,-0.52931,-0.30665,-5.64,19.68,19.68
1.7025,-5.203,-1.2395,0.19242,-0.28619,-0.19273,-6.84,19.56,20.88
1.3893,-4.7807,-1.1169,0.031154,-0.025656,-0.093768,-7.38,19.32,21.3
1.1169,-4.4539,-0.98067,-0.16157,0.26328,0.097128,-8.16,19.44,22.02
0.76274,-4.522,-0.69464,-0.28497,0.48564,0.27855,-8.52,19.38,22.32
0.76274,-4.9578,-0.35413,-0.38882,0.78985,0.50916,-8.7,19.32,22.44
0.88532,-5.5843,0.027241,-0.51924,1.1756,0.79993,-8.88,19.32,22.56
1.471,-6.5105,0.64016,-0.67226,1.6087,1.1072,-8.58,19.38,22.86
1.9477,-6.8647,0.85808,-0.78771,2.0299,1.3842,-8.16,19.38,22.86
2.5061,-7.246,0.70826,-0.85888,2.4401,1.6316,-7.8,19.56,22.92
3.1872,-8.7715,-0.44947,-1.3436,2.9884,1.9514,-6.48,19.5,22.74
3.7865,-8.1041,-0.55843,-1.2349,3.1566,2.251,-5.7,19.86,22.62
4.127,-8.1586,-0.65378,-1.0635,3.0638,2.3964,-4.62,20.1,22.56
4.8352,-10.038,-0.54481,-0.42883,2.3329,2.7959,-2.28,20.52,22.5
5.4073,-11.25,-0.55843,0.052229,1.5672,3.0201,-0.9,20.88,22.38
5.9385,-12.885,-0.39499,0.53237,0.61392,3.2174,0.54,21.12,22.32
6.6331,-17.107,0.19068,1.2291,-0.73609,3.4221,3.9,21.66,21.9
7.1371,-19.15,-0.19068,1.7098,-1.4465,3.3943,5.58,21.9,21.66
8.1177,-19.436,-1.7298,1.9426,-1.8778,3.3112,7.62,22.02,21.36
6.9328,-16.113,-3.8001,2.0327,-3.259,2.5323,11.58,22.32,20.58
4.808,-13.062,-4.2632,1.646,-3.5476,1.8934,13.32,22.32,20.16
3.051,-10.842,-3.6366,1.5617,-3.3637,1.1689,15.12,22.32,19.5
1.5391,-11.291,-3.5822,1.686,-2.616,0.27581,18.24,22.2,18.3
0.89894,-11.427,-3.8409,1.5082,-2.1539,0.16188,19.8,21.84,17.58
1.0079,-10.774,-3.6503,0.62308,-0.25412,-0.0033598,20.94,21.72,16.74
1.9068,-7.7636,-3.5413,0.27703,0.82131,-0.054367,23.04,21.3,15.06
2.2474,-6.7421,-4.0316,0.072082,1.3543,-0.11057,23.94,21.0,14.28
2.547,-5.9249,-4.2223,-0.067501,1.3775,-0.15882,24.84,20.82,13.5
3.5277,-5.0531,-4.2904,-0.14966,0.87659,-0.24709,26.04,20.28,12.24
4.0725,-4.9033,-4.4811,-0.11881,0.21777,-0.30329,26.64,20.16,11.76
4.4811,-4.9033,-4.7399,-0.11454,-0.17043,-0.33262,26.82,20.04,11.28
3.623,-5.2847,-4.4811,-0.20525,-1.1197,-0.47647,27.06,19.74,10.5
3.2008,-5.7069,-4.0589,-0.28405,-1.39,-0.59743,27.0,19.74,10.38
2.8058,-6.5922,-3.732,-0.3259,-1.5412,-0.66676,26.88,19.68,10.26
2.6287,-9.0167,-3.3915,-0.43921,-1.6313,-0.72204,26.76,19.98,10.26
2.5061,-9.9156,-2.7513,-0.84483,-1.3919,-0.78466,26.4,20.16,10.32
2.438,-10.229,-2.3563,-1.1237,-1.0012,-0.91019,26.34,20.34,10.56
2.3155,-10.787,-1.6889,-1.3216,-0.53787,-1.0699,25.68,20.64,11.16
2.2474,-11.21,-1.58,-1.4539,-0.11301,-1.2776,25.32,20.88,11.64
2.0703,-11.591,-1.2122,-1.6005,0.28558,-1.493,24.6,21.12,12.12
2.0703,-12.326,-0.55843,-1.6414,0.70402,-1.6695,23.34,21.72,13.2
2.5198,-13.702,-0.61292,-1.5116,1.2675,-1.8601,22.5,21.96,13.68
3.1599,-15.255,-0.8717,-1.7675,1.4966,-1.9633,21.66,22.32,14.34
4.2223,-15.119,-1.3757,-2.1402,1.5779,-1.9474,19.68,22.8,15.9
4.4402,-13.062,-1.4982,-1.8033,1.4151,-1.8531,18.66,23.04,16.8
4.3721,-12.395,-0.96704,-1.4667,1.1148,-1.8509,17.58,23.28,17.7
3.5549,-14.478,0.027241,-1.1371,0.80176,-1.8384,15.12,23.4,19.5
3.5549,-15.023,-0.027241,-0.83689,0.18937,-1.4872,13.92,23.58,20.46
3.9227,-14.083,-0.39499,-0.8094,-0.019548,-1.346,12.54,23.52,21.36
3.514,-11.468,-0.28603,-0.71257,-0.32803,-0.96272,10.14,23.64,23.28
3.0918,-10.311,0.027241,-0.69119,-0.24435,-0.82222,8.82,23.52,24.06
2.5742,-8.8668,0.27241,-0.68203,-0.090103,-0.72052,7.74,23.4,24.84
1.7706,-6.6467,0.01362,-0.56688,0.03207,-0.65546,5.22,23.28,26.28
1.58,-5.9112,-0.1362,-0.26634,0.098044,-0.55528,4.14,23.1,27.12
1.58,-5.5299,-0.61292,-0.13439,0.13622,-0.42394,3.06,22.74,27.78
1.8524,-4.7944,-0.96704,-0.067501,0.20861,-0.27886,1.02,22.56,28.62
1.8932,-4.5764,-0.89894,-0.06689,0.26389,-0.10293,0.18,22.5,29.04
1.7706,-4.1814,-0.8036,-0.10721,0.26389,0.092241,-0.48,22.32,29.34
1.5527,-4.0316,-0.50395,-0.10843,0.23732,0.41783,-1.5,22.08,30.0
1.471,-4.2495,-0.38137,-0.087048,0.29138,0.67104,-1.74,21.9,30.24
1.58,-5.0259,-0.054481,-0.094379,0.3485,0.80481,-2.04,21.78,30.54
1.7979,-6.279,0.28603,-0.13928,0.63958,1.2165,-2.28,21.54,30.72
1.9341,-6.8374,0.40861,-0.15455,0.92302,1.5,-2.28,21.36,30.9
2.1248,-7.3414,0.24517,-0.17471,1.2391,1.7733,-2.16,21.3,31.14
2.5198,-8.0632,0.068102,-0.18998,1.5345,2.0082,-1.38,21.3,31.44
2.9284,-8.431,0.027241,-0.20006,1.8436,2.328,-1.02,21.42,31.38
3.3778,-8.6353,-0.19068,-0.095295,1.8555,2.4312,-0.48,21.78,31.32
4.2223,-9.3844,-0.76274,0.30482,1.5327,2.7162,1.08,22.02,31.2
4.9033,-10.569,-1.0351,0.66706,1.0168,2.9083,2.04,22.2,31.14
5.2711,-11.523,-1.2803,1.0278,0.29749,3.0656,3.0,22.32,30.84
6.0474,-13.961,-1.0351,1.2813,-0.40561,3.1392,5.16,23.1,30.48
6.1564,-15.296,-0.99429,1.5849,-1.1521,2.9838,6.42,23.52,29.94
5.9793,-15.595,-2.0975,1.5947,-1.3546,2.85,9.42,24.36,29.22
5.38,-14.955,-2.0158,1.3561,-1.7602,2.1915,10.98,24.72,28.92
5.1757,-15.214,-2.1248,1.5479,-1.8323,1.6408,12.48,25.2,28.44
4.127,-15.119,-3.9499,1.3616,-1.8335,1.0321,15.66,25.86,26.82
2.9965,-12.871,-4.1951,0.74617,-1.5122,0.44043,16.98,26.16,26.04
1.0215,-9.2482,-3.5413,0.45326,-0.8601,-0.089492,18.3,26.28,25.32
1.0624,-9.2891,-3.3778,0.38668,0.49602,-0.5904,20.58,26.34,23.7
1.471,-9.8203,-3.4459,0.26725,1.1765,-0.65851,21.72,26.52,23.16
2.2746,-10.161,-3.4459,0.012217,1.613,-0.59651,22.56,26.4,22.32
3.6775,-9.4798,-3.4596,-0.29719,1.8085,-0.49297,24.3,26.52,21.36
4.2768,-8.3629,-3.5685,-0.56566,1.6765,-0.40959,24.78,26.34,20.82
4.4947,-6.7693,-3.6639,-0.67501,1.2901,-0.38912,25.2,26.34,20.76
4.2495,-5.3119,-3.909,-0.54184,0.41111,-0.52107,25.44,26.28,20.28
3.8954,-4.9714,-4.0316,-0.37721,-0.26359,-0.66584,25.26,26.22,20.28
3.7047,-4.985,-4.2495,-0.2584,-0.90622,-0.8039,25.26,26.34,20.34
2.9284,-5.7069,-4.1133,-0.23274,-1.3555,-0.90133,24.54,26.22,20.88
2.7377,-6.3471,-3.7728,-0.25412,-1.5733,-0.9502,24.06,26.16,21.24
2.5742,-7.4776,-2.7513,-0.36621,-1.5937,-0.9279,23.34,26.22,22.02
2.6015,-8.1995,-2.1656,-0.56963,-1.3961,-0.8323,22.98,26.28,22.62
2.8058,-8.9622,-1.9341,-0.60812,-1.3231,-0.75931,22.44,26.34,23.16
3.2144,-9.7113,-2.0158,-0.63408,-1.3225,-0.73059,22.02,26.46,23.88
3.3778,-10.733,-2.1112,-0.74862,-1.3604,-0.7761,20.64,26.52,25.02
3.0782,-11.182,-1.5391,-0.86132,-1.3305,-0.8827,20.1,26.46,25.74
2.9965,-12.449,-0.95342,-0.79474,-1.0678,-1.0791,18.9,26.4,27.3
2.942,-15.214,-0.92618,-0.8265,-0.82711,-1.1729,18.24,26.34,28.02
2.9148,-15.977,-1.5936,-1.1277,-0.54764,-1.2846,17.7,26.22,28.68
2.8194,-15.582,-1.4165,-1.3207,-0.37721,-1.3237,16.98,25.92,29.4
3.051,-17.121,-0.32689,-1.2886,0.26909,-1.3845,15.72,25.56,31.2
3.8273,-18.265,-0.69464,-1.2446,0.55405,-1.277,15.18,25.32,32.22
4.1542,-16.413,-0.95342,-1.2859,0.64966,-1.1921,14.52,25.08,33.3
3.6094,-12.027,-0.50395,-1.164,0.63347,-1.1469,13.32,24.6,35.22
3.1054,-10.392,-0.1362,-1.1344,0.63866,-1.1668,12.78,24.24,36.18
2.4653,-8.5808,0.49033,-1.077,0.60384,-1.241,12.24,23.94,36.96
1.6617,-6.8238,0.31327,-0.75533,0.60476,-1.2773,10.98,23.04,38.76
1.7434,-6.5786,-0.24517,-0.51099,0.59834,-1.1609,10.5,22.68,39.54
2.1793,-5.5435,-1.0896,-0.36133,0.58521,-0.99632,9.3,21.72,40.74
2.3699,-5.1213,-1.4029,-0.1179,0.55344,-0.66157,8.88,21.3,41.28
2.4789,-4.8216,-1.4165,-0.071166,0.52382,-0.54795,8.34,20.94,41.76
2.4789,-4.5356,-1.362,-0.000916,0.41294,-0.36163,7.92,20.7,42.36
2.0839,-4.0316,-1.0624,-0.046426,0.13989,-0.19487,7.08,20.04,42.84
1.7025,-3.8682,-0.84446,-0.044288,-0.032987,-0.08491,6.54,19.68,42.84
1.5119,-4.3177,-0.53119,0.0054978,-0.12401,0.073915,6.12,19.38,42.96
1.6753,-6.2654,-0.21793,0.002138,-0.000305,0.4328,5.76,19.02,43.2
1.6617,-6.9328,0.054481,-0.18967,0.27122,0.69058,5.4,18.9,43.2
1.7162,-7.0145,0.31327,-0.28344,0.47342,0.80695,5.28,18.72,43.32
1.7162,-6.8374,0.49033,-0.41783,1.1796,1.1402,5.28,18.72,43.38
2.3291,-6.8374,0.24517,-0.3598,1.5247,1.2669,5.1,18.6,43.68
2.6423,-7.3822,-0.24517,-0.2813,1.6848,1.3408,5.22,18.72,43.86
3.0237,-8.3493,-1.0215,-0.25779,1.617,1.4221,5.46,18.9,44.16
3.5685,-10.025,-1.2531,0.046731,1.1866,1.664,5.58,19.08,44.28
3.7728,-11.319,-1.0896,0.32467,0.83108,1.8879,5.76,19.26,44.46
3.8954,-12.217,-0.85808,0.43952,0.70097,2.0214,5.94,19.5,44.64
3.9908,-13.253,-0.58567,0.80207,0.53267,2.4105,6.18,19.98,44.76
4.6718,-14.356,-1.3348,0.99663,0.46976,2.6163,7.02,20.82,44.94
4.5628,-15.187,-1.4846,1.3161,0.20617,2.846,7.38,21.18,44.94
6.1428,-18.864,-4.3177,1.7636,0.0036652,2.9511,8.34,22.26,44.52
6.2245,-16.971,-5.5162,1.9697,-0.6692,2.9761,8.94,22.98,44.28
5.6661,-15.35,-5.8704,1.427,-1.5299,2.6102,9.66,23.64,43.68
3.1599,-10.583,-4.0589,1.1167,-1.4465,2.1594,11.58,24.9,42.66
2.0839,-9.5751,-3.4323,1.0889,-0.94165,1.7251,12.42,25.44,42.06
1.58,-9.4798,-3.4596,1.1142,-0.33689,1.4288,13.38,26.1,41.22
2.3563,-10.324,-3.909,0.9954,0.24954,1.3158,15.6,26.88,39.6
3.0237,-9.7385,-4.2223,0.63561,0.79779,1.2523,16.74,27.36,38.58
3.514,-8.6217,-4.3858,0.17104,1.2694,1.1032,17.88,27.78,37.62
3.8001,-6.5241,-4.1678,-0.26756,1.5348,0.70127,20.1,28.2,36.12
3.9227,-5.3528,-4.0589,-0.34819,1.3803,0.43035,21.06,28.62,35.28
4.0861,-4.3994,-3.7456,-0.30604,1.0217,0.13134,22.14,28.86,34.74
4.0316,-4.2768,-3.7592,-0.17471,0.57879,-0.14966,23.88,28.86,33.78
4.1133,-5.094,-3.8546,-0.03879,0.11729,-0.37385,24.54,28.92,33.6
4.1542,-5.5843,-3.8273,-0.0012217,-0.30391,-0.54306,25.02,28.98,33.54
4.3585,-7.3686,-3.6366,-0.030238,-0.83963,-0.72357,25.68,29.04,33.36
4.2904,-8.4719,-3.5958,-0.092852,-1.1316,-0.78007,25.92,29.16,33.3
4.127,-9.4525,-3.6503,-0.29627,-1.2672,-0.85735,26.04,29.16,33.42
3.1054,-10.338,-3.0237,-0.57299,-1.1719,-1.004,26.04,29.58,34.14
2.7786,-10.392,-2.6287,-0.85491,-0.83872,-1.1939,26.04,29.64,34.68
2.2882,-10.651,-1.7162,-1.0296,-0.32834,-1.4209,25.98,29.76,35.16
2.261,-12.803,-1.5255,-1.0452,0.44379,-1.7388,25.74,30.24,36.42
2.6696,-14.274,-1.8387,-1.1212,0.83933,-1.9025,25.5,30.42,37.32
3.4459,-15.609,-1.9205,-1.332,1.1154,-2.1441,25.02,30.66,38.22
4.1814,-15.636,-1.58,-1.6787,1.2028,-2.4587,24.06,31.32,40.26
4.1542,-15.5,-0.6674,-1.6997,1.1674,-2.5592,23.64,31.62,41.34
4.0452,-16.317,-0.38137,-1.5458,1.0174,-2.6994,23.04,31.92,42.66
4.4811,-18.796,-1.5391,-1.6655,0.48014,-2.5436,22.32,32.1,44.16
4.0452,-15.418,-1.6753,-1.7037,0.19212,-2.3628,20.94,32.16,47.46
3.4323,-13.253,-1.4029,-1.4624,0.13225,-2.2071,20.16,32.22,49.26
2.9284,-11.536,-0.85808,-1.2926,0.29169,-2.1053,19.5,32.28,51.18
1.9341,-8.1177,-0.44947,-1.1127,0.47006,-1.9679,18.42,31.68,55.02
1.6072,-6.9055,-0.44947,-0.92057,0.56016,-1.8173,17.88,31.38,56.94
1.6753,-6.2926,-0.65378,-0.67653,0.50152,-1.5653,17.22,30.84,58.92
2.152,-5.6661,-1.2395,-0.48533,0.27489,-1.2446,16.8,30.24,60.54
2.2882,-4.9578,-1.6753,-0.35736,0.033598,-0.9725,16.32,28.92,63.54
1.975,-4.3994,-1.7843,-0.24648,-0.14661,-0.61942,16.26,28.38,64.86
1.3757,-4.0452,-1.6072,-0.22419,-0.15638,-0.50396,16.62,26.88,66.96
1.1577,-4.0044,-1.4165,-0.17593,-0.076664,-0.18051,17.1,26.4,67.8
1.0624,-3.9908,-1.1169,-0.15516,0.000611,0.039095,17.58,26.04,68.4
0.99429,-4.127,-0.99429,-0.11209,0.11148,0.32162,18.24,25.74,68.88
1.0624,-5.0531,-0.49033,-0.062614,0.30452,0.6524,19.74,25.02,69.78
1.2667,-5.7342,-0.39499,-0.062003,0.59254,1.0134,20.58,24.84,70.02
1.7979,-6.565,-0.32689,-0.087659,0.91813,1.3635,22.08,25.08,70.92
2.1384,-6.7421,-0.24517,-0.10079,1.2028,1.7031,22.8,25.38,71.64
2.4108,-6.8647,-0.28603,-0.077274,1.3931,2.0104,23.46,25.92,72.42
3.0237,-7.7908,-0.61292,-0.018937,1.4502,2.4542,24.24,27.3,74.52
3.3915,-8.3357,-0.98067,0.10232,1.3738,2.7193,24.42,28.26,75.54
4.0861,-10.42,-1.3212,0.33201,1.113,3.0928,24.06,30.78,77.88
4.413,-11.795,-0.99429,0.40073,0.97586,3.2425,23.52,32.4,79.02
4.3585,-12.313,-0.58567,0.40745,0.97402,3.2758,22.98,33.9,79.86
4.413,-13.416,0.12258,0.43219,1.1842,3.1854,22.5,35.64,80.58
4.6173,-15.214,0.40861,0.42241,1.4148,2.9581,21.48,39.66,80.88
4.9169,-15.473,-0.12258,0.35827,1.5562,2.6011,20.94,41.7,80.58
5.0668,-14.901,-0.54481,0.40439,1.4817,2.1389,20.04,45.36,79.2
5.0259,-16.058,-0.89894,0.76877,1.1771,1.5253,19.74,47.28,78.06
5.3119,-18.129,-1.7025,1.015,1.0095,1.1432,19.56,48.96,76.5
5.5707,-18.483,-2.547,1.1671,0.87812,0.82345,19.44,50.52,74.64
5.7205,-16.44,-4.2087,0.99418,0.79443,0.62644,19.56,51.96,72.48
4.2223,-11.795,-4.1814,0.49388,0.95784,0.3989,20.1,54.36,67.92
2.8739,-7.9951,-3.0646,0.2529,1.3256,0.080634,20.58,55.14,65.58
2.4108,-6.3743,-2.5742,0.42272,1.6273,-0.080329,21.96,56.22,61.2
2.9692,-6.8919,-2.6015,0.65973,1.6603,0.0085521,22.68,56.52,59.34
3.6775,-7.4367,-2.9011,0.78282,1.215,0.25565,23.28,56.46,57.54
5.0531,-7.2188,-3.4732,0.66371,0.72296,0.42119,24.66,56.1,54.78
5.5707,-6.7012,-3.6911,0.58521,0.15424,0.56383,25.14,55.86,53.7
5.5707,-6.1836,-3.8682,0.56047,-0.41997,0.57391,25.74,55.68,52.86
5.1894,-6.1564,-3.8409,0.5959,-0.98594,0.45845,26.34,55.74,52.14
4.5628,-6.4833,-3.7728,0.60873,-1.6047,0.18815,26.94,55.74,51.6
3.2553,-8.5127,-3.9908,0.54428,-1.8091,-0.04612,28.62,56.52,50.76
2.6423,-9.5751,-3.8682,0.37293,-1.7089,-0.27153,29.64,57.18,50.28
2.2474,-10.474,-3.732,0.088881,-1.2474,-0.47434,30.72,57.9,49.8
2.0703,-12.286,-2.942,-0.22174,-0.54367,-0.67684,33.36,60.24,48.48
2.2882,-13.443,-2.6287,-0.42211,0.20281,-0.87262,34.74,61.44,47.52
2.2882,-13.443,-2.6287,-0.54672,0.77122,-0.91569,34.74,61.44,47.52
4.1678,-15.609,-3.1191,-1.5195,1.1729,-1.2202,39.6,66.0,43.86
3.8954,-12.612,-2.2882,-2.0708,1.2901,-1.5409,41.1,67.5,42.36
3.6911,-10.501,-1.6344,-1.901,1.2584,-1.9138,42.3,68.7,40.68
3.6911,-10.501,-1.6344,-1.901,1.2584,-1.9138,42.3,68.7,40.68
3.1599,-14.056,-1.8387,-1.5415,0.65149,-2.6102,42.78,69.78,35.4
3.5413,-14.642,-1.9477,-1.5925,0.45662,-2.6689,42.0,69.48,33.72
3.6366,-14.642,-2.0431,-1.7431,0.079718,-2.6854,40.44,68.7,32.22
3.4732,-14.124,-1.757,-1.9459,-0.14447,-2.5461,36.12,66.18,30.42
3.2144,-13.77,-1.6753,-2.0345,-0.077885,-2.4832,33.42,64.56,29.76
2.3155,-12.163,-1.471,-2.1105,0.1408,-2.4001,27.18,59.82,29.4
2.0431,-11.4,-1.2531,-2.1615,0.30818,-2.3466,23.58,57.12,29.64
1.58,-9.398,-0.88532,-2.1038,0.40256,-2.2785,15.72,50.76,30.84
1.471,-8.322,-0.70826,-2.0501,0.49236,-2.2205,11.58,47.7,31.98
1.5119,-7.7091,-0.64016,-1.989,0.57849,-2.0562,7.32,44.34,33.24
1.8796,-6.8919,-0.50395,-1.7791,0.53634,-1.7025,-0.42,38.1,36.42
1.8932,-6.4288,-0.54481,-1.6545,0.33201,-1.3873,-3.48,35.46,37.98
1.7434,-6.1836,-0.44947,-1.5024,0.19914,-0.97341,-6.06,33.18,39.66
1.6344,-5.7069,-0.40861,-1.4059,0.23182,-0.33139,-10.68,28.86,42.54
1.6617,-5.4073,-0.32689,-1.2993,0.31643,0.13622,-12.42,26.94,43.8
1.6617,-5.2575,-0.32689,-1.1399,0.46701,0.58307,-13.92,25.14,44.94
1.7706,-5.7069,-0.27241,-0.96364,0.67684,0.9612,-16.02,21.96,46.68
1.866,-6.1019,-0.29965,-0.78191,0.85888,1.3115,-16.98,20.7,47.28
2.0567,-6.6059,-0.24517,-0.59284,0.96578,1.6215,-17.58,19.56,47.88
2.2201,-7.2188,-0.027241,-0.31796,1.0293,2.0901,-18.54,17.88,48.78
2.3699,-7.8998,0.027241,-0.09896,1.0797,2.3891,-19.02,17.16,48.96
2.4789,-8.4446,0.068102,0.082467,1.1622,2.7242,-19.26,16.74,49.26
3.1191,-10.093,0.081722,0.24465,1.2507,3.0778,-19.56,16.38,49.68
3.4051,-10.678,0.081722,0.40653,1.3155,3.4132,-19.56,16.44,49.8
3.909,-11.155,-0.054481,0.57849,1.3076,3.7003,-19.68,16.44,49.68
5.4481,-12.286,-0.35413,0.81703,0.92454,3.9868,-19.38,17.22,49.56
5.993,-12.953,-0.24517,1.0076,0.36194,4.0448,-18.96,17.76,49.5
6.0611,-14.41,-0.21793,1.2242,-0.17257,4.0525,-18.54,18.6,49.26
5.7342,-15.173,-1.0624,1.2605,-0.51588,3.8817,-17.1,20.64,49.02
5.1757,-13.784,-1.471,1.0742,-0.44379,3.5421,-16.02,21.78,48.84
4.1542,-11.795,-0.81722,0.71441,0.17837,3.0733,-14.7,23.1,48.48
3.1463,-10.91,0.12258,0.61942,1.7425,2.2275,-12.0,25.68,47.34
3.0918,-11.509,-0.55843,0.64294,2.1567,1.9761,-10.32,27.06,46.8
3.2689,-12.776,-0.83084,0.46884,2.7242,1.5403,-8.58,28.38,45.9
3.4051,-11.21,-0.1362,-0.07025,3.514,0.9725,-5.16,30.96,43.92
3.6639,-10.229,0.081722,-0.27245,4.1264,0.72479,-3.42,32.4,42.84
4.0589,-9.3572,0.24517,-0.45937,4.5931,0.52015,-1.5,33.6,42.06
4.7399,-7.5593,0.44947,-0.64416,4.8258,0.33017,2.1,35.58,40.14
4.985,-6.8647,0.43585,-0.60751,4.6258,0.25779,3.72,36.54,39.3
5.0259,-6.674,0.19068,-0.45876,4.211,0.21564,5.16,37.32,38.46
5.0259,-7.069,-0.46309,-0.27611,3.6872,0.23579,7.5,38.46,37.08
5.1894,-7.6683,-0.84446,-0.095906,3.0742,0.34086,8.4,39.0,36.36
5.3528,-8.1858,-1.6344,0.043982,2.4768,0.48075,8.94,39.48,35.82
5.6797,-8.6353,-2.8058,0.17623,1.9285,0.72724,10.02,40.02,35.1
5.5299,-8.6762,-3.2961,0.34086,1.2055,0.82222,10.38,40.2,34.8
5.2166,-8.7034,-3.4732,0.42974,0.82253,0.78099,10.74,40.26,34.74
4.2087,-8.7443,-3.7592,0.47189,0.52657,0.64782,11.04,40.62,34.74
3.8682,-8.6217,-3.8954,0.47067,0.34789,0.45998,11.22,40.5,34.92
3.8273,-8.6625,-4.0725,0.48686,0.26145,0.25412,11.22,40.5,34.92
3.9908,-9.4525,-4.8488,0.48472,0.21625,-0.051313,11.04,40.8,34.68
4.0589,-9.902,-4.9169,0.31551,0.27306,-0.24618,10.86,40.8,34.32
4.0589,-10.678,-4.7944,0.15516,0.33995,-0.40714,10.62,40.8,34.08
4.5764,-13.212,-4.522,0.099571,0.32406,-0.50244,9.84,40.5,33.24
4.6582,-13.321,-4.6718,-0.31704,0.19487,-0.63561,9.12,40.5,32.76
3.9635,-11.114,-4.1406,-0.75289,0.13439,-0.88881,8.4,40.26,32.22
3.3778,-9.0848,-4.0589,-0.78557,0.14111,-1.3244,6.42,39.96,31.14
3.3234,-9.0848,-4.2087,-0.69608,-0.029932,-1.5931,5.28,39.78,30.72
3.5277,-10.12,-4.2223,-0.75442,-0.29932,-1.7504,4.08,39.6,30.3
4.2632,-12.054,-3.3642,-0.85613,-0.61178,-1.825,1.2,38.64,29.58
4.413,-12.871,-2.8467,-0.99693,-0.87293,-1.8182,-0.66,38.16,29.34
4.4947,-13.321,-2.4789,-1.2178,-1.0812,-1.8576,-2.58,37.68,29.1
3.6639,-12.776,-1.7979,-1.4661,-1.1842,-1.8017,-6.9,36.18,29.76
3.3778,-12.953,-1.7025,-1.5406,-0.86468,-1.8598,-9.18,35.4,30.48
2.9965,-13.171,-1.6889,-1.7248,-0.4835,-1.941,-11.34,34.56,31.26
2.0703,-11.4,-1.58,-1.861,0.014355,-2.0336,-16.08,32.94,33.3
2.0567,-10.433,-1.3484,-1.8408,0.66004,-2.1023,-18.3,31.8,34.62
2.5198,-9.8339,-1.2939,-1.748,0.99418,-2.2153,-20.34,30.72,35.82
2.5742,-9.2891,-1.3484,-1.6564,1.1194,-2.2654,-22.38,29.58,37.02
2.833,-7.9951,-1.2531,-1.4768,1.0767,-2.1612,-26.22,26.88,39.42
2.9965,-7.5321,-1.2122,-1.3983,0.98685,-2.0931,-27.96,25.44,40.62
2.7922,-6.5378,-0.96704,-1.2025,0.57238,-1.8549,-31.2,22.5,42.96
2.547,-5.993,-0.91256,-1.0797,0.33995,-1.6005,-32.58,21.0,43.86
2.3836,-5.5707,-0.8717,-0.96731,0.18937,-1.3402,-33.72,19.44,44.82
2.0294,-5.0531,-0.92618,-0.8714,0.10904,-1.0776,-35.22,16.32,46.02
1.8796,-4.9987,-0.95342,-0.7254,0.059559,-0.64721,-36.06,14.88,46.44
1.7843,-5.0259,-0.96704,-0.65973,0.095906,-0.35277,-36.66,13.32,46.56
1.6753,-5.2575,-0.95342,-0.63377,0.16432,-0.058032,-37.44,10.56,46.62
1.5391,-5.1349,-0.8717,-0.65821,0.27947,0.20831,-37.8,9.24,46.38
1.4165,-4.985,-0.64016,-0.66676,0.41539,0.45296,-38.16,7.98,46.32
1.2667,-4.8897,-0.19068,-0.62461,0.59529,0.71227,-38.64,6.12,46.14
1.2258,-5.2438,-0.34051,-0.49327,0.98166,1.2074,-38.88,5.28,45.9
1.4574,-5.9521,-0.49033,-0.46884,1.1157,1.3977,-39.3,4.68,45.6
1.9341,-6.4424,-0.92618,-0.47312,1.3641,1.8057,-39.78,3.72,45.0
2.1248,-6.7421,-0.8717,-0.42852,1.5632,2.2251,-40.02,3.48,44.76
2.4108,-7.355,-0.95342,-0.35766,1.7859,2.8595,-40.38,3.42,44.4
3.0237,-8.8124,-0.83084,-0.30513,1.9145,3.2706,-41.34,3.78,43.5
3.3642,-9.5479,-0.91256,-0.23152,2.0082,3.7898,-41.58,4.32,42.78
4.2223,-10.678,-1.2395,-0.13164,2.011,3.9245,-41.94,5.16,42.06
4.7944,-11.25,-1.4165,0.033292,1.8357,4.1194,-42.18,7.08,39.96
5.0259,-11.972,-1.2531,0.1689,1.5925,4.1188,-41.94,8.4,38.7
5.2983,-12.626,-1.2258,0.33231,1.2092,4.028,-41.4,9.9,37.26
6.1564,-14.805,-1.0896,0.52015,0.72601,3.8689,-39.66,12.9,34.02
6.2517,-16.263,-0.92618,0.84788,0.058032,3.5846,-38.64,14.64,32.46
6.7829,-17.815,-1.4165,1.0324,-0.26176,3.3103,-35.64,18.18,28.98
6.8374,-18.156,-2.0022,1.248,-0.5061,2.9322,-33.84,20.04,27.48
6.9464,-18.224,-2.833,1.3576,-0.59895,2.7318,-31.92,21.84,25.8
6.5514,-16.058,-4.7671,1.3247,-0.82742,1.93,-29.88,23.76,24.3
4.6854,-12.898,-4.8625,1.0357,-0.75808,1.4087,-25.38,27.18,21.24
3.514,-11.128,-3.909,0.83047,-0.36927,0.77977,-23.04,28.74,19.92
3.0237,-9.6704,-3.4459,0.69639,0.16585,0.63835,-18.6,31.26,17.64
3.2144,-8.9349,-3.337,0.41661,0.94348,0.40225,-16.62,32.22,16.86
3.5004,-8.2131,-3.2416,0.32193,1.1594,0.38271,-14.88,33.18,16.14
4.3177,-6.7966,-3.5004,0.053451,1.42,0.29963,-11.94,34.44,15.12
4.699,-5.7478,-3.6503,-0.044593,1.2288,0.24007,-10.56,35.1,14.76
4.9306,-5.1076,-3.9635,-0.058338,0.53665,0.11454,-8.22,35.76,14.1
4.9714,-4.2495,-4.1678,-0.035736,-0.066584,-0.034208,-7.44,36.0,13.74
4.5901,-3.909,-4.1951,-0.0051924,-0.60812,-0.25076,-6.78,36.18,13.32
4.1951,-3.8954,-3.8954,0.013439,-0.8094,-0.37415,-6.18,36.3,13.02
3.8954,-5.6116,-3.3778,0.16952,-1.219,-0.68447,-5.7,36.3,12.54
4.0316,-7.2324,-3.6503,0.24007,-1.4673,-0.8265,-5.7,36.18,12.3
3.9908,-8.7987,-4.0861,-0.031154,-1.6228,-1.0776,-5.94,35.82,11.82
3.3915,-9.7249,-3.9908,-0.41997,-1.5024,-1.3079,-6.36,35.52,11.76
2.8603,-9.0848,-3.2144,-0.62094,-1.3885,-1.4569,-6.78,35.16,11.58
2.4108,-8.8668,-2.261,-0.83108,-1.0696,-1.7352,-7.38,34.62,11.46
2.152,-9.9701,-1.8251,-0.85307,-0.54031,-2.0568,-9.18,33.6,11.16
2.3155,-10.61,-1.7979,-0.97189,-0.25595,-2.1985,-10.26,32.82,11.16
2.6423,-11.536,-1.362,-1.0864,0.022602,-2.3427,-11.7,32.16,11.1
3.4732,-12.326,-1.2395,-1.0797,0.36285,-2.3897,-14.52,30.36,11.46
4.1678,-13.797,-1.4165,-1.0421,0.4047,-2.3558,-16.08,29.22,11.7
4.6037,-14.383,-1.7843,-1.2168,0.19609,-2.2101,-17.76,28.2,12.0
5.3119,-14.41,-1.9341,-1.3283,-0.11576,-2.0125,-21.36,25.68,12.54
5.7069,-14.628,-1.6481,-1.0635,-0.52748,-1.8024,-23.1,24.48,12.9
5.6524,-15.568,-0.99429,-0.8152,-0.90805,-1.5821,-25.08,23.22,13.26
5.7069,-17.053,-0.99429,-0.59895,-1.1713,-1.2446,-28.86,20.58,14.34
5.4481,-16.535,-1.0624,-0.51924,-1.3274,-1.1307,-30.6,19.5,15.0
4.7126,-14.71,-0.81722,-0.56597,-1.0867,-1.1301,-32.4,18.36,15.72
3.6911,-12.177,-0.68102,-0.55803,-0.68203,-1.2425,-37.26,28.2,-16.26
2.2882,-8.8396,-1.1169,-0.51099,-0.23976,-1.4059,-40.8,25.98,-14.28
1.8932,-7.7908,-1.4438,-0.38912,0.15424,-1.5015,-42.36,25.08,-13.32
1.9886,-6.7148,-2.1248,-0.29413,0.42333,-1.503,-43.8,24.12,-12.36
2.3018,-6.2517,-2.1248,-0.28863,0.5058,-1.4801,-46.68,22.44,-10.38
2.3155,-5.8431,-2.0022,-0.31612,0.47586,-1.3748,-47.94,21.54,-9.48
2.4244,-5.4073,-1.8932,-0.34972,0.32406,-1.1197,-49.02,20.76,-8.58
2.4244,-5.0123,-1.6344,-0.37446,0.18143,-0.91416,-50.04,20.04,-7.98
2.0567,-4.9578,-1.1441,-0.38943,0.046426,-0.6973,-51.84,18.36,-6.54
1.9613,-5.0531,-1.0079,-0.42577,-0.0042761,-0.46517,-52.5,17.76,-5.82
1.6072,-5.3664,-0.88532,-0.50335,0.039401,-0.21319,-53.1,17.1,-5.34
1.4029,-5.8159,-0.7355,-0.58674,0.26114,0.22022,-54.3,15.54,-4.62
1.5119,-6.0883,-0.8036,-0.61881,0.36957,0.37324,-54.72,14.76,-4.44
1.58,-6.1836,-0.70826,-0.72693,0.78557,0.75228,-54.96,14.16,-4.38
1.5255,-5.6797,-0.054481,-0.76572,1.1255,0.95448,-55.5,12.72,-4.68
1.5119,-5.6524,0.027241,-0.68967,1.4713,1.1628,-55.56,12.24,-4.98
1.5527,-5.8295,0.14982,-0.58246,1.7828,1.4025,-55.62,11.7,-5.46
2.1656,-6.9328,0.068102,-0.52443,2.0039,1.73,-55.56,11.16,-6.66
2.7649,-7.355,-0.35413,-0.41569,2.1017,2.1567,-55.38,10.98,-7.38
3.4459,-7.7908,-0.57205,0.0067195,1.8903,2.8301,-55.02,11.04,-8.46
5.4209,-10.038,-1.9068,0.35216,1.4587,3.2498,-53.46,11.76,-10.86
5.7205,-10.678,-2.0158,0.69089,0.83658,3.5983,-52.44,12.0,-12.24
5.7342,-12.122,-1.6481,1.0678,-0.07758,3.8405,-51.24,12.6,-13.8
5.3119,-14.519,-0.50395,1.248,-0.54428,3.8607,-48.12,14.16,-16.74
5.4754,-16.004,-0.62654,1.346,-0.93157,3.7822,-46.32,15.12,-18.42
5.8023,-15.813,-1.3484,1.3436,-1.3103,3.5662,-44.34,15.9,-20.1
5.9249,-15.568,-1.471,1.492,-1.6423,3.1765,-42.18,16.86,-21.48
6.4016,-19.205,-3.3506,2.0152,-1.8775,2.8069,-37.74,18.96,-24.12
6.7012,-19.45,-4.3858,1.5345,-2.2599,2.003,-35.52,20.1,-25.2
5.4754,-16.603,-5.1213,1.1591,-2.2486,1.6915,-33.24,21.12,-26.1
3.2961,-11.468,-4.2904,0.73518,-1.5543,0.77183,-29.22,23.1,-27.54
2.1929,-9.8475,-3.7592,0.69425,-0.81703,0.22388,-27.3,23.94,-27.78
1.6072,-9.2346,-3.4187,0.64141,-0.11057,-0.11118,-25.74,24.78,-27.96
2.1656,-8.3493,-2.9829,0.45662,0.46762,-0.21258,-23.16,26.04,-28.14
2.5606,-7.7772,-3.0782,0.17257,1.1057,-0.26389,-22.08,26.58,-28.02
3.0646,-6.8647,-3.337,-0.058643,1.1875,-0.26817,-21.3,26.88,-28.14
3.8409,-5.5435,-3.6366,-0.17287,1.044,-0.2193,-20.22,27.48,-27.9
4.2632,-5.3528,-3.6775,-0.15485,0.67684,-0.18387,-19.98,27.78,-27.66
4.9306,-5.2847,-3.9908,-0.12859,0.10354,-0.18357,-19.86,28.14,-27.54
4.9169,-5.094,-4.1542,-0.099571,-0.65088,-0.25595,-19.98,28.32,-27.54
4.4947,-4.7126,-3.9227,-0.10018,-1.3491,-0.43433,-20.16,28.38,-27.6
3.4051,-4.6445,-3.3915,-0.10385,-1.8503,-0.63591,-20.76,28.5,-27.54
3.0646,-5.4073,-3.0646,-0.018937,-2.2223,-0.81856,-21.12,28.38,-27.3
2.9965,-6.2381,-2.8603,0.0562,-2.5763,-0.95112,-21.54,28.32,-27.12
2.833,-8.7443,-2.7513,-0.04948,-2.5916,-0.95539,-22.62,28.02,-26.4
2.942,-9.793,-2.6151,-0.25473,-2.4456,-0.90927,-23.28,27.84,-25.8
3.051,-10.964,-2.4925,-0.48075,-2.2101,-0.86957,-23.94,27.72,-25.02
2.7922,-12.408,-2.1112,-0.98502,-1.6606,-0.90347,-25.74,27.24,-22.98
2.547,-12.122,-1.8796,-1.372,-1.1374,-1.0324,-26.58,27.12,-21.78
2.3427,-11.441,-1.2939,-1.504,-0.8378,-1.1322,-27.36,26.82,-20.64
2.4108,-11.822,-0.64016,-1.4991,-0.077274,-1.4368,-29.46,26.04,-17.88
2.833,-13.225,-1.0079,-1.3867,0.17135,-1.6066,-30.48,25.44,-16.2
3.5413,-15.977,-1.7025,-1.4187,0.33537,-1.7242,-31.62,24.9,-14.52
4.522,-15.895,-1.185,-1.8369,0.41814,-1.9899,-33.84,23.88,-11.34
4.3177,-15.091,-0.47671,-1.9703,0.40531,-2.0849,-34.92,23.16,-9.72
4.1814,-15.2,-0.054481,-1.9178,0.40287,-2.1246,-36.0,22.5,-8.1
4.127,-16.767,-0.19068,-1.6732,0.39156,-2.0223,-38.1,20.64,-5.04
4.3177,-15.568,-0.64016,-1.5348,0.29535,-1.8011,-39.06,19.62,-3.54
4.0997,-11.741,-0.55843,-1.3253,0.17471,-1.5882,-40.14,18.3,-2.22
3.6639,-10.311,-0.31327,-0.97647,0.23243,-1.379,-41.82,16.26,0.3
3.0646,-9.0439,-0.10896,-0.77152,0.35491,-1.3066,-42.72,15.06,1.32
2.6151,-8.2131,-0.12258,-0.54123,0.37049,-1.1991,-43.68,13.98,2.28
2.4789,-7.3005,-0.70826,-0.32223,0.29016,-1.0446,-45.0,11.88,3.78
2.5606,-6.6195,-1.4301,-0.15608,0.15547,-0.88056,-45.66,10.8,4.26
2.4789,-5.8704,-1.6344,-0.065668,0.022602,-0.72632,-46.14,9.84,4.8
2.152,-4.8761,-1.9886,-0.078496,-0.073609,-0.51526,-46.8,7.74,5.76
2.0431,-4.2223,-1.8251,-0.12309,-0.070555,-0.45815,-46.98,6.96,6.18
1.9205,-3.9771,-1.6208,-0.18234,-0.015272,-0.30513,-47.28,6.0,6.54
1.5663,-3.8001,-1.0215,-0.2138,0.02474,-0.20067,-47.4,4.62,6.9
1.4574,-3.8954,-0.77636,-0.26389,0.072082,-0.076053,-47.52,4.14,7.02
1.4165,-4.0861,-0.081722,-0.29688,0.14447,0.091935,-47.52,3.3,7.08
1.4574,-5.4073,0.054481,-0.30696,0.36438,0.47739,-47.46,2.7,7.02
1.5119,-6.3198,0.17706,-0.33872,0.48961,0.62339,-47.34,2.28,7.08
1.5663,-7.0553,0.19068,-0.55619,1.0571,1.1078,-47.22,1.86,7.14
1.7434,-7.1098,0.72188,-0.67592,1.536,1.4193,-47.1,1.32,7.44
1.9886,-6.674,0.85808,-0.68753,2.0366,1.6872,-46.74,1.02,7.44
2.5198,-7.0826,0.068102,-0.67317,2.4264,1.9169,-46.68,0.84,7.26
3.0237,-7.355,-0.61292,-0.75167,2.7657,2.2953,-46.38,0.72,6.36
3.909,-7.7364,-1.3076,-0.33078,2.6035,2.5476,-46.26,0.78,5.76
4.3313,-8.6353,-1.6617,0.14142,2.0418,2.8017,-45.96,0.96,4.86
5.9249,-12.04,-1.2122,0.56658,1.3124,3.1124,-45.3,1.8,2.88
5.7069,-13.702,-2.4789,0.55528,1.164,3.2248,-44.82,2.28,1.68
9.0712,-14.247,-2.0158,1.0675,0.020464,3.2715,-44.16,2.88,0.36
6.3471,-15.486,-1.5391,1.2181,-1.1017,3.342,-42.78,4.86,-1.98
6.0611,-17.543,-0.69464,1.7074,-1.6756,3.0278,-42.06,5.88,-3.24
6.3743,-19.286,-1.471,2.0094,-2.0821,2.7574,-41.16,7.14,-4.56
6.4152,-19.504,-3.2553,1.5296,-2.2981,2.2098,-40.2,8.34,-5.82
4.2904,-13.389,-5.1076,1.0146,-2.16,1.6365,-38.46,11.4,-8.04
3.051,-11.278,-4.5356,0.93737,-1.5681,1.0431,-37.38,12.9,-9.06
2.261,-10.869,-3.8954,0.97525,-0.70769,0.54734,-36.48,14.46,-9.72
2.2337,-10.637,-3.6639,0.62889,0.49083,0.23763,-34.56,17.1,-10.98
2.6696,-9.6704,-3.5277,0.3317,1.065,0.15424,-33.66,18.36,-11.22
3.051,-8.5536,-3.514,0.061697,1.4157,0.081856,-32.76,19.56,-11.64
3.2961,-7.3822,-3.5413,-0.12248,1.511,0.016493,-31.98,20.64,-11.94
3.7184,-5.3528,-3.4732,-0.15669,1.3613,-0.0024435,-30.66,22.62,-12.12
4.018,-4.699,-3.3915,-0.10782,0.79443,-0.072388,-30.06,23.4,-12.24
4.1678,-3.6775,-3.4459,-0.079718,0.53176,-0.11179,-29.34,24.66,-12.78
4.0725,-3.5413,-3.514,0.042761,-0.059559,-0.19059,-29.16,25.02,-12.84
4.0589,-3.623,-3.6094,0.21564,-0.67653,-0.26084,-28.92,25.26,-13.08
3.9363,-5.4073,-4.4675,0.39859,-1.5278,-0.30513,-28.56,25.38,-13.2
3.8273,-6.4152,-4.5356,0.3262,-1.9416,-0.31185,-28.38,25.32,-13.08
3.5685,-7.3822,-3.3097,0.13867,-2.1356,-0.29108,-28.2,25.26,-12.9
3.3642,-8.9213,-2.8058,-0.13897,-2.0543,-0.25381,-27.9,25.26,-12.18
3.228,-9.7794,-2.6832,-0.32987,-1.8485,-0.31429,-27.9,25.32,-11.64
3.0918,-10.42,-2.5061,-0.59254,-1.5488,-0.47159,-27.72,25.2,-10.86
2.9148,-10.774,-2.2337,-0.85521,-1.1777,-0.7086,-27.42,25.08,-9.72
2.4653,-11.373,-1.3212,-1.0205,-0.8039,-0.96608,-26.94,24.78,-7.5
2.3427,-12.0,-0.99429,-1.0681,-0.40867,-1.1994,-26.7,24.6,-6.24
2.547,-14.547,-1.5119,-1.0712,-0.20708,-1.3751,-25.92,24.0,-3.36
3.0646,-15.84,-1.8387,-1.1466,0.43982,-1.5485,-25.44,23.64,-1.92
3.3778,-16.099,-1.8796,-1.4499,0.84666,-1.7559,-25.02,23.34,-0.42
3.6366,-14.506,-0.89894,-1.8757,1.2767,-1.9807,-24.42,22.56,2.1
3.7047,-14.642,-0.54481,-1.7385,1.4221,-2.0815,-24.24,22.14,3.12
3.9908,-16.712,-0.68102,-1.6029,1.4209,-2.0598,-23.94,21.6,3.96
4.4675,-17.216,-1.4301,-1.456,1.168,-1.9148,-23.7,20.1,5.46
4.4402,-13.089,-1.2258,-1.3186,0.72571,-1.7358,-23.82,19.2,6.0
4.0316,-11.25,-0.88532,-1.0305,0.17287,-1.543,-23.94,18.54,6.54
3.6503,-10.243,-0.6674,-0.91355,0.015882,-1.4975,-24.12,17.64,6.84
1.7979,-6.8102,-0.040861,-0.7984,-0.040928,-1.5067,-24.66,15.84,7.08
1.3484,-6.3062,-0.31327,-0.57818,0.021991,-1.5269,-25.14,14.82,7.02
1.2122,-5.8976,-0.8036,-0.35064,0.19487,-1.3213,-25.74,14.04,6.84
1.6208,-5.4073,-1.2395,-0.32254,0.25901,-1.233,-26.88,12.42,6.3
1.7843,-5.0123,-1.2395,-0.31124,0.38546,-0.8882,-27.42,11.52,6.0
2.0294,-4.6173,-1.2258,-0.34208,0.42364,-0.65424,-27.84,10.74,5.76
2.1112,-4.2904,-1.0079,-0.33598,0.38087,-0.43585,-28.38,9.84,5.52
1.7843,-3.909,-0.64016,-0.32009,0.25992,-0.22663,-29.46,8.34,5.16
1.7706,-4.1133,-0.65378,-0.30207,0.072388,0.10629,-29.7,7.74,4.98
1.6481,-4.7535,-0.65378,-0.29352,0.033598,0.34483,-30.12,7.2,4.62
1.7025,-5.3392,-0.57205,-0.30665,0.046731,0.4612,-30.18,6.78,4.38
1.6208,-6.1292,-0.27241,-0.4215,0.30727,0.83872,-30.6,5.94,3.78
1.6072,-6.4969,-0.081722,-0.47403,0.64263,1.0818,-30.66,5.58,3.72
1.6208,-6.8647,0.35413,-0.45296,1.0623,1.321,-30.42,5.46,3.66
2.152,-7.0417,0.095342,-0.40531,1.4227,1.6921,-29.7,5.22,3.54
2.6423,-7.4095,-0.35413,-0.34606,1.6845,1.9371,-29.34,5.16,3.48
2.9011,-7.5184,-0.49033,-0.16768,1.6564,2.2187,-29.1,5.46,3.3
3.9635,-9.6704,-0.88532,0.17196,1.4368,2.5268,-28.32,6.18,3.0
4.5628,-11.373,-0.99429,0.56077,1.0238,2.9001,-27.84,6.78,2.88
5.094,-13.13,-1.0896,0.95478,0.49847,3.2956,-27.36,7.44,2.82
6.7012,-16.14,-2.152,1.5519,-0.38087,3.682,-26.4,9.3,2.4
7.0281,-16.181,-2.6968,1.8885,-1.1478,3.6386,-25.8,10.44,2.04
6.7421,-16.848,-2.547,2.2223,-1.8182,3.4108,-25.14,11.7,1.92
6.4833,-18.81,-3.0918,2.4093,-2.1234,3.2617,-24.42,13.08,1.68
5.4481,-17.284,-4.5901,1.8497,-2.879,2.46,-22.68,16.08,0.84
4.1951,-14.301,-4.6582,1.3592,-2.9868,1.7972,-21.9,17.58,0.48
3.0782,-11.605,-4.1406,1.2242,-2.5925,1.2211,-20.94,19.14,0.36
1.2531,-11.223,-4.1814,0.978,-1.0977,0.53267,-19.14,22.26,-0.12
0.92618,-10.569,-4.127,0.54764,0.047647,0.26298,-18.12,23.34,-0.24
1.3212,-9.5342,-3.8546,0.33231,0.52748,0.19212,-17.22,24.72,-0.42
1.8387,-8.3493,-3.732,-0.099266,1.4676,-0.0012217,-16.44,25.92,-0.54
2.942,-6.2926,-3.7184,-0.30818,1.6753,-0.13653,-14.82,28.02,-1.08
3.623,-5.4754,-3.7047,-0.40042,1.5269,-0.25717,-14.04,28.92,-1.32
4.1678,-4.9033,-3.6366,-0.37507,1.1017,-0.34819,-13.38,29.58,-1.5
4.6718,-4.6854,-3.8682,-0.30727,0.47037,-0.42272,-12.36,30.54,-1.74
4.6173,-4.5901,-3.8273,-0.25595,-0.20831,-0.47434,-11.7,30.84,-1.68
4.4402,-4.6854,-3.6503,-0.17074,-1.1005,-0.5849,-11.52,31.08,-1.74
4.0044,-5.9657,-3.1191,-0.059559,-1.5653,-0.64202,-11.22,31.26,-1.74
3.7728,-7.9679,-3.2416,0.0281,-1.9285,-0.66584,-11.34,31.26,-1.86
3.5685,-10.134,-3.4732,-0.074831,-2.1747,-0.66432,-11.34,31.2,-1.8
2.9965,-10.215,-2.9011,-0.56963,-2.0776,-0.77366,-11.64,31.2,-1.74
2.5334,-10.025,-2.2882,-0.72754,-1.8809,-0.85979,-11.76,31.08,-1.5
2.3155,-10.025,-1.8387,-1.0214,-1.0983,-1.1176,-11.7,30.96,-1.14
1.8387,-10.665,-1.0896,-1.1469,-0.53787,-1.3467,-11.94,30.66,-0.66
1.8387,-11.387,-0.61292,-1.2187,-0.0079412,-1.5565,-12.06,30.42,0.54
2.0431,-13.716,-0.027241,-1.2303,0.73182,-1.8008,-12.3,30.06,2.22
2.9284,-14.805,-0.10896,-1.2559,0.95448,-1.8738,-12.6,29.64,2.94
3.5685,-15.514,-0.50395,-1.3384,1.2816,-2.0049,-13.14,29.04,3.72
4.0861,-15.772,-1.185,-1.7474,1.3399,-2.0992,-13.5,28.44,4.44
4.2087,-14.288,-0.81722,-1.8176,1.2624,-2.087,-14.58,27.06,5.94
4.0316,-14.519,-0.50395,-1.4685,1.0718,-1.9929,-15.12,26.28,6.72
4.1814,-15.677,-0.9398,-1.1481,0.74434,-1.7785,-15.78,25.44,7.26
4.1133,-12.612,-1.0896,-0.76541,0.071166,-1.4087,-17.1,23.4,8.46
3.732,-11.182,-1.185,-0.54947,-0.22235,-1.2633,-17.88,22.32,8.88
3.2553,-10.283,-1.0624,-0.41966,-0.36988,-1.1884,-18.66,21.3,9.18
1.9068,-7.6002,-0.34051,-0.36316,-0.37385,-1.0913,-20.16,19.26,9.42
1.471,-6.4969,-0.47671,-0.27397,-0.26817,-1.0214,-21.0,18.24,9.6
1.2531,-5.489,-0.83084,-0.13958,-0.16616,-0.86376,-21.6,17.04,9.48
1.5527,-4.9987,-1.7298,-0.03207,-0.10965,-0.53115,-23.04,15.12,9.3
1.6753,-4.8352,-1.7434,-0.093768,-0.040012,-0.30421,-23.58,14.46,9.12
1.7298,-4.6037,-1.4574,-0.14447,0.078191,-0.10568,-24.0,13.74,9.0
1.7706,-4.4402,-0.95342,-0.17013,0.14997,0.094379,-24.72,12.3,8.7
1.6481,-4.6445,-0.7355,-0.19884,0.18937,0.27153,-25.02,11.76,8.52
1.5391,-5.2983,-0.35413,-0.26114,0.24251,0.43127,-25.26,11.4,8.52
1.4574,-5.8023,-0.21793,-0.35461,0.46609,0.71013,-25.44,10.68,8.4
1.471,-6.5514,-0.21793,-0.43707,0.78405,0.90988,-25.44,10.44,8.28
1.6208,-6.96,-0.21793,-0.52993,1.2175,1.1435,-25.38,10.2,8.22
1.9068,-7.3958,0.19068,-0.562,1.6179,1.3879,-25.26,10.02,8.1
2.3836,-7.8045,0.054481,-0.55528,1.9462,1.6402,-24.84,9.96,8.16
2.8603,-8.3493,-0.50395,-0.63347,2.1267,2.0094,-24.6,10.2,8.1
3.514,-7.8589,-1.0215,-0.59101,2.1487,2.1188,-24.12,10.68,8.16
3.8001,-8.322,-1.2122,-0.31032,1.9557,2.3488,-23.94,10.98,8.04
4.2223,-9.6568,-0.98067,0.045815,1.5797,2.6173,-23.82,11.52,7.92
4.9169,-12.095,-0.77636,0.61423,0.75808,2.974,-23.4,12.96,7.5
5.38,-12.994,-1.0896,0.99388,0.096822,3.1551,-23.34,13.74,7.26
5.9521,-13.634,-1.7298,1.3393,-0.56536,3.1997,-23.04,14.76,6.9
6.2517,-14.901,-2.2337,1.8763,-1.6121,2.9288,-22.44,17.04,5.88
6.4016,-16.739,-2.3563,2.3341,-2.2752,2.6881,-22.02,18.3,5.28
6.7829,-19.327,-2.6423,2.4413,-2.5937,2.5314,-21.66,19.8,4.62
5.4209,-17.311,-4.1951,1.5232,-3.094,1.7535,-20.7,22.68,3.36
3.9635,-13.253,-5.0259,0.91905,-2.9031,1.1716,-20.1,24.12,2.82
2.2474,-9.902,-5.1894,0.62064,-2.2287,0.47586,-19.44,25.38,2.34
-0.1362,-6.8102,-4.2495,0.50885,-1.1701,-0.099876,-17.94,28.02,1.38
0.040861,-6.6195,-3.5277,0.42333,-0.060781,-0.34208,-17.1,29.16,1.02
0.85808,-6.7421,-3.1463,0.32895,0.77305,-0.38149,-16.26,30.12,0.72
2.2201,-7.3141,-3.1599,0.088575,1.4798,-0.36744,-14.7,31.98,0.06
3.3915,-7.4503,-3.4459,-0.10599,1.4447,-0.31643,-13.86,32.64,-0.06
4.6582,-7.0009,-3.8682,-0.32345,1.0061,-0.30329,-13.2,33.24,-0.42
4.985,-5.4073,-3.6911,-0.48839,-0.047647,-0.46273,-12.12,33.96,-0.84
4.2904,-4.5901,-3.4732,-0.34514,-0.76755,-0.66493,-11.58,34.14,-0.84
3.9227,-4.6718,-3.5413,-0.25045,-1.0901,-0.74373,-11.22,34.14,-0.78
2.8603,-6.1836,-3.7865,-0.07025,-1.8977,-0.90713,-10.8,33.9,-0.48
2.4244,-6.8783,-3.6094,-0.16554,-2.1637,-0.96242,-10.68,33.78,-0.42
2.0975,-7.3277,-3.1463,-0.33567,-2.0953,-1.0046,-10.62,33.66,-0.18
1.975,-9.1801,-2.2065,-0.42241,-1.7801,-0.94257,-10.32,33.12,0.36
2.152,-10.106,-2.1112,-0.61758,-1.0794,-0.90897,-10.26,32.88,0.72
2.2474,-11.169,-1.7979,-0.79474,-0.80023,-0.93829,-10.08,32.58,1.08
2.3427,-11.169,-0.58567,-1.2837,0.057421,-1.1274,-9.66,31.92,2.16
2.3699,-11.414,0.28603,-1.3088,0.52595,-1.2688,-9.36,31.56,2.7
2.5061,-12.735,0.35413,-1.2055,0.86376,-1.4117,-9.06,31.26,3.3
3.3097,-13.729,-0.46309,-1.2175,1.014,-1.5944,-8.52,30.6,4.8
3.5413,-13.634,-0.77636,-1.5879,0.94928,-1.7568,-8.28,30.12,5.34
3.514,-12.64,-0.62654,-1.5094,0.8717,-1.8375,-8.1,29.7,5.94
3.0237,-14.097,-0.24517,-1.1976,0.85888,-1.7681,-7.92,28.98,6.96
3.7184,-16.617,-0.76274,-0.88056,0.76725,-1.4239,-7.92,28.44,7.38
4.6309,-15.759,-1.3484,-0.69089,0.45357,-1.0049,-8.1,27.96,7.86
4.7807,-13.266,-0.58567,-0.55222,0.11423,-0.66493,-8.46,27.0,8.34
4.522,-12.503,-0.21793,-0.42577,-0.1182,-0.45326,-8.58,26.52,8.4
3.4732,-11.264,0.20431,-0.41386,-0.15882,-0.35369,-8.88,26.04,8.52
1.8932,-8.7987,-0.081722,-0.31001,-0.1011,-0.33934,-9.54,25.26,8.46
1.6889,-7.6274,-0.77636,-0.12492,-0.085216,-0.33598,-9.84,24.84,8.28
1.8387,-6.3471,-1.4165,0.054367,-0.068111,-0.27947,-10.08,24.42,8.1
1.9613,-5.1894,-2.0294,0.14355,0.016188,-0.20769,-10.32,23.76,7.62
1.9613,-4.699,-2.0567,0.13073,0.18967,-0.086437,-10.74,23.52,7.44
1.9205,-4.3994,-1.9477,0.10721,0.2193,-0.037874,-10.74,23.34,7.26
1.866,-3.9635,-1.5663,0.064446,0.21686,0.13714,-10.8,22.98,6.96
1.866,-3.8546,-1.0215,0.09163,0.16402,0.3094,-10.68,22.74,6.42
1.9341,-4.413,-0.61292,0.11912,0.12309,0.52443,-10.38,22.62,6.0
2.2201,-5.3119,-0.39499,0.1014,0.098349,0.77733,-10.14,22.74,5.82
2.5061,-6.279,-0.32689,0.012217,0.16341,1.1246,-9.6,22.92,5.46
2.5061,-7.0009,-0.31327,-0.055589,0.28863,1.3503,-9.18,22.86,5.28
2.4925,-7.3958,-0.21793,-0.082467,0.52351,1.5443,-8.58,23.1,5.16
2.6968,-8.6081,0.24517,-0.078191,0.85888,1.69,-7.5,23.76,5.22
3.0782,-8.9758,-0.19068,-0.040623,1.1814,1.8283,-6.96,24.06,5.22
3.909,-9.3163,-1.0215,-0.14325,1.3201,1.9447,-6.0,24.96,5.46
4.4539,-9.0303,-1.471,0.050396,1.1747,1.9777,-5.4,25.68,5.58
4.7807,-9.4117,-1.7979,0.20403,1.0125,1.9786,-4.86,26.16,5.82
4.9169,-9.9837,-1.7979,0.67409,0.32315,1.9071,-4.38,26.88,5.88
5.1349,-11.577,-1.6344,0.84788,-0.069944,1.7862,-3.24,28.68,6.36
5.094,-12.217,-1.6481,0.91721,-0.32712,1.5464,-2.82,29.7,6.48
4.7671,-12.49,-1.7298,0.85338,-0.43891,1.2737,-2.4,30.6,6.48
3.8546,-11.468,-1.2531,0.68386,-0.41661,0.88973,-1.5,32.34,6.3
3.4051,-13.184,0.24517,0.97952,-0.12889,0.34544,-1.14,33.36,6.0
4.0589,-16.658,-0.81722,1.441,-0.044899,0.15088,-1.08,34.32,5.64
4.7944,-18.728,-2.9692,0.98258,-0.076358,-0.10599,-0.78,35.22,5.16
3.6775,-12.258,-4.3449,0.13195,0.041539,-0.3204,-0.36,36.84,4.02
3.051,-9.221,-3.8001,-0.020159,0.40897,-0.5339,-0.24,37.5,3.42
2.5334,-7.7636,-3.3097,0.10232,0.90866,-0.92088,0.06,38.22,2.7
2.1248,-7.8045,-3.0646,0.15149,1.007,-0.9557,0.12,39.18,1.08
2.4517,-8.2812,-3.2825,0.20128,0.99357,-0.79901,0.06,39.54,0.42
2.7377,-8.6217,-3.4187,0.083689,0.88514,-0.64263,0.06,39.66,-0.48
3.337,-8.0632,-3.3506,-0.13592,0.85704,-0.47586,-0.3,39.66,-2.22
3.5685,-7.2596,-3.2008,-0.29993,0.87079,-0.29993,-0.42,39.78,-3.12
3.732,-6.3471,-3.2553,-0.34453,0.74556,-0.23121,-0.66,39.78,-3.9
3.4459,-5.3119,-3.4051,-0.21502,0.19456,-0.28802,-0.96,39.84,-5.22
3.3778,-5.4481,-3.7592,-0.015577,-0.31307,-0.36133,-1.14,39.66,-5.7
3.2961,-6.1155,-4.1951,0.086743,-0.85002,-0.40012,-1.32,39.66,-6.12
3.0646,-6.9055,-4.3858,0.0036652,-1.2101,-0.42455,-1.86,39.66,-7.02
2.7377,-6.9328,-3.8954,-0.15699,-1.2523,-0.43524,-2.28,39.6,-7.44
2.4108,-7.2324,-3.0646,-0.28466,-1.0669,-0.40348,-2.46,39.48,-7.86
2.6423,-8.7715,-2.4925,-0.3375,-0.81489,-0.35919,-2.88,39.6,-8.58
2.9284,-10.025,-2.656,-0.43616,-0.63225,-0.33445,-3.12,39.78,-8.94
2.9965,-10.338,-2.6015,-0.70494,-0.34178,-0.42669,-3.3,39.96,-9.18
3.051,-12.422,-1.7162,-0.70555,-0.055283,-0.52993,-3.78,40.44,-9.66
3.1735,-14.356,-1.8251,-0.67776,0.25137,-0.60659,-4.14,40.56,-9.72
3.3915,-15.827,-1.8387,-0.92118,0.52993,-0.77213,-4.98,41.1,-10.2
3.4187,-16.018,-1.8387,-1.3207,0.97952,-0.97066,-4.98,41.1,-10.2
3.6911,-14.805,-1.6344,-1.3986,1.1478,-1.0883,-6.18,41.4,-10.8
3.6775,-14.465,-1.4029,-1.3955,1.2138,-1.2233,-7.14,41.34,-11.1
3.8682,-15.677,-1.1713,-1.2055,1.1619,-1.2156,-8.94,40.98,-11.52
4.699,-16.385,-1.6617,-1.2425,0.94562,-1.1124,-11.22,40.74,-11.88
4.7671,-14.383,-1.7434,-1.2746,0.613,-0.93432,-12.3,40.38,-12.18
3.6366,-12.027,-1.58,-1.1723,0.30665,-0.74984,-16.02,38.88,-12.48
3.051,-11.182,-1.7162,-1.1851,0.34728,-0.76572,-17.34,38.16,-12.54
1.9613,-9.1256,-1.7434,-1.2434,0.50091,-0.8543,-19.92,36.84,-12.66
1.6344,-8.0769,-1.866,-1.2477,0.67928,-0.97189,-22.8,34.98,-12.72
1.471,-7.1915,-2.0158,-1.2022,0.8262,-1.0235,-25.44,33.06,-12.54
1.5936,-6.674,-1.8932,-1.2117,0.89644,-1.0024,-27.66,31.5,-12.48
1.6481,-6.3062,-1.6753,-1.2504,0.94928,-0.94867,-28.74,30.84,-12.3
1.5119,-5.3392,-1.1305,-1.2758,1.0892,-0.78771,-30.72,29.28,-12.3
1.5119,-4.8488,-0.64016,-1.2242,1.1933,-0.59407,-32.52,27.72,-12.36
1.6072,-4.5356,-0.57205,-1.1432,1.2572,-0.32498,-34.26,26.52,-12.78
1.7843,-4.6718,-0.6674,-1.0314,1.2648,-0.016493,-35.64,25.5,-13.2
2.0839,-4.9987,-0.61292,-0.90988,1.2138,0.3372,-36.6,24.72,-13.5
2.152,-5.2983,-0.54481,-0.70921,1.1484,0.93921,-36.96,24.36,-13.62
2.4244,-6.279,-0.28603,-0.55894,1.1823,1.3827,-37.44,23.82,-14.04
2.7241,-7.7636,-0.61292,-0.56322,1.2685,1.8476,-37.5,23.58,-14.58
3.1872,-8.2539,-0.70826,-0.49969,1.3595,2.3298,-37.62,23.52,-14.88
4.0316,-9.0439,-1.3348,-0.16127,1.2755,2.788,-37.26,23.82,-15.6
4.8352,-10.515,-1.6344,0.19914,1.0269,3.1728,-36.72,24.78,-16.44
5.38,-11.673,-1.7025,0.51557,0.68845,3.4431,-35.52,25.86,-17.28
5.6661,-12.476,-1.9477,0.76877,0.33048,3.591,-34.98,26.52,-17.76
5.5571,-12.885,-2.0839,0.905,0.038179,3.5445,-33.3,28.2,-18.48
5.1621,-12.939,-2.2882,0.77763,-0.27,3.1676,-31.26,30.06,-19.8
4.9033,-12.544,-1.9886,0.62033,-0.27519,2.7804,-30.24,31.02,-20.46
4.4947,-12.449,-1.5119,0.60445,-0.14264,2.2773,-27.9,33.06,-21.54
3.8954,-13.307,-1.3484,0.59926,0.10293,1.752,-25.44,34.98,-22.92
3.6366,-13.28,-1.7025,0.44502,0.46792,1.1881,-24.24,35.76,-23.52
2.3836,-10.569,-2.2882,-0.020769,1.233,0.28863,-21.72,37.32,-24.6
1.6208,-8.2539,-1.7298,-0.43127,1.8967,-0.14172,-19.56,38.7,-25.8
1.6072,-8.9486,-0.9398,-0.45601,2.5922,-0.3766,-17.7,39.6,-27.06
1.9205,-9.8475,-0.61292,-0.56322,3.2452,-0.52443,-16.02,40.26,-28.5
2.656,-11.073,-0.14982,-0.85307,3.7855,-0.61361,-15.3,40.38,-29.22
3.5549,-10.515,0.38137,-1.248,4.2009,-0.62522,-13.86,40.74,-30.54
3.8137,-8.8805,1.0215,-1.6686,4.5696,-0.57788,-12.36,41.16,-32.04
3.6639,-7.6683,1.5255,-1.6915,4.656,-0.59529,-11.52,41.46,-32.76
3.4732,-6.2517,1.1577,-1.532,4.6145,-0.58765,-9.78,41.94,-34.02
3.6639,-5.993,0.27241,-1.2935,4.4217,-0.52595,-7.8,42.6,-34.8
4.018,-6.3743,-0.70826,-1.1677,4.0644,-0.40775,-6.72,42.84,-35.16
4.2904,-6.3471,-0.78998,-1.2205,3.5986,-0.17196,-4.5,43.38,-36.0
4.4811,-5.7069,-1.1032,-0.80634,2.9618,0.21075,-1.98,44.04,-36.18
4.3449,-6.5786,-1.3212,-0.15241,1.887,0.88056,0.42,44.52,-36.3
4.3585,-7.1915,-1.3076,0.19212,1.3363,1.3121,1.74,45.0,-36.3
4.5492,-7.8726,-1.7025,0.4893,0.89736,1.668,4.08,45.36,-36.0
4.7807,-8.9349,-2.3427,0.75259,0.51129,1.9426,6.42,45.72,-35.82
4.8761,-9.3708,-2.7649,0.94257,0.20159,2.0577,7.56,45.72,-35.58
4.8352,-9.902,-3.6503,0.96211,-0.12523,1.9022,9.72,45.54,-35.52
4.2087,-9.6977,-3.5549,0.87293,-0.18754,1.6081,11.76,45.3,-35.7
3.9227,-9.3572,-3.3915,0.77733,-0.10232,1.2336,12.78,45.0,-35.88
3.0646,-9.221,-3.1191,0.76389,0.07025,0.88453,14.64,44.34,-36.24
3.0237,-10.379,-2.9011,0.7138,0.3091,0.58246,16.26,43.62,-37.08
3.0918,-10.624,-2.8603,0.50549,0.60751,0.33078,17.16,43.14,-37.56
3.1599,-10.569,-2.6423,0.17226,1.0693,0.15149,18.54,42.12,-38.82
3.5685,-10.651,-2.1929,-0.20953,1.8692,-0.020159,19.8,40.98,-40.26
4.0725,-11.359,-1.8387,-0.2532,2.2248,-0.047953,20.28,40.32,-40.68
5.1349,-13.607,-2.547,-0.18723,2.3155,-0.032376,21.54,38.82,-42.48
6.9328,-13.225,-4.4811,-0.51862,2.0305,-0.071777,22.56,36.96,-44.16
6.456,-11.25,-3.8001,-1.2208,1.4801,-0.27672,23.22,35.7,-45.12
4.7535,-7.7364,-1.9613,-1.3152,0.98288,-0.58338,22.44,32.82,-35.58
3.6094,-8.9349,-1.6753,-0.72388,0.38454,-1.117,21.9,27.24,-39.54
3.4187,-10.202,-2.0022,-0.5284,0.07086,-1.3201,20.52,23.64,-41.64
3.5277,-13.116,-2.8603,-0.65668,-0.1463,-1.496,14.04,16.02,-43.98
3.5822,-13.811,-2.5606,-1.0293,-0.10751,-1.6826,5.76,9.24,-42.66
3.0101,-12.544,-1.3757,-1.4423,0.18967,-1.8494,-1.92,5.16,-39.12
2.5742,-11.632,-0.98067,-1.7706,0.91049,-2.1374,-8.76,2.76,-33.84
2.4789,-11.305,-0.85808,-1.824,1.1133,-2.2358,-11.82,1.92,-31.08
2.152,-10.801,-0.7355,-1.9041,1.3439,-2.5662,-17.88,1.86,-24.84
2.1384,-10.61,-0.62654,-1.8677,1.4197,-2.6154,-20.76,2.22,-21.18
2.1248,-10.311,-0.69464,-1.8295,1.5299,-2.6166,-25.86,4.68,-12.72
2.547,-9.9973,-0.92618,-1.8302,1.6371,-2.5174,-28.38,10.02,-3.24
2.6968,-9.3163,-0.78998,-1.8534,1.4978,-2.2758,-26.58,16.44,4.44
2.547,-8.4446,-0.68102,-1.8057,1.3451,-2.0336,-25.02,19.56,6.9
2.3155,-7.7636,-0.44947,-1.7034,1.2489,-1.7352,-20.82,24.72,16.86
2.2882,-7.641,-0.25879,-1.6093,1.1316,-1.4364,-19.68,26.1,17.64
2.0839,-7.464,-0.027241,-1.5168,0.96731,-1.0971,-18.48,28.02,18.24
1.866,-7.2324,0.054481,-1.4358,0.81337,-0.71074,-18.0,29.16,18.54
1.8387,-7.1779,0.12258,-1.343,0.74312,-0.29352,-17.94,29.4,18.6
1.866,-7.1098,0.054481,-1.2578,0.74862,0.15394,-18.24,29.76,18.42
2.0294,-7.2188,-0.027241,-1.1035,0.84849,0.8488,-18.42,29.76,18.3
2.1793,-7.1915,-0.20431,-0.99571,0.90622,1.2837,-18.54,29.7,18.36
2.3155,-6.7557,-0.27241,-0.90042,0.90744,1.69,-18.72,29.88,18.48
2.3427,-6.7012,-0.35413,-0.78679,0.91049,2.055,-18.54,29.52,18.66
2.3972,-6.9736,-0.1362,-0.7083,0.94104,2.3812,-18.36,29.46,18.9
2.4789,-9.1256,0.46309,-0.62553,1.1102,2.9505,-17.7,29.46,19.26
3.4732,-11.768,0.8036,-0.62583,1.3299,3.3982,-16.86,29.4,19.92
4.3721,-12.367,0.84446,-0.72235,1.5146,3.748,-16.38,29.4,20.28
5.0804,-11.795,1.0488,-0.72174,1.6179,3.9187,-15.12,29.7,20.82
5.4073,-11.931,0.65378,-0.57849,1.6661,3.9153,-13.86,30.06,21.3
5.3664,-12.095,0.095342,-0.29871,1.5449,3.8091,-13.2,30.18,21.24
5.6116,-12.531,-1.5391,0.39737,0.78282,3.4676,-11.82,30.54,21.24
5.6388,-12.435,-2.3018,0.85246,-0.060781,3.1551,-10.44,31.32,20.94
5.7069,-12.095,-1.9068,1.146,-0.80359,2.8225,-9.0,31.92,20.34
4.8625,-11.114,-1.1986,1.1756,-1.1881,2.503,-7.68,32.64,19.26
4.6173,-10.678,-0.96704,1.0427,-1.1881,2.2736,-6.48,33.6,17.34
4.3721,-9.8066,-0.91256,1.0418,-0.99846,2.0073,-5.94,34.02,16.14
3.8954,-9.507,-1.5527,1.1179,-0.6918,1.7663,-4.98,34.74,13.68
3.6503,-9.4389,-2.4108,1.0504,-0.095906,1.471,-3.66,35.4,10.74
3.5958,-9.2482,-2.7786,0.91019,0.25076,1.2883,-3.06,35.88,9.24
3.8682,-8.717,-3.4459,0.74159,0.51007,1.1313,-1.56,36.72,6.36
4.127,-7.8045,-3.5413,0.55405,0.64507,0.95875,-0.78,37.14,3.36
4.127,-6.2517,-3.5277,0.39676,0.67287,0.73609,1.56,37.68,0.48
3.9908,-5.2438,-3.3097,0.30177,0.60781,0.49144,2.28,37.92,-1.86
3.9771,-4.9033,-3.5004,0.30329,0.43494,0.23976,4.02,38.1,-2.7
3.7592,-5.0531,-3.5685,0.33109,0.010385,-0.10507,5.58,38.34,-4.02
3.6094,-5.6797,-3.4187,0.28039,-0.23549,-0.28375,7.02,38.28,-4.62
3.4459,-6.6331,-3.2553,0.17837,-0.35369,-0.45998,7.98,37.92,-4.44
3.3778,-6.9328,-3.1327,0.029322,-0.37751,-0.60048,8.4,37.74,-4.14
3.3642,-8.0224,-3.1599,-0.09499,-0.33475,-0.73884,9.12,37.2,-3.12
3.228,-9.1393,-3.2825,-0.33231,-0.26512,-0.82803,9.48,36.72,-1.5
3.2008,-9.4798,-3.1735,-0.56566,-0.096211,-0.94776,9.54,36.54,-0.42
3.1735,-9.7522,-2.833,-0.7645,0.13561,-1.1341,9.72,36.0,2.16
3.0918,-9.5751,-2.6696,-0.83322,0.2419,-1.2303,9.96,35.88,3.54
3.1872,-9.9837,-2.5606,-0.82956,0.38454,-1.5241,10.26,35.7,6.54
3.2008,-10.678,-2.6968,-0.75503,0.34086,-1.6973,10.56,35.58,8.22
3.5822,-12.558,-2.7649,-0.70677,0.24282,-1.7947,10.86,35.64,9.9
4.1542,-14.737,-2.5606,-0.83017,0.043066,-1.8323,11.34,35.76,13.38
4.3858,-15.445,-2.3018,-1.0348,-0.072082,-1.7993,11.7,35.94,15.06
4.3858,-15.091,-1.8115,-1.2691,-0.15058,-1.7767,11.88,36.0,16.8
4.0589,-15.05,-0.7355,-1.1933,-0.19548,-1.8421,12.36,36.3,20.1
4.018,-16.29,-0.6674,-1.0516,-0.2981,-1.8381,12.6,36.54,21.9
4.2904,-17.489,-1.2803,-1.1985,-0.49511,-1.7816,12.9,36.6,23.34
3.8818,-15.8,-1.5391,-1.3894,-0.55131,-1.7336,13.2,36.66,26.04
3.4596,-14.383,-1.5119,-1.3564,-0.39309,-1.6805,13.32,36.66,27.18
3.4596,-14.383,-1.5119,-1.3659,-0.1069,-1.7071,13.32,36.66,27.18
2.3427,-9.9429,-0.55843,-1.3531,0.16829,-1.8192,12.84,36.42,29.1
2.1112,-9.0848,-0.51757,-1.1936,0.4893,-1.8937,12.36,36.3,29.88
1.8387,-7.641,-0.5993,-1.1231,0.56413,-1.9123,11.76,36.06,30.3
1.9068,-6.6467,-1.0215,-0.95478,0.65637,-1.8732,11.04,35.76,30.72
2.0839,-6.0202,-1.2803,-0.80298,0.58582,-1.7138,9.36,35.1,31.2
2.1248,-5.489,-1.3212,-0.7532,0.42883,-1.554,8.4,34.8,31.14
1.8932,-4.6037,-1.0896,-0.72326,0.24679,-1.3564,6.42,34.26,30.84
1.6344,-4.3994,-0.84446,-0.69669,0.064446,-1.0324,5.46,33.9,30.72
1.5119,-4.1814,-0.68102,-0.69333,0.059865,-0.76694,4.5,33.6,30.36
1.185,-4.0861,-0.50395,-0.70311,0.14997,-0.48381,3.54,33.36,30.18
1.0079,-4.2087,-0.38137,-0.73365,0.31337,-0.17715,2.7,33.06,29.88
0.8717,-4.522,-0.081722,-0.74709,0.54367,0.14813,0.78,32.34,29.52
1.0215,-4.808,0.12258,-0.75839,0.85338,0.49297,0.12,32.1,29.4
1.1169,-4.9987,0.25879,-0.72815,1.3066,1.0696,-0.48,31.8,29.4
1.4574,-5.3664,0.47671,-0.71502,1.4279,1.2651,-0.96,31.44,29.46
2.1112,-6.1155,0.39499,-0.63866,1.7297,1.8842,-1.32,30.84,29.82
2.5198,-6.4969,0.23155,-0.64019,1.8647,2.2785,-1.26,30.42,30.24
3.2144,-6.7693,0.19068,-0.46212,1.8815,2.6924,-1.08,30.24,30.66
4.413,-7.8181,-0.19068,-0.15608,1.7309,3.1001,-0.66,29.76,31.98
5.4345,-9.0984,-0.7355,0.43158,1.084,3.6093,-0.3,29.58,32.7
6.4424,-11.891,-1.0624,0.64477,0.78374,3.7342,0.6,29.16,34.02
7.0281,-13.866,-1.0896,1.2654,-0.32254,4.0748,1.26,29.16,34.74
7.3005,-15.704,-0.89894,1.6209,-1.062,4.1743,1.98,29.22,35.34
7.641,-17.339,-1.471,1.8818,-1.7046,4.003,3.66,29.82,36.48
7.2324,-16.998,-1.4029,1.9801,-2.2681,3.6484,4.74,30.3,36.78
6.565,-17.788,-1.6481,2.3503,-2.6796,2.8283,5.88,30.78,36.96
5.4209,-18.565,-5.0123,2.3747,-2.7315,2.471,8.82,31.98,36.9
4.4539,-15.813,-5.4345,1.5299,-2.5571,1.3537,10.2,32.64,36.78
3.5822,-14.192,-5.1894,1.1127,-1.9795,0.68111,11.64,33.3,36.42
1.7298,-11.196,-4.0316,0.94348,-1.0831,0.13347,14.82,34.86,35.34
1.4029,-10.447,-4.1542,0.73823,-0.079412,-0.20281,16.26,35.52,34.56
1.6072,-9.5615,-3.9635,0.41264,0.74434,-0.33964,17.88,36.0,33.84
2.7922,-7.1779,-3.8546,-0.024435,1.4187,-0.36194,20.28,37.2,32.28
3.4051,-6.0883,-3.732,-0.18631,1.4142,-0.36133,21.36,37.74,31.44
3.7728,-5.5162,-3.7865,-0.22602,1.2822,-0.34728,22.32,38.28,30.72
4.0589,-4.9987,-3.7728,-0.28344,0.5733,-0.33995,23.28,38.46,29.82
4.4675,-4.4675,-3.732,-0.24435,-0.065973,-0.3372,24.48,39.0,28.62
4.4947,-4.5764,-3.9227,-0.13042,-1.0821,-0.4047,25.02,39.12,28.26
3.8409,-5.2438,-4.1814,-0.11637,-1.35,-0.45968,25.32,39.3,27.6
3.3097,-5.993,-4.1542,-0.18967,-1.8515,-0.60506,25.56,39.12,27.42
2.9965,-6.3743,-3.9908,-0.28711,-1.9926,-0.68203,25.62,39.18,27.3
2.5334,-8.0905,-3.0373,-0.3598,-1.971,-0.72601,25.8,39.06,27.0
2.4789,-9.3436,-2.942,-0.45173,-1.7859,-0.73854,25.74,38.94,26.88
2.5606,-10.488,-2.6832,-0.85949,-1.2596,-0.81734,26.04,38.94,26.7
2.4108,-10.787,-1.9886,-1.2416,-0.78405,-0.96853,26.34,38.82,26.58
2.261,-10.351,-1.3484,-1.4355,-0.28161,-1.1506,26.64,38.7,26.7
2.2474,-10.42,-0.70826,-1.4481,-0.048869,-1.2355,26.94,38.52,26.64
2.261,-12.299,0.027241,-1.325,0.44166,-1.4951,27.3,38.28,26.88
2.5742,-13.961,-0.027241,-1.2303,0.72021,-1.5669,27.54,38.1,27.0
3.4732,-15.296,-0.68102,-1.3781,0.94257,-1.6328,27.54,38.04,27.0
4.5356,-15.663,-1.1169,-2.0375,1.0993,-1.6649,27.66,37.74,27.36
4.9033,-14.288,-0.77636,-1.8192,1.0168,-1.569,27.42,37.8,27.48
4.9169,-14.724,-0.76274,-1.6002,0.89003,-1.4841,27.12,37.56,27.78
5.203,-15.5,-1.1169,-0.99021,0.29474,-1.1307,26.04,37.26,28.68
5.0804,-14.043,-0.96704,-0.72601,-0.14508,-0.91324,25.44,37.38,28.98
4.6445,-12.367,-0.47671,-0.5736,-0.41508,-0.81489,24.84,37.2,29.28
3.1735,-9.3436,-0.29965,-0.42028,-0.45754,-0.86957,23.58,37.08,30.06
2.4789,-8.3084,-0.68102,-0.27703,-0.40897,-0.95356,22.8,36.9,30.24
2.152,-7.7091,-1.0896,-0.16371,-0.33659,-0.97494,21.96,36.9,30.36
1.8387,-6.2381,-1.7298,-0.11393,-0.21838,-0.8827,20.28,36.9,30.36
2.0022,-5.7342,-1.8796,-0.10446,-0.10782,-0.75717,19.5,36.9,30.36
2.0567,-5.3392,-1.7979,-0.10904,0.032987,-0.6411,18.66,36.66,30.36
2.1929,-4.9306,-1.3212,-0.16738,0.29505,-0.43616,17.04,36.54,29.94
2.0839,-4.5356,-0.84446,-0.19548,0.35491,-0.3708,16.44,36.54,29.76
2.1248,-4.3449,-0.69464,-0.22052,0.3992,-0.23213,15.72,36.54,29.46
2.0567,-4.4266,-0.39499,-0.21472,0.32406,-0.02138,14.64,36.54,28.8
1.975,-4.7944,-0.24517,-0.22022,0.28344,0.11851,14.22,36.48,28.74
1.9613,-5.2438,-0.21793,-0.2364,0.31521,0.28069,13.8,36.6,28.5
2.0567,-6.3062,-0.081722,-0.26237,0.51191,0.59712,13.08,36.72,28.2
2.2065,-6.8102,-0.054481,-0.28924,0.75472,0.8097,12.84,36.78,28.2
2.3155,-7.1098,0.054481,-0.32009,1.015,0.99266,12.66,36.78,28.32
2.5742,-7.4912,0.19068,-0.34514,1.2871,1.1545,12.6,36.72,28.68
2.7649,-7.641,-0.12258,-0.38759,1.493,1.2917,12.66,36.84,28.86
2.9284,-7.4776,-0.23155,-0.28497,1.5629,1.4465,12.9,36.96,29.28
3.2416,-7.9679,-0.47671,-0.07025,1.4542,1.7233,13.38,37.08,29.76
3.514,-8.4719,-0.57205,0.38271,1.0446,1.9404,13.62,37.14,30.06
3.9908,-9.9973,-0.7355,0.7086,0.67134,2.1997,14.1,37.26,30.48
4.6718,-12.544,-0.68102,0.99754,0.29902,2.4624,15.24,37.62,31.2
5.0531,-14.152,-1.0488,1.2346,0.018021,2.6615,16.02,37.68,31.44
5.2983,-14.478,-1.0488,1.4352,-0.27489,2.7229,16.68,37.8,31.68
6.3471,-19.205,-2.6423,1.8781,-0.58949,2.7846,18.3,38.1,31.92
6.9328,-19.477,-4.0997,2.0635,-1.5238,2.5849,19.32,38.34,31.8
6.4152,-17.856,-4.7535,1.503,-2.0614,2.149,20.52,38.58,31.62
3.5549,-12.177,-4.6445,1.189,-2.0739,1.6506,22.98,38.82,30.9
2.3836,-10.924,-4.1814,1.1701,-1.6845,1.0696,24.18,39.0,30.3
1.3484,-10.515,-3.9908,1.0504,-1.0421,0.61881,25.26,39.06,29.52
0.92618,-9.3708,-3.0373,0.71013,-0.21044,0.38026,27.72,39.54,28.02
1.2939,-8.9622,-2.6696,0.33323,0.92516,0.34606,28.92,39.6,27.3
2.0703,-8.1995,-2.5879,0.2193,1.2046,0.31398,30.0,39.84,26.64
2.9284,-6.8374,-2.9148,-0.13256,1.5379,0.20128,31.98,39.72,25.08
3.4732,-5.6388,-3.4323,-0.22266,1.3302,0.11698,32.64,39.72,24.48
3.6366,-5.1213,-3.514,-0.2306,0.94195,0.0097738,33.42,39.6,24.0
3.623,-4.413,-3.7728,-0.17501,0.46395,-0.13836,34.68,39.6,23.1
3.5822,-4.6309,-3.7047,0.017104,-0.25779,-0.2135,34.98,39.42,22.62
3.6775,-5.2983,-3.8682,0.078802,-0.66951,-0.19303,35.28,39.3,22.32
3.6094,-7.0145,-4.2495,-0.025656,-0.9331,-0.21441,35.82,39.42,21.84
3.337,-7.3414,-3.732,-0.24282,-0.98227,-0.24862,35.94,39.42,21.72
3.228,-7.4503,-3.0646,-0.33659,-0.94592,-0.32498,36.24,39.42,21.54
3.514,-8.6217,-2.7922,-0.33934,-0.98594,-0.38454,36.3,39.42,21.48
3.6094,-8.9213,-2.9148,-0.55955,-1.1408,-0.57666,36.42,39.48,21.3
3.4459,-9.3163,-2.4789,-0.71654,-1.1274,-0.76053,36.6,39.48,21.12
3.3097,-10.488,-1.1577,-0.7138,-0.99082,-0.88423,36.78,39.78,20.7
3.3778,-13.348,-0.62654,-0.57513,-0.78863,-0.95661,36.84,40.02,20.28
3.7184,-16.126,-0.9398,-0.58674,-0.50213,-1.0107,37.02,40.38,19.8
3.9908,-17.979,-1.0488,-1.1087,-0.078496,-1.1661,36.84,40.86,18.78
4.2087,-16.658,-0.77636,-1.719,0.59468,-1.4349,36.6,41.16,18.42
4.3449,-15.037,-0.040861,-1.941,0.68447,-1.5647,36.18,41.46,18.18
3.228,-16.126,-0.20431,-1.824,0.78863,-1.905,34.92,42.06,17.82
3.4732,-17.039,-0.50395,-1.8311,0.9838,-2.0837,34.2,42.42,18.0
3.623,-16.058,-0.7355,-1.6832,0.88911,-2.1564,33.18,42.9,18.18
3.8954,-12.503,-0.50395,-1.4453,0.67378,-2.1417,30.96,43.32,18.66
3.6775,-11.768,-0.16344,-1.2422,0.61361,-2.1102,29.64,43.5,18.96
3.1054,-10.678,0.01362,-1.102,0.64019,-2.1118,28.02,43.62,19.38
2.2474,-8.6081,-0.14982,-0.95967,0.65271,-2.0553,24.42,44.16,20.34
2.0567,-7.5457,-0.36775,-0.84025,0.62614,-1.9545,22.38,44.1,20.88
1.9613,-6.6467,-0.38137,-0.64904,0.54398,-1.7501,20.28,44.1,21.48
1.7162,-5.6524,-0.62654,-0.51343,0.50519,-1.5528,16.32,44.1,22.8
1.5936,-5.2983,-0.84446,-0.38576,0.46212,-1.2031,14.22,44.04,23.4
1.5391,-4.8897,-1.0896,-0.3598,0.43707,-1.0867,10.14,43.92,24.48
1.4982,-4.8625,-1.0079,-0.31429,0.41111,-0.66981,8.16,43.8,24.96
1.4846,-4.9306,-0.91256,-0.30452,0.42333,-0.32742,6.42,43.62,25.08
1.5119,-5.0259,-0.96704,-0.30971,0.43158,0.016799,3.18,43.38,25.56
1.6208,-5.094,-0.96704,-0.31032,0.40928,0.37354,1.8,43.2,25.8
1.6481,-5.2983,-1.0215,-0.33567,0.4386,0.84086,-0.36,42.84,26.16
1.58,-5.5162,-0.99429,-0.38026,0.56474,1.1005,-1.32,42.6,26.34
1.2395,-5.6933,-0.91256,-0.38943,0.76755,1.2987,-1.98,42.48,26.4
1.2667,-5.8704,-0.84446,-0.36896,1.0498,1.5266,-2.34,42.36,26.58
1.7298,-6.9328,-0.7355,-0.29688,1.3341,1.8439,-2.82,42.3,26.76
2.3836,-7.6683,-1.2258,-0.24984,1.5174,2.1817,-2.88,42.3,26.94
3.2144,-8.3765,-1.58,-0.29963,1.5314,2.5149,-2.52,42.36,27.12
3.8001,-8.717,-1.6617,-0.28894,1.4902,2.6637,-2.04,42.42,27.24
5.7069,-14.056,-0.76274,0.030238,0.93859,3.1527,0.54,42.54,27.72
5.7069,-14.056,-0.76274,0.10812,0.75564,3.2416,0.54,42.54,27.72
6.0474,-15.132,-0.61292,0.33934,0.37629,3.3509,1.8,42.78,27.96
6.5786,-16.671,-0.83084,0.62889,-0.0015272,3.3686,3.0,43.02,28.2
7.246,-17.271,-2.3155,0.98746,-0.40623,3.2296,4.56,43.26,28.38
6.9191,-15.609,-3.5822,1.3421,-0.82833,2.9288,8.1,43.74,28.32
6.7012,-14.56,-4.018,1.5345,-1.2394,2.4154,10.02,43.92,28.14
5.4209,-13.076,-4.3721,1.4865,-1.536,1.909,12.06,44.04,28.02
4.6037,-11.713,-3.3097,1.0928,-1.6032,1.3891,16.02,44.52,27.3
4.018,-10.665,-2.6968,0.91783,-1.4132,1.0256,18.06,44.7,26.7
3.6639,-9.616,-2.4789,0.80359,-1.0287,0.74923,22.08,45.0,25.5
3.6503,-9.3844,-2.7649,0.53481,-0.28894,0.45204,23.82,45.12,24.9
3.7047,-8.431,-3.3778,0.37843,-0.08094,0.33689,25.68,45.12,24.3
3.3915,-6.4833,-3.4732,0.072998,0.21258,0.11148,27.24,45.24,23.52
3.3234,-5.1076,-3.2961,-0.1179,0.30971,-0.19334,30.0,45.06,22.2
3.3506,-4.6854,-3.1872,-0.072998,0.16677,-0.35094,31.08,45.06,21.42
3.6366,-4.8897,-3.5685,0.0027489,-0.10354,-0.47525,32.52,45.06,20.04
3.7047,-4.9987,-3.6639,-0.023824,-0.58949,-0.61484,33.12,45.12,19.44
3.7047,-4.9987,-3.5822,-0.090408,-0.73701,-0.6524,33.36,45.24,18.9
3.8409,-6.4424,-3.0918,-0.0085521,-1.1478,-0.68234,33.72,45.48,18.06
3.9908,-7.8453,-3.0918,0.033292,-1.2599,-0.67745,33.78,45.54,17.82
4.0997,-8.8941,-3.3506,-0.025045,-1.5959,-0.62797,33.66,45.66,17.7
4.3177,-10.719,-3.4187,-0.28405,-1.7504,-0.65821,33.24,45.78,17.34
3.9635,-10.515,-2.9829,-0.7422,-1.6472,-0.86926,33.0,46.02,17.16
2.942,-9.9565,-1.9886,-0.80879,-1.5379,-0.94684,32.1,46.38,16.8
2.6968,-10.338,-1.58,-0.88239,-1.1066,-1.2349,31.5,46.5,16.56
2.6423,-10.774,-1.2803,-0.88942,-0.82528,-1.4111,30.9,46.5,16.32
2.7922,-12.898,-0.50395,-0.85155,-0.51343,-1.5375,29.58,46.68,16.14
3.0237,-14.506,-0.35413,-0.82161,-0.18692,-1.6677,28.8,46.74,16.02
3.7865,-16.031,-0.98067,-1.1463,0.17837,-1.8353,26.82,46.86,16.26
3.8818,-14.955,-0.96704,-1.6179,0.23915,-1.8851,25.74,46.92,16.38
3.6639,-13.757,-0.64016,-1.4685,0.30146,-1.8744,24.72,46.68,16.62
3.5958,-14.438,-0.28603,-1.2208,0.34819,-1.7947,23.52,46.8,16.92
3.8682,-14.547,-0.34051,-1.054,0.26237,-1.69,20.88,46.8,17.7
3.9363,-12.83,-0.40861,-0.88667,0.054367,-1.5647,19.26,46.74,18.06
3.3097,-11.06,0.01362,-0.76938,-0.098349,-1.4917,17.76,46.56,18.54
2.4789,-8.2131,0.21793,-0.61025,-0.099266,-1.4697,14.7,46.38,19.44
1.9886,-7.6002,0.32689,-0.54734,-0.08827,-1.4413,13.14,46.26,20.1
1.7298,-6.4424,0.14982,-0.39462,-0.076969,-1.3561,11.46,46.14,20.88
1.9068,-5.4754,-0.9398,-0.17685,-0.18662,-1.0873,8.46,45.78,21.96
1.9886,-5.0804,-1.2803,-0.089797,-0.35766,-0.86804,7.02,45.72,22.62
2.0158,-4.9442,-1.3212,-0.082772,-0.40042,-0.6915,5.64,45.48,22.98
1.6481,-4.8761,-0.92618,-0.20036,-0.30238,-0.54367,3.18,45.0,23.7
1.2803,-4.8488,-0.72188,-0.29138,-0.1744,-0.45662,2.1,44.88,24.06
0.95342,-4.8352,-0.38137,-0.32315,-0.084605,-0.41508,1.14,44.52,24.3
0.74912,-5.3528,-0.095342,-0.3543,0.30085,-0.22083,0.3,44.16,24.6
0.88532,-6.2926,0.35413,-0.44685,0.62308,0.013439,-1.14,43.86,24.72
1.0624,-6.4424,0.51757,-0.50702,0.97341,0.31826,-1.62,43.68,24.96
1.7298,-6.8238,0.25879,-0.47983,1.306,0.68661,-2.46,43.2,25.26
2.5334,-6.9464,-0.24517,-0.47495,1.6616,1.2413,-2.76,43.08,25.26
3.0237,-6.8783,-0.64016,-0.50396,1.6958,1.5293,-2.76,42.96,25.2
3.3506,-7.0145,-0.77636,-0.35827,1.6035,1.847,-2.7,43.08,25.26
4.0589,-8.7715,-0.83084,-0.036957,1.3894,2.2232,-2.4,43.02,25.02
4.7944,-10.774,-1.1032,0.36224,1.0907,2.6145,-2.04,43.02,25.08
6.5378,-14.192,-1.6753,0.81398,0.60384,3.054,-1.56,43.08,25.02
8.4719,-17.788,-1.9341,1.3027,-0.058643,3.4092,-0.18,43.32,24.6
9.0712,-19.395,-2.7649,2.0421,-1.1054,3.5858,0.78,43.5,24.36
9.0575,-19.082,-3.6366,2.2804,-1.9401,3.1884,1.92,43.74,24.0
5.993,-15.064,-5.5843,2.0797,-2.7663,2.4884,4.68,44.22,23.16
4.2223,-13.675,-5.1485,1.8265,-3.1337,1.7724,6.06,44.52,22.56
3.2689,-12.885,-4.699,1.7578,-2.9413,1.2007,7.68,44.82,22.02
2.4517,-11.387,-4.413,1.4435,-2.2813,0.79626,10.62,45.36,20.52
2.0294,-10.025,-4.1406,0.68661,-0.50121,0.41722,12.18,45.54,19.56
2.0022,-8.5808,-3.909,0.33995,0.62278,0.29444,13.74,45.6,18.54
2.7513,-7.069,-4.0861,0.14722,1.2196,0.19028,16.74,45.78,16.68
3.4187,-6.5786,-4.3177,0.012217,1.2605,0.10904,18.0,45.78,15.66
4.1814,-6.1428,-4.5356,-0.096211,0.90164,-0.077274,19.14,45.9,14.88
4.7126,-5.38,-4.4947,-0.17807,0.32834,-0.14691,21.12,45.96,13.38
4.3585,-5.5026,-4.1678,-0.17043,-0.58002,-0.343,21.84,46.02,12.72
4.0044,-5.7614,-4.1542,-0.14905,-0.95387,-0.42272,22.38,46.02,12.18
3.1054,-7.1234,-4.3449,-0.24404,-1.0715,-0.47373,22.98,45.84,11.34
2.8739,-7.2188,-4.1406,-0.45937,-0.98288,-0.54062,23.22,45.78,10.86
2.7377,-7.069,-3.5958,-0.67042,-0.77733,-0.64996,23.04,45.6,10.32
2.6151,-7.2869,-2.6968,-0.7251,-0.45693,-0.81917,22.98,45.42,10.26
2.6015,-7.927,-2.7649,-0.7422,-0.3146,-0.91416,22.68,45.42,10.32
2.6151,-8.4855,-2.833,-0.85674,-0.19334,-1.0052,22.5,45.36,10.5
2.8467,-8.8941,-2.4789,-1.0064,-0.040928,-1.1359,21.78,45.36,10.74
2.942,-9.0439,-1.9613,-1.0675,0.12095,-1.2431,21.36,45.42,10.98
3.0782,-9.3027,-1.7025,-1.0498,0.27367,-1.405,20.4,45.24,11.34
3.0237,-9.616,-1.6344,-1.0354,0.31337,-1.4603,20.4,45.24,11.34
2.9556,-10.12,-1.6208,-0.9053,0.45784,-1.5467,19.68,45.24,11.46
3.9771,-13.253,-1.9341,-0.88209,0.50305,-1.5397,17.88,44.76,11.88
4.3585,-13.702,-1.9205,-1.0119,0.44349,-1.4988,16.92,44.7,12.18
4.5628,-13.321,-1.7979,-1.1292,0.33017,-1.4688,16.02,44.46,12.42
4.0861,-13.307,-0.77636,-1.0168,0.20892,-1.4288,13.74,43.92,13.44
4.2223,-14.86,-1.076,-0.67042,0.053145,-1.2471,12.6,43.74,13.8
4.6718,-15.636,-1.4982,-0.65699,-0.062919,-1.1136,11.34,43.68,14.16
4.9442,-14.778,-1.8932,-0.60995,-0.31643,-0.88453,10.08,43.5,14.4
4.4402,-12.994,-1.5527,-0.41844,-0.42455,-0.60353,7.32,42.96,15.24
3.8818,-11.972,-1.1032,-0.41997,-0.26512,-0.53756,6.12,42.66,15.54
3.2553,-10.665,-0.96704,-0.41264,-0.082161,-0.51038,5.04,42.42,15.9
2.6696,-8.0496,-1.3757,-0.25351,0.082772,-0.45845,2.7,42.18,16.56
2.6696,-7.5048,-1.7843,-0.15791,0.13164,-0.38851,1.68,41.88,16.86
2.7104,-6.674,-1.866,-0.14478,0.16096,-0.36163,0.66,41.7,16.86
2.6696,-5.6388,-1.7025,-0.11668,0.26206,-0.2981,-0.78,41.52,17.1
2.6968,-5.0259,-1.4165,-0.077885,0.27031,-0.23671,-1.5,41.28,17.4
2.5742,-4.699,-1.1169,-0.016188,0.18815,-0.12278,-2.58,41.04,17.28
2.4789,-4.5492,-0.85808,0.033598,0.13042,-0.014355,-3.12,40.86,17.34
2.3291,-4.8897,-0.74912,0.070555,0.10812,0.12034,-3.36,40.62,17.46
2.3836,-5.094,-0.6674,0.072693,0.11759,0.19181,-3.54,40.5,17.46
2.2337,-5.38,-0.49033,0.0082467,0.27245,0.44013,-4.02,40.32,17.46
2.2065,-5.5707,-0.34051,0.01741,0.45326,0.64355,-4.2,40.32,17.58
2.3155,-6.0202,-0.38137,0.05681,0.64752,0.85582,-4.32,40.26,17.52
2.6423,-7.0553,-0.72188,0.04215,0.90866,1.1564,-4.26,39.9,17.46
2.8058,-7.3277,-0.76274,0.019853,0.99113,1.2205,-4.02,39.96,17.52
2.7649,-7.5729,-0.24517,-0.015577,1.1832,1.317,-3.72,39.96,17.4
2.7786,-8.1177,0.36775,0.12767,1.4765,1.5149,-3.0,39.72,17.46
3.1872,-9.3163,0.14982,0.22083,1.5495,1.7052,-2.52,39.78,17.28
3.7047,-9.9429,-0.28603,0.32223,1.4471,1.9111,-1.98,39.9,17.16
4.8897,-10.46,-1.4438,0.65485,0.88117,2.1906,-0.48,40.08,16.92
5.0123,-10.583,-1.6753,0.88759,0.34789,2.3243,0.42,40.14,16.8
4.8897,-10.569,-1.7162,1.0724,-0.11606,2.3582,1.44,40.08,16.62
4.2904,-11.046,-1.3484,1.2168,-0.43555,2.313,3.6,40.14,16.08
3.9771,-11.85,-1.2803,1.3124,-0.54886,2.2245,4.8,40.14,15.66
3.9363,-12.544,-1.8251,1.2773,-0.52046,2.1136,6.06,40.14,15.24
3.9908,-12.217,-1.9341,1.1335,-0.47739,1.9199,8.7,40.2,14.22
4.0316,-13.198,-0.69464,1.2113,-0.40714,1.6325,9.96,40.08,13.62
4.3721,-15.323,-0.92618,1.6609,-0.45693,1.6383,11.16,40.08,13.2
5.993,-19.246,-4.7126,1.3882,-0.77488,1.4734,13.86,39.96,11.94
5.0259,-15.119,-4.1814,0.29902,-0.88239,1.0446,15.18,40.02,11.46
3.6094,-11.427,-3.3642,-0.036652,-0.51099,0.59712,16.44,39.78,10.86
1.7298,-9.902,-2.6151,0.23824,0.23152,-0.083994,18.54,39.42,9.84
1.6208,-10.637,-3.1735,0.2138,0.60415,-0.37477,19.44,39.36,9.12
1.866,-10.529,-3.2689,0.062614,0.74892,-0.43188,20.22,39.36,8.58
2.4653,-9.1937,-3.2553,-0.3317,0.99693,-0.51374,21.06,39.36,8.04
2.7104,-6.7966,-2.7922,-0.72052,1.467,-0.67134,22.08,39.24,7.2
2.8875,-5.3528,-2.7649,-0.79199,1.5983,-0.74678,22.44,39.12,6.9
3.0646,-4.7263,-2.9011,-0.72357,1.3952,-0.78557,22.74,39.06,6.72
3.2553,-4.0316,-3.0646,-0.60231,0.7477,-0.88973,22.98,39.06,6.66
3.2144,-3.9499,-3.1191,-0.55467,0.48808,-0.92882,23.04,39.12,6.84
3.2416,-4.0452,-3.3506,-0.44135,-0.049175,-0.97066,22.92,39.12,6.9
3.0237,-5.1213,-3.3097,-0.28497,-0.76053,-0.96761,22.08,39.06,7.5
