Ax,Ay,Az,Gx,Gy,Gz,Mx,My,Mz
7.9951,-2.6423,-3.337,0.40836,-0.19303,0.32742,-34.38,9.54,-4.92
7.4912,-2.261,-3.514,0.45357,-0.0562,0.3711,-34.38,9.6,-4.74
7.8045,-2.9011,-4.1406,0.36255,0.054672,0.42669,-34.56,9.48,-4.74
7.8317,-3.2553,-4.0861,0.38912,0.050091,0.43799,-34.56,9.3,-4.74
8.322,-3.9908,-4.9578,0.19334,0.20831,0.36744,-34.5,9.48,-4.8
8.1722,-4.3177,-5.1621,0.15058,0.16096,0.35461,-34.5,9.48,-4.74
7.069,-3.6775,-3.9635,0.23671,0.009163,0.3989,-34.44,9.66,-4.8
7.9134,-3.6503,-4.1406,0.17959,0.16066,0.38301,-34.38,10.02,-5.1
8.8668,-2.9965,-3.1599,0.29108,0.22969,0.28039,-34.38,10.14,-5.22
8.3357,-3.0918,-4.5628,0.25076,0.093157,0.29596,-34.08,10.44,-5.28
7.9951,-3.0373,-4.6718,0.22877,-0.16677,0.32132,-34.08,10.68,-5.4
8.7987,-3.4051,-4.1542,0.14386,0.0027489,0.23518,-33.96,10.86,-5.58
9.2755,-3.4868,-3.514,0.2419,-0.046731,0.20525,-33.84,11.1,-5.7
9.6568,-2.9011,-3.6366,0.30329,-0.13011,0.21594,-33.6,11.28,-6.24
10.365,-3.4596,-4.1542,0.2364,0.01405,0.0076358,-33.42,11.64,-6.54
9.5615,-2.3427,-3.1463,0.33292,-0.14203,-0.10965,-33.12,11.88,-6.42
8.8941,-2.4108,-3.1872,0.42913,-0.098349,-0.16493,-32.94,12.24,-6.78
9.2891,-2.5061,-3.514,0.42455,0.040623,-0.22113,-32.82,12.48,-6.84
9.793,-2.6696,-3.7184,0.32926,0.34667,-0.37171,-32.7,12.54,-7.02
10.161,-2.7104,-3.7728,0.29474,0.16554,-0.49022,-32.46,12.84,-7.38
9.616,-2.6832,-3.8682,0.27214,0.063835,-0.53756,-32.4,12.84,-7.56
8.7034,-0.95342,-4.1814,0.2645,0.0033598,-0.5171,-32.1,12.84,-8.1
8.7715,-1.1577,-4.3721,0.16432,0.14844,-0.46151,-31.8,12.66,-8.64
10.746,-1.6208,-3.7047,0.14294,0.35827,-0.6463,-31.8,12.66,-8.82
11.278,-0.36775,-3.2553,0.25412,-0.29749,-0.69578,-31.92,12.6,-9.24
11.278,-1.471,-3.8001,0.23915,-0.83811,-0.55741,-31.8,12.24,-9.72
11.25,-2.0839,-3.2144,0.17776,-0.81978,-0.74862,-31.74,12.06,-9.84
10.801,-1.7162,-3.909,0.1292,-1.0883,-0.91263,-31.8,11.82,-10.2
10.174,-0.85808,-4.4266,-0.032376,-1.8051,-1.0641,-31.74,11.28,-10.26
9.6023,-1.2531,-4.5083,-0.051618,-1.8479,-1.0156,-31.62,10.92,-10.26
9.1801,-0.99429,-4.4811,-0.047342,-1.3066,-1.1332,-31.5,10.62,-10.08
8.0769,-0.65378,-4.2904,0.035125,-1.1008,-1.1267,-31.14,9.9,-9.54
7.8045,-0.57205,-3.7728,0.17196,-0.97891,-1.1029,-30.96,9.54,-9.36
7.75,-0.76274,-3.7184,0.28711,-0.6918,-0.97738,-30.9,9.3,-8.76
8.322,-0.85808,-3.9635,0.33445,-0.39951,-0.77763,-30.48,8.88,-7.74
7.8453,-0.54481,-4.1406,0.45632,-0.44868,-0.55405,-30.0,8.46,-7.38
7.641,-0.38137,-4.3177,0.51404,-0.58063,-0.49052,-29.58,8.1,-6.84
6.279,-0.81722,-5.2983,0.56597,-0.9499,-0.13073,-28.32,7.74,-5.88
4.8761,-0.095342,-5.5435,0.52809,-0.7981,0.1912,-27.66,7.5,-5.4
4.8352,-0.8717,-5.9657,0.50427,-0.41997,0.46517,-26.88,7.2,-4.8
5.8704,-0.6674,-6.4288,0.48961,-0.49816,0.87476,-25.2,6.78,-4.08
7.6683,-2.0294,-6.9872,0.3543,-1.2071,1.0641,-24.42,6.6,-3.78
8.5536,-2.4108,-6.5514,0.36133,-1.6927,1.0614,-23.58,6.54,-3.66
7.1507,-3.0646,-6.4288,0.34208,-2.0916,1.0825,-22.74,6.54,-3.66
7.5048,-4.4402,-7.7636,0.073609,-1.6527,0.96761,-21.0,6.3,-3.72
9.0167,-5.0123,-7.5048,-0.12309,-1.365,0.68234,-20.16,6.12,-3.84
4.8216,-1.4165,-6.5514,-0.12156,-0.86285,0.51374,-18.42,5.94,-4.26
5.0395,-1.3212,-7.3958,-0.021991,-0.60659,0.51985,-17.64,6.0,-4.32
6.5786,-2.261,-8.6353,-0.0045815,-0.78069,0.54184,-16.8,5.94,-4.5
7.5593,-2.6968,-8.9213,-0.029627,-0.46151,0.52931,-16.14,6.06,-4.5
5.7205,-2.833,-6.8238,0.064752,-0.041844,0.50121,-15.0,6.06,-4.44
5.9521,-3.3778,-6.456,0.067806,0.032987,0.51129,-14.46,6.36,-4.8
5.5435,-3.2144,-6.5378,0.018937,0.067501,0.47709,-13.92,6.42,-4.98
5.1213,-2.3836,-7.2188,0.014355,0.11759,0.44074,-12.96,6.84,-5.34
6.5786,-3.1327,-7.5048,-0.16005,0.076969,0.42791,-12.6,7.02,-5.34
6.1973,-2.8875,-6.9736,-0.17623,0.16035,0.41722,-12.36,7.08,-5.28
6.2245,-2.4108,-6.9328,-0.22022,0.20097,0.32467,-11.88,7.56,-5.28
6.0202,-2.2882,-7.5048,-0.23763,0.21228,0.36408,-11.76,7.68,-5.34
5.7342,-1.0624,-8.1586,-0.24557,0.23854,0.4047,-11.4,7.92,-5.4
6.7693,-1.2258,-8.6353,-0.29383,0.20097,0.36957,-11.16,8.04,-5.52
7.9951,-2.9284,-8.2403,-0.32223,0.13744,0.41203,-10.92,8.28,-5.46
6.0747,-1.7843,-7.8181,-0.2584,0.04612,0.31124,-10.68,8.28,-5.64
6.6876,-0.40861,-8.4174,-0.25473,0.048258,0.055283,-10.38,8.76,-6.24
6.8374,-2.8194,-8.2403,-0.16921,-0.11912,0.32009,-10.44,8.82,-6.24
7.9951,-0.70826,-7.927,-0.27031,-0.15974,-0.01405,-10.44,8.94,-6.24
8.826,-1.4301,-7.0962,-0.26603,-0.31918,-0.19823,-10.26,9.24,-6.3
7.0962,-2.2882,-6.9872,-0.20159,-0.43891,-0.16432,-10.08,9.3,-6.42
6.9191,-1.58,-6.7012,-0.18448,-0.38026,-0.33842,-9.9,9.42,-6.48
8.0632,-0.31327,-7.3141,-0.14966,-0.36377,-0.38454,-9.78,9.3,-6.3
7.7227,-1.1713,-7.0417,-0.04215,-0.5568,-0.29932,-9.6,9.48,-6.42
6.7148,-0.58567,-7.1779,-0.073304,-0.69639,-0.41722,-9.6,9.48,-6.24
6.8374,-2.0294,-7.0553,-0.04215,-0.56658,-0.40592,-9.66,9.6,-6.0
5.0668,-1.0624,-7.2596,0.015882,-0.70188,-0.3091,-9.6,9.54,-5.76
5.1894,-1.9613,-7.5321,-0.097433,-0.78007,-0.32681,-9.42,9.6,-5.52
6.2517,-2.7241,-7.1098,-0.1347,-0.7981,-0.36469,-9.36,9.36,-5.04
6.3879,-3.0918,-8.0632,-0.1912,-0.7929,-0.51832,-9.36,9.3,-4.8
3.2416,-1.0215,-7.1507,-0.12492,-0.8885,-0.47892,-9.24,9.18,-4.2
4.6854,-0.61292,-7.3005,0.000611,-0.33384,-0.49816,-9.24,8.94,-4.08
6.6467,-2.0567,-8.0224,-0.016188,-0.31032,-0.47678,-9.24,8.88,-3.78
7.2324,-2.1112,-7.1234,0.10354,-0.42302,-0.51924,-9.3,8.76,-3.36
4.9306,-0.95342,-7.0962,0.1463,-0.42608,-0.5003,-9.18,8.46,-2.94
5.884,-1.8932,-7.8862,0.10385,-0.45326,-0.36102,-9.3,8.22,-2.58
6.9736,-2.7377,-8.1586,0.13347,-0.29444,-0.21961,-9.3,7.86,-1.92
6.7148,-2.3427,-7.2188,0.065057,-0.38179,-0.34239,-9.24,7.68,-1.68
4.6445,-2.3427,-6.7421,0.090408,-0.32498,-0.28527,-9.3,7.62,-1.5
4.6718,-2.1793,-7.1779,0.10049,-0.19884,-0.31521,-9.48,7.44,-1.32
5.993,-2.6015,-7.3822,0.020769,-0.17043,-0.3036,-9.66,7.08,-0.84
3.8954,-1.5936,-6.9872,0.13011,-0.0018326,-0.27428,-9.72,6.84,-0.66
4.9442,-2.1248,-8.0088,0.073304,0.07025,-0.24893,-9.9,6.66,-0.42
6.1564,-3.4732,-8.322,-0.057116,-0.15944,-0.20525,-10.02,6.42,-0.18
3.4459,-2.2746,-6.7148,0.041539,0.12523,-0.19364,-10.2,6.18,0.18
3.2008,-1.9341,-7.1371,0.12217,0.22358,-0.13317,-10.26,5.88,0.3
4.699,-2.5061,-7.8317,0.14233,0.17837,-0.072998,-10.62,5.76,0.42
5.5707,-2.6696,-8.1586,0.10751,0.21136,-0.096517,-10.8,5.52,0.54
4.9306,-2.9829,-8.1722,0.14233,0.16188,-0.013134,-10.8,5.4,0.66
4.2904,-2.9965,-8.1858,0.20739,0.26725,0.030238,-10.92,5.16,0.6
5.4481,-3.1327,-8.036,0.04612,0.25565,-0.031765,-11.16,5.04,0.78
3.8273,-2.5334,-7.7364,0.064752,0.31521,0.093768,-11.34,4.98,0.9
4.4402,-2.4653,-8.1313,-0.0058032,0.40195,0.019548,-11.52,4.92,0.9
4.9987,-3.3506,-8.0905,-0.011301,0.31062,0.1124,-11.88,4.98,1.02
5.1213,-1.7706,-7.6683,-0.038179,0.52229,-0.010385,-12.0,4.86,0.96
6.8238,-3.0782,-8.4038,-0.10232,0.49175,0.062308,-12.24,4.86,0.84
5.4481,-2.0567,-7.8862,-0.094684,0.36713,0.10843,-12.48,5.04,0.48
5.7342,-2.2201,-8.7715,-0.11729,0.47678,0.12431,-12.66,5.1,0.36
7.069,-2.4653,-8.2539,-0.025962,0.41722,0.11912,-12.66,5.04,0.12
4.1542,0.28603,-7.3686,0.15944,0.70616,0.19395,-13.02,5.34,-0.3
7.1915,-0.92618,-8.5808,0.14478,0.59162,0.12065,-13.2,5.34,-0.66
8.4174,-1.2531,-8.6625,0.1347,0.21105,0.096822,-13.38,5.46,-0.9
6.7285,0.095342,-7.9543,0.080023,0.26267,-0.081245,-13.86,5.76,-1.5
6.3198,0.39499,-7.2324,0.13928,0.1912,-0.084605,-14.1,5.82,-1.8
7.0553,-0.081722,-8.0632,0.072998,-0.019853,-0.16616,-14.34,5.94,-2.04
8.8532,-0.91256,-7.9815,-0.057421,-0.33598,-0.31368,-14.64,6.0,-2.64
6.3471,-0.36775,-6.7557,0.013744,-0.19945,-0.37538,-14.94,6.06,-2.82
8.5944,-1.6344,-7.7364,-0.0051924,-0.38698,-0.55497,-15.42,6.18,-3.0
8.1177,-1.3893,-7.0281,-0.078191,-0.71441,-0.61209,-15.6,6.06,-3.12
2.8603,0.76274,-6.9191,0.081551,-0.23854,-0.67989,-15.72,6.0,-3.24
5.8567,-1.1169,-7.8045,-0.059559,-0.37354,-0.7535,-15.9,6.06,-3.18
6.7012,-2.0567,-7.4503,-0.024129,-0.71013,-0.62186,-16.2,5.88,-3.36
4.0044,-1.076,-6.5514,-0.0039706,-0.38301,-0.78038,-16.26,5.82,-3.36
5.6388,-3.0101,-6.2381,-0.020464,-0.34667,-0.62522,-16.38,5.64,-3.18
7.9679,-4.2904,-7.9951,-0.15974,-0.59682,-0.61636,-16.5,5.34,-3.12
4.808,-3.4051,-5.9521,-0.14355,-0.41478,-0.72601,-16.5,5.16,-3.12
1.2258,-1.6344,-5.7478,0.023824,-0.11759,-0.58002,-16.5,4.92,-3.12
6.4833,-2.4108,-9.2755,-0.11668,0.072082,-0.56352,-16.56,4.44,-3.0
8.3765,-3.228,-8.1313,-0.17929,-0.096211,-0.50702,-16.5,4.02,-3.06
3.5685,-1.2531,-7.4912,0.064752,0.20311,-0.38454,-16.5,3.72,-3.12
5.4345,-2.7649,-8.2539,0.15058,0.029016,-0.2813,-16.44,3.18,-2.94
5.2847,-2.5061,-8.5536,0.11606,0.26542,-0.12004,-16.38,2.94,-2.88
5.3392,-2.2882,-8.1995,0.10965,0.40653,-0.11362,-16.5,2.76,-2.94
4.3994,-2.1248,-6.7966,0.18815,0.31093,0.030849,-16.44,2.28,-2.94
3.0237,-1.4846,-7.5048,0.24496,0.40103,0.081551,-16.56,2.1,-2.94
6.7421,-2.6968,-9.0984,0.051924,0.18601,0.0012217,-16.62,1.86,-3.18
4.1542,-2.1929,-7.5457,0.073915,0.11545,0.041539,-16.5,1.44,-3.54
3.5685,-1.58,-7.1915,0.075747,0.43891,0.043371,-16.56,1.26,-3.66
4.2223,-1.3893,-7.5048,0.11332,0.46365,0.010079,-16.5,1.2,-3.66
5.5299,-1.2395,-8.2131,-0.071166,0.42028,-0.14905,-16.68,1.08,-3.78
7.5593,-2.2882,-8.2948,-0.11454,0.19181,-0.1631,-16.8,1.02,-4.02
7.2596,-2.3427,-7.5593,-0.097738,0.15974,-0.08491,-16.74,1.08,-4.08
6.5378,-1.6344,-7.355,-0.068417,0.30024,-0.07025,-16.86,1.02,-4.38
4.6582,0.20431,-7.3686,0.007025,0.35003,0.063225,-16.92,1.08,-4.86
7.6683,-0.31327,-9.1529,-0.033292,0.28191,0.13256,-16.86,1.02,-4.98
8.0496,-1.1169,-8.9349,-0.071777,0.16677,0.32926,-16.86,1.08,-5.28
6.456,-1.58,-8.1313,-0.078496,0.50793,0.45998,-16.92,1.26,-5.58
7.6002,-2.5061,-8.2267,-0.15272,0.29871,0.4496,-16.86,1.5,-5.76
6.8374,-1.8932,-7.3414,-0.048258,0.33537,0.45693,-16.92,1.62,-5.82
3.5549,0.8036,-6.7557,0.028711,0.44013,0.44471,-16.92,1.86,-6.18
5.2711,0.40861,-7.8317,0.14172,0.41875,0.59865,-16.86,1.74,-6.3
7.1915,-0.8036,-9.3572,-0.040623,0.13164,0.61789,-16.74,1.92,-6.48
6.9328,-0.49033,-6.1564,0.061392,0.13256,0.49022,-16.62,2.28,-6.72
3.4732,-0.21793,-6.2381,0.17837,0.31704,0.60873,-16.62,2.52,-6.9
11.468,-3.4732,-8.431,-0.16493,-0.71563,0.44899,-16.62,3.18,-7.08
4.018,-0.31327,-6.8647,-0.10476,-0.49847,0.32834,-16.56,3.42,-7.14
5.0259,-0.76274,-7.1915,-0.13683,0.020159,0.24923,-16.26,3.72,-7.2
8.826,-2.6832,-8.2131,-0.18295,-0.39523,0.35125,-16.2,4.02,-7.14
9.1529,-1.7434,-9.2482,-0.28222,-0.39218,0.17776,-16.02,4.26,-7.08
6.4016,-0.38137,-6.7421,-0.12095,-0.30574,0.16921,-15.72,4.68,-7.02
4.2495,-0.39499,-7.1915,0.081551,-0.085521,0.42852,-15.54,4.98,-7.02
7.9815,-1.2531,-8.2676,0.066584,-0.26817,0.34208,-15.3,5.46,-6.9
8.1313,-2.7377,-9.3844,0.06689,-0.30452,0.38149,-15.24,5.88,-6.96
9.4661,-3.4459,-9.398,-0.12859,-0.58124,0.26542,-15.12,6.24,-6.96
4.3721,-1.7706,-6.4697,-0.000916,-0.25137,0.25565,-15.06,6.54,-6.96
6.4833,-1.5663,-7.1234,0.017104,-0.32559,0.15944,-14.76,6.96,-6.66
7.641,-1.866,-7.6683,0.0033598,-0.52473,0.17593,-14.7,7.14,-6.54
5.9249,-1.185,-7.3686,-0.018631,-0.59529,0.10812,-14.46,7.32,-6.18
5.1894,-1.1577,-7.2188,0.04215,-0.50732,0.13042,-14.52,7.68,-6.0
5.8295,-1.8932,-7.6819,-0.043677,-0.51129,0.15088,-14.22,7.74,-5.82
6.1155,-2.6696,-7.4095,-0.095295,-0.52748,0.1631,-14.16,7.92,-5.58
3.732,-1.9205,-6.9736,-0.053145,-0.47159,0.13806,-13.98,8.1,-5.04
5.7342,-3.2825,-7.6683,-0.080329,-0.52351,0.13592,-13.98,8.1,-4.74
5.2575,-1.4165,-7.5048,-0.09896,-0.47525,-0.0079412,-13.68,8.34,-4.2
4.0861,-0.19068,-6.3879,0.065668,-0.26603,-0.030238,-13.62,8.34,-3.72
5.3119,-1.1577,-8.4446,-0.030543,-0.28405,-0.034514,-13.5,8.34,-3.42
9.9973,-3.909,-9.507,-0.31185,-0.59162,-0.24068,-13.38,8.28,-3.0
2.7649,-0.054481,-5.7614,-0.11179,-0.28039,-0.40989,-13.2,8.28,-2.22
4.5764,-2.3291,-7.2188,-0.027184,-0.065363,-0.29169,-13.14,8.16,-1.86
8.826,-4.6309,-9.3572,-0.18601,-0.67653,-0.20342,-13.08,7.98,-0.96
3.7047,-1.3757,-7.1915,-0.030238,-0.32803,-0.40317,-13.14,7.86,-0.66
3.1599,-1.58,-7.069,0.10965,-0.11087,-0.2642,-13.2,7.74,-0.24
5.0259,-2.1656,-8.54,0.22419,-0.281,-0.052534,-13.26,7.5,0.18
5.6933,-1.7298,-8.0224,0.18418,-0.24496,-0.18295,-13.14,7.38,0.96
4.2223,-0.83084,-7.4367,0.31368,-0.097738,-0.10629,-13.14,7.26,1.26
5.5299,-2.7104,-8.7987,0.096822,-0.33567,-0.14264,-13.32,7.02,1.62
5.0123,-3.1735,-6.674,0.061087,-0.34117,-0.21228,-13.44,6.72,2.16
4.0316,-3.5277,-6.1428,0.13683,-0.038485,-0.04215,-13.56,6.66,2.46
4.304,-3.6775,-6.851,0.16371,-0.17501,-0.0073304,-13.62,6.54,2.76
5.2847,-3.2961,-8.4719,0.20708,-0.14539,0.033903,-13.8,6.42,3.12
5.4481,-3.3778,-8.7579,0.083383,-0.031765,-0.059559,-13.74,6.48,3.3
4.413,-2.7786,-7.7636,0.095906,-0.0015272,-0.065668,-13.68,6.48,3.42
4.1542,-1.8932,-7.5048,0.12065,0.082161,-0.11148,-13.68,6.18,3.72
4.7399,-1.9613,-7.6546,0.17746,0.14997,-0.15699,-13.8,6.3,3.96
4.9306,-2.4517,-8.0088,0.11576,0.018326,-0.18295,-13.86,6.24,3.96
6.1564,-3.4596,-8.8532,-0.06689,-0.069028,-0.30513,-14.16,6.18,3.9
4.7671,-3.5549,-7.8045,-0.099266,-0.023518,-0.29658,-14.22,6.12,4.02
3.9227,-2.5742,-8.1858,-0.019548,0.13317,-0.2642,-14.28,6.24,4.02
5.094,-1.5391,-7.9679,0.0045815,0.11576,-0.29902,-14.28,6.18,4.08
6.0611,-1.7025,-8.2812,0.096211,0.14783,-0.28863,-14.4,6.06,4.08
6.17,-1.6072,-8.3765,0.10018,0.13195,-0.28711,-14.4,5.94,3.9
5.4073,-1.6753,-8.4582,0.13347,0.078802,-0.27703,-14.7,5.7,3.84
6.9055,-2.1384,-8.9213,0.011301,0.081856,-0.3204,-14.88,5.58,3.72
4.0997,-1.2803,-6.456,0.13622,0.13897,-0.2361,-15.3,5.34,3.48
5.8023,-2.1248,-8.1313,0.17623,0.17257,-0.23305,-15.48,5.16,3.48
6.9191,-3.051,-8.3493,0.12187,0.032987,-0.281,-15.66,4.98,3.24
5.9793,-2.3972,-7.8317,0.12828,-0.0045815,-0.25595,-15.84,4.86,3.24
6.0474,-2.7104,-8.2812,0.10873,-0.04948,-0.29535,-16.08,4.68,3.0
4.7671,-2.3155,-7.5048,0.18295,-0.097738,-0.25259,-16.26,4.56,2.88
5.9657,-2.6832,-8.1177,0.16127,0.030543,-0.35033,-16.56,4.2,2.52
5.1485,-2.5742,-7.2733,0.16432,-0.0088575,-0.354,-16.74,3.96,2.4
5.2575,-3.0918,-8.0088,0.14203,-0.000611,-0.35797,-16.92,3.9,2.22
7.4776,-3.9635,-7.641,0.091935,-0.1463,-0.50213,-17.04,3.84,2.22
2.1656,-2.0294,-6.8919,0.28924,0.21105,-0.41844,-17.34,3.54,1.86
6.0338,-3.732,-7.8453,0.16493,0.033903,-0.40806,-17.52,3.42,1.74
4.8625,-2.9829,-7.9679,0.07758,0.018021,-0.39981,-17.64,3.3,1.2
6.0611,-3.3234,-7.2869,0.1124,-0.059254,-0.416,-17.7,3.18,1.08
2.5879,-1.8115,-7.1915,0.27306,0.061697,-0.25198,-17.82,3.12,0.84
4.1814,-2.2474,-7.4776,0.25473,0.15455,-0.31796,-17.88,3.12,0.6
7.4776,-3.8954,-8.2403,0.079718,0.12767,-0.33017,-17.94,2.82,0.24
4.7399,-2.4653,-7.0826,0.19914,0.33842,-0.27428,-18.0,2.64,0.24
3.623,-2.3836,-7.4912,0.31612,0.33567,-0.22999,-18.0,2.7,-0.12
6.9736,-3.9908,-8.0769,0.12675,0.0042761,-0.16218,-18.3,2.52,-0.42
3.8273,-1.8796,-7.4912,0.14722,0.45998,-0.0562,-18.24,2.16,-0.6
3.5822,-1.0624,-6.674,0.20525,0.56352,-0.059254,-18.48,2.04,-0.72
4.018,-1.9613,-8.8124,0.14569,0.27397,0.12859,-18.6,1.86,-0.84
7.8589,-3.9227,-9.9565,-0.07758,0.097433,0.068722,-18.9,1.68,-1.14
7.6138,-1.9477,-6.1564,-0.035736,0.21594,-0.026573,-19.08,1.62,-1.14
5.2166,-2.8058,-8.4855,0.29963,0.60079,0.16585,-19.14,1.5,-1.08
7.7091,-2.833,-9.7658,-0.059559,-0.21564,0.018631,-19.5,1.26,-1.44
7.8045,-2.0567,-6.5922,-0.15455,0.3992,-0.10201,-19.74,1.2,-1.62
4.985,-1.4165,-6.2517,0.050702,0.50305,0.19548,-19.98,1.2,-1.74
8.036,-4.0861,-7.5321,-0.080634,-0.12675,0.14019,-20.28,1.32,-1.98
4.522,-3.0782,-6.674,-0.032987,0.02138,0.12492,-20.52,1.2,-2.22
6.1019,-3.0782,-7.7364,-0.12126,0.27733,0.25107,-20.64,1.14,-2.4
5.2166,-1.8796,-7.2324,-0.031765,0.18479,0.33475,-20.82,1.32,-2.7
4.8625,-1.3076,-8.1858,0.014661,0.28436,0.27214,-20.76,1.38,-2.88
5.8023,-1.8251,-8.5944,0.0073304,0.21472,0.2865,-20.82,1.56,-3.12
5.4481,-2.2201,-8.0088,0.0048869,0.39584,0.37965,-20.82,1.62,-3.48
5.9112,-3.0918,-7.6683,-0.022602,0.42211,0.3708,-20.88,1.62,-3.6
6.1836,-2.9011,-6.9736,-0.05681,0.28253,0.41447,-20.82,1.74,-3.78
4.7399,-1.9068,-7.1915,-0.02138,0.30849,0.35064,-20.88,2.04,-3.96
6.2654,-2.9829,-7.7364,-0.072693,0.21686,0.38637,-20.7,2.16,-4.08
5.8023,-2.152,-7.641,-0.12889,0.30391,0.4835,-20.7,2.46,-4.32
7.1915,-2.7649,-8.3493,-0.19151,0.23396,0.35675,-20.76,2.46,-4.38
7.641,-3.3778,-7.5593,-0.23488,0.03543,0.32498,-20.52,2.7,-4.86
3.9227,-1.5936,-7.4095,-0.072082,0.12584,0.30085,-20.4,3.0,-5.04
7.0145,-2.3699,-8.4582,-0.065057,0.090713,0.25748,-20.34,3.3,-5.28
8.7306,-2.2474,-8.7987,-0.21472,-0.012828,0.22694,-20.34,3.42,-5.28
6.9191,-2.0839,-7.2052,-0.086437,0.07086,0.28069,-20.28,3.48,-5.34
6.4833,-2.3563,-7.2869,-0.0097738,-0.059559,0.24465,-20.16,3.72,-5.34
7.4912,-3.3642,-7.0145,-0.025351,-0.09499,0.32132,-20.04,3.84,-5.4
5.8023,-2.9965,-7.8589,-0.040012,-0.13195,0.30482,-19.68,4.2,-5.64
5.6252,-2.5742,-7.3277,-0.058643,-0.28253,0.25779,-19.44,4.32,-5.76
5.8704,-2.942,-8.5944,-0.081245,-0.26817,0.26389,-19.44,4.5,-5.7
6.8374,-3.4187,-7.8045,-0.16952,-0.38454,0.19059,-19.38,4.5,-5.7
5.3664,-2.7513,-8.1177,-0.034514,-0.25565,0.19364,-19.14,4.92,-5.7
7.1507,-3.9635,-7.927,-0.14416,-0.39401,0.1295,-19.08,4.92,-5.4
5.2983,-2.547,-7.3958,-0.12981,-0.40256,0.11179,-18.9,4.98,-5.28
5.4618,-2.2474,-7.0826,-0.01405,-0.36163,0.028711,-18.54,5.46,-5.1
5.4073,-2.1929,-7.246,0.027184,-0.3204,0.097433,-18.42,5.64,-5.04
6.674,-2.4108,-7.9679,-0.018021,-0.32712,0.068111,-18.36,5.88,-4.98
7.7364,-4.2768,-8.1041,-0.19609,-0.57482,-0.038485,-18.06,5.82,-4.86
4.0316,-2.4789,-7.7091,-0.11576,-0.41172,-0.055894,-17.76,6.18,-4.5
6.0611,-2.4789,-7.6819,-0.16371,-0.28741,-0.073915,-17.7,6.24,-4.2
6.279,-3.0646,-7.8317,-0.16218,-0.36011,-0.057421,-17.46,6.24,-3.66
5.7342,-3.1872,-7.9679,-0.18723,-0.49144,-0.1066,-17.4,6.18,-3.48
5.4345,-3.4187,-7.4503,-0.19975,-0.37568,-0.16616,-17.28,6.18,-3.12
5.1894,-2.9284,-8.0905,-0.089797,-0.23915,-0.098044,-16.92,6.0,-2.52
6.3607,-3.1872,-7.6546,-0.16432,-0.26695,-0.1237,-16.8,5.88,-2.22
5.094,-2.3018,-6.8783,-0.1066,-0.22816,-0.13531,-16.62,5.76,-1.86
5.8976,-3.7592,-7.9407,-0.07086,-0.30116,-0.064446,-16.62,5.28,-1.26
6.0202,-3.2553,-7.7364,-0.057421,-0.22877,-0.088575,-16.44,5.16,-1.02
4.7671,-1.7706,-7.0553,0.036957,-0.13622,-0.071777,-16.2,4.62,-0.3
5.7614,-2.5742,-7.8998,0.058032,-0.077274,-0.025045,-16.02,4.26,0.36
7.3141,-3.2144,-8.1995,-0.029627,-0.219,-0.03543,-16.08,3.96,0.66
6.3062,-3.3642,-7.641,-0.10599,-0.27336,-0.14325,-15.9,3.66,1.14
3.8273,-1.0896,-7.0553,-0.022907,-0.32773,-0.16554,-15.84,3.54,1.56
4.8761,-1.7706,-7.7227,0.049786,-0.023213,-0.12859,-16.02,3.36,1.74
7.7636,-3.9227,-8.6762,-0.14661,-0.34972,-0.16463,-16.08,3.18,2.1
4.7399,-1.7025,-7.246,-0.032376,-0.26603,-0.23885,-16.14,3.24,2.58
4.699,-2.3018,-7.246,0.040623,-0.14111,-0.15608,-16.44,3.24,2.76
5.8295,-3.2416,-8.1177,0.035736,-0.26878,-0.14722,-16.56,3.18,3.06
5.2575,-1.3076,-7.7364,0.000305,-0.22938,-0.32834,-16.62,3.06,3.18
5.3528,-1.8932,-7.8998,0.07086,-0.13897,-0.29383,-16.56,3.0,3.3
5.884,-2.9148,-8.2539,0.0051924,-0.36591,-0.33109,-16.68,2.94,3.66
6.5514,-4.2495,-8.322,-0.19395,-0.28924,-0.49663,-16.68,2.7,3.84
4.0316,-3.228,-6.2926,-0.10934,-0.32101,-0.49999,-16.5,2.7,3.96
3.8682,-2.3972,-7.7091,0.042455,-0.10751,-0.39187,-16.56,2.7,4.02
6.1155,-2.7649,-8.3493,0.011606,-0.075442,-0.40012,-16.38,2.22,4.14
5.2847,-3.2144,-8.3493,0.072082,-0.14783,-0.33353,-16.26,2.22,4.32
4.6173,-3.1191,-7.5048,0.14844,-0.094684,-0.26756,-16.26,1.98,4.38
5.0259,-3.3778,-7.8862,0.20892,0.017715,-0.21197,-16.26,1.62,4.38
5.4073,-3.4323,-8.0496,0.18387,-0.0042761,-0.24435,-16.32,1.5,4.5
4.6854,-2.7786,-7.0009,0.22571,0.094073,-0.26145,-16.32,1.38,4.5
5.4209,-3.7728,-7.7636,0.25015,0.13775,-0.23702,-16.32,1.02,4.5
4.8216,-3.3915,-6.96,0.13806,0.072693,-0.32834,-16.56,0.72,4.38
4.8625,-3.0918,-7.3958,0.16707,0.14416,-0.3262,-16.56,0.6,4.32
5.1485,-3.9771,-7.641,0.11301,0.10782,-0.26573,-16.68,0.36,4.2
4.9987,-4.2087,-7.641,0.055283,0.03207,-0.27733,-16.68,0.3,4.08
3.8001,-2.5334,-7.5593,0.10293,0.24221,-0.31154,-16.98,0.12,3.6
5.4754,-3.3778,-8.8805,0.13134,0.22571,-0.23335,-16.92,0.12,3.3
5.4754,-3.5004,-7.7908,0.048564,0.045509,-0.22266,-17.04,0.12,3.24
4.5764,-2.2474,-8.1177,0.13836,0.1295,-0.24221,-17.04,-0.24,2.88
6.0611,-3.3778,-8.4719,0.14905,-0.06353,-0.20678,-17.16,-0.12,2.64
5.0395,-1.9886,-7.8589,0.197,0.1069,-0.25107,-17.04,-0.12,2.46
6.0883,-2.0431,-8.0905,0.23671,0.11637,-0.21533,-17.22,-0.3,2.1
6.6059,-3.1327,-8.2539,0.20311,-0.054978,-0.20495,-17.16,-0.3,1.68
5.6524,-2.5742,-8.0632,0.13134,-0.099266,-0.26145,-17.22,-0.36,1.38
4.413,-1.2803,-7.6138,0.17013,0.090713,-0.24038,-17.22,-0.36,1.56
5.489,-2.0839,-8.0632,0.097738,0.036346,-0.1744,-17.22,-0.54,1.44
7.246,-2.8875,-8.0224,-0.03543,0.0015272,-0.25809,-17.16,-0.54,1.2
6.2381,-2.1929,-7.4776,-0.0094684,0.0039706,-0.38759,-17.28,-0.66,1.2
6.674,-2.656,-7.8862,-0.017715,-0.22694,-0.38637,-17.34,-0.78,1.2
5.4754,-2.3155,-7.7227,-0.026878,-0.30635,-0.37385,-17.28,-0.78,1.14
4.7944,-1.5391,-7.9679,0.010079,-0.067195,-0.42333,-17.1,-1.02,1.14
5.8567,-2.0158,-8.2948,0.010079,-0.15272,-0.35155,-17.16,-1.08,1.14
5.1894,-1.7434,-7.8045,0.057727,-0.12034,-0.35033,-17.16,-1.26,1.08
5.5435,-2.9011,-8.4991,0.043066,-0.10843,-0.32223,-17.1,-1.5,1.14
4.6037,-1.7025,-6.9736,0.10629,-0.085216,-0.29138,-17.16,-1.86,0.96
5.2847,-2.5742,-7.7364,0.14722,0.06353,-0.23488,-17.28,-2.1,1.02
4.8897,-2.3836,-7.0553,0.13683,-0.016493,-0.12004,-17.34,-2.04,1.32
6.0202,-3.5413,-8.2267,-0.002138,-0.082772,-0.10934,-17.28,-2.28,1.38
4.9033,-1.5527,-6.6604,-0.0079412,-0.1179,-0.16524,-17.46,-2.46,1.62
3.6503,-1.8387,-7.246,0.091019,0.0079412,-0.059254,-17.7,-2.58,1.62
5.4481,-2.4789,-7.641,0.029627,-0.2532,-0.050702,-17.76,-2.58,1.8
5.5162,-2.5198,-8.8941,0.11576,-0.065668,0.095295,-17.94,-2.7,2.16
6.9872,-2.6287,-8.8941,-0.0082467,0.0039706,-0.000916,-17.94,-2.7,2.16
5.5162,-2.6696,-7.6683,0.069333,-0.14905,0.043371,-17.94,-2.76,2.34
4.9987,-2.152,-8.2131,0.11729,-0.11729,0.0073304,-17.82,-2.64,2.16
4.3449,-1.5119,-7.4776,0.16157,-0.076358,-0.029016,-17.82,-2.4,2.22
5.884,-2.3155,-8.7443,0.11209,0.016188,0.099266,-17.76,-2.4,2.1
6.6059,-2.3155,-7.8726,0.03543,-0.01405,-0.0079412,-17.52,-2.1,1.92
6.0202,-2.0567,-7.4776,0.097433,-0.1066,-0.034208,-17.34,-2.04,1.98
5.4345,-2.4517,-7.8998,0.073915,-0.22755,-0.042455,-16.86,-1.98,2.04
5.7205,-2.4517,-8.0905,0.043371,-0.097433,-0.057421,-16.98,-1.98,1.98
5.6661,-2.6015,-8.3765,0.019242,-0.20586,-0.011606,-16.8,-1.68,1.92
5.8023,-3.6094,-7.8726,0.0015272,-0.32345,-0.091019,-16.8,-1.56,1.98
3.5413,-2.0839,-7.5865,0.11118,-0.13714,-0.088575,-16.56,-1.38,2.04
6.96,-3.8409,-9.112,-0.03146,-0.22174,-0.079412,-16.32,-1.5,1.98
5.2166,-3.5685,-7.4912,-0.0058032,-0.31154,-0.1405,-16.2,-1.26,1.98
2.5606,-1.4982,-7.0281,0.18173,-0.11057,-0.11912,-16.08,-1.2,2.1
4.6445,-1.7979,-8.2267,0.15516,-0.079412,-0.03543,-15.9,-1.2,2.34
6.5105,-3.514,-8.5127,-0.058338,-0.12859,0.019853,-15.84,-1.02,2.34
3.9227,-2.7377,-7.5457,-0.093462,-0.16127,-0.073915,-15.6,-0.96,2.34
3.5413,-3.5277,-7.4776,-0.035736,-0.20311,0.034514,-15.3,-1.02,2.4
4.7263,-1.866,-7.9679,-0.06017,0.1066,0.059254,-15.12,-0.96,2.46
5.6388,-2.0703,-8.7851,-0.065363,0.071471,0.029627,-15.06,-0.96,2.52
6.2517,-3.4596,-8.5944,-0.080634,-0.18998,0.027184,-15.06,-0.72,2.64
4.985,-2.6423,-7.8998,-0.032987,-0.14661,-0.055894,-15.06,-0.96,2.76
5.6661,-2.4244,-7.9951,-0.012828,-0.052229,-0.071777,-14.94,-1.08,3.0
5.4618,-2.1112,-7.4776,0.030238,-0.054367,-0.031765,-15.06,-1.02,2.94
5.203,-1.5391,-7.927,0.12889,0.023518,-0.018631,-15.24,-1.08,2.88
7.6819,-3.1872,-8.4582,-0.039706,-0.15363,-0.09499,-15.42,-1.08,3.06
6.9191,-3.4051,-8.6762,-0.087354,-0.23763,-0.14325,-15.48,-1.2,3.48
5.9657,-2.5742,-7.1234,-0.011606,-0.29138,-0.25779,-15.72,-1.2,3.48
4.4811,-1.5663,-7.4776,0.21777,-0.07086,-0.17685,-15.96,-1.26,3.9
9.1665,-3.9227,-9.0303,-0.05284,-0.3149,-0.33078,-16.14,-1.44,4.14
6.4424,-1.9341,-7.5184,-0.1741,-0.48503,-0.49083,-16.26,-1.44,4.38
3.3642,-1.3212,-7.5593,0.064446,-0.16554,-0.44532,-16.32,-1.5,4.68
6.6195,-3.0237,-7.8589,-0.030543,-0.38362,-0.49297,-16.38,-1.8,4.98
5.4754,-2.4244,-8.322,0.018631,-0.30727,-0.54428,-16.56,-2.04,5.46
4.4266,-1.8524,-6.7829,-0.059559,-0.41447,-0.58613,-16.38,-2.1,5.58
3.2961,-1.6889,-7.0281,0.16646,-0.40012,-0.49755,-16.62,-2.34,6.0
6.3198,-1.7162,-9.1937,0.16127,-0.25076,-0.50977,-16.56,-2.64,6.54
5.1213,-1.7706,-7.2869,0.14844,-0.28527,-0.48594,-16.86,-3.12,6.72
6.5105,-2.8058,-8.0632,0.16127,-0.22358,-0.57421,-16.98,-3.42,7.08
6.9328,-3.7047,-7.5593,0.08094,-0.47983,-0.5846,-17.1,-3.6,7.26
5.1485,-3.2144,-7.7091,0.058032,-0.53603,-0.6072,-17.1,-3.96,7.32
5.1213,-2.2882,-8.4174,0.06353,-0.26389,-0.62492,-17.22,-4.26,7.62
5.3119,-2.3427,-7.8045,0.050702,-0.21808,-0.63225,-17.04,-4.62,7.8
5.5162,-2.547,-8.0905,0.075747,-0.28986,-0.62339,-17.16,-5.04,8.04
3.9227,-2.0567,-7.6002,0.1182,-0.20311,-0.60353,-17.16,-5.16,8.04
5.6116,-2.6832,-8.4719,0.060476,-0.23824,-0.67134,-17.1,-5.58,8.16
4.413,-1.6617,-7.6002,0.20128,-0.034819,-0.59743,-16.86,-5.94,8.34
5.4618,-2.2882,-7.5593,0.20892,0.023824,-0.61331,-16.8,-6.24,8.4
5.2438,-4.522,-7.8589,0.17257,-0.14019,-0.54886,-16.68,-6.66,8.4
2.8875,-2.833,-6.6331,0.15455,-0.044593,-0.489,-16.74,-6.9,8.58
3.6094,-2.7513,-8.7443,0.25259,0.16402,-0.43097,-16.62,-7.08,8.7
7.7364,-4.522,-8.8805,0.032376,0.098044,-0.5342,-16.62,-7.26,8.64
2.2337,-1.7298,-7.1371,0.25565,0.2416,-0.38454,-16.74,-7.62,8.76
4.6718,-3.0237,-9.1665,0.27978,0.2587,-0.32956,-16.74,-7.8,8.82
5.8023,-4.8761,-9.1529,0.10721,0.0048869,-0.2923,-16.74,-8.16,8.64
3.7184,-3.2825,-7.6955,0.15974,0.39034,-0.28314,-16.98,-8.58,8.34
2.8467,-1.975,-6.9055,0.30513,0.35186,-0.15547,-16.92,-8.82,8.28
3.7728,-2.7377,-9.0575,0.31062,0.31948,-0.051924,-17.04,-8.82,8.28
5.5707,-3.0646,-8.2812,0.17837,0.32101,-0.098655,-17.22,-9.12,7.86
2.2882,-1.4029,-6.6195,0.4328,0.58582,0.000916,-17.4,-9.06,7.74
6.6195,-3.3778,-9.1393,0.34575,0.37171,0.029627,-17.46,-9.0,7.74
5.9385,-3.1054,-7.8726,0.12431,0.17593,-0.07025,-17.76,-9.12,7.38
6.279,-3.514,-7.7364,0.060476,0.37721,-0.042455,-17.82,-9.06,7.2
5.6797,-3.2825,-7.4503,0.10873,0.084299,-0.012217,-18.12,-9.06,6.96
6.0611,-3.051,-9.3436,0.016188,0.15974,-0.055589,-18.42,-9.12,6.42
6.7421,-3.1327,-8.8668,-0.11515,0.17257,-0.046731,-18.42,-9.0,6.12
3.9908,-1.4438,-8.8941,0.067501,0.30329,0.03146,-18.6,-9.12,5.88
5.993,-2.8058,-8.6217,0.0054978,0.22724,0.0094684,-18.6,-8.82,5.58
4.8488,-1.076,-7.2733,0.013439,0.21625,-0.026878,-18.72,-8.76,5.34
5.2711,-1.2258,-8.6898,0.14447,0.1799,0.062919,-18.78,-8.82,5.1
7.4776,-2.6968,-7.7364,0.065057,-0.12309,0.018631,-19.02,-8.46,4.92
4.9578,-2.8194,-7.5865,0.16005,0.050091,0.052229,-19.08,-8.46,4.74
4.9306,-2.6423,-7.7636,0.13775,-0.14264,0.043066,-19.02,-8.52,4.38
5.1213,-1.5527,-7.3141,0.12767,-0.053145,0.073304,-18.96,-8.58,4.14
5.1485,-0.55843,-7.7772,0.14813,0.20831,0.016799,-19.02,-8.52,4.08
5.8704,-1.0624,-7.7091,0.12737,-0.044593,0.039095,-19.08,-8.58,3.84
6.3198,-2.5061,-6.7693,-0.15424,-0.3146,-0.044899,-18.9,-8.4,3.72
3.4459,-1.5255,-6.8374,-0.017715,0.020464,-0.13683,-18.84,-8.4,3.72
4.9306,-2.833,-7.5593,-0.065973,-0.33934,0.012523,-18.84,-8.34,3.54
4.1678,-0.76274,-7.4503,-0.038485,0.019548,-0.079718,-18.72,-8.16,3.48
5.0668,-1.0079,-8.2948,0.017104,0.039095,-0.06353,-18.72,-8.22,3.54
7.3958,-2.7513,-8.5808,-0.032987,-0.23121,0.017104,-18.6,-8.16,3.54
5.5162,-1.9341,-8.0088,0.028405,0.043066,-0.061392,-18.48,-8.16,3.3
6.7421,-2.9556,-8.6489,-0.044899,-0.22571,-0.065057,-18.42,-8.22,3.3
4.8352,-3.1599,-7.7091,-0.029932,-0.27367,-0.045509,-18.42,-8.28,3.3
6.0883,-2.2065,-7.8317,-0.036041,-0.1066,-0.14478,-18.54,-8.16,3.48
4.9578,-1.3893,-7.6002,0.076358,-0.13134,-0.047647,-18.48,-8.4,3.48
6.0066,-2.9556,-8.826,-0.044593,-0.26939,0.011301,-18.3,-8.16,3.72
7.069,-3.9908,-7.8589,-0.0085521,-0.17349,-0.039095,-18.3,-8.4,3.9
3.8137,-1.2122,-8.0905,0.25565,0.030238,-0.026267,-18.36,-8.52,3.96
8.826,-4.1133,-9.507,0.040928,-0.31612,0.026267,-18.18,-8.58,3.96
3.2961,-2.0431,-7.3005,0.007025,-0.34056,0.014355,-18.06,-8.64,4.14
3.2416,-0.95342,-7.1507,0.25748,-0.099266,-0.057116,-17.94,-8.58,4.32
4.7263,-2.4789,-7.1098,0.27184,-0.16249,0.10415,-17.88,-8.52,4.5
6.4424,-2.9011,-8.2131,0.07422,-0.097433,0.077274,-17.76,-8.7,4.86
5.38,-3.7047,-7.7227,0.023518,-0.34147,0.055589,-17.76,-8.64,4.92
4.0044,-4.4539,-8.322,-0.082467,-0.48228,0.07025,-17.76,-8.7,5.04
2.6015,-2.5061,-7.3277,-0.07758,-0.22877,0.029627,-17.34,-8.64,5.34
4.3721,-1.4029,-8.0224,0.09896,-0.021075,0.049175,-17.34,-8.52,5.4
5.8704,-2.2746,-8.6081,0.10415,0.028405,0.088575,-17.22,-8.7,5.52
5.2166,-3.1599,-8.0905,0.068417,-0.11057,0.058338,-17.16,-8.58,5.82
4.3449,-2.6968,-6.9872,0.13683,-0.12462,0.038179,-17.04,-8.58,5.94
4.6718,-2.9556,-8.4582,0.10171,0.023518,0.07422,-16.98,-8.4,6.36
7.0962,-3.5685,-8.0905,-0.090103,-0.1292,0.010996,-16.98,-8.52,6.54
3.7865,-1.4165,-6.7012,0.094073,-0.15027,0.012828,-17.04,-8.58,6.54
3.7047,-2.261,-8.1586,0.15852,-0.058643,0.057727,-17.1,-8.58,6.6
7.0009,-5.3119,-9.5615,-0.21869,-0.25107,-0.067806,-17.04,-8.58,6.6
4.3177,-1.7979,-7.5457,-0.021991,-0.065057,-0.18448,-16.86,-8.64,7.08
5.3937,-2.7649,-8.7443,0.07086,-0.23121,-0.20525,-16.74,-8.58,7.14
4.8625,-2.9692,-8.2812,0.093157,-0.13561,-0.22633,-16.74,-8.76,7.44
6.0883,-1.9477,-8.4446,0.10476,0.03146,-0.32895,-16.8,-8.76,7.74
6.3335,-3.6775,-8.1041,0.033598,-0.28955,-0.30268,-16.8,-8.82,7.62
4.4402,-3.8682,-6.8102,0.15669,-0.28069,-0.29291,-16.62,-8.94,7.8
3.9908,-2.2474,-8.2812,0.3091,0.1912,-0.17532,-16.74,-9.0,8.1
5.8159,-3.4051,-7.4912,0.063835,-0.1628,-0.16341,-16.86,-9.06,8.34
6.565,-2.8875,-9.0848,0.054062,0.20647,-0.33475,-16.86,-9.24,8.7
5.9249,-4.7671,-7.0281,-0.20678,-0.40134,-0.40256,-16.92,-9.18,8.7
1.4301,-3.1599,-6.4016,0.033598,-0.18021,-0.36896,-16.86,-9.36,8.88
3.5277,-4.2359,-8.1858,-0.067501,0.052534,-0.38026,-16.8,-9.42,9.12
3.3506,-1.7706,-7.0145,0.081551,0.072998,-0.30604,-16.74,-9.66,9.12
6.1292,-2.0294,-9.4389,0.093462,0.077274,-0.39767,-16.86,-9.66,9.24
5.8704,-4.0861,-7.3141,-0.1127,-0.21961,-0.47892,-16.86,-10.02,9.3
1.1986,-0.84446,-6.9736,0.32926,0.35186,-0.27336,-16.74,-10.2,9.24
4.3585,-2.3155,-8.3765,0.29199,0.31826,-0.28955,-16.62,-10.32,9.42
6.7693,-3.9499,-7.5048,0.016799,-0.0085521,-0.31796,-16.8,-10.32,9.3
5.0123,-2.3836,-7.8045,0.066279,0.21655,-0.31185,-16.86,-10.68,9.12
5.5707,-2.9148,-7.927,0.032681,0.059865,-0.31551,-16.92,-10.86,9.0
6.4152,-4.5764,-8.3901,-0.041233,-0.11576,-0.25779,-16.92,-11.16,8.88
5.0259,-3.7047,-7.2596,-0.040623,0.080634,-0.41325,-16.92,-11.46,8.94
3.1599,-3.2144,-7.5729,0.070555,0.078191,-0.32803,-16.92,-11.52,8.76
5.1485,-3.1599,-8.4446,0.038485,0.27153,-0.32742,-17.04,-11.76,8.58
7.0417,-3.2144,-7.927,-0.062003,0.20617,-0.43127,-17.16,-12.12,8.58
3.1463,-1.9341,-6.6876,0.28069,0.21228,-0.23396,-17.16,-12.24,8.4
3.5822,-1.757,-8.5808,0.39279,0.2645,-0.22419,-17.28,-12.42,8.34
5.0804,-2.7649,-7.0009,0.17135,0.1573,-0.2248,-17.34,-12.78,8.22
5.5571,-2.8875,-7.8862,0.16585,0.24343,-0.17929,-17.46,-12.96,8.16
5.8976,-3.1191,-7.7227,0.14294,-0.087965,-0.1408,-17.4,-13.02,8.1
4.9578,-2.8739,-6.5514,0.23671,0.083078,-0.14203,-17.34,-12.96,8.1
6.4833,-3.6366,-8.431,0.064752,0.10965,-0.15149,-17.22,-13.08,7.86
6.7829,-4.2632,-7.9679,-0.037874,-0.022602,-0.19487,-17.16,-13.26,7.62
5.4073,-2.2882,-7.4503,-0.048869,-0.072693,-0.28344,-17.34,-13.2,7.26
2.5742,-0.83084,-7.0281,0.052534,0.000916,-0.35277,-17.34,-13.44,7.26
2.7241,-1.3212,-7.6138,0.1573,0.15149,-0.10904,-17.28,-13.5,7.2
9.4934,-4.1542,-8.7579,-0.1518,0.10293,-0.19914,-17.28,-13.56,6.9
6.17,-1.7706,-5.8159,-0.066279,0.1124,-0.24526,-17.34,-13.62,6.72
2.9692,-0.38137,-8.0905,0.219,0.065668,-0.30421,-17.46,-13.56,6.54
8.3493,-4.5901,-7.2869,-0.14905,-0.28436,-0.208,-17.52,-13.56,6.36
5.4481,-1.9477,-7.6683,-0.10049,0.049786,-0.20067,-17.64,-13.5,6.24
6.1292,-3.051,-7.9815,-0.043677,-0.1518,-0.3259,-17.58,-13.62,6.12
2.0567,-1.7025,-7.246,0.17929,-0.045815,-0.12156,-17.52,-14.04,5.94
5.775,-3.8682,-9.5479,-0.031154,0.097433,-0.12767,-17.46,-14.16,5.94
8.1722,-3.5958,-8.1177,-0.029932,0.19364,-0.067501,-17.4,-14.52,5.76
4.9987,-3.909,-9.1393,0.14111,-0.000916,0.076969,-17.28,-14.58,5.94
7.1098,-4.0589,-7.6546,0.14019,-0.081245,0.10263,-17.16,-14.46,5.82
1.471,-0.35413,-6.7421,0.24832,0.22938,0.16432,-17.16,-14.46,5.82
7.4503,-3.8137,-8.4174,0.04215,0.085521,0.28283,-17.16,-14.64,5.64
5.3119,-2.5334,-7.2596,0.014355,0.093768,0.28405,-17.28,-14.7,5.88
4.9306,-2.152,-6.9872,0.029322,0.18937,0.25656,-17.28,-14.64,5.82
4.6037,-2.3018,-7.3414,0.062614,0.11454,0.25962,-17.16,-14.52,5.7
6.3607,-3.0918,-9.2891,0.051313,0.18387,0.24587,-17.04,-14.64,5.64
8.4446,-4.413,-8.7306,-0.16188,0.0030543,0.22938,-17.1,-14.58,5.58
3.8954,-2.2882,-6.9736,-0.010079,-0.041233,0.23976,-17.1,-14.22,5.46
3.5822,-2.1656,-7.5729,0.074831,0.007025,0.24404,-17.1,-14.22,5.46
6.0474,-3.2961,-8.7987,-0.0051924,0.21991,0.30971,-17.1,-13.92,5.64
6.8238,-2.4789,-6.9872,-0.026878,0.099571,0.25015,-17.16,-13.62,5.58
4.3313,-1.866,-7.2869,0.15974,-0.043677,0.18173,-17.28,-13.44,5.58
5.1894,-3.2825,-8.1586,0.11729,-0.059865,0.23335,-17.28,-13.2,5.46
7.3958,-5.1894,-8.6081,-0.14966,-0.17929,0.30788,-17.22,-12.9,5.4
3.0237,-0.5993,-6.7693,0.095906,-0.025351,0.14508,-16.86,-12.54,5.28
5.5435,-2.2201,-9.3163,0.12339,-0.10812,0.21166,-16.74,-12.3,5.1
7.5457,-3.0646,-8.1177,-0.1741,-0.11301,0.24099,-16.62,-12.12,5.04
2.942,-2.4108,-7.4095,-0.0054978,-0.17623,0.08827,-16.5,-11.76,4.98
3.8273,-2.6423,-7.3141,0.018631,0.0051924,0.19334,-16.44,-11.52,4.98
4.8488,-3.2553,-8.145,-0.16677,-0.014966,0.19914,-16.38,-11.34,4.98
5.4754,-2.7377,-7.0826,-0.19945,-0.14966,0.10751,-16.56,-10.98,4.92
4.6037,-2.7104,-7.9407,-0.024435,-0.11729,0.058338,-16.5,-10.74,4.74
5.4481,-2.4108,-7.0962,-0.080023,-0.027794,0.11301,-16.32,-10.5,4.62
5.203,-2.9011,-7.8998,0.029627,-0.027184,0.10018,-16.26,-10.44,4.62
7.3414,-3.9771,-8.0769,-0.12859,-0.13897,0.012217,-16.14,-10.5,4.8
6.0883,-3.0782,-7.9815,-0.1182,-0.17043,-0.0082467,-16.14,-10.44,5.04
4.808,-2.2882,-7.464,-0.14722,-0.17898,-0.12492,-16.14,-10.32,5.16
3.9771,-3.0237,-7.8726,0.029932,-0.12095,-0.03207,-16.14,-10.32,5.46
5.7614,-3.8818,-7.4912,-0.16371,-0.13256,-0.11454,-16.14,-10.26,5.64
4.0589,-1.6753,-6.6331,-0.0061087,-0.12339,-0.13989,-16.26,-10.14,6.0
4.4539,-2.8058,-7.6002,0.12126,0.018937,-0.041539,-16.26,-10.26,6.24
6.2245,-4.2768,-8.431,0.013439,-0.11637,-0.045509,-16.2,-10.26,6.48
5.6797,-2.1112,-6.8374,0.02474,-0.0562,-0.13622,-16.14,-10.26,6.66
4.7944,-3.3778,-8.1722,0.041233,-0.034514,-0.019548,-16.14,-10.38,6.96
5.8704,-4.6445,-6.5105,-0.1179,-0.058643,-0.062919,-16.14,-10.5,7.14
5.8159,-3.7592,-8.7034,-0.025656,0.058338,-0.10751,-16.14,-10.5,7.5
5.0531,-3.8818,-7.3141,-0.12462,-0.10201,-0.13164,-16.26,-10.5,7.56
2.9148,-2.5061,-6.5514,0.13683,0.066584,-0.077274,-16.32,-10.56,7.56
5.884,-3.5822,-9.0031,0.029932,0.15058,-0.062003,-16.26,-10.68,7.74
5.3937,-2.5742,-6.9464,-0.0079412,-0.0048869,-0.11118,-16.5,-10.8,7.68
4.7535,-5.2302,-9.1393,0.10965,0.16616,-0.10446,-16.56,-10.92,7.8
3.1191,-1.6208,-5.8976,-0.14264,-0.22419,-0.088575,-16.5,-11.04,7.8
3.1191,-1.6208,-5.8976,-0.011912,-0.13042,-0.10476,-16.5,-11.04,7.8
5.7478,-3.228,-6.6876,-0.2251,-0.032376,-0.15669,-16.5,-10.98,7.5
5.7478,-3.228,-6.6876,-0.071471,0.063835,-0.146,-16.5,-10.98,7.5
5.1213,-3.3915,-9.1256,-0.053451,0.085521,-0.18173,-16.56,-11.1,7.5
5.094,-3.3778,-7.246,-0.060476,0.090713,-0.13561,-16.8,-11.1,7.5
6.0883,-2.8739,-8.3765,-0.015577,0.20769,-0.12828,-17.1,-11.28,7.26
7.1234,-4.2495,-7.6138,-0.069639,0.21686,-0.17196,-17.1,-11.28,7.08
5.2847,-3.7456,-7.641,0.057116,-0.036041,-0.10018,-17.1,-11.34,6.9
5.775,-3.6094,-7.8317,0.048564,0.16952,-0.1576,-17.16,-11.28,6.6
4.7671,-2.5061,-7.4503,0.11942,0.19853,-0.090408,-17.16,-11.28,6.54
5.9249,-3.3506,-8.3357,0.10751,0.15944,-0.055283,-17.28,-11.4,6.18
5.5571,-2.7922,-7.6683,0.0281,0.15852,-0.11942,-17.4,-11.58,6.0
3.2553,-1.7025,-6.8374,0.16768,0.17562,-0.048564,-17.4,-11.76,5.94
6.9191,-3.9908,-8.1586,-0.0067195,0.23182,-0.050091,-17.76,-11.94,5.76
5.7205,-4.1542,-6.7829,-0.020159,0.10599,0.039095,-17.88,-11.94,5.7
4.3177,-2.9284,-7.0553,0.041844,0.135,-0.04215,-17.82,-12.0,5.46
6.96,-5.3392,-7.0553,-0.11942,-0.091935,-0.0094684,-17.82,-11.94,5.22
3.9771,-1.7298,-7.6955,0.037874,0.25168,-0.12859,-17.76,-12.0,5.1
6.4424,-3.1054,-8.4582,0.13958,0.23732,-0.0956,-17.82,-11.94,4.92
7.5048,-4.0997,-8.0769,-0.025962,0.16524,-0.048564,-18.0,-11.94,4.86
7.1507,-3.5413,-7.6819,-0.0281,0.12187,-0.076358,-18.06,-12.06,4.74
5.9249,-3.4459,-7.0962,-0.029627,-0.037568,-0.21502,-18.3,-12.06,4.44
4.1951,-1.8387,-6.8102,0.046426,0.076664,-0.1518,-18.24,-12.18,4.38
6.4424,-4.304,-8.0224,-0.11454,-0.000611,-0.099266,-18.42,-12.0,4.2
6.5241,-2.9284,-6.565,-0.15638,0.033292,-0.12126,-18.42,-12.06,4.02
3.7047,-1.185,-7.0962,-0.014355,-0.024435,-0.19364,-18.3,-12.12,3.9
4.9169,-2.656,-7.5184,-0.047647,-0.18723,-0.064446,-18.48,-12.18,3.84
5.6661,-2.8058,-8.5808,-0.091324,0.11454,0.13378,-18.36,-12.3,3.78
7.8045,-3.7865,-7.8726,-0.14355,0.11698,0.068722,-18.3,-12.42,3.66
5.8976,-1.8932,-6.9328,0.14569,-0.13286,0.080023,-18.6,-12.48,3.48
7.0962,-4.4811,-8.8941,-0.037874,-0.17623,0.16677,-18.48,-12.66,3.48
6.1564,-2.4517,-7.8998,-0.07025,-0.069028,0.1408,-18.48,-12.72,3.48
3.7456,-1.2667,-6.5786,0.1912,0.040928,0.1631,-18.54,-12.66,3.54
6.6467,-3.5004,-8.2403,0.10232,-0.09499,0.18173,-18.42,-12.48,3.54
7.9679,-3.1599,-7.6274,-0.1347,-0.11545,0.1628,-18.42,-12.36,3.54
5.4754,-3.1735,-7.3414,-0.062308,-0.089186,0.073915,-18.12,-12.3,3.36
4.2904,-2.8739,-6.3471,-0.002138,-0.26939,0.17318,-18.0,-12.18,3.42
3.1599,-1.6889,-6.8238,0.06017,-0.11637,0.1689,-18.06,-12.06,3.48
6.3607,-2.8467,-9.2346,0.0067195,0.068722,0.14539,-17.94,-12.0,3.42
6.674,-2.6015,-7.7908,-0.10751,-0.22724,0.12828,-18.12,-11.82,3.36
3.8818,-2.7513,-7.4095,0.0094684,-0.24221,0.083689,-18.24,-11.76,3.48
5.0531,-3.8818,-7.2596,-0.025045,-0.20372,0.2474,-18.18,-11.58,3.6
7.246,-4.1814,-7.5184,-0.14875,-0.041844,0.11973,-18.12,-11.34,3.84
5.6797,-2.547,-7.3958,-0.025045,-0.11759,0.053145,-18.0,-11.34,3.96
4.4402,-2.4925,-7.0145,0.073609,-0.15485,0.15211,-17.94,-11.16,3.9
5.0259,-3.3778,-7.0553,0.014355,-0.036346,0.17868,-17.7,-10.98,4.32
5.5026,-3.2689,-7.6138,0.032681,-0.0079412,0.20892,-17.76,-10.92,4.44
6.5922,-4.5764,-8.6625,-0.073609,-0.15791,0.25198,-17.76,-10.92,4.74
2.5742,-1.5391,-7.4095,0.000305,-0.092852,0.28039,-17.88,-10.74,5.1
2.6696,-1.3484,-8.1858,0.12706,0.06017,0.31704,-17.82,-10.68,5.28
4.4811,-2.9284,-8.6898,-0.039095,-0.038485,0.46487,-17.7,-10.56,5.46
5.0531,-4.6854,-7.9815,-0.16738,-0.16341,0.4273,-17.4,-10.32,5.7
2.261,-2.6287,-7.069,0.033292,-0.027184,0.42577,-17.22,-10.08,5.76
3.9363,-3.7592,-9.0848,0.0097738,0.1124,0.50885,-17.16,-10.02,5.82
5.0668,-3.4051,-7.1779,-0.24496,0.029322,0.48625,-16.98,-9.72,5.94
4.7535,-3.8001,-7.8862,-0.059865,-0.073304,0.42699,-16.98,-9.48,5.82
5.3664,-4.5083,-7.4503,-0.13561,0.022297,0.33995,-16.98,-9.36,6.06
5.1894,-3.3506,-7.75,-0.12187,0.087965,0.26909,-17.04,-9.3,6.0
5.2575,-2.3018,-7.2733,-0.06017,0.14875,0.19181,-16.92,-9.06,6.0
5.993,-4.2632,-8.1858,-0.090408,-0.047037,0.17043,-16.98,-8.94,5.88
6.4152,-6.3471,-7.9407,-0.39615,-0.19059,0.030849,-16.98,-8.64,6.0
2.2337,-1.0488,-6.2381,-0.066584,0.14569,0.076358,-16.98,-8.46,6.06
3.8001,-1.1169,-7.464,0.12339,0.44074,0.21197,-17.04,-8.34,6.18
5.9112,-3.8954,-8.6353,-0.026267,0.35644,0.22419,-17.22,-8.4,6.24
6.2926,-4.6582,-7.5593,-0.40806,-0.208,-0.11729,-17.46,-8.28,6.3
3.5549,-2.7649,-7.1234,-0.18204,-0.16524,-0.081551,-17.58,-8.16,6.48
6.4288,-3.3778,-9.3163,0.084299,0.19548,0.067195,-17.64,-8.22,6.72
7.7364,-4.127,-8.5127,-0.26909,0.002138,-0.12859,-17.64,-8.34,7.14
4.7944,-4.0044,-7.1371,-0.11484,-0.30818,-0.094379,-17.64,-8.4,7.2
3.8546,-2.3427,-7.5321,0.015882,0.038485,-0.1124,-17.7,-8.34,7.32
5.2983,-1.9613,-7.8862,-0.051924,0.068417,-0.11423,-17.82,-8.4,7.5
6.0474,-2.833,-6.851,-0.07758,-0.10751,-0.18937,-18.06,-8.46,7.68
5.8431,-3.7184,-7.4367,-0.079412,-0.29474,-0.27061,-18.06,-8.52,7.74
5.4073,-2.7786,-7.7091,-0.1127,-0.23213,-0.29871,-18.18,-8.7,7.74
6.5514,-3.337,-8.0905,-0.17654,-0.14447,-0.35888,-18.12,-8.76,7.74
5.6252,-2.7922,-7.1371,-0.16005,-0.22083,-0.40195,-18.06,-8.82,7.68
5.2166,-3.2416,-7.6683,-0.092546,-0.23427,-0.39798,-18.12,-9.06,7.74
4.6445,-2.547,-7.5321,-0.0281,-0.15547,-0.38607,-18.06,-9.3,7.86
7.5593,-3.6639,-8.1858,-0.096211,-0.11606,-0.42608,-18.06,-9.48,7.62
3.8273,-2.1248,-6.851,0.031154,-0.20678,-0.43433,-18.24,-9.78,7.62
3.9227,-3.0918,-7.9951,0.13195,-0.15821,-0.3094,-18.24,-9.96,7.56
5.1076,-4.413,-7.4776,0.089186,-0.12675,-0.26695,-18.24,-10.2,7.62
5.993,-3.4596,-9.3163,0.029627,-0.015272,-0.33964,-17.76,-10.5,7.68
3.8001,-1.4165,-6.456,0.070555,-0.032376,-0.36499,-17.64,-10.56,7.62
3.2689,-3.1599,-7.6002,0.22938,-0.034819,-0.1573,-17.64,-10.8,7.74
5.7342,-5.5571,-7.8998,-0.0085521,0.067806,-0.16921,-17.52,-11.1,7.92
4.7671,-3.7592,-6.9872,0.01741,0.047342,-0.20861,-17.28,-11.34,7.92
3.7184,-2.7241,-7.4095,0.10751,0.16096,-0.2303,-17.22,-11.46,8.04
4.1814,-3.8818,-6.8374,0.054367,-0.027489,-0.14966,-17.04,-11.76,8.04
3.0646,-2.9148,-7.927,0.1909,0.21625,-0.087354,-17.04,-11.88,7.92
5.2847,-4.6582,-8.6353,0.053756,0.10812,-0.06017,-16.98,-12.0,7.98
3.909,-2.2201,-7.5321,0.16096,0.20861,-0.14203,-16.8,-12.0,7.86
4.5628,-2.6015,-8.1858,0.22907,0.17654,-0.10018,-16.8,-12.0,7.8
4.9578,-3.1191,-7.7091,0.17776,0.11454,-0.044899,-16.8,-12.18,7.62
5.3256,-4.9578,-7.9543,0.025351,0.087354,0.051924,-16.98,-12.12,7.44
3.9908,-2.0839,-5.8295,0.12126,0.20403,-0.021991,-17.28,-12.18,7.32
3.2825,-0.8036,-7.8045,0.31551,0.43249,-0.094379,-17.22,-12.18,7.26
7.355,-3.4459,-7.0281,0.0039706,0.19426,-0.013134,-17.28,-12.12,6.96
4.3721,-2.2201,-7.5729,0.09896,0.33109,-0.031154,-17.58,-12.06,6.72
5.5707,-4.0725,-8.5808,0.043677,0.20922,-0.04948,-17.64,-11.88,6.54
6.7829,-3.4051,-6.5105,-0.040623,0.13408,-0.075442,-17.76,-11.82,6.48
4.2495,-1.8524,-8.4991,0.027794,0.26328,-0.1518,-17.82,-11.64,6.3
6.565,-4.127,-8.5263,-0.10415,-0.094379,0.037568,-18.0,-11.52,6.12
5.1757,-2.8739,-9.3436,-0.053756,0.014355,0.097128,-18.18,-11.46,5.94
6.4288,-2.4789,-7.7772,-0.090103,0.054672,0.0085521,-18.24,-11.4,5.88
4.2904,-1.5527,-7.2188,0.020159,-0.043371,0.11332,-18.24,-11.4,5.82
4.9987,-2.656,-9.5479,-0.15852,-0.061697,0.061392,-18.24,-11.46,5.76
6.0611,-3.2008,-5.8023,-0.1295,-0.099266,0.11332,-18.12,-11.64,5.7
2.9284,-1.471,-7.0553,0.14386,0.066279,0.17013,-18.24,-11.58,5.58
7.3414,-4.1951,-7.2324,-0.077274,-0.1799,0.092852,-18.3,-11.58,5.52
5.1349,-2.5061,-7.2052,-0.076358,0.051924,0.1066,-18.24,-11.46,5.58
4.9306,-2.3972,-7.5729,-0.01069,-0.092852,0.069639,-18.24,-11.58,5.64
4.9306,-3.514,-7.2188,-0.037568,-0.12248,0.17135,-18.36,-11.7,5.46
5.1076,-2.9965,-7.7364,-0.082161,0.12126,0.085521,-18.3,-11.7,5.64
5.8159,-2.9556,-7.5321,-0.04948,0.066279,0.1127,-18.3,-11.52,5.64
4.3858,-2.6423,-7.3005,0.040623,-0.08094,0.17013,-18.42,-11.46,5.64
6.1564,-4.1133,-7.7091,-0.14661,-0.11454,0.15974,-18.3,-11.46,5.46
3.9771,-1.6072,-6.9328,-0.0030543,0.0054978,0.14966,-18.3,-11.22,5.52
4.985,-1.9068,-8.7851,-0.000611,-0.019242,0.14508,-18.12,-11.28,5.58
6.4424,-2.4517,-7.355,-0.12217,-0.040623,0.045509,-18.12,-10.98,5.64
6.279,-4.0589,-8.0905,-0.10965,-0.24557,0.041844,-18.12,-11.04,5.64
5.5435,-4.304,-7.5184,-0.14936,-0.36682,0.043066,-18.06,-11.1,5.64
5.1213,-1.2531,-7.7364,-0.052534,-0.06017,-0.12309,-17.88,-10.98,5.58
6.3471,-2.3155,-8.0905,0.000611,-0.25565,0.036957,-17.82,-10.86,5.7
6.8647,-3.6094,-8.6353,-0.028405,-0.27886,-0.0012217,-17.64,-10.8,5.94
5.7614,-4.7399,-7.7227,-0.16616,-0.49236,-0.12401,-17.28,-10.8,5.88
2.942,-2.6423,-7.1915,-0.012523,-0.33964,-0.054672,-17.22,-10.8,5.94
4.9578,-3.1191,-8.3357,-0.0061087,-0.16066,0.024435,-17.1,-10.8,6.12
4.3994,-2.5742,-7.4095,-0.085827,-0.21564,0.0018326,-16.92,-10.74,6.48
3.909,-2.7649,-7.7636,0.022907,-0.26603,-0.030849,-16.92,-10.8,6.66
4.985,-4.2359,-7.8589,-0.015882,-0.18631,0.016799,-16.74,-10.74,6.84
5.3119,-5.884,-7.4776,-0.11729,-0.23121,-0.0030543,-16.8,-10.8,6.84
3.8682,-2.2882,-7.4231,0.034819,0.013134,-0.07422,-16.56,-10.74,7.08
3.8682,-2.2882,-7.4231,-0.01741,-0.18112,0.033292,-16.56,-10.74,7.08
3.8682,-2.2882,-7.4231,0.036041,-0.020464,-0.052229,-16.56,-10.74,7.08
4.6037,-2.6151,-8.1858,0.0018326,0.065363,-0.03879,-16.44,-10.68,7.32
5.4481,-3.7456,-6.5786,-0.033903,0.034514,-0.067501,-16.38,-10.74,7.5
5.5162,-4.0997,-8.0088,-0.048869,-0.0562,-0.031154,-16.38,-10.92,7.74
5.0123,-3.7592,-7.3822,-0.085216,-0.10629,-0.085521,-16.32,-11.04,7.98
4.8216,-4.0725,-9.5206,-0.0094684,-0.050091,-0.0082467,-16.44,-11.22,8.34
5.0804,-3.0373,-7.9951,-0.12187,-0.058032,-0.12309,-15.9,-11.58,8.64
3.0237,-1.58,-7.3822,0.14478,0.04612,-0.04215,-15.78,-11.76,8.88
5.6524,-3.3234,-8.8124,0.035125,0.0079412,-0.043677,-15.42,-11.94,9.0
6.2109,-2.9556,-8.2539,-0.044288,-0.021075,-0.14722,-15.48,-12.3,9.24
4.8352,-1.7706,-7.0962,0.068111,0.002138,-0.15577,-15.54,-12.42,9.24
5.2438,-3.5004,-7.6683,0.095906,-0.03879,-0.064752,-15.66,-12.66,9.42
5.6116,-3.4051,-6.9191,-0.083078,-0.16463,-0.057727,-15.72,-12.9,9.42
5.4345,-3.4051,-8.5808,-0.078191,-0.0036652,-0.11576,-15.84,-12.9,9.42
6.3471,-4.5764,-7.8862,-0.19426,-0.23549,-0.1689,-15.96,-12.9,9.42
3.2689,-1.2531,-7.355,0.015577,-0.018326,-0.23366,-16.32,-12.78,9.3
3.8001,-1.0351,-7.4776,0.10324,0.15302,-0.18143,-16.5,-12.84,9.42
5.9249,-4.127,-7.8726,-0.093462,-0.12034,-0.23579,-16.74,-12.66,9.24
5.3119,-2.7241,-8.6081,-0.062614,-0.064141,-0.3656,-16.68,-12.6,9.18
4.5492,-2.7649,-7.2869,0.022297,-0.064446,-0.29077,-16.62,-12.6,9.24
5.8295,-3.4051,-8.9758,0.1295,-0.024435,-0.17837,-16.68,-12.78,9.12
6.279,-2.8603,-7.8726,-0.064141,0.013439,-0.24404,-16.62,-12.84,9.06
5.0259,-3.0237,-7.3822,0.029932,-0.14875,-0.21411,-16.56,-12.9,8.88
5.0259,-2.4925,-7.6683,0.01741,0.022602,-0.23427,-16.5,-12.96,8.88
5.2847,-2.3972,-7.6546,0.039706,0.11851,-0.26023,-16.44,-13.08,8.94
5.7478,-3.8273,-7.4095,0.020769,0.036652,-0.25015,-16.5,-13.26,8.76
5.1349,-4.0044,-7.8045,0.0018326,-0.090103,-0.28008,-16.62,-13.38,8.82
5.1621,-4.2632,-7.641,-0.0064141,0.000611,-0.26267,-16.56,-13.5,8.76
5.2166,-3.7728,-8.0088,0.0048869,0.093157,-0.29352,-16.56,-13.68,8.64
5.203,-3.6775,-7.5865,0.031154,-0.012523,-0.24435,-16.62,-13.8,8.7
4.3858,-2.8194,-7.7908,0.11484,0.15119,-0.22419,-16.62,-13.8,8.7
3.8818,-1.362,-6.9328,0.16829,0.24404,-0.22541,-16.68,-14.04,8.52
5.3528,-3.1054,-8.7715,0.065668,0.1518,-0.19884,-16.68,-14.16,8.58
8.431,-6.4152,-8.826,-0.10446,-0.053451,-0.18173,-16.74,-14.16,8.52
4.127,-4.1814,-6.2517,0.12523,0.13378,-0.18326,-16.8,-14.34,8.46
4.8352,-3.2144,-7.7636,0.12767,0.28008,-0.20006,-16.8,-14.58,8.4
6.0611,-3.0237,-8.1995,-0.0082467,0.27367,-0.089797,-16.8,-14.64,8.28
6.7421,-2.4517,-7.9951,-0.057421,0.25687,-0.33414,-16.8,-14.94,8.1
4.9169,-3.3097,-6.9464,-0.0036652,0.069639,-0.30085,-16.8,-15.0,7.92
4.3313,-2.8875,-7.7227,-0.020159,0.24343,-0.28344,-16.92,-15.06,7.74
6.0202,-3.0918,-8.2131,-0.1576,0.21411,-0.32773,-16.86,-15.18,7.62
4.8352,-2.9284,-7.8589,-0.044288,0.23335,-0.21838,-16.92,-15.36,7.26
7.1234,-3.4187,-7.8862,-0.16921,0.1292,-0.24282,-16.98,-15.6,7.08
3.5958,-2.2474,-7.4503,-0.11851,0.057116,-0.17196,-16.86,-15.96,6.96
5.6933,-2.0567,-8.1177,-0.067195,0.15058,-0.10415,-16.74,-16.08,6.84
5.7205,-1.9613,-7.9815,-0.073915,0.18876,-0.12401,-16.86,-16.26,6.78
5.7069,-2.1248,-7.9679,-0.045815,0.16646,-0.064752,-16.8,-16.32,6.72
6.5105,-2.6423,-8.0632,-0.04948,-0.084605,-0.096211,-17.04,-16.56,6.48
6.2517,-3.2144,-8.5672,-0.053451,-0.083994,0.010996,-17.22,-16.68,6.3
4.2359,-1.8387,-7.355,0.073304,-0.010996,0.078191,-17.34,-16.92,6.24
5.9249,-1.6753,-8.5808,0.060476,0.032376,0.11148,-17.58,-17.28,6.12
7.1234,-2.4517,-8.3084,-0.044899,-0.007025,0.099571,-17.58,-17.4,6.12
5.4754,-0.77636,-7.0553,0.10324,0.064752,0.086437,-17.7,-17.52,6.12
5.6661,-3.3097,-8.4855,0.071471,-0.087048,0.18845,-17.64,-17.64,6.12
8.1313,-3.8954,-7.5457,-0.10782,-0.197,0.23427,-17.58,-17.64,6.06
3.4732,-1.9341,-7.1643,0.016799,0.10751,0.18418,-17.64,-17.58,6.0
5.1894,-2.5606,-7.5457,0.10721,-0.14569,0.19517,-17.64,-17.4,6.06
7.0962,-2.6968,-8.7715,-0.040012,-0.083383,0.16585,-17.58,-17.4,5.94
7.4776,-2.4244,-8.54,-0.072082,-0.081856,0.051313,-17.58,-17.46,5.94
3.6775,-2.1384,-7.069,0.069944,-0.16066,0.16768,-17.28,-17.34,5.76
5.5571,-2.261,-8.1858,-0.0088575,-0.06017,0.16249,-17.28,-17.28,5.88
7.4503,-3.337,-8.5808,-0.12401,-0.059254,0.17807,-17.16,-16.92,5.82
4.699,-2.5742,-7.2052,0.014355,-0.11148,0.14478,-16.8,-16.56,5.88
4.7399,-2.3018,-7.8589,0.062614,-0.17654,0.1576,-16.8,-16.5,5.94
6.7693,-3.1599,-8.2131,0.0058032,-0.17929,0.20983,-16.8,-16.26,5.94
4.304,-1.6072,-7.1371,0.065363,-0.11087,0.14416,-16.74,-16.26,5.88
5.8159,-2.9284,-7.6819,0.075136,-0.12156,0.18967,-16.8,-16.08,6.06
6.4969,-4.3994,-8.4174,-0.023213,-0.24648,0.26664,-16.8,-16.02,6.18
3.5413,-2.2882,-6.7693,-0.14966,-0.21625,0.14966,-16.98,-15.9,6.12
2.9965,-2.9284,-7.6002,0.09499,-0.1408,0.26634,-16.86,-15.72,6.18
5.5707,-4.304,-8.7851,0.022907,-0.15272,0.34147,-16.8,-15.66,6.3
6.4969,-4.5901,-8.3084,-0.065668,-0.15577,0.197,-16.8,-15.48,6.42
3.4187,-1.7162,-7.4503,0.13806,-0.033598,0.12767,-16.62,-15.12,6.6
5.7478,-3.6094,-8.3901,0.12675,-0.067195,0.25748,-16.62,-15.0,6.84
5.1894,-2.6968,-7.0553,-0.0058032,-0.025045,0.23396,-16.74,-14.76,7.08
3.9499,-2.5742,-7.7091,0.14783,0.0085521,0.18815,-16.74,-14.7,7.2
6.1564,-4.3585,-7.1915,0.09499,-0.0036652,0.24709,-16.68,-14.76,7.38
5.4754,-3.1599,-7.6683,-0.0061087,0.044899,0.18448,-16.68,-14.46,7.56
5.1076,-3.9908,-7.3958,-0.080329,-0.071471,0.14691,-16.8,-14.22,7.8
4.3858,-3.9227,-7.5321,-0.047953,-0.097738,0.16982,-16.68,-13.98,7.92
5.4481,-3.4187,-7.927,-0.066279,0.053451,0.15333,-16.74,-13.74,8.22
3.9908,-2.2882,-7.0553,0.051924,0.15821,0.099266,-16.92,-13.68,8.28
5.3528,-3.6639,-8.5263,0.036652,0.13439,0.075442,-16.92,-13.38,8.52
6.5105,-4.6718,-8.5808,-0.12401,-0.056505,0.027794,-16.86,-13.44,8.64
4.3449,-3.3642,-7.641,0.023518,0.026267,0.053756,-16.98,-13.44,8.88
4.1406,-3.1191,-7.0962,0.023213,-0.0048869,0.076969,-16.92,-13.38,9.0
5.0259,-1.3484,-7.1779,0.058032,0.25107,0.043066,-17.1,-13.32,9.06
6.279,-3.2825,-8.54,0.0012217,0.20769,0.0058032,-17.22,-13.26,8.94
6.3743,-4.699,-8.1041,-0.19884,-0.16218,-0.0079412,-17.34,-13.26,8.88
5.4481,-4.413,-7.7091,-0.21502,-0.086437,-0.087965,-17.28,-13.26,8.88
3.4187,-2.1793,-7.5321,-0.03207,0.12126,-0.0064141,-17.34,-13.14,8.88
6.3471,-3.3506,-8.9622,-0.13042,0.085827,-0.031765,-17.4,-13.44,8.76
5.4073,-2.833,-7.5593,-0.11209,0.13164,-0.07422,-17.4,-13.32,8.7
5.2302,-3.3506,-7.8453,0.01405,0.039095,-0.081551,-17.52,-13.56,8.7
5.38,-2.7377,-8.1995,-0.011912,0.06689,-0.13164,-17.7,-13.74,8.76
6.1973,-3.3778,-8.2267,-0.092852,0.014661,-0.14111,-17.82,-13.62,8.7
6.2109,-3.1463,-7.5457,-0.03207,-0.061392,-0.13653,-17.94,-13.68,8.64
4.6718,-2.5198,-7.7772,0.0042761,0.054978,-0.090713,-18.06,-13.8,8.4
6.4697,-4.2223,-8.2812,-0.12675,-0.030849,-0.11851,-18.0,-13.74,8.34
4.0997,-2.2882,-7.0962,-0.02474,0.041233,-0.13531,-17.82,-13.86,8.52
5.3256,-2.9556,-8.0224,0.10049,0.16341,-0.096211,-17.76,-13.8,8.64
6.4697,-4.6445,-8.2539,-0.10568,-0.015272,-0.12889,-17.88,-13.86,8.64
5.2166,-3.4459,-7.7091,-0.02474,-0.047342,-0.14783,-17.76,-13.98,8.46
4.0452,-2.7786,-7.1915,0.043982,0.029322,-0.10171,-17.94,-13.98,8.28
5.8704,-2.942,-8.1177,0.020159,0.19395,-0.10782,-18.0,-14.16,8.22
6.6195,-4.6445,-7.75,-0.048258,0.01741,-0.15669,-17.94,-14.04,8.28
3.6094,-3.3097,-6.4833,0.059865,-0.03543,-0.16402,-17.88,-14.04,7.92
2.7649,-2.4517,-6.7285,0.16646,0.068111,-0.078191,-17.94,-14.04,7.8
7.4367,-3.8273,-7.9679,-0.027794,0.27397,-0.11668,-18.0,-14.04,7.8
5.8295,-3.9908,-6.674,-0.0048869,-0.0281,-0.054367,-18.0,-14.04,7.56
4.4811,-3.7728,-7.5321,0.067195,-0.07086,-0.15974,-17.94,-14.22,7.44
4.4675,-3.5685,-7.3277,0.025656,0.072693,-0.013744,-18.24,-14.34,7.26
6.5786,-3.5413,-8.9213,-0.069639,0.22877,-0.13714,-18.18,-14.46,7.02
7.3822,-3.5822,-7.9679,-0.086437,0.17562,-0.22052,-18.0,-14.46,7.02
4.5764,-2.4108,-7.641,0.032987,-0.024129,-0.25748,-18.0,-14.64,7.14
4.7263,-2.9284,-8.1586,-0.0088575,0.17715,-0.24862,-18.0,-14.64,7.08
5.7886,-3.2553,-6.7557,-0.022297,0.16799,-0.11087,-18.0,-14.64,7.02
5.2983,-2.8058,-7.8453,0.024435,0.19548,-0.088881,-18.12,-14.76,6.78
7.3141,-4.8625,-8.1722,-0.07025,0.050702,-0.030543,-18.12,-14.94,6.78
5.0804,-2.6423,-6.8374,-0.11423,0.0079412,0.08491,-18.12,-15.06,6.72
5.1894,-2.3836,-8.2131,-0.014355,0.11912,-0.0018326,-18.06,-15.18,6.6
7.1371,-4.0589,-7.9951,-0.15149,-0.059865,0.15882,-18.06,-15.3,6.6
6.3062,-2.7786,-7.5729,-0.15333,0.089797,0.025962,-18.0,-15.12,6.48
4.413,-2.9556,-8.0769,0.046426,-0.0956,0.077274,-17.88,-15.12,6.12
6.7693,-3.7592,-8.3901,-0.027794,-0.15577,0.11362,-18.0,-15.06,6.0
6.6876,-1.866,-7.8453,-0.035736,0.17226,-0.013439,-18.06,-15.06,5.88
5.4754,-2.5061,-7.5184,0.11851,-0.029016,0.093768,-18.3,-14.88,5.7
6.9872,-3.7047,-7.5865,-0.015272,-0.094073,0.14752,-18.3,-14.82,5.64
6.2245,-2.4789,-6.7829,-0.028405,0.053756,0.082772,-18.42,-14.82,5.64
5.6661,-3.2961,-8.0224,-0.036652,-0.22235,0.18173,-18.24,-14.7,5.58
6.1836,-3.9908,-7.3686,-0.15455,-0.093157,0.15333,-18.3,-14.58,5.58
4.9987,-2.2337,-7.4503,-0.12828,-0.0562,0.079412,-18.18,-14.52,5.58
5.2166,-2.833,-7.6683,-0.056505,-0.14691,0.13073,-18.24,-14.34,5.64
6.3471,-3.051,-8.4719,-0.13531,-0.098655,0.059254,-18.18,-14.46,5.64
6.0883,-2.5198,-7.5457,-0.12737,-0.067195,-0.010996,-18.3,-14.52,5.64
5.38,-3.5413,-7.8453,-0.020464,-0.18387,0.14233,-18.24,-14.58,5.88
6.7421,-3.7456,-8.1722,-0.065668,-0.087965,0.12217,-18.24,-14.64,5.88
5.6388,-2.8467,-7.246,-0.068722,-0.096822,0.082161,-18.3,-14.82,5.82
4.6445,-2.2337,-7.355,0.066279,-0.068111,0.17318,-18.18,-14.82,5.82
6.2109,-2.4517,-7.7091,0.030849,-0.0027489,0.14966,-17.94,-14.82,6.06
6.6876,-4.2495,-7.7091,-0.063225,-0.14813,0.19578,-17.88,-14.64,5.94
4.7944,-3.0373,-7.3414,-0.065057,-0.17013,0.1069,-17.88,-14.64,6.0
5.7478,-3.6639,-7.5184,-0.08491,-0.1179,0.040928,-17.64,-14.58,5.94
4.7535,-1.9068,-7.7364,-0.042761,-0.15394,-0.012217,-17.64,-14.46,6.0
5.5843,-3.5549,-9.1256,-0.18418,-0.24923,-0.044899,-17.52,-14.34,6.0
3.7592,-2.833,-7.3822,-0.07422,-0.21869,-0.032987,-17.4,-14.16,6.0
3.4732,-2.4789,-8.2812,0.044899,-0.17929,0.069944,-17.22,-14.1,5.94
5.4754,-2.5742,-7.4776,-0.0562,0.0051924,0.094684,-17.16,-14.04,6.0
4.5628,-2.2474,-8.0224,0.025656,-0.22205,0.064141,-16.86,-13.92,6.3
4.8625,-3.5685,-7.7772,-0.08491,-0.25626,0.12309,-16.62,-13.86,6.54
4.4675,-3.4323,-7.2869,-0.082161,-0.11484,0.1576,-16.56,-13.74,6.48
4.7399,-2.5061,-7.6683,-0.061392,-0.015272,0.089492,-16.5,-13.62,6.54
5.7478,-3.8001,-7.2052,-0.13073,-0.23305,0.087354,-16.2,-13.68,6.72
4.7126,-3.4187,-8.322,-0.087354,-0.12675,0.04612,-16.14,-13.5,6.9
5.0531,-3.4868,-7.0553,-0.087048,-0.085216,0.043066,-15.9,-13.44,7.2
5.2983,-3.1599,-8.0905,-0.021686,-0.12065,0.066279,-15.96,-13.5,7.44
6.5105,-3.4732,-8.0632,-0.13408,-0.090713,-0.095295,-15.96,-13.56,7.74
4.7944,-2.261,-7.6955,-0.043371,-0.16188,-0.054367,-15.9,-13.56,7.86
5.3119,-2.6968,-7.7364,-0.038179,-0.02138,0.01069,-15.96,-13.62,8.16
6.2926,-3.8682,-7.2596,-0.10293,0.04215,-0.050702,-16.02,-13.62,8.16
5.1349,-3.3778,-8.0224,-0.072998,-0.19731,-0.10507,-16.08,-13.56,8.34
4.0316,-2.547,-7.9679,-0.031765,-0.091019,-0.071777,-16.26,-13.62,8.4
5.2166,-3.5549,-8.2676,-0.051924,-0.013744,-0.040012,-16.2,-13.68,8.52
4.9987,-3.1054,-7.3822,0.000611,0.036041,-0.047647,-16.32,-13.74,8.58
5.38,-3.1599,-8.0224,0.04612,0.056505,-0.041844,-16.44,-14.04,8.82
5.9249,-4.0589,-7.8862,-0.071166,-0.080329,-0.066279,-16.38,-14.04,9.0
4.0861,-3.6639,-7.8045,-0.10629,-0.085216,-0.12034,-16.62,-14.28,9.0
2.7649,-1.9886,-6.96,0.10354,0.15852,-0.034208,-16.62,-14.34,8.94
6.0338,-3.9635,-8.4719,-0.0097738,0.09499,-0.011301,-16.62,-14.34,9.0
6.279,-3.7047,-8.2131,-0.062919,0.06689,-0.15211,-16.74,-14.34,9.24
4.304,-2.5742,-7.8045,0.023213,0.035736,-0.10599,-16.62,-14.46,9.24
4.9306,-2.2201,-7.8317,0.10171,0.18173,-0.058948,-16.62,-14.4,9.36
5.6388,-3.4868,-8.2403,-0.053451,0.066279,-0.076053,-16.62,-14.34,9.54
4.6173,-1.7162,-7.5593,0.0058032,0.14722,-0.10934,-16.56,-14.28,9.6
5.7069,-2.3836,-7.641,-0.002138,0.099876,-0.049175,-16.62,-14.4,9.72
5.2847,-2.6696,-7.4367,-0.021991,0.10568,-0.06017,-16.56,-14.4,9.72
5.775,-3.2144,-8.0632,-0.015272,0.06353,-0.10446,-16.68,-14.28,9.66
5.5571,-3.2961,-7.8045,-0.01741,-0.0061087,-0.12889,-16.74,-14.34,9.6
4.7944,-1.9886,-7.9679,0.081551,0.060781,-0.12095,-16.92,-14.4,9.6
6.7012,-2.6968,-8.431,0.030849,0.028405,-0.14019,-16.86,-14.4,9.42
5.1485,-3.0237,-7.6002,0.069333,-0.019242,-0.11729,-16.98,-14.4,9.24
5.598,-2.7377,-8.2948,0.030543,0.012523,-0.22602,-16.98,-14.52,9.06
4.985,-3.2825,-7.4095,0.022297,-0.009163,-0.18021,-17.22,-14.52,9.0
6.0474,-3.3097,-7.6138,-0.051618,0.05681,-0.26053,-17.22,-14.58,9.12
5.0531,-3.2144,-7.5593,-0.014355,0.03879,-0.21533,-17.34,-14.7,8.94
5.5843,-3.6639,-7.7091,-0.022602,0.076053,-0.24312,-17.34,-14.82,8.76
5.6661,-4.6445,-8.322,-0.012828,0.03207,-0.19028,-17.4,-14.82,8.7
5.8976,-3.228,-7.0826,0.1127,0.14844,-0.26603,-17.4,-14.82,8.64
5.0395,-3.228,-7.6546,0.01405,0.026573,-0.18265,-17.28,-15.0,8.76
5.5571,-3.4459,-8.0088,0.0073304,0.4102,-0.18509,-17.28,-15.18,8.64
5.094,-3.2144,-7.0553,0.065668,0.23732,-0.2587,-17.16,-15.36,8.7
4.9987,-3.5685,-8.0769,0.12278,0.10782,-0.23763,-17.28,-15.6,8.76
5.4073,-3.5685,-7.0962,0.0097738,0.1405,-0.18754,-17.28,-15.66,8.7
4.8216,-3.8546,-7.5457,0.042761,0.20067,-0.1069,-17.16,-15.66,8.7
5.2166,-2.5742,-7.1915,0.037568,0.24465,-0.16524,-17.04,-16.08,8.34
4.5764,-1.866,-7.4912,0.077885,0.3091,-0.10843,-17.16,-16.2,8.04
5.5571,-2.5198,-8.4174,0.039095,0.25412,-0.068722,-17.1,-16.26,7.92
6.2517,-2.7649,-7.1234,-0.13317,0.14447,-0.041844,-17.22,-16.5,7.62
4.7807,-2.3836,-7.2052,-0.11301,0.23396,-0.091935,-17.28,-16.62,7.44
5.2302,-2.8603,-7.2052,-0.078191,0.095906,-0.067806,-17.28,-16.86,7.14
6.5922,-2.8875,-8.2948,-0.13867,0.16127,-0.05681,-17.52,-16.92,6.72
6.9872,-3.0237,-8.2539,-0.17318,0.0079412,-0.085827,-17.58,-16.92,6.54
4.7671,-1.4982,-7.3958,-0.0956,0.054367,-0.10537,-17.64,-16.92,6.36
5.7205,-1.9613,-8.3765,0.015882,0.12156,0.022602,-17.76,-16.92,6.06
7.2733,-1.757,-8.2948,0.0097738,0.044593,-0.02474,-17.76,-16.98,6.06
6.8374,-2.0022,-8.3629,0.015272,0.016799,-0.016493,-17.94,-17.22,6.0
7.0417,-1.5663,-7.5048,0.098655,-0.069333,0.041844,-17.94,-17.28,6.12
5.5299,-1.8387,-7.8862,0.11729,-0.068417,0.064141,-18.36,-17.34,6.0
8.4174,-3.4596,-8.1858,-0.048564,-0.17532,0.099266,-18.3,-17.34,5.94
5.3937,-1.8796,-6.7693,0.015882,-0.18448,0.012828,-18.36,-17.34,6.0
7.7772,-3.2553,-8.036,0.0042761,-0.20861,0.030543,-18.36,-17.34,6.0
4.3177,-1.2122,-7.0826,-0.027184,-0.17746,0.078191,-18.36,-17.28,6.12
4.8488,-1.6208,-8.322,-0.011912,-0.043066,0.0064141,-18.3,-17.22,6.24
8.0224,-3.3097,-8.145,-0.091019,-0.35644,0.029322,-18.24,-17.16,6.18
4.2632,-1.9477,-7.4095,-0.0042761,-0.14203,0.08827,-18.3,-17.1,6.24
6.9191,-3.5549,-7.8998,-0.051924,-0.31826,0.11179,-18.18,-17.04,6.42
4.0316,-1.7706,-7.069,-0.0073304,-0.23243,0.15088,-17.88,-17.04,6.48
6.4424,-1.4438,-7.5865,0.017104,-0.12462,-0.023518,-17.82,-16.98,6.6
6.0066,-1.2667,-7.0281,0.10599,-0.22113,0.11209,-17.82,-16.86,6.48
6.9872,-3.3506,-8.4174,0.007025,-0.25931,0.17654,-17.28,-16.68,6.72
6.8647,-3.051,-7.5729,-0.086743,-0.21472,0.067501,-17.28,-16.56,6.9
3.8409,-1.8251,-7.3141,0.054062,-0.22235,0.135,-16.8,-16.5,7.14
5.2438,-2.3427,-8.6353,0.056505,-0.16066,0.18204,-16.8,-16.44,7.26
6.7148,-3.5685,-8.431,-0.071777,-0.22022,0.22266,-16.86,-16.44,7.32
4.7399,-3.051,-7.7772,-0.020464,-0.27275,0.15485,-16.68,-16.44,7.62
4.6037,-2.6696,-8.1041,0.009163,-0.14355,0.14264,-16.68,-16.44,7.8
4.4811,-2.6015,-7.4503,0.023213,-0.14386,0.24496,-16.44,-16.56,8.04
6.1564,-3.1327,-8.2676,-0.053756,-0.053756,0.20953,-16.44,-16.38,8.28
5.9249,-4.3585,-7.4776,-0.10873,-0.21564,0.11545,-16.26,-16.26,8.4
4.7944,-3.4596,-7.5865,-0.072082,-0.15302,0.014966,-16.26,-16.2,8.46
4.8216,-3.8409,-7.7772,-0.065668,-0.07758,0.041844,-16.08,-16.14,9.0
4.413,-2.0294,-6.9872,0.031765,0.01069,0.0018326,-16.14,-16.08,9.06
4.7807,-3.0237,-7.9543,0.07422,0.037874,0.090408,-16.14,-16.14,9.24
4.4811,-2.1929,-6.565,0.052229,0.051007,0.1295,-16.26,-16.14,9.6
4.4402,-2.547,-7.9679,0.12645,0.20097,0.25443,-16.26,-16.2,9.72
5.7614,-4.0589,-7.6819,0.041539,0.088881,0.24893,-16.2,-16.14,9.9
5.7614,-4.0997,-7.8862,-0.038485,-0.10476,0.1744,-16.26,-16.14,10.08
4.0316,-3.1191,-7.3958,0.016188,0.054367,0.19395,-16.38,-16.08,10.14
3.9908,-3.2553,-7.5048,0.037263,0.084299,0.13622,-16.44,-15.84,10.26
6.1019,-2.8603,-7.8589,0.019242,0.099571,0.04612,-16.62,-15.78,10.32
4.9306,-3.1327,-7.9679,-0.009163,-0.033598,-0.017104,-16.92,-15.72,10.56
4.7263,-3.3778,-7.7364,-0.040317,-0.054367,-0.037263,-16.92,-15.54,10.68
5.3528,-3.2144,-7.6955,-0.031765,0.18387,0.036041,-17.04,-15.3,10.8
6.5378,-4.2904,-8.0632,-0.10996,0.065668,0.0054978,-16.98,-15.24,10.98
5.4073,-4.1951,-7.4912,-0.087659,-0.053756,-0.016188,-17.1,-15.06,10.92
4.1406,-2.833,-7.4776,0.025045,0.19578,0.064446,-16.98,-14.88,10.86
6.5378,-3.7047,-8.4174,0.025045,0.28466,0.086437,-16.92,-14.88,11.04
6.96,-3.5413,-8.7443,-0.1066,0.0030543,-0.10018,-16.98,-14.88,11.22
3.3097,-1.7025,-7.4095,0.01405,0.020159,-0.039095,-16.98,-15.18,11.1
4.9033,-1.3484,-8.1313,0.10018,0.33353,0.081856,-16.98,-15.24,10.92
8.1177,-4.3177,-8.1177,-0.090103,0.3262,-0.0094684,-17.16,-15.36,10.74
8.1177,-4.3177,-8.1177,-0.18631,-0.11118,-0.1124,-17.16,-15.36,10.74
3.9227,-2.4517,-7.2869,0.047342,0.029932,-0.064141,-17.22,-15.42,10.38
6.3743,-3.5822,-7.8181,-0.093462,0.16157,-0.035736,-17.22,-15.36,10.44
5.8431,-2.2882,-7.9679,-0.036346,0.064446,-0.11912,-17.46,-15.48,10.56
4.5628,-2.3836,-7.1507,-0.031154,-0.061392,-0.076664,-17.46,-15.3,10.26
5.2847,-2.656,-7.7364,-0.022602,0.085521,-0.084299,-17.58,-15.24,10.08
7.3686,-2.6832,-7.8998,-0.14783,0.054978,-0.20189,-17.64,-15.12,9.78
4.5764,-2.1248,-7.1915,0.0012217,0.027184,-0.17349,-17.76,-15.0,9.66
7.7091,-4.3177,-8.6217,-0.17104,-0.029932,-0.18967,-17.88,-15.0,9.54
4.9987,-3.4732,-7.0281,-0.14752,-0.1124,-0.1857,-17.94,-15.24,9.42
3.8682,-2.6423,-8.0224,-0.0051924,-0.016188,-0.11423,-17.94,-15.18,9.48
5.8295,-3.8682,-8.0224,-0.042761,0.15974,-0.051924,-18.06,-15.36,9.42
6.5105,-3.1191,-8.4855,0.010996,0.13836,-0.0562,-18.12,-15.6,9.06
5.8704,-3.1054,-8.0905,0.03879,-0.04612,-0.064141,-18.12,-15.54,8.88
3.3506,-2.2474,-6.9328,0.14661,0.20159,0.018631,-18.24,-15.66,8.7
5.7478,-2.4108,-7.7908,0.072998,0.31551,-0.033292,-18.36,-15.72,8.7
6.0747,-3.8546,-6.2245,0.055283,-0.080634,-0.0073304,-18.3,-15.9,8.58
4.3449,-3.3506,-7.5457,0.15027,0.014966,-0.009163,-18.18,-15.9,8.64
6.6876,-4.7399,-7.9407,0.007025,-0.026878,0.0067195,-18.18,-15.9,8.52
5.7205,-3.1872,-6.8102,0.051007,-0.021075,-0.043677,-18.06,-15.96,8.28
5.1076,-2.1248,-7.7091,0.12309,0.11301,-0.045204,-17.94,-15.96,8.16
6.9328,-3.4732,-7.5593,0.069639,0.15974,-0.0085521,-17.94,-15.78,7.92
7.5321,-3.8137,-7.927,-0.099571,-0.071777,-0.19151,-17.82,-15.72,7.8
4.7399,-2.4789,-6.7966,-0.032681,-0.16738,-0.24557,-17.64,-15.78,7.38
4.304,-3.1327,-7.8998,0.032681,-0.073304,-0.11148,-17.64,-15.6,7.32
6.8919,-3.337,-7.75,-0.21166,-0.07422,-0.24251,-17.46,-15.54,7.14
5.5435,-2.5742,-7.6138,-0.19945,-0.20006,-0.30543,-17.4,-15.66,6.96
3.6366,-0.6674,-7.3686,-0.065973,-0.1573,-0.3375,-17.16,-15.78,6.84
6.4288,-2.0703,-7.6138,-0.017715,0.12248,-0.24129,-17.1,-15.84,6.72
8.826,-3.3234,-7.927,-0.18692,0.025351,-0.24832,-16.98,-15.9,6.48
6.5786,-2.4244,-7.4095,-0.087965,-0.2135,-0.37843,-16.86,-15.96,6.48
5.4073,-2.5742,-6.9872,-0.020159,-0.23457,-0.26725,-16.68,-16.2,6.3
5.4754,-2.3427,-7.4503,-0.021686,-0.1069,-0.20678,-16.62,-16.26,6.42
6.1564,-2.8058,-7.8998,-0.022602,-0.065668,-0.21502,-16.56,-16.32,6.66
6.1564,-2.6015,-7.5457,-0.000916,-0.17501,-0.22113,-16.62,-16.5,6.72
6.2245,-2.3836,-8.0632,0.0562,-0.11637,-0.1686,-16.5,-16.8,6.78
5.5162,-1.8387,-7.4503,0.10843,-0.13775,-0.12645,-16.44,-16.98,6.84
4.3994,-0.8717,-8.8668,0.18692,0.047647,-0.058338,-16.32,-17.4,7.08
7.6819,-2.4789,-7.464,0.03543,-0.19364,-0.094684,-16.26,-17.34,7.44
4.2223,-1.3076,-6.8919,0.15608,-0.022907,0.0067195,-16.26,-17.4,7.56
4.1542,-1.3757,-7.5321,0.18967,0.077274,0.06353,-16.26,-17.52,7.74
5.7069,-3.0237,-7.4231,0.073915,-0.028711,0.23274,-16.32,-17.64,7.98
7.0553,-2.547,-8.1313,-0.024435,-0.090103,0.21197,-16.32,-17.58,8.34
5.203,-1.9341,-6.9328,0.13378,-0.089186,0.23824,-16.38,-17.58,8.46
6.2517,-3.9635,-9.1529,0.041233,0.007025,0.3317,-16.44,-17.7,9.06
7.8045,-3.5549,-7.5321,-0.054367,-0.05681,0.26817,-16.62,-17.76,9.18
5.0804,-2.0567,-7.1507,0.1124,-0.047647,0.24587,-16.68,-17.76,9.42
4.6173,-3.4051,-7.6819,0.12981,-0.13042,0.36591,-16.74,-17.58,9.78
5.8704,-2.8194,-7.3822,0.12584,-0.31918,0.27397,-16.86,-17.4,10.2
5.6661,-1.9477,-7.8998,0.23335,0.091935,0.21136,-16.92,-17.16,10.56
5.8159,-4.0316,-7.5457,0.27489,0.069028,0.30055,-17.04,-16.86,10.74
5.2847,-2.7786,-7.0553,0.16402,-0.2303,0.20831,-17.28,-16.5,11.22
5.0259,-3.2825,-6.6467,0.14722,-0.031765,0.14264,-17.4,-16.26,11.52
4.4402,-3.514,-6.8102,0.10446,-0.16707,0.18387,-17.34,-16.08,11.7
6.4969,-3.7592,-7.1915,-0.03543,-0.13042,-0.072082,-17.16,-15.78,12.12
4.7944,-3.9908,-6.6604,0.051007,-0.097128,-0.12859,-17.1,-15.6,12.24
4.0861,-4.6718,-8.4174,0.017104,-0.3036,-0.092852,-17.04,-15.3,12.48
5.884,-5.0531,-8.0905,-0.073609,0.033292,-0.19823,-16.68,-15.0,12.66
4.3585,-4.2223,-7.0281,0.037263,0.030849,-0.23549,-16.44,-14.94,12.66
3.9635,-2.8603,-7.069,0.14416,0.42913,-0.24679,-16.38,-14.76,12.9
3.9771,-2.261,-7.3141,0.12462,0.84483,-0.15974,-16.08,-14.46,13.14
6.0338,-4.2495,-7.641,-0.011301,0.55741,-0.075136,-16.02,-14.28,13.08
6.9872,-3.1735,-7.6819,-0.050702,0.1628,-0.1237,-16.02,-14.34,13.14
6.565,-5.1757,-6.4424,-0.16463,0.051007,0.0097738,-15.9,-14.58,12.96
3.3097,-3.0918,-5.7614,-0.039095,-0.15058,0.10934,-15.72,-14.58,12.96
3.8954,-2.5879,-7.4912,-0.11942,0.27733,0.15302,-15.72,-14.64,12.84
5.3937,-3.337,-7.8589,-0.11118,0.017104,0.16157,-15.72,-14.64,12.66
5.7205,-2.4925,-8.6762,-0.040012,0.17746,-0.0024435,-15.72,-14.58,12.6
5.6116,-3.0782,-7.75,-0.023824,0.076358,-0.063225,-15.78,-14.82,12.36
5.8976,-3.4459,-8.5127,0.025045,0.045204,-0.078496,-16.02,-14.82,12.48
6.3471,-3.4732,-7.2188,-0.017715,0.015577,-0.060781,-16.14,-14.82,12.48
5.2166,-2.8058,-6.7148,0.049175,-0.019548,-0.040623,-16.14,-14.88,12.3
5.0259,-2.0294,-6.851,0.040623,0.15424,0.081551,-16.32,-14.88,12.12
6.8374,-3.3778,-7.0145,-0.10354,-0.13744,0.097738,-16.5,-15.12,11.94
5.8431,-2.3836,-6.7285,-0.043066,-0.15424,0.047342,-16.5,-15.0,11.76
4.6582,-3.0646,-7.246,-0.073915,-0.2868,0.11973,-16.32,-15.0,11.76
5.8431,-4.0044,-8.1586,-0.14355,-0.21808,0.13073,-16.44,-15.06,11.76
6.5786,-4.2495,-7.6819,-0.31887,-0.2135,0.045204,-16.38,-15.12,11.64
4.3177,-2.6015,-7.6002,-0.13744,-0.053451,0.0015272,-16.44,-15.24,11.52
5.2438,-4.4811,-8.8532,-0.17685,-0.18876,0.083383,-16.38,-15.3,11.58
6.0338,-5.2575,-7.1098,-0.19975,-0.26909,-0.018326,-16.14,-15.3,11.46
2.5742,-0.44947,-7.5729,0.1573,0.062003,0.089797,-15.84,-15.42,11.34
6.565,-3.0782,-8.6217,0.13897,0.28466,0.28741,-15.78,-15.42,11.34
7.2733,-4.1542,-7.5729,-0.13347,-0.20281,0.14264,-15.9,-15.3,11.34
6.3471,-5.0668,-8.2267,-0.27061,-0.41233,0.021075,-15.72,-15.42,11.46
3.3778,-3.2689,-5.5435,-0.30116,-0.34453,-0.05284,-15.6,-15.6,11.46
4.4539,-2.6015,-7.5184,-0.15333,0.19914,-0.035736,-15.42,-15.72,11.52
7.3822,-3.3097,-8.8941,-0.39034,0.054978,-0.14508,-15.48,-15.72,11.4
6.6467,-0.8717,-7.246,-0.35644,0.0042761,-0.30421,-15.48,-15.66,11.4
3.8001,0.31327,-7.069,0.09896,0.039095,-0.22083,-15.66,-15.78,11.34
6.3471,-1.2531,-7.8045,0.065973,0.15119,-0.083078,-15.78,-15.96,11.34
9.1937,-2.7241,-8.8805,-0.16616,-0.068722,-0.16066,-15.84,-16.02,11.46
6.4833,-1.3484,-6.3743,-0.044593,-0.34941,-0.28466,-16.26,-16.38,11.52
5.8431,-2.3836,-7.9951,0.12645,-0.48014,-0.19792,-16.32,-16.5,11.52
5.6524,-3.2553,-6.7693,-0.047342,-0.56505,-0.32467,-16.26,-16.68,11.7
4.0044,-1.3757,-7.641,0.097738,-0.29749,-0.39218,-16.26,-16.98,11.7
5.38,-1.5255,-8.5127,0.045509,-0.30391,-0.32529,-16.26,-17.1,11.64
5.094,-0.8036,-7.3414,0.14233,-0.26878,-0.38973,-16.08,-17.46,11.7
6.4016,-2.0975,-8.6625,0.083689,-0.30665,-0.40103,-16.14,-17.52,11.76
5.2575,-2.9692,-6.1292,0.019548,-0.551,-0.45387,-16.14,-17.82,11.94
6.6876,-4.2904,-8.5263,-0.08827,-0.40409,-0.49388,-15.9,-18.18,12.3
3.3234,-2.6151,-5.094,0.0015272,-0.43768,-0.45937,-15.66,-18.18,12.42
1.4029,-1.7298,-5.884,0.135,-0.016188,-0.3094,-15.42,-18.3,12.66
7.5593,-4.0452,-8.7987,-0.18112,-0.13195,-0.36224,-15.06,-18.48,12.72
3.4187,-2.2882,-6.8238,-0.03146,-0.19151,-0.44654,-14.82,-18.54,12.78
4.6309,-3.2961,-9.112,-0.031154,-0.0030543,-0.36346,-14.58,-18.66,12.9
3.1463,-4.5083,-6.9191,-0.0076358,-0.14569,-0.30543,-14.28,-18.9,12.84
3.8273,-2.9011,-8.54,0.061087,0.25931,-0.28986,-14.04,-19.08,12.96
5.7614,-2.9692,-7.9134,0.1069,0.23579,-0.1686,-13.86,-19.14,12.96
5.3392,-3.5822,-8.2539,0.21686,0.14905,-0.1011,-13.62,-19.44,12.96
5.993,-4.0997,-8.3493,0.17654,0.048869,-0.1292,-13.56,-19.56,13.02
2.5061,-1.8524,-7.9679,0.40073,0.23488,-0.076969,-13.38,-19.62,13.02
7.464,-3.4051,-8.9894,0.086743,0.24984,-0.068417,-13.32,-19.68,13.08
7.464,-3.4051,-8.9894,0.040623,0.1631,-0.11026,-13.32,-19.68,13.08
4.9987,-2.9556,-7.9951,0.078496,0.12462,-0.16035,-13.44,-19.86,13.14
4.9987,-2.9556,-7.9951,-0.051007,-0.04612,-0.2135,-13.44,-19.86,13.14
4.1814,-2.4789,-6.9055,0.011606,0.19609,-0.19884,-13.38,-19.98,12.96
7.8998,-2.7377,-8.1722,-0.13928,0.1744,-0.23732,-13.26,-19.98,12.9
6.9328,-1.9205,-8.8396,-0.053451,0.092852,-0.28314,-13.32,-20.16,12.66
7.3141,-2.0567,-8.431,-0.054672,-0.0048869,-0.3207,-13.38,-20.22,12.6
5.9793,-1.8932,-7.9951,-0.0033598,-0.040012,-0.26389,-13.56,-20.34,12.54
6.0202,-2.3427,-8.6762,0.043982,0.146,-0.18143,-13.74,-20.34,12.24
6.2654,-2.1793,-7.6002,0.036957,0.018021,-0.18418,-13.74,-20.52,12.24
5.2302,-1.6208,-7.3414,0.083078,0.11484,-0.17776,-13.74,-20.58,12.3
7.4095,-3.1872,-8.1177,0.0048869,-0.14813,-0.16952,-13.92,-20.7,12.3
5.5162,-2.5742,-7.3141,0.027184,-0.16829,-0.17562,-13.98,-20.82,12.24
6.7012,-2.3836,-8.036,0.051007,0.0097738,-0.146,-14.04,-20.76,12.0
5.4754,-2.1656,-6.8647,0.095295,-0.092241,-0.18173,-13.92,-20.94,11.88
3.5413,-0.9398,-7.1507,0.21411,0.12339,-0.076664,-13.86,-21.0,12.0
7.8726,-4.0316,-8.322,-0.0024435,-0.13317,-0.023213,-14.04,-21.06,12.06
3.5685,-0.38137,-6.5514,-0.000916,-0.15608,0.01069,-14.16,-21.24,12.24
3.8001,-0.7355,-7.0417,0.16707,0.31612,-0.018326,-14.22,-21.3,12.36
4.3994,-1.866,-8.6762,0.17196,-0.016493,0.086743,-14.34,-21.24,12.6
6.9055,-2.3018,-8.0769,-0.018937,-0.030238,0.11606,-14.34,-21.3,12.66
5.094,-2.0158,-7.1234,0.08491,0.062308,0.020464,-14.46,-21.24,12.54
3.3642,-2.5742,-7.4503,0.13592,-0.19426,0.21166,-14.46,-21.06,12.54
8.0496,-3.514,-8.0905,-0.084605,0.0027489,0.065363,-14.52,-20.88,12.54
3.2825,-1.2803,-7.2596,0.065057,0.1408,0.0956,-14.52,-20.82,12.48
5.5843,-3.4051,-8.6762,0.11576,0.055589,0.2248,-14.46,-21.0,12.54
7.5457,-4.6037,-7.6002,-0.0073304,-0.13256,0.10721,-14.46,-20.94,12.66
3.3642,-2.0158,-7.8998,0.16188,0.28833,0.19548,-14.4,-20.64,12.54
6.2517,-3.1327,-8.3357,0.033903,-0.041233,0.22816,-14.4,-20.76,12.54
5.9521,-2.9011,-7.2869,0.078802,0.25504,0.25504,-14.22,-20.46,12.54
6.3471,-3.6775,-7.6002,0.040317,0.046426,0.24068,-14.16,-20.46,12.42
3.7184,-2.547,-6.8919,0.076053,-0.029016,0.32315,-14.04,-20.28,12.42
4.3858,-2.3427,-7.8998,-0.057116,0.19456,0.23915,-14.1,-20.04,12.42
4.4266,-3.7047,-6.6059,-0.1744,-0.21808,0.25779,-14.1,-19.8,12.54
0.76274,-2.3018,-6.9191,0.10324,0.1912,0.36377,-14.16,-19.8,12.48
5.6797,-3.4868,-10.093,-0.14966,0.11881,0.27611,-13.98,-19.62,12.54
5.2847,-2.4925,-8.4174,-0.053145,0.12401,0.31001,-14.04,-19.62,12.48
5.0531,-2.6968,-7.8045,0.030543,0.047342,0.23152,-13.92,-19.44,12.54
3.1599,-3.0373,-6.9872,0.11301,0.10324,0.32009,-14.04,-19.38,12.36
7.069,-3.5822,-8.2948,-0.10385,0.14019,0.25565,-14.16,-19.2,12.12
5.1213,-1.6889,-7.1507,-0.019242,0.12278,0.21289,-14.16,-18.84,12.06
6.9736,-4.2495,-7.927,-0.072388,0.086743,0.24587,-14.28,-18.84,12.0
6.5514,-4.0589,-8.2539,-0.16463,-0.071777,0.14875,-14.34,-18.54,11.94
4.9987,-3.4459,-8.0496,-0.13867,-0.010996,0.057727,-14.22,-18.6,11.88
4.5356,-2.5198,-7.1371,-0.078191,0.050396,0.051924,-14.1,-18.48,11.7
6.3198,-1.6072,-7.6002,0.000916,0.13592,0.036652,-14.28,-18.42,11.7
5.4754,-1.6072,-7.5048,0.075747,0.075136,0.017104,-14.22,-18.36,11.7
6.3062,-3.9499,-7.3822,-0.082467,-0.097738,0.077274,-14.52,-18.06,11.64
5.2302,-3.5822,-6.6876,-0.13347,-0.1069,0.01069,-14.58,-17.94,11.7
4.6582,-3.2825,-7.3822,-0.12584,-0.023213,-0.038179,-14.82,-17.94,11.7
4.7944,-3.2689,-7.5048,-0.12187,-0.002138,-0.011606,-14.88,-17.82,11.64
7.0145,-4.2904,-8.1858,-0.24221,-0.0058032,-0.17685,-14.94,-17.76,11.58
4.0316,-2.1793,-7.0281,-0.12859,-0.033903,-0.19884,-15.18,-17.94,11.76
3.6911,-1.5119,-7.2869,0.025962,0.10476,-0.09896,-15.12,-17.82,11.58
6.5786,-3.1599,-7.464,-0.13164,0.023213,-0.092546,-15.18,-18.0,11.52
4.5764,-2.261,-7.069,-0.033292,0.0956,-0.079412,-15.36,-18.0,11.46
5.6661,-3.732,-7.9679,-0.014661,0.12767,-0.10599,-15.48,-18.12,11.58
5.6797,-3.732,-7.3005,-0.098655,-0.013134,-0.027184,-15.48,-18.18,11.4
5.0259,-2.5061,-8.3084,-0.067806,0.14539,-0.061087,-15.6,-18.18,11.28
6.2245,-3.051,-7.2596,-0.13806,0.048258,-0.07025,-15.54,-18.3,11.16
4.5628,-1.7979,-6.8919,-0.035125,0.14172,-0.081856,-15.6,-18.54,11.04
6.8919,-2.3018,-7.6955,-0.045509,0.20464,-0.089186,-15.6,-18.66,10.74
6.0883,-3.1191,-7.4503,-0.12004,0.0956,-0.06353,-15.48,-18.72,10.8
6.6195,-3.6366,-7.3277,-0.14661,-0.015577,-0.10476,-15.72,-18.78,10.74
4.699,-4.6854,-7.3141,-0.1182,-0.064141,-0.048258,-15.66,-18.84,10.68
3.4596,-2.3836,-7.246,-0.010079,0.15363,-0.031765,-15.78,-18.9,10.62
6.3198,-1.3076,-8.54,-0.0027489,0.26634,-0.034819,-15.84,-19.14,10.44
6.8374,-2.1248,-8.0224,0.0045815,0.20861,-0.054367,-15.84,-19.14,10.44
6.2654,-2.7649,-7.7091,-0.0027489,0.10507,-0.095906,-15.9,-19.26,10.32
4.5356,-3.6639,-7.0962,0.013439,0.002138,-0.0064141,-15.72,-19.38,10.14
6.7285,-3.8273,-7.6546,-0.11332,0.27978,-0.061697,-15.9,-19.62,9.84
5.8295,-2.7649,-7.8317,-0.083383,0.16493,-0.018631,-15.96,-19.62,9.66
5.2847,-2.6423,-7.1915,0.000611,0.14478,-0.07025,-16.02,-19.44,9.48
6.4152,-3.1599,-8.1313,0.000916,0.15669,-0.16249,-15.96,-19.62,9.42
4.5628,-1.6753,-7.3686,0.058643,0.10599,-0.10018,-16.02,-19.86,9.3
4.4675,-2.0567,-8.1177,0.062919,0.21258,-0.07758,-15.9,-19.92,9.18
6.7012,-3.3506,-7.6138,-0.043371,0.16952,-0.011606,-15.96,-20.04,8.88
3.9499,-2.1929,-7.0553,0.022297,0.16096,-0.079718,-16.08,-20.1,8.82
6.565,-3.8273,-7.9815,-0.03543,0.053756,-0.051313,-16.14,-20.1,8.64
6.4833,-3.5685,-7.927,-0.069639,0.045204,0.02474,-16.14,-19.98,8.58
4.9169,-2.1929,-7.3822,0.000611,0.18082,-0.14569,-16.26,-20.1,8.1
5.3256,-1.7979,-7.3141,0.0082467,0.11851,-0.081551,-16.5,-20.16,8.16
5.1485,-1.866,-7.927,-0.069639,0.12523,-0.082467,-16.5,-20.04,8.16
5.6661,-2.1248,-6.8374,-0.096211,0.17562,-0.096517,-16.5,-20.1,8.1
4.9987,-2.2337,-6.5378,-0.0088575,0.15913,0.019853,-16.56,-20.34,8.04
6.3198,-3.1872,-7.4776,-0.095906,-0.036957,-0.037874,-16.56,-20.28,7.92
5.8704,-2.3018,-7.6683,-0.19273,0.13958,0.011606,-16.68,-20.16,7.98
6.5105,-3.0646,-8.0224,-0.19884,0.08491,-0.043371,-16.62,-20.22,7.8
6.6331,-3.4187,-7.3005,-0.16096,-0.059254,-0.030849,-16.62,-20.16,7.8
4.9033,-1.6617,-8.036,-0.07422,0.12767,-0.086132,-16.8,-20.16,7.68
7.6002,-3.0918,-7.5321,-0.14294,-0.017715,-0.010996,-16.86,-20.16,7.68
5.0395,-1.7843,-8.0224,-0.02138,0.18418,0.045509,-16.86,-20.22,7.86
7.6002,-3.0782,-7.9543,-0.065363,0.14722,0.033598,-16.8,-20.22,7.92
5.5162,-2.0567,-6.3743,-0.12737,-0.0027489,0.11759,-16.8,-20.16,7.98
5.4073,-2.5198,-6.96,-0.065363,0.1405,0.1628,-16.86,-20.16,7.92
5.8023,-3.6094,-7.5729,-0.11026,-0.13744,0.21044,-16.98,-20.34,7.86
5.38,-2.3291,-7.7091,-0.12584,0.065668,0.28222,-16.92,-20.34,7.68
5.2166,-2.0975,-7.9134,-0.11148,0.10263,0.2251,-16.86,-20.28,7.68
5.598,-2.942,-8.2131,-0.18112,0.061697,0.25779,-16.74,-20.28,7.62
5.8431,-1.8932,-7.5729,-0.1741,0.17471,0.20464,-16.74,-20.4,7.38
6.4152,-2.7241,-6.96,-0.17776,0.0073304,0.19395,-16.8,-20.4,7.44
5.5571,-2.7241,-7.2324,-0.12859,0.036346,0.24251,-16.8,-20.4,7.44
6.0202,-2.7922,-8.2676,-0.20495,0.091935,0.20464,-16.74,-20.52,7.44
5.489,-2.0975,-6.5922,-0.22969,0.18051,0.24526,-16.74,-20.4,7.08
4.8625,-1.0624,-7.5048,-0.15944,0.16035,0.23885,-16.74,-20.58,6.96
6.7966,-2.0839,-8.4446,-0.14111,0.042455,0.22174,-16.8,-20.52,7.02
6.1019,-1.0896,-6.2926,-0.15241,0.19517,0.29352,-16.98,-20.64,6.78
7.3141,-2.9965,-7.9134,-0.16432,-0.0015272,0.18692,-16.92,-20.58,6.66
7.2596,-3.9227,-7.5457,-0.23366,-0.35827,0.20556,-16.92,-20.64,6.66
4.1542,-2.3018,-7.3958,-0.16341,0.067806,0.18967,-16.98,-20.46,6.48
7.5457,-3.1872,-8.2812,-0.21533,-0.082772,0.20036,-17.04,-20.46,6.42
6.0474,-1.8387,-7.6002,-0.17654,-0.073609,0.16952,-17.04,-20.28,6.42
5.4481,-1.2803,-7.7636,-0.029932,-0.11179,0.17135,-17.16,-20.28,6.3
5.9112,-2.656,-7.8045,-0.058643,-0.19609,0.25259,-17.16,-20.22,6.18
5.8159,-2.2882,-7.641,-0.10812,-0.078802,0.17623,-17.16,-20.16,6.06
4.9442,-2.4108,-7.1915,-0.16341,-0.26573,0.11423,-17.22,-20.16,5.94
4.5083,-1.7162,-7.1234,-0.14172,-0.19456,0.10324,-17.16,-19.92,5.88
6.7421,-2.4789,-7.9951,-0.17471,-0.19517,0.13011,-17.1,-19.86,5.94
6.7557,-2.9965,-7.927,-0.23702,-0.31062,0.10446,-16.98,-19.8,5.94
4.6037,-1.7979,-7.3414,-0.20067,-0.24129,-0.022297,-16.68,-19.5,6.0
5.1213,-1.9341,-7.6546,-0.14019,-0.15485,-0.011606,-16.68,-19.44,6.12
7.069,-1.7434,-6.9464,-0.17654,-0.20861,0.016188,-16.56,-19.44,6.3
5.6116,-2.0567,-7.3414,-0.040623,-0.14875,-0.016493,-16.56,-19.62,6.54
6.2381,-2.3836,-7.464,-0.046426,-0.18357,-0.029932,-16.56,-19.62,6.72
6.4016,-3.6366,-6.8647,-0.083078,-0.22846,0.017104,-16.56,-19.56,6.96
5.7069,-3.514,-6.674,-0.14752,-0.14813,-0.010079,-16.32,-19.5,7.32
4.5083,-2.7377,-6.7693,-0.05284,-0.021991,0.087354,-16.32,-19.56,7.5
6.1836,-2.9965,-7.7227,-0.097738,0.044899,0.047037,-16.2,-19.68,7.8
5.3664,-2.7649,-7.1098,-0.12706,-0.070555,-0.026878,-16.2,-19.8,8.4
4.2495,-2.1248,-7.0145,0.0097738,-0.0015272,0.037568,-16.26,-19.8,8.58
4.808,-2.2882,-7.8453,0.031765,0.0042761,0.047342,-16.2,-19.8,8.7
6.7966,-3.4051,-8.3901,-0.069028,-0.033292,-0.01069,-16.08,-19.92,8.88
5.598,-2.261,-7.355,0.019853,-0.029322,0.039706,-16.08,-20.1,9.42
5.4481,-2.4789,-7.5729,0.019853,-0.029322,0.039706,-16.08,-20.1,9.42
5.2166,-1.9477,-7.5457,0.021075,0.054062,0.044593,-16.08,-20.1,9.54
6.7012,-2.547,-7.6546,-0.026878,0.046426,-0.043066,-16.14,-20.22,9.66
6.4424,-3.3506,-7.9679,-0.135,-0.23427,-0.07086,-16.08,-20.34,9.72
5.2575,-2.152,-6.674,-0.011301,0.018326,-0.10446,-16.02,-20.4,9.6
3.6639,-1.4165,-7.3277,-0.027184,0.050396,-0.079412,-16.08,-20.46,9.54
6.7557,-2.3427,-7.246,-0.17746,-0.10873,-0.16157,-16.02,-20.22,9.54
5.3392,-2.5061,-7.6546,-0.096517,-0.095295,-0.19914,-15.96,-20.16,9.48
6.0202,-2.6423,-7.5457,-0.067806,-0.12675,-0.17379,-15.9,-20.22,9.3
7.0009,-1.6889,-8.1177,-0.048258,0.068111,-0.219,-15.9,-20.4,9.18
6.851,-2.0703,-7.8045,-0.034514,-0.07758,-0.15363,-16.02,-20.4,9.12
5.7069,-1.8115,-7.1643,0.025656,-0.0039706,-0.13592,-16.02,-20.46,9.12
5.3528,-1.8932,-7.7364,0.041233,0.0030543,-0.15821,-16.02,-20.52,8.7
6.1155,-2.8603,-7.8589,-0.078802,-0.084299,-0.12706,-16.08,-20.46,8.64
4.8352,-2.4789,-7.2188,-0.044593,-0.023518,-0.17685,-15.96,-20.52,8.58
5.8704,-3.0373,-7.6002,-0.06689,-0.022297,-0.23763,-15.9,-20.64,8.64
6.8919,-3.0646,-7.8317,-0.06017,-0.027489,-0.27122,-15.96,-20.7,8.64
5.4618,-2.2065,-7.8181,0.0058032,0.017104,-0.26328,-15.78,-20.82,8.76
5.9657,-2.0839,-7.8862,0.012828,-0.016188,-0.27642,-15.78,-20.88,8.76
6.4424,-3.228,-8.2131,0.025351,0.13592,-0.20036,-15.72,-21.06,8.64
5.203,-2.1929,-6.9328,-0.022297,-0.016188,-0.20708,-15.66,-21.3,8.76
4.8216,-2.5879,-7.7636,0.0061087,0.12889,-0.1463,-15.54,-21.3,8.82
5.8159,-2.2474,-7.8998,-0.028405,0.094073,-0.1182,-15.36,-21.48,8.76
5.9249,-2.2882,-6.7966,-0.033292,0.076664,-0.18692,-15.36,-21.54,8.76
4.6582,-2.4925,-6.8647,0.039095,0.11362,-0.10324,-15.48,-21.66,8.82
6.5378,-3.1191,-7.5457,-0.023824,0.11484,-0.041233,-15.3,-21.9,8.94
4.7399,-2.0431,-6.9464,0.023213,0.23243,-0.062614,-15.18,-22.14,8.64
5.6797,-1.866,-7.8045,0.044593,0.14019,-0.076969,-15.18,-22.2,8.58
6.7693,-2.6015,-8.0769,-0.011912,0.026267,-0.064141,-15.06,-22.32,8.64
6.1836,-2.4517,-8.0632,-0.032987,0.17532,-0.036041,-15.36,-22.62,8.46
5.6252,-2.6968,-7.246,-0.015577,-0.023824,-0.055589,-15.36,-22.68,8.34
6.456,-2.0839,-8.1041,-0.098655,0.030849,0.017104,-15.42,-22.86,8.34
5.7069,-1.9341,-8.036,-0.082467,-0.043066,-0.061697,-15.54,-22.92,8.16
5.2711,-0.8036,-7.6138,0.028711,0.068417,-0.084605,-15.6,-22.92,8.16
6.1836,-1.5119,-8.322,0.044593,0.071777,-0.028405,-15.54,-22.98,8.22
6.4288,-1.471,-8.0224,0.040623,0.054672,-0.017715,-15.54,-22.98,8.1
6.8647,-1.9886,-6.7421,0.057116,0.083383,0.013744,-15.6,-22.98,8.04
4.7399,-1.6344,-7.4503,0.16768,-0.0076358,0.10873,-15.78,-22.98,7.86
6.9328,-2.4789,-7.4776,0.033598,-0.075442,0.074526,-15.96,-22.86,7.98
4.8761,-1.3757,-6.8374,0.058643,0.11332,0.17562,-15.9,-22.86,7.92
5.2983,-1.4438,-7.4503,0.020159,0.034208,0.13317,-16.08,-22.8,7.8
6.3471,-1.9068,-7.6955,-0.0042761,-0.042455,0.16646,-15.96,-22.62,7.62
6.5786,-2.2882,-7.6274,-0.011912,0.037568,0.13897,-16.02,-22.68,7.74
3.2553,-1.076,-7.8998,0.12614,-0.012828,0.18204,-16.02,-22.44,7.8
6.96,-3.3097,-9.0984,-0.05284,-0.045204,0.19395,-15.96,-22.5,7.8
8.7443,-3.7184,-7.6274,-0.13103,-0.27,0.20556,-15.96,-22.44,7.74
4.7126,-1.4574,-6.7285,0.032376,0.09163,0.19914,-16.08,-22.26,7.68
4.8488,-2.2337,-7.7364,0.0054978,-0.24618,0.17226,-16.08,-22.2,7.74
6.674,-2.0567,-8.0905,-0.075442,0.039401,0.25931,-15.96,-22.08,7.86
8.0905,-2.1112,-7.6546,-0.070555,0.15211,0.14142,-15.96,-21.96,7.92
5.6661,-2.0294,-8.2539,0.037874,-0.18326,0.20495,-15.9,-21.78,7.98
7.7636,-3.2825,-7.6683,-0.10934,-0.2022,0.16768,-16.02,-21.72,7.92
5.8431,-2.4925,-6.9464,-0.072998,-0.10721,0.2193,-15.84,-21.6,7.86
7.2869,-3.9771,-8.0088,-0.075442,-0.18754,0.13775,-15.6,-21.48,8.16
6.9055,-3.2553,-7.9407,-0.096517,-0.2193,0.23152,-15.54,-21.36,8.1
5.3528,-2.0294,-7.5184,-0.055283,-0.018021,0.076969,-15.6,-21.24,8.04
5.3528,-1.2531,-7.3005,-0.013439,-0.20403,0.087048,-15.42,-21.18,7.92
5.8159,-1.7979,-7.6955,0.033292,-0.064446,0.076358,-15.3,-21.0,8.04
7.3822,-2.833,-8.3765,-0.0027489,-0.18265,0.064446,-15.18,-20.88,7.98
6.6331,-3.3506,-7.4503,-0.029627,-0.24496,0.11148,-15.18,-20.82,8.04
5.1485,-2.8875,-8.2539,-0.053451,-0.1463,0.087659,-14.94,-20.64,7.98
6.1836,-3.0918,-8.036,-0.15272,-0.25931,0.12859,-14.88,-20.58,7.86
4.7944,-2.0839,-7.8589,-0.066279,-0.15088,0.057727,-14.58,-20.34,8.04
6.2517,-3.3642,-8.4174,-0.07758,-0.34606,0.072388,-14.46,-20.34,8.22
4.0452,-1.9205,-7.0145,-0.040012,-0.28924,0.03879,-14.34,-20.34,8.46
4.9578,-1.0624,-7.5729,0.027489,-0.062614,-0.041844,-14.34,-20.22,8.34
8.0224,-3.2144,-7.5048,-0.079412,-0.31093,-0.055589,-14.46,-20.22,8.52
4.4811,-2.547,-7.0281,-0.027489,-0.28314,0.015882,-14.22,-20.16,8.7
5.9385,-3.6366,-7.0009,-0.1066,-0.27703,-0.085216,-14.16,-20.28,8.88
5.4073,-1.9205,-8.3765,-0.057421,-0.067806,-0.011912,-14.22,-20.22,9.18
6.3743,-2.1248,-7.7636,-0.033598,-0.13775,-0.071471,-14.16,-20.28,9.48
5.6524,-1.8796,-7.8045,0.0030543,-0.17562,-0.099876,-13.98,-20.34,9.66
6.4152,-2.9965,-8.6217,0.012523,-0.12431,-0.048869,-13.98,-20.34,10.08
6.674,-2.9965,-7.7364,-0.094684,-0.19395,-0.16768,-13.92,-20.4,10.2
4.1542,-2.2474,-7.927,-0.010996,-0.18021,-0.17013,-13.8,-20.4,10.38
6.4969,-3.0101,-8.2403,-0.053756,-0.21136,-0.1237,-13.86,-20.4,10.56
4.699,-2.4517,-7.0281,-0.035736,-0.047953,-0.08094,-13.8,-20.4,10.56
5.1485,-2.4244,-8.1177,-0.03207,-0.12675,-0.12706,-13.68,-20.46,10.86
5.775,-2.7786,-7.6819,-0.047953,-0.14936,-0.10446,-13.2,-20.52,11.28
4.808,-1.4165,-8.54,0.054062,0.062614,-0.12492,-13.2,-20.64,11.22
7.3005,-3.0237,-8.5808,-0.093768,-0.24954,-0.18998,-13.08,-20.64,11.28
3.6094,-1.7298,-6.7012,0.000305,0.020769,-0.16188,-12.72,-20.64,11.28
4.8897,-1.471,-8.1722,0.048564,0.053451,-0.14386,-12.72,-20.82,11.28
7.8181,-2.5198,-8.8124,-0.073304,-0.13256,-0.20097,-12.84,-20.88,11.34
5.8023,-2.152,-7.464,-0.065363,-0.073609,-0.21961,-12.54,-20.94,11.4
5.1621,-1.8932,-7.9407,0.0036652,-0.10904,-0.29322,-12.3,-21.18,11.4
5.2166,-2.0022,-7.5729,-0.023824,0.000611,-0.24343,-12.24,-21.42,11.58
6.7421,-2.2201,-8.3493,-0.05284,-0.014966,-0.35675,-12.0,-21.6,11.28
3.2961,-1.2531,-6.7966,0.11057,-0.05284,-0.22083,-12.06,-21.72,11.34
5.5843,-1.6617,-8.3765,0.069028,0.02138,-0.26939,-12.0,-21.84,11.28
7.1371,-2.261,-8.4038,0.007025,-0.16493,-0.25381,-12.0,-21.96,11.16
4.018,-2.2474,-7.5457,0.079718,-0.069639,-0.26389,-11.88,-22.08,11.34
4.7944,-2.0431,-7.9815,0.078802,-0.014661,-0.28466,-11.94,-22.08,11.34
5.884,-3.0373,-8.0224,0.0082467,-0.057421,-0.33872,-11.94,-22.26,11.4
4.2495,-2.0839,-7.5865,0.050702,-0.10812,-0.27489,-11.82,-22.44,11.4
5.5299,-3.0237,-7.8317,-0.03879,0.019548,-0.33506,-11.7,-22.56,11.58
5.3528,-2.5198,-7.3822,0.033903,0.048258,-0.24343,-11.7,-22.74,11.46
5.7342,-1.9613,-8.145,0.059559,0.067195,-0.31643,-11.64,-22.98,11.46
7.0826,-3.3234,-8.4719,0.020769,-0.1069,-0.28375,-11.64,-23.1,11.34
4.2495,-2.6696,-7.1507,0.083994,0.025045,-0.24343,-11.58,-23.28,11.64
4.127,-1.471,-8.1041,0.13011,0.12553,-0.23732,-11.46,-23.34,11.7
7.0009,-2.3155,-8.1313,0.084299,0.0048869,-0.28619,-11.4,-23.46,11.76
4.6854,-1.1169,-7.1098,0.13958,0.041233,-0.25992,-11.34,-23.7,11.82
6.5378,-3.0101,-8.3765,0.13775,-0.0027489,-0.20922,-11.22,-23.7,11.88
5.7069,-2.3836,-7.1779,0.11026,-0.049786,-0.21625,-11.16,-23.76,12.0
7.4503,-2.0022,-8.5672,0.0039706,-0.067806,-0.3262,-10.92,-23.88,11.88
6.6331,-3.3506,-7.6138,-0.052229,-0.2193,-0.24068,-10.86,-23.94,12.12
4.0589,-1.9613,-6.8647,0.018021,-0.050091,-0.22755,-10.8,-24.06,11.88
6.6604,-2.5742,-8.7306,-0.073915,-0.21411,-0.36682,-10.8,-24.0,12.12
4.8488,-2.1384,-7.927,-0.059865,0.020464,-0.17959,-10.56,-24.12,12.36
5.4754,-1.9477,-8.4446,-0.010996,0.073304,-0.22388,-10.44,-24.24,12.3
5.3664,-1.2939,-7.464,0.016188,0.0024435,-0.16952,-10.38,-24.48,12.24
7.641,-3.3778,-8.3765,-0.031154,-0.036041,-0.1689,-10.38,-24.66,12.3
5.5707,-1.2395,-7.5593,0.024129,-0.071471,-0.18845,-10.32,-24.72,12.36
4.2904,-1.5663,-7.3277,0.087659,0.019548,-0.16005,-10.2,-24.6,12.36
4.7944,-2.0703,-8.2676,0.097738,-0.014966,0.026878,-10.2,-24.78,12.3
6.8238,-3.1872,-7.4095,0.02138,0.0073304,-0.014661,-10.02,-24.9,12.36
4.9033,-1.4438,-8.036,0.12401,0.03207,-0.077274,-10.2,-24.84,12.36
4.8625,-2.0567,-7.355,0.14203,-0.082467,-0.11148,-10.2,-24.96,12.48
4.8216,-1.2531,-7.5048,0.18387,0.11332,0.045815,-10.14,-24.96,12.78
6.3471,-2.0022,-7.8862,0.17959,0.08094,-0.01069,-10.14,-24.9,12.84
5.5707,-2.6151,-7.0962,0.1912,-0.07086,0.078496,-10.26,-24.9,12.9
6.7693,-2.2065,-8.6217,0.11606,0.013134,-0.0088575,-10.32,-24.84,13.02
5.9249,-1.9341,-7.8045,0.089797,-0.17196,-0.0058032,-10.2,-24.78,13.14
6.2245,-1.6208,-8.7443,0.1237,0.053756,0.050091,-10.14,-24.84,13.32
5.4073,-1.866,-8.0224,0.072998,-0.027794,0.037874,-10.08,-24.9,13.44
5.7069,-0.95342,-7.9679,0.057116,0.051007,0.0281,-10.2,-24.9,13.44
7.2596,-2.4789,-8.5127,0.056505,-0.12095,-0.011301,-10.2,-24.84,13.62
6.0883,-2.0567,-7.8045,0.073915,-0.14813,-0.019242,-10.26,-24.78,13.68
5.6524,-2.5334,-7.6138,0.09163,-0.065668,-0.051618,-10.08,-24.84,13.8
4.6173,-1.4165,-7.2869,0.097738,-0.11057,0.047647,-9.9,-24.78,13.74
6.279,-2.1384,-7.9679,0.065973,0.051007,0.012523,-9.9,-24.72,13.8
7.1915,-2.3836,-8.0769,0.084299,-0.036041,0.046426,-9.84,-24.72,13.86
4.985,-2.2882,-7.3141,0.18479,-0.10873,0.076053,-9.72,-24.66,13.92
7.1507,-3.5685,-8.322,0.069028,-0.27306,-0.019548,-9.6,-24.6,14.1
6.1019,-2.7649,-7.5184,0.043982,-0.35675,-0.045204,-9.6,-24.42,14.16
4.6445,-2.1248,-8.3493,0.097128,-0.12645,-0.10293,-9.36,-24.06,14.34
5.4481,-2.0022,-8.6489,0.018937,-0.22052,-0.092852,-9.42,-23.88,14.34
6.2517,-2.438,-8.7987,-0.016493,-0.17593,-0.10354,-9.18,-23.88,14.46
4.8352,-1.8387,-7.6138,0.11973,-0.21808,-0.08827,-8.94,-23.88,14.46
4.2495,-2.547,-8.4446,0.12034,-0.14905,-0.035736,-8.46,-23.7,14.52
6.0611,-2.2746,-8.2676,-0.020769,-0.18295,-0.086743,-8.34,-23.58,14.58
4.2632,-2.1384,-7.8045,0.10171,-0.10934,-0.020464,-8.04,-23.46,14.82
4.6854,-2.1656,-7.641,0.086743,-0.15821,-0.029016,-7.8,-23.46,14.76
5.1485,-2.4789,-7.8045,0.092546,-0.021991,-0.0067195,-7.68,-23.34,14.76
5.6661,-2.9556,-8.1722,0.036652,-0.072082,-0.021991,-7.5,-23.22,14.88
4.5083,-3.0237,-7.641,0.13134,-0.018631,0.047953,-7.2,-22.92,14.88
5.6661,-2.9692,-8.1722,0.055283,-0.072388,-0.02474,-7.02,-22.92,15.12
6.3607,-2.547,-7.2596,-0.015882,-0.057727,-0.083689,-6.84,-22.86,15.18
4.0589,-2.1929,-7.5457,0.062614,0.096517,-0.075136,-6.72,-22.8,15.36
5.4754,-2.547,-8.0632,0.03146,0.078802,-0.10324,-6.6,-22.8,15.54
6.4016,-3.4323,-8.1041,0.013439,0.0073304,-0.11118,-6.54,-22.68,15.78
4.7126,-2.2882,-7.7636,0.076969,0.029932,-0.15974,-6.66,-22.56,15.96
4.0044,-1.7843,-8.0496,0.14111,0.098044,-0.071777,-6.78,-22.5,16.14
6.0202,-2.1793,-8.0632,0.096211,0.14203,-0.031765,-6.84,-22.56,16.26
4.1814,-1.866,-7.8726,0.11606,0.18295,-0.096517,-6.9,-22.38,16.26
5.203,-3.8137,-8.0632,0.0097738,0.027794,0.049175,-6.84,-22.26,16.32
4.0589,-2.3291,-7.2188,0.016493,0.25992,0.013134,-6.72,-22.14,16.56
4.9442,-2.6015,-7.7364,0.03543,0.29077,0.066279,-6.66,-22.02,16.56
5.1485,-2.0431,-6.7829,0.027489,0.26909,0.010079,-6.72,-21.96,16.32
7.5729,-3.8273,-9.3844,0.028405,0.31582,-0.037874,-6.9,-21.78,16.38
6.2245,-3.6366,-7.464,-0.13256,0.016188,-0.15608,-6.9,-21.72,16.2
3.2553,-2.4108,-6.674,-0.051618,0.16493,-0.079107,-7.02,-21.54,16.08
5.1349,-2.1384,-7.9543,-0.072998,0.27978,-0.05681,-7.08,-21.48,15.78
4.7807,-1.3212,-7.7636,-0.025962,0.49419,0.014966,-7.14,-21.48,15.66
6.6876,-2.261,-8.0905,-0.046731,0.3934,-0.039401,-7.26,-21.36,15.54
5.5435,-2.6832,-7.7227,-0.045509,0.090408,0.011912,-7.32,-21.3,15.18
5.3256,-2.4789,-7.9679,-0.040928,0.24679,-0.06017,-7.5,-21.18,15.18
5.5299,-2.5061,-8.1858,-0.065973,0.208,-0.0281,-7.62,-21.3,14.94
5.1349,-1.5391,-7.2324,-0.007025,0.36896,-0.041539,-7.8,-21.18,14.76
8.3629,-3.1191,-8.6625,-0.11698,0.096822,-0.13897,-8.16,-21.12,14.4
4.3858,-1.6889,-6.9736,0.011912,0.10568,-0.043982,-8.28,-21.18,14.28
3.5685,-1.0488,-8.0632,0.082467,0.27886,-0.072693,-8.34,-21.36,14.1
7.4503,-2.438,-7.7908,-0.071471,0.16218,-0.10507,-8.52,-21.24,13.62
5.1485,-1.4574,-7.1234,0.06017,0.15363,-0.12034,-8.58,-21.36,13.5
5.094,-1.9068,-7.5729,0.097433,0.14355,-0.11576,-8.82,-21.36,13.32
5.2847,-2.4108,-7.4095,0.032681,0.18265,0.086743,-9.12,-21.3,13.02
6.3607,-2.7786,-7.6683,-0.044593,0.19975,-0.064752,-9.18,-21.12,12.72
3.4187,-1.5119,-6.1836,0.1011,0.17807,-0.0082467,-9.24,-21.06,12.54
4.2087,-3.4732,-8.4446,0.051313,0.11912,0.068111,-9.48,-21.18,12.36
6.7012,-3.6775,-7.7364,-0.13073,0.12034,0.036957,-9.54,-21.18,12.18
4.699,-3.7184,-6.9191,-0.084299,0.20433,0.025962,-9.66,-21.3,12.0
4.1406,-3.2689,-7.5457,-0.04612,0.10201,-0.0061087,-9.72,-21.3,11.76
5.6797,-2.5606,-7.6683,-0.1011,0.24801,-0.029016,-9.9,-21.36,11.46
5.993,-2.6151,-7.246,-0.034208,0.33384,-0.009163,-10.08,-21.18,11.28
5.1485,-1.8524,-7.7227,0.029932,0.18845,-0.013744,-10.2,-21.36,11.04
7.1234,-3.1872,-7.927,-0.044593,0.22785,0.097128,-10.38,-21.12,10.86
5.6388,-2.7786,-7.2869,-0.043371,0.36377,0.056505,-10.5,-21.12,10.86
5.3937,-2.5061,-6.7829,0.0048869,0.2926,0.12614,-10.38,-21.12,10.8
5.9657,-2.6151,-7.4231,-0.071471,0.30146,0.12065,-10.74,-21.36,10.44
6.1836,-3.6775,-8.6625,-0.13775,0.26695,0.1854,-10.92,-21.18,10.44
0.23155,1.5936,-4.9306,-0.22877,0.041233,0.078191,-11.04,-21.12,9.96
-0.054481,0.51757,-8.1041,0.18998,0.62614,0.22419,-11.16,-21.06,10.02
8.9349,-4.808,-10.556,-0.36499,0.26389,0.32254,-11.34,-20.94,9.9
12.503,-3.5413,-6.6331,-0.12889,0.32315,0.19364,-11.52,-21.0,9.78
5.0531,-3.5413,-6.9328,0.057116,0.22144,0.24068,-12.0,-20.76,9.6
3.7728,-2.6696,-7.355,0.068722,-0.2529,0.36988,-12.06,-20.7,9.48
5.4073,-2.0431,-9.1393,-0.29963,0.62522,0.24832,-12.24,-20.52,9.54
6.3471,-1.4029,-5.1485,-0.23549,0.48747,0.26053,-12.66,-20.52,9.12
4.3177,-1.58,-7.8998,0.04948,0.1292,0.41814,-12.78,-20.34,8.94
7.6819,-2.8058,-8.826,-0.18265,0.0085521,0.19914,-12.96,-20.22,8.7
5.7614,-1.9341,-6.7012,-0.10904,0.18143,0.40531,-13.32,-19.86,8.28
6.1973,-2.2474,-7.7364,-0.10232,0.13225,0.29444,-13.56,-19.86,8.04
7.0417,-3.0101,-7.6683,-0.1857,-0.011301,0.27245,-13.8,-19.74,8.22
7.0826,-2.6968,-7.6683,-0.18662,0.16829,0.3204,-13.98,-19.62,7.92
7.9679,-3.3097,-7.1779,-0.21319,0.033292,0.33689,-14.1,-19.44,7.74
5.2711,-2.0567,-6.3471,-0.073609,0.051618,0.35339,-14.16,-19.32,7.62
6.2381,-2.2065,-8.1177,-0.14783,0.083078,0.37782,-14.04,-19.2,7.38
7.4503,-2.9148,-7.4095,-0.20556,0.17501,0.35919,-14.04,-19.14,7.26
5.6797,-2.3155,-6.4697,-0.20892,-0.059559,0.39584,-14.1,-19.08,7.14
4.5492,-1.9613,-7.8317,-0.11148,0.091935,0.35491,-14.22,-18.9,7.14
7.5048,-3.0646,-8.0632,-0.31276,0.039095,0.29841,-14.22,-18.96,7.2
7.8317,-3.4596,-6.9464,-0.26848,0.11362,0.39126,-14.4,-18.78,7.14
5.2711,-3.3915,-7.2324,-0.20708,-0.09896,0.26542,-14.4,-18.6,7.26
6.96,-3.514,-7.3686,-0.28986,-0.078191,0.34728,-14.28,-18.48,7.26
6.4833,-3.1191,-7.4231,-0.26634,-0.043371,0.29077,-14.28,-18.42,7.02
4.4811,-1.6344,-7.1098,-0.1463,-0.066584,0.29383,-14.34,-18.3,6.96
7.3414,-2.9556,-7.7772,-0.19059,-0.094379,0.30482,-14.4,-18.24,6.96
6.6331,-2.8194,-7.5048,-0.20922,-0.081551,0.29138,-14.4,-18.42,6.96
4.1406,-2.0839,-7.4776,-0.13439,-0.12462,0.33903,-14.4,-18.3,7.08
4.9714,-2.3563,-7.2733,-0.15394,-0.058948,0.39309,-14.46,-18.06,6.96
6.4152,-3.6775,-7.8045,-0.26267,-0.17685,0.37232,-14.58,-18.0,6.84
5.0668,-3.0237,-6.9191,-0.20067,-0.053756,0.42638,-14.52,-17.94,6.72
4.5628,-2.7513,-7.6002,-0.20403,-0.18418,0.35125,-14.46,-17.88,6.84
7.1234,-3.1054,-8.3765,-0.30513,-0.22449,0.2865,-14.34,-17.64,6.72
6.5105,-3.2553,-7.2188,-0.3485,-0.30024,0.15455,-14.28,-17.64,6.72
4.5356,-2.3836,-6.4288,-0.21228,-0.20861,0.12492,-14.22,-17.64,6.72
7.6274,-3.2825,-7.2869,-0.20036,-0.15424,-0.01069,-14.22,-17.46,6.84
6.4424,-2.8603,-6.6604,-0.23182,-0.23579,-0.022297,-14.22,-17.46,6.96
5.0804,-2.261,-6.8919,-0.1631,-0.17471,-0.031154,-14.1,-17.34,6.96
5.6661,-2.9011,-6.5241,-0.13134,-0.19792,0.025351,-13.98,-17.34,7.08
6.674,-3.9635,-7.2188,-0.23305,-0.20861,0.077885,-13.98,-17.22,7.14
4.304,-2.6151,-6.9464,-0.20189,-0.11148,0.12553,-13.92,-17.34,7.38
4.5764,-2.8058,-7.3141,-0.1686,-0.053451,0.18204,-13.74,-17.34,7.56
6.0611,-3.2144,-7.2733,-0.19823,-0.038179,0.17226,-13.8,-17.22,7.74
4.6718,-2.547,-7.2869,-0.13134,-0.031765,0.13775,-13.8,-17.28,7.8
4.4675,-2.4789,-7.3822,-0.062308,-0.023824,0.12462,-13.68,-17.34,7.86
5.8704,-3.0646,-7.355,-0.1628,-0.03146,0.084605,-13.5,-17.52,8.1
5.094,-2.9284,-7.6002,-0.10049,-0.0073304,0.096822,-13.5,-17.52,8.16
5.598,-3.1872,-7.5321,-0.1295,-0.058032,0.056505,-13.56,-17.64,8.4
5.2575,-2.0022,-7.7908,-0.16066,-0.021991,0.028711,-13.38,-17.76,8.4
5.9249,-2.261,-7.75,-0.12798,0.022297,0.0088575,-13.56,-17.88,8.52
5.2166,-1.9886,-7.1507,-0.073609,-0.0085521,0.044593,-13.74,-17.76,8.58
6.7285,-3.6639,-8.0496,-0.13317,0.0058032,0.053756,-13.56,-17.94,8.7
5.7342,-3.4187,-7.3686,-0.18295,-0.076053,0.069333,-13.56,-17.82,8.7
4.8625,-2.9284,-7.4776,-0.17287,-0.0042761,0.033292,-13.68,-17.82,8.64
5.6116,-2.3427,-7.6955,-0.16524,0.033903,0.033598,-13.68,-17.76,8.64
5.993,-2.6015,-8.2812,-0.22846,0.0097738,0.027489,-13.56,-17.7,8.52
6.9055,-3.8273,-7.6683,-0.27367,-0.08827,-0.011912,-13.8,-17.58,8.64
4.0452,-1.5119,-7.4776,-0.058643,0.16799,0.035125,-13.92,-17.58,8.82
8.1858,-2.9556,-8.4582,-0.23427,0.080634,0.034514,-13.98,-17.7,8.76
6.5105,-1.8387,-7.641,-0.21197,0.093462,0.011912,-13.98,-17.82,8.76
5.4209,-2.2474,-7.1915,-0.19364,-0.015577,-0.023824,-14.28,-17.94,8.76
5.8976,-2.8058,-7.8045,-0.16524,-0.0015272,-0.0097738,-14.22,-17.88,8.7
8.4038,-2.4517,-8.4446,-0.22144,-0.10385,-0.13408,-14.28,-18.18,8.64
4.5492,-1.4301,-7.75,-0.059559,-0.088575,-0.092852,-14.52,-18.3,8.64
7.2324,-2.3427,-8.5263,-0.080023,-0.19334,-0.15577,-14.58,-18.42,8.46
6.8238,-2.9284,-7.6002,-0.081245,-0.18357,-0.135,-14.58,-18.6,8.58
6.7012,-3.9363,-7.6138,0.029322,-0.096211,-0.17562,-14.58,-18.84,8.52
5.6797,-2.3836,-7.0145,-0.014355,-0.26725,-0.2251,-14.7,-19.02,8.64
5.884,-2.7104,-7.2188,-0.002138,-0.08491,-0.33017,-14.58,-19.14,8.82
7.2869,-4.1951,-7.4912,-0.042455,-0.32651,-0.30635,-14.64,-19.32,8.58
3.1191,-2.1248,-7.2052,0.076053,-0.0956,-0.29199,-14.52,-19.5,8.7
7.5184,-3.5004,-8.3765,-0.085521,-0.23793,-0.42058,-14.46,-19.5,8.58
6.2654,-2.9011,-7.3141,-0.12614,-0.16341,-0.31185,-14.4,-19.5,8.64
5.8023,-2.4925,-7.7636,-0.041539,0.000305,-0.37935,-14.1,-19.8,8.58
5.5026,-2.5742,-8.3357,-0.0088575,-0.15058,-0.27458,-13.98,-19.74,8.76
5.38,-2.4108,-8.1586,-0.051618,-0.047953,-0.24771,-13.98,-19.8,8.64
5.1485,-2.3427,-7.3686,-0.025045,-0.054978,-0.1857,-13.74,-19.98,8.82
4.1951,-1.8387,-7.2188,0.045815,0.05681,-0.1463,-13.68,-20.04,8.94
5.7069,-2.3836,-7.7772,-0.027794,0.009163,-0.13408,-13.68,-20.04,9.0
5.4209,-1.2531,-6.9736,-0.030849,-0.06353,-0.14019,-13.56,-20.28,9.06
4.304,-2.3972,-7.4503,0.020464,-0.090408,-0.11881,-13.56,-20.4,8.88
6.2517,-2.656,-8.0632,-0.077885,-0.17471,-0.075136,-13.38,-20.46,9.0
5.8023,-2.3427,-7.7636,-0.079107,0.000916,-0.087354,-13.26,-20.58,8.94
5.5435,-1.0624,-8.1041,-0.016188,-0.0064141,-0.039706,-13.2,-20.82,8.88
6.2517,-2.1248,-8.9622,-0.025351,-0.16646,-0.02474,-13.14,-20.88,8.88
5.9657,-1.7025,-8.0905,0.015272,-0.043371,-0.034208,-13.26,-21.0,9.0
4.2768,-1.5663,-7.6274,0.073304,-0.037263,-0.041233,-13.08,-21.0,9.0
5.1349,-1.9886,-7.8998,0.13622,0.010385,0.098349,-12.9,-21.06,9.06
5.9793,-1.8932,-7.8045,0.1069,0.045509,0.10385,-12.96,-21.06,9.06
5.7886,-2.438,-6.8374,0.11973,0.045815,0.15058,-12.78,-21.06,8.94
4.9033,-2.3699,-7.0009,0.13011,-0.025045,0.18662,-12.66,-21.06,8.94
4.7535,-2.9556,-8.0496,0.08094,0.040623,0.2868,-12.6,-20.94,9.0
4.8216,-2.1248,-7.7227,0.0076358,0.13317,0.15302,-12.6,-20.94,9.0
5.5299,-2.7377,-7.6274,0.053145,0.069028,0.21777,-12.6,-20.88,9.18
4.9306,-2.3563,-8.4446,-0.0045815,0.030543,0.19395,-12.6,-20.7,9.36
4.0861,-2.2065,-7.4367,0.058948,0.14203,0.22724,-12.66,-20.4,9.42
4.2904,-0.96704,-8.1041,0.11087,0.28466,0.28375,-12.66,-20.28,9.42
6.1564,-2.9148,-7.2596,0.0036652,0.2251,0.31215,-12.72,-20.1,9.48
5.6933,-2.3291,-6.9736,0.048564,0.16524,0.27764,-12.72,-19.86,9.42
4.9578,-2.7649,-8.0905,0.031154,-0.012217,0.33995,-12.96,-19.74,9.48
6.4288,-3.2144,-7.3141,-0.044288,-0.076358,0.34514,-12.96,-19.62,9.48
5.7069,-2.2201,-8.0496,-0.047647,0.073609,0.23732,-13.14,-19.38,9.48
6.279,-2.2882,-8.3765,-0.078496,-0.033903,0.28497,-13.32,-19.26,9.42
5.8295,-2.438,-8.0496,-0.10904,-0.062614,0.19639,-13.38,-19.14,9.42
4.7671,-2.5061,-7.5865,-0.11606,-0.047953,0.15669,-13.44,-18.78,9.54
4.304,-2.4653,-7.6138,-0.051313,-0.080329,0.15424,-13.56,-18.48,9.36
7.1098,-2.6832,-8.717,-0.068111,-0.090103,0.15638,-13.56,-18.36,9.24
6.5786,-2.4244,-8.5944,-0.13744,-0.23763,0.072082,-13.56,-18.3,9.24
4.7944,-1.8387,-7.2733,-0.12492,-0.2419,0.061087,-13.62,-18.18,9.3
4.1814,-0.89894,-7.5865,-0.074831,-0.11912,-0.010079,-13.5,-18.18,9.24
8.3084,-2.7513,-7.3005,-0.26695,-0.27245,-0.062919,-13.38,-18.0,9.48
5.3528,-2.3427,-6.8919,-0.16738,-0.31643,-0.13867,-13.32,-17.88,9.48
5.5843,-2.4653,-7.7636,-0.13592,-0.343,-0.15882,-13.26,-17.82,9.6
6.0611,-2.6696,-7.9679,-0.18051,-0.31765,-0.13867,-13.14,-17.82,9.66
5.884,-2.7649,-7.7364,-0.12523,-0.23549,-0.18601,-12.96,-17.82,9.78
5.1621,-2.1248,-7.5048,-0.0061087,-0.27764,-0.18173,-12.84,-18.0,9.96
5.0259,-2.1929,-7.4912,0.043066,-0.20831,-0.20403,-12.54,-18.24,10.08
6.6604,-3.2144,-7.8045,0.064446,-0.27947,-0.15547,-12.42,-18.36,10.26
4.7807,-2.0431,-6.8238,0.17013,-0.24129,-0.12339,-12.3,-18.54,10.56
4.1678,-1.9205,-7.1915,0.18784,-0.14478,-0.1408,-12.24,-18.48,10.62
6.6467,-3.4732,-7.0009,-0.036346,-0.24587,-0.14111,-12.0,-18.48,10.92
4.1814,-1.9886,-6.9191,-0.014966,-0.12126,-0.19151,-11.82,-18.54,11.22
3.1735,-1.5936,-7.2188,0.0061087,-0.11026,-0.26328,-11.64,-18.54,11.4
6.5105,-2.9829,-8.3493,-0.11698,-0.20281,-0.25259,-11.46,-18.66,11.76
5.4345,-2.9148,-8.1177,-0.14294,-0.18326,-0.28894,-11.34,-18.78,11.88
2.656,-1.5119,-7.641,0.039706,-0.083689,-0.29474,-11.22,-18.9,12.0
6.2381,-2.5198,-8.7034,-0.023518,0.072693,-0.29444,-11.04,-18.96,12.36
8.1722,-3.1872,-8.2539,-0.12889,-0.13958,-0.23518,-11.04,-19.02,12.36
2.6151,-1.9341,-7.5457,0.097433,-0.12278,-0.1573,-10.98,-19.26,12.72
5.2575,-2.0839,-8.717,-0.0015272,0.033903,-0.14569,-10.8,-19.38,12.78
5.775,-2.4517,-7.0281,-0.027794,0.11912,-0.18082,-10.8,-19.38,12.9
5.2575,-1.7298,-7.4912,0.075442,-0.063835,-0.17868,-10.74,-19.5,13.02
5.6116,-2.1793,-8.3901,0.0281,-0.060476,-0.16432,-10.68,-19.74,13.38
5.598,-2.1929,-8.1041,-0.04948,0.080329,-0.25412,-10.68,-19.86,13.32
4.7671,-2.1112,-7.355,0.064446,0.087354,-0.14478,-10.68,-19.92,13.32
5.9657,-3.6094,-7.8589,0.03543,0.15821,-0.14325,-10.44,-20.16,13.5
6.3743,-3.3097,-7.9543,-0.045815,0.17074,-0.087354,-10.32,-20.22,13.5
3.732,-2.6423,-8.036,0.0030543,0.12584,-0.15608,-10.38,-20.34,13.62
4.127,-2.6151,-7.5593,0.088881,0.25412,-0.086743,-10.32,-20.52,13.68
5.4073,-2.3291,-7.355,0.0082467,0.33964,-0.10018,-10.32,-20.58,13.92
4.9987,-1.9886,-7.7636,0.08094,0.25015,-0.10171,-10.5,-20.52,13.86
5.0804,-2.261,-7.927,0.062003,0.20159,-0.086437,-10.5,-20.52,13.8
6.2245,-2.4244,-8.3357,0.034208,0.3375,-0.04215,-10.74,-20.64,13.74
7.1507,-3.2008,-7.6683,0.016188,0.24129,-0.019242,-10.98,-20.76,13.62
5.1894,-2.4108,-7.5048,0.11515,0.24221,0.027794,-11.04,-20.82,13.62
6.4424,-3.0918,-8.4855,0.11454,0.30329,-0.04612,-11.34,-21.0,13.44
6.96,-3.4596,-7.6002,0.072693,0.1066,0.026878,-11.4,-21.0,13.26
2.9556,-1.9613,-7.8317,0.18082,0.23396,0.06017,-11.76,-21.12,12.84
6.0611,-3.4459,-8.4719,-0.0082467,0.25168,0.092241,-12.06,-21.06,12.78
6.3471,-3.2825,-7.4503,-0.016188,0.31582,0.15211,-12.12,-21.06,12.54
5.9385,-3.2825,-7.8045,-0.01405,0.1799,0.069333,-12.3,-20.88,12.24
4.0589,-3.4187,-7.5457,-0.0012217,0.08827,0.058948,-12.48,-20.94,11.82
4.6582,-2.4925,-7.8317,-0.0051924,0.32742,0.054367,-12.6,-20.94,11.64
6.3743,-2.4108,-7.464,-0.04215,0.3824,0.11973,-12.72,-21.06,11.22
5.6661,-2.1248,-7.4367,-0.042761,0.36469,0.10751,-12.96,-21.06,10.98
7.3822,-2.9148,-8.6762,-0.098044,0.2865,0.090103,-13.08,-21.0,10.8
5.2575,-2.4244,-6.96,-0.11393,0.18845,0.090713,-13.14,-20.94,10.38
5.3392,-2.3018,-7.9407,-0.11026,0.23305,0.035125,-13.14,-21.0,10.14
6.4288,-2.6968,-7.8045,-0.18082,0.18173,0.13989,-13.26,-21.06,10.02
5.6524,-0.83084,-8.2812,-0.12278,0.31215,0.13867,-13.32,-21.06,9.72
5.884,-1.0215,-8.4719,-0.09896,0.25076,0.12645,-13.32,-21.06,9.66
6.17,-1.9341,-7.8045,-0.082467,0.21838,0.21166,-13.5,-21.06,9.48
6.9736,-2.261,-7.7636,-0.094379,-0.07758,0.14905,-13.8,-21.06,9.3
5.2711,-1.8387,-7.2733,-0.041233,-0.074831,0.19975,-13.92,-21.0,9.24
6.674,-1.8251,-8.4855,-0.044593,0.063225,0.16524,-13.92,-21.06,9.24
8.7715,-2.4517,-7.9407,-0.1967,-0.083994,0.14294,-14.22,-20.76,9.12
6.3198,-1.7706,-6.6331,-0.1576,-0.20159,0.1408,-14.28,-20.82,9.06
6.1836,-2.9829,-7.8998,-0.099266,-0.21686,0.098655,-14.28,-20.82,9.06
4.8625,-1.7706,-6.8647,-0.061392,-0.14233,0.1799,-14.46,-20.76,8.94
6.5105,-1.7025,-7.641,-0.06017,0.019242,0.09163,-14.52,-20.76,9.0
7.5184,-2.4108,-7.8317,-0.10201,-0.17074,0.092241,-14.64,-20.7,9.06
6.5786,-2.9829,-8.0769,-0.002138,-0.14813,0.19578,-14.7,-20.52,9.18
5.2847,-2.4108,-7.2188,-0.04612,-0.2364,0.17013,-14.7,-20.58,9.12
3.3642,-1.8932,-8.0496,0.03543,0.033292,0.30207,-14.58,-20.58,9.3
6.4833,-2.5606,-8.6353,-0.14386,-0.040928,0.19914,-14.46,-20.64,9.42
5.7614,-1.9886,-7.2869,-0.089797,-0.030238,0.2025,-14.16,-20.52,9.36
4.2223,-2.1929,-7.0281,-0.020159,-0.20342,0.19609,-14.16,-20.46,9.48
4.3449,-3.732,-8.5672,-0.050396,-0.061697,0.27917,-13.8,-20.46,9.72
6.8102,-3.2553,-7.4503,-0.16066,0.0027489,0.27031,-13.38,-20.22,9.66
3.5822,-0.40861,-7.0826,0.047647,0.015577,0.20036,-13.2,-20.16,9.72
6.4424,-2.3972,-7.75,0.047342,-0.12339,0.19609,-12.9,-19.98,9.84
7.4503,-2.3836,-7.7091,0.002138,-0.098349,0.31979,-12.78,-20.04,10.02
6.1292,-2.9692,-7.7364,0.0064141,-0.13775,0.26634,-12.54,-19.86,10.14
4.3177,-2.5061,-7.5729,-0.000611,-0.16463,0.32559,-12.3,-19.68,10.32
6.0202,-2.7377,-8.0496,-0.065363,-0.15363,0.26389,-12.24,-19.5,10.38
5.8023,-2.656,-8.3901,-0.12126,-0.23854,0.3091,-12.18,-19.38,10.44
4.4811,-1.9613,-7.8453,-0.083689,-0.1628,0.24251,-12.06,-19.08,10.74
6.4288,-2.8467,-8.4174,-0.13683,-0.30757,0.20128,-11.58,-18.84,10.74
4.8625,-3.1463,-7.1234,-0.060476,-0.20433,0.33598,-11.7,-18.6,10.92
6.0611,-3.0101,-8.2539,-0.042761,-0.21961,0.25381,-11.58,-18.48,11.46
5.0804,-2.6968,-7.3005,-0.000916,-0.16952,0.29749,-11.52,-18.3,11.28
5.7069,-3.2144,-8.1177,0.000611,-0.14966,0.25931,-11.34,-17.82,11.64
6.0747,-2.9965,-7.3686,-0.037874,-0.27275,0.15669,-11.34,-17.7,11.88
5.0395,-2.152,-7.7772,0.053756,-0.2022,0.000611,-11.34,-17.4,12.06
6.8919,-2.4925,-7.8317,-0.032681,-0.32742,-0.01741,-11.22,-17.46,12.12
5.4754,-2.7241,-7.641,-0.098349,-0.22266,-0.11423,-11.46,-17.34,12.6
5.2711,-2.5606,-7.3822,-0.058032,-0.30146,-0.15363,-11.46,-17.28,12.66
5.6933,-3.2553,-7.9679,-0.069333,-0.24465,-0.15455,-11.52,-17.28,12.9
5.7205,-3.2825,-7.8589,-0.17746,-0.31826,-0.14844,-11.34,-17.34,13.08
3.8546,-2.3155,-6.8919,-0.065363,-0.16677,-0.12431,-11.4,-17.34,13.32
4.1406,-2.7241,-7.7636,-0.036652,-0.15302,-0.096517,-11.28,-17.34,13.62
6.279,-3.732,-7.8589,-0.18051,-0.25534,-0.16952,-11.34,-17.58,13.8
4.7671,-2.7649,-7.0281,-0.0033598,-0.15424,-0.219,-11.28,-17.64,13.98
3.5822,-2.1112,-7.2324,0.034514,-0.091019,-0.13103,-11.28,-17.88,14.1
5.9657,-3.0646,-8.1858,-0.076664,-0.10721,-0.19731,-11.1,-18.12,14.58
6.5922,-3.6094,-8.0496,-0.12431,-0.12278,-0.22419,-11.1,-18.12,14.82
4.3449,-2.9965,-7.0417,-0.023824,-0.22816,-0.21869,-11.04,-18.18,15.06
3.6775,-2.9011,-7.246,0.0094684,-0.11026,-0.18906,-10.74,-18.36,15.54
4.5083,-1.7979,-7.6819,0.0051924,0.043066,-0.16799,-10.62,-18.42,15.6
5.7614,-2.5334,-8.3357,-0.063835,-0.072693,-0.23121,-10.56,-18.48,15.78
6.96,-3.5822,-8.6081,-0.11637,-0.2022,-0.26634,-10.56,-18.66,15.96
2.0294,-1.4301,-6.6059,0.080023,0.0015272,-0.20983,-10.32,-18.72,16.14
6.279,-2.5879,-8.7306,0.0033598,0.075442,-0.27153,-10.38,-18.9,16.26
7.927,-4.0589,-8.0905,-0.1741,-0.15424,-0.28741,-10.32,-19.02,16.44
5.7478,-3.3097,-8.4038,-0.061392,-0.06689,-0.33323,-10.14,-19.26,16.62
3.7728,-1.4574,-6.7966,-0.043371,-0.12859,-0.3824,-10.14,-19.26,16.74
4.3858,-2.6968,-8.8941,-0.10537,0.014661,-0.39828,-10.14,-19.32,16.68
5.3937,-2.0158,-7.9407,-0.034819,0.11912,-0.37721,-10.14,-19.5,16.74
5.2302,-2.1248,-7.5593,0.044288,0.025962,-0.38026,-10.2,-19.62,16.68
6.279,-3.8001,-8.3765,-0.035736,-0.13225,-0.31398,-10.26,-19.86,16.8
3.6775,-1.8387,-7.7091,-0.040012,-0.089797,-0.28375,-10.26,-20.22,16.62
3.6911,-1.4301,-7.75,0.087659,0.24282,-0.29627,-10.2,-20.46,16.62
5.8023,-2.2201,-7.9951,0.055589,0.22419,-0.2926,-10.14,-20.4,16.68
5.7342,-3.2008,-7.4231,0.024129,0.076664,-0.27581,-10.26,-20.76,16.74
6.0611,-3.5822,-7.3822,0.020769,0.10476,-0.27978,-10.14,-20.82,16.74
5.8159,-3.4187,-7.3005,0.067501,0.077274,-0.31704,-10.08,-20.82,16.62
5.8704,-3.5958,-7.9407,0.07025,0.048564,-0.32406,-10.14,-21.06,16.56
5.9249,-3.4323,-7.7091,0.0956,-0.020464,-0.27275,-9.9,-21.18,16.44
3.7456,-1.8932,-7.5048,0.14997,0.16524,-0.21625,-9.84,-21.36,16.5
6.2245,-2.7377,-8.9622,0.075747,0.1628,-0.16799,-9.66,-21.54,16.44
7.069,-2.3155,-7.5865,-0.010996,0.16005,-0.27092,-9.42,-21.66,16.5
5.1349,-1.4438,-7.6138,0.073304,0.07086,-0.31857,-9.42,-21.72,16.38
5.2711,-2.1248,-8.1177,0.13775,0.053756,-0.19823,-9.54,-21.78,16.32
5.884,-2.438,-8.3084,-0.038485,0.18601,-0.17349,-9.48,-21.84,16.38
6.4424,-2.3155,-7.5048,-0.079107,0.1799,-0.22327,-9.42,-22.02,16.08
5.8976,-3.3642,-7.927,-0.096211,-0.11668,-0.20647,-9.48,-22.08,15.96
5.2847,-3.2553,-7.4231,-0.027489,0.0033598,-0.15821,-9.42,-22.14,15.78
5.2575,-2.152,-8.0224,0.0015272,0.053451,-0.1686,-9.54,-22.14,15.66
5.7886,-2.2474,-8.6081,0.037874,0.088881,-0.13347,-9.66,-22.32,15.6
6.17,-2.2065,-8.4719,-0.0027489,0.078496,-0.14752,-9.72,-22.44,15.48
5.4209,-1.5391,-8.0632,0.032376,0.092852,-0.12248,-9.78,-22.62,15.54
4.5083,-1.8387,-8.2812,0.10415,0.069333,-0.010385,-9.84,-22.74,15.3
5.4481,-1.58,-7.8589,0.084605,0.22297,0.04612,-9.9,-22.62,15.24
6.9055,-2.3972,-8.0769,0.022907,0.13958,0.024435,-9.9,-22.8,15.24
6.565,-1.8387,-7.7227,0.03207,-0.032987,-0.007025,-9.96,-22.98,15.24
5.8704,-2.5879,-7.9543,0.03146,-0.22174,-0.0067195,-9.9,-23.1,14.76
4.2223,-1.3348,-8.3493,0.0024435,-0.029322,-0.061087,-9.96,-22.98,14.82
6.17,-1.8387,-9.221,-0.059254,0.038485,-0.022907,-9.84,-22.98,14.7
7.4776,-2.2201,-7.641,-0.052534,-0.026267,-0.023213,-9.78,-23.04,14.76
3.9908,-1.0488,-8.1177,0.043066,0.023518,0.021991,-9.78,-23.22,15.0
6.0611,-1.7843,-7.8181,-0.026267,0.015882,0.076664,-9.6,-23.22,14.94
6.3471,-2.0975,-7.6683,0.009163,0.16554,0.13714,-9.54,-23.28,14.82
6.4833,-1.8387,-7.9951,0.038485,0.035736,0.16341,-9.48,-23.16,14.64
5.3528,-2.547,-7.6138,0.034514,-0.15944,0.14997,-9.6,-23.16,14.7
4.8352,-1.6344,-7.4367,0.000611,-0.030543,0.17257,-9.6,-23.1,14.64
5.4073,-2.2882,-7.3958,-0.097738,-0.16738,0.077885,-9.54,-23.1,14.7
4.1406,-1.2395,-7.3958,-0.0024435,0.064446,0.16341,-9.54,-23.04,14.7
6.0883,-2.3018,-8.4855,-0.043982,-0.10934,0.14416,-9.48,-23.04,14.82
6.7829,-2.6968,-7.4503,-0.045815,-0.086132,0.13897,-9.48,-23.1,15.06
5.2847,-1.975,-7.9951,0.041539,-0.026878,0.12339,-9.42,-23.22,15.18
4.0316,-1.9886,-7.8998,0.062919,-0.13347,0.18173,-9.36,-23.22,15.24
6.2654,-2.4517,-7.8181,-0.021991,0.011912,0.18265,-9.36,-23.34,15.18
5.4754,-1.8115,-7.5729,-0.0045815,0.0073304,0.079107,-9.42,-23.16,15.3
5.9521,-2.5606,-8.4719,-0.066584,-0.23915,0.0042761,-9.36,-23.1,15.42
5.2847,-2.2882,-8.3493,-0.086743,-0.097128,-0.02138,-9.12,-22.98,15.48
7.3141,-3.9227,-10.801,-0.23793,-0.39737,-0.072082,-9.0,-23.1,15.54
4.9169,-1.7298,-5.884,0.063835,-0.11576,0.020769,-9.06,-23.04,15.66
7.641,-1.6344,-10.243,-0.085521,-0.14722,0.049786,-9.06,-23.04,15.66
3.6094,-1.7025,-8.1177,0.098044,-0.043371,0.32162,-8.94,-23.04,15.66
9.0984,-3.0782,-5.9793,0.088881,0.10934,0.15699,-8.82,-23.1,15.6
4.5083,-3.4051,-6.9055,0.20831,-0.12309,0.24587,-8.94,-23.1,15.78
4.5083,-3.4051,-6.9055,0.13103,-0.42455,0.09163,-8.94,-23.1,15.78
4.4402,-1.58,-8.3901,0.15363,0.019242,0.17562,-9.0,-22.98,15.9
7.2733,-2.2746,-7.8453,-0.053451,-0.17623,0.0039706,-8.94,-22.8,15.9
4.9987,-2.4789,-7.0145,-0.12889,-0.35461,0.029932,-8.76,-22.8,16.2
4.6445,-3.2689,-7.6683,-0.061087,-0.21411,-0.065973,-8.76,-22.8,16.38
5.5299,-3.3642,-8.7579,-0.12278,-0.23274,-0.12339,-8.88,-22.8,16.44
5.7069,-2.5061,-8.6217,-0.098655,-0.11423,-0.11393,-8.82,-22.68,16.62
4.7671,-2.7649,-8.6081,-0.049175,-0.051924,-0.19395,-8.82,-22.68,16.68
4.4811,-3.1599,-7.6002,0.055589,-0.018021,-0.050091,-8.7,-22.62,16.74
4.5628,-2.152,-7.2733,0.10507,0.13195,-0.05681,-8.7,-22.62,17.16
4.7671,-2.0158,-7.7636,0.15363,0.16677,0.054367,-8.88,-22.74,17.22
5.4618,-3.6775,-7.6683,0.074526,0.091019,0.048869,-8.94,-22.68,17.64
4.1542,-2.7649,-7.1643,0.0067195,0.12553,0.18418,-9.0,-22.74,17.64
3.2008,-2.3155,-7.0553,0.071777,0.28344,0.25931,-9.12,-22.74,17.64
5.0531,-2.7649,-8.5672,-0.051618,0.16738,0.23854,-9.24,-22.8,17.76
3.4868,-2.5742,-6.9872,-0.10965,0.091324,0.21197,-9.36,-22.86,17.58
3.8954,-2.2201,-7.9815,0.016493,0.35247,0.27489,-9.48,-22.92,17.52
5.5162,-3.2553,-8.5808,-0.054062,0.16493,0.21625,-9.42,-22.98,17.58
5.8567,-2.438,-7.75,-0.06689,0.18295,0.15455,-9.54,-23.04,17.58
5.0531,-2.0975,-7.0553,0.057116,0.24465,0.087965,-9.78,-23.16,17.52
5.0395,-2.0703,-7.6002,0.06353,0.21502,0.12034,-10.08,-23.28,17.64
7.8317,-3.0918,-8.6625,-0.10843,0.10965,-0.029016,-10.26,-23.34,17.4
5.598,-2.1929,-7.1507,-0.06017,0.029932,-0.000916,-10.32,-23.16,17.28
5.4754,-2.2201,-7.9951,-0.025656,0.097433,-0.061392,-10.38,-22.98,16.98
6.3471,-1.6753,-8.2948,-0.019853,0.10904,-0.044288,-10.56,-22.8,16.68
7.2052,-2.6696,-7.8181,-0.052534,0.058338,-0.17379,-10.62,-22.74,16.68
5.203,-2.3018,-7.75,0.042761,-0.095906,-0.075136,-10.8,-22.8,16.44
5.4345,-2.7241,-8.0496,-0.0018326,-0.044288,-0.16249,-10.92,-22.8,16.26
5.7478,-2.4244,-7.75,-0.036346,-0.076969,-0.17685,-11.22,-22.8,15.9
6.1292,-2.6015,-8.0905,0.012217,-0.072082,-0.25351,-11.4,-22.8,15.9
4.0997,-2.0975,-7.4095,0.081245,-0.15241,-0.23732,-11.52,-22.92,15.48
6.7966,-3.4051,-8.3493,0.057116,-0.044899,-0.27061,-11.58,-22.98,15.42
6.7693,-3.0646,-7.7636,0.044288,-0.14233,-0.24526,-11.46,-23.1,15.0
4.9033,-2.0839,-7.7091,0.099266,0.0030543,-0.26756,-11.28,-22.92,14.82
5.8976,-2.7377,-7.8181,0.027794,-0.062614,-0.21961,-11.28,-22.92,14.64
6.3062,-3.4459,-7.1234,-0.049786,-0.050702,-0.25565,-11.22,-23.04,14.46
5.2711,-4.0452,-7.5865,-0.039706,-0.055283,-0.27458,-10.98,-23.16,14.1
4.413,-3.7865,-7.2188,-0.034514,-0.17746,-0.27947,-10.92,-23.4,13.92
4.9169,-2.9148,-8.1041,-0.039706,0.06017,-0.30696,-10.8,-23.4,13.74
6.1564,-3.5004,-8.0769,-0.08827,-0.090713,-0.28008,-10.38,-23.64,13.62
3.8954,-2.0839,-7.246,0.0039706,0.039706,-0.26481,-10.14,-23.76,13.5
4.6445,-1.2531,-7.6819,0.027489,0.12309,-0.29505,-9.84,-23.82,13.2
5.3664,-1.8387,-7.0962,0.036957,0.1689,-0.12584,-9.78,-23.94,13.02
7.2733,-3.0918,-8.2267,-0.032987,0.046426,-0.15944,-9.78,-23.94,12.78
7.6002,-3.8001,-8.0632,-0.082467,-0.17593,-0.15577,-9.6,-23.94,12.72
4.2223,-2.1793,-7.9407,-0.051924,-0.079412,-0.1408,-9.66,-24.12,12.66
6.0611,-1.6072,-8.4446,-0.048564,-0.03207,-0.15974,-9.42,-24.54,12.24
6.0747,-1.7706,-8.3629,-0.026267,0.032987,-0.09163,-9.36,-24.6,12.24
7.1234,-3.1191,-8.0088,-0.051924,-0.039706,-0.065973,-9.24,-24.84,12.24
4.0044,-1.4165,-7.7091,0.031154,-0.040012,-0.083078,-9.3,-25.08,12.36
4.8897,-1.1441,-7.7091,0.13561,0.067806,0.0033598,-9.24,-25.2,12.3
5.8976,-1.58,-8.1858,0.085521,0.03207,0.053756,-9.3,-25.26,12.48
7.2188,-2.5742,-7.4912,0.019853,0.0079412,0.040012,-9.42,-25.44,12.3
4.6445,-1.9205,-6.8374,0.11942,-0.16524,0.032987,-9.48,-25.44,12.3
4.1542,-1.6481,-7.8589,0.17929,-0.12004,0.091019,-9.54,-25.38,12.18
7.0145,-2.8467,-8.322,-0.0061087,0.053756,0.15272,-9.42,-25.44,12.24
7.6546,-3.3778,-8.3765,-0.06017,-0.030849,0.15088,-9.6,-25.44,12.24
3.3097,-2.3427,-7.5048,-0.0027489,-0.13347,0.10232,-9.66,-25.26,12.18
4.413,-2.4108,-8.7306,-0.018326,-0.12034,0.10751,-9.78,-25.26,12.18
5.203,-1.7434,-7.8453,-0.048564,0.051618,0.12004,-9.78,-25.2,12.18
7.1371,-3.5277,-8.2267,0.0027489,0.11729,0.22266,-9.78,-25.08,11.94
5.4754,-3.0918,-7.1915,0.03146,-0.1011,0.18692,-9.72,-25.08,11.76
3.623,-1.975,-6.6195,0.1631,0.035125,0.21808,-9.84,-25.14,11.76
6.456,-1.4029,-8.4174,0.10476,0.097128,0.24465,-9.9,-24.84,11.64
6.7148,-2.2065,-7.5729,0.05681,0.077274,0.27611,-9.9,-24.72,11.7
8.2131,-3.6639,-7.8453,-0.066584,-0.13042,0.19517,-9.96,-24.66,11.76
2.7241,-2.8739,-7.1507,0.0058032,-0.10812,0.21533,-9.78,-24.36,11.64
6.2245,-3.8682,-9.4798,-0.13592,-0.1179,0.063225,-9.84,-24.3,11.64
6.6195,-2.5742,-8.8941,-0.1689,-0.089797,0.079107,-9.78,-24.18,11.58
5.2166,-1.9068,-8.4719,0.061697,-0.12737,0.083383,-9.54,-24.0,11.52
4.4539,-1.4982,-7.9951,0.15211,-0.1628,0.11881,-9.48,-23.88,11.46
5.094,-1.4165,-8.0224,0.15027,-0.061697,0.15241,-9.66,-23.7,11.46
5.3937,-3.732,-7.641,0.04215,-0.18967,0.23946,-9.66,-23.04,11.52
4.9987,-3.4732,-6.8374,-0.0027489,-0.23274,0.21472,-9.78,-22.92,11.58
3.5413,-2.9556,-7.641,0.011606,-0.18662,0.16646,-9.72,-22.62,11.64
5.3119,-1.866,-7.7091,-0.13561,-0.15272,0.080023,-9.66,-22.26,11.46
5.4073,-1.362,-8.826,-0.1182,-0.13256,-0.0024435,-9.66,-21.96,11.34
7.3277,-3.7047,-7.8589,-0.19273,-0.26359,-0.051618,-9.72,-21.78,11.46
4.4402,-3.6366,-7.8862,-0.034208,-0.15363,-0.072998,-9.72,-21.66,11.7
5.7069,-2.9965,-7.9407,-0.13256,-0.12248,-0.12065,-9.66,-21.6,11.76
5.203,-2.7377,-8.0224,-0.09896,-0.083994,-0.10537,-9.6,-21.6,11.94
4.6718,-2.7104,-6.7421,-0.098655,-0.14416,-0.12645,-9.78,-21.36,12.18
2.833,-1.9068,-6.8238,0.14539,0.033598,-0.014966,-9.72,-21.36,12.36
4.6718,-2.3972,-7.641,0.12553,0.16188,-0.030849,-9.66,-21.24,12.48
5.8295,-3.0918,-6.7693,-0.062614,-0.095295,-0.058338,-9.54,-21.3,12.84
4.2223,-2.4108,-7.5729,-0.030543,-0.05284,-0.057421,-9.54,-21.24,12.96
5.094,-3.732,-8.3629,-0.090103,-0.1295,-0.039706,-9.6,-21.18,13.08
4.5083,-3.4051,-8.5808,-0.17776,0.0018326,-0.009163,-9.6,-21.24,13.44
4.2223,-2.9965,-8.1722,-0.12981,0.12187,-0.020464,-9.6,-21.3,13.74
5.489,-2.6423,-8.322,-0.019853,0.18418,0.041233,-9.6,-21.06,13.86
5.7342,-2.6423,-8.4038,-0.013744,0.084605,-0.02474,-9.66,-21.24,13.8
4.2495,-1.9886,-7.464,0.072998,0.13653,0.016188,-9.66,-21.18,13.92
7.1643,-3.7728,-8.4038,0.058032,0.18937,0.029627,-9.84,-21.0,13.86
6.0202,-3.1599,-6.851,-0.14813,0.087354,-0.05284,-9.78,-21.0,13.86
3.7728,-1.9613,-7.0281,-0.023213,0.17654,-0.017104,-9.96,-20.88,13.8
5.6116,-2.5061,-7.9679,-0.055283,0.18051,0.044593,-10.2,-21.06,13.68
6.4288,-2.3018,-8.0632,-0.10629,0.28222,-0.067806,-10.44,-21.0,13.62
5.2983,-2.2201,-7.6274,-0.027184,0.044288,-0.096211,-10.5,-21.0,13.5
5.6661,-2.1929,-8.4446,-0.0067195,0.090408,-0.16554,-10.44,-20.94,13.56
6.4833,-2.9692,-9.1529,-0.056505,0.036652,-0.12828,-10.44,-21.0,13.62
4.3177,-2.0294,-7.6546,0.007025,0.15547,-0.096822,-10.62,-20.94,13.56
6.5378,-2.6968,-8.2131,0.031154,0.10599,-0.12584,-10.68,-21.06,13.38
6.1564,-2.8194,-7.9679,-0.027794,-0.011912,-0.12217,-10.8,-21.0,13.32
4.9169,-2.547,-7.6138,0.0012217,0.056505,-0.1686,-10.98,-20.94,13.2
4.9033,-1.9886,-7.7091,-0.029627,0.038485,-0.18234,-10.92,-21.06,13.32
6.1836,-2.7649,-7.8453,-0.024435,0.1127,-0.15272,-11.04,-21.06,13.38
6.9736,-3.337,-8.4038,-0.10721,-0.10507,-0.21564,-10.98,-21.0,13.38
4.4675,-2.6423,-7.5729,-0.020464,0.0045815,-0.20097,-10.8,-20.94,13.2
5.094,-2.7104,-7.9134,-0.01069,0.14233,-0.17807,-10.62,-21.06,13.14
6.5378,-2.9011,-7.7227,-0.015882,0.13042,-0.20097,-10.68,-21.0,13.02
5.775,-3.2416,-8.4991,0.057727,0.098655,-0.20189,-10.8,-20.88,12.84
7.3141,-4.0589,-8.1858,-0.069333,-0.16005,-0.23152,-10.86,-20.94,12.66
3.8409,-2.3563,-7.4095,0.021991,0.072082,-0.20067,-10.8,-20.94,12.6
5.38,-2.3972,-8.1177,0.019853,0.095295,-0.18662,-10.8,-20.7,12.72
6.0883,-2.4653,-7.2324,-0.014661,0.14783,-0.11606,-10.68,-20.7,12.66
5.9112,-2.3018,-7.7772,-0.021991,0.0073304,-0.23671,-10.5,-20.52,12.6
6.1155,-2.0703,-7.1507,-0.03207,0.081245,-0.20556,-10.44,-20.4,12.54
6.8647,-3.4596,-8.0496,-0.007025,0.080634,-0.18448,-10.38,-20.4,12.42
7.2052,-3.6366,-7.5321,-0.13897,-0.023213,-0.22449,-10.38,-20.46,12.48
3.7184,-1.3484,-7.1098,-0.04215,0.098349,-0.27061,-10.38,-20.28,12.36
6.9872,-3.228,-9.1937,-0.12309,-0.10476,-0.27855,-10.44,-20.22,12.36
7.0826,-0.76274,-7.641,-0.15424,-0.12737,-0.18906,-10.32,-20.28,12.48
5.4618,-2.5742,-9.0167,0.0076358,0.13989,-0.14813,-10.14,-20.52,12.66
7.0281,-2.6696,-8.3493,-0.09896,-0.058032,-0.090713,-10.14,-20.46,12.72
5.2847,-2.0703,-7.5865,-0.022907,0.197,-0.072388,-10.02,-20.58,12.66
6.3879,-2.7241,-7.5321,-0.043066,-0.17287,-0.11912,-10.2,-20.82,12.78
4.3449,-2.0022,-7.355,0.0097738,0.075136,0.0051924,-10.08,-20.94,12.9
3.3642,-0.12258,-7.6546,0.16432,0.26725,0.012217,-10.14,-21.06,12.84
6.3607,-2.6015,-8.4174,0.10904,0.28619,0.11545,-10.14,-21.36,12.96
9.5751,-3.7592,-7.355,-0.043371,0.0064141,0.20006,-10.2,-21.54,13.02
6.9464,-2.0294,-6.2926,0.091019,0.0036652,0.058032,-10.26,-21.66,12.96
2.9011,-2.0158,-8.8941,0.15638,-0.25412,0.16616,-10.26,-21.72,13.08
7.0962,-3.7047,-9.4798,-0.091019,-0.20861,0.24587,-10.08,-21.72,13.08
7.5729,-3.0101,-7.355,-0.135,0.14844,0.20617,-10.14,-21.72,13.14
3.3234,-0.7355,-8.1995,0.25076,-0.07086,0.18173,-10.14,-21.6,13.14
7.5048,-3.1054,-10.297,0.10354,-0.17135,0.27519,-10.14,-21.6,13.14
7.3822,-3.228,-8.0632,0.058338,-0.080023,0.27245,-10.02,-21.42,13.14
3.3642,-1.9205,-6.9872,0.26542,0.1182,0.37538,-9.66,-21.0,12.9
4.8352,-1.8387,-7.7364,0.21014,-0.069333,0.25351,-9.72,-20.76,12.9
7.641,-3.4459,-7.2596,0.031765,-0.016493,0.31032,-9.66,-20.46,12.84
3.5277,-2.152,-7.0553,0.071777,0.025045,0.30727,-9.6,-19.92,12.84
5.8976,-3.3097,-8.4038,-0.047037,-0.12675,0.1631,-9.42,-19.56,12.78
6.5786,-3.6366,-8.0769,-0.10415,-0.13897,0.24007,-9.24,-19.38,12.84
4.7263,-2.152,-7.8726,-0.03543,0.090713,0.24709,-9.12,-19.26,12.9
6.279,-3.0646,-8.322,-0.069028,-0.10476,0.28375,-9.18,-18.84,12.84
4.8488,-3.3778,-8.2267,0.010996,0.020769,0.39645,-9.06,-18.54,12.96
4.9306,-2.8467,-6.3471,0.11729,0.12614,0.40225,-8.7,-18.12,12.96
6.0202,-2.3155,-8.9758,0.17165,0.14233,0.43371,-8.64,-17.94,12.84
6.9328,-3.6911,-7.1915,-0.071471,-0.046731,0.31276,-8.58,-17.76,12.96
4.2495,-2.0567,-6.5378,0.014966,0.072388,0.31337,-8.46,-17.64,13.14
5.9385,-4.5083,-6.8919,-0.10263,-0.088575,0.27825,-8.52,-17.52,13.08
4.3177,-2.4925,-6.96,-0.13134,-0.0012217,0.21411,-8.58,-17.46,13.26
5.2847,-2.1384,-7.9679,-0.19823,-0.0076358,0.13103,-8.52,-17.46,13.32
4.6445,-3.0373,-7.3958,-0.18295,-0.074831,0.208,-8.64,-17.28,13.44
