Ax,Ay,Az,Gx,Gy,Gz,Mx,My,Mz
5.6116,-3.2825,-4.5764,0.47342,0.25534,-0.040012,-16.56,29.1,17.22
4.7399,-2.547,-5.0531,0.28863,0.1069,-0.13042,-16.62,29.1,17.16
5.993,-4.7807,-4.1542,0.16066,0.03146,-0.065973,-16.62,29.16,16.92
7.3414,-3.3778,-6.3743,-0.080329,-0.29474,-0.24648,-16.68,29.4,16.56
6.8647,-1.9477,-5.9793,-0.17135,-0.027184,-0.029016,-16.74,29.46,16.5
8.0632,-2.547,-5.7886,-0.058032,-0.071166,0.15913,-16.86,29.52,16.14
11.645,-9.9973,-8.1858,-0.095295,-0.1744,0.31062,-16.92,29.52,15.6
5.6661,-16.794,-6.2381,0.076358,-0.65271,0.33811,-16.86,29.7,15.42
1.7025,-4.9033,-9.4389,0.18906,0.45173,0.0097738,-16.68,29.82,15.12
4.699,-4.6582,-3.9908,0.26176,0.000305,0.3372,-16.5,30.06,14.52
-0.68102,5.8295,-8.3901,0.45509,0.63225,0.53573,-16.5,30.06,14.34
9.5479,3.1191,-8.6625,0.27214,0.5565,0.57269,-16.38,29.94,14.04
-3.1191,-18.605,-3.5822,0.34758,-1.1961,0.92057,-16.08,30.12,13.86
-8.1041,6.6876,-8.0632,0.090103,0.59315,0.11973,-16.08,30.06,13.62
7.7636,5.2166,-6.5514,-0.17776,0.20281,-0.60445,-15.9,30.06,13.56
9.6977,-11.754,-8.3493,-0.088881,-0.062003,0.55467,-15.84,30.12,13.32
1.3212,-2.4789,-5.6116,-0.50641,-0.70402,-0.24312,-15.78,30.24,13.2
-0.96704,1.1305,-3.3915,-0.41753,0.30574,-0.08094,-15.66,30.18,13.38
8.1995,-3.1191,-4.9442,-0.14294,-0.32956,-0.12431,-15.48,30.24,13.44
10.025,-6.279,-7.9815,-0.66432,-0.67898,-0.49083,-15.18,30.3,13.26
1.9613,-2.4517,-5.1894,-0.40042,-0.026573,-0.12401,-15.18,30.3,13.2
6.1428,-2.5606,-6.7285,-0.27367,-0.33628,-0.011606,-15.06,30.18,13.26
3.8818,-2.5198,-4.6854,-0.18479,-0.40012,0.10812,-14.94,30.18,13.26
16.058,-12.122,-5.6797,0.21564,-0.39523,-0.2025,-14.94,30.12,13.38
7.2869,-8.6762,-8.3357,0.30329,-0.37904,0.17623,-14.88,30.0,13.56
10.27,-6.6331,-11.032,-0.052534,-0.11179,-0.22602,-15.06,29.94,13.86
1.1441,-13.021,-1.0624,0.41966,-0.21564,0.59834,-15.18,29.88,14.04
-0.36775,4.1951,-10.637,0.20831,0.35919,-0.31368,-14.94,29.94,14.34
12.83,-6.0747,-0.49033,0.44288,0.11851,0.41936,-15.0,29.7,14.46
-0.43585,-5.3392,-5.7069,0.58063,-0.37446,0.52107,-14.88,29.7,14.52
2.1384,-4.1406,-9.4389,0.25717,-0.4215,-0.044899,-14.76,29.64,14.34
5.38,-3.2825,-4.5083,-0.04612,0.13286,0.1011,-14.64,29.76,14.4
5.6116,-2.7649,-5.2575,-0.089492,-0.1124,-0.16463,-14.7,29.76,14.4
5.2847,-4.5492,-3.2553,-0.07758,0.24801,-0.12798,-14.7,29.94,14.34
6.3198,-4.7399,-4.5628,-0.22419,0.14203,-0.34239,-14.76,30.24,14.22
8.2948,-4.7399,-5.775,-0.32467,0.22419,-0.49511,-14.7,30.36,14.16
5.9249,1.1441,-6.7421,-0.39737,0.34819,-0.45173,-14.82,30.42,14.04
10.91,-8.5944,-6.0611,-0.54123,0.019853,-0.31734,-14.82,30.48,13.86
3.8273,-7.5457,-7.8045,-0.65301,-0.036346,-0.13897,-14.82,30.36,13.86
4.9033,-5.6388,-6.279,-0.71716,0.32529,-0.35919,-15.0,30.3,13.86
3.9908,-2.0294,-7.1915,-0.17257,0.78954,0.45082,-15.3,30.12,13.92
10.12,-7.6274,-8.0905,-0.10293,0.52718,0.44868,-15.48,30.06,13.8
9.3436,-11.06,-8.0496,0.015577,0.20678,0.51191,-15.6,29.94,13.98
-0.99429,-5.5162,-3.6366,0.18357,0.091019,-0.086132,-15.96,29.88,14.04
2.4517,3.2961,-7.6683,0.2251,0.82467,-0.44502,-16.02,29.82,14.1
6.2109,0.47671,-3.9771,0.35491,0.81917,-0.04612,-16.2,29.7,14.1
9.9156,-8.8668,-7.5184,0.53848,0.5507,-0.04948,-16.56,29.4,13.98
13.838,-15.064,-7.8453,-0.030849,-0.91966,-0.77794,-16.62,29.4,13.92
-2.2065,-5.203,-4.1542,-0.055283,0.6744,-0.35522,-16.68,29.22,13.62
6.2517,4.522,-6.4424,-0.10965,0.37843,-0.66187,-16.86,29.04,13.56
10.256,3.2144,-7.1507,-0.15058,0.35094,-0.069944,-17.16,29.1,13.38
14.247,-5.4754,-4.9714,-0.07758,-0.10415,0.12981,-17.4,28.98,13.26
-3.6503,-0.42223,-7.246,0.09163,0.043066,0.47892,-17.58,28.92,13.08
11.264,-3.6366,-6.279,-0.11637,0.37813,-0.037263,-17.64,28.86,12.9
17.475,-8.5672,-6.4152,0.09896,-0.52504,0.11179,-17.7,28.8,12.66
8.2267,-5.775,-11.169,-0.2303,-0.17654,0.029016,-18.0,28.68,12.42
2.6832,-7.9134,-2.3972,-0.12126,0.048564,0.30543,-18.06,28.44,12.42
-0.57205,0.19068,-5.5299,0.14691,0.27733,0.4383,-18.0,28.2,12.24
12.408,-4.3994,-6.8919,-0.13225,-0.090103,0.24251,-17.94,28.32,12.18
7.4912,-10.637,-6.5922,0.028405,-0.20556,0.82192,-18.12,28.2,12.18
0.24517,-5.3664,-7.0417,0.064752,-0.097738,0.67287,-17.88,28.38,12.3
2.8467,2.0567,-6.8238,0.047647,0.46884,0.82314,-17.76,28.62,12.18
4.6309,-8.9486,-6.456,0.41692,-0.1347,1.3399,-17.22,28.98,12.18
6.5378,-7.4776,-7.5321,0.26878,-0.12187,0.76389,-16.86,29.22,12.0
4.5356,-2.1384,-5.7342,0.2587,0.012523,0.72296,-16.62,29.58,11.94
6.2517,-6.3335,-6.6331,0.15272,-0.33537,0.3766,-15.84,30.18,11.88
7.0417,-5.4073,-8.3084,-0.081551,-0.46914,0.065973,-15.54,30.54,11.88
4.4811,-6.2517,-5.3528,-0.405,-0.39645,-0.10996,-15.18,30.72,11.88
5.6116,-3.8954,-4.6854,-0.53329,-0.47586,-0.55589,-14.46,31.26,11.64
9.1529,-14.029,-4.3585,-0.63438,-0.77213,-0.6634,-14.28,31.56,11.7
9.1529,-0.1362,-4.2359,-0.4218,-0.27306,-0.62247,-13.98,31.62,11.7
14.206,2.0703,-1.362,-0.34392,0.23213,-0.25687,-13.62,31.8,12.12
9.9973,-8.4719,-4.3585,0.27,-0.8375,0.32834,-13.56,31.8,12.18
1.4982,-2.4517,-10.134,0.28619,-1.0843,0.43158,-13.56,31.8,12.36
-0.39499,-8.4991,-2.7377,0.064141,-0.81062,0.060781,-13.44,31.8,12.54
2.547,1.1305,-9.8203,0.16157,0.14203,-0.25687,-13.44,31.68,12.66
12.994,-4.699,-7.7772,-0.027184,-0.50855,-0.6408,-13.56,31.56,12.78
4.2495,3.0918,-8.8668,0.15333,0.22419,-0.43402,-13.74,31.44,13.26
14.519,-2.833,-4.5901,-0.1686,-0.054062,-0.34667,-13.86,31.26,13.44
8.5808,-9.0303,-3.0646,-0.10996,-0.21533,0.078496,-13.98,31.2,13.68
2.3155,-3.5685,-7.4503,-0.55772,-0.44318,-0.30971,-14.22,30.96,14.1
6.2517,-1.9613,-4.9578,-0.49572,0.35033,-0.20006,-14.16,30.84,14.16
7.8726,-5.2575,-5.4073,-0.17104,0.044288,-0.021686,-14.34,30.84,14.28
6.9872,-10.937,-5.8976,-0.15424,-0.086743,-0.22633,-14.4,30.6,14.4
4.7263,-4.9714,-6.4016,-0.069028,0.34728,-0.35552,-14.4,30.54,14.46
8.1858,0.98067,-9.4117,-0.11026,0.29719,-0.24893,-14.34,30.36,14.64
0.42223,1.9068,-5.3392,0.076664,0.54825,0.24435,-14.28,30.12,14.7
9.7658,-7.3005,-5.3664,-0.02474,0.7254,0.16677,-14.34,30.24,14.82
7.1234,-14.465,-3.8546,0.074831,-0.2981,0.29138,-14.34,30.24,14.94
10.501,-10.079,-8.3765,-0.405,0.17013,-0.57941,-14.4,30.06,14.7
3.8954,-12.149,-3.2553,-0.15638,0.037568,-0.33811,-14.58,30.06,14.76
2.0022,-3.2553,-7.8181,-0.33842,0.34147,-1.1127,-14.7,29.94,14.7
6.2926,-3.3506,-5.4073,-0.29444,0.4554,-0.73212,-15.12,29.94,14.7
4.7944,-4.127,-3.2825,0.052534,0.37874,-0.56383,-15.36,29.82,14.76
4.413,4.2904,-10.542,-0.10354,0.39981,-0.39431,-15.54,29.7,14.76
11.523,-4.699,-3.0237,0.12065,0.23671,0.19517,-16.14,29.64,14.7
9.5206,-8.6489,-10.27,-0.0076358,-0.50916,0.032376,-16.56,29.4,14.7
11.795,-11.605,-9.7249,-0.23793,-0.52107,-0.27428,-16.86,29.28,14.46
-2.5061,-5.3256,-1.7298,0.043677,0.25717,0.19792,-17.22,29.1,14.52
6.3607,2.6832,-8.3765,0.30665,0.093157,-0.20617,-17.76,28.74,14.34
7.8317,4.7807,-7.6002,0.31429,0.46151,0.36102,-18.06,28.5,14.34
13.838,-3.514,-7.8998,0.44899,0.11606,0.3824,-18.3,28.38,14.28
3.6366,-0.85808,-7.9543,0.086743,-0.30299,0.32315,-18.72,28.02,14.04
16.562,-16.508,-5.0531,-0.21991,-0.84513,-0.19181,-18.9,28.08,13.98
6.1292,-18.469,-2.6423,0.042455,0.1405,0.24862,-18.96,27.96,13.86
6.456,3.1463,-9.9429,-0.36163,-0.23976,-1.1328,-18.9,27.96,13.74
1.5119,1.2122,-2.0839,0.25412,0.40592,0.50916,-18.9,28.08,13.62
4.6445,3.9635,-10.964,0.50824,0.29658,0.93249,-18.66,28.02,13.56
8.9622,-8.8941,-5.1213,0.39767,0.20861,1.193,-18.18,28.08,13.32
0.068102,-3.7184,-6.3743,0.37843,0.22785,0.91813,-17.94,28.26,13.2
9.0167,-8.5808,-6.9055,0.062614,0.27,0.50855,-17.4,28.62,12.9
-2.4517,-4.0861,-5.8431,0.068722,0.28558,0.64324,-16.86,29.16,12.6
2.2065,-2.2201,-7.6002,-0.14416,0.22816,0.29596,-16.62,29.46,12.54
7.8589,-7.8862,-5.1076,-0.3204,-0.16188,0.35888,-16.08,29.82,12.48
3.6094,-5.0804,-6.3471,-0.35369,-0.34667,0.28741,-15.54,30.06,12.36
9.221,-0.47671,-8.5808,-0.73915,-0.082772,-0.29169,-15.18,30.18,12.06
8.2131,-8.9622,-3.732,-0.56749,-0.044288,-0.017715,-14.88,30.42,11.88
7.5593,-7.2733,-6.0338,-0.44013,-0.27825,-0.3488,-14.64,30.78,12.06
3.732,-6.9736,-3.4868,0.010385,0.23915,0.22449,-14.82,30.84,12.3
6.96,-3.8273,-8.8668,0.3934,0.19456,0.4102,-14.52,30.96,12.48
13.688,-11.128,-10.828,0.24099,-0.20067,0.35155,-14.46,30.78,12.66
-0.12258,-3.9227,-7.1234,0.37263,0.40225,0.15547,-14.22,30.66,12.78
8.5127,-2.2746,-6.7557,0.28222,0.12859,-0.30391,-14.28,30.66,12.66
7.0962,-3.4732,-3.0646,0.48991,0.20342,0.15638,-14.28,30.6,12.72
8.6762,-2.6015,-5.7614,0.16432,0.050702,-0.22449,-13.98,30.72,12.84
7.4503,-6.7693,-3.0646,0.029627,-0.12614,-0.069333,-13.98,30.72,12.9
10.869,-5.2166,-6.0611,-0.29719,-0.074526,-0.082772,-13.92,30.78,12.66
4.7126,-11.387,-3.2144,-0.52473,-0.50916,0.093768,-13.92,30.9,12.3
1.2258,-2.3018,-8.4582,-0.62125,-0.041233,-0.40103,-13.98,31.02,12.24
12.149,-2.8058,-8.1041,-0.57421,-0.197,-0.2981,-13.92,31.02,12.3
6.6059,-5.598,-2.9829,-0.18326,-0.039095,0.034208,-14.1,31.02,12.36
8.6353,-1.1169,-7.9951,-0.23579,-0.024435,-0.24526,-14.46,30.9,12.24
7.5457,0.78998,-8.9758,-0.14447,0.062614,0.04948,-14.52,30.84,12.3
11.278,-2.2474,-7.9951,-0.28986,-0.082772,-0.027184,-14.7,30.84,12.3
8.8941,-9.6704,-3.1599,-0.12645,-0.082772,0.3989,-14.76,30.78,12.3
6.8919,-7.5048,-7.927,-0.35797,0.0073304,-0.16707,-14.94,30.78,12.78
8.2539,-11.673,-4.0861,-0.38546,-0.12462,-0.086132,-15.12,30.66,12.9
1.7979,-1.2395,-6.4152,-0.19853,0.44776,-0.071166,-15.3,30.72,13.02
6.4424,-5.2847,-4.4811,-0.035736,-0.015577,0.037263,-15.48,30.48,13.44
2.0839,-0.35413,-7.355,0.0058032,0.39615,-0.0030543,-15.54,30.36,13.86
6.5786,-2.3699,-7.3005,-0.080634,0.47159,-0.092546,-15.54,30.3,14.16
4.5083,-5.4073,-4.6718,0.039401,-0.014355,-0.000611,-15.66,30.24,14.28
5.8295,-5.0395,-6.1564,-0.11087,0.13011,-0.2923,-15.6,30.24,14.46
3.8682,-3.8001,-4.1133,-0.069028,0.19548,-0.22419,-15.72,30.24,14.7
5.3256,-2.6696,-4.4402,-0.020464,0.35216,-0.19028,-15.72,30.24,14.88
13.184,-13.416,-8.1177,-0.082772,-0.41478,-0.25015,-16.14,30.24,15.0
6.851,-14.043,-6.5378,-0.29505,-0.90133,-0.70402,-16.2,30.24,15.18
-2.6696,0.12258,-5.9249,-0.3207,0.49694,-0.86315,-16.26,30.12,15.24
14.41,-2.4925,-6.0611,-0.17654,0.24435,-0.48472,-16.5,29.7,15.24
12.163,-11.441,-6.6331,0.080023,-0.61453,-0.10446,-16.62,29.4,15.24
0.83084,-3.2553,-9.4117,-0.058032,0.061697,-0.053756,-16.8,29.28,15.24
7.2869,-1.6753,-4.0452,0.17685,0.26848,0.50121,-17.1,29.1,15.06
3.5004,-0.12258,-7.4095,0.37629,-0.015882,0.70005,-17.34,28.92,15.12
6.3198,-0.96704,-8.4038,0.29474,0.20067,0.60201,-17.4,28.8,15.12
2.7377,-7.0281,-4.2359,0.62308,-0.054978,0.84696,-17.58,28.62,14.82
3.9363,-2.5334,-6.851,0.41447,-0.059559,0.25045,-17.4,28.68,14.64
4.7263,1.2939,-3.4459,0.40623,0.26725,0.53329,-17.4,28.68,14.58
8.6762,-4.0316,-8.3493,0.25381,-0.3036,0.48533,-17.22,28.98,14.34
11.863,-5.0259,-11.496,-0.41966,-0.43127,0.13592,-17.04,28.86,14.22
4.9987,-6.2517,-3.8409,-0.32559,-0.17196,0.54062,-17.1,29.1,14.1
0.39499,-9.1529,-7.3822,-0.28894,-0.81184,-0.17043,-16.62,29.28,13.92
6.8919,-0.35413,-12.0,-0.47831,0.10232,-0.64202,-16.56,29.58,13.8
14.833,-6.4697,-8.9349,-0.29138,-0.1689,-0.17226,-16.32,29.82,13.8
3.2144,-6.3062,-9.507,0.35797,0.32193,0.22419,-15.96,30.18,13.74
12.354,-4.0316,-6.851,0.33781,0.15027,0.46578,-15.84,30.36,13.74
1.8251,-4.6582,-2.4108,0.7138,0.16952,1.1066,-15.6,30.6,13.62
0.42223,-1.3212,-6.279,0.43402,0.30207,0.60567,-15.36,30.84,13.56
5.0259,-6.7421,-2.7104,0.18662,0.017104,0.50335,-15.24,31.02,13.38
0.64016,-5.0531,-2.6151,0.16921,-0.013744,0.36621,-15.06,31.26,13.2
7.8181,-5.0395,-5.094,-0.026267,0.098349,-0.087659,-14.76,31.2,13.32
5.4754,-6.0202,-5.2847,-0.2532,-0.16982,-0.24893,-14.58,31.5,13.2
4.6309,-5.1076,-6.7421,-0.38087,0.07086,-0.54398,-14.46,31.62,13.26
9.8203,-3.6639,-9.2891,-0.53665,-0.091935,-0.86499,-14.4,31.74,13.2
8.2131,-3.2416,-7.0281,-0.53329,0.0088575,-0.27275,-14.52,31.74,13.14
10.665,-5.7478,-6.9464,-0.58979,-0.096517,-0.36224,-14.7,31.68,13.2
6.2517,-10.297,-4.1814,-0.17501,-0.075442,0.10507,-14.7,31.74,13.08
4.5628,-1.6072,-6.7693,-0.1292,-0.000611,-0.025962,-14.58,31.62,13.02
8.8396,-0.43585,-7.1507,0.24954,0.4664,0.31796,-14.7,31.62,13.26
9.4525,-2.9556,-7.0553,0.39554,0.081551,0.62278,-14.76,31.56,13.26
3.4868,-4.8625,-6.1428,0.36011,0.2416,0.52351,-14.76,31.62,13.26
3.0918,1.362,-5.5707,0.30207,0.49541,0.72815,-14.82,31.44,13.56
6.674,-3.6366,-1.9341,0.35644,0.43097,0.7816,-14.88,31.44,13.56
10.12,-15.323,-6.7421,0.12126,-0.14203,0.44685,-14.94,31.68,13.44
2.1793,-14.615,-4.2904,-0.40653,-1.2202,-0.39798,-14.88,31.62,13.32
-0.83084,2.0567,-6.4969,-0.63255,0.416,-1.058,-14.7,31.74,13.38
8.2539,-2.5061,-3.2689,-0.32712,0.077274,-0.4105,-14.52,31.86,13.32
8.826,-10.215,-8.6217,-0.39248,0.010385,-0.15333,-14.4,32.04,13.44
5.0531,-5.3528,-8.54,-0.54703,-0.24526,-0.38362,-14.28,31.98,13.38
9.3436,1.471,-10.583,-0.63897,0.19823,-0.45204,-14.28,32.04,13.5
6.8238,-6.1292,-4.0861,-0.16952,0.13408,0.31124,-14.28,31.92,13.5
2.8603,-6.3198,-4.5901,0.057727,0.17013,0.38515,-14.4,31.92,13.5
8.3901,-5.7205,-7.4776,0.12645,0.31673,-0.0061087,-14.4,31.68,13.74
3.9908,-6.2654,-1.6072,0.55192,0.31032,0.26328,-14.52,31.5,13.86
3.8954,0.38137,-6.3743,0.60445,0.52321,0.015272,-14.58,31.32,13.92
7.0553,1.2395,-6.9055,0.15058,0.42516,-0.0061087,-14.7,31.02,14.1
8.3901,-3.4187,-7.4095,0.0036652,0.13011,-0.094073,-14.94,31.08,14.16
8.8941,-10.011,-3.8273,-0.33353,-0.49572,-0.27703,-15.12,30.9,14.1
3.732,-11.223,-2.5742,-0.12034,-0.22266,0.20678,-15.24,30.72,14.04
11.387,-1.6889,-10.338,-0.45662,-0.064141,-0.67684,-15.54,30.48,13.86
14.288,-6.7285,-8.2131,-0.42944,-0.04948,0.098349,-15.72,30.3,13.86
7.4503,-1.1713,-9.5479,-0.16341,0.0018326,0.49969,-15.96,30.54,13.92
9.7385,-7.0826,-4.4947,-0.14569,0.14813,0.22785,-15.96,30.6,13.74
3.4868,-6.4288,-7.2052,0.25717,-0.086132,0.77091,-15.78,30.6,13.8
4.5083,-3.0237,-8.4038,0.20983,0.23091,0.65943,-15.78,30.6,13.74
5.6661,-3.8001,-5.6933,0.34941,0.12309,1.0049,-15.66,30.72,13.44
4.9987,-5.3392,-4.7263,0.37263,-0.032681,0.92607,-15.54,30.84,13.38
5.3119,-4.3449,-4.5764,0.3656,0.0015272,0.76816,-15.0,31.02,13.26
7.5457,-6.3335,-6.4833,0.24832,-0.197,0.58215,-14.76,31.2,13.26
5.2438,-3.9635,-7.246,-0.034514,-0.36591,0.36011,-14.4,31.32,13.2
7.75,-7.8589,-7.8317,-0.51649,-0.90988,-0.23213,-14.1,31.62,13.14
-1.9886,-0.89894,-6.7557,-0.46945,-0.50366,-0.5397,-13.38,31.92,13.08
9.1529,2.9011,-9.7522,-0.80084,-0.40287,-1.2034,-13.14,32.16,13.2
12.544,-3.4459,-5.2302,-0.62553,-0.53206,-0.38087,-12.78,32.1,13.2
6.1019,0.10896,-8.2676,-0.52321,-0.13928,-0.34575,-12.54,32.16,13.2
9.9292,-4.1542,-5.5162,-0.37141,-0.31857,0.14294,-12.42,32.04,13.2
4.3449,-8.7851,-5.3528,-0.15577,-0.42058,0.42791,-12.3,32.04,13.2
4.6037,-8.9349,-8.2812,-0.062614,-0.20708,-0.22083,-12.18,32.04,13.32
5.2711,-0.28603,-5.3119,0.16005,0.0061087,-0.058643,-12.0,31.92,13.86
4.9987,-4.8897,-4.0589,0.46029,-0.31276,0.0281,-12.06,31.86,14.16
10.569,-7.1915,-6.2926,0.16096,-0.19212,-0.18418,-12.12,31.5,14.52
2.7377,-4.1678,-4.1951,-0.048564,-0.53573,-0.17685,-12.24,31.38,14.76
4.4402,-4.1678,-9.2618,-0.4948,-0.28588,-0.49205,-12.24,31.2,15.12
11.754,-4.5492,-6.6604,-0.58399,-0.25168,-0.27825,-12.3,31.14,15.42
9.507,-11.577,-4.4947,-0.47586,-0.53298,-0.097433,-12.42,31.02,15.66
10.256,-4.699,-7.4095,-0.33567,0.29138,-0.085521,-12.18,30.96,15.96
3.7456,-2.6968,-5.993,0.38087,0.17623,0.61209,-12.0,30.96,16.02
7.0417,-6.3198,-8.9622,0.60598,-0.36896,0.22907,-11.82,31.02,16.26
3.8682,-4.3449,-7.8045,0.67653,-0.20281,0.25229,-11.76,31.14,16.44
8.0632,-4.0316,-6.6331,0.66279,-0.080329,0.002138,-11.7,31.44,16.74
2.7241,-6.456,-1.3348,0.83658,-0.24099,0.044288,-11.7,31.44,16.68
4.0589,-1.0351,-5.8704,0.60109,0.16646,-0.27886,-11.52,31.5,16.56
2.9011,-1.7434,-3.4459,0.18906,-0.17776,-0.099571,-11.52,31.68,16.5
6.0883,-2.0022,-5.4754,-0.17501,0.14233,-0.33903,-11.52,31.86,16.44
10.896,-7.1234,-4.2223,-0.30727,-0.018631,-0.50519,-11.52,31.86,16.44
0.47671,-6.456,-4.6037,-0.52351,0.064446,-0.55314,-11.46,31.8,16.32
8.4446,-7.5865,-7.0553,-0.73701,0.0094684,-0.72418,-11.52,31.98,16.02
2.6015,-7.6002,-5.2575,-0.55925,0.17043,-0.39706,-11.64,31.98,15.9
3.623,-4.6718,-7.1915,-0.43035,0.37629,-0.60323,-11.94,31.86,16.08
5.6252,-0.92618,-7.5184,-0.29963,0.68264,-0.28405,-12.48,31.62,16.02
9.9429,-6.9872,-7.4776,-0.11179,0.73762,0.063835,-12.66,31.62,16.08
8.54,-9.2618,-7.4776,0.043982,0.14569,0.046731,-12.78,31.74,15.96
5.8295,-4.9306,-5.6388,0.15608,0.49358,-0.054672,-13.32,31.44,16.14
6.279,-5.8431,-5.8704,0.33201,0.30513,0.011606,-13.56,31.32,16.14
4.9578,-4.2495,-6.4288,0.35888,0.26542,-0.0073304,-13.86,31.14,16.2
5.993,-2.6696,-4.7944,0.33475,0.29352,-0.054367,-14.28,30.78,16.14
6.7012,0.50395,-7.6274,0.34819,0.22755,0.099876,-14.52,30.72,16.14
13.184,-7.069,-5.6933,0.26267,-0.49144,-0.35797,-14.76,30.84,16.02
-1.7298,-0.38137,-9.2891,0.281,0.19731,0.092852,-15.18,30.54,15.9
11.073,-4.0589,-5.6661,-0.12859,-0.011912,-0.66157,-15.36,30.54,15.84
4.6445,-4.7535,-7.6002,-0.066279,-0.0045815,-0.050396,-15.42,30.54,15.3
7.8317,-3.909,-6.851,-0.1909,0.026267,-0.060781,-15.42,30.6,15.0
3.7456,-1.6481,-6.8919,-0.10965,0.14966,0.45021,-15.42,30.6,14.76
8.2403,-2.4517,-10.093,-0.18448,-0.23091,0.37202,-15.48,30.42,14.52
6.5105,-9.3027,-6.674,0.15669,-0.046731,0.53451,-15.54,30.6,14.34
7.641,-2.0431,-8.9622,0.19426,0.13286,0.17532,-15.48,30.78,13.98
8.7579,-7.7908,-6.8374,0.24801,-0.18754,0.5339,-15.36,30.72,13.92
2.1656,-3.7728,-6.1836,0.23396,-0.18265,0.44196,-15.3,30.84,13.56
9.3436,-1.1441,-6.5105,-0.017104,0.026267,0.25534,-15.18,30.96,13.44
10.597,-4.5083,-5.6933,-0.1127,-0.27428,0.42638,-15.0,30.96,13.38
7.8862,-3.3234,-5.7069,-0.12614,0.14172,0.40409,-14.7,31.2,13.5
7.1371,-7.8998,-3.3642,-0.12798,-0.27061,0.3036,-14.58,31.2,13.5
5.5435,-6.9464,-7.0009,0.029016,-0.18967,0.32529,-14.4,31.38,13.62
4.6854,-3.2825,-6.4288,-0.081551,-0.20678,-0.051313,-13.92,31.56,13.74
3.5413,-3.732,-5.6116,0.10934,-0.084605,0.16768,-13.8,31.68,13.86
5.4073,-4.2359,-6.7966,0.089797,-0.21869,0.021075,-13.68,31.8,13.98
5.8295,-7.5865,-5.598,-0.071471,-0.37018,-0.092546,-13.2,31.86,13.8
2.7513,-5.5026,-4.7263,-0.018326,-0.27458,-0.2025,-13.14,32.04,13.92
6.2109,-1.3484,-7.8998,-0.18357,-0.18906,-0.28619,-13.02,32.16,13.98
7.6002,-11.019,-5.6388,-0.21044,-0.48411,-0.11912,-12.78,32.28,14.4
4.0861,-5.0395,-7.0281,-0.20128,-0.42211,-0.19273,-12.84,32.16,14.46
6.6059,-0.44947,-7.0826,-0.20067,0.056505,-0.2868,-12.72,32.1,14.52
6.9464,-9.8884,-6.4697,0.15974,-0.1857,0.13073,-12.78,32.16,14.58
3.3778,-4.8352,-6.7012,0.15088,-0.18387,-0.18357,-12.84,32.16,14.7
6.4833,0.20431,-7.8181,0.12859,0.067195,-0.25076,-12.72,32.1,14.82
5.2847,-4.699,-4.7126,0.24251,-0.10904,0.027794,-13.02,32.28,14.7
3.9908,-4.3858,-5.7614,0.064141,-0.024435,-0.11515,-13.02,32.16,14.76
6.0883,-3.6366,-5.6116,-0.032987,-0.000611,-0.13836,-12.96,32.22,14.7
7.3277,-5.6252,-6.3743,-0.12462,-0.15149,-0.29383,-13.26,32.34,15.0
5.3119,-3.9635,-5.7069,-0.28161,0.018631,-0.34575,-13.32,32.28,14.94
6.5514,-5.3937,-5.1621,-0.2697,-0.098349,-0.43768,-13.44,32.28,14.82
5.9657,-4.7671,-8.5536,-0.4386,0.055283,-0.46914,-13.62,32.22,14.76
7.6274,-6.7148,-6.3062,-0.5565,0.055894,-0.57941,-13.68,32.34,14.76
1.6072,-3.1735,-4.3449,-0.18906,0.42211,-0.07758,-13.98,32.28,14.88
5.5707,-0.6674,-9.507,-0.22449,0.39767,-0.12065,-14.04,32.16,14.94
3.4596,-6.0338,-5.1894,-0.0094684,0.16249,0.28191,-14.16,31.98,14.82
3.6775,-5.993,-6.7693,0.10568,0.34911,0.15088,-14.4,31.98,14.7
4.6718,-5.598,-5.6388,0.26573,0.39095,0.22602,-14.52,31.92,14.94
10.256,-12.395,-6.5922,0.24648,0.22571,-0.0094684,-14.58,31.44,14.82
-2.2474,0.46309,-5.3664,0.24832,0.58429,-0.30329,-14.7,31.32,14.88
3.0237,3.2961,-8.4446,-0.02138,0.47128,-0.49694,-14.82,31.08,14.88
10.297,-4.2223,-3.2689,0.092852,0.12462,-0.03207,-15.12,30.9,15.0
5.1213,-5.6252,-8.7987,-0.041233,-0.51404,-0.20525,-15.3,30.72,15.0
3.9908,-2.1248,-8.1995,-0.43707,0.039095,-0.16371,-15.42,30.54,15.06
7.5865,-5.1621,-7.3958,-0.1912,-0.19609,0.099571,-15.54,30.18,14.88
10.61,-10.855,-7.464,-0.25687,-0.29749,-0.12462,-15.54,30.0,14.76
5.1894,-10.542,-7.1371,-0.060476,-0.17074,-0.14478,-15.66,29.94,14.58
8.5944,0.65378,-6.5378,0.039401,0.13806,-0.18051,-16.02,29.94,14.76
9.0712,-5.2166,-6.7148,0.29199,0.16463,0.49266,-16.02,29.82,14.82
4.3177,-5.7342,-7.0281,0.34208,-0.17898,0.46609,-16.08,29.7,14.58
7.6002,-2.0839,-7.5048,0.1799,0.054062,0.33628,-16.26,30.12,14.64
4.7535,-6.8919,-5.0259,0.30543,-0.043982,0.64446,-16.26,30.24,14.76
8.0632,-14.41,-5.9521,0.16829,-0.51924,0.19395,-16.2,30.24,14.64
0.38137,-3.732,-6.7421,0.031154,0.2251,-0.10934,-16.02,30.18,14.58
10.215,-3.3506,-5.7614,-0.082772,-0.12431,-0.032681,-16.02,30.3,14.46
1.6072,-2.547,-2.6423,0.10904,0.22266,0.31032,-15.84,30.42,14.28
9.9837,0.027241,-4.5492,-0.099876,0.12339,0.26725,-15.6,30.84,14.22
8.826,-7.5048,-5.6661,-0.11759,0.26359,0.7367,-15.54,31.2,14.22
4.699,-7.3005,-8.5944,-0.32345,-0.59223,0.48717,-15.3,31.44,14.1
8.3765,-15.323,-5.7614,-0.56047,-0.46517,-0.20708,-15.06,31.38,14.16
3.6911,-3.051,-7.6546,-0.27397,0.0097738,-0.3711,-14.7,31.56,14.04
10.025,-5.8159,-8.0224,-0.20403,-0.10812,-0.08491,-14.52,31.62,14.22
4.0316,-0.64016,-8.1722,-0.014355,-0.017715,-0.094684,-14.1,31.62,14.52
11.877,-2.4653,-7.5593,-0.051313,-0.032681,-0.047037,-14.22,31.56,14.46
8.9894,-2.2474,-6.279,0.095295,-0.30421,0.33048,-13.98,31.62,14.58
9.7113,-9.9973,-6.674,0.033903,-0.27245,0.15424,-13.86,31.74,14.82
-0.14982,-8.2812,-4.3449,0.1854,-0.64843,0.3598,-13.62,31.8,14.88
2.9284,-1.8387,-7.4776,0.19639,-0.093768,-0.11851,-13.5,31.92,15.12
4.413,-7.1234,-3.5685,0.43097,-0.57971,-0.022907,-13.5,31.92,15.48
5.6388,-0.47671,-9.221,0.20525,-0.41142,-0.624,-13.38,31.92,15.72
9.0575,0.50395,-9.5479,0.023824,-0.43371,-0.65943,-13.44,31.86,15.9
4.1678,1.185,-4.7944,0.098655,-0.082161,0.13256,-13.38,31.86,15.9
14.124,-11.346,-3.8137,-0.10293,-0.47556,-0.49388,-13.44,32.04,16.08
0.43585,-9.9565,-6.9055,-0.23854,0.077885,-0.56169,-13.44,31.98,16.14
8.717,-0.12258,-5.3528,-0.1292,0.42089,-0.21808,-13.5,32.04,16.08
6.7421,-8.9349,-4.5492,0.12584,0.021075,0.034208,-13.38,31.92,16.32
2.8603,-9.4117,-5.8704,0.094073,0.097738,-0.19884,-13.56,31.92,16.38
4.5764,-0.89894,-6.5241,0.088881,0.405,-0.25595,-13.68,31.86,16.44
7.355,-4.6037,-6.1836,0.24587,0.47281,-0.0024435,-13.8,31.92,16.38
5.5162,-7.9815,-6.7421,0.21472,0.16707,-0.10751,-14.04,31.8,16.38
8.322,-9.4117,-7.1234,-0.094379,0.2926,-0.36011,-14.22,31.5,16.32
0.7355,-5.0395,-3.3234,0.032681,0.46365,-0.12767,-14.4,31.5,16.2
-1.7706,2.0839,-6.2517,0.011301,0.87018,-0.090713,-14.58,31.32,16.14
13.389,-16.739,-3.4051,0.055894,0.1741,-0.079412,-15.0,31.32,16.2
-5.5435,-3.3234,-6.9328,0.2474,0.22083,0.44013,-15.18,31.26,16.08
10.869,-1.471,-11.891,-0.35613,0.60109,-0.93921,-15.36,31.32,15.9
-0.054481,-5.0531,-2.3291,0.40684,0.63255,0.39279,-15.9,31.2,15.66
11.019,-7.0962,-9.8066,-0.11209,0.086743,-0.68906,-16.2,31.26,15.36
7.2052,-6.5241,-4.985,-0.05681,0.64904,-0.15241,-16.26,31.26,15.0
7.0417,-2.7786,-6.7557,0.040928,0.43005,-0.1854,-16.8,31.2,14.46
11.237,-6.2517,-7.0826,-0.1405,0.19028,-0.21991,-17.1,30.96,14.28
7.2869,-8.4855,-5.5162,-0.13806,-0.076664,-0.14813,-17.34,30.96,14.1
9.3844,-2.3563,-7.8181,-0.28283,0.18631,-0.30238,-18.0,30.9,13.74
7.0553,-6.6059,-4.6037,0.041233,0.1744,0.32315,-18.24,30.78,13.56
6.96,-7.7091,-6.456,0.030849,0.069639,-0.0064141,-18.3,30.84,13.38
6.6331,-1.9341,-5.9657,-0.11179,0.34422,0.32345,-18.72,30.78,13.02
6.0611,-5.4073,-5.094,0.22755,0.037568,0.58032,-18.84,30.66,12.78
1.4165,-1.3348,-7.927,0.15424,0.23335,0.57238,-18.96,30.6,12.54
8.4174,-10.433,-2.7649,-0.036652,-0.12187,0.59987,-18.84,30.72,12.3
0.54481,-5.7205,-4.2359,0.058643,0.050091,0.25137,-18.84,30.66,12.12
6.4288,0.44947,-7.4231,-0.12278,0.16218,0.29688,-19.02,30.66,12.06
8.0632,-5.4073,-5.0804,-0.007025,-0.029627,0.6634,-18.72,30.72,12.06
6.4833,-4.4811,-9.2074,-0.22419,-0.24312,0.46945,-18.54,30.84,12.18
8.7034,-6.7285,-7.1779,-0.44899,-0.0061087,0.38698,-18.3,30.96,12.18
0.58567,-3.8001,-7.2324,-0.18021,-0.21594,0.49358,-17.76,31.38,12.18
10.433,-1.1032,-10.052,-0.34972,0.084299,-0.21411,-17.52,31.56,12.24
11.523,-4.3449,-6.0611,-0.24007,0.047953,0.11942,-17.46,31.74,12.3
4.9033,-6.8374,-6.3198,0.066279,0.047037,0.23763,-16.98,31.98,12.6
6.5378,-4.2768,-6.2381,-0.069333,-0.0054978,0.13164,-16.8,32.04,12.72
3.8682,-4.1406,-4.9169,0.013744,0.082467,0.39645,-16.56,32.1,12.78
4.9987,-3.8273,-6.4697,-0.16799,-0.12889,0.061697,-16.44,32.28,12.78
2.8467,0.47671,-4.4947,-0.22388,0.16005,0.24465,-16.38,32.46,13.02
6.0747,-4.0316,-2.2201,-0.14691,0.18967,0.22144,-16.08,32.7,13.26
4.5083,-6.6059,-3.9908,-0.040623,-0.26786,0.29016,-15.9,32.94,13.44
5.884,-0.40861,-9.5751,-0.11087,-0.26114,0.18662,-15.96,33.12,13.62
0.51757,-0.19068,-10.869,-0.37751,-0.61239,-0.25779,-15.78,33.18,13.8
10.637,-3.4187,-10.542,-0.62827,-0.18509,-0.62308,-15.9,33.18,13.86
14.029,-13.988,-3.9908,-0.64171,-0.69333,-0.71746,-15.9,33.12,13.92
3.7047,1.6208,-12.136,-0.34728,-0.40378,-0.34483,-15.84,33.12,14.1
13.961,1.3212,-7.1234,-0.67653,-0.24068,-1.2559,-16.02,32.94,14.28
4.8625,3.1327,-2.5334,0.12065,0.18662,0.36652,-16.26,33.0,14.46
13.089,-4.0725,-6.3879,0.057116,-0.20739,0.091324,-16.38,32.88,15.0
4.5901,-7.2052,-4.6854,0.31398,-0.41233,0.65729,-16.5,32.82,15.36
3.3097,-2.4108,-4.3994,0.27367,-0.18937,0.12431,-16.62,32.64,15.6
3.6366,-0.64016,-4.5083,0.42089,0.26359,0.25473,-16.68,32.58,15.84
6.3062,-3.0101,-4.1133,0.41447,0.27092,0.21044,-16.62,32.4,15.96
9.5751,-8.3084,-8.322,-0.0085521,-0.38515,-0.49786,-16.68,32.4,16.26
7.0281,-6.279,-5.7614,-0.4218,-0.59498,-0.82467,-16.86,32.28,16.32
1.4165,-1.2939,-4.9714,-0.53756,-0.10537,-0.84147,-17.1,32.16,16.8
11.319,-7.1779,-8.4038,-0.86163,-0.3317,-0.6576,-17.34,32.1,16.98
2.3563,-8.6898,-7.6683,-0.82956,-0.056505,-0.23732,-17.34,31.8,17.22
3.732,-5.4481,-6.2926,-0.67867,0.21838,-0.17807,-17.4,31.8,17.28
6.7966,-2.7649,-8.1177,-0.24526,0.45998,0.35949,-17.34,31.62,17.4
9.3844,-1.9341,-9.1937,0.13317,0.47495,0.67104,-17.34,31.44,17.64
5.5026,-3.7728,-4.3177,0.64874,0.60537,0.90072,-17.34,31.2,17.88
4.9033,-5.1076,-3.9908,1.0397,0.16799,0.81795,-17.28,31.2,18.06
4.2495,-5.9657,-3.337,0.99479,0.07422,0.68142,-17.34,31.14,18.12
3.3097,-1.3484,-6.2245,0.85246,-0.14325,0.2978,-17.34,30.96,18.18
6.9872,0.31327,-6.279,0.35644,0.12095,-0.1066,-17.28,30.96,18.3
9.8066,-3.051,-1.9886,0.14875,0.10446,-0.32895,-17.34,30.96,18.3
8.8124,-11.577,-5.3392,0.028711,-0.35186,-0.36774,-17.34,31.32,18.12
2.0839,-9.5479,-6.9191,-0.43035,-0.50213,-0.51771,-17.28,31.14,17.88
5.2575,-3.2553,-10.283,-0.56658,-0.07422,-0.75686,-17.16,31.14,17.7
2.6151,-0.99429,-6.7012,-0.077885,-0.035736,0.16524,-17.04,31.38,17.4
7.9543,-1.5936,-9.8203,0.10812,0.16554,0.22663,-16.86,31.38,17.46
9.398,-4.6718,-9.3299,0.34514,-0.061392,0.55925,-16.98,31.44,17.16
5.6661,-9.4661,-6.4833,0.46976,-0.095906,0.54459,-16.86,31.8,16.68
2.2746,-5.2166,-5.203,0.51985,0.053145,0.42791,-16.74,31.68,16.5
7.8453,-2.8739,-5.3256,0.38362,0.15699,0.14386,-16.68,31.68,16.26
4.0861,-5.9793,-3.6366,0.35675,0.077885,0.50183,-16.56,31.74,15.96
4.8216,-7.0281,-4.6037,0.2474,-0.10537,0.20311,-16.44,31.8,15.84
3.8682,-1.8115,-4.8352,0.092241,0.01405,0.2926,-16.32,31.8,15.72
13.593,-15.418,-8.7987,-0.27947,-0.54092,-0.069333,-16.02,31.68,15.66
1.185,-3.6366,-6.674,-0.35888,-0.14875,-0.18021,-15.84,31.74,15.6
12.381,-3.4187,-3.2553,-0.5116,0.49847,-0.48319,-15.66,31.86,15.54
0.5993,-8.6081,-5.5571,-0.06017,-0.13256,0.32773,-15.6,31.98,15.36
7.6955,-8.1177,-10.42,-0.23579,-0.12401,-0.20036,-15.54,32.16,15.12
5.9249,-4.2495,-7.3141,-0.075747,0.095295,0.29688,-15.24,32.22,15.12
7.7908,-3.2961,-7.5184,0.050396,0.20495,0.29535,-15.18,32.34,15.18
6.1564,-8.8668,-5.7614,-0.029627,0.11698,0.29505,-15.06,32.22,15.12
-0.58567,-5.203,-3.3097,0.04215,-0.17715,0.16768,-14.94,32.28,14.94
10.052,-3.8954,-6.9191,-0.0024435,0.24282,-0.13439,-14.82,32.34,14.94
11.441,-6.6876,-6.5922,-0.0042761,-0.077274,0.22022,-14.82,32.34,14.76
5.8704,-1.6208,-10.311,-0.073304,0.29413,-0.0030543,-14.58,32.28,14.64
7.5321,-2.9148,-5.993,-0.26603,0.22327,0.010996,-14.64,32.22,14.52
3.6639,-6.9328,-3.2144,0.000611,0.05284,0.35827,-14.64,32.28,14.4
7.3822,-8.7851,-6.9872,-0.018021,-0.0012217,0.025656,-14.4,32.4,14.34
4.7399,-4.2223,-7.4231,0.064446,-0.025962,0.10996,-14.28,32.46,14.34
6.0883,-1.3757,-8.7851,0.036652,0.087048,0.0058032,-14.28,32.4,14.34
5.203,-4.3313,-5.5026,0.12462,0.030238,0.19487,-14.16,32.52,14.22
7.927,-1.8796,-5.1485,0.036652,0.13836,0.058948,-13.92,32.58,14.1
9.0303,-5.0668,-4.0316,-0.071777,0.11423,0.12614,-13.98,32.76,14.1
6.8919,-10.079,-5.7069,-0.30971,-0.24099,-0.20739,-14.1,32.82,14.04
6.0611,-2.7377,-6.6604,-0.42852,-0.017104,-0.36774,-14.16,32.88,14.16
6.96,-2.3155,-5.2166,-0.37721,0.24801,-0.23763,-14.16,32.76,14.22
8.0224,-5.4073,-6.1292,-0.38087,0.20556,-0.15149,-14.28,32.64,14.28
4.6037,-4.6309,-6.9055,-0.40256,0.2642,0.069333,-14.46,32.4,14.34
6.8647,-4.7671,-6.456,-0.28741,0.26481,0.18173,-14.4,32.28,14.46
6.6059,-2.7377,-8.9622,-0.24129,0.38912,0.27703,-14.52,32.28,14.58
7.9407,-12.149,-5.3256,-0.25076,-0.097738,0.21472,-14.64,32.22,14.58
0.43585,-6.6331,-5.2711,-0.15577,0.20372,0.035125,-14.58,32.22,14.64
4.4947,-4.9578,-6.9736,-0.26542,0.42394,-0.31643,-14.7,31.98,14.76
3.8273,-3.1599,-4.5356,-0.024129,0.28863,-0.06353,-15.0,31.68,14.76
7.0962,-1.6072,-6.7966,-0.061087,0.35033,-0.23732,-14.94,31.56,14.76
8.9213,-3.051,-5.3119,-0.14172,0.10843,-0.20464,-15.18,31.56,14.82
5.5435,-6.7421,-5.8023,-0.11973,-0.197,-0.22602,-15.18,31.38,14.94
5.5435,-6.7421,-5.8023,-0.14416,-0.10751,-0.32529,-15.18,31.38,14.94
5.5435,-6.7421,-5.8023,-0.093157,0.10476,-0.21502,-15.18,31.38,14.94
9.8611,-5.2302,-6.674,-0.04612,-0.23702,-0.0033598,-15.18,31.2,15.0
3.0646,-3.3778,-7.3141,0.0033598,-0.29902,-0.03543,-15.18,31.14,15.18
8.322,-4.6037,-5.9793,0.0088575,0.041233,0.000611,-15.3,30.96,15.3
3.337,-0.98067,-6.4288,0.2419,0.050396,0.28222,-15.3,30.72,15.42
11.387,-8.4446,-8.2676,0.11362,-0.026573,0.12034,-15.42,30.54,15.42
1.8932,-6.8238,-4.3449,0.15027,-0.1182,0.24832,-15.54,30.36,15.48
6.7421,-2.9011,-7.2869,0.10018,-0.034208,-0.090713,-15.36,30.18,15.54
5.4754,-1.2803,-6.7421,0.1628,-0.038179,0.52412,-14.64,30.06,15.54
7.0417,-2.5879,-7.8453,0.14661,-0.08827,0.56016,-14.28,29.94,15.54
5.2438,-5.6388,-6.7148,0.11637,-0.19242,0.6017,-13.8,29.82,15.6
5.8023,-9.8884,-5.0123,0.084299,-0.38118,0.21991,-13.74,29.88,15.48
3.0237,2.0567,-6.8102,0.17501,0.21961,0.17562,-13.44,30.36,15.18
9.2891,-3.4868,-6.279,0.076358,-0.041539,0.2697,-13.14,30.66,15.18
6.3198,-13.77,-6.9055,-0.091019,-0.45509,0.36285,-12.66,30.84,15.06
1.9477,-3.228,-5.4073,-0.19059,-0.30146,-0.1854,-12.3,30.9,14.94
5.5162,-1.3757,-4.4266,-0.069333,0.023824,-0.21838,-12.36,31.26,14.7
8.0088,-8.7851,-8.2267,-0.026878,-0.13439,0.11087,-12.72,31.5,14.58
4.699,-7.9407,-7.5865,-0.24648,-0.34941,-0.19853,-12.66,31.56,14.64
5.3392,-1.3212,-4.6037,-0.090408,-0.021686,-0.16188,-12.42,31.68,14.7
5.489,-2.4789,-4.127,0.17135,-0.087048,0.16066,-12.24,31.62,14.7
5.8023,-2.3018,-7.0281,0.19181,0.086437,0.36682,-12.18,31.5,15.0
6.1836,-6.6467,-6.3471,0.090103,-0.16066,0.20159,-12.06,31.44,14.76
5.7205,-3.4732,-6.8374,-0.055894,-0.070555,0.0030543,-12.06,31.62,14.76
4.4402,-5.1485,-4.2223,0.096517,0.16493,0.3656,-12.06,31.8,15.06
6.4288,-17.271,-4.7671,0.082467,-0.67073,-0.16035,-12.0,31.8,15.12
2.3018,0.040861,-9.9565,-0.16677,0.47678,-0.58796,-11.94,31.68,15.24
7.4231,-6.6604,-1.5119,-0.28772,-0.33139,-0.69242,-11.94,31.8,15.18
8.4174,-0.31327,-11.087,0.2138,0.26939,0.2248,-11.94,31.74,15.18
12.054,-3.732,-6.6876,-0.21747,0.17746,-0.5455,-12.06,31.74,15.06
2.9148,-4.1814,-5.775,0.054978,0.16432,0.38637,-12.3,31.56,14.88
7.4367,-2.4244,-7.2869,-0.015882,0.33811,0.0085521,-12.3,31.5,15.0
5.0259,-5.9249,-3.2825,0.2361,0.36224,0.42944,-12.42,31.32,15.06
3.1191,-6.1428,-5.0123,0.33903,0.19303,0.29658,-12.42,31.2,15.0
9.112,-9.4117,-7.355,0.084299,0.23854,-0.072388,-12.48,31.02,14.76
0.62654,-6.4969,-3.5822,0.11668,0.27764,-0.33414,-12.54,30.96,14.88
5.4345,-3.2144,-7.8998,-0.10232,0.20983,-0.73243,-12.54,30.9,14.94
7.5457,2.4653,-8.1586,-0.36316,0.3262,-0.21686,-12.96,30.96,14.7
5.6661,-14.301,-5.6388,-0.45143,-0.46212,-0.36469,-13.32,30.96,14.58
-4.1814,-6.4288,-6.96,-0.5959,0.075442,-0.019242,-13.26,30.9,14.58
9.1801,-2.6968,-6.2517,-0.66065,0.52412,-0.50488,-13.32,30.9,14.46
6.8919,-7.1915,-7.3822,-0.31215,0.13134,0.197,-13.74,30.9,14.28
4.985,-4.3858,-5.3119,0.022907,0.41081,0.096211,-14.04,30.84,14.1
6.2245,-4.4539,-3.8546,0.35339,0.41722,0.17654,-14.28,30.84,14.22
4.4947,-1.076,-6.4288,0.47983,0.4664,0.2364,-14.4,30.78,14.04
9.221,-4.8352,-5.7614,0.19975,0.45326,-0.02138,-14.76,30.72,14.04
8.0632,-4.7399,-7.1643,-0.083078,-0.05284,-0.2474,-14.76,30.66,13.92
4.0316,-4.9306,-5.0531,-0.3824,-0.24618,-0.48045,-14.88,30.66,13.86
2.9965,-3.8001,-3.4051,-0.43249,-0.027489,-0.25779,-15.0,30.6,13.68
6.7421,-2.4517,-6.7421,-0.47281,-0.098349,-0.14172,-15.12,30.54,13.74
12.149,-4.5764,-9.0575,-0.61423,-0.33323,-0.026267,-15.18,30.54,13.62
7.6002,-5.3937,-7.0553,-0.26328,-0.29841,0.40684,-15.0,30.3,13.74
4.4539,-3.0782,-8.036,-0.018326,-0.055589,0.36346,-14.94,30.18,13.92
8.6625,-8.8805,-8.145,0.11729,-0.15088,0.39004,-14.88,29.88,13.92
2.1112,-1.4574,-7.5593,0.33781,-0.16157,0.55283,-14.94,29.82,13.98
8.7306,-5.38,-5.7478,0.40989,-0.0076358,0.5006,-14.82,29.82,14.1
7.0962,-13.171,-4.0044,0.42272,-0.47312,0.42119,-14.76,29.88,14.4
-0.7355,1.757,-5.9249,0.37263,0.071471,0.25595,-14.58,29.94,14.64
11.319,-0.12258,-5.775,0.16432,0.054062,0.11881,-14.34,30.24,14.76
3.9908,-10.147,-5.3119,0.18051,-0.45173,0.69852,-13.68,30.54,14.76
3.8137,-2.0975,-6.7829,-0.034208,-0.38576,0.13775,-13.14,30.96,14.76
5.8976,-1.8932,-3.1599,-0.021686,-0.11118,0.13958,-13.02,31.14,14.58
6.674,-7.8998,-7.4095,-0.091935,-0.41722,0.046731,-12.66,31.56,14.52
7.5184,-10.46,-6.96,-0.32773,-0.46823,-0.30727,-12.36,31.8,14.52
2.5742,2.3155,-7.4095,-0.23518,0.06353,-0.10415,-11.94,32.04,14.64
12.095,-11.032,-5.7069,-0.30421,-0.23335,-0.16371,-11.64,32.16,14.52
8.4719,-17.407,-6.6467,-0.3934,-1.0492,-0.23915,-11.58,32.22,14.52
0.77636,4.0044,-10.678,-0.52779,0.25992,-0.51649,-11.34,32.04,14.82
11.754,-2.7513,-4.6854,-0.19212,-0.04612,-0.010996,-11.34,31.86,15.3
5.5162,-6.5514,-4.8352,0.17929,-0.32712,0.40745,-11.4,31.68,15.36
6.5378,-8.6762,-8.036,0.11881,-0.39462,-0.096517,-11.4,31.56,15.72
4.6718,-1.4982,-6.7012,0.32376,-0.050091,0.10049,-11.1,31.32,16.08
6.8374,-2.0431,-6.2381,0.39615,-0.067501,0.17623,-11.22,31.32,16.2
7.1915,-7.3005,-5.094,0.40317,0.029016,0.28924,-11.28,31.26,16.14
4.1406,-4.7944,-6.7966,0.20128,-0.047647,-0.31948,-11.16,31.38,16.14
4.9987,-1.6481,-3.9635,0.061392,-0.12401,-0.14722,-10.92,31.2,16.08
4.9714,-7.3822,-4.1406,0.18876,-0.049175,0.054367,-10.92,31.32,15.9
8.5263,-1.0215,-10.297,-0.039401,-0.12004,-0.26481,-10.8,31.56,15.6
10.801,-1.1169,-8.8941,-0.44838,-0.049175,-0.43891,-10.68,31.74,15.6
4.3313,0.43585,-3.228,-0.16554,0.63255,0.5846,-10.74,31.98,15.6
8.6353,-17.884,-4.6445,-0.083078,-0.73243,-0.27672,-10.98,31.98,15.3
3.7865,-3.2416,-13.184,-0.38118,0.087354,-0.26389,-10.98,31.86,15.6
9.6023,-4.2495,-6.1292,-0.46487,0.051618,-0.52504,-11.28,31.56,15.78
4.2223,-2.7377,-5.38,0.23915,0.56933,0.17501,-11.52,31.56,15.84
6.0202,-6.5514,-5.5435,-0.0085521,0.15852,-0.18967,-12.12,31.5,15.96
6.8238,-7.1371,-8.9077,0.27672,0.42547,0.32956,-12.3,31.44,16.14
9.4798,-17.543,-8.0769,0.017104,-0.82406,-0.32162,-12.24,31.32,16.14
-1.2803,-2.0703,-6.4016,0.01405,0.62553,-0.36927,-12.48,31.14,16.08
6.5514,0.027241,-7.2869,0.01069,0.18051,-0.6463,-12.6,30.96,16.14
4.2223,0.64016,-5.0395,0.18418,0.40439,-0.018937,-12.9,30.84,16.02
8.431,-11.523,0.054481,0.085216,0.12584,-0.21716,-13.14,30.66,15.9
-1.8796,2.9556,-12.503,0.40867,0.32773,0.13439,-13.32,30.54,15.48
10.542,8.9213,-14.342,-0.36957,0.7254,-0.29444,-13.44,30.6,15.36
13.035,-15.35,-1.362,-0.059559,-0.57055,-0.51588,-13.38,30.6,15.0
-4.8761,-8.6217,-11.7,-0.13897,-0.92424,0.25198,-13.32,30.54,14.88
1.9613,-9.616,-0.74912,-0.56108,-0.30635,-1.2602,-13.38,30.3,14.7
12.449,3.0918,-11.618,-0.012217,0.93218,-0.30421,-13.86,30.18,14.52
9.3572,1.58,-5.9793,-0.26939,-0.14416,-0.61728,-14.34,30.06,14.34
8.2267,-4.522,-10.311,-0.075442,0.086743,0.51099,-14.46,29.88,14.28
5.6252,-14.083,-7.355,-0.099266,-0.53726,0.49205,-14.52,29.76,14.1
4.6854,-4.699,-9.5342,0.25656,0.56413,0.68417,-14.46,29.88,14.22
9.902,-10.093,-7.6955,0.29627,-0.061697,0.2251,-14.58,29.82,14.28
2.4653,-2.9011,-6.9872,0.59956,0.26695,0.46365,-14.58,29.4,14.16
5.7205,-3.4459,-4.0725,0.62461,0.25015,0.21838,-14.52,29.52,14.34
5.6252,-1.6889,-5.8976,0.61209,0.1066,0.46304,-14.58,29.64,14.34
8.2131,-1.7706,-7.0962,0.19212,-0.011912,0.39462,-14.34,30.0,13.74
8.5944,-6.3879,-5.9793,-0.1857,-0.2306,0.20372,-14.16,30.06,13.5
0.19068,-6.1836,-3.4459,-0.27397,-0.1912,0.20739,-13.68,30.3,13.14
8.3084,-2.7377,-6.674,-0.38576,0.041539,-0.21441,-13.26,30.66,12.84
4.808,-7.0553,-5.4209,-0.32284,-0.098349,0.31429,-13.02,30.84,12.84
4.8897,-1.9886,-8.6489,-0.29291,0.11606,0.18418,-12.9,30.78,12.78
11.591,-16.331,-7.3005,-0.45326,-0.65027,-0.0024435,-12.66,31.02,12.66
-3.2825,-2.9965,-7.6683,-0.11576,0.018631,0.052229,-12.24,31.14,12.54
10.937,-0.72188,-5.6933,-0.44288,0.054978,-0.91783,-12.12,31.14,12.78
4.5083,-1.1713,-1.7434,-0.12523,0.24496,0.32651,-11.94,30.9,13.08
9.9565,-8.54,-6.851,-0.037568,0.1854,0.27855,-11.88,30.9,13.62
1.1713,-5.2847,-3.228,-0.026878,-0.20189,0.36499,-11.88,30.72,13.92
0.83084,5.1213,-8.6625,0.2138,0.67898,0.6689,-11.88,30.84,14.34
13.607,-11.441,-3.0373,0.14203,0.12004,0.37965,-11.76,31.08,14.28
-1.6481,-4.1951,-9.6023,0.36041,-0.61239,0.55589,-11.52,31.32,14.52
6.0474,-2.5198,-8.7715,-0.068417,0.41081,-0.61209,-11.4,31.32,14.46
4.2495,-3.9499,-5.2711,0.38179,-0.31796,-0.016188,-11.4,31.56,14.34
10.583,-2.0567,-10.801,0.13103,0.16768,-0.5623,-11.4,31.56,14.4
10.188,-3.6775,-8.7306,-0.43921,-0.21808,-0.61606,-11.46,31.62,14.22
2.4244,0.054481,-6.6059,-0.53329,-0.074526,-0.37782,-11.64,31.56,13.92
10.147,-3.5004,-5.203,-0.71624,0.19639,-0.32101,-11.82,31.5,13.92
9.4253,-16.603,-3.8001,-0.40012,-0.40164,0.14478,-12.0,31.44,13.86
6.1564,7.8726,-13.825,-0.26756,0.27519,-0.47922,-12.12,31.44,13.68
11.346,1.58,-2.0567,-0.21105,0.81184,-0.2022,-12.3,31.32,13.5
5.9249,-5.6661,-0.78998,0.67806,0.35705,0.86315,-12.36,31.2,13.44
8.3629,-3.5685,-11.196,-0.026878,0.26023,0.1576,-12.78,30.96,13.32
3.514,-7.8589,-1.3757,0.019853,-0.029016,0.37904,-12.96,30.96,13.2
1.8387,-4.0044,-5.7478,-0.028711,0.091324,0.079107,-13.08,30.96,13.32
3.9227,-10.692,-3.0373,-0.36041,-0.27855,-0.33445,-13.32,30.66,13.68
0.68102,-4.413,-6.9191,-0.39095,0.25626,-0.58918,-13.56,30.66,13.62
6.8374,-4.1406,-8.0632,-0.57941,-0.014355,-0.74251,-13.62,30.48,13.68
9.1529,-9.5206,-4.2495,-0.28986,-0.14508,-0.30299,-13.8,30.48,13.8
9.221,2.6287,-12.926,-0.17685,0.24984,-0.24679,-13.8,30.54,14.04
13.539,-1.2803,-7.0962,-0.25168,0.49052,0.066279,-13.92,30.54,14.04
0.96704,-6.2381,-3.9363,0.22083,-0.1011,0.45448,-14.1,30.6,14.04
3.8001,-3.4323,-6.7693,0.45357,0.13867,0.66187,-14.04,30.72,14.22
7.1779,-4.7126,-4.9987,0.40653,0.40775,0.44532,-14.1,30.66,14.34
6.4969,-4.3449,-5.8976,0.36408,-0.15577,0.3204,-14.04,30.72,14.28
3.4459,-4.8216,-4.3858,0.2364,-0.28375,0.045204,-14.1,30.84,14.34
2.547,-0.96704,-5.8431,0.18143,0.023518,-0.029322,-14.04,30.84,14.16
7.7364,-7.8045,-5.9657,0.04215,-0.24557,-0.093462,-13.92,31.02,14.1
7.6002,-16.249,-6.5105,-0.1967,-0.95295,-0.39156,-13.98,31.02,13.92
2.2882,-2.6832,-8.5672,-0.37141,-0.043371,-0.66004,-13.98,31.2,13.8
9.1529,0.65378,-8.54,-0.23488,-0.33659,-0.28558,-13.74,31.26,13.86
12.749,-12.149,-8.7987,-0.000916,-0.10568,0.54214,-13.86,31.26,13.74
4.5083,-12.585,-5.7614,0.0085521,-0.6408,0.21441,-13.62,31.44,13.68
3.0646,-0.7355,-7.5457,0.24251,-0.062308,-0.15058,-13.5,31.44,13.56
4.4402,-5.3119,-3.9499,0.34453,-0.070555,0.27489,-13.38,31.5,13.38
0.42223,3.1735,-8.4582,0.33872,0.21686,0.52595,-13.2,31.62,13.26
6.9191,1.3757,-8.2403,0.0079412,0.25687,0.26542,-13.2,31.56,13.2
-1.185,-2.0839,-2.8467,0.18265,-0.27886,0.77794,-13.08,31.56,13.08
5.1485,-6.5922,-4.2359,-0.060781,0.18754,0.22052,-13.14,31.68,13.2
4.808,-2.9284,-7.9815,-0.12889,-0.56169,0.12675,-12.96,31.68,13.14
11.482,-8.5944,-9.8611,-0.45693,0.18265,-0.21991,-12.54,31.74,13.32
4.7535,-17.965,-4.5628,-0.51099,-0.89828,-0.51435,-12.3,31.74,13.44
-3.1327,-3.732,-5.1485,-0.31215,0.30268,-0.95814,-12.24,31.86,13.44
8.8532,0.49033,-9.7385,-0.13928,-0.1408,-0.52595,-12.12,31.98,13.62
8.8668,-1.076,-8.2812,-0.050091,0.18143,0.26114,-11.94,31.8,13.68
10.76,-8.1858,-8.0088,0.16677,-0.25351,0.55833,-11.94,31.68,13.86
3.3778,-5.8976,-6.8919,0.36194,-0.029322,0.80787,-11.88,31.62,14.16
8.0632,-11.782,-6.6331,0.46762,-0.073609,0.44593,-11.76,31.56,14.22
3.623,-9.1256,-5.1894,0.60934,0.32315,0.2978,-11.7,31.62,14.34
6.4152,-0.70826,-5.094,0.49205,0.40164,-0.032681,-11.52,31.8,14.64
6.6059,-5.993,-3.3097,0.45937,-0.0012217,0.097128,-11.34,31.56,14.64
6.674,-2.5198,-5.8704,-0.07086,0.086132,-0.29932,-11.34,31.8,14.58
4.8761,-5.4754,-3.4732,-0.096211,-0.032681,-0.14233,-11.4,31.92,14.58
4.1814,1.7706,-7.9679,-0.37354,0.19395,-0.29169,-11.64,32.04,14.52
10.079,-0.36775,-8.8941,-0.74556,0.21625,-0.42974,-11.7,32.04,14.34
0.89894,-15.337,-1.5936,-0.3488,-0.43158,0.038485,-11.82,32.16,14.28
3.5413,-0.6674,-7.5048,-0.50335,0.52748,-0.75106,-11.88,32.1,14.46
9.4389,2.438,-8.8532,-0.26634,1.036,0.17379,-11.94,32.28,14.4
-3.2825,-7.75,-9.112,0.1237,-0.62858,0.4383,-12.36,32.28,14.1
3.6639,4.7671,-14.261,-0.53665,0.56963,-1.0311,-12.48,32.22,14.16
5.6661,7.2324,-6.8102,0.1182,1.5119,0.77794,-12.66,32.1,14.1
12.967,-11.25,-3.9227,0.48442,0.52107,0.57055,-13.02,31.86,13.92
3.4187,-10.447,-9.0303,0.075442,-0.64355,0.4163,-13.38,31.74,13.92
0.72188,-9.9837,-1.6344,-0.09163,0.16402,-0.13286,-13.74,31.56,13.86
5.1757,-4.6582,-7.6683,-0.018937,0.089492,-0.39156,-13.92,31.38,13.8
8.1722,-6.96,-6.7285,-0.066584,0.065057,-0.50824,-13.92,31.38,13.68
1.2258,-3.8409,-2.9284,0.13683,0.33353,-0.35064,-14.04,31.26,13.74
4.0861,0.47671,-7.0553,0.054062,0.36957,-0.61545,-14.28,31.08,13.68
10.896,-4.5083,0.8036,0.06353,0.3711,-0.15608,-14.76,30.96,13.38
5.0395,-6.1836,-4.1814,0.38698,-0.22999,0.25381,-14.82,30.96,13.26
17.339,-13.988,-3.8001,-0.66462,-0.29535,-0.29535,-14.94,30.96,13.26
-0.19068,-12.844,0.7355,-0.03207,-0.55711,0.5846,-15.18,30.96,13.14
-2.9965,0.42223,-10.093,-0.32284,-0.039095,-0.66768,-15.24,30.84,13.2
10.215,1.3757,-9.5479,-0.29841,0.39798,-0.40684,-15.36,30.78,13.2
13.362,-3.1191,-8.2131,0.0051924,-0.081856,0.48136,-15.66,30.48,12.96
5.5707,-3.7865,-8.2131,0.022297,-0.33903,0.52748,-15.84,30.36,13.02
5.884,-11.891,-5.884,0.07025,-0.34483,0.39523,-15.96,30.24,13.14
5.8567,-2.547,-8.3493,0.078496,-0.027489,0.31429,-16.02,30.12,13.26
9.7113,-7.5457,-3.6366,0.037874,-0.10507,0.2303,-16.26,29.88,13.26
2.0158,0.47671,-6.3743,0.21991,0.029016,0.5455,-16.2,29.94,13.38
9.0303,-1.5255,-7.3686,0.078496,-0.19242,0.43158,-16.02,29.94,13.38
1.3212,-3.7728,-6.2109,0.26573,-0.33323,0.93646,-15.66,29.76,13.26
7.2869,-0.91256,-9.8611,0.040623,-0.084299,0.2022,-15.42,29.76,13.26
4.4266,-5.3119,-4.0316,-0.078802,-0.10965,0.50457,-14.82,29.76,13.2
2.6696,-5.0259,-6.1973,-0.0051924,-0.22205,0.38087,-14.58,29.94,13.26
4.7944,-4.304,-6.0474,-0.33078,-0.27428,0.208,-14.28,29.94,13.26
5.8431,-4.5901,-4.985,-0.29108,-0.16463,0.43127,-13.8,30.54,13.62
7.1507,-7.9951,-6.7693,-0.29993,-0.3543,0.26206,-13.5,30.66,13.68
5.1076,-5.1076,-6.8374,-0.33353,-0.29719,0.14111,-13.08,30.84,13.74
6.5105,-17.666,-5.4073,-0.096211,-0.76236,-0.2865,-12.54,31.02,13.92
-1.2395,-0.85808,-6.8374,0.1127,0.036652,-0.39767,-12.24,31.2,14.04
5.2166,2.1656,-10.256,0.046426,0.096517,-0.52015,-12.06,31.2,14.1
5.598,-9.7658,-3.6094,0.26848,-0.31643,0.064141,-11.58,31.08,14.34
-0.70826,0.27241,-7.4912,0.23946,-0.04612,-0.12645,-11.58,31.2,14.34
9.7249,-0.44947,-5.7069,0.10079,-0.066279,-0.25565,-11.52,31.08,14.46
0.38137,0.62654,-6.7012,0.35277,-0.11332,0.28161,-11.58,31.32,14.58
8.9213,0.55843,-8.826,-0.085827,0.3879,0.079107,-11.58,31.26,14.64
10.324,-12.803,-0.14982,0.31001,-0.60048,0.28772,-11.52,31.38,14.64
0.76274,-4.6582,-9.1665,-0.012523,-0.083994,-0.52412,-11.28,31.08,14.4
8.3901,-16.385,-3.6366,-0.4047,-0.93493,-1.0687,-11.34,31.14,14.34
-3.7047,1.58,-6.2381,-0.12095,0.57605,-0.40134,-11.46,31.08,14.28
11.141,1.6208,-1.9613,-0.55283,0.20892,-0.71288,-11.64,31.02,14.34
8.8941,-6.5514,-5.2166,-0.34972,-0.011912,-0.21441,-11.88,30.9,14.4
16.004,-14.506,-8.4174,-0.6918,-0.77122,-0.46487,-12.0,30.84,14.4
3.9227,-2.6423,-10.556,-0.6576,0.48686,-0.37629,-12.36,30.78,14.52
9.507,-2.0294,-7.3005,-0.3207,0.16554,-0.27917,-12.48,30.48,14.7
1.2803,-2.0294,-6.0066,0.29108,0.72204,0.58215,-12.66,30.3,14.7
6.1019,-7.5321,-2.4517,0.73182,0.25015,0.6634,-12.96,29.94,14.82
0.83084,-4.6718,-6.279,0.72174,0.22694,0.50121,-13.08,29.82,14.76
7.355,-3.0237,-8.8805,0.22571,0.23549,-0.093462,-13.14,29.76,14.64
5.5435,-4.5083,-6.5241,-0.051924,-0.069028,-0.19456,-13.38,29.7,14.82
4.0316,-5.993,-3.9908,-0.39554,0.10843,-0.57696,-13.56,29.52,14.88
2.9284,-13.375,-1.6753,-0.36927,-0.25534,-0.69455,-13.92,29.52,14.58
2.6968,-4.6173,-2.7922,-0.41661,0.24984,-0.78741,-14.22,29.34,14.58
10.188,-1.7162,-7.1371,-0.42669,0.019242,-0.56963,-14.28,29.22,14.52
11.4,3.6775,-11.155,-0.49511,0.37904,-0.074526,-14.4,29.04,14.52
5.2575,-12.776,-7.9134,-0.11881,-1.0516,-0.079107,-14.7,28.8,14.4
-4.7263,-2.3155,-7.8589,0.18082,0.67104,0.19639,-14.7,28.86,14.28
7.1098,0.19068,-6.2245,0.47495,0.68906,-0.025351,-14.7,28.86,14.22
6.1973,-2.7241,-8.0905,0.90713,0.52321,0.65027,-14.88,28.68,13.86
7.1507,-5.6933,-4.6582,0.76786,0.54275,0.4496,-15.06,28.62,13.68
3.8682,0.38137,-10.42,0.48472,0.24496,0.38087,-15.3,28.56,13.68
7.2188,0.51757,-7.1234,0.14294,0.053756,0.13531,-15.42,28.38,13.44
-2.7649,-8.9758,-2.8058,0.22358,-0.69333,0.25748,-15.66,28.32,12.78
-3.9227,-2.9965,-7.1234,-0.076664,0.29169,-0.19395,-15.6,28.26,12.54
6.2245,3.8273,-9.5479,-0.16341,0.045815,-0.32742,-15.54,28.08,12.48
11.768,-2.7241,-6.279,-0.17746,0.055283,0.43005,-15.48,28.2,11.82
1.7843,-4.0589,-7.4367,-0.011606,-0.17837,0.93035,-15.36,28.32,11.64
2.6968,0.50395,-12.0,-0.39676,0.028711,0.5568,-15.3,28.44,11.4
5.7886,-17.489,-3.1327,-0.15577,-0.57849,0.72326,-15.12,28.56,10.86
-1.2531,1.58,-9.0439,0.0061087,0.57024,0.21747,-14.94,28.68,10.8
15.159,-5.1485,-6.4152,-0.060476,-0.05681,-0.10537,-14.7,28.92,10.74
12.027,-9.0848,-3.3506,0.19761,-0.17623,0.81581,-14.46,28.86,10.74
8.145,-2.833,-5.9793,-0.064446,-0.051313,0.24496,-14.28,28.92,10.68
6.2109,-7.0281,-6.1292,0.092852,-0.0042761,0.65637,-13.98,28.92,10.68
7.0962,-13.675,-5.9657,-0.13531,-0.3824,0.29902,-13.56,28.98,10.8
4.9987,-5.2983,-6.0066,-0.26817,0.011912,-0.17043,-12.96,29.1,10.98
7.7227,-11.536,-4.127,-0.1292,-0.22663,-0.34728,-12.66,29.22,10.92
-1.1169,5.1213,-7.9679,0.12339,0.62827,-0.32132,-12.3,29.28,10.92
11.073,-2.4244,-3.1327,-0.07025,0.014355,-0.38271,-11.88,29.28,11.28
2.942,2.8058,-9.0984,0.097128,-0.060781,0.24068,-11.7,29.4,11.34
12.762,-0.54481,-7.1507,-0.5736,0.05284,0.17776,-11.82,29.52,11.28
4.6037,-16.413,-2.5334,-0.2645,-0.53145,-0.022602,-11.82,29.46,11.16
4.1814,-5.7614,-12.163,-0.18845,-0.7141,0.15485,-11.7,29.4,11.22
12.912,-8.7851,-7.75,-0.73976,-0.013439,-1.1619,-11.82,29.28,11.28
4.3858,-4.7263,-7.1915,-0.098044,0.22694,-0.3882,-12.06,29.16,11.64
10.243,-0.83084,-8.1041,-0.28375,0.17318,-0.4722,-12.24,28.92,11.88
8.7987,-7.0281,-6.2654,0.1014,0.17135,0.2022,-12.72,28.74,12.12
3.514,-2.6423,-10.038,0.13714,-0.20708,-0.0094684,-12.66,28.68,11.82
7.0962,-3.9908,-8.036,-0.045204,0.31734,-0.058948,-12.6,28.56,12.06
1.3757,-3.4051,-4.1814,0.16096,0.0054978,0.17349,-12.66,28.5,12.06
4.0589,0.5993,-6.7012,0.23763,0.22052,0.23457,-12.78,28.44,12.18
8.1177,-2.1384,-3.4187,0.11484,0.28711,0.42364,-12.84,28.62,12.24
6.6059,-7.3141,-0.81722,0.42302,-0.34331,0.58643,-12.96,28.5,12.18
6.5105,1.2395,-10.256,-0.18387,0.083078,0.48747,-13.2,28.74,12.06
16.916,-11.536,-1.7298,-0.43005,-0.16585,-0.27611,-13.08,28.86,11.88
-0.35413,-2.5879,-5.8431,-0.72785,-0.53023,-0.75289,-13.08,29.16,11.82
4.5764,-10.338,-0.16344,-0.64935,0.23915,-0.6634,-13.08,29.22,11.82
6.4152,-11.7,-2.1384,-0.34331,-0.14813,-0.68386,-13.02,29.28,11.88
10.637,-4.2223,-11.7,-0.74281,-0.2529,-0.90347,-12.96,29.34,11.88
13.511,-14.724,-7.1915,-0.64538,-0.15485,-0.56841,-13.02,29.28,12.0
1.6344,-7.0281,-4.9169,-0.13836,0.16799,-0.32834,-13.02,29.1,11.94
10.283,-0.95342,-5.8976,-0.22083,0.016799,-0.21747,-13.08,28.8,12.24
1.2531,2.833,-2.6015,0.8094,0.58124,0.6295,-13.14,28.68,12.42
12.612,-6.8919,-9.0303,0.71013,0.22174,0.31368,-13.26,28.5,12.48
-3.3097,-5.7614,-1.1305,0.83627,0.40439,0.67378,-13.38,28.26,12.54
3.4187,3.8273,-9.616,0.5397,0.56749,-0.32345,-13.5,28.08,12.66
8.6762,8.1177,-10.583,-0.063835,0.0015272,-0.11393,-13.62,27.9,12.84
17.053,-10.637,1.9886,-0.023518,0.32895,-0.06017,-13.98,27.66,12.66
-0.25879,-4.2495,-4.8897,0.22663,-1.0889,-0.022907,-14.16,27.66,12.6
11.06,-11.346,-5.4209,-0.78007,-0.26603,-0.6014,-14.22,27.6,12.54
15.732,-17.489,-5.8976,-0.57574,-0.90194,-0.13989,-14.34,27.48,12.48
15.159,-2.1929,-12.885,-1.1671,-0.75595,-1.015,-14.52,27.3,12.54
4.699,-7.5865,-0.9398,-0.47128,-0.079412,0.029627,-14.46,27.3,12.6
9.4798,-4.4675,-11.959,-0.01741,-0.21105,-0.32467,-14.4,27.48,12.66
7.5729,-3.2553,-4.9987,0.10568,0.25809,0.5507,-14.34,27.54,12.54
4.1406,-0.027241,-6.9872,0.34819,0.3375,0.84574,-14.34,27.42,12.6
6.7693,-1.3484,-7.8862,0.28619,0.3091,0.99876,-14.22,27.48,12.72
0.8036,-10.311,-2.2746,0.45571,0.14661,1.197,-13.98,27.54,12.78
0.25879,-5.5026,-3.9227,0.55283,0.19578,0.7761,-13.74,27.66,12.78
4.4947,-1.6889,-6.565,0.43219,-0.28986,0.25473,-13.14,27.84,12.84
4.699,-4.9987,-4.3313,0.30146,0.10537,0.18906,-12.84,27.96,12.96
6.17,-6.2926,-5.0804,0.2138,-0.10415,-0.046426,-12.72,28.14,12.96
4.7126,3.1599,-7.8998,-0.22297,0.18937,-0.058032,-12.54,28.32,13.08
1.471,-9.8611,-4.6854,-0.15577,-1.0033,-0.3543,-12.12,28.74,13.02
2.0158,-2.9965,-8.9622,-0.25656,0.13195,-0.48533,-12.12,29.04,13.08
8.2948,-5.2575,-8.0088,-0.22052,-0.29993,-0.50121,-11.94,29.28,13.02
8.1995,-5.6524,-9.3163,-0.06689,-0.12889,-0.27764,-11.94,29.46,12.96
5.8976,-3.5413,-5.7342,0.13836,0.095295,-0.058338,-11.94,29.64,12.96
2.942,0.14982,-4.3858,0.51679,0.27,0.37385,-11.94,29.76,12.9
9.7249,-3.6911,-5.5707,0.48014,0.16707,0.40378,-11.76,30.06,12.9
6.7557,-8.1858,-6.3335,0.37415,-0.081551,0.48136,-11.94,30.0,12.78
3.732,-6.0474,-6.5786,0.11759,0.12187,0.098044,-11.88,30.12,12.78
6.8374,-8.5808,-3.1191,0.20617,0.10751,0.18234,-12.18,30.18,12.78
1.8387,-7.1371,-5.3392,0.23182,-0.16524,0.13714,-12.18,30.12,12.78
1.8387,-7.1371,-5.3392,-0.19975,0.25809,-0.3598,-12.18,30.12,12.78
10.215,-14.574,-4.5492,-0.20708,-0.4499,-0.41081,-12.12,30.12,12.78
0.81722,-2.3018,-6.9328,-0.18418,0.43768,-0.33506,-12.12,30.0,12.66
4.2223,-3.1599,-3.3506,-0.15027,0.26053,-0.23793,-12.06,30.12,12.3
10.038,-4.7944,-9.9565,-0.038485,0.32529,-0.13561,-11.82,30.24,12.06
7.2324,-6.2381,-6.5922,-0.36194,0.354,-0.01405,-12.0,30.42,11.76
4.3177,-8.1722,-2.9692,-0.10629,0.4215,0.0018326,-12.36,30.3,11.58
5.3528,-4.5356,-7.3005,-0.14752,0.29963,-0.16402,-12.66,30.24,11.46
4.3449,-2.3836,-5.8023,-0.2251,0.54642,0.07086,-12.9,30.18,11.22
4.3177,-6.1836,-3.5413,-0.058643,0.58399,0.27092,-13.14,30.12,11.16
4.8352,-3.4187,-7.0553,-0.002138,0.46242,0.12492,-13.38,30.06,11.1
7.1371,-1.0624,-6.5786,-0.41814,0.86529,0.068417,-13.8,30.06,11.28
6.7012,-8.5944,-2.9556,-0.18662,0.13683,-0.026267,-13.98,29.88,11.22
2.5742,-4.2495,-8.8668,-0.45937,0.32132,-0.24832,-14.28,29.94,11.28
11.441,-12.98,-3.6775,-0.67256,0.41936,-0.489,-14.34,29.88,11.46
5.2166,-9.4117,-5.489,-0.38087,-0.018937,-0.30024,-14.28,29.76,11.52
8.4855,-2.2746,-10.297,-0.64813,0.28283,-0.76694,-14.52,29.88,11.76
8.1586,-0.27241,-6.2109,-0.36499,0.70524,-0.081551,-14.82,29.52,12.0
10.61,-5.5162,-9.507,0.012523,-0.028405,0.3821,-15.24,29.34,12.06
6.4833,-5.5299,-8.4719,0.091019,-0.032987,0.51588,-15.3,29.34,12.12
3.6775,-3.8001,-5.3664,0.32773,0.12706,0.58307,-15.36,29.4,12.12
4.9987,-2.547,-5.884,0.49236,0.22571,0.65821,-15.54,29.4,12.3
7.4231,-6.456,-4.8761,0.44043,0.19823,0.69944,-15.54,29.34,12.3
5.2302,-4.9169,-4.5083,0.42364,-0.0079412,0.61087,-15.42,29.28,12.12
6.6331,-3.3506,-5.1485,0.24679,0.12034,0.40836,-15.24,29.82,12.12
7.4776,-13.729,-3.8682,0.10721,-0.97005,0.14905,-14.94,29.82,11.64
6.8374,2.1248,-10.733,-0.29322,0.037874,-0.17379,-14.52,30.24,11.4
10.379,-2.2882,-7.2869,-0.44899,-0.20128,-0.13775,-14.16,30.42,11.4
4.2359,-7.8998,-6.5378,-0.31337,-0.22419,0.33872,-13.92,30.78,11.22
7.1915,-7.8045,-6.9736,-0.49144,-0.27886,-0.051618,-13.8,30.9,11.22
7.1507,-5.6116,-7.5593,-0.29077,-0.19517,0.10812,-13.56,30.78,11.4
7.9407,-1.9341,-10.583,-0.24801,0.066279,0.17349,-13.44,30.84,11.16
5.489,-5.4209,-5.2983,-0.12034,-0.019853,0.48961,-13.38,30.78,11.34
0.70826,-0.24517,-4.2495,0.22205,0.17746,0.54184,-13.26,30.9,11.4
10.869,-6.4016,-3.6366,0.15149,0.47495,0.60751,-13.14,30.9,11.64
6.4833,-11.196,-2.5606,0.25809,-0.24007,0.748,-13.08,31.08,11.7
4.1951,-2.1929,-8.54,0.037263,-0.22266,-0.052229,-13.14,31.2,11.88
7.0417,-6.8102,-2.833,-0.17532,-0.24771,0.065057,-12.96,31.44,11.94
3.051,-8.4855,-3.5004,-0.13806,-0.32681,-0.10507,-12.96,31.62,12.12
7.5048,-5.6933,-7.9407,-0.45509,-0.3091,-0.55986,-12.72,31.8,12.24
6.0611,-5.1485,-5.9249,-0.34667,-0.25901,-0.14844,-12.54,31.8,12.36
8.2539,-1.5255,-9.0575,-0.39279,-0.38149,-0.10812,-12.3,32.04,12.42
7.6002,-3.0646,-7.2733,-0.39615,-0.076664,0.16707,-12.24,31.92,12.6
11.278,-16.058,-8.7987,-0.26359,-0.93859,0.12584,-12.18,31.86,12.66
-4.1814,0.7355,-4.1542,0.05681,0.4163,0.1909,-12.24,31.68,12.96
11.346,1.0079,-5.8567,0.098349,0.42913,-0.094379,-11.88,31.5,13.26
2.4244,-2.3699,-5.6524,0.70219,0.069639,0.96303,-11.76,31.32,13.32
8.3357,-3.6911,-10.828,0.27917,-0.11973,0.31979,-11.82,31.38,13.26
1.0351,-8.6625,-2.1929,-0.021686,-0.59804,0.17196,-11.58,31.5,13.32
6.0202,0.24517,-9.0167,-0.28711,0.01741,-0.49022,-11.52,31.68,13.32
9.2074,-5.993,-4.5356,-0.29902,-0.24465,-0.23091,-11.46,31.62,13.38
4.6854,-1.7706,-7.8045,-0.40042,0.046426,-0.44166,-11.34,31.74,13.44
7.1234,-4.2904,-3.7728,-0.63011,-0.015272,-0.58765,-11.22,31.98,13.56
6.7966,-4.6854,-5.489,-0.58093,-0.0082467,-0.27978,-11.28,31.92,13.5
7.1915,-7.4503,-6.9464,-0.59804,-0.2868,-0.4273,-11.28,31.92,13.68
7.7636,-1.4846,-9.6023,-0.55619,0.25595,-0.34544,-11.88,31.86,13.92
6.8238,-2.152,-7.4776,-0.23121,0.26939,0.19151,-11.88,31.62,14.16
4.7671,-9.7385,-5.7886,0.15852,-0.086743,0.26176,-12.12,31.38,14.76
4.8352,-4.1406,-7.8045,0.31704,0.0082467,0.03146,-12.24,31.2,14.94
5.4481,-0.040861,-8.5808,0.2868,0.17898,-0.13195,-12.6,31.02,15.42
8.8668,-7.6274,-4.5901,0.23732,0.13011,-0.059865,-12.78,30.72,15.66
2.8194,-5.6116,-7.0962,0.18479,-0.41294,-0.17379,-13.14,30.48,15.78
7.1098,-6.4833,-5.3528,-0.25931,-0.20067,-0.54459,-13.14,30.36,16.08
4.1542,-2.8194,-4.0044,-0.13867,-0.18754,-0.35491,-13.02,30.42,16.32
11.836,-1.3893,-7.4231,-0.31337,-0.0039706,-0.12492,-13.08,30.3,16.2
13.784,-7.5593,-4.3585,-0.16096,-0.40317,0.018937,-12.96,30.3,16.32
4.0589,0.35413,-10.351,-0.16005,-0.96211,-0.29108,-13.2,30.36,16.2
6.5786,-1.9205,-2.8875,-0.03879,-0.087965,-0.093157,-13.38,30.24,16.44
4.4675,-5.2847,-5.6661,0.38851,-0.55803,0.16157,-13.2,30.06,16.38
10.052,-3.8137,-10.324,0.1237,-0.19975,-0.27214,-13.32,29.94,16.32
3.1872,1.2395,-3.1463,0.23488,-0.017715,0.15577,-13.38,29.88,16.5
4.5083,-1.4165,-3.8001,0.5342,-0.059865,0.44318,-13.38,29.76,16.68
7.4776,-9.7385,-8.4855,0.31704,-0.54062,0.37415,-13.62,29.82,16.62
2.6287,-5.1621,-4.5901,0.11545,-0.18876,0.05681,-13.32,29.58,16.68
3.514,-0.10896,-6.5786,0.1576,-0.025045,0.10629,-13.32,29.64,16.68
7.1371,-8.1586,-6.8919,0.14142,-0.20647,0.41386,-13.02,29.82,16.68
4.5083,-9.2482,-6.5105,0.22022,-0.19853,0.47647,-12.9,29.76,16.62
4.3449,-0.62654,-8.1722,0.30971,0.067501,0.3656,-12.36,29.94,16.26
6.2926,-4.7671,-6.5105,0.42211,-0.06017,0.63133,-12.06,30.18,16.26
5.0668,-8.9894,-6.7966,0.48045,-0.050702,0.76419,-11.58,30.54,16.08
2.9965,-5.8431,-5.2166,0.39584,0.029322,0.31154,-11.34,30.6,15.96
4.6582,-7.3141,-4.018,0.4047,-0.002138,0.24343,-10.68,30.9,15.66
4.6309,-10.665,-4.808,0.33139,-0.219,0.078802,-10.5,31.02,15.36
3.8001,-3.0918,-7.2188,0.19364,0.08491,-0.31429,-10.2,31.26,15.18
8.0905,-0.54481,-6.4016,-0.19914,0.048869,-0.41997,-9.84,31.26,14.76
4.0861,-11.959,-3.1599,-0.19456,-0.16066,-0.11912,-9.6,31.56,14.58
0.78998,-4.4402,-4.4539,-0.1295,0.21686,-0.44074,-9.6,31.5,14.46
8.322,-4.127,-5.0395,-0.23579,0.015882,-0.2923,-9.66,31.5,14.34
4.1542,-6.4288,-4.8352,-0.029322,-0.018021,0.24099,-9.66,31.44,14.28
8.9077,-5.8295,-8.8668,-0.28466,0.13958,-0.14539,-9.78,31.56,14.1
3.1735,-5.7069,-5.2302,-0.036041,-0.099571,0.097738,-9.84,31.44,14.16
8.54,-6.0066,-7.0009,0.055283,0.097738,-0.19334,-9.9,31.32,14.34
7.2324,-9.0575,-6.1836,-0.0039706,0.07086,-0.12675,-9.9,31.32,14.4
3.3234,-2.833,-7.9407,0.040317,0.35888,-0.31734,-10.2,31.2,14.28
9.1529,-2.656,-6.1564,-0.11606,0.21136,-0.1576,-10.56,31.08,14.34
4.1814,-9.6977,-6.1428,-0.059865,-0.04215,0.09163,-10.8,30.96,14.22
3.514,-6.8919,-6.2654,-0.14691,0.0061087,-0.18204,-10.8,30.9,14.1
7.1507,-1.6072,-6.4152,-0.16371,0.3543,-0.26542,-10.92,30.9,14.16
5.3528,-5.3528,-5.4345,0.060476,0.075747,0.07758,-11.1,30.66,14.1
6.1019,-8.5672,-7.0553,0.0061087,-0.10904,-0.16921,-11.4,30.66,13.98
4.808,-3.8001,-6.674,-0.025351,0.19395,-0.22907,-11.52,30.66,14.1
5.9657,-2.2201,-5.6661,-0.067806,0.10324,-0.2251,-11.7,30.54,14.04
8.3357,-6.3743,-6.4969,-0.011606,0.24801,-0.048258,-11.7,30.54,14.04
4.2632,-5.5162,-6.9328,-0.15882,-0.015882,-0.12889,-11.82,30.42,14.04
7.0553,-5.4754,-6.4016,-0.34208,0.17471,-0.27031,-11.76,30.24,14.1
4.4675,-5.8704,-5.1485,-0.29352,0.15027,-0.089797,-11.88,30.0,14.34
6.1292,-6.674,-6.4969,-0.28344,0.080634,-0.25504,-12.24,29.82,14.4
5.4481,-4.5764,-6.3335,-0.16738,0.27581,-0.21625,-12.24,29.7,14.4
8.3357,-3.9635,-6.7012,-0.090713,0.29077,-0.23946,-12.54,29.4,14.46
4.3858,-6.1564,-6.2517,0.079107,-0.050091,-0.1686,-12.78,29.16,14.58
5.3392,-3.8818,-8.2948,0.054978,0.12004,-0.32467,-12.78,28.98,14.52
7.5048,-3.2144,-5.3528,0.048564,0.15516,-0.18631,-12.96,28.86,14.46
5.884,-3.4323,-6.9191,0.038179,-0.015577,-0.095295,-13.44,28.56,14.52
6.9328,-5.0804,-5.8976,-0.052229,-0.090713,-0.015272,-13.44,28.38,14.52
3.5958,-3.7728,-6.3198,0.011301,-0.1689,0.07086,-13.56,28.44,14.46
10.964,-3.8001,-5.7205,-0.087048,0.14355,0.062308,-13.92,28.5,14.1
4.8488,-11.332,-3.8682,-0.0027489,-0.46304,-0.036957,-13.98,28.56,14.16
-1.3212,-5.3119,-6.2245,0.19761,-0.25045,0.17043,-13.92,28.38,13.98
8.7579,-3.9908,-4.2904,0.01405,-0.14997,-0.18173,-13.98,28.32,13.98
0.9398,0.054481,-6.2109,0.30391,0.05284,0.44196,-13.86,28.2,14.04
10.106,-2.9148,-8.5263,0.065057,-0.13622,0.10263,-13.92,28.2,13.92
3.8273,-2.9148,-6.7285,0.17104,-0.0097738,0.51252,-13.86,27.96,13.68
10.188,-10.256,-6.8374,0.047953,-0.33017,0.33109,-13.8,27.96,13.74
2.0839,-7.927,-5.7205,0.091019,-0.26512,0.39798,-13.68,27.84,13.62
7.2324,-2.547,-7.9815,0.062919,0.036346,0.039095,-13.44,27.84,13.56
6.6331,-5.3256,-6.2654,0.15333,-0.04948,0.45479,-13.32,27.84,13.56
3.8818,-5.6116,-5.8431,0.17593,-0.048869,0.43158,-13.2,27.78,13.44
6.7421,-3.2689,-6.1564,0.20128,-0.02474,0.31857,-12.6,27.72,13.32
4.808,1.2122,-7.4095,0.15333,0.22999,0.6408,-12.36,27.72,13.32
9.9973,-6.6331,-6.3607,0.039095,0.16157,0.45632,-12.18,27.9,13.32
-0.8717,-4.9033,-5.4073,-0.046731,-0.17685,0.13714,-11.76,28.02,13.02
5.9521,-2.547,-5.1757,-0.081245,-0.094684,-0.34361,-11.52,28.08,12.84
2.261,0.99429,-5.1894,0.17654,-0.015272,0.29169,-11.28,28.14,12.84
9.7385,-3.5685,-4.5356,0.1179,0.39523,0.53817,-11.04,28.56,12.66
7.0417,-8.6625,-5.7069,0.16249,-0.19731,0.3992,-10.86,28.74,12.54
6.9464,-16.058,-9.507,-0.067501,-0.76694,0.1292,-10.56,28.98,12.54
-1.2531,-2.6015,-5.4345,-0.23885,-0.086132,-0.72693,-10.08,29.1,12.3
6.8919,2.7377,-8.6353,-0.16585,-0.050396,-0.91874,-10.02,29.16,12.24
10.569,-6.6331,-5.4481,-0.058948,0.041539,-0.16799,-9.72,29.22,12.3
1.8932,-6.7148,-6.3335,-0.23335,-0.21564,-0.35277,-9.6,29.22,12.12
9.4117,-4.699,-6.6195,-0.21258,-0.24038,-0.72113,-9.54,29.1,12.12
2.6423,0.027241,-4.6718,-0.0079412,-0.10751,-0.18204,-9.48,28.92,12.12
7.5865,2.9965,-9.7658,-0.071166,0.27611,-0.21747,-9.42,28.98,12.24
5.993,-6.6195,-3.0373,0.052229,-0.11515,0.085521,-9.66,28.8,12.12
-1.4301,-1.0215,-3.4323,0.21136,0.044899,-0.015272,-9.6,28.86,12.06
8.3629,-12.19,-3.051,0.096517,-0.33903,-0.30299,-9.66,28.74,12.12
2.6832,-0.068102,-11.986,-0.16371,0.024129,-0.4441,-9.78,28.68,12.12
9.6704,8.4991,-15.827,-0.99388,0.1799,-1.0626,-9.84,28.5,12.12
12.245,2.9692,-6.7966,-0.92913,0.25168,-0.64538,-9.96,28.38,12.3
7.2733,-17.611,0.19068,-0.36988,-0.94226,0.23427,-10.26,28.38,12.36
4.7535,-0.16344,-13.743,-1.1002,0.21594,-1.5745,-10.5,28.2,12.72
13.988,-2.5334,-5.8567,-0.75472,0.75106,-0.36835,-10.74,27.96,12.96
6.0066,-9.3436,-11.863,-0.15333,0.099876,0.31612,-11.16,27.78,13.32
2.9692,-5.9385,-4.9033,-0.17746,0.2587,-0.015577,-11.46,27.66,13.44
3.8001,-2.3427,-4.7671,0.56566,0.70188,0.37385,-11.82,27.54,13.5
6.96,-0.58567,-7.4776,0.72204,0.91416,0.72326,-12.0,27.54,13.68
7.0145,-4.6582,-4.9987,0.6185,0.62156,0.57513,-12.24,27.42,13.62
3.8273,-8.2812,-2.9148,0.65332,0.23518,0.40806,-12.36,27.42,13.68
1.0488,-5.3119,-2.8058,0.27367,-0.01741,-0.087354,-12.42,27.48,13.38
3.8409,-4.4402,-4.0861,0.12584,0.2529,-0.17929,-12.66,27.54,13.08
7.8045,-2.9556,-7.4776,-0.32315,-0.25901,-0.66645,-12.78,27.66,12.84
6.9872,-9.4117,-4.8897,-0.49572,-0.52809,-0.62766,-12.9,27.72,12.3
2.2201,-2.7104,-7.246,-0.39737,-0.0015272,-0.45112,-12.96,27.72,12.0
9.2482,-1.0351,-7.641,-0.39951,-0.0067195,-0.49724,-13.02,27.84,11.64
9.5751,-7.2052,-8.5536,0.0036652,-0.021075,0.27428,-13.02,27.96,11.28
6.6059,-5.6388,-9.3163,0.06689,0.067501,0.22571,-12.9,27.96,11.1
5.1213,-4.3858,-6.4016,0.20189,0.29047,0.32987,-12.96,28.02,10.92
-0.92618,5.2575,-7.2869,0.81092,0.67409,1.0424,-13.14,28.08,10.62
16.344,-13.797,-4.7944,0.54764,0.49969,0.78343,-13.02,28.26,10.56
-9.616,3.514,-9.4253,0.74067,-1.1652,0.79015,-13.02,28.38,10.26
13.062,-4.9306,-2.9965,-0.04948,0.0012217,-1.0736,-13.08,28.38,10.08
3.4732,-6.7421,-2.0431,0.20159,-0.22938,-0.12553,-13.02,28.44,10.2
1.1986,-4.4811,-8.1313,-0.28191,-0.064141,-0.46487,-12.9,28.5,10.14
-1.4029,8.0224,-3.6503,-0.45723,0.42364,-0.08094,-13.08,28.56,10.08
2.5061,10.61,-8.54,-0.35675,0.74037,0.94806,-13.08,28.74,10.02
17.08,-14.138,-1.2939,-0.49816,-0.89828,-0.21564,-13.08,29.04,9.9
-4.8488,-2.152,-11.455,-0.70769,0.47373,-0.034514,-12.9,29.4,9.72
7.9679,-6.6876,-3.0918,-0.6127,0.070555,-1.1316,-12.84,29.64,9.72
2.2474,-1.3212,-7.1779,0.2138,0.37354,0.354,-12.66,29.82,9.66
8.4174,-4.8352,-7.0009,0.0051924,-0.11393,-0.13622,-12.6,30.06,9.72
4.2359,2.656,-8.7987,0.072082,0.28558,0.47342,-12.66,30.12,9.72
15.514,-12.435,-2.833,-0.1463,-0.26389,0.076358,-12.66,30.18,9.96
-3.6366,-3.5822,-5.6388,-0.13928,-0.76847,0.12248,-12.66,30.3,10.08
5.7614,-0.38137,-6.8919,-0.18418,0.058643,-0.3708,-12.66,30.3,10.14
13.198,-8.6353,-5.9521,-0.13744,-0.047953,-0.086743,-12.54,30.36,10.2
0.10896,-8.2539,-2.2201,0.2306,0.12859,0.15791,-12.36,30.54,10.2
4.6445,1.8524,-7.9815,0.34697,0.19731,-0.20678,-12.3,30.6,10.26
10.501,5.775,-11.741,-0.058948,0.20953,0.092546,-12.24,30.54,10.44
5.8023,-9.3844,-6.0066,-0.098044,-0.15424,0.26084,-12.3,30.72,10.38
-1.076,-6.2381,-6.6876,-0.2306,-0.010996,-0.12767,-12.3,30.66,10.32
2.3836,-0.50395,-4.4947,-0.27031,0.20128,-0.33506,-12.24,30.72,10.44
5.8023,-6.1836,-3.732,-0.14691,-0.054978,0.16952,-12.06,30.72,10.38
7.3958,-6.0611,-7.8726,-0.42272,-0.18998,-0.22816,-12.06,30.78,10.44
8.1586,-3.1054,-7.6138,-0.61148,0.1127,-0.1909,-12.12,30.72,10.5
4.6309,-6.0066,-5.0668,-0.50732,-0.20097,-0.02474,-12.12,30.48,10.68
6.456,-5.4073,-7.75,-0.33842,-0.047342,0.04612,-12.12,30.6,10.68
7.0417,-4.8216,-7.8726,-0.27611,0.036652,-0.0058032,-12.36,30.6,10.98
9.1937,-5.5299,-8.1586,-0.14661,-0.03146,0.055283,-12.36,30.6,11.1
5.5707,-3.0918,-6.8374,-0.022602,0.18723,0.19609,-12.54,30.54,11.52
7.9679,-7.75,-5.993,0.11332,0.11362,0.32254,-12.6,30.66,11.64
7.0009,-14.56,-6.2517,0.099571,-0.58765,0.11209,-12.66,30.66,11.76
6.2926,0.99429,-8.3084,-0.012523,0.33567,-0.18265,-12.66,30.66,12.12
7.1098,-1.3348,-3.2825,0.18815,0.21075,0.30788,-12.66,30.72,12.36
5.3119,-4.0861,-2.0839,0.35369,0.048258,0.42822,-12.66,30.84,12.42
4.3858,-3.7728,-6.2245,0.19303,-0.27489,-0.15394,-12.72,30.84,12.6
5.6388,-3.2825,-4.6854,0.10263,0.063835,-0.095295,-12.66,31.02,12.6
7.1371,-4.4947,-5.2166,0.048869,-0.20372,-0.26023,-12.6,31.14,12.6
2.438,-1.471,-6.1836,-0.078496,-0.41294,-0.62156,-12.72,31.38,12.78
6.7148,-0.70826,-6.2654,-0.21289,-0.08094,-0.57666,-12.66,31.32,12.72
8.7306,-4.0725,-5.1076,-0.079412,-0.34422,-0.14142,-12.72,31.2,12.78
8.1722,-4.3313,-9.1529,-0.18906,-0.23518,0.079107,-12.96,31.14,12.9
6.2381,-6.0883,-7.1507,-0.099571,-0.4102,0.092852,-12.96,31.02,12.96
7.069,-3.1735,-11.128,-0.07025,-0.17837,0.018631,-12.9,30.9,13.14
4.9033,-11.741,-3.6094,0.080023,-0.48045,0.043371,-13.08,30.96,13.2
-8.8532,7.246,-4.3994,0.61025,0.56627,0.40959,-13.14,30.78,13.2
7.4095,1.6072,-6.279,0.62064,0.23121,0.29413,-13.2,30.9,13.32
4.9987,1.4438,-9.902,0.90316,-0.28558,1.1536,-13.08,31.14,13.44
12.531,-2.2337,-6.8647,0.37813,0.53848,0.8488,-13.08,31.2,13.38
10.052,-16.808,-0.81722,0.60842,-1.4273,0.57146,-13.02,31.32,13.62
2.0567,-3.0373,-7.3414,-0.29291,0.38759,-0.60903,-12.66,31.56,13.38
4.1542,-11.373,-1.6753,-0.020159,-0.32681,-0.32101,-12.42,31.74,13.26
3.7592,-1.2531,-6.8374,0.062003,0.21533,-0.071166,-12.18,32.04,13.2
12.544,-3.5277,-8.0224,-0.20983,-0.28588,-0.1857,-11.46,32.4,13.02
0.76274,-5.7342,-4.6718,0.10018,-0.092241,0.478,-11.22,32.64,12.9
1.7025,-7.5593,-7.2733,0.1295,-0.0054978,0.17562,-11.04,32.94,12.9
5.6661,-6.1973,-6.5378,-0.12309,0.0073304,-0.06353,-10.8,33.42,12.66
1.9613,-1.9205,-5.0668,0.1182,0.29108,0.13317,-10.74,33.66,12.48
7.0962,-6.2245,-6.5105,0.0030543,-0.10873,0.0082467,-10.5,33.66,12.36
1.5255,-6.5514,-3.7184,0.096211,0.051618,0.19181,-10.08,33.84,12.12
5.2711,-2.0022,-6.8374,0.1069,0.069639,-0.072693,-9.9,33.9,12.12
6.3471,1.9613,-7.7091,-0.084605,0.29566,0.35858,-10.02,33.9,12.0
3.6366,-14.533,-4.699,-0.074526,0.047342,0.24099,-10.02,34.02,12.18
2.1248,-4.9033,-6.9872,-0.30268,0.36133,-0.28741,-10.14,34.02,12.06
8.6489,-8.0769,-6.7829,-0.33384,-0.26756,-0.34972,-10.14,34.08,12.12
3.2553,-7.927,-4.2904,-0.061697,0.5342,-0.073609,-10.14,33.9,11.94
10.093,-3.9499,-7.0553,-0.094684,0.43127,-0.17654,-10.5,33.96,12.06
3.623,-4.8488,-5.5026,0.21319,0.27519,0.47342,-10.62,33.9,12.0
7.1098,-1.9886,-5.1213,0.034208,0.28008,0.53603,-10.62,33.9,11.88
2.2882,-6.9055,-4.304,0.31276,0.29963,0.95142,-10.56,33.96,11.88
6.7421,-6.0338,-8.0905,0.067806,0.30482,0.37935,-10.62,34.08,11.82
4.3177,-3.1327,-5.9793,0.085521,0.39004,0.68997,-10.62,34.08,11.82
3.3778,-11.673,-2.833,0.21961,0.14355,0.50671,-10.74,34.44,11.64
5.9249,-6.9191,-8.0632,0.11942,-0.17959,-0.23152,-10.44,34.68,11.58
7.3822,-12.0,-3.5685,-0.13011,-0.84666,-0.56902,-10.2,34.62,11.46
3.1599,9.3163,-14.07,-0.14386,0.97983,-0.41905,-10.2,34.74,11.58
13.43,1.1577,-6.3743,-0.51557,0.22358,-0.70341,-10.14,34.74,11.58
9.8611,-7.9815,1.4574,-0.076358,-0.22755,0.27306,-10.32,34.98,11.7
3.2553,-9.0848,-9.3163,-0.52107,0.031154,-0.31948,-10.26,35.04,11.46
4.6445,-2.7377,-4.0044,-0.56933,0.52168,-0.38882,-10.14,34.98,11.46
8.3765,-3.337,-5.4209,-0.29474,0.63835,-0.20831,-10.14,35.04,11.52
4.3721,-5.598,-5.7342,-0.17013,0.6692,-0.018631,-10.26,34.98,11.46
3.4459,-6.4288,-4.3313,-0.021991,0.32956,-0.11942,-10.5,34.8,11.58
2.6423,-5.1485,-3.2008,0.048869,0.28253,-0.15394,-10.68,34.56,11.58
5.4073,-0.027241,-9.793,-0.14691,0.281,-0.32651,-11.1,34.32,11.7
9.6296,-1.2803,-6.2517,-0.35339,0.40836,-0.34361,-11.52,34.14,11.7
4.7671,-11.931,-6.2381,-0.22541,-0.38301,-0.07422,-12.06,34.02,11.7
4.7671,-11.931,-6.2381,-0.22541,-0.38301,-0.07422,-12.06,34.02,11.7
7.3822,-14.165,-5.4073,-0.50121,0.13256,-0.26817,-12.48,33.9,11.64
7.0553,-3.4868,-10.351,-0.34758,-0.16432,-0.32895,-12.54,33.72,11.64
12.027,-0.74912,-10.447,-0.1011,0.17257,-0.0039706,-12.78,33.54,11.82
3.0646,3.9908,-6.9328,0.45082,0.33109,0.66554,-13.26,33.54,11.88
8.8941,-3.7592,-5.775,0.48686,0.20097,0.65912,-13.56,33.48,11.7
-1.2122,-5.4073,-6.2109,0.57238,-0.74464,0.94776,-13.68,33.66,11.64
6.8238,-8.7715,-6.8647,0.25931,0.26053,0.34789,-13.56,33.78,11.64
6.4016,-14.233,0.62654,0.24557,-1.0556,-0.11301,-13.62,33.9,11.64
8.3357,5.094,-7.6955,-0.1405,0.36591,-0.42302,-13.56,33.84,11.52
5.9112,-5.9249,0.12258,0.19853,-0.47464,0.31521,-13.5,33.72,11.64
1.9477,1.4438,-10.283,0.053451,-0.054672,0.36988,-13.38,33.72,11.46
5.7069,-8.826,-4.4947,-0.20983,-0.58307,0.29291,-13.44,33.96,11.4
2.2474,-1.1441,-9.8339,-0.34483,-0.1463,-0.029932,-13.2,34.14,11.46
5.7205,-0.14982,-9.5887,-0.47861,-0.10599,-0.19578,-13.08,34.26,11.46
1.3076,-12.081,-4.2223,-0.29535,-0.38973,0.31032,-12.6,34.38,11.46
2.9011,-6.4969,-7.4503,-0.24465,-0.022602,-0.085216,-12.48,34.5,11.52
11.959,-3.7592,-10.569,-0.45479,-0.37538,-0.086437,-12.24,34.62,11.76
1.5255,-5.6661,-4.8761,-0.064752,-0.022297,0.51191,-12.0,34.38,12.18
8.8668,-0.76274,-8.7443,-0.16432,-0.16005,-0.04948,-11.94,34.44,12.36
6.8647,-5.38,-5.4481,-0.015577,-0.033292,0.52993,-11.76,34.5,12.54
3.0918,-6.2654,-3.8273,0.14447,-0.090103,0.40684,-11.76,34.38,12.72
4.7126,-3.7456,-3.623,0.13225,-0.055589,0.32345,-11.52,34.74,12.96
2.5061,-6.9872,-2.6696,0.35522,-0.27306,0.49236,-11.22,34.8,13.38
5.7069,-5.6388,-7.355,0.047953,-0.22694,-0.06017,-10.74,34.74,13.74
3.6775,-5.0259,-4.4402,-0.080023,-0.30116,-0.10782,-10.68,34.8,13.86
4.0589,-5.1213,-6.7421,-0.13867,-0.20495,-0.40836,-10.68,34.98,14.04
6.9191,-12.926,-7.5729,-0.46884,-0.90164,-0.68692,-10.44,34.92,13.92
3.2416,-12.721,-5.7069,-0.40684,0.26664,-0.68111,-10.44,35.16,14.16
13.579,5.2983,-8.6081,-0.58093,0.14752,-0.81886,-10.5,35.1,14.4
11.441,-6.4697,-0.77636,-0.13042,-0.20617,0.20861,-10.62,35.28,14.46
6.565,-12.503,-9.2891,-0.35644,-0.49877,-0.067195,-10.62,35.16,14.7
0.40861,-2.6423,-2.2474,-0.044899,0.42608,0.09896,-10.62,35.22,14.94
4.8625,-0.20431,-5.993,0.17929,0.52595,0.049786,-10.38,35.28,15.18
4.9442,-4.9033,-5.094,0.41539,0.2025,0.50305,-10.62,35.16,15.6
3.2416,-4.0861,-6.0066,0.52901,0.26664,0.29596,-10.8,35.22,15.66
6.5786,-2.8739,-6.6059,0.32467,0.19426,0.069028,-10.86,35.22,15.78
3.4051,-10.951,-3.7047,0.12828,-0.46762,-0.18418,-11.1,35.1,15.9
-0.61292,-1.6344,-7.3414,-0.12767,0.35155,-0.51924,-11.04,34.98,15.78
5.7886,4.4947,-11.264,-0.38759,0.47617,-0.5342,-11.28,35.16,16.08
15.241,-12.926,-5.0123,-0.58735,-0.22327,-0.24984,-11.46,34.98,15.96
-6.0883,-11.863,-5.4618,-0.48503,-1.0434,0.27978,-11.52,34.92,16.02
-2.2201,4.018,-8.8668,-0.61728,0.78343,-0.73365,-11.4,34.86,16.2
11.4,-2.9692,-5.5299,-0.22571,0.45204,-0.26176,-11.7,34.8,16.32
3.6366,-1.7979,-7.4912,0.30696,-0.083689,0.76267,-11.88,34.74,16.38
6.9872,-4.9714,-7.0009,0.28894,0.47312,0.51557,-12.0,34.86,16.2
0.64016,-12.299,-2.3699,0.6127,-0.51526,0.52137,-12.06,34.86,16.08
6.8374,-9.6023,-7.8726,0.1628,0.091935,-0.61667,-12.06,34.8,16.14
6.96,-9.1393,-3.514,0.1066,-0.29291,-0.78985,-12.18,34.74,16.14
8.322,3.2144,-7.2869,-0.15699,0.68814,-0.92821,-12.48,34.92,16.32
10.896,-1.6208,-2.6832,0.048564,0.14386,-0.40195,-12.72,34.92,16.5
1.7706,-1.7706,-2.6423,0.27672,-0.25748,-0.09163,-12.84,34.8,16.44
12.708,-12.572,-6.6604,-0.21319,0.019853,-0.13042,-13.14,34.86,16.56
2.6423,-0.89894,-11.278,-0.2251,-0.65882,-0.20097,-13.26,34.98,16.62
11.795,-7.2052,-12.912,-0.71288,-0.30177,-0.80512,-13.5,34.98,16.5
-7.9951,-1.0215,-1.362,0.36133,0.75778,0.050396,-13.68,34.98,16.32
6.6195,1.2258,-10.27,0.15669,-0.000305,-0.70005,-13.86,34.92,16.2
15.391,-4.2495,-8.0496,0.40531,0.016493,0.43707,-14.1,34.68,16.26
6.1292,-3.2553,-10.202,0.33262,-0.21319,0.085827,-14.46,34.56,16.14
7.5729,-2.547,-7.8317,-0.018326,0.12309,0.0097738,-14.7,34.32,16.14
2.0567,-3.4051,-4.5764,0.08491,-0.081551,0.61484,-14.88,34.2,16.14
8.7987,-4.3721,-6.3062,0.058032,0.34453,0.12737,-14.82,33.96,16.14
9.3027,-7.7091,-3.7047,0.23427,-0.027794,0.47892,-14.82,33.96,16.26
0.17706,-7.069,-1.8387,0.4331,0.35522,0.48747,-14.64,33.84,16.2
10.76,-0.53119,-11.182,-0.011912,0.10751,-0.14508,-14.58,33.84,16.14
3.051,-5.4481,-5.1349,-0.0061087,0.03879,0.54398,-14.52,33.9,16.08
2.4244,-7.9679,-5.775,0.030238,0.076053,0.12889,-14.52,33.84,15.96
4.3313,-3.4051,-6.674,-0.12309,0.13867,-0.017104,-14.4,34.14,15.96
7.5593,-5.9112,-7.6819,-0.27245,-0.040928,0.019548,-14.28,34.26,15.9
6.6604,-6.7285,-7.0281,-0.29566,0.0036652,0.1069,-14.04,34.5,15.84
4.4539,-5.993,-4.9578,-0.13103,0.1573,0.26389,-13.92,34.56,15.9
5.884,-5.4754,-6.2517,0.10537,0.25717,0.43402,-13.92,35.16,15.72
4.1951,-2.0158,-6.4969,0.28344,0.40714,0.72052,-13.8,35.4,15.6
4.5764,-4.2223,-4.9442,0.45937,0.37813,0.93004,-13.68,35.58,15.54
5.0668,-3.5277,-5.5162,0.48869,0.32895,0.79046,-13.56,35.64,15.12
4.6718,-4.6445,-4.3177,0.3711,0.32559,0.75198,-13.38,36.06,15.12
3.6775,-3.8001,-4.7263,0.32773,0.26298,0.75931,-13.26,36.42,15.0
6.4424,-4.7263,-4.9169,-0.038179,0.24343,0.44013,-12.78,36.9,14.76
3.8682,-6.5241,-5.9657,-0.16432,0.061392,0.49266,-12.42,37.14,14.7
6.2517,-16.126,-7.9679,-0.54825,-0.43982,-0.024435,-12.18,37.26,14.64
5.6933,0.40861,-8.7715,-0.57574,0.70921,-0.6805,-11.7,37.62,14.7
7.355,2.1248,-4.7944,-0.1741,0.36591,-0.18204,-11.76,37.68,14.76
8.3765,-1.5119,-4.5901,-0.071471,0.51832,-0.10171,-11.64,37.92,14.76
3.2961,-7.9679,-8.3765,-0.21991,-0.39004,-0.12889,-11.4,37.92,15.0
3.8409,-2.6151,-6.3743,-0.31796,0.2868,-0.23488,-11.46,37.92,15.18
8.6217,-6.3879,-3.5822,-0.093768,0.10079,-0.087965,-11.52,37.98,15.3
2.3836,-8.5672,-8.3765,-0.3036,-0.11851,-0.58063,-11.64,38.1,15.48
4.0725,-3.3234,-8.1858,-0.46273,0.15119,-0.85124,-11.82,37.92,15.66
4.0589,-2.0839,-3.7592,-0.34361,0.28894,-0.64232,-11.94,37.74,15.78
6.2109,-8.4446,-5.2302,-0.32773,-0.281,-0.87537,-12.48,37.38,16.38
4.0861,-4.5083,-7.5457,-0.65699,0.029322,-1.0113,-12.9,37.08,16.5
9.9292,-3.514,-10.052,-1.1408,-0.07086,-1.4532,-13.38,36.96,16.74
4.3721,-5.6116,-4.7126,-1.0718,-0.10476,-0.96731,-14.58,36.18,17.04
1.7706,-6.5922,-3.3915,-0.75747,0.13134,-0.88453,-14.94,35.76,17.22
1.076,1.8932,-5.993,-0.62889,0.8378,-0.56872,-15.3,35.22,17.58
17.856,-12.34,-5.884,-0.83139,-0.10354,-0.92027,-16.44,34.26,18.0
-0.84446,-4.3313,-6.3198,-0.047647,-0.2306,0.18021,-16.8,33.54,18.0
-0.40861,5.3528,-11.087,-0.29169,0.20831,-0.81489,-17.16,32.88,18.18
18.033,-15.963,-3.5277,-0.3262,0.037263,-0.69089,-18.24,31.74,18.78
-4.018,-1.3212,-5.2166,0.24771,0.18112,-0.059254,-18.66,31.08,18.9
4.5901,4.2632,-11.605,-0.078496,0.27122,-0.66432,-19.08,30.36,19.14
9.5479,-0.34051,-6.9872,0.26084,0.32406,0.54031,-19.92,29.16,19.5
18.279,-11.468,-9.6841,-0.059559,-1.2761,-0.32895,-20.28,28.62,19.62
0.78998,-5.5843,-4.7671,0.089492,-0.45235,0.55008,-20.46,27.96,19.62
6.3743,0.35413,-5.0123,-0.067501,-0.41814,-0.42608,-20.52,27.24,19.68
7.75,1.9613,-7.3141,0.28527,-0.22083,0.3711,-20.64,26.88,19.68
9.9292,-3.909,-6.2381,0.37507,-0.27458,0.39126,-20.82,26.52,19.74
11.931,-6.0747,-10.025,0.18601,-0.55467,0.23396,-20.58,26.4,19.62
2.0567,-1.4029,-2.8739,0.15088,-0.12462,0.30268,-20.52,26.4,19.62
3.1191,-2.2746,-4.0861,0.29566,-0.23396,0.20953,-20.46,26.4,19.62
5.2711,-2.2474,-9.7385,0.10324,-0.33292,0.54336,-20.04,26.46,19.56
8.8532,-4.7944,-6.456,-0.2193,-0.044899,0.37018,-19.92,26.58,19.44
6.5378,-4.7535,-3.0918,-0.071777,-0.10385,0.58613,-19.68,26.58,19.38
0.8036,-3.3234,-4.1133,0.29444,0.054367,0.88606,-19.44,26.76,19.32
4.808,5.0668,-10.052,0.27489,0.37996,1.1176,-18.78,27.0,19.2
15.922,-13.062,-6.0611,0.18265,0.024435,0.8882,-18.54,27.24,19.26
2.1793,-18.633,-9.2482,0.030849,-0.028711,0.34147,-17.88,27.84,19.26
2.9965,-6.7285,0.21793,-0.0088575,-0.47403,-1.259,-17.4,28.08,19.14
-8.3765,14.914,-6.5786,0.63316,0.70952,0.14569,-17.1,28.38,19.08
4.0997,18.36,-14.029,0.32712,0.11484,0.019853,-16.86,28.62,19.02
18.21,-13.334,2.9011,0.095906,0.77794,0.90652,-16.5,28.92,18.96
6.3471,-16.29,-7.1371,0.21747,-2.0052,0.73884,-16.26,29.22,18.78
-8.322,-0.99429,-5.0259,-0.2587,0.208,-0.16005,-15.72,29.64,18.54
5.884,-7.5048,-6.7148,0.15455,-0.15027,0.013744,-15.42,29.82,18.48
8.7715,-5.9657,-9.9429,-0.085216,-0.21594,-0.40897,-15.18,29.94,18.54
2.1112,-1.8387,-3.8001,0.2361,0.28711,-0.02474,-15.0,30.12,18.42
6.17,-2.0567,-4.3858,0.39431,-0.06689,-0.27764,-14.7,30.3,18.36
7.0145,0.42223,-10.052,0.30024,-0.047037,-0.036652,-14.28,30.54,18.0
8.7306,2.9148,-11.836,-0.24862,-0.16127,-0.197,-14.28,30.48,17.94
15.418,-5.2438,-11.359,-0.76175,-0.64904,-0.36866,-14.4,30.42,17.88
5.1894,-13.77,-4.0589,-0.63255,-0.39248,0.20647,-14.28,30.36,17.7
5.1894,-13.77,-4.0589,-0.097128,0.30116,-0.1347,-14.28,30.36,17.7
5.1894,-13.77,-4.0589,0.22022,0.40623,-0.033903,-14.28,30.36,17.7
9.0848,2.8603,-12.163,0.12095,0.47586,0.22938,-14.22,30.42,17.7
4.0316,-5.1485,-4.8625,0.26786,-0.20525,0.31582,-13.86,30.18,17.7
4.0316,-4.3721,-5.1213,0.3427,0.10721,0.024435,-13.74,30.24,17.64
4.2495,-6.6059,-3.4187,0.054672,-0.073915,-0.082161,-13.86,30.24,17.76
4.413,-4.9578,-4.6173,0.043066,0.17165,0.11362,-13.92,30.12,17.82
5.7886,-3.623,-4.8216,-0.19303,0.21197,-0.18082,-13.98,30.18,17.76
6.17,-6.7012,-5.0668,-0.26145,0.067195,-0.20678,-14.16,30.24,17.58
4.3177,-6.4424,-6.0611,-0.31734,0.17349,-0.17471,-14.28,30.24,17.58
5.6933,-5.1213,-6.6331,-0.28924,0.41478,-0.16463,-14.7,30.24,17.64
6.0338,-5.9521,-7.3141,-0.14569,0.39523,-0.070555,-14.7,30.12,17.64
4.5628,-5.8704,-7.0281,-0.029627,0.39095,-0.038179,-14.7,30.12,17.64
5.6116,-4.8761,-5.7342,0.15027,0.56536,-0.016493,-15.0,30.12,17.46
5.7069,-5.1349,-5.9521,0.21686,0.49022,0.062003,-15.3,30.3,17.34
6.7012,-7.2869,-6.4424,0.11851,0.2926,-0.0012217,-15.54,30.36,17.22
6.674,-3.2553,-8.0088,0.04948,0.52351,0.034208,-15.72,30.18,16.8
6.4424,-3.9227,-6.0883,-0.05681,0.3708,0.10904,-15.96,30.18,16.68
6.0202,-4.6718,-6.0202,-0.048869,0.33567,0.14416,-16.02,30.24,16.5
6.7693,-5.8295,-7.1234,-0.094073,0.16432,0.034819,-16.08,30.18,16.5
5.7205,-2.942,-6.7693,-0.083078,0.25595,0.12584,-16.26,30.06,16.32
8.5808,-5.0531,-7.0417,-0.073915,0.11637,0.11759,-16.44,30.0,16.2
5.0668,-5.5162,-6.9872,0.033903,0.21411,0.094379,-16.38,30.0,15.96
6.9872,-2.6423,-6.4833,-0.012828,0.13928,0.088881,-16.44,30.12,15.78
7.1507,-3.1191,-6.7693,0.034819,0.10934,0.34575,-16.38,30.12,15.72
8.7443,-5.5571,-7.6819,-0.063835,-0.20769,0.34697,-16.38,30.12,15.48
4.8625,-3.3778,-7.8045,-0.073609,0.012828,0.34789,-16.26,29.94,15.42
9.0167,-3.3642,-7.0826,-0.14325,-0.010996,0.16127,-16.14,29.94,15.24
7.9543,-4.8625,-6.5922,-0.054978,-0.11729,0.38026,-16.14,29.88,15.3
6.1564,-5.5707,-6.3198,-0.032376,-0.047647,0.30635,-15.9,29.94,15.3
5.1213,-2.3155,-6.6467,-0.018631,0.048869,0.43921,-15.78,29.82,15.18
7.4367,-3.2008,-6.9328,-0.060476,-0.068722,0.52443,-15.66,29.88,15.12
4.9578,-4.3858,-6.4016,-0.071166,-0.047647,0.63102,-15.24,30.06,15.0
5.598,-6.456,-5.8431,-0.085827,-0.15088,0.53084,-15.06,30.06,14.82
5.4481,-5.2438,-6.6331,-0.12706,-0.087048,0.37935,-14.88,30.12,14.76
4.1814,-6.3471,-5.2575,-0.11454,-0.13347,0.21808,-14.46,30.3,14.76
5.1894,-4.5628,-6.0747,-0.10263,-0.11179,-0.0048869,-14.22,30.36,14.64
5.6797,-4.808,-6.4833,-0.13408,-0.18112,-0.023824,-14.04,30.48,14.64
6.0338,-4.985,-6.7829,-0.18265,-0.16218,-0.058032,-13.98,30.54,14.58
6.0338,-5.3119,-5.6797,-0.15455,-0.18265,-0.11148,-13.74,30.66,14.76
4.9033,-3.7728,-6.5378,-0.13958,-0.14813,-0.040623,-13.5,30.9,14.94
7.4503,-4.9987,-6.9464,-0.21533,-0.3036,-0.072388,-13.38,30.9,14.94
6.565,-4.0316,-6.5786,-0.20189,-0.20433,0.0054978,-12.96,31.2,15.06
6.5105,-5.7886,-5.7205,-0.099571,-0.23488,0.048869,-12.84,31.14,15.18
6.0202,-5.3119,-6.2381,-0.046731,-0.22449,-0.010996,-12.72,31.32,15.3
6.2654,-3.7592,-6.3198,-0.010996,-0.18082,0.0064141,-12.48,31.14,15.6
5.9657,-3.8546,-6.2381,0.028405,-0.11698,0.073915,-12.3,31.14,15.66
6.6331,-5.6388,-6.4288,-0.027184,-0.22235,-0.012523,-12.24,31.08,15.96
4.8625,-3.8409,-5.6116,-0.078802,-0.19059,-0.094684,-12.24,31.02,16.02
6.6059,-3.623,-6.1836,-0.13439,-0.19639,-0.19609,-12.12,30.9,16.2
5.7342,-2.9556,-6.6059,-0.12645,-0.13256,-0.073304,-11.94,30.9,16.5
8.322,-4.4402,-6.8919,-0.20861,-0.18082,-0.19273,-11.88,30.9,16.5
5.7069,-4.4947,-5.38,-0.18448,-0.24068,-0.10018,-11.82,30.84,16.68
8.0905,-4.0589,-6.9191,-0.17196,-0.087965,-0.22694,-11.82,30.78,16.92
5.2847,-3.909,-6.3062,-0.05284,-0.18234,-0.048869,-11.82,30.78,17.1
6.0066,-3.4868,-7.6683,-0.075747,-0.1463,-0.13744,-11.76,30.78,17.1
5.6524,-3.8954,-5.7069,-0.047647,-0.078191,-0.018631,-12.0,30.84,17.28
5.7069,-3.8546,-5.8159,0.034819,-0.03207,-0.04215,-11.94,30.96,17.28
5.2438,-6.7557,-5.3528,0.026878,-0.18723,-0.11026,-11.94,31.02,17.4
5.5843,-5.2711,-6.1564,-0.0076358,-0.010385,-0.30543,-12.06,30.84,17.4
5.0259,-5.6252,-5.1485,-0.012828,-0.0024435,-0.27917,-12.12,30.78,17.58
4.3449,-4.6173,-5.5162,-0.0064141,0.078191,-0.3091,-12.24,30.84,17.58
6.7693,-6.1155,-6.1428,-0.059865,0.18082,-0.33811,-12.24,30.78,17.58
3.3097,-4.2223,-5.5707,0.078191,0.16677,-0.26909,-12.36,30.72,17.7
6.3198,-4.413,-6.4833,0.054367,0.14203,-0.37996,-12.6,30.72,17.58
5.4754,-3.5549,-6.1836,0.093768,0.21472,-0.25045,-12.66,30.72,17.52
5.7069,-2.9965,-6.3198,0.12278,0.15974,-0.17165,-13.02,30.6,17.4
7.4776,-5.6116,-6.4833,0.12859,0.068111,-0.14019,-13.32,30.6,17.4
6.4833,-6.8238,-5.8704,0.14569,-0.067195,-0.10843,-13.32,30.42,17.16
4.6582,-4.7535,-7.069,0.05681,0.082772,-0.17898,-13.56,30.18,17.22
6.2654,-3.051,-6.4152,0.049175,0.11637,-0.041844,-13.98,29.76,16.98
5.8023,-2.7104,-6.9191,0.0956,0.069639,0.15821,-14.16,29.76,16.98
7.0962,-5.3528,-6.5378,0.11484,-0.098044,0.10446,-14.4,29.52,16.92
4.1133,-4.9033,-6.0611,0.22969,0.06017,0.24679,-14.34,29.46,16.92
7.3958,-5.6933,-7.7908,0.18631,-0.084299,0.087048,-14.46,29.46,16.68
5.2575,-3.2825,-7.2188,0.2251,0.1689,0.20861,-14.46,29.58,16.44
7.5184,-4.7671,-6.7693,0.24374,0.21411,0.2022,-14.34,29.46,16.2
4.9306,-4.6037,-5.6524,0.29169,0.2022,0.38087,-14.34,29.46,16.14
6.2654,-5.2847,-6.1155,0.2303,0.15944,0.30971,-14.16,29.52,15.9
5.9657,-3.1327,-7.3822,0.17104,0.2474,0.36469,-13.92,29.7,15.78
7.4776,-4.5083,-7.355,0.11209,0.13439,0.32254,-13.86,29.82,15.72
6.9736,-7.6819,-7.6683,0.025351,0.091935,0.30849,-13.62,30.24,15.3
5.7069,-10.924,-6.7829,-0.10354,-0.13073,0.18509,-13.62,30.36,15.18
2.6968,-4.2087,-6.9872,-0.13622,0.19456,-0.0045815,-13.38,30.54,15.12
8.826,-1.9477,-6.6059,-0.20128,0.08827,0.097738,-13.2,30.78,14.7
6.0883,-9.0031,-7.0417,-0.13439,-0.14019,0.38668,-13.2,30.84,14.58
5.2847,-7.1098,-7.3277,-0.21502,-0.19578,0.23854,-13.08,30.96,14.58
5.6116,-4.1951,-6.4288,-0.25259,-0.0039706,-0.0058032,-12.96,30.9,14.58
5.5026,-4.7944,-6.2926,-0.11851,-0.025045,0.072082,-12.9,30.96,14.34
7.355,-5.8976,-7.6274,-0.25381,-0.10354,-0.085521,-12.78,31.02,14.22
5.7342,-6.2926,-4.9987,-0.25687,-0.19151,-0.068111,-12.78,31.14,14.22
5.4481,-3.7592,-6.5105,-0.27703,-0.17013,-0.1405,-12.78,31.02,14.1
5.0804,-5.0668,-5.4618,-0.30268,-0.23915,-0.1069,-12.66,31.14,14.16
5.7069,-2.2474,-6.8647,-0.22724,0.035125,-0.10415,-12.6,30.9,14.22
7.9543,-1.4574,-7.9134,-0.30452,-0.074526,-0.049175,-12.6,30.84,14.28
5.6933,-8.3765,-6.3198,-0.22327,-0.19426,0.041539,-12.72,30.66,14.4
4.9987,-9.112,-6.1292,-0.1854,-0.17043,-0.11179,-12.72,30.48,14.46
4.8761,-4.7126,-8.8532,-0.04612,0.027794,-0.1799,-12.66,30.54,14.7
5.993,-2.6015,-7.5865,-0.038179,-0.091324,-0.22938,-12.72,30.24,15.0
4.3313,-0.21793,-6.3198,0.046426,0.15485,0.0018326,-12.66,30.18,15.0
6.279,0.21793,-4.9306,0.18357,0.26878,0.25931,-12.66,30.3,15.18
9.8611,-9.793,-5.884,0.12339,-0.22358,0.13714,-12.72,30.06,15.48
1.3757,-8.9894,-6.6059,-0.19975,-0.0076358,-0.33689,-12.78,29.94,15.54
8.1313,0.43585,-7.5457,-0.26053,0.11423,-0.61423,-12.9,29.94,15.72
8.8941,-3.9771,-4.0997,-0.15027,0.051313,-0.36408,-12.96,29.7,15.6
5.9657,-5.203,-6.1019,-0.05681,-0.13317,-0.15088,-13.02,29.82,15.72
7.641,-3.8954,-6.0611,-0.18326,0.15608,-0.067195,-13.02,29.82,15.96
6.9328,-7.8181,-6.7966,-0.081245,-0.19028,0.01069,-13.02,29.76,15.78
3.4187,-3.6094,-7.7091,-0.17196,-0.037568,-0.14172,-13.2,29.76,15.84
7.1643,-1.2122,-5.6524,-0.15149,0.50641,-0.041233,-13.5,29.82,16.02
7.9679,-11.073,-5.5707,-0.036346,0.012217,-0.0079412,-13.44,29.76,15.9
1.185,-8.826,-5.5435,0.0024435,-0.18601,0.1967,-13.38,29.76,15.9
1.6753,-4.9578,-2.1248,0.080023,0.063225,-0.15088,-13.62,29.58,15.9
4.3721,0.38137,-7.3822,0.21961,0.20189,-0.20892,-13.68,29.64,15.96
11.509,-0.12258,-9.8748,-0.08827,0.26695,-0.2697,-13.8,29.64,16.02
5.6388,-8.6217,-4.2087,0.076969,-0.22388,-0.033598,-14.04,29.34,15.84
0.98067,-7.2324,-5.4345,-0.069028,0.057116,-0.15058,-14.04,29.4,15.96
5.7614,-4.5083,-6.0883,-0.16738,0.15027,-0.35277,-14.16,29.34,15.78
5.9657,-3.0237,-6.8374,-0.10201,0.065363,-0.13592,-14.28,28.98,15.6
6.851,-2.0294,-8.2539,-0.13592,0.17196,-0.12462,-14.4,29.04,15.66
8.8668,-8.0496,-5.3528,-0.11576,0.047037,-0.0042761,-14.46,29.16,15.42
2.7377,-4.5356,-6.9872,0.11393,0.11423,0.067195,-14.58,28.92,14.82
6.7421,-1.5119,-7.9679,0.053756,0.12248,-0.052229,-14.88,28.98,14.82
6.9191,-1.6344,-7.9407,0.065363,0.16799,0.25748,-14.94,28.92,14.64
5.4481,-6.8374,-6.3471,0.02474,-0.036346,0.14844,-15.18,28.74,14.34
3.051,-4.3177,-5.7478,0.07086,0.19273,0.18479,-15.24,28.68,14.22
7.4095,-5.0531,-6.7693,0.053145,0.036652,0.14875,-15.36,28.62,14.04
6.5922,-2.5198,-8.1177,0.096517,0.11087,0.31918,-15.18,28.68,14.1
7.5184,-2.2882,-7.464,0.11301,0.17868,0.42883,-15.18,28.68,13.98
5.7069,-4.4539,-5.1757,0.18326,0.14172,0.52687,-15.24,28.74,13.8
6.5105,-5.4754,-6.8238,0.10232,0.080329,0.38851,-15.24,28.92,13.56
7.0145,-6.96,-6.1292,-0.000611,-0.0067195,0.3146,-15.12,28.98,13.44
4.3994,-4.6037,-6.7966,-0.053756,0.073915,0.16921,-15.06,28.92,13.38
7.2733,-5.0531,-6.8102,-0.20097,-0.037874,0.1295,-14.82,29.22,13.32
5.5162,-5.4618,-6.2245,-0.17196,0.014661,0.10904,-14.58,29.28,13.26
5.5162,-4.3721,-6.4288,-0.12645,0.050396,0.16127,-14.58,29.28,13.26
6.2517,-3.2553,-6.6604,-0.05681,-0.026878,0.26481,-14.46,29.4,13.38
4.699,-4.4402,-6.9328,-0.017715,-0.033903,0.25504,-14.1,29.76,13.44
6.3471,-6.2517,-7.9134,-0.01741,-0.11118,0.2248,-13.92,29.82,13.44
9.9565,-17.216,-4.413,-0.19456,-0.83383,-0.23885,-13.68,29.88,13.38
5.6388,7.7772,-10.379,-0.09499,0.087354,-0.54978,-13.56,29.82,13.44
11.809,2.7377,-3.623,0.048869,0.12767,0.070555,-13.2,29.94,13.68
8.4719,-1.4165,-1.6481,0.24648,0.076969,0.63133,-13.02,30.0,13.74
7.7364,-8.1858,-8.0224,-0.22052,-0.32132,0.026573,-13.08,30.18,14.1
3.8001,-3.7865,-3.2553,-0.28741,-0.13958,0.036346,-12.78,30.06,14.22
6.2109,-0.99429,-6.6876,-0.12859,0.15119,0.16249,-12.66,30.0,14.52
8.4174,-7.5457,-6.456,-0.25351,0.072082,0.13653,-12.72,30.12,14.52
5.3119,-14.138,-5.6933,-0.27306,-0.20128,0.058032,-12.6,30.18,14.64
3.514,-6.7966,-6.6195,-0.28802,-0.08827,-0.25809,-12.54,30.36,14.7
6.0747,-0.91256,-5.1349,-0.11759,0.0033598,-0.16707,-12.48,30.24,15.0
7.6683,-4.4539,-8.54,0.12156,0.064446,0.041233,-12.54,30.24,15.18
8.7034,-2.656,-11.986,-0.21961,-0.016188,-0.12737,-12.6,30.3,15.24
7.8998,-6.7693,-6.3335,-0.24618,-0.26328,-0.13592,-12.66,30.36,15.3
0.68102,-8.2812,-2.9284,-0.017715,0.014661,0.25992,-12.78,30.3,15.36
1.2258,-4.4947,-5.0668,0.049175,0.078191,-0.13347,-12.78,30.3,15.54
7.5457,-2.5879,-7.3141,0.072693,-0.15272,0.14111,-12.6,30.24,15.48
5.6252,-3.3097,-6.2926,0.17623,-0.093462,0.3598,-12.66,30.36,15.66
5.4618,-5.8704,-5.0531,0.25595,-0.20678,0.22571,-12.6,30.42,15.78
3.1872,-3.6366,-4.2904,0.33048,-0.10934,0.074526,-12.42,30.36,15.96
4.6445,-1.4438,-5.6661,0.20311,0.016188,0.028405,-12.42,30.48,15.96
7.8726,-1.58,-6.5378,0.066279,0.062614,0.012217,-12.36,30.54,16.02
5.2575,-11.06,-4.9306,-0.27122,-0.43219,-0.21105,-12.3,30.54,15.96
1.5663,-5.0531,-4.8488,-0.37446,0.05681,-0.33384,-12.18,30.66,15.96
6.7012,-3.0646,-5.4618,-0.40928,0.17898,-0.4664,-12.3,30.84,16.08
7.8862,-8.8668,-7.4776,-0.28802,0.20067,-0.073609,-12.18,30.78,16.2
5.2302,-6.5922,-6.5241,-0.14875,0.30818,-0.076664,-12.12,30.78,16.32
5.5026,-3.7047,-6.5241,0.11362,0.44868,0.0079412,-12.12,30.6,16.14
6.2381,-5.1757,-6.7012,0.2813,0.36011,0.2251,-12.36,30.78,16.14
4.2768,-5.2575,-6.8647,0.36744,0.43341,0.26756,-12.36,30.72,15.96
5.3937,-6.2245,-6.8647,0.32865,0.31979,0.16829,-12.36,30.78,16.02
4.7126,-3.7456,-6.8919,0.27214,0.34636,0.15699,-12.36,30.78,15.84
6.7966,-5.4481,-7.1643,-0.0073304,0.080634,0.11454,-12.54,30.66,15.78
2.9965,-5.5162,-5.2166,-0.016799,0.24374,0.15119,-12.54,30.66,15.66
6.6331,-3.7865,-6.8374,-0.11729,0.079718,0.040012,-12.72,30.66,15.72
5.4754,-3.732,-6.3471,-0.13134,0.16921,0.20983,-12.72,30.66,15.66
5.5026,-5.9793,-6.279,-0.16005,0.12156,0.14691,-12.66,30.84,15.24
5.2575,-4.6854,-6.6467,-0.12645,0.20678,0.21166,-12.6,30.78,15.06
7.3141,-4.8625,-7.246,-0.15211,0.17196,0.16127,-12.66,30.84,14.88
5.7342,-4.1951,-6.8783,-0.10476,0.2251,0.27397,-12.6,30.96,14.82
6.8919,-4.2223,-6.96,-0.066584,0.27458,0.25992,-12.54,31.02,14.76
6.5378,-5.38,-6.5378,-0.000611,0.18692,0.39859,-12.36,31.14,14.76
5.9657,-5.7614,-6.7148,-0.010996,0.19761,0.32467,-12.36,31.2,14.58
6.1836,-4.4811,-6.4833,-0.009163,0.20128,0.34667,-12.36,31.5,14.58
6.1155,-5.9793,-6.0202,-0.031154,0.18082,0.37721,-12.3,31.62,14.46
6.1019,-6.0474,-6.674,-0.13378,0.016188,0.29688,-12.3,31.8,14.22
5.094,-4.7671,-6.3743,-0.16341,0.10232,0.29566,-12.06,31.92,14.04
4.9578,-6.1564,-5.9657,-0.14203,0.021686,0.32773,-11.94,31.86,14.22
4.9442,-5.2983,-6.4833,-0.13164,0.041233,0.18418,-12.12,31.74,14.34
5.7069,-4.4675,-5.8567,-0.13867,0.0061087,0.13042,-12.0,32.1,14.46
5.1076,-6.5105,-6.2926,-0.17532,-0.053451,0.072388,-11.94,31.98,14.34
5.6933,-7.4912,-6.7693,-0.28405,-0.15088,-0.12706,-11.64,32.04,14.4
4.7807,-4.6037,-6.5105,-0.30879,-0.17715,-0.17165,-11.52,32.22,14.4
6.4424,-2.8058,-6.7285,-0.31368,-0.1686,-0.048258,-11.58,32.22,14.52
6.1836,-5.598,-6.3743,-0.24526,-0.21716,0.039095,-11.28,32.22,14.64
6.7421,-5.489,-6.674,-0.24862,-0.15027,-0.035125,-11.22,32.1,14.76
6.1564,-3.4187,-6.4288,-0.22755,-0.098655,-0.013744,-11.22,32.04,14.82
7.7227,-5.1485,-6.5786,-0.24007,-0.28466,-0.036346,-10.98,31.8,15.06
5.4618,-4.413,-6.4833,-0.219,-0.24282,0.000916,-11.1,31.74,15.42
7.0553,-4.699,-6.5105,-0.23274,-0.23885,-0.07422,-10.86,31.8,15.48
5.6252,-3.8818,-6.1564,-0.15027,-0.19823,0.000916,-10.92,31.8,15.54
7.2869,-4.1542,-7.0281,-0.15272,-0.22969,-0.048564,-10.92,31.74,15.6
5.7886,-4.4402,-5.9112,-0.14019,-0.21014,-0.019853,-11.04,31.68,15.84
6.0883,-4.7263,-6.2245,-0.091324,-0.23457,-0.069944,-11.1,31.68,16.2
6.0066,-3.9227,-6.2654,-0.10721,-0.18234,-0.13806,-11.04,31.44,16.32
6.8783,-4.3858,-6.7966,-0.16005,-0.25168,-0.13317,-10.92,31.38,16.44
4.985,-3.4051,-7.0417,-0.15608,-0.208,-0.080329,-11.22,31.2,16.74
7.7091,-4.4266,-7.2869,-0.20403,-0.13806,-0.12828,-11.16,31.08,16.86
5.598,-4.7944,-6.4697,-0.15669,-0.23518,0.03146,-11.04,31.08,17.1
6.8647,-4.4947,-7.0962,-0.10996,-0.1854,-0.01069,-11.16,31.2,17.46
5.8431,-5.203,-6.7285,-0.026267,-0.28588,0.038485,-11.1,31.2,17.52
5.1213,-4.3721,-7.1234,-0.025656,-0.19884,-0.011606,-11.22,31.14,17.7
5.6933,-3.2553,-6.0611,-0.000305,-0.17929,0.078496,-10.92,31.14,18.0
6.2654,-4.127,-5.9249,0.04948,-0.19884,0.11637,-10.98,31.02,18.18
7.0553,-5.8295,-5.9385,0.043371,-0.37507,0.059254,-10.62,30.96,18.48
6.3471,-4.413,-5.9657,0.071777,-0.31551,-0.050091,-10.56,30.9,18.6
7.2324,-5.7342,-6.0338,0.087048,-0.41233,-0.1011,-10.56,30.9,18.72
7.0553,-6.7421,-6.3198,0.080634,-0.49083,-0.17013,-10.68,30.96,18.9
6.6604,-3.8137,-6.3198,-0.013744,-0.29413,-0.33445,-10.62,31.02,19.02
6.3471,-2.6151,-5.5026,0.0082467,-0.31124,-0.26634,-10.56,31.02,19.2
7.0553,-5.4481,-6.674,0.011606,-0.33414,-0.16341,-10.56,31.2,19.26
5.2847,-3.3915,-7.1098,-0.062308,-0.38637,-0.1405,-10.26,31.14,19.44
7.9679,-3.9499,-7.3277,-0.0956,-0.35155,-0.15363,-10.26,31.14,19.68
4.8625,-4.1133,-6.3879,0.0042761,-0.50305,-0.031765,-10.08,31.14,19.86
7.7908,-5.5162,-7.8998,0.051924,-0.46242,-0.18906,-10.08,31.14,19.92
3.5413,-3.5822,-5.3937,0.16005,-0.47953,-0.090408,-9.9,31.14,19.98
5.7205,-3.0782,-7.355,0.2135,-0.44654,-0.080329,-9.72,31.26,19.98
4.8625,-3.7456,-5.993,0.22633,-0.53054,-0.011912,-9.66,31.26,19.8
6.3198,-3.8682,-6.6195,0.22571,-0.43219,-0.082467,-9.48,31.26,19.8
7.246,-5.2847,-6.5105,0.22297,-0.54153,-0.080634,-9.36,31.26,19.74
4.7535,-4.4266,-6.2926,0.21044,-0.42455,-0.20006,-9.12,31.32,19.68
5.38,-4.7671,-5.4481,0.17043,-0.45754,-0.24282,-8.82,31.32,19.8
5.5707,-5.1485,-6.1019,0.27275,-0.34606,-0.13439,-8.58,31.26,19.74
6.5378,-6.6195,-7.1915,0.21258,-0.39218,-0.17929,-8.34,31.38,19.68
5.1485,-4.9033,-6.8238,0.21166,-0.32284,-0.18723,-8.16,31.5,19.56
5.7069,-4.9578,-7.4503,0.22816,-0.27184,-0.19823,-8.16,31.44,19.44
5.0395,-3.7592,-7.7227,0.14142,-0.26206,-0.1689,-7.98,31.5,19.38
4.5356,-3.4187,-7.3686,0.079718,-0.23854,-0.10568,-7.86,31.44,19.38
4.4402,-4.5492,-6.6059,0.074526,-0.23854,-0.060781,-7.8,31.5,19.38
4.8761,-4.6445,-6.7012,0.041539,-0.23763,-0.078191,-7.68,31.62,19.44
4.3177,-3.8818,-6.0611,0.049175,-0.18326,-0.044288,-7.62,31.56,19.62
4.7399,-6.8102,-5.6116,0.040623,-0.28772,-0.17043,-7.5,31.44,19.74
4.9033,-5.3119,-7.0553,-0.015577,-0.31124,-0.39401,-7.26,31.44,19.8
5.8976,-4.1814,-7.1915,-0.075442,-0.21655,-0.4777,-7.26,31.32,19.62
4.3313,-4.9987,-5.3119,0.012523,-0.22388,-0.39615,-7.38,31.32,19.62
5.3256,-3.5958,-6.4016,0.055894,-0.135,-0.36255,-7.38,31.2,19.86
6.7421,-4.0452,-7.2052,0.051313,-0.1405,-0.31276,-7.38,31.08,19.86
5.7069,-5.1894,-7.3958,0.067501,-0.23457,-0.2587,-7.38,31.02,19.92
6.7557,-6.6331,-7.5321,-0.022907,-0.25565,-0.41264,-7.62,31.02,19.92
4.0861,-4.6037,-8.145,0.066279,-0.16157,-0.42394,-7.68,31.08,20.04
4.4402,-2.8194,-6.0474,0.13928,0.049175,-0.29322,-7.86,31.08,20.04
5.9249,-3.8682,-7.3822,0.23366,-0.040012,-0.12523,-8.04,30.84,20.04
5.9249,-3.8682,-7.3822,0.23946,-0.1857,-0.23182,-8.34,31.02,19.92
4.8761,-6.6195,-6.4016,0.22999,-0.06689,-0.25595,-8.34,31.02,19.92
5.3256,-3.4323,-5.884,0.24832,0.0088575,-0.24038,-8.52,30.96,19.8
4.699,-5.2575,-6.0474,0.19548,-0.13042,-0.22571,-8.76,30.84,19.68
6.456,-4.9714,-7.3822,0.034208,-0.13653,-0.42516,-8.88,30.72,19.56
4.5356,-5.3119,-5.2847,-0.05284,-0.13134,-0.42608,-8.94,30.66,19.32
5.5707,-3.8001,-6.6331,-0.082772,-0.058948,-0.52443,-8.82,30.6,19.32
7.1643,-4.2632,-6.8919,-0.06689,-0.075136,-0.48045,-9.06,30.54,19.2
5.5435,-2.9284,-7.5184,-0.014355,-0.097738,-0.36133,-9.24,30.42,19.14
7.7091,-4.413,-8.4174,-0.022297,-0.03207,-0.31582,-9.66,30.3,18.84
4.9306,-3.8682,-7.7091,-0.01405,-0.18204,-0.23763,-9.9,30.06,18.66
5.8976,-5.6661,-7.069,-0.018326,-0.041233,-0.22694,-10.08,29.94,18.54
4.0589,-5.3528,-5.7886,0.033903,-0.075136,-0.12095,-10.2,29.88,18.78
5.0259,-4.6037,-6.4152,0.13561,0.081551,-0.10904,-10.62,29.7,18.84
5.6116,-3.5413,-6.0611,0.17654,0.14997,-0.0024435,-11.1,29.28,18.66
5.4618,-5.7342,-5.094,0.26817,0.05284,0.026267,-11.52,29.22,18.54
4.9987,-7.1371,-5.3664,0.26359,-0.016493,-0.13225,-11.7,28.92,18.42
5.3119,-3.7865,-6.2654,0.16646,0.10079,-0.26389,-11.82,28.86,18.3
5.4754,-3.9227,-5.8023,0.11209,0.10721,-0.19242,-11.88,28.86,18.24
4.7944,-5.4345,-5.2983,0.10537,0.092546,-0.1857,-11.82,28.86,18.3
6.4833,-6.5786,-7.0145,-0.068111,0.023213,-0.28253,-12.12,28.92,18.36
3.8818,-2.8194,-6.4833,-0.054978,0.13042,-0.15791,-12.48,28.98,18.48
6.8102,-2.4517,-7.7091,0.024435,0.23305,-0.05681,-12.72,29.04,18.36
3.5413,-5.1213,-7.0009,0.13347,-0.000305,0.056505,-12.9,28.86,17.94
6.9872,-4.6037,-8.1858,0.21533,0.17074,-0.026878,-13.02,28.8,17.88
7.3686,-4.8352,-7.246,0.31673,0.044593,0.18662,-13.14,28.8,17.76
5.7342,-3.7592,-7.5457,0.34483,0.10415,0.1576,-13.14,28.86,17.46
7.0417,-5.8976,-7.0553,0.26786,-0.096517,0.13958,-13.26,28.86,17.28
4.0044,-4.5083,-5.8023,0.28161,-0.033598,0.16371,-13.2,29.1,17.16
7.7636,-3.8409,-6.8238,0.21838,-0.011606,0.11515,-13.38,29.34,16.92
4.8625,-5.9521,-5.9249,0.2303,-0.22144,0.31185,-13.44,29.4,16.74
6.17,-6.0202,-7.9815,0.17562,-0.18234,0.13867,-13.5,29.46,16.62
6.4152,-6.1836,-6.5105,0.10201,-0.26512,0.022602,-13.44,29.4,16.5
6.3062,-2.656,-7.4095,0.17685,-0.080023,-0.0018326,-13.38,29.46,16.08
7.8317,-4.6445,-7.0553,0.10476,-0.2361,0.059254,-13.2,29.52,15.96
5.4073,-5.4481,-6.1836,0.09896,-0.22266,0.069028,-13.08,30.0,15.9
6.5105,-3.4732,-6.6467,0.094684,-0.24221,0.15363,-12.96,30.12,15.66
5.8295,-4.0589,-6.6604,0.13928,-0.2645,0.22144,-12.84,30.3,15.48
6.3198,-4.5356,-6.7966,0.12034,-0.29077,0.1182,-12.78,30.42,15.48
5.4481,-6.3743,-6.2245,0.085827,-0.40195,0.050091,-12.66,30.54,15.36
5.3392,-5.0259,-6.8919,0.048564,-0.3824,-0.079107,-12.6,30.42,15.3
5.6116,-4.5083,-6.4833,0.04215,-0.36041,-0.094073,-12.54,30.36,15.3
5.6116,-5.2575,-6.0883,0.046731,-0.40256,-0.0054978,-12.18,30.36,15.3
5.4618,-5.9521,-6.8238,0.053756,-0.44471,-0.017715,-12.06,30.48,15.42
5.6252,-5.7614,-7.0553,-0.002138,-0.47373,-0.091935,-11.94,30.6,15.42
4.8352,-4.3858,-5.993,-0.03543,-0.44288,-0.10079,-11.64,30.9,15.54
5.7069,-5.9657,-6.2245,-0.0027489,-0.478,-0.1573,-11.64,30.9,15.48
4.699,-6.0202,-6.6059,-0.037568,-0.51313,-0.17593,-11.52,30.84,15.6
4.985,-3.8682,-7.355,-0.094073,-0.48197,-0.17837,-11.1,30.84,15.72
6.851,-3.4596,-7.3141,-0.035125,-0.48778,-0.099876,-11.04,30.96,16.02
7.8045,-6.3607,-7.8589,0.009163,-0.73365,-0.19151,-10.86,30.96,16.2
5.6661,-3.6775,-6.5378,0.18021,-0.52107,-0.16493,-10.56,31.2,16.8
6.1973,-4.6173,-6.4833,0.22449,-0.53329,-0.1179,-10.5,31.26,16.98
6.456,-3.8954,-6.9872,0.15669,-0.59804,-0.25015,-10.38,31.38,17.04
6.7421,-5.5299,-6.6331,0.014661,-0.74342,-0.38087,-10.44,31.38,17.1
4.9169,-4.8216,-5.5435,-0.050702,-0.6634,-0.44807,-10.32,31.32,17.16
5.8295,-2.8058,-6.4969,-0.05681,-0.6243,-0.46517,-10.32,31.32,17.34
6.6331,-3.9908,-6.4152,-0.0036652,-0.66065,-0.32162,-10.2,31.32,17.4
7.1371,-3.8682,-8.145,0.0073304,-0.63866,-0.41692,-10.14,31.02,17.88
5.8976,-5.8704,-7.4503,-0.013744,-0.82497,-0.41905,-10.14,31.14,18.06
4.2495,-5.2575,-6.2926,0.10079,-0.60262,-0.41447,-10.2,31.2,18.12
6.3879,-5.5435,-6.1836,0.13103,-0.62247,-0.60018,-10.02,30.96,18.24
5.6661,-3.7865,-6.0611,0.22571,-0.52504,-0.63286,-10.02,30.9,18.3
6.7693,-3.3097,-6.8102,0.21838,-0.51862,-0.61881,-10.02,30.66,18.36
5.0259,-4.6037,-6.674,0.21044,-0.59162,-0.42699,-10.2,30.48,18.36
5.2166,-5.2575,-7.5865,0.15547,-0.59682,-0.4499,-10.32,30.36,18.48
7.1779,-9.8339,-6.2517,0.012217,-0.82894,-0.67867,-10.2,30.18,18.9
-1.1305,3.2144,-5.5162,0.20892,-0.017715,-0.56322,-10.38,30.06,19.08
12.381,-0.83084,-8.1041,0.12706,-0.10232,-0.46395,-10.5,29.82,19.2
9.5342,-6.3335,-4.5492,0.20036,-0.39065,-0.1854,-10.68,29.76,19.32
1.4982,-8.7851,-6.7829,0.15027,-0.53237,-0.60506,-10.74,29.76,19.44
5.2711,-4.699,-4.9578,0.078802,-0.70127,-0.61911,-10.86,29.4,19.62
0.64016,-0.89894,-3.6094,0.36957,-0.16249,-0.24465,-10.98,29.28,19.68
15.241,-8.4038,-7.0962,0.11148,0.68814,-0.019548,-11.34,29.28,19.86
5.0123,-18.142,-5.775,0.12278,-2.5977,-0.56658,-11.46,29.46,19.8
-8.3493,-3.8273,-4.1814,0.28466,-0.89522,-0.31734,-11.52,29.58,19.74
8.4038,-1.2531,-5.0804,0.043371,-1.0214,-1.4716,-11.58,29.4,19.8
-2.4517,-2.8603,-2.8058,0.55803,0.039401,-0.10293,-11.64,29.34,19.86
13.089,-3.732,-6.4152,-0.040317,-0.61545,-1.3069,-11.64,29.28,19.86
2.5879,-2.2474,-5.6116,0.354,-0.3879,-0.35644,-12.18,28.98,19.92
8.5944,-3.7728,-9.4798,0.13744,-0.31429,-0.57116,-12.12,29.1,20.04
8.9486,-6.1292,-7.9951,0.097433,-0.25962,-0.57085,-12.18,28.8,20.04
-0.83084,-7.3958,-3.2008,0.37263,-0.38026,-0.46456,-12.54,28.56,19.98
3.5413,-1.5391,-6.7421,0.48228,-0.2361,-0.67562,-12.66,28.56,20.04
7.2188,-6.6604,-4.8352,0.59407,-0.43005,-0.41508,-12.84,28.44,20.1
7.3822,1.5255,-12.217,0.41905,-0.25412,-0.80115,-13.2,28.14,20.04
11.795,-0.50395,-9.0303,-0.0051924,-0.28986,-0.72449,-13.5,27.9,20.1
10.937,-8.2539,-6.0202,-0.039401,-0.94715,-0.81398,-13.74,27.72,20.16
-3.1463,-6.0474,-5.2166,-0.0051924,-0.40561,-0.63835,-14.22,27.6,20.16
8.4446,-3.5004,-10.134,-0.13073,-0.36133,-1.0867,-14.52,27.48,20.16
11.918,-4.7126,-8.7443,-0.020159,-0.46426,-0.59559,-14.82,27.3,20.16
2.3699,-3.9227,-6.0338,0.24251,-0.13164,-0.39401,-14.94,27.12,19.98
8.0632,-5.3528,-7.8045,0.39248,-0.10201,-0.51068,-15.18,26.94,19.8
4.127,-5.1076,-5.8431,0.47342,-0.26603,-0.27275,-15.42,26.76,19.8
3.2825,-6.0747,-5.7069,0.52718,-0.087965,-0.35736,-15.48,26.64,19.74
5.1894,-6.1836,-6.8783,0.33811,-0.33567,-0.54825,-15.9,26.34,19.5
2.8058,-3.7184,-5.9793,0.29658,-0.099571,-0.44838,-16.08,26.28,19.38
4.6309,-6.3198,-6.0611,0.27825,-0.23427,-0.4328,-16.2,26.1,19.5
3.1872,-6.5786,-7.1234,0.22297,-0.18692,-0.54764,-16.32,25.74,19.38
4.2223,-3.4459,-7.7772,0.12004,-0.18998,-0.60598,-16.44,25.5,19.44
4.4675,-3.7592,-7.8317,0.068417,-0.17715,-0.53115,-16.56,25.32,19.44
2.5061,-5.6933,-6.1292,0.084605,-0.24984,-0.56474,-16.92,24.84,19.38
5.884,-4.4675,-7.2188,0.096211,-0.033598,-0.71532,-16.98,24.6,19.32
3.9635,-5.2711,-6.5786,0.18357,-0.14844,-0.56261,-17.34,24.48,19.32
6.1836,-4.0316,-7.5865,0.18204,0.002138,-0.60231,-17.64,24.42,19.14
5.5707,-4.4675,-5.8704,0.23427,-0.086743,-0.51465,-17.76,24.42,19.2
4.6718,-4.7671,-6.5105,0.27031,-0.072388,-0.51252,-18.0,24.3,19.14
6.1836,-5.4754,-7.1779,0.20067,-0.10873,-0.6634,-18.24,24.24,19.2
4.2904,-4.6037,-6.3743,0.2306,0.0079412,-0.52901,-18.6,23.7,19.08
5.4481,-6.0202,-6.96,0.22327,-0.014966,-0.50396,-18.9,23.46,18.84
4.3449,-5.2166,-6.1973,0.20281,0.063835,-0.47678,-19.14,23.1,18.66
6.0611,-6.0202,-6.5514,0.15424,0.10751,-0.54611,-19.86,22.74,18.24
3.4187,-5.38,-5.7478,0.13897,0.10385,-0.47556,-19.98,22.5,18.24
4.7399,-4.4811,-6.8374,0.11698,0.24496,-0.45998,-20.1,22.26,18.12
3.9499,-4.2359,-6.3062,0.12859,0.24557,-0.35308,-20.64,21.84,17.88
6.5514,-4.6718,-7.5729,0.12614,0.34361,-0.3879,-21.0,21.6,17.76
4.7944,-5.3528,-5.9249,0.19578,0.36927,-0.28253,-21.24,21.36,17.52
5.7614,-4.8761,-6.4833,0.20067,0.39095,-0.33414,-21.72,20.82,17.22
4.7535,-4.1542,-6.0066,0.21594,0.36835,-0.28222,-22.02,20.58,17.16
6.8374,-7.1234,-7.9951,0.058948,-0.036652,-0.45998,-22.14,20.4,16.92
-3.9227,1.7162,-4.5764,0.16127,0.30055,-0.38301,-22.68,20.04,16.56
4.7671,7.7091,-10.869,-0.091019,1.0263,-0.478,-23.1,19.8,16.44
7.1098,-7.2324,-3.4323,0.24801,0.87629,0.14294,-23.4,19.8,16.38
11.278,-15.473,-8.54,0.048564,-0.47617,-0.33659,-23.88,19.62,16.08
-2.152,-8.6217,-6.4697,-0.18876,-0.024435,0.12187,-24.06,19.5,15.9
0.76274,-1.6889,-5.8976,-0.040623,0.83108,-0.42974,-24.3,19.5,15.6
9.3708,-6.2517,-5.9521,0.13073,0.38729,-0.2868,-24.9,19.38,15.12
4.2904,-6.6604,-6.851,0.16952,0.36744,-0.3204,-25.02,19.32,14.88
9.1256,-8.2539,-5.9521,0.077274,0.34178,-0.4948,-25.38,19.26,14.64
5.1349,-6.7421,-7.7364,0.090408,0.061087,-0.26267,-25.86,19.02,14.04
6.0611,0.61292,-8.5672,0.029016,0.23121,-0.29047,-25.98,18.84,13.8
8.322,-1.866,-5.6388,0.06689,0.35064,-0.078191,-26.22,18.72,13.56
5.1485,-4.3585,-7.0553,0.16096,0.27733,0.10843,-26.28,18.72,13.26
8.1177,-9.0303,-6.2245,0.075136,0.13225,0.076053,-26.52,18.54,12.84
-1.58,-3.6094,-1.9068,0.49663,0.59132,0.39034,-26.58,18.48,12.66
7.8998,-7.3005,-4.8625,0.56902,0.53512,0.38271,-26.58,18.3,12.24
8.5672,-6.1155,-8.54,0.4102,0.058338,0.23579,-26.58,18.3,11.88
7.5321,-2.942,-8.9213,0.080023,0.24984,-0.045509,-26.82,18.3,11.58
2.0431,-6.1292,-3.8273,0.26023,0.015272,0.14172,-26.82,18.42,10.98
0.74912,-4.7671,-7.6955,0.11332,0.27458,0.20189,-26.82,18.3,10.62
8.1177,-5.3528,-9.0439,-0.22052,-0.012217,-0.018631,-26.64,18.3,10.56
4.1678,-5.2438,-6.8647,-0.2364,-0.01741,0.20678,-26.52,18.48,10.14
7.0962,-3.909,-9.3844,-0.29932,0.024129,0.13683,-26.4,18.6,9.96
7.7908,-4.9306,-8.3765,-0.22174,-0.054672,0.39187,-26.34,18.66,9.84
6.3335,-5.5843,-6.0883,-0.065057,0.036957,0.3204,-26.4,18.9,9.6
6.0066,-6.8783,-4.8352,0.1854,0.029932,0.52321,-26.4,19.08,9.36
6.5378,-4.6718,-5.8295,0.13439,0.032681,0.45173,-26.28,19.44,9.0
5.5299,-6.9191,-3.3506,0.19028,-0.011606,0.43463,-26.22,19.44,8.94
4.0589,-6.7557,-3.514,0.2306,0.047647,0.27,-26.22,19.62,8.88
5.38,-3.1872,-6.8647,-0.11057,0.069028,0.028711,-25.98,19.8,8.88
5.5162,-6.1836,-5.1076,-0.32406,-0.10965,0.014355,-25.74,20.1,9.06
3.909,-8.8532,-4.9578,-0.35949,-0.12462,-0.11668,-25.74,20.28,9.18
2.6423,-4.8761,-6.7148,-0.42089,-0.16585,-0.29291,-25.68,20.4,9.24
7.5457,-4.6445,-7.9951,-0.46365,-0.24251,-0.19181,-25.56,20.58,9.24
3.9363,-5.38,-8.3357,-0.38393,-0.3259,-0.064141,-25.56,20.7,9.3
5.6388,-4.9987,-8.7306,-0.32742,-0.35552,-0.16829,-25.5,20.82,9.24
7.0962,-5.3392,-8.1177,-0.22113,-0.37507,-0.031154,-25.38,20.82,9.36
6.8374,-3.9635,-6.9736,-0.10934,-0.28069,-0.060781,-25.26,20.82,9.42
7.9951,-3.9908,-6.1973,-0.13836,-0.47892,0.0039706,-25.2,20.88,9.48
8.4174,-5.4618,-6.0066,-0.12126,-0.47403,-0.0061087,-25.02,20.82,9.9
7.3822,-6.4833,-5.7478,-0.1689,-0.61545,-0.13928,-25.14,20.7,10.2
6.1564,-5.7205,-6.2654,-0.16493,-0.51343,-0.27611,-25.14,20.58,10.38
6.1292,-4.6582,-5.775,-0.097433,-0.47556,-0.27061,-25.08,20.4,10.68
5.2438,-3.1463,-6.3062,-0.058032,-0.44471,-0.20189,-25.08,20.28,11.04
6.9736,-4.4675,-7.5184,-0.11729,-0.59895,-0.24984,-25.08,20.1,11.34
4.9442,-5.9657,-6.2381,-0.067501,-0.51985,-0.23976,-25.2,19.74,11.82
5.0395,-4.3858,-6.1564,-0.035125,-0.40378,-0.26817,-25.14,19.56,12.0
5.9521,-3.051,-6.3198,-0.028711,-0.29688,-0.28741,-25.08,19.38,12.42
5.5026,-3.6639,-6.0474,0.031154,-0.31612,-0.1854,-24.96,19.2,13.08
6.1564,-5.8976,-5.8295,0.012217,-0.3769,-0.27214,-25.02,19.14,13.44
4.4811,-7.0281,-5.8976,-0.0030543,-0.33872,-0.20983,-25.08,19.08,13.74
7.3277,-7.9543,-7.0826,-0.10324,-0.31582,-0.40592,-25.26,18.72,14.22
4.7535,-5.8295,-5.9521,-0.050396,-0.11301,-0.49511,-25.2,18.6,14.46
4.4947,-5.8295,-6.7557,-0.010079,0.28986,-0.31796,-25.32,18.48,14.7
6.9872,-1.0488,-6.1292,0.10263,0.058948,-0.027489,-25.56,18.42,15.0
5.2847,-10.924,-7.3005,0.146,-0.22816,-0.022907,-25.68,18.24,15.12
2.9011,-7.464,-6.0474,-0.037568,-0.19059,-0.30696,-25.74,18.24,15.12
4.6445,-3.4732,-7.0553,0.073915,0.0039706,-0.37202,-25.8,18.42,15.3
5.203,-4.304,-7.0281,0.13347,-0.076664,-0.29596,-25.86,18.3,15.66
6.9328,-6.5378,-7.2733,0.10354,-0.23518,-0.49786,-25.98,18.24,15.6
5.3119,-5.5843,-5.9112,0.12553,-0.31429,-0.49877,-26.04,18.0,15.78
7.2188,-3.7047,-7.4231,0.11759,-0.27703,-0.44654,-26.34,17.7,15.78
5.1894,-3.7456,-6.7557,0.08827,-0.33628,-0.29047,-26.34,17.64,15.84
7.0281,-4.0589,-7.7091,0.032376,-0.34331,-0.34422,-26.34,17.52,15.96
5.7342,-6.96,-5.094,0.093768,-0.3821,-0.29352,-26.58,17.46,16.02
3.9635,-7.3822,-4.8352,0.22052,-0.30177,-0.34331,-26.58,17.34,16.08
4.2632,-5.1621,-5.2847,0.26848,-0.2135,-0.41294,-26.58,17.1,16.08
8.4174,-2.8875,-8.0905,0.37996,-0.14691,-0.26542,-26.58,16.68,15.96
7.3822,-6.0747,-7.3414,0.29902,-0.32193,-0.21564,-26.7,16.5,16.08
3.2144,-4.4811,-6.6467,0.28527,-0.135,-0.28222,-26.7,16.14,15.96
5.094,-3.1191,-6.7693,0.23732,-0.062308,-0.20556,-26.7,16.02,15.96
4.5083,-4.3177,-6.5514,0.22755,-0.099876,-0.024435,-26.76,15.9,16.14
4.6854,-4.6037,-7.246,0.12095,-0.041844,-0.083383,-26.76,15.78,16.14
5.9657,-6.1836,-6.9055,0.055283,-0.14997,-0.10873,-26.7,15.66,16.2
4.2087,-3.7728,-6.5786,0.097738,0.045509,-0.067806,-26.76,15.6,16.14
7.0553,-5.2575,-6.4697,0.11515,0.002138,-0.053451,-26.7,15.66,15.96
5.9793,-6.6059,-8.3629,0.1854,0.07422,0.039095,-26.58,15.48,15.96
5.775,-6.9328,-7.2869,0.068417,-0.16829,-0.11668,-26.64,15.6,16.08
3.5685,-4.808,-5.9385,0.14447,0.098655,-0.16738,-26.64,15.66,16.02
4.0589,-5.2711,-5.3392,0.15974,-0.055589,-0.15944,-26.64,15.66,16.14
4.2495,-5.7069,-6.3743,0.17043,-0.044593,-0.1967,-26.52,15.72,16.08
5.8704,-5.4481,-6.9464,0.067195,-0.028405,-0.30055,-26.46,15.6,16.02
4.2495,-6.3743,-5.7342,0.061697,-0.082161,-0.29322,-26.64,15.24,16.08
4.985,-4.4539,-6.0883,0.064752,-0.010996,-0.37385,-26.58,15.24,15.96
6.1019,-3.5822,-6.674,0.067501,-0.078802,-0.25107,-26.7,15.36,15.9
5.4073,-5.5707,-6.851,0.062308,-0.096517,-0.17807,-26.88,15.42,15.66
6.1019,-4.8488,-7.246,0.036957,0.043371,-0.27703,-27.06,15.12,15.66
5.4209,-5.9249,-6.3471,0.026573,-0.07025,-0.2416,-27.12,15.0,15.6
7.3277,-4.7671,-7.4231,0.071166,0.098349,-0.3146,-27.18,14.88,15.66
5.7886,-3.732,-5.9385,-0.019853,0.049175,-0.32773,-27.48,14.46,15.36
6.0883,-3.8546,-6.0747,0.022907,0.16921,-0.2697,-27.54,14.4,15.42
7.4503,-6.7966,-6.4969,-0.0079412,0.03879,-0.26817,-27.72,14.22,15.24
5.0123,-2.9011,-7.3958,-0.017104,0.16616,-0.30299,-28.02,13.8,15.12
7.1371,-3.3642,-6.674,-0.000305,0.25198,-0.22113,-28.32,13.74,15.0
6.1292,-5.2711,-6.8102,0.091935,0.13561,-0.1405,-28.32,13.68,14.76
5.9793,-4.0589,-6.7421,0.085521,0.17257,-0.17043,-28.62,13.62,14.34
7.3686,-3.9908,-7.3277,0.047953,0.10446,-0.22022,-28.68,13.32,14.28
6.1292,-4.8761,-6.0202,0.069333,0.071777,-0.14142,-28.8,13.14,14.34
5.4073,-2.9965,-6.3743,0.030238,0.1124,-0.30146,-28.98,12.84,13.98
5.993,-2.4244,-6.5786,-0.002138,0.18509,-0.22052,-29.16,12.72,13.86
5.6661,-5.6933,-5.4073,-0.0039706,0.080634,-0.078802,-29.34,12.6,13.74
5.4345,-7.0417,-5.2847,-0.075136,0.094379,-0.21228,-29.46,12.6,13.68
3.9227,-4.3449,-5.598,-0.019242,0.11301,-0.18906,-29.82,12.36,13.2
7.1371,-5.489,-7.1915,0.042455,0.27428,-0.13195,-29.88,12.3,13.08
6.0747,-5.6661,-6.456,0.061697,0.23793,-0.090408,-30.06,12.3,12.96
5.5707,-5.5435,-5.2438,0.1069,0.26206,-0.14386,-30.54,12.18,12.72
6.2245,-5.4481,-5.7342,0.10354,0.25351,-0.17471,-30.66,12.18,12.72
6.2517,-5.0531,-6.0202,0.051313,0.24771,-0.20983,-30.96,12.0,12.42
5.5571,-4.3585,-6.0611,0.040623,0.3262,-0.14813,-31.02,12.0,12.24
6.456,-4.6173,-6.7966,-0.027794,0.23335,-0.16218,-31.14,11.88,11.82
4.413,-5.0668,-6.1836,-0.020464,0.25229,-0.080023,-31.5,11.7,11.4
5.8704,-4.6037,-6.456,-0.061392,0.30391,-0.11087,-31.8,11.64,11.1
5.4345,-5.0123,-6.4833,-0.032681,0.31001,0.068722,-32.28,11.22,10.08
6.3062,-6.8783,-7.0962,-0.045815,0.24648,0.061392,-32.64,10.98,9.84
4.8897,-5.8159,-6.7012,-0.029932,0.29932,0.070555,-32.82,10.86,9.48
4.9306,-3.2689,-6.8783,-0.010996,0.42944,0.12217,-33.12,10.68,9.18
6.4424,-4.7126,-6.0883,0.1295,0.43738,0.42883,-33.42,10.56,8.88
5.4481,-4.2495,-6.8919,0.12187,0.3821,0.38515,-33.9,10.14,8.52
6.2517,-4.0861,-7.2596,0.073915,0.41508,0.40806,-34.2,9.9,8.22
4.1542,-6.7421,-6.7012,0.030238,0.20831,0.45296,-34.38,9.6,8.22
5.6116,-3.7592,-6.5105,-0.080329,0.37293,0.20922,-34.98,9.3,7.56
7.7636,-3.6911,-6.5514,-0.10629,0.35003,0.18143,-35.16,9.06,7.44
5.3937,-3.4732,-6.6059,-0.17379,0.2813,0.34941,-35.22,9.0,7.32
8.145,-5.9521,-7.9134,-0.29505,0.000611,0.25595,-35.34,8.88,7.14
4.304,-3.4187,-6.5378,-0.22938,0.13653,0.1408,-35.22,8.88,7.14
6.3335,-5.6661,-7.0009,-0.19945,-0.13408,0.22235,-35.22,8.88,7.44
5.7614,-7.8998,-7.1643,-0.19364,-0.1069,0.21289,-34.98,9.0,7.44
5.5571,-6.2381,-7.6546,-0.22816,-0.21869,-0.09499,-34.98,9.06,7.5
4.7807,-1.8524,-5.1213,-0.079412,-0.1405,-0.091935,-34.44,9.3,7.74
8.1313,-2.0567,-4.9987,-0.039401,-0.25717,-0.11057,-34.08,9.36,7.68
6.8647,-6.96,-5.5162,-0.0033598,-0.44318,0.061697,-33.84,9.54,7.62
7.0281,-4.5901,-6.0611,-0.18387,-0.47678,-0.18112,-33.66,9.96,7.86
4.699,-4.9578,-5.3119,-0.089797,-0.33292,-0.04948,-33.36,9.96,8.04
5.598,-3.7456,-6.4152,-0.11606,-0.30788,-0.12981,-33.18,10.08,8.28
5.8295,-6.1564,-6.3879,-0.11087,-0.37813,-0.17532,-33.0,10.5,8.94
5.4209,-2.5879,-6.5922,-0.12614,-0.19792,-0.22205,-32.76,10.62,9.06
6.6876,-3.4051,-5.2847,-0.10446,-0.13653,-0.1405,-32.52,10.56,9.24
5.3119,-4.0997,-6.3198,-0.10904,-0.25992,-0.076358,-32.52,10.5,9.48
5.1757,-6.456,-6.1292,-0.10904,-0.25992,-0.076358,-32.34,10.62,9.66
6.2245,-4.3177,-6.2517,-0.1463,-0.091324,-0.21075,-32.22,10.62,9.96
4.8625,-2.3836,-4.9442,-0.000611,-0.0015272,-0.1628,-32.22,10.5,10.32
8.7034,-4.9714,-6.7421,0.040012,0.028711,-0.16982,-32.1,10.56,10.38
5.8295,-4.4811,-5.884,0.062003,-0.013744,-0.038179,-32.04,10.44,10.92
6.7966,-3.9363,-6.0747,0.060476,0.062614,-0.16738,-31.98,10.62,11.1
4.9987,-5.1894,-6.674,0.08827,-0.04948,-0.061087,-31.98,10.5,11.34
6.1564,-4.8352,-6.7557,0.01069,0.0064141,-0.17013,-31.98,10.44,11.46
5.2575,-4.3858,-5.8295,0.0085521,0.094684,-0.09163,-31.98,10.38,11.52
4.018,-6.9328,-5.203,0.037568,-0.045509,-0.027489,-31.98,10.32,11.4
3.9908,-4.7944,-6.8374,0.020769,0.1573,-0.12248,-32.22,10.32,11.4
5.2575,-4.3449,-6.5786,-0.025656,0.069639,-0.024435,-32.22,10.38,11.28
5.1076,-6.5786,-5.3937,0.0079412,0.10476,0.065363,-32.22,10.32,11.28
4.3177,-5.5162,-5.3937,0.061087,0.096211,0.035125,-32.34,10.32,11.22
7.069,-5.5026,-6.279,0.028405,0.094684,-0.021991,-32.34,10.38,11.1
5.094,-4.0589,-5.2575,0.083383,0.26023,-0.034208,-32.52,10.44,11.04
8.0905,-4.5628,-6.2245,0.025045,0.19975,-0.13439,-32.64,10.32,10.8
6.3743,-5.6933,-5.5435,0.031154,0.1912,-0.053145,-32.58,10.38,10.68
6.2517,-6.5786,-6.3335,-0.10018,0.1576,-0.16554,-32.7,10.38,10.26
5.3256,-5.094,-6.5241,-0.15944,0.31643,-0.12401,-32.64,10.32,10.2
6.1836,-5.6252,-6.6195,-0.20036,0.22205,-0.14936,-32.64,10.2,10.02
5.6524,-3.8818,-6.5786,-0.14508,0.42944,-0.16341,-32.7,10.26,10.02
5.1076,-5.2166,-5.4073,-0.025962,0.34453,0.10049,-32.76,10.08,9.78
4.7944,-5.5162,-7.0962,-0.0076358,0.23152,0.16952,-32.76,9.84,9.72
5.9657,-3.6911,-7.7908,-0.086132,0.21136,0.19548,-32.88,9.72,9.18
6.4697,-6.0066,-6.8102,-0.04215,0.15852,0.31368,-32.94,9.72,9.0
4.5492,-3.9635,-7.0417,0.062614,0.12095,0.3824,-32.82,9.6,8.94
6.9736,-2.9284,-7.0826,0.000916,0.1686,0.35644,-32.94,9.48,8.82
8.0088,-6.456,-6.96,-0.052534,0.036346,0.43005,-33.12,9.54,8.64
5.2983,-7.8726,-5.6388,-0.1405,-0.099876,0.39767,-33.18,9.36,8.4
4.8216,-3.1735,-6.3743,-0.20586,0.10415,0.13225,-33.36,9.42,8.4
5.8976,-6.1973,-6.4424,-0.1405,0.012217,0.26359,-33.24,9.48,8.4
6.279,-7.2188,-7.3958,-0.19792,-0.018021,0.17776,-33.3,9.78,8.28
3.8682,-4.7671,-5.4481,-0.11973,-0.007025,0.12401,-33.24,9.72,8.22
4.6718,-4.1814,-5.9793,-0.029932,0.0015272,0.061087,-33.12,9.9,8.16
5.9385,-3.7592,-7.1371,-0.029932,-0.032376,0.080023,-33.06,10.32,8.16
6.8919,-5.7614,-6.7966,-0.13714,-0.2532,0.049175,-33.06,10.32,8.22
5.7205,-8.1041,-6.2245,-0.17562,-0.34544,0.019853,-33.18,10.62,8.4
5.1213,-1.7979,-6.1428,-0.18143,-0.10599,-0.18815,-33.06,10.74,8.46
6.7693,-0.29965,-5.9657,-0.10171,-0.1518,-0.054978,-32.94,10.86,8.58
5.8976,-0.39499,-5.5571,-0.076053,-0.075747,0.13806,-32.82,11.04,8.76
8.1858,-8.826,-5.7342,-0.12431,-0.17135,0.20433,-32.52,11.22,8.94
5.094,-11.836,-6.0747,-0.23366,-0.44715,0.000611,-32.34,11.22,9.0
3.909,-5.5435,-7.6274,-0.34117,-0.10324,-0.48778,-32.28,11.28,9.18
4.2904,-3.3097,-4.2495,-0.10904,-0.062919,-0.1408,-32.04,11.22,9.36
7.2324,-2.152,-6.1836,0.024129,0.10293,-0.2584,-31.98,11.34,9.36
8.4855,-1.6344,-6.0202,-0.037874,0.1179,-0.083078,-31.98,11.22,9.6
4.8352,-6.1428,-6.3743,0.000916,-0.15211,0.049786,-31.92,11.04,9.84
4.2904,-2.0839,-7.641,-0.10232,0.069333,-0.12034,-31.74,11.04,9.96
8.9213,-2.6696,-6.7421,-0.15913,0.13225,-0.093768,-31.68,10.86,9.96
-1.3893,-9.3708,-4.6445,-0.11698,-0.5229,0.059254,-31.8,10.68,10.02
3.2553,0.70826,-8.1722,-0.05681,0.25504,-0.32009,-31.74,10.74,10.14
7.464,1.5119,-6.8374,0.18173,0.31765,0.11912,-31.92,10.68,10.14
7.6683,-3.7592,-8.7034,0.2532,-0.1179,0.14752,-31.98,10.44,10.32
7.2188,-5.5162,-10.038,-0.22816,-0.16952,-0.048869,-32.28,10.38,10.32
1.8932,-5.5571,-4.3449,-0.26848,-0.15821,0.035736,-32.22,10.26,10.2
6.7421,-5.8295,-6.7012,-0.22358,-0.032376,-0.18295,-32.34,10.2,10.26
5.9112,-4.9442,-6.2109,-0.19945,0.14936,0.010385,-32.4,10.02,10.38
9.4798,-5.8704,-6.2245,-0.12095,0.04948,-0.064752,-32.58,10.02,10.38
7.0009,-7.6546,-5.1621,-0.019548,-0.097738,0.052229,-32.52,10.02,10.44
4.7671,-3.8273,-5.7478,0.031765,0.1628,-0.18479,-32.64,9.96,10.56
10.093,-4.2359,-6.6876,0.011301,0.18845,-0.0067195,-32.7,10.02,10.56
7.3822,-11.645,-4.9033,0.080329,-0.10415,-0.01741,-32.64,10.02,10.68
0.20431,-6.1292,-6.0202,0.045815,0.18326,-0.27397,-32.64,9.96,10.74
6.5378,-1.2531,-5.993,0.047953,0.14875,-0.22327,-32.58,9.84,10.8
6.0883,-1.4029,-5.9657,0.13164,0.1686,0.23335,-32.52,9.66,10.92
6.5922,-4.8625,-6.9191,0.15333,0.052534,0.33506,-32.4,9.78,11.04
3.623,-6.8919,-6.8374,0.082467,-0.11606,0.13775,-32.4,9.78,11.04
3.3097,-4.7126,-5.6116,0.09499,0.19273,0.08491,-32.4,9.72,11.04
4.4402,-4.8216,-5.4209,0.18204,0.20708,0.17257,-32.22,9.72,10.86
7.1915,-5.598,-7.641,0.059559,0.16952,0.18143,-32.16,9.78,10.8
5.094,-5.094,-6.6331,0.041844,0.25473,0.28161,-32.16,9.96,10.8
5.0259,-4.5628,-6.0338,0.069944,0.21533,0.33995,-31.98,10.2,10.62
5.7342,-3.732,-7.0962,0.054672,0.29993,0.36957,-31.86,10.32,10.62
8.6762,-5.775,-7.5048,-0.04948,0.19548,0.32009,-31.74,10.38,10.44
3.7456,-5.7886,-5.3528,0.060781,0.26542,0.51435,-31.74,10.38,10.14
6.4697,-6.2654,-6.4424,-0.025656,0.15455,0.25626,-31.68,10.74,9.84
4.2087,-3.9635,-5.993,0.053145,0.25198,0.3598,-31.62,11.22,9.54
7.8453,-5.3119,-7.0962,-0.039095,0.27214,0.17287,-31.62,11.4,9.42
4.3177,-5.8704,-5.8976,-0.15882,0.25595,0.13958,-31.8,11.94,9.12
4.2087,-5.8295,-4.6037,-0.18143,0.11301,0.061697,-31.74,12.24,8.94
5.1349,-7.0553,-6.2109,-0.16585,0.1237,0.09163,-31.74,12.42,8.88
4.9033,-5.5026,-6.5105,-0.23549,0.10476,0.073609,-31.68,12.48,8.76
5.7205,-5.0804,-6.4833,-0.1408,0.072998,0.12798,-31.74,12.66,8.58
5.8704,-5.2847,-7.2733,-0.13164,0.054978,0.0562,-31.62,13.02,8.28
6.8647,-5.8976,-6.851,-0.15455,0.0067195,0.090713,-31.8,13.02,8.28
6.6604,-3.7592,-6.4288,-0.1182,0.072388,0.061392,-31.8,13.14,7.98
6.6467,-4.2223,-5.5162,-0.10293,0.064446,0.12126,-31.86,13.2,8.1
7.6955,-4.5356,-6.3743,-0.11912,0.036957,0.044593,-31.8,13.38,7.98
6.7557,-4.6173,-6.4697,-0.18815,0.032987,-0.020159,-31.92,13.5,7.74
7.2052,-6.8647,-4.985,-0.20953,0.014355,-0.065363,-32.04,13.38,7.62
5.6933,-6.8238,-5.6388,-0.11973,-0.075442,-0.1909,-32.1,13.32,7.44
7.9951,-2.4517,-5.8023,-0.20892,-0.0051924,-0.21075,-31.92,13.2,7.56
7.4095,-4.1406,-5.203,-0.14661,0.058032,-0.086437,-32.28,13.2,7.68
8.2812,-8.1586,-6.0747,-0.062003,-0.32773,-0.098655,-32.34,13.32,7.68
4.1542,-4.2904,-7.3822,-0.15547,-0.015882,-0.12737,-32.46,13.26,7.74
4.7807,-5.2575,-4.4675,-0.17868,-0.24007,-0.059559,-32.58,13.02,7.74
2.8058,-3.7592,-7.3005,-0.13408,-0.19395,0.090103,-32.7,12.9,7.62
3.3506,-5.2438,-4.0316,-0.32773,-0.22633,-0.11545,-32.7,12.84,7.74
5.4073,-4.9987,-6.8374,-0.079718,-0.077885,0.26664,-32.94,12.9,7.86
6.7966,-3.8954,-5.9249,-0.13561,-0.11423,-0.040928,-32.88,12.72,7.98
5.9657,-5.0531,-5.6797,0.015272,-0.12217,0.12889,-32.88,12.78,8.22
5.9657,-6.565,-5.6116,0.092852,-0.12126,0.17135,-32.94,12.42,8.76
6.7966,-6.9872,-5.9657,0.053756,-0.15638,0.0039706,-32.94,12.36,9.0
3.6639,-5.2438,-6.1973,0.1179,-0.032681,0.047647,-32.94,12.36,9.0
8.9349,-4.7671,-6.5241,0.060781,0.017104,-0.11759,-33.0,12.24,9.12
5.5571,-6.7012,-4.3449,-0.036346,-0.14325,-0.036041,-32.88,12.06,9.18
4.3721,-5.1757,-6.3198,-0.094684,-0.089186,-0.18479,-32.76,12.0,9.24
6.9191,-4.7399,-6.1292,-0.048258,-0.046426,-0.035125,-32.76,11.88,9.42
5.489,-4.8761,-7.3277,-0.070555,-0.04215,0.045509,-32.58,11.94,9.54
6.5241,-4.6718,-7.1507,-0.089797,-0.1069,0.03879,-32.64,12.12,9.84
4.2223,-5.5435,-5.7342,0.029016,0.0061087,0.22846,-32.58,12.06,10.02
5.4345,-5.8295,-6.2654,0.057727,-0.044288,0.12859,-32.58,12.0,10.08
5.5026,-5.4073,-6.9055,0.072388,0.010079,0.053145,-32.52,11.82,10.2
5.5571,-2.942,-6.6331,0.098349,0.10324,0.22907,-32.34,11.94,10.14
6.4152,-6.8238,-5.7478,0.11576,-0.0064141,0.28008,-32.34,12.0,10.26
4.7671,-6.3743,-6.4424,0.078191,-0.10171,0.16402,-32.28,12.12,10.44
7.4095,-4.2904,-7.0281,0.02474,-0.020769,0.15547,-32.16,12.3,10.56
4.6037,-4.127,-6.96,0.039706,0.013439,0.34606,-32.22,12.36,10.74
6.96,-6.8919,-6.5241,-0.020464,-0.063225,0.12126,-32.1,12.42,10.8
6.1292,-4.7126,-6.4833,-0.0018326,0.042761,0.10996,-31.86,12.72,10.98
4.9578,-4.7944,-6.3471,-0.037874,-0.011606,0.04948,-31.86,12.72,10.98
5.7478,-4.2223,-6.6195,-0.12462,0.03543,0.043982,-31.68,12.6,10.92
4.808,-8.2131,-5.4481,-0.12126,-0.097128,0.063225,-31.56,12.78,10.98
3.7047,-5.2847,-5.6797,-0.043982,0.049786,-0.08491,-31.5,13.02,10.98
6.17,-4.4402,-6.279,-0.027794,-0.033292,-0.028711,-31.44,13.14,10.92
5.0804,-5.9385,-6.0747,-0.018021,-0.082467,-0.025656,-31.32,13.2,10.8
4.8897,-4.6173,-6.5514,-0.14478,-0.098655,-0.1741,-31.2,13.32,10.74
6.0611,-3.5413,-6.2926,-0.1237,-0.082161,-0.011301,-31.14,13.32,10.62
6.4969,-5.4618,-6.8238,-0.068111,-0.10721,-0.054062,-30.6,13.32,10.62
6.4969,-5.3528,-7.0009,-0.18234,-0.12737,-0.12217,-30.48,13.32,10.56
5.7886,-5.0259,-6.3062,-0.16585,-0.13256,-0.13958,-30.42,13.26,10.56
8.4855,-4.5356,-6.0202,-0.13622,0.072082,-0.10568,-30.48,13.14,10.62
6.7829,-7.0281,-5.4481,-0.068111,-0.23854,-0.09896,-30.42,13.14,10.74
8.1177,-2.656,-7.641,-0.11698,-0.0030543,-0.2813,-30.42,12.96,11.04
7.0009,-4.5083,-4.9169,-0.039401,-0.053451,-0.087048,-30.48,12.96,10.92
5.3528,-4.1951,-6.8374,0.018326,-0.080023,-0.16188,-30.48,12.78,10.98
7.069,-4.4402,-6.0338,-0.010996,-0.0042761,-0.19303,-30.48,12.72,10.92
6.2926,-4.2632,-6.2654,0.061697,-0.11668,-0.11484,-30.54,12.6,10.98
2.4517,-3.6775,-6.4969,0.061087,-0.13683,-0.10018,-30.72,12.36,11.1
