Ax,Ay,Az,Gx,Gy,Gz,Mx,My,Mz
4.5901,-6.2245,-8.2812,-0.17501,0.069028,-0.042455,-13.74,18.24,9.54
2.6015,-4.9442,-9.0167,-0.21777,-0.038179,-0.081551,-13.56,18.54,9.72
2.1929,-3.2008,-9.0984,-0.24984,0.1576,-0.021991,-13.56,18.66,9.66
2.5879,-3.9771,-8.7579,-0.21838,0.09896,-0.011301,-13.32,18.84,9.72
3.4459,-2.5334,-8.9894,-0.18448,0.42211,0.043677,-13.5,19.14,9.6
5.3119,-4.0861,-7.2188,-0.18357,0.38149,0.07758,-13.44,19.26,9.48
4.9033,-3.2825,-7.641,-0.10263,0.2416,0.016188,-13.5,19.2,9.42
4.8897,-5.0531,-7.069,-0.11362,0.16616,0.052534,-13.56,19.32,9.42
4.0997,-6.7966,-6.9872,-0.18906,-0.12737,-0.045204,-13.5,19.44,9.36
3.5549,-2.7513,-7.5048,-0.26267,0.32865,-0.055283,-13.74,19.26,9.24
5.4481,-7.7908,-6.9328,-0.34941,0.19945,-0.20678,-13.86,19.2,9.12
3.1327,-4.5628,-7.3958,-0.33903,0.29047,-0.27978,-14.1,18.9,9.36
5.7342,-3.1735,-7.069,-0.34606,0.55497,-0.22022,-14.34,18.78,9.12
6.0747,-5.1349,-7.4912,-0.32009,0.36346,-0.34361,-14.58,18.66,9.06
6.3198,-5.6933,-7.7364,-0.36072,0.1689,-0.40836,-14.76,18.54,9.06
4.2904,-2.9829,-7.355,-0.31612,0.25351,-0.35216,-15.18,18.3,9.12
5.094,-1.4846,-7.6819,-0.20281,0.56994,-0.26542,-15.3,17.94,9.18
8.6081,-7.0962,-7.4367,-0.2022,0.43891,-0.35308,-15.78,17.52,9.06
4.6582,-4.9987,-7.0281,-0.17685,0.061697,-0.39615,-16.08,17.28,9.06
5.2166,-6.5514,-7.0962,-0.18021,-0.11606,-0.46609,-16.2,16.92,9.0
2.4108,-2.6151,-7.6683,-0.09499,0.21777,-0.37507,-16.62,16.32,9.12
5.8295,-4.127,-7.9679,-0.087965,0.35919,-0.33964,-16.8,16.14,9.12
7.3005,-6.9328,-7.1643,-0.084299,0.035736,-0.45418,-17.16,15.78,9.06
6.4288,-7.6002,-7.4095,0.0281,0.032987,-0.37904,-17.46,15.6,9.0
5.6661,-2.0975,-8.0905,0.07422,0.39065,-0.19151,-17.7,15.24,8.76
7.3277,-4.2223,-7.7636,0.018937,0.14355,-0.2642,-17.94,14.88,8.76
7.0553,-5.38,-7.2188,-0.04215,-0.14294,-0.40897,-18.12,14.52,8.7
2.3972,-2.0294,-6.279,-0.03543,-0.19059,-0.4102,-18.48,14.16,8.46
4.2632,-3.5277,-6.7693,0.0097738,0.022297,-0.3598,-18.54,13.98,8.34
6.3335,-7.3686,-7.5457,-0.079412,-0.32009,-0.50946,-18.78,13.74,8.28
4.7807,-1.8251,-7.6683,-0.027794,-0.036652,-0.29902,-18.96,13.14,8.4
7.069,-4.0316,-8.2539,-0.062919,0.011301,-0.28741,-19.14,13.02,8.46
5.7886,-2.261,-7.6546,0.0015272,-0.043371,-0.29016,-19.32,12.84,8.4
5.6388,-5.0668,-7.3277,0.065057,-0.36163,-0.28772,-19.68,12.42,8.4
3.0373,-1.3893,-6.7829,0.24709,-0.40867,-0.14355,-19.74,12.18,8.58
3.7456,-1.7843,-7.5048,0.42333,-0.34636,0.014966,-19.86,11.88,8.7
4.8352,-3.4732,-9.221,0.39706,-0.38546,0.036346,-19.86,11.76,8.82
6.9736,-6.1019,-9.1256,0.2645,-0.36866,-0.015272,-19.98,11.7,8.88
4.0997,-5.7342,-6.674,0.14936,-0.36896,-0.1744,-19.92,11.7,9.0
2.1656,-3.6503,-6.2517,0.24862,0.029627,-0.12889,-19.92,11.52,9.12
3.7184,-4.5083,-7.8862,0.26664,0.12401,-0.021075,-20.16,11.28,9.24
4.8761,-3.9908,-8.4719,0.23213,0.058643,0.10721,-19.92,11.34,9.18
5.7069,-4.4539,-8.0224,0.23121,0.099266,0.14569,-19.98,11.28,9.12
3.7592,-2.0703,-7.1915,0.19792,0.069028,0.11209,-19.98,11.4,9.06
4.0316,0.14982,-7.355,0.30818,0.62247,0.34025,-19.86,11.34,9.0
6.3198,-1.6072,-7.8862,0.23763,0.21105,0.3204,-19.74,11.34,8.82
5.9385,-6.7829,-7.069,0.13683,-0.59071,0.16646,-19.56,11.52,8.58
1.7298,-3.8682,-6.6059,0.14416,-0.22083,0.23121,-19.38,11.7,8.4
3.051,-4.8897,-7.927,0.052534,-0.012828,0.30818,-19.38,11.88,8.34
3.1599,-1.3893,-8.5263,0.047953,0.15211,0.39065,-19.38,11.88,8.28
4.4811,-0.47671,-8.2539,0.03146,0.21594,0.4273,-19.44,11.88,8.1
8.8124,-6.3743,-7.1507,-0.02474,-0.36774,0.29719,-19.38,12.0,7.8
0.96704,-4.7671,-7.1098,-0.0051924,-0.64935,0.24068,-19.2,12.24,7.62
0.28603,-1.3212,-7.641,0.026267,0.021991,0.48136,-19.26,12.42,7.62
4.7399,-4.1133,-8.5944,-0.013439,0.059254,0.46487,-19.02,12.54,7.5
6.1292,-3.6366,-8.6898,-0.15913,-0.041539,0.39126,-18.84,12.72,7.32
5.5843,-6.6467,-6.7012,-0.31979,-0.16493,0.25076,-18.42,13.2,7.56
1.9886,-2.4925,-7.4095,-0.22419,0.064446,0.32467,-18.3,13.5,7.74
5.1485,-5.2438,-7.7091,-0.24221,0.068722,0.36835,-18.06,13.68,7.8
4.4811,-4.2495,-8.0905,-0.11179,-0.13531,0.3259,-18.0,14.04,8.04
5.5843,-6.3198,-7.641,-0.041233,-0.16768,0.38026,-17.76,14.16,8.04
4.304,-6.4424,-7.5184,0.016493,-0.22358,0.3824,-17.52,14.28,8.1
3.4459,-2.6015,-7.8862,0.11148,0.025351,0.33384,-17.28,14.52,8.28
5.6933,-5.5026,-7.5457,0.14997,0.048564,0.30055,-17.04,14.82,8.7
4.0861,-5.0395,-6.8374,0.059865,-0.20525,0.16738,-16.8,15.12,8.76
3.6911,-3.732,-6.1564,0.037263,0.047037,0.087354,-16.32,15.6,8.88
5.2575,-8.9349,-6.1428,-0.12431,-0.18326,-0.092546,-16.26,15.78,9.0
0.81722,-4.304,-5.5571,-0.090713,0.013744,-0.1405,-16.08,15.9,9.12
0.34051,-2.0294,-5.7342,-0.069028,0.26909,-0.12248,-16.02,16.08,9.18
3.7728,-2.9965,-7.3141,-0.075747,0.45662,0.029016,-15.96,15.96,9.24
7.0009,-5.6388,-9.9292,-0.28008,0.15944,-0.077274,-15.78,16.2,9.36
4.0725,-3.514,-8.2676,-0.29535,0.26359,-0.087659,-15.6,16.08,9.54
3.732,-4.8625,-8.0496,-0.29016,0.28894,-0.10354,-15.42,16.26,9.36
3.4187,-2.9284,-8.0496,-0.21197,0.36377,-0.010996,-15.42,16.38,9.48
5.6661,-4.2359,-8.9077,-0.2529,0.21289,-0.033598,-15.54,16.2,9.3
3.1872,-4.8625,-7.0281,-0.26817,0.076053,-0.054978,-15.48,16.5,9.18
2.2882,-2.0703,-6.4833,-0.13867,0.49083,0.0067195,-15.48,16.5,9.12
4.9033,-3.7047,-7.3277,-0.10385,0.46792,0.10018,-15.6,16.32,9.0
4.6582,-5.6388,-7.927,-0.23732,-0.038485,-0.086132,-15.6,16.32,8.94
2.3427,-3.623,-6.456,-0.24068,0.19242,-0.12798,-15.78,16.2,8.82
4.1542,-3.2825,-6.96,-0.18051,0.52962,-0.081856,-15.9,16.14,8.64
6.2654,-5.4481,-7.7772,-0.27092,0.20097,-0.15027,-15.96,16.14,8.46
3.8954,-2.4517,-7.641,-0.29688,0.20892,-0.13134,-16.2,15.9,8.28
6.7421,-3.1872,-7.6138,-0.30604,0.39798,-0.09896,-16.2,15.9,8.1
5.5707,-4.0044,-7.1371,-0.37904,0.2138,-0.21991,-16.32,16.02,8.04
5.9657,-2.8467,-6.96,-0.3879,0.53176,-0.197,-16.44,15.6,8.04
6.5786,-5.2983,-6.1292,-0.33078,0.4496,-0.22846,-16.38,15.6,8.04
5.38,-4.8897,-6.8647,-0.31368,0.36957,-0.30207,-16.44,15.3,8.1
5.2166,-2.4517,-7.1779,-0.30207,0.43891,-0.19517,-16.68,14.94,8.04
7.5729,-5.7478,-6.9055,-0.30055,0.343,-0.28436,-16.8,14.82,8.16
3.514,-3.6094,-6.96,-0.29474,0.20739,-0.39523,-16.92,14.64,8.16
3.514,-2.2474,-5.8431,-0.11026,0.49816,-0.16829,-17.4,14.16,8.04
6.8919,-3.1872,-7.9543,-0.069944,0.35797,-0.22755,-17.58,13.92,8.04
7.927,-5.0531,-7.8045,-0.10324,0.021686,-0.25229,-17.88,13.74,7.98
3.9635,-2.9829,-7.1234,-0.064752,-0.10385,-0.34667,-18.24,13.38,7.8
3.9499,-2.9284,-7.3141,0.01069,0.08094,-0.20922,-18.48,13.14,7.86
6.0338,-3.1191,-8.322,-0.025962,0.015577,-0.22358,-18.72,12.72,7.62
5.8295,-2.7649,-7.2052,0.019548,0.12095,-0.18112,-18.84,12.66,7.5
7.1779,-4.9714,-7.5729,0.017715,-0.13867,-0.27214,-19.14,12.48,7.38
5.8295,-4.3313,-7.2596,0.037568,-0.24435,-0.28039,-19.32,12.42,7.26
5.8295,-4.3313,-7.2596,0.08491,-0.20067,-0.26206,-19.32,12.42,7.26
5.4618,-3.9635,-6.7693,0.14691,-0.34758,-0.33872,-19.62,11.82,7.02
4.7671,-2.3427,-6.4152,0.31429,-0.25198,-0.2981,-19.74,11.7,7.14
4.7535,-2.9692,-7.2188,0.37232,-0.35797,-0.18265,-19.56,11.58,7.14
5.9249,-4.3994,-8.2267,0.28039,-0.551,-0.17257,-19.5,11.58,7.26
4.6445,-2.9284,-8.2403,0.2361,-0.27428,-0.086743,-19.32,11.34,7.38
5.0668,-4.2904,-7.5048,0.16829,-0.054672,-0.10507,-19.44,11.4,7.38
5.1213,-2.6423,-7.7364,0.19609,0.42455,0.047342,-19.5,11.28,7.32
6.8238,-4.2223,-8.4719,0.16493,0.37293,0.071777,-19.38,11.28,7.32
5.7886,-3.0646,-7.7091,0.087659,-0.035125,0.054062,-19.38,11.22,7.32
5.993,-1.7979,-8.0088,0.10934,-0.062308,0.054367,-19.32,11.28,7.32
7.6819,-6.674,-8.1586,-0.023213,-0.44166,-0.03146,-19.38,11.34,7.32
3.8818,-0.38137,-7.4095,0.0094684,-0.13836,0.082161,-19.32,11.4,7.38
7.3141,-5.0123,-7.8317,-0.024435,-0.063225,0.062919,-19.38,11.4,7.14
5.5435,-1.1032,-8.1722,-0.023213,-0.2022,0.16371,-19.44,11.4,6.96
6.9191,-2.7786,-7.8589,-0.047037,-0.08491,0.18295,-19.44,11.46,7.14
5.6524,-1.6481,-7.4776,0.0018326,-0.12523,0.24801,-19.38,11.52,7.38
6.7285,-2.2746,-7.2869,0.044899,-0.15974,0.24068,-19.2,11.76,7.38
6.9872,-5.5026,-7.0962,0.076053,-0.51068,0.16005,-18.9,11.94,7.74
3.6366,-3.8273,-6.5786,0.18112,-0.4945,0.22052,-18.96,12.0,7.74
3.7456,-3.4732,-7.2869,0.21289,-0.4105,0.25809,-18.9,12.3,7.74
4.2632,-3.2689,-7.5729,0.25351,-0.33078,0.33475,-18.84,12.42,7.74
5.0531,-5.1213,-7.6819,0.20189,-0.46212,0.28588,-18.72,12.54,7.74
3.9227,-4.9714,-7.1915,0.18326,-0.46609,0.3036,-18.72,12.72,7.8
2.656,-4.7535,-7.0281,0.197,-0.23885,0.33017,-18.54,12.84,7.8
4.0589,-3.7184,-8.3765,0.13714,-0.12065,0.3882,-18.36,13.32,7.92
4.2495,-5.4754,-8.1041,-0.0082467,-0.32101,0.35797,-18.24,13.56,7.86
3.4187,-3.514,-7.4095,-0.050702,-0.070555,0.36499,-17.88,13.98,8.04
4.9442,-5.1894,-6.7829,-0.019853,0.052534,0.39645,-17.82,14.04,8.16
5.598,-6.5786,-7.1915,0.0012217,-0.19761,0.30391,-17.7,14.28,8.34
4.5083,-5.8976,-6.4969,0.12828,-0.043677,0.37477,-17.58,14.4,8.46
7.1915,-7.927,-8.145,0.18509,0.057421,0.29871,-17.34,15.0,8.7
4.9578,-7.3141,-7.6546,0.18937,-0.091019,0.28405,-17.28,15.18,8.88
2.833,-3.0918,-6.5786,0.30146,0.25198,0.33048,-16.98,15.42,8.76
3.4459,-5.5707,-6.8102,0.30146,0.17257,0.34056,-16.74,16.08,8.94
3.6094,-6.1564,-7.6819,0.21838,0.062614,0.20708,-16.56,16.2,8.94
2.9148,-5.5435,-7.7227,0.18998,0.085827,0.18845,-16.38,16.38,9.0
2.152,-5.4481,-7.4503,0.12004,0.2755,0.14966,-15.96,16.74,9.0
2.2337,-3.4732,-7.2733,0.083078,0.50305,0.16982,-15.84,17.04,9.0
5.1757,-5.094,-7.6002,0.04215,0.63041,0.23121,-15.72,17.34,8.94
3.9908,-4.0861,-8.0632,-0.054978,0.4664,0.15669,-15.78,17.7,8.64
3.2961,-2.7377,-7.4095,-0.12156,0.6802,0.31215,-15.72,17.94,8.46
4.7944,-4.2904,-7.9679,-0.14997,0.63591,0.28986,-15.78,18.06,8.28
5.094,-6.4016,-8.322,-0.27519,0.26878,0.27031,-15.72,18.24,8.1
3.7728,-2.0567,-7.9815,-0.27581,0.49969,0.43982,-15.78,18.54,7.62
5.2166,-3.2825,-8.54,-0.27917,0.29016,0.51465,-15.84,18.54,7.5
6.4697,-3.9499,-9.7522,-0.34575,0.12034,0.45784,-15.9,18.66,7.32
4.2768,-5.5435,-7.641,-0.48289,-0.057727,0.39034,-15.84,18.9,7.14
2.9148,-3.6911,-7.6002,-0.45296,0.33934,0.35369,-15.96,19.08,7.08
3.3234,-3.0373,-7.8317,-0.49419,0.45907,0.39218,-16.02,19.2,7.02
3.3642,-0.8717,-7.8726,-0.54825,0.35094,0.42272,-16.02,19.14,6.96
6.5105,-0.53119,-6.7966,-0.48594,0.55986,0.39676,-15.96,19.2,6.96
11.073,-8.145,-8.1858,-0.48991,-0.065668,0.087354,-15.84,19.38,6.9
2.4517,-1.8115,-8.6898,-0.52626,-0.19517,0.11668,-15.9,19.44,6.84
6.7693,-5.6524,-5.3664,-0.41417,0.21777,0.21533,-15.78,19.44,6.84
6.5241,-8.1586,-6.0611,-0.24038,0.057727,-0.025351,-15.78,19.44,6.9
5.6388,-3.5413,-6.4833,-0.21594,0.17837,-0.03207,-15.54,19.44,7.02
6.3471,-5.2847,-6.0338,-0.10904,0.071777,-0.034819,-15.42,19.62,7.08
4.9306,-4.9987,-6.3062,-0.0045815,-0.10873,-0.19914,-15.42,19.56,7.14
6.2381,-10.324,-6.8647,-0.14325,-0.60964,-0.46792,-15.42,19.44,7.14
-0.39499,-4.127,-5.8976,-0.037874,-0.41936,-0.37629,-15.42,19.44,7.14
0.57205,-1.866,-6.851,-0.0076358,0.12004,-0.31062,-15.48,19.38,7.2
5.1894,-3.8682,-7.927,-0.078191,0.30604,-0.32376,-15.48,19.38,7.44
5.5707,-2.7241,-7.1098,-0.146,0.29596,-0.31918,-15.54,19.26,7.38
8.4446,-5.884,-7.641,-0.2642,-0.15913,-0.54031,-15.54,19.14,7.38
3.337,-2.7649,-7.0962,-0.26389,-0.1909,-0.52748,-15.66,18.96,7.38
4.1542,-3.3778,-7.069,-0.28008,0.049786,-0.47556,-15.84,18.78,7.5
4.8761,-4.7671,-6.3743,-0.21289,0.075442,-0.35705,-15.96,18.54,7.56
5.4618,-5.0668,-6.565,-0.15638,-0.11973,-0.41539,-16.2,18.48,7.62
4.7944,-3.6366,-7.641,-0.13928,-0.29413,-0.33781,-16.38,18.24,7.62
5.4073,-3.7456,-7.464,-0.10232,-0.27153,-0.29993,-16.68,17.7,7.8
5.8704,-4.5901,-7.7091,-0.11912,-0.28924,-0.34361,-16.74,17.46,8.04
6.8374,-6.7557,-8.3084,-0.23182,-0.44593,-0.44166,-16.98,17.22,8.28
0.095342,-0.25879,-5.5843,-0.10568,-0.1292,-0.18479,-17.28,16.74,8.28
3.5277,-1.7025,-7.7364,0.055894,0.33445,0.010079,-17.4,16.44,8.46
7.069,-3.7456,-10.719,-0.035736,0.11332,0.030543,-17.64,16.14,8.52
7.0962,-3.514,-11.196,-0.23702,-0.17165,0.013744,-17.94,15.66,8.88
3.9635,-1.9068,-8.6353,-0.18509,0.34483,0.19151,-18.0,15.48,9.06
3.8137,-2.4244,-8.2948,-0.059254,0.64874,0.33872,-18.18,15.12,9.18
6.7966,-4.6582,-10.106,-0.047342,0.10018,0.39859,-18.18,14.64,9.24
5.6797,-3.0373,-10.447,-0.083078,-0.41722,0.42486,-18.18,14.46,9.24
4.3449,-2.9965,-9.0031,-0.055894,-0.24435,0.52626,-18.0,14.34,9.42
5.4754,-0.74912,-8.1858,0.015882,0.44807,0.65424,-18.18,14.34,9.3
9.6977,-4.985,-8.1313,-0.057116,-0.06353,0.47159,-18.3,14.34,9.12
7.8181,-4.0044,-8.2539,-0.091324,-0.58796,0.43097,-18.12,14.28,9.0
2.2201,0.1362,-7.3822,-0.060476,-0.50763,0.55039,-17.76,14.4,9.24
5.6933,-5.1894,-7.4231,-0.071777,-0.39187,0.44899,-17.58,14.7,9.18
4.2632,-3.9363,-7.5865,-0.1347,-0.39309,0.40012,-17.58,14.88,9.06
5.2302,-3.6503,-6.6059,-0.15302,-0.33659,0.41692,-17.34,15.3,9.24
5.8023,-5.2711,-6.8783,-0.11362,-0.49694,0.27519,-17.16,15.42,9.42
5.0123,-4.9714,-7.0553,-0.092852,-0.61514,0.2419,-16.86,15.84,9.42
3.2416,-3.3234,-7.6683,0.025962,-0.5962,0.27306,-16.62,16.2,9.54
5.9249,-4.0316,-8.6353,0.055589,-0.51985,0.26176,-16.08,16.56,9.78
5.6116,-5.7342,-8.54,-0.019548,-0.686,0.12645,-15.96,16.86,10.02
2.3018,-2.9148,-7.1779,0.057727,-0.49572,0.20281,-15.66,17.1,10.26
4.9578,-5.2847,-7.1915,0.14386,-0.3317,0.14416,-14.82,17.4,10.74
5.2302,-4.9442,-7.9815,0.089186,-0.50335,0.0051924,-14.58,17.64,11.1
5.7614,-6.7285,-7.7636,0.04215,-0.71685,-0.063225,-14.4,17.76,11.34
1.6344,-2.6151,-4.9987,0.17898,-0.41722,-0.072998,-14.04,18.0,11.82
4.4675,-5.6661,-6.5786,0.29932,-0.28588,-0.1014,-13.62,18.0,12.06
4.6173,-5.0668,-7.8998,0.26695,-0.46548,-0.14447,-13.32,18.0,12.3
3.8001,-4.5083,-8.1586,0.18906,-0.31124,-0.16463,-12.78,18.3,12.42
3.3506,-5.8976,-7.5729,0.085521,-0.27733,-0.21136,-12.6,18.42,12.72
1.5119,-2.6696,-6.9464,0.084299,0.085827,-0.21747,-12.54,18.42,12.96
3.9635,-4.3449,-7.4231,0.035125,0.25962,-0.13439,-12.6,18.66,13.38
3.337,-5.1076,-7.6546,-0.051924,0.099571,-0.12217,-12.42,18.72,13.38
2.5334,-2.7377,-7.8589,-0.086437,0.18234,-0.10873,-12.42,18.84,13.62
3.6775,-3.7592,-8.1586,-0.03207,0.28314,-0.099266,-12.48,18.96,13.62
4.6445,-5.6933,-9.6023,-0.15547,0.016493,-0.19761,-12.66,18.9,13.5
3.4187,-5.2983,-9.2618,-0.24251,0.0058032,-0.20159,-12.66,18.96,13.38
2.5606,-3.1191,-7.2596,-0.15058,0.3317,-0.13714,-12.9,18.84,13.32
4.699,-4.0316,-7.7636,-0.135,0.43127,-0.12217,-13.08,18.96,13.38
5.4209,-4.0044,-8.1858,-0.16646,0.19609,-0.14539,-13.2,19.02,13.26
5.0259,-4.522,-8.3765,-0.23121,0.053145,-0.18173,-13.62,18.84,13.14
4.1951,-4.9578,-7.7772,-0.24496,0.027489,-0.1857,-13.8,18.72,13.02
3.9771,-3.4187,-7.8998,-0.19426,0.24771,-0.19914,-13.98,18.54,12.84
3.6775,0.16344,-6.9736,0.018937,0.73915,0.069028,-14.34,18.24,12.6
5.2438,1.4982,-6.3743,0.20006,0.82375,0.20495,-14.7,18.18,12.48
9.1937,-3.6094,-7.0553,0.26328,0.44776,0.11759,-14.94,18.06,12.3
3.6366,-6.5105,-7.7908,0.028711,-0.72357,-0.095906,-15.48,17.82,11.88
10.202,-16.603,-10.052,-0.31154,-1.3036,-0.57635,-15.54,17.7,11.76
-3.6503,-14.301,-4.7671,-0.41417,-1.7654,-0.52931,-15.84,17.52,11.7
4.3858,2.6423,-9.9565,0.16341,1.8995,-0.30055,-16.08,17.34,11.52
17.475,-13.906,-11.032,-0.14997,1.529,-0.24465,-16.32,17.16,11.22
8.7306,-5.2983,-8.6625,-0.21075,0.28894,-0.5006,-16.68,17.16,11.1
3.0373,-3.0646,-6.4697,-0.094379,-0.11362,-0.069028,-17.22,16.98,10.86
1.4165,1.0896,-7.6138,0.078802,0.46609,-0.2419,-17.58,16.8,10.68
8.8124,-5.5707,-10.651,-0.06689,0.19212,-0.35797,-17.94,16.86,10.44
6.4152,-6.2245,-6.9464,-0.15455,-0.14508,-0.52993,-18.66,16.56,10.08
3.732,-3.7592,-5.8023,-0.0054978,-0.068722,-0.5791,-18.9,16.26,9.9
4.7263,-7.7636,-6.1155,-0.063835,-0.2584,-0.74464,-19.26,16.08,9.84
0.61292,-2.9965,-6.0883,-0.014966,0.043982,-0.61606,-19.86,15.6,9.54
1.0488,-1.2258,-5.4481,0.12156,0.40225,-0.33659,-20.22,15.42,9.36
5.9657,-5.7886,-5.9385,0.12217,0.18357,-0.3598,-20.64,15.06,9.06
-1.3484,2.6832,-6.9055,0.135,-0.23671,-0.41661,-21.66,14.46,8.82
-3.2825,7.3005,-7.246,0.15058,0.30421,-0.19395,-22.14,14.28,8.76
2.9011,6.1564,-9.3163,-0.0042761,0.28191,0.088575,-22.5,13.86,8.58
13.797,-15.391,-15.05,-0.6243,-1.0821,-0.8262,-23.34,12.96,8.22
-5.3528,6.0747,-4.9578,-0.47709,1.8793,0.67531,-23.58,12.66,8.22
-0.10896,2.7786,-2.5198,-0.2532,1.959,0.6466,-23.82,12.24,8.22
10.379,-6.2245,-11.673,-0.13408,-0.42364,0.48045,-24.24,12.0,7.98
5.38,-6.1564,-12.095,-0.40806,-1.2532,0.70585,-24.78,11.46,7.98
-2.2065,2.2882,-5.6524,0.022907,0.39156,0.70402,-25.02,11.1,7.92
1.471,-1.3212,-8.9486,0.53512,1.3204,0.73273,-25.2,10.8,7.92
12.299,-8.8805,-11.032,0.42913,-0.27397,0.54398,-25.8,10.38,7.74
5.2847,-4.9306,-9.4934,0.34697,-1.1161,0.67348,-25.98,10.56,7.62
0.10896,2.0431,-5.7614,0.39187,-0.87354,0.65363,-25.92,10.44,7.5
7.5457,-15.8,-5.3256,0.16096,-1.3241,-0.048258,-25.8,10.44,7.26
-9.4253,8.1722,-6.1292,0.5006,0.058338,0.50121,-25.74,10.44,7.08
3.9635,1.7706,-7.7364,0.21075,0.32803,0.47525,-25.5,10.74,7.02
11.577,-11.686,-9.0167,0.037874,-0.93982,-0.03146,-25.32,10.74,6.72
1.1577,-2.656,-7.7227,-0.11301,-0.92057,0.25779,-25.14,10.8,6.66
-4.5628,4.6854,-7.2596,-0.12217,0.068722,0.36621,-24.72,10.68,6.72
8.4719,-8.7987,-8.3493,-0.26848,-0.048564,0.043677,-24.24,10.98,6.54
3.0646,-3.5822,-8.1586,-0.28253,-0.27336,0.1405,-23.82,11.04,6.42
2.6015,-2.0158,-6.279,-0.16829,-0.17929,0.24618,-23.52,11.1,6.48
9.9292,-11.373,-10.229,-0.30727,-0.7028,-0.054062,-22.74,11.22,6.66
5.203,-11.182,-10.338,-0.39462,-0.98869,-0.033903,-22.26,11.1,6.84
-1.2803,0.38137,-6.3743,-0.17837,-0.059559,0.15791,-21.96,10.92,6.96
5.6933,-7.355,-9.6841,-0.1463,-0.10354,0.12645,-21.12,10.8,7.2
3.2825,-2.2201,-8.8941,-0.16402,0.11179,0.28069,-20.76,10.68,7.44
4.7126,-2.7513,-9.0848,-0.14172,0.21991,0.30268,-20.34,10.56,7.5
4.1951,-1.4574,-7.1507,-0.002138,0.53542,0.53451,-19.56,10.5,7.98
6.9328,-5.5707,-7.2869,0.03207,0.25168,0.37141,-19.14,10.44,8.04
7.1234,-8.0496,-6.6331,0.056505,0.010385,0.41142,-18.84,10.62,8.04
-1.362,-1.1032,-7.9679,-0.01405,-0.44502,0.43433,-17.94,10.5,8.1
-1.3484,2.1929,-7.2188,0.078191,0.20647,0.63499,-17.64,10.56,8.22
1.7162,-0.34051,-6.7693,0.2419,0.759,0.76114,-17.22,10.62,8.34
11.741,-15.037,-11.441,-0.018021,-0.44196,0.041233,-16.38,10.74,8.52
3.9771,-8.3765,-9.5342,-0.29138,-0.20281,0.37568,-16.02,10.86,8.52
-3.5549,4.9578,-5.2575,-0.031765,0.47159,0.38607,-15.72,11.04,8.58
7.5321,-9.5479,-7.8317,0.089492,0.3488,0.32498,-15.0,11.34,8.52
3.2553,-5.3528,-10.637,-0.15485,-0.38515,0.051313,-14.64,11.52,8.46
1.5391,-0.51757,-7.6683,-0.17501,0.18754,0.20861,-14.22,11.7,8.58
10.12,-7.5729,-8.1586,-0.002138,0.33292,-0.17226,-13.56,12.0,8.4
5.6933,-11.019,-8.4582,-0.19456,-0.60353,-0.26114,-13.26,12.24,8.4
0.21793,-5.6388,-7.4776,-0.13073,-0.25901,-0.18509,-12.9,12.3,8.58
-1.1986,0.85808,-4.0861,0.25931,0.44563,0.089186,-12.42,12.54,8.94
5.5162,-2.8467,-6.5105,0.45998,0.86407,0.091324,-12.18,12.78,9.06
12.408,-14.56,-9.3299,0.058643,-0.6744,-0.28619,-12.0,12.9,8.94
-3.1054,3.0237,-8.2403,-0.029627,-0.23213,-0.39187,-11.34,13.26,9.0
0.040861,-1.3348,-6.8647,0.035736,0.39645,-0.030238,-11.16,13.26,9.06
2.1929,-0.24517,-4.7944,0.096211,0.7535,0.035125,-10.86,13.44,9.06
10.202,-10.692,-6.2517,-0.11209,0.23335,-0.51252,-10.74,13.5,9.06
2.0431,-6.3198,-6.851,-0.24954,-0.082161,-0.41111,-10.68,13.56,9.24
3.8273,3.1599,-8.4038,-0.35583,0.51496,-0.32803,-10.38,13.56,9.36
7.0553,-5.4618,-6.96,-0.29596,0.60445,-0.27397,-10.32,13.68,9.24
10.311,-5.9249,-10.093,-0.28741,0.63683,-0.21869,-10.02,13.68,9.48
9.1393,-8.5127,-9.2755,-0.49938,-0.053451,-0.24709,-10.08,13.62,9.66
2.8467,-4.9442,-7.4503,-0.36346,0.0018326,-0.16035,-10.08,13.62,9.66
2.2201,1.0079,-8.2812,0.0039706,0.71654,-0.0024435,-10.02,13.62,9.54
11.536,-10.569,-10.61,-0.14722,0.21777,-0.23824,-10.02,13.56,9.54
4.5492,-6.6331,-7.9134,-0.15852,-0.47983,-0.31185,-10.02,13.44,9.54
2.7922,-3.0918,-6.3471,0.07758,0.1912,-0.35064,-10.32,13.26,9.54
1.3348,-0.20431,-6.2926,0.16341,0.27733,-0.24343,-10.32,13.14,9.48
4.6582,-1.9341,-7.6002,0.19548,0.562,-0.16096,-10.44,13.26,9.42
5.1213,-6.9736,-6.8102,-0.2361,-0.54459,-0.43402,-10.68,13.14,9.6
-0.57205,-1.1305,-5.094,-0.014966,0.087659,-0.10812,-10.86,13.26,9.6
1.076,-1.9886,-5.5162,0.23854,0.18051,0.042761,-10.98,13.14,9.78
9.5479,-4.5356,-11.496,0.19884,-0.089797,-0.11148,-11.4,13.38,9.6
8.4174,-5.9657,-12.326,0.018937,-0.51526,-0.16768,-11.46,13.32,9.6
2.9284,-2.7649,-8.9077,-0.15791,-0.51832,-0.088881,-11.52,13.32,9.54
4.3449,-5.3256,-7.355,-0.040012,0.19639,-0.029322,-11.58,13.32,9.36
4.3449,-3.228,-6.0611,0.16829,0.17379,0.1854,-11.82,13.5,9.48
5.8976,-1.3893,-8.7306,0.26084,0.47495,0.29932,-11.94,13.56,9.54
11.25,-10.351,-10.501,-0.1292,-0.88026,0.085521,-12.12,13.68,9.48
0.83084,-1.2531,-5.7069,0.058032,-0.3708,0.22694,-12.48,13.92,9.78
10.215,-7.8589,-9.1937,0.22235,0.17654,0.20983,-12.54,13.92,9.84
8.6762,-9.8203,-9.4798,0.083689,-0.77641,0.14019,-12.54,13.86,9.78
3.2825,-4.5356,-8.7851,0.17776,-0.30604,0.20739,-12.66,14.1,9.66
6.1292,-6.9872,-7.7636,0.2813,0.0042761,0.33353,-12.78,14.4,9.72
5.5299,-8.5808,-8.5127,0.31246,-0.44074,0.20525,-12.84,14.52,9.84
2.8603,0.38137,-7.2596,0.3149,-0.1014,0.29505,-12.72,14.7,9.78
9.2482,-7.6955,-7.2869,0.25259,-0.15516,0.25504,-12.84,14.94,9.84
9.5887,-12.04,-9.0575,0.063835,-1.0318,0.033292,-12.96,15.0,9.78
-2.4244,4.6037,-6.5105,0.13195,-0.1628,0.33109,-12.84,15.24,9.78
7.8045,-7.1098,-6.851,0.04612,0.074831,0.17104,-12.84,15.3,9.6
5.3119,-0.16344,-8.322,-0.023824,-0.48747,0.093157,-12.72,15.3,9.78
2.6968,-2.0839,-5.6388,-0.052534,0.25779,0.41233,-12.6,15.42,9.6
4.7399,-4.018,-6.6195,0.028711,0.28833,0.37568,-12.6,15.6,9.66
7.2324,-8.8124,-9.9701,-0.12187,-0.28436,0.15027,-12.72,15.72,9.72
-1.8251,2.7377,-6.3062,-0.1069,0.24771,0.49663,-12.48,15.96,9.84
9.2482,-7.4776,-6.9872,0.10599,0.67104,0.40745,-12.66,16.02,9.78
9.112,-11.632,-9.9973,-0.097433,-0.54336,0.084605,-12.6,16.26,9.78
-2.9965,-0.16344,-5.8704,-0.13531,-0.27,0.29963,-12.54,16.26,9.96
0.6674,0.1362,-5.3392,0.25137,0.63805,0.47281,-12.48,16.38,9.96
5.8023,-5.0259,-8.0632,-0.0030543,0.069944,0.20922,-12.42,16.68,10.02
8.1313,-12.967,-11.264,-0.18754,-0.62247,0.35766,-12.54,16.62,9.96
3.4459,-2.1112,-7.8998,0.13897,0.30482,0.31276,-12.48,17.1,10.08
5.8295,-5.1349,-9.221,0.23854,0.23671,0.39187,-12.48,17.46,9.96
4.985,-6.3471,-10.12,-0.0281,0.031765,0.3317,-12.48,17.58,9.9
2.7649,-6.0474,-6.2517,-0.14264,-0.17593,0.31612,-12.36,18.06,9.78
2.3427,-4.2768,-6.2109,0.028405,-0.048869,0.17165,-12.3,18.12,9.72
3.2961,-6.4424,-7.2869,0.03879,0.11179,0.055894,-12.18,18.18,9.54
4.7944,-5.0123,-7.6955,0.11912,0.42547,0.028405,-11.94,18.6,9.24
5.0804,-5.2166,-8.7034,-0.056505,0.096211,-0.054672,-12.06,18.66,9.12
2.4108,-4.5628,-6.2654,-0.17715,0.047037,-0.094684,-12.06,18.84,9.06
1.2395,-2.6015,-5.884,-0.093768,0.3937,-0.064446,-12.24,19.14,8.52
4.2768,-5.598,-9.2618,-0.27581,0.15608,-0.065973,-12.24,19.2,8.46
4.3177,-7.6274,-9.4798,-0.45296,-0.30879,-0.11851,-12.12,19.38,8.46
0.47671,1.5936,-7.1779,-0.33201,0.64019,0.027794,-12.24,19.26,8.16
8.4582,-8.1177,-8.3629,-0.38423,0.53481,-0.092546,-12.24,19.26,8.04
1.7979,-0.76274,-9.3027,-0.56749,0.0082467,-0.13134,-12.42,19.14,7.98
8.3765,-6.456,-7.641,-0.67104,0.43066,-0.06017,-12.48,19.02,8.16
6.565,-10.992,-8.4038,-0.66248,-0.21747,-0.26817,-12.42,19.02,8.22
-0.054481,-1.4574,-8.9894,-0.62186,0.63683,-0.028405,-12.6,19.08,8.4
9.4934,-4.7535,-7.7908,-0.6579,1.1054,-0.014661,-12.9,18.66,8.28
9.3708,-6.2381,-7.8589,-0.5733,0.46731,-0.20556,-12.84,18.48,8.34
7.1507,-6.4697,-7.5729,-0.6182,-0.094073,-0.27214,-13.02,18.36,8.46
0.96704,-2.5606,-6.2926,-0.35094,0.26664,-0.1124,-13.08,18.0,8.94
4.6309,-2.4517,-8.2267,-0.28375,0.54856,-0.22816,-13.14,17.82,9.0
8.3765,-6.96,-8.5263,-0.3207,0.023824,-0.28375,-13.32,17.64,9.06
3.8682,-2.1248,-7.5729,-0.21472,0.069028,-0.28497,-13.56,17.34,9.36
5.094,-2.4925,-8.2812,-0.18509,0.12706,-0.30116,-13.56,17.04,9.48
7.1643,-9.4798,-7.1234,-0.32895,-0.14111,-0.50366,-13.74,16.62,9.54
-1.076,1.4846,-6.4016,-0.095295,0.072082,-0.36835,-13.8,16.44,9.54
5.1757,-1.5936,-8.5536,-0.13836,0.43249,-0.38668,-13.8,16.26,9.48
7.1507,-3.6775,-9.1256,-0.22022,0.080023,-0.26053,-13.98,16.02,9.54
6.8238,-4.2087,-9.0439,-0.31429,-0.11026,-0.33109,-14.28,15.78,9.84
3.514,-2.9829,-7.5321,-0.24496,-0.019853,-0.20097,-14.4,15.3,10.2
3.514,-2.9829,-7.5321,-0.24496,-0.019853,-0.20097,-14.4,15.3,10.2
4.8488,-3.7456,-8.8396,-0.080023,0.082772,-0.0015272,-14.58,14.82,10.2
6.7285,-5.2575,-10.079,-0.12431,-0.15272,-0.066279,-14.58,14.52,10.32
1.8796,-0.28603,-8.6762,0.030238,-0.013134,0.14172,-14.64,14.46,10.38
4.522,-0.99429,-8.54,0.16432,0.27367,0.28222,-14.88,14.04,10.5
7.5048,-3.4459,-9.6023,0.12339,-0.021075,0.23518,-14.94,13.92,10.62
5.5707,-3.5822,-8.5263,0.050396,-0.3769,0.20464,-15.0,13.74,10.86
4.0861,-2.9148,-7.7364,0.065057,-0.41478,0.15944,-14.94,13.56,10.92
2.2201,-1.8932,-6.3743,0.20036,-0.14355,0.25076,-14.94,13.44,11.04
8.6217,-6.0611,-9.4389,0.19456,-0.28253,0.12584,-14.7,13.02,11.16
2.8739,-1.6889,-7.5457,0.21197,-0.62339,0.3598,-14.46,13.2,11.22
6.7966,-2.7786,-8.0769,0.21411,-0.11942,0.20372,-14.4,13.14,11.28
2.5198,-3.1191,-7.4776,0.074831,-0.99479,0.33659,-13.98,13.38,11.22
4.5764,-0.40861,-8.6353,0.24771,0.058643,0.219,-13.8,13.5,11.34
10.079,-8.4719,-9.4389,0.088881,-0.80329,0.17318,-13.74,13.74,11.52
2.9011,-6.0747,-7.7908,0.15852,-0.84422,0.2135,-13.32,13.86,11.64
1.58,-3.0782,-8.9622,0.17257,-0.44227,0.18631,-13.08,14.04,11.94
1.6072,-1.6617,-7.464,0.28344,-0.048564,0.15638,-12.42,14.4,12.24
4.3177,-2.1929,-7.464,0.11545,-0.7422,0.039095,-12.42,14.4,12.24
4.3177,-2.1929,-7.464,0.18112,-0.64721,0.062003,-12.42,14.4,12.24
1.471,-4.0861,-5.489,0.25901,-0.50671,0.010996,-12.06,14.52,12.36
2.7922,-2.5061,-6.565,0.32315,-0.14355,0.063225,-11.64,14.7,12.54
2.7922,-2.5061,-6.565,0.1744,-0.29169,0.0073304,-11.64,14.7,12.54
4.3585,-7.8045,-6.8102,0.080634,-0.61911,-0.10904,-10.98,15.3,12.96
2.6151,-3.4459,-6.8374,0.20311,-0.17715,-0.047342,-10.14,15.9,13.38
6.17,-13.321,-8.3357,0.043982,-0.36591,-0.17623,-9.66,16.14,13.68
-5.0259,2.261,-7.0553,0.061087,-0.20433,-0.094073,-9.24,16.56,14.16
5.6116,-3.6775,-9.3572,0.12248,0.88575,-0.092241,-8.7,16.8,14.22
8.4719,-7.5457,-10.134,-0.08094,0.4667,-0.10201,-8.58,16.74,14.1
3.8273,-2.942,-10.215,-0.26114,0.23824,-0.17043,-8.46,16.74,14.04
3.4596,-3.0918,-6.4833,-0.14111,0.47281,0.04215,-8.34,17.04,14.1
3.9635,-0.46309,-7.0145,0.15485,0.82742,0.21533,-8.46,16.98,13.86
6.6331,-4.2904,-10.052,0.026878,-0.022297,0.16585,-8.64,16.98,13.5
5.6116,-4.127,-9.1529,-0.080634,-0.17135,0.14966,-8.76,16.92,13.32
1.2258,-3.5822,-6.5786,-0.0048869,0.094073,0.19151,-8.76,16.86,12.9
2.3699,-3.0918,-6.7966,0.017104,0.33414,0.16982,-8.76,16.92,12.9
5.1213,-7.8317,-8.2403,-0.16005,0.17135,-0.027489,-8.88,16.92,12.78
0.7355,-1.8115,-6.4833,-0.058948,0.48686,-0.028405,-9.12,16.92,12.72
3.7456,-4.3858,-7.3141,-0.017104,0.52107,-0.01741,-9.24,17.1,12.78
4.7399,-4.7671,-8.3765,-0.0027489,0.416,0.012828,-9.3,17.16,12.78
4.699,-4.7535,-9.5615,-0.24862,0.03207,-0.11851,-9.36,17.16,12.36
3.5413,-2.5061,-8.3765,-0.22571,0.54764,-0.12889,-9.48,17.16,12.12
3.8409,-3.8001,-8.3084,-0.21594,0.53481,-0.068417,-9.6,17.22,12.06
7.9815,-6.8102,-8.2539,-0.21472,0.405,-0.14661,-10.02,17.16,11.94
3.514,-4.304,-7.0009,-0.14997,0.10843,-0.074831,-10.14,16.98,12.0
3.7047,-4.3858,-7.0417,-0.12828,0.23579,-0.23885,-10.44,16.92,11.94
0.70826,-0.38137,-5.6661,0.071777,0.38271,-0.03543,-10.92,16.8,11.88
6.279,-2.8467,-7.1643,0.15027,0.74067,-0.089492,-11.1,16.68,11.64
8.2676,-6.8647,-6.8647,0.032987,-0.14294,-0.26053,-11.4,16.68,11.58
2.8603,-5.094,-7.0826,-0.098655,-0.35827,-0.55375,-11.76,16.32,11.16
2.1248,-3.3642,-5.5571,-0.087965,0.036346,-0.50977,-12.06,16.2,11.1
2.3427,-2.0294,-5.6524,-0.037568,0.36713,-0.48136,-12.18,15.96,10.98
9.6432,-8.7579,-7.2869,-0.36133,-0.46945,-0.98869,-12.42,15.96,10.86
-1.0488,1.5255,-7.75,-0.35186,0.050091,-0.67592,-12.9,15.36,11.16
2.6696,0.95342,-8.1722,-0.30299,0.88117,-0.4215,-13.2,15.06,11.1
10.215,-5.1894,-9.2891,-0.38423,0.75167,-0.35613,-13.38,14.88,10.92
7.5457,-1.4982,-10.243,-0.45693,0.49144,-0.16249,-13.98,14.4,10.86
6.9872,-4.1814,-8.4446,-0.28008,0.49144,-0.025656,-14.16,14.16,10.8
5.1894,-3.6366,-7.6683,-0.063225,0.30818,-0.07422,-14.4,13.98,10.74
5.5571,-3.9227,-9.1937,-0.10934,-0.071166,-0.16982,-14.64,13.8,10.44
2.4789,-3.4732,-7.4776,-0.10904,-0.12614,-0.17929,-15.18,13.14,10.44
0.42223,-1.2395,-6.279,0.1237,0.60292,0.075442,-15.48,13.02,10.56
7.2869,-2.8603,-7.8181,0.17043,0.77916,0.1628,-15.9,12.66,10.38
7.4912,-3.8954,-8.4446,-0.073609,-0.19364,-0.19792,-16.26,12.54,10.26
2.2201,0.99429,-6.8919,0.071777,-0.000611,0.14203,-16.44,12.36,10.32
8.322,-4.1814,-8.9486,0.025351,-0.025962,0.0562,-16.8,12.12,10.08
5.0804,-3.2553,-8.322,-0.0058032,-0.20953,0.22388,-16.92,12.0,10.02
6.2381,-2.9692,-9.221,-0.083078,-0.05284,0.17074,-17.04,11.94,10.08
3.3642,-2.5742,-7.5729,-0.0048869,-0.31826,0.28497,-17.16,12.06,9.9
5.5707,-3.9908,-7.8045,0.021991,-0.20097,0.073609,-17.22,12.18,9.9
3.7184,-3.8954,-7.6002,0.197,-0.22449,0.23152,-17.28,12.12,9.9
9.9429,-4.8216,-11.441,0.3485,-0.14447,0.15944,-17.34,12.18,9.96
7.5457,-6.4833,-9.3572,0.22113,-0.96333,0.29444,-17.22,12.18,9.84
1.7162,0.24517,-5.9385,0.44899,-0.094379,0.27153,-17.22,12.3,9.72
7.5048,-7.5729,-7.7636,0.39462,-0.62858,0.11698,-17.16,12.42,9.84
-0.50395,2.0158,-5.489,0.54245,-0.21716,0.37293,-16.98,12.48,9.78
3.3234,0.10896,-7.3141,0.51618,0.058032,0.40806,-16.8,12.54,9.6
4.7399,-13.116,-6.6195,0.025656,-1.6295,-0.094684,-16.56,12.9,9.72
-9.8884,6.9872,-3.9908,0.36255,-0.13653,0.30329,-16.26,13.2,9.96
0.50395,2.8194,-5.5707,0.4835,1.1411,0.44135,-16.02,13.44,10.08
7.1643,-10.569,-10.12,0.13073,-0.6408,-0.024129,-15.6,13.8,10.26
-3.5549,3.1054,-7.0962,0.046731,-0.33109,0.26756,-15.54,13.92,10.32
5.4618,-5.3937,-5.8295,0.1744,0.33689,0.20861,-15.18,14.34,10.5
5.8023,-9.4661,-8.1586,0.094073,-0.37843,0.13347,-14.82,14.46,10.44
-0.99429,0.85808,-10.529,-0.10171,0.1576,0.31582,-14.58,14.58,10.5
10.12,-7.8998,-7.0009,-0.17013,0.42394,0.31918,-14.16,15.0,10.68
4.3858,-10.678,-7.246,0.01741,-0.15669,0.31704,-13.98,15.18,10.62
1.7434,0.47671,-8.9077,0.083078,0.41569,0.43127,-13.74,15.72,10.86
6.9464,-7.2324,-8.0088,0.058643,0.37965,0.57024,-13.68,15.84,10.98
2.833,-1.8932,-10.174,0.096517,0.048564,0.52137,-13.56,16.02,10.98
6.96,-5.4481,-11.536,-0.16585,-0.43982,0.42516,-13.38,16.26,10.92
-4.2359,2.6696,-3.3642,0.31001,0.34453,0.68875,-13.32,16.62,10.44
4.1542,-2.4108,-7.3686,0.16646,0.24404,0.3653,-13.2,16.68,10.38
3.7592,-9.8611,-8.5808,-0.1237,-0.52565,0.25931,-13.08,17.22,10.38
-2.1929,0.34051,-5.5162,-0.22602,-0.57391,0.3204,-13.14,17.34,10.2
1.5119,-2.5742,-4.127,0.083078,0.65149,0.26878,-13.08,17.64,10.26
4.5764,-5.9249,-9.4798,-0.088575,-0.0097738,0.11545,-12.96,17.82,10.14
5.2575,-6.9191,-9.7113,-0.32651,-0.10721,0.11851,-13.08,18.06,10.2
2.6151,-4.9306,-7.1234,-0.22633,0.036346,0.13531,-12.84,18.24,10.26
7.75,-4.5764,-9.8748,-0.1857,0.83566,0.097128,-12.78,18.42,10.14
5.8295,-5.2575,-7.8045,-0.15455,0.3656,0.30085,-12.72,18.66,10.02
2.152,1.4165,-5.6388,-0.0094684,0.62308,0.36805,-12.66,18.84,9.9
8.9622,-3.9227,-9.4389,-0.26786,-0.25717,-0.06353,-12.78,18.96,9.84
-0.027241,-6.8647,-6.4424,-0.3934,-0.82253,0.01405,-12.96,18.84,9.9
-2.833,-3.7184,-5.489,-0.34025,-0.078802,-0.13592,-12.96,18.78,9.96
2.8603,-4.0452,-7.0009,-0.037263,0.71838,0.16463,-12.96,18.78,9.96
7.4231,-10.392,-8.9894,-0.31032,-0.47403,-0.27764,-13.08,18.66,10.08
-0.14982,-1.0896,-8.826,-0.14478,0.52107,0.073915,-13.14,18.6,9.96
11.169,-3.4459,-8.9486,-0.23518,1.1509,0.096822,-13.44,18.66,10.08
11.659,-7.7636,-8.5672,-0.39095,-0.043982,-0.24465,-13.5,18.6,10.02
6.1564,-6.1973,-8.1858,-0.55925,-0.43249,-0.28863,-13.68,18.42,10.08
3.2144,0.72188,-6.1155,-0.30849,1.0687,0.17532,-13.98,18.12,10.08
14.519,-12.612,-7.355,-0.56627,-0.061392,-0.44166,-14.16,18.06,10.2
2.9965,-14.056,-8.6217,-0.61789,-0.68539,-0.41172,-14.28,17.88,10.32
-3.7728,4.1133,-6.2517,-0.50977,1.0443,-0.023213,-14.28,17.76,10.5
9.9429,-12.054,-7.2188,-0.50457,-0.064141,-0.40164,-14.52,17.4,10.56
-0.01362,-2.1248,-8.3765,-0.32193,-0.040928,-0.18509,-14.64,17.22,10.56
2.547,-1.5255,-7.6138,-0.25626,0.50824,-0.10293,-14.82,17.16,10.5
7.1234,-0.85808,-9.3163,-0.045204,0.58551,-0.01741,-15.0,16.8,10.44
11.496,-5.3528,-10.624,-0.36102,-0.135,-0.29474,-15.0,16.62,10.44
11.577,-11.455,-8.5944,-0.5287,-0.82039,-0.46762,-15.12,16.26,10.32
-2.3836,2.5334,-5.3528,-0.1741,0.3937,-0.077885,-15.24,15.78,10.26
8.9213,-7.3686,-7.2324,-0.18815,0.88484,-0.11026,-15.42,15.54,10.32
8.6353,-10.174,-8.6353,-0.18418,-0.50488,-0.10232,-15.36,15.36,10.26
2.8739,2.9965,-7.6819,-0.086437,-0.023518,0.13103,-15.54,15.24,10.26
12.844,-4.985,-10.093,-0.12645,0.10446,-0.079107,-15.66,15.0,10.26
12.79,-7.6819,-10.025,-0.22999,-0.68814,-0.11454,-15.78,14.64,10.02
1.9613,0.88532,-6.7421,-0.12462,0.16463,0.11454,-16.08,14.52,10.26
10.978,-9.1665,-7.1098,-0.16096,0.026878,-0.16402,-16.2,14.46,10.26
3.7047,-4.4811,-6.7966,0.0051924,-0.60689,-0.11454,-16.26,14.34,10.38
7.3822,-2.3427,-7.4912,0.11179,0.46395,0.10171,-16.2,14.1,10.56
13.321,-11.25,-9.4798,-0.15241,-1.0263,-0.27367,-16.38,14.04,10.56
0.89894,-0.40861,-7.7636,-0.023518,-0.92149,0.052229,-16.38,14.16,10.8
3.1054,-0.43585,-7.7364,0.061392,0.23427,0.1967,-16.38,14.16,10.86
8.6353,-7.0281,-8.2812,0.19792,-0.10934,0.24099,-16.26,14.1,10.86
4.699,-2.152,-8.8124,0.35919,-0.46762,0.29383,-16.08,14.04,11.1
5.993,-4.0044,-9.2755,0.39095,-0.3146,0.28405,-15.96,13.86,11.04
2.9556,-3.5958,-7.5048,0.32895,-0.55558,0.24709,-15.72,13.86,11.34
6.5105,-6.8238,-9.0575,0.16982,-0.5284,-0.014355,-15.6,13.98,11.7
3.9363,-6.6331,-5.9793,0.38576,-0.53329,0.30268,-15.24,14.04,11.88
4.9306,-3.3642,-7.246,0.47281,0.081551,0.076664,-14.88,14.22,11.88
8.6489,-9.6704,-7.1507,0.4722,-0.65057,0.31918,-14.76,14.28,11.94
5.094,-2.8058,-9.4934,0.3656,-0.21472,0.03207,-14.28,14.64,12.12
4.9306,-2.4517,-8.7851,0.2642,-0.46212,0.044288,-14.1,14.7,12.3
4.0589,-1.5936,-8.322,0.26756,-0.16463,0.43341,-13.92,14.82,12.24
8.8941,-5.993,-9.6568,-0.03207,-0.6747,-0.0058032,-13.68,15.06,12.3
-0.14982,-0.99429,-6.9872,0.084605,-0.43249,0.27581,-13.26,15.48,12.54
2.2337,-2.261,-7.2052,0.13989,0.070555,0.15669,-13.2,15.78,12.6
3.3915,-2.5061,-8.2812,0.18112,0.23213,0.18937,-13.02,16.08,12.72
1.4846,-3.0918,-7.8181,0.016799,-0.45815,0.14416,-12.6,16.5,12.9
3.6775,-3.4732,-7.1507,0.086132,-0.14966,0.31704,-12.48,16.8,12.84
4.1814,-7.0553,-7.7091,0.018021,-0.36713,0.26176,-12.48,16.92,12.9
1.471,-0.89894,-7.4503,0.13592,0.070555,0.25076,-12.24,17.34,12.96
8.145,-7.0962,-7.9134,0.018326,0.12034,0.092852,-12.06,17.58,12.9
7.6002,-11.959,-8.0224,-0.24221,-0.79168,-0.17257,-11.94,17.7,13.02
-4.127,3.7865,-7.4095,-0.087354,-0.26389,0.012523,-11.52,17.82,13.2
8.3765,-11.046,-8.826,-0.17623,0.49755,-0.087659,-11.34,17.88,13.38
3.9227,-5.6116,-8.7987,-0.1295,0.489,0.084605,-11.28,17.82,13.44
9.0575,-3.4187,-9.7249,-0.16371,0.95051,0.12767,-11.22,17.94,13.62
8.7851,-4.413,-8.7579,-0.16952,0.42302,0.20464,-11.16,17.94,13.62
7.3005,-6.565,-9.4798,-0.25504,-0.61056,-0.10293,-11.16,17.94,13.56
-0.28603,-1.9613,-5.7478,-0.208,-0.48289,0.000305,-11.34,18.0,13.62
2.7513,-2.2882,-7.8726,0.065363,0.29016,0.0562,-11.28,18.06,13.62
7.3005,-10.379,-9.507,-0.17593,-0.26786,-0.14203,-11.16,18.12,13.62
3.2008,-7.3686,-8.2403,-0.10232,-0.0073304,-0.023518,-11.04,18.0,13.62
0.38137,0.6674,-6.5514,-0.15669,0.41997,-0.12706,-11.1,18.0,13.62
4.0589,-2.8603,-6.7421,-0.13836,0.38668,0.06017,-10.92,17.82,13.5
7.5457,-5.5162,-8.2812,-0.17898,0.46456,-0.051007,-11.16,17.88,13.5
4.7944,-9.112,-6.6331,-0.30635,-0.30788,-0.2248,-11.34,17.82,13.5
-0.31327,-2.8603,-6.4288,-0.19639,0.25137,-0.24404,-11.52,17.82,13.5
3.8954,1.4029,-8.1586,-0.12737,1.007,0.026573,-11.58,17.82,13.56
8.7715,-3.514,-9.3844,-0.19731,0.96944,0.047037,-11.7,17.82,13.44
11.155,-6.6876,-8.1586,-0.45112,0.15852,-0.2303,-11.94,17.64,13.44
-1.185,0.70826,-4.7944,-0.16249,0.44929,0.045509,-12.0,17.34,13.44
2.6968,-0.17706,-5.8023,0.11301,0.92882,0.17471,-12.06,17.28,13.32
6.8102,-3.6094,-8.5127,0.11942,0.65363,0.1405,-12.12,17.1,13.2
9.1256,-7.8317,-9.7385,-0.28466,-0.53054,-0.27825,-12.3,16.98,13.14
2.3155,-2.3563,-5.8704,-0.25809,0.1909,-0.20861,-12.54,16.68,13.08
5.6524,-7.4231,-6.7012,-0.27397,0.40378,-0.35888,-12.84,16.56,13.08
1.5936,-0.88532,-6.674,-0.16127,0.4444,-0.2193,-13.14,16.56,12.9
9.3572,-5.6116,-8.7034,-0.067195,1.0443,-0.11332,-13.38,16.2,12.72
7.4776,-5.6797,-8.1313,-0.14783,0.0045815,-0.17104,-13.68,16.02,12.6
5.6797,-3.8273,-8.717,-0.1463,0.16616,-0.29169,-13.92,15.84,12.42
4.4947,-2.4653,-6.96,-0.024435,0.45021,-0.036652,-14.34,15.48,12.3
6.5922,-3.3915,-7.7636,0.075442,0.22083,-0.12981,-14.46,15.3,12.12
6.674,-2.3836,-7.8453,-0.01405,0.15608,-0.15455,-14.82,15.24,11.76
6.6467,-8.0496,-6.0883,-0.08094,-0.027794,-0.281,-15.12,15.18,11.52
0.54481,-1.4574,-5.2438,-0.000916,-0.078496,-0.34789,-15.24,15.06,11.46
2.8875,-1.471,-6.2245,0.11637,0.30879,-0.34636,-15.42,15.0,11.34
5.7069,-4.8625,-7.2596,0.057421,-0.10201,-0.36866,-15.9,14.82,10.92
3.6094,-1.6617,-7.2188,0.062919,0.1127,-0.34514,-15.9,14.7,10.68
5.5571,-1.757,-7.464,0.034514,0.02474,-0.36408,-16.44,14.34,10.44
4.5356,-3.1872,-6.8919,0.039095,-0.11026,-0.39431,-16.62,14.34,10.14
6.2926,-4.5356,-8.5536,-0.021075,-0.16799,-0.46578,-16.56,14.22,9.96
5.4754,-4.6309,-7.8998,-0.048564,-0.19456,-0.37538,-16.68,14.22,10.02
4.522,-0.62654,-7.3141,0.19914,0.73579,0.080329,-16.68,14.28,9.9
11.659,-5.4073,-10.338,0.0058032,-0.14172,-0.16585,-16.92,14.04,9.78
2.152,-0.10896,-6.6331,0.11454,-0.0281,0.19059,-17.16,13.68,9.6
6.2517,-3.1191,-7.6819,0.22144,0.19914,0.091019,-17.28,13.5,9.6
7.2188,-3.8682,-8.4991,0.23182,-0.048564,0.15516,-17.16,13.2,9.54
7.7227,-5.4073,-8.9349,0.17318,-0.59987,0.072082,-17.4,13.08,9.48
1.8115,-3.8001,-6.5105,0.27122,-0.50793,0.1628,-17.34,12.96,9.36
1.6344,-0.42223,-6.9464,0.4777,0.21136,0.32926,-17.34,12.96,9.48
8.1177,-4.6445,-8.8941,0.43127,0.058032,0.24312,-17.28,13.08,9.48
6.96,-3.8001,-7.8589,0.3146,-0.30482,0.27794,-16.98,13.2,9.6
6.7012,-5.7614,-8.036,0.1689,-0.48686,0.18234,-16.92,13.2,9.54
1.3484,-1.7025,-6.0066,0.31124,0.14203,0.41081,-16.86,13.56,9.36
6.0202,-3.9635,-7.7364,0.2642,0.047953,0.37446,-16.62,13.68,9.24
7.1915,-4.8761,-8.2267,0.18418,-0.48625,0.32895,-16.14,13.86,9.24
4.2904,-3.4732,-7.8862,0.073304,-0.61972,0.22174,-15.84,14.34,9.3
4.1542,-5.7342,-7.8317,0.026878,-0.37415,0.27092,-15.72,14.64,9.24
3.0237,-4.8216,-7.2869,0.036346,-0.3204,0.27917,-15.54,14.88,9.18
6.3198,-2.0294,-8.6217,0.11026,0.18601,0.50793,-15.18,15.3,9.06
9.4934,-7.2596,-9.1256,-0.072388,-0.50946,0.24282,-15.06,15.66,9.0
4.9578,-5.9657,-7.5729,-0.17226,-0.66126,0.22388,-14.82,15.84,8.88
2.4517,-5.6797,-6.2517,-0.11057,-0.22113,0.13653,-14.4,16.14,8.88
2.0975,-1.5527,-8.1177,-0.0051924,0.12462,0.31337,-14.22,16.38,8.82
5.4073,-3.5277,-9.0303,-0.20097,-0.10171,0.23518,-13.98,16.56,9.06
2.6968,-6.5378,-6.7966,-0.29963,-0.42241,0.15669,-13.86,16.74,9.12
2.2474,-1.3212,-6.1155,-0.069639,0.094073,0.28314,-13.56,16.98,9.3
7.1098,-5.8567,-8.322,-0.072082,0.011606,0.19059,-13.56,17.1,9.36
2.8875,-1.5527,-8.2403,-0.13164,-0.13134,0.24618,-13.08,17.28,9.72
6.0202,-4.1542,-8.4038,-0.18204,0.067195,0.15638,-12.84,17.52,9.78
6.4152,-6.1155,-7.0281,-0.12798,-0.051313,0.19914,-12.6,17.64,9.84
5.094,-5.2847,-8.54,-0.20525,-0.054978,0.020159,-12.24,17.76,9.96
2.9148,-3.8818,-7.6002,-0.23182,-0.08827,0.10843,-11.94,17.82,10.02
3.3778,-2.0431,-6.6467,-0.1347,0.19395,0.049175,-11.76,17.88,10.2
4.6854,-5.5162,-7.8862,-0.24251,-0.034208,-0.026267,-11.76,17.88,10.38
3.3778,-3.5958,-7.1371,-0.1628,0.16585,0.0094684,-11.64,17.82,10.5
4.1406,-3.623,-8.0905,-0.20586,0.10782,0.024129,-11.7,17.88,10.44
3.5958,-4.3177,-8.2539,-0.31185,-0.068722,-0.025962,-11.7,17.88,10.56
3.7456,-2.0431,-7.7091,-0.32681,0.33048,0.015882,-11.58,17.94,10.68
6.674,-7.4231,-8.0632,-0.39156,0.16066,-0.099571,-11.64,17.88,10.68
1.0624,-0.068102,-7.0962,-0.33659,0.15058,0.033903,-11.58,17.88,10.5
3.7456,0.21793,-7.464,-0.1912,0.63102,0.16829,-11.64,17.88,10.5
7.7091,-3.7456,-8.431,-0.25351,0.22083,0.061392,-11.94,17.94,10.5
4.2495,-2.6151,-8.1041,-0.32987,-0.069639,-0.024435,-12.12,17.94,10.8
2.6696,-0.54481,-6.4016,-0.2306,0.32101,0.19151,-12.3,17.82,10.8
5.0531,-2.438,-6.4424,-0.12187,0.37874,0.1576,-12.42,17.76,10.86
3.6775,-4.5764,-7.3414,-0.29169,-0.10171,-0.11362,-12.6,17.82,10.86
2.1384,-2.0294,-6.1973,-0.21044,0.51862,-0.13286,-12.66,17.88,10.86
6.4833,-5.5162,-6.5786,-0.16218,0.4496,-0.20556,-12.78,17.76,10.74
4.9033,-5.6933,-7.0145,-0.16402,0.22205,-0.3543,-12.9,17.7,10.68
2.1112,-1.185,-6.3743,-0.016799,0.37477,-0.16554,-13.2,17.46,10.5
6.9328,-4.2768,-8.0905,0.009163,0.36133,-0.13592,-13.2,17.4,10.5
3.1599,-2.4789,-8.431,-0.14416,-0.16249,-0.27855,-13.68,17.22,10.44
3.8546,-1.4438,-7.355,-0.053451,0.58002,-0.014355,-13.8,17.04,10.38
7.4095,-5.4618,-7.927,-0.080329,0.4777,-0.087659,-13.92,16.74,10.38
3.228,-3.5822,-6.8647,-0.082467,-0.0067195,-0.14844,-14.04,16.62,10.38
6.2109,-4.127,-8.0905,-0.0012217,0.14539,-0.13958,-14.4,16.44,10.14
7.1098,-8.6489,-7.5048,-0.11148,-0.38057,-0.40409,-14.7,16.2,9.9
1.5255,-1.4438,-5.775,0.081856,-0.063835,-0.34392,-14.88,16.14,9.84
6.456,-3.8546,-7.0553,0.19853,0.1066,-0.28986,-15.12,15.78,9.66
7.1915,-5.0531,-7.7636,0.098655,-0.23243,-0.42425,-15.18,15.42,9.72
6.7829,-4.3721,-7.641,0.058643,-0.28405,-0.49083,-15.36,15.3,9.66
4.8897,-3.4732,-6.7693,0.012523,-0.21594,-0.49938,-15.66,15.06,9.72
2.8194,-1.866,-6.7148,0.002138,-0.14875,-0.45265,-15.9,14.94,9.66
4.4811,-2.4789,-7.8317,-0.081245,0.075136,-0.40378,-16.02,14.82,9.72
5.6388,-3.3097,-8.4991,-0.26267,0.047037,-0.27642,-16.38,14.34,9.78
5.9249,-3.1327,-8.4991,-0.27978,0.052534,-0.18906,-16.56,14.22,9.78
5.4481,-2.7786,-8.3901,-0.13408,0.095295,-0.0048869,-16.74,14.22,9.54
6.0202,-1.6344,-9.4389,-0.027794,0.11576,0.088881,-17.16,13.98,9.66
8.322,-4.985,-10.174,-0.026878,-0.10934,0.16402,-17.1,13.92,9.66
6.1155,-4.5083,-9.0439,-0.025045,-0.36133,0.12553,-17.1,13.62,9.66
3.9499,-2.261,-6.96,0.12126,-0.096822,0.14325,-17.28,13.2,9.72
5.3528,-3.0101,-7.3141,0.28466,-0.0048869,0.071777,-17.4,13.08,9.78
5.3119,-2.7104,-7.0009,0.30207,-0.029322,0.10446,-17.52,12.96,9.78
8.4174,-6.6195,-7.6002,0.24618,-0.30268,0.01741,-17.64,12.9,9.72
5.5435,-6.0066,-6.5378,0.20708,-0.56902,-0.042455,-17.76,12.84,9.66
1.9886,-3.6775,-5.9385,0.31734,-0.16554,0.079718,-17.7,12.78,9.66
7.1234,-3.0918,-8.7715,0.32223,0.23702,0.11668,-17.76,13.02,9.42
7.5729,-2.7649,-9.4525,0.20189,-0.17898,0.18357,-17.58,13.08,9.42
6.7012,-2.8739,-9.0712,0.16585,-0.25168,0.22907,-17.52,13.08,9.48
6.3607,-4.7944,-8.6489,0.042455,-0.48778,0.13653,-17.34,13.14,9.48
1.2803,-2.5061,-7.8181,0.1292,-0.20586,0.21869,-17.22,13.32,9.54
2.6423,0.31327,-8.1586,0.17074,0.21014,0.38637,-17.34,13.62,9.54
5.5843,-4.1814,-8.1858,-0.01405,-0.20769,0.23915,-17.52,14.22,9.36
2.7104,-1.9613,-7.1915,-0.0039706,-0.11729,0.44288,-17.52,14.46,9.3
4.7399,-2.0158,-7.9679,-0.03543,-0.061697,0.37324,-17.4,14.64,9.18
4.9987,-5.775,-6.4152,0.019548,-0.16218,0.40103,-17.34,14.7,9.36
5.7342,-5.5435,-7.5321,-0.059865,-0.2529,0.23915,-17.1,14.94,9.36
2.5606,-2.2201,-6.7285,-0.029016,-0.18754,0.33262,-17.1,15.12,9.3
4.699,-3.7456,-6.6331,0.012828,-0.0085521,0.31765,-16.98,15.24,9.36
2.152,-1.9341,-7.0281,-0.025962,-0.083689,0.29627,-16.68,15.48,9.48
4.0316,-1.2531,-6.6059,0.019853,0.14569,0.45143,-16.56,15.66,9.54
8.2676,-7.0009,-8.0632,-0.062919,0.025656,0.19456,-16.56,15.78,9.6
3.0101,-5.6388,-6.851,-0.071777,-0.34636,0.22144,-16.26,16.08,9.72
1.7025,-5.6252,-6.0883,0.033598,-0.33109,0.13806,-16.08,16.14,9.84
-0.40861,-0.96704,-6.3471,0.26328,0.24129,0.40592,-15.96,16.2,9.96
9.2618,-5.2166,-10.488,0.2306,0.1909,0.36774,-15.36,16.38,10.14
9.3844,-8.5536,-11.441,-0.10415,-0.60353,0.13958,-15.18,16.62,10.38
2.0839,-2.8467,-7.1779,-0.0076358,0.0039706,0.20128,-15.0,16.8,10.38
4.4539,-4.9442,-6.6876,0.090713,0.39706,0.23305,-14.64,17.1,10.32
3.6503,-5.5162,-7.0962,0.065973,0.081245,0.13836,-14.46,17.22,10.32
3.4323,-3.4323,-7.3141,0.044288,0.25779,0.12401,-14.22,17.34,10.44
5.2711,-6.674,-7.2324,0.016188,0.04612,0.03543,-14.1,17.64,10.5
2.4789,-3.3778,-7.5457,-0.038485,-0.011301,-0.048564,-13.98,17.64,10.56
1.8115,-1.5936,-6.8783,-0.0036652,0.52168,0.1124,-13.86,17.64,10.5
6.9055,-8.1177,-8.5672,-0.11637,0.11912,-0.11942,-13.92,17.76,10.56
1.7162,-2.2201,-7.4912,-0.14661,0.21686,-0.052534,-13.92,18.0,10.5
3.514,-2.2882,-6.851,-0.11851,0.60567,0.037874,-13.8,18.12,10.32
4.6445,-6.0202,-8.1313,-0.17165,0.19364,-0.16463,-13.92,18.3,10.32
1.7298,-1.8796,-7.0553,-0.17868,0.39615,-0.034819,-13.98,18.18,10.14
3.6775,-1.185,-7.3414,-0.15272,0.58551,0.050091,-14.22,18.06,10.14
6.2109,-7.3958,-7.6274,-0.26634,0.086437,-0.13531,-14.64,18.0,10.02
3.3234,-3.4868,-7.4503,-0.30207,0.23488,-0.13164,-14.76,18.0,9.96
2.7377,-3.5549,-6.1836,-0.20342,0.39309,0.054672,-14.88,17.88,9.9
8.1586,-3.6911,-8.5808,-0.19273,0.58002,-0.0039706,-15.06,17.82,9.54
8.145,-6.674,-8.1858,-0.41447,-0.0079412,-0.18173,-15.24,17.76,9.48
2.4108,-2.1248,-6.0202,-0.32467,0.23243,-0.053145,-15.42,17.76,9.6
9.9701,-7.355,-7.8589,-0.26145,0.4047,-0.086132,-15.54,17.64,9.18
5.8704,-7.3141,-7.1915,-0.30452,-0.21564,-0.16005,-15.66,17.46,9.06
1.8115,-1.9886,-6.674,-0.18265,0.29383,-0.07422,-15.9,17.28,9.18
7.5593,-8.1041,-7.6002,-0.18295,-0.071166,-0.20708,-16.2,16.8,9.12
2.8739,-2.5334,-6.96,-0.052534,0.081856,-0.23305,-16.26,16.86,9.06
5.5571,-3.0101,-7.9679,-0.026878,0.26664,-0.21594,-16.2,16.92,9.0
8.1858,-6.96,-8.6081,-0.11545,-0.24709,-0.31062,-16.26,16.86,9.12
1.866,-1.5527,-5.9793,0.094684,0.22877,-0.13531,-16.44,16.86,9.06
9.6568,-9.1256,-9.7794,-0.058338,0.016799,-0.21838,-16.5,16.56,9.12
6.5378,-10.406,-8.0905,-0.14752,-0.29413,-0.32101,-16.62,16.44,9.12
-0.28603,3.1191,-5.7886,0.052229,0.70372,-0.11423,-16.8,16.26,9.18
7.4231,-2.9965,-9.2482,-0.042455,0.6692,-0.12187,-16.8,16.2,9.0
12.64,-10.515,-10.12,-0.29016,-0.17837,-0.35552,-16.92,16.08,9.06
1.362,2.547,-6.0883,-0.17043,0.44838,0.035736,-17.16,15.66,9.06
10.556,-5.8431,-7.7364,-0.16707,0.39828,0.009163,-17.22,15.54,8.88
8.9349,-9.3572,-8.5127,-0.28558,-0.51985,-0.24374,-17.4,15.42,8.76
2.9965,-1.3212,-7.3822,-0.17685,0.18448,0.037263,-17.7,15.12,8.76
3.7456,-0.027241,-7.1915,-0.038179,0.32865,0.23549,-17.82,14.88,8.82
4.5356,0.35413,-7.7364,0.016493,0.3375,0.3259,-17.94,14.7,8.64
11.373,-5.3528,-9.9565,-0.29474,-0.53542,-0.018021,-17.94,14.46,8.58
2.9556,-1.4982,-6.7421,-0.21166,-0.36682,0.21166,-18.24,14.34,8.52
4.1542,-2.438,-7.1915,-0.18021,0.13439,0.23976,-18.42,14.28,8.58
4.2223,-0.91256,-7.0009,0.010385,0.24251,0.48319,-18.48,14.22,8.46
9.398,-4.5764,-8.6353,-0.019853,0.09896,0.38851,-18.6,14.1,8.58
7.5184,-5.6252,-8.717,-0.079412,-0.41966,0.37171,-18.6,13.98,8.76
2.833,-1.1169,-7.1098,0.065057,-0.20189,0.5061,-18.48,14.16,8.82
7.355,-3.6366,-8.5808,0.067195,-0.071471,0.43646,-18.42,14.46,9.06
10.569,-10.011,-9.3436,-0.10415,-0.62553,0.13286,-18.24,14.64,9.12
2.3155,-0.040861,-6.7966,0.11026,-0.3711,0.40745,-17.88,14.94,9.24
7.3822,-5.2438,-7.7227,0.22571,-0.034819,0.34056,-17.64,15.24,9.18
5.598,-5.8023,-7.7227,0.29322,-0.67776,0.28283,-17.46,15.48,9.42
4.5083,-1.9613,-8.0088,0.31612,-0.41111,0.29413,-17.16,15.66,9.48
6.4833,-4.0452,-7.4503,0.29383,-0.35094,0.29474,-16.74,16.14,9.54
5.9249,-7.2869,-6.9191,0.17074,-0.65943,0.092241,-16.44,16.38,9.6
1.58,-2.3699,-5.2711,0.19914,-0.49755,0.17043,-16.08,16.56,9.78
3.8409,-4.1951,-5.8704,0.36102,-0.37507,0.24832,-15.66,17.1,10.02
4.9987,-4.0452,-8.0905,0.27061,-0.57574,0.10263,-15.48,17.46,9.84
5.2166,-4.304,-8.7443,0.10904,-0.6127,0.041233,-15.12,17.64,10.02
5.3528,-7.0553,-6.3198,0.082467,-0.54275,-0.031765,-14.7,18.06,10.32
2.6015,-7.8726,-5.7886,0.10599,-0.71349,-0.11973,-14.28,18.18,10.56
-0.027241,-0.74912,-7.8998,0.16005,-0.31124,-0.055894,-13.98,18.3,10.5
4.8897,-3.8137,-8.826,-0.0067195,-0.22113,-0.047953,-13.62,18.42,10.74
4.699,-4.3585,-9.2482,-0.1631,-0.23793,-0.093157,-13.32,18.48,10.74
3.0237,-2.438,-8.0632,-0.18845,-0.043371,0.038179,-13.26,18.6,10.74
6.2517,-8.3765,-8.54,-0.23549,-0.14875,-0.12981,-13.02,18.6,10.98
2.0839,-6.8374,-8.145,-0.34117,-0.4273,-0.12523,-12.9,18.54,11.1
2.1929,-3.5413,-8.54,-0.24221,-0.025962,0.090408,-12.66,18.48,11.34
3.6366,-3.7865,-8.0088,-0.12156,0.43188,0.17837,-12.48,18.36,11.46
4.0316,-0.54481,-8.5672,-0.082467,0.6014,0.13928,-12.42,18.36,11.7
10.392,-8.2539,-9.2891,-0.22907,-0.013744,-0.068417,-12.24,18.18,11.76
0.99429,0.14982,-5.5162,-0.024435,-0.090713,0.10782,-12.24,18.06,11.76
3.8273,-1.7298,-7.3822,0.07758,0.09896,0.10568,-12.36,18.0,11.7
2.7786,-5.6116,-7.2324,-0.077274,-0.31826,0.017715,-12.3,17.88,11.88
0.50395,0.38137,-7.1371,-0.056505,0.21136,0.025045,-12.36,17.88,11.94
3.7456,-2.7241,-7.1507,-0.063225,0.3259,0.11087,-12.48,17.94,12.12
6.0611,-6.0611,-7.5321,-0.13867,0.10721,-0.059254,-12.24,17.76,12.24
4.6037,-4.127,-8.1995,-0.19548,0.11026,-0.037874,-12.36,17.88,12.24
4.1542,-4.985,-7.2324,-0.17776,0.053451,0.051924,-12.24,17.88,12.42
4.4947,-4.1133,-8.7987,-0.14294,0.23213,0.036346,-12.36,17.88,12.24
5.0804,-4.3994,-8.7443,-0.17562,0.25779,0.059865,-12.48,17.88,12.3
5.8567,-4.9169,-8.3084,-0.15669,0.18998,0.0039706,-12.3,17.88,12.24
2.9011,-1.1713,-8.0905,-0.089797,0.2251,0.036346,-12.48,17.88,12.12
6.7557,-1.4574,-8.322,-0.069639,0.3824,0.11545,-12.42,17.88,12.18
8.3765,-10.338,-9.3163,-0.27336,-0.24771,-0.13744,-12.48,17.88,12.36
-0.53119,1.076,-7.0281,-0.12339,-0.0085521,0.085827,-12.66,17.82,12.36
5.9249,-3.6094,-8.5127,-0.028405,0.43921,0.13867,-12.78,17.88,12.36
7.7636,-6.3607,-8.9349,-0.14233,-0.1182,0.010385,-12.72,17.7,12.18
5.0804,-4.7263,-8.6353,-0.16768,-0.18631,0.0064141,-12.9,17.88,12.42
2.7377,-0.16344,-6.5378,-0.025045,0.26176,0.17746,-13.08,17.7,12.12
7.3822,-7.4503,-8.0905,-0.10873,-0.057727,-0.029932,-13.2,17.64,11.88
3.7047,-4.1951,-7.3005,-0.15547,-0.17501,-0.011301,-13.26,17.64,12.06
3.8137,-4.8625,-6.1973,-0.12584,-0.15149,-0.065363,-13.38,17.64,11.94
3.2416,-2.3291,-7.069,-0.085521,-0.037874,-0.096211,-13.38,17.46,11.94
5.2711,-2.6968,-8.0632,-0.21289,-0.025656,-0.18112,-13.32,17.34,12.06
3.3506,-2.1793,-5.8567,-0.15394,-0.087354,-0.14325,-13.56,17.46,12.18
5.4618,-3.4187,-7.1371,-0.12645,0.032681,-0.2138,-13.62,17.46,12.12
8.2267,-6.5786,-7.4503,-0.24709,-0.28772,-0.30024,-13.68,17.4,12.18
1.6344,-2.0703,-7.4095,-0.16952,-0.21502,-0.20831,-13.68,17.28,12.24
3.1054,-2.6015,-8.2539,-0.13042,0.042761,-0.097433,-13.62,17.22,12.36
5.489,-4.3177,-8.6762,-0.13744,0.072082,-0.078191,-13.5,17.1,12.3
6.7693,-5.9657,-9.5751,-0.24068,-0.25565,-0.20617,-13.32,16.92,12.66
0.9398,-0.14982,-7.2188,-0.14325,-0.2306,-0.043371,-13.32,16.8,12.84
3.3642,-0.43585,-8.2812,0.0027489,0.21747,0.082161,-13.38,16.68,12.9
11.972,-11.196,-10.283,-0.095295,-0.045204,-0.030849,-13.32,16.44,12.84
2.1656,-1.6072,-7.6274,-0.053451,-0.343,0.034819,-13.32,16.26,13.02
0.62654,3.1872,-8.2812,-0.029627,-0.053756,0.11301,-13.32,16.32,13.08
7.4776,-6.5786,-9.0439,-0.21533,-0.2755,-0.094379,-13.08,15.9,13.44
4.6718,1.1169,-8.4038,-0.20495,-0.057421,-0.051007,-12.84,15.66,13.5
6.6059,-3.2961,-6.9872,-0.31643,-0.19364,-0.10201,-12.78,15.48,13.68
6.1292,-2.4789,-7.6683,-0.12217,-0.11698,0.01741,-12.66,15.3,14.16
4.1814,-1.5663,-7.8045,-0.08491,-0.47098,0.014966,-12.78,15.3,14.52
2.7241,0.72188,-5.8567,0.11423,-0.22633,0.17685,-12.78,15.36,14.52
7.3686,-4.7944,-8.1995,0.08491,-0.52504,-0.039095,-12.78,15.24,14.7
4.0997,-3.8818,-7.2869,0.061697,-0.63316,-0.028405,-12.72,15.24,14.82
3.3915,-2.7922,-6.5514,0.14752,-0.41478,-0.024435,-12.36,15.0,15.06
5.4481,-6.8102,-7.8998,0.16585,-0.51007,-0.018021,-12.36,15.0,15.24
1.6617,-2.0294,-6.96,0.1912,-0.63011,-0.015577,-12.24,15.12,15.54
4.4811,-3.4459,-9.0439,0.31826,-0.4328,0.091935,-12.12,15.24,15.78
5.094,-3.8682,-9.4798,0.23946,-0.44746,0.068722,-11.94,15.3,15.78
7.1371,-6.1564,-9.1937,0.13073,-0.44593,-0.087659,-11.76,15.36,15.9
6.1155,-7.1915,-7.8998,0.097738,-0.62217,-0.2532,-11.58,15.24,16.14
3.1191,-2.6696,-7.9815,0.26176,-0.47342,-0.17807,-11.16,15.36,16.56
5.0259,-2.6832,-8.9077,0.31979,-0.37568,-0.12981,-10.92,15.48,16.8
7.7636,-6.1292,-8.4991,0.27611,-0.48503,-0.19517,-10.8,15.72,16.98
5.1894,-4.0452,-8.322,0.23121,-0.67409,-0.354,-10.74,15.72,17.16
3.4051,-2.9965,-7.3141,0.29383,-0.50183,-0.20708,-10.56,15.84,17.34
5.6116,-5.8976,-7.3141,0.23274,-0.54428,-0.35522,-10.32,15.84,17.52
4.3585,-6.1564,-6.9872,0.18387,-0.7199,-0.4102,-10.14,15.84,17.82
0.54481,-1.4029,-7.1915,0.30574,-0.551,-0.33903,-9.9,15.9,18.0
4.413,-3.0782,-7.641,0.30268,-0.39218,-0.34758,-9.72,15.78,18.06
5.884,-4.6037,-9.1529,0.11423,-0.75778,-0.52993,-9.72,15.78,18.18
2.8058,-2.4517,-7.1507,0.024129,-0.59284,-0.43707,-9.36,15.66,18.48
5.38,-6.8647,-7.0281,-0.10446,-0.49083,-0.51862,-9.18,15.66,18.54
1.7706,-5.993,-6.8102,-0.18479,-0.58429,-0.44318,-9.0,15.66,18.72
3.0101,0.36775,-8.54,-0.24496,0.12737,-0.33201,-8.82,15.3,18.84
8.4582,-3.8954,-9.7113,-0.34697,0.0956,-0.44776,-8.52,15.0,19.02
6.8919,-6.8374,-8.3901,-0.49266,-0.3711,-0.60292,-8.46,14.94,19.2
5.6661,-2.3155,-9.5342,-0.2364,-0.067195,-0.48808,-8.16,14.64,19.68
7.2733,-4.8625,-10.392,-0.27336,-0.24587,-0.39187,-8.22,14.4,19.8
4.7944,-5.0395,-9.0303,-0.2303,-0.43921,-0.43707,-8.16,14.28,19.86
4.7944,-3.3097,-9.4253,-0.12034,-0.28497,-0.40134,-8.16,13.92,20.22
4.9714,-5.7478,-8.7443,-0.13928,-0.48747,-0.57818,-8.22,13.68,20.4
3.2553,-3.2144,-7.7227,-0.092241,-0.41203,-0.61636,-8.1,13.32,20.52
5.6524,-7.7636,-8.5944,-0.15699,-0.60934,-0.77366,-7.86,12.84,21.0
-1.1713,2.6968,-5.203,0.087354,-0.088575,-0.5229,-7.86,12.6,21.24
5.1894,-0.20431,-8.4174,0.22755,0.2865,-0.3937,-7.86,12.24,21.36
3.732,-2.3427,-7.7227,-0.16646,-0.4441,-0.45051,-7.8,11.82,21.84
4.9987,-1.975,-7.8181,-0.11179,-0.15333,-0.6182,-7.98,11.58,22.08
7.5729,-6.5378,-9.3572,-0.26389,-0.68845,-0.68875,-7.92,11.28,22.14
-2.3291,2.1656,-5.094,-0.025351,-0.24099,-0.57085,-7.86,10.86,22.26
7.5321,-5.5707,-11.141,0.019853,-0.01405,-0.78007,-7.92,10.56,22.5
5.094,-8.6898,-10.869,-0.2248,-0.8097,-0.7028,-7.86,10.26,22.5
8.0632,-2.9011,-10.746,0.026573,0.23488,-0.94318,-7.68,9.84,22.68
9.3844,-6.3062,-11.468,-0.25534,-0.18998,-0.67378,-7.68,9.6,22.8
3.3915,-5.7205,-6.456,-0.23702,-0.15272,-0.70708,-7.68,9.42,23.1
4.8625,-2.9011,-8.0224,-0.10782,0.042455,-0.92241,-7.68,9.12,23.16
6.674,-1.9613,-6.5378,0.14569,0.31001,-0.45693,-8.1,8.7,22.98
9.2482,-6.0474,-9.2891,0.065668,-0.24374,-0.72937,-8.16,8.34,23.1
5.993,-7.5048,-7.0009,-0.10965,-0.51771,-0.86071,-8.4,8.1,23.04
-0.01362,-0.31327,-5.5435,0.068111,0.22358,-0.64568,-8.58,7.68,22.98
3.7865,-0.83084,-7.6683,0.21014,0.47678,-0.5171,-8.76,7.32,23.16
8.6081,-8.3493,-9.7113,0.0088575,-0.16585,-0.71471,-8.88,7.02,23.16
1.5119,-1.4165,-5.38,0.21594,0.035736,-0.76664,-9.12,6.72,23.1
6.2517,-5.8023,-9.9973,0.25748,0.0058032,-0.77672,-9.36,6.48,23.22
2.2746,-3.2825,-8.4855,0.11973,-0.029932,-0.88698,-9.48,5.88,23.28
3.8818,-7.1507,-10.542,-0.055589,-0.32345,-1.0376,-9.78,5.58,23.4
-3.051,3.6639,-5.0259,0.15944,0.62827,-0.80329,-9.84,5.4,23.28
0.35413,3.4187,-5.0804,0.3653,1.087,-0.53267,-10.02,5.1,23.28
15.881,-9.3572,-12.885,0.197,0.081856,-0.82314,-10.5,4.68,23.28
3.6094,-3.5004,-8.322,0.072693,-0.57666,-0.63805,-10.74,4.56,23.28
0.50395,1.5119,-5.7342,0.35858,-0.014355,-0.52321,-10.86,4.38,23.4
11.087,-13.92,-13.743,0.29871,-0.19487,-0.59865,-11.16,3.96,23.52
-4.6718,-0.83084,-5.3119,-0.13011,-1.0675,-0.88087,-11.16,3.78,23.46
-2.5061,4.6718,-2.2201,0.59132,1.4523,-0.55925,-11.22,3.42,23.46
15.963,-10.937,-12.381,0.13439,-0.20311,-0.97128,-11.64,2.76,23.4
-2.8603,3.3234,-3.6366,0.2135,-0.53695,-0.50152,-11.7,2.46,23.28
11.182,-5.5162,-11.577,0.2645,-0.38271,-0.76786,-12.06,1.98,23.22
1.8387,-3.8273,-7.7364,0.13592,-0.76847,-0.54642,-12.24,1.92,23.04
4.3858,-2.1112,-8.54,0.28344,-0.093768,-0.8436,-12.42,1.62,23.1
6.1564,-5.4073,-9.0439,0.35705,-0.31429,-0.53665,-12.42,1.5,23.04
2.4517,-1.58,-5.3119,0.62919,-0.43799,-0.57055,-12.3,1.2,23.1
6.3335,-2.6832,-8.5808,0.69975,-0.64568,-0.50457,-12.36,0.96,23.1
6.3743,-5.5435,-9.1529,0.5452,-0.77336,-0.54642,-12.24,0.9,23.22
1.3212,-2.6968,-4.6718,0.47647,-0.7984,-0.54275,-11.82,0.72,23.1
3.0237,-0.84446,-6.3471,0.80481,-0.74953,-0.43738,-11.88,0.84,23.16
8.6353,-11.768,-12.204,0.36744,-1.2156,-0.69333,-11.7,0.9,23.28
4.0316,-10.338,-8.145,0.52962,-0.76938,-0.47861,-11.46,1.02,23.4
4.9578,-8.2948,-9.3844,0.4667,-0.22785,-0.6973,-10.86,1.08,23.64
1.1577,-5.9657,-6.9736,0.43707,-0.52107,-0.31887,-10.62,1.08,23.82
-0.25879,-5.9657,-10.883,0.47037,0.099876,-0.42547,-10.38,1.08,24.06
2.6423,0.040861,-8.431,0.48167,0.39309,0.025656,-9.9,1.32,24.3
7.2869,-4.699,-9.8066,0.43005,0.14691,-0.25015,-9.72,1.38,24.54
8.6762,-10.12,-11.605,0.27703,-0.51771,-0.20953,-9.48,1.56,24.54
-1.2258,-1.1032,-8.9622,0.4554,-0.33292,0.11973,-8.94,1.74,24.9
4.0316,-7.5593,-9.4934,0.39706,-0.60384,-0.084299,-8.76,1.8,24.72
0.61292,-3.8954,-8.8668,0.49694,-0.24801,0.019242,-8.7,1.98,24.9
2.7922,-3.8682,-8.3629,0.57696,0.29719,0.020159,-8.4,2.28,25.14
2.3699,-1.7025,-7.5048,0.60628,0.29963,0.12431,-8.22,2.46,25.14
6.17,-7.1507,-9.4798,0.37935,-0.28039,0.053451,-8.1,2.52,25.02
-1.8251,1.1986,-5.6933,0.53359,-0.22113,0.078191,-8.1,3.06,24.9
4.1814,-2.1793,-8.1995,0.43127,0.22266,0.01741,-8.16,3.36,24.72
6.9464,-9.4798,-8.431,0.15547,-0.38301,-0.055589,-8.1,3.66,24.54
-0.24517,-2.656,-7.4095,-0.21105,-0.1573,-0.12065,-7.8,3.96,24.24
-1.185,0.42223,-7.6274,-0.12217,0.57727,0.076969,-7.74,4.2,24.06
6.4016,-5.9657,-7.6002,-0.14203,0.55253,0.036652,-7.68,4.5,24.06
4.2495,-2.6015,-11.155,-0.10263,0.27,0.07758,-7.8,4.8,23.64
6.5378,-7.927,-10.488,-0.18265,-0.14752,0.11332,-7.74,4.86,23.82
3.1872,-6.6195,-11.319,-0.2587,-0.4777,0.10232,-7.8,4.86,23.7
1.8387,-1.8387,-7.6138,-0.098044,0.31185,0.1295,-7.92,4.8,23.52
3.5685,-0.32689,-6.4152,0.24221,0.78557,0.24404,-8.1,4.68,23.46
6.5105,-2.2065,-9.7522,0.12645,0.2532,0.041539,-8.22,4.68,23.34
6.279,-7.4095,-7.6955,0.021686,-0.49419,-0.0281,-8.46,4.8,23.34
2.7786,-4.1406,-7.4095,-0.015882,-0.57757,-0.16829,-8.4,4.86,23.4
2.1384,-5.0668,-6.1428,0.017104,-0.22419,-0.018631,-8.4,4.8,23.46
3.2416,-5.0259,-6.9055,-0.11209,0.058643,-0.22938,-8.52,4.92,23.76
1.6072,-1.0079,-6.4016,-0.023518,0.53054,-0.22969,-8.58,4.92,23.76
5.4618,-3.8818,-7.2869,-0.18754,0.41142,-0.3317,-8.58,4.74,23.82
3.5685,-10.338,-9.0575,-0.59223,-0.54062,-0.53084,-8.64,4.56,24.0
-4.3177,5.3256,-4.2904,-0.29596,0.40012,-0.4554,-8.7,4.62,23.94
2.7786,0.91256,-5.4754,0.067501,1.2223,-0.093157,-8.82,4.62,23.88
7.5048,-6.4288,-12.027,-0.048869,0.52412,-0.22388,-9.12,4.74,23.94
4.6173,-3.732,-9.9973,-0.44746,-0.18784,-0.4499,-9.3,4.74,23.88
3.2144,-3.6775,-7.2188,-0.4554,0.14203,-0.33781,-9.42,4.74,24.0
0.88532,-3.3506,-6.7285,-0.20464,0.50457,-0.31826,-9.48,4.44,23.94
2.5742,-4.6854,-9.7385,-0.22694,0.34972,-0.11209,-10.02,3.9,23.82
5.203,-3.8137,-8.4446,-0.15241,0.37751,-0.10721,-10.2,3.66,23.76
2.7377,-3.5413,-8.322,-0.24465,0.18509,-0.35277,-10.68,2.88,23.46
1.0215,2.1112,-5.6252,0.10599,0.95478,0.098349,-11.04,2.76,23.34
8.717,-6.565,-7.4776,0.18204,0.8152,-0.020464,-11.34,2.58,23.22
10.678,-10.161,-9.507,-0.10263,-0.23915,-0.30635,-11.64,2.4,23.22
1.2395,-2.6015,-6.2654,-0.1799,-0.23976,-0.40623,-12.18,2.1,22.8
-1.4982,1.3212,-4.2223,0.22877,0.71777,-0.10354,-12.54,1.92,22.68
9.0031,-14.833,-10.992,-0.14691,-0.45876,-0.57757,-12.84,1.44,22.32
-3.7865,-0.42223,-5.8431,-0.021075,0.0058032,-0.40195,-13.14,1.14,22.2
-0.76274,2.3836,-7.1915,0.087965,0.49969,-0.41356,-13.32,0.96,22.14
6.96,-1.9613,-8.0088,0.21838,0.97677,-0.22419,-13.62,0.84,22.08
8.7443,-6.7421,-8.322,-0.09499,0.099876,-0.50183,-14.1,0.48,21.72
3.3234,-7.1915,-7.3414,-0.1628,-0.26909,-0.57879,-14.4,0.36,21.48
1.1441,-3.4732,-5.7614,-0.020159,0.037874,-0.37415,-14.7,0.3,21.36
9.1937,-3.7728,-9.1256,0.20556,0.6017,-0.28711,-15.12,0.12,21.18
8.826,-8.3357,-8.0905,-0.035125,0.21869,-0.53451,-15.24,-0.3,21.12
4.5764,-5.4754,-7.2596,-0.086132,0.085216,-0.59773,-15.36,-0.42,20.88
0.9398,0.7355,-5.38,0.13897,0.47281,-0.21197,-15.78,-1.08,20.76
8.6489,-6.1564,-7.4503,0.11026,0.31215,-0.25504,-15.84,-1.32,20.46
3.5413,-2.2337,-7.4231,0.016799,-0.074526,-0.35216,-16.44,-1.74,20.22
4.808,-3.8273,-6.6604,0.079718,0.17746,-0.30452,-16.62,-1.8,19.92
3.514,-2.8875,-7.5865,0.073915,0.12798,-0.29902,-16.92,-2.1,19.74
8.8668,-7.641,-8.6898,-0.28833,-0.39187,-0.69578,-16.98,-2.16,19.68
-1.2395,-3.7728,-5.9793,-0.14844,-0.29505,-0.46426,-17.16,-2.58,19.44
-4.5492,4.9578,-4.7399,0.14691,0.65637,-0.018326,-17.22,-2.76,19.56
6.5378,-1.3484,-10.515,0.25259,1.1222,0.25656,-17.4,-3.0,19.5
7.6683,-3.2553,-10.61,-0.30421,-0.17959,-0.14386,-17.64,-3.36,19.26
0.55843,4.2632,-7.2869,-0.11484,0.78924,0.20495,-17.94,-3.42,19.14
5.1621,-1.3348,-7.7636,-0.025045,0.5455,0.29322,-18.0,-3.72,19.08
7.0145,-7.5048,-9.8203,-0.10507,-0.50824,-0.011606,-18.36,-3.78,18.9
1.6753,-1.3893,-7.1643,0.045509,-0.11301,0.26542,-18.48,-3.84,18.9
3.8682,-2.9011,-5.9249,0.2642,0.20464,0.36927,-18.66,-3.84,18.9
7.0417,-3.8954,-10.433,0.26756,-0.13683,0.17959,-18.9,-4.02,19.02
7.6274,-5.9112,-8.1313,0.18295,-0.32101,0.16738,-19.02,-3.84,18.96
5.8976,-7.0962,-7.9679,0.16982,-0.54611,0.023213,-19.08,-3.96,18.78
1.9477,-2.7513,-6.8374,0.21014,-0.084605,0.072082,-19.32,-3.78,18.66
5.8159,-6.17,-6.7012,0.21655,0.062308,0.062614,-19.44,-3.78,18.54
0.96704,-1.0488,-7.4231,0.22022,0.061697,0.14569,-19.74,-3.66,18.3
2.8875,-0.61292,-6.3335,0.26664,0.39584,0.30727,-19.8,-3.42,18.36
5.2575,-0.95342,-7.0281,0.30849,0.24251,0.35369,-19.74,-3.3,18.3
9.3844,-4.808,-9.9701,0.19945,-0.11698,0.1686,-19.86,-2.88,18.18
5.9385,-4.2904,-8.4174,-0.11026,-0.44074,0.06017,-19.8,-2.58,18.12
2.7786,-3.5549,-6.96,-0.10415,-0.13042,0.10049,-19.98,-2.4,18.18
4.0452,-6.17,-7.0417,-0.13134,-0.032681,0.10568,-19.74,-2.16,18.06
4.7807,-5.5435,-8.4446,-0.10782,-0.01405,0.20433,-19.56,-2.04,18.12
1.7434,0.49033,-8.322,0.0015272,0.34606,0.49052,-19.5,-2.1,18.0
7.464,-3.6094,-7.6002,-0.11393,0.13347,0.49114,-19.44,-1.86,18.12
4.7671,-0.20431,-7.8589,0.068417,0.34544,0.57757,-19.38,-1.68,18.24
9.8884,-4.9578,-8.3629,-0.09499,-0.27245,0.1237,-19.32,-1.44,18.3
0.69464,-4.9033,-7.8998,-0.076664,-0.45479,0.23549,-19.14,-1.2,18.36
-1.8387,-0.7355,-6.6331,-0.083078,0.30268,0.53237,-19.08,-1.14,18.3
6.5241,-5.094,-6.9872,0.022602,0.52687,0.60964,-19.02,-1.08,18.36
9.4117,-9.4117,-8.54,-0.28039,-0.44257,0.16432,-18.9,-0.84,18.42
1.2939,-2.6968,-7.4912,-0.25381,0.049786,0.3934,-18.78,-0.72,18.48
3.3097,-3.514,-7.2733,-0.30268,0.14966,0.25168,-18.6,-0.66,18.54
1.866,-3.5277,-9.112,-0.26023,0.34392,0.45815,-18.6,-0.66,18.54
4.127,-0.96704,-8.6762,-0.30146,0.77213,0.70921,-18.54,-0.54,18.54
5.9657,-2.5061,-8.4991,-0.23885,0.69944,0.74648,-18.36,-0.36,18.54
5.8704,-2.2474,-8.4174,-0.18845,0.10018,0.6747,-18.42,-0.36,18.6
6.9464,-6.0883,-8.0905,-0.33017,-0.63347,0.34697,-18.42,-0.3,18.42
-1.5663,-1.5255,-6.8783,-0.26389,-0.30482,0.35705,-18.42,-0.12,18.54
2.6968,-1.6208,-6.6331,-0.23824,0.49908,0.34208,-18.42,-0.12,18.54
6.6331,2.3427,-7.0962,-0.15699,0.18845,0.25137,-18.3,0.18,18.48
5.3528,1.0351,-7.6546,-0.074831,0.75869,0.5736,-18.3,0.24,18.54
11.85,-5.4754,-8.8941,-0.30268,-0.39798,0.062919,-18.42,0.12,18.54
6.9328,-9.8884,-8.9349,-0.34697,-0.69852,0.061697,-18.54,0.24,18.36
0.01362,3.5004,-6.6195,-0.24526,0.42089,0.42669,-18.6,0.54,18.3
9.2618,-6.3471,-7.0826,-0.07086,0.48472,0.50916,-18.66,0.78,18.3
9.9429,-5.1076,-10.515,-0.37141,-0.8042,-0.06017,-18.72,0.9,18.24
-0.27241,-0.14982,-4.9987,-0.21838,-0.064752,0.37721,-18.96,1.26,18.36
4.9306,-3.1735,-7.0962,-0.03543,0.097738,0.10904,-18.84,1.44,18.54
7.1915,-5.993,-9.7249,-0.11301,-0.14355,0.0042761,-18.66,1.5,18.6
1.7025,-3.4459,-8.5127,-0.50183,-0.54062,0.042455,-18.48,1.56,18.78
4.9987,-4.6854,-6.456,-0.4609,-0.023213,-0.17776,-18.3,1.62,18.84
3.732,-4.0861,-7.5048,-0.21289,0.2138,-0.16218,-18.18,1.56,18.84
4.7399,-0.83084,-7.8045,-0.12339,0.24557,-0.048258,-18.0,1.32,19.14
7.0281,-1.0896,-7.6683,-0.053145,0.11454,-0.015272,-17.88,1.26,19.26
7.7227,-3.5958,-8.6762,-0.090408,-0.11545,-0.10293,-17.82,1.26,19.5
4.2632,-3.8954,-7.927,-0.3149,-0.39126,-0.18448,-17.64,1.02,19.74
3.4323,-2.8739,-5.8976,-0.28314,-0.041233,-0.20342,-17.4,0.84,19.98
4.9306,-5.9385,-5.38,-0.17226,0.10201,-0.26542,-17.34,0.72,20.1
3.3915,-3.8682,-6.3198,-0.091019,0.062919,-0.38057,-17.1,0.42,20.22
3.7184,-3.2553,-6.3879,0.019242,0.041844,-0.26114,-17.16,0.36,20.28
5.5162,-4.6309,-7.2188,0.031765,-0.02138,-0.33842,-17.1,0.12,20.4
4.8352,-2.3291,-8.4719,0.043982,0.074526,-0.36774,-17.16,0.12,20.46
2.1248,0.12258,-6.4424,0.21075,0.26756,-0.062308,-17.22,-0.36,20.46
8.2948,-6.0883,-9.0575,0.087048,-0.0094684,-0.40897,-17.28,-0.42,20.64
-0.01362,-1.7025,-8.2131,-0.219,-0.34178,-0.61514,-17.1,-0.48,20.7
-0.9398,-0.23155,-6.4288,-0.047342,0.48319,-0.31796,-16.98,-0.66,20.58
2.3155,-0.92618,-6.3471,0.12156,0.89614,-0.13622,-16.86,-0.9,20.7
9.507,-3.5413,-10.365,-0.049175,0.46609,-0.29596,-16.86,-1.2,20.82
6.7148,-2.833,-7.6683,-0.096517,0.30788,-0.13256,-16.92,-1.26,20.76
5.1349,-1.6072,-6.279,0.050091,0.3543,-0.041233,-16.92,-1.5,20.82
3.2144,-5.9657,-6.7557,0.060781,-0.17379,-0.19609,-16.92,-1.74,20.88
0.6674,-1.4846,-6.1836,0.26328,0.075136,-0.060781,-16.8,-1.92,20.88
4.6309,-4.6173,-7.7227,0.15363,-0.27153,-0.23671,-16.92,-2.04,20.88
2.6423,-2.3155,-7.0826,0.1405,-0.20342,-0.36041,-16.8,-2.28,20.76
6.6331,-6.4424,-8.2267,0.042455,-0.079107,-0.56047,-16.74,-2.28,20.7
4.2223,-7.1915,-6.7421,0.0079412,-0.38698,-0.61514,-16.74,-2.46,20.64
4.0316,-3.8001,-7.5729,0.10293,-0.096211,-0.57605,-17.1,-2.7,20.4
5.3119,-4.9306,-8.1858,0.11973,0.11912,-0.33964,-17.16,-2.64,20.52
2.2882,0.68102,-7.246,0.21564,0.44318,-0.094379,-17.28,-2.64,20.46
10.27,-3.9771,-11.25,0.14142,0.23488,0.04612,-17.28,-2.76,20.28
5.9521,-2.7786,-8.7579,0.033292,-0.027794,0.16005,-17.34,-3.0,20.1
6.1564,-4.4539,-8.9077,0.022297,-0.13683,-0.0027489,-17.34,-2.94,19.98
1.8796,-1.1169,-5.9385,0.25717,0.14813,0.22358,-17.22,-3.06,19.8
7.9134,-8.0632,-9.3436,0.10232,-0.24923,-0.12248,-17.22,-3.06,19.8
5.9249,-8.3493,-8.2539,0.037568,-0.51985,-0.14203,-17.22,-3.06,19.68
1.8524,-2.4789,-6.4424,0.19364,-0.079412,-0.023518,-17.22,-2.94,19.68
3.5277,-3.3778,-6.279,0.3207,0.075747,0.22816,-17.22,-2.82,19.68
10.542,-10.365,-8.8532,0.19914,-0.23518,-0.062919,-17.22,-2.7,19.62
5.2302,-11.332,-5.3937,0.12706,-0.59712,-0.14661,-17.16,-2.7,19.56
2.2882,2.9965,-7.0553,0.50152,0.15516,0.16493,-16.92,-2.46,19.62
9.9837,-5.8976,-10.774,0.42638,0.39279,0.23793,-16.86,-2.34,19.62
10.311,-7.4776,-11.496,0.072082,-0.14142,0.069333,-16.86,-2.16,19.62
2.6696,-3.3097,-6.9872,0.022297,0.000305,0.2361,-16.8,-1.62,19.68
2.3427,-5.4073,-5.8023,0.11484,0.058032,0.32009,-16.74,-1.44,19.68
2.2746,-6.2517,-6.9736,0.12126,0.18479,0.28344,-16.62,-1.2,19.62
4.808,-6.1428,-7.641,0.077885,0.37599,0.4105,-16.74,-0.84,19.5
4.4811,-6.4288,-7.2052,0.22022,0.2584,0.35094,-16.8,-0.6,19.5
4.6445,-4.7807,-9.3163,0.20403,0.22969,0.35949,-16.86,-0.48,19.5
2.8603,-4.6854,-6.3471,0.37293,0.30299,0.46548,-16.86,-0.18,19.32
4.7944,-3.0237,-8.2948,0.38485,0.28619,0.36774,-16.92,0.06,19.14
6.5378,-6.7966,-7.3822,0.25259,0.11515,0.37751,-17.04,0.3,19.08
2.6696,-5.4209,-5.9521,0.19548,0.034514,0.16005,-17.22,0.9,18.36
2.6696,-2.8058,-6.4424,0.20556,0.30421,0.36438,-17.22,1.08,18.3
2.6015,-3.5004,-7.1643,0.057727,0.30329,0.28833,-17.1,1.32,18.06
5.0259,-8.1722,-7.0553,-0.11393,0.22907,0.19517,-17.16,1.8,17.64
2.3018,-4.4402,-7.0553,-0.12065,0.30727,0.31124,-17.22,2.1,17.46
1.975,-2.8603,-7.355,-0.099266,0.54947,0.48411,-17.46,2.34,17.16
7.75,-9.0848,-8.8532,-0.3036,0.49755,0.44868,-17.52,2.64,16.62
4.2904,-6.2517,-7.1915,-0.19395,0.4664,0.52351,-17.52,2.82,16.32
4.8761,-7.5729,-5.5162,-0.14722,0.41722,0.48808,-17.58,3.18,16.08
4.0044,-5.094,-8.4719,0.04948,0.22541,0.57085,-17.58,3.66,15.6
4.0044,-5.094,-8.4719,-0.020769,0.1463,0.55161,-17.58,3.66,15.6
3.2961,-6.1836,-5.6797,0.0051924,0.38362,0.4386,-17.58,4.44,15.12
5.094,-6.9872,-5.5435,0.0051924,0.38362,0.4386,-17.58,4.8,14.82
6.3471,-8.9894,-5.6797,-0.10751,0.24679,0.26053,-17.64,5.1,14.58
1.076,-5.8023,-5.8976,-0.17929,0.27642,0.28986,-17.88,5.58,14.16
1.7979,-5.5707,-6.4288,-0.2642,0.42974,0.37507,-18.0,5.7,13.86
2.5198,-6.6331,-7.2052,-0.25595,0.59193,0.43524,-17.94,5.76,13.62
6.674,-7.0826,-8.2131,-0.35705,0.42333,0.48075,-17.82,6.18,13.26
5.6388,-6.565,-7.9134,-0.33323,0.47922,0.62033,-17.94,6.42,13.14
5.993,-7.9951,-7.8317,-0.32926,0.41905,0.48869,-18.0,6.6,12.96
3.1599,-4.127,-8.5127,-0.22571,0.65301,0.62827,-18.18,6.78,12.36
5.4481,-6.3607,-8.1586,-0.31001,0.52779,0.61881,-18.3,6.96,12.18
4.6037,-6.565,-7.7908,-0.31185,0.39218,0.6127,-18.36,6.96,11.88
3.8682,-7.2324,-5.9521,-0.28894,0.51893,0.61728,-18.48,7.2,11.46
2.7104,-5.4481,-6.3607,-0.27214,0.58246,0.62339,-18.54,7.2,11.28
4.3721,-4.3858,-7.3141,-0.30971,0.52137,0.64782,-18.72,7.44,10.5
6.1836,-5.3528,-8.4446,-0.4386,0.28741,0.61667,-18.78,7.56,10.32
5.4345,-5.3528,-8.54,-0.58521,0.32254,0.61972,-18.72,7.62,10.2
4.9306,-5.1485,-8.3901,-0.6692,0.33537,0.60598,-18.9,7.86,9.96
3.8137,-4.4811,-7.3414,-0.65607,0.60323,0.62003,-18.96,8.1,9.84
5.5571,-6.4288,-7.2052,-0.67287,0.37049,0.58918,-19.08,8.4,9.48
5.8023,-7.7091,-7.3141,-0.71105,0.075747,0.4893,-19.02,8.58,9.3
2.5198,-5.1349,-7.4503,-0.63927,0.33201,0.59315,-18.96,8.7,9.3
5.4209,-4.7944,-7.3141,-0.62156,0.50121,0.55253,-18.9,9.18,9.0
7.3822,-6.8374,-7.7227,-0.58887,0.33964,0.4722,-18.78,9.36,8.88
4.1678,-4.018,-7.9951,-0.57574,0.22297,0.54428,-18.78,9.48,8.76
4.9578,-3.1872,-7.8998,-0.53481,0.35888,0.52993,-18.78,9.66,8.58
6.1019,-4.6718,-8.4174,-0.58429,0.023824,0.51129,-18.78,9.78,8.76
4.5628,-4.3858,-8.8668,-0.69119,-0.24648,0.56291,-18.66,9.84,8.76
4.1406,-4.0997,-7.7091,-0.72143,-0.23976,0.66493,-18.42,10.14,8.76
4.5492,-4.3177,-8.1995,-0.6579,-0.10263,0.63866,-18.24,10.14,8.82
4.6854,-3.2553,-8.7306,-0.67226,-0.16096,0.64935,-18.12,10.2,8.82
6.1973,-4.0316,-8.2131,-0.64538,-0.29627,0.56261,-17.88,10.14,9.12
5.6116,-3.9635,-8.7034,-0.55436,-0.53909,0.49786,-17.7,10.26,9.3
4.9987,-3.3506,-8.9758,-0.56933,-0.58185,0.47434,-17.64,10.5,9.42
3.2825,-2.5879,-8.3629,-0.52779,-0.51038,0.45937,-17.22,10.44,9.72
4.8897,-2.4789,-7.641,-0.49266,-0.37599,0.40561,-17.04,10.5,10.14
6.4969,-4.0452,-7.1779,-0.46884,-0.46731,0.31796,-16.86,10.5,10.38
4.4539,-3.2553,-7.7636,-0.4664,-0.551,0.29688,-16.32,10.56,11.16
4.1951,-4.2223,-7.246,-0.3882,-0.49755,0.36194,-16.02,10.56,11.46
3.1327,-2.7241,-6.9872,-0.33201,-0.42547,0.40103,-15.78,10.68,11.94
4.7399,-4.9033,-6.9191,-0.20067,-0.45754,0.45235,-15.18,10.8,12.66
3.8137,-4.8216,-6.8238,-0.10721,-0.50274,0.48197,-14.76,10.92,13.14
3.228,-4.6854,-6.5378,-0.035736,-0.50335,0.48106,-14.46,10.92,13.44
1.0624,-6.3607,-5.5571,-0.014966,-0.66065,0.43555,-13.68,11.34,14.22
1.076,-5.7886,-5.2302,0.058643,-0.54489,0.38759,-13.44,11.4,14.52
1.1441,-6.96,-4.8216,0.27397,-0.57208,0.33537,-13.08,11.4,15.0
0.35413,-5.9793,-5.8704,0.3207,-0.51191,0.28069,-12.96,11.7,15.42
1.5119,-5.884,-7.8998,0.33139,-0.26359,0.22358,-12.12,11.94,15.9
2.6832,-5.3119,-7.4503,0.3259,0.094379,0.17562,-11.7,12.12,16.32
2.2337,-4.9578,-7.1234,0.37049,0.66248,0.23213,-10.92,12.6,16.62
3.6366,-5.6524,-9.4798,0.25107,0.89003,-0.016188,-10.74,12.9,16.74
1.7706,-3.1872,-9.2891,0.21472,0.71929,0.12859,-10.5,13.08,16.74
1.7979,-2.9829,-8.9758,0.13653,0.51832,0.24038,-10.44,13.2,16.74
1.9886,-5.489,-7.4912,0.10079,0.51893,0.22602,-10.26,13.74,16.68
2.4108,-5.0123,-6.9055,0.15394,0.52657,0.1854,-10.32,13.8,16.56
3.7184,-8.4446,-7.4095,0.12523,0.40378,0.08094,-10.26,14.1,16.38
1.6072,-6.0338,-6.8647,0.025962,0.40867,-0.23976,-10.38,14.46,16.08
2.2882,-4.985,-5.6661,0.048258,0.70372,-0.24587,-10.44,14.58,15.72
2.4789,-5.2847,-5.9249,0.055283,0.87812,-0.29077,-10.5,14.58,15.42
4.0589,-4.9578,-7.7227,-0.036957,0.88911,-0.22694,-10.68,14.64,15.06
4.3449,-4.7399,-8.4719,-0.095295,0.68386,-0.15241,-11.1,14.7,14.28
3.0918,-3.4051,-9.616,-0.17776,0.6072,-0.02138,-11.4,14.76,13.86
4.4266,-5.2847,-9.4798,-0.29108,0.59284,0.10782,-12.0,14.58,13.08
3.4732,-4.4266,-9.2482,-0.42028,0.38698,0.04215,-12.3,14.64,12.78
2.833,-3.514,-8.717,-0.43677,0.49999,0.087048,-12.42,14.52,12.54
3.5685,-3.732,-8.322,-0.45357,0.53176,0.062919,-12.72,14.46,12.18
4.3994,-3.0782,-8.036,-0.49694,0.53359,0.087965,-13.2,14.34,11.76
5.7069,-4.9578,-7.5048,-0.52657,0.42455,0.052229,-13.5,14.16,11.46
4.3585,-4.0861,-7.6002,-0.53359,0.36285,0.11209,-13.68,13.92,11.4
6.1564,-4.8625,-6.7421,-0.5339,0.41142,0.13592,-14.1,13.68,10.92
6.0611,-6.0202,-6.9055,-0.52626,0.2248,0.069944,-14.34,13.56,10.68
4.5764,-5.0531,-6.9736,-0.5058,0.1857,0.080023,-14.52,13.44,10.62
4.5492,-4.1951,-6.7829,-0.38943,0.28986,0.091324,-14.94,13.2,10.5
4.9578,-6.4697,-6.4833,-0.27978,0.16249,0.033903,-15.0,13.08,10.5
4.1406,-6.1836,-7.0553,-0.20495,0.10079,0.0088575,-15.18,13.02,10.5
3.2689,-6.4288,-7.1507,-0.10599,0.027184,-0.045815,-15.3,12.54,10.32
2.6015,-4.8352,-7.355,-0.02138,0.15699,-0.1011,-15.48,12.48,10.14
2.4517,-4.2223,-7.0826,0.064752,0.35613,-0.054367,-15.36,12.42,10.14
3.8954,-4.5764,-7.5593,0.058338,0.39218,-0.052534,-15.48,12.3,10.02
4.8488,-5.8023,-7.7091,0.0054978,0.3262,-0.15577,-15.66,12.0,9.9
4.0725,-5.3256,-7.3822,-0.033598,0.32223,-0.18845,-15.84,11.94,9.72
3.1735,-5.1894,-7.0553,-0.065973,0.46273,-0.096211,-16.02,11.76,9.6
3.4459,-5.1076,-7.0417,-0.084605,0.52779,-0.034208,-16.02,11.58,9.48
4.3858,-5.1213,-7.1915,-0.10904,0.613,0.078191,-16.14,11.46,9.36
4.6445,-4.6582,-7.3005,-0.18906,0.58735,0.060476,-16.08,11.46,9.3
5.1757,-4.6037,-7.8317,-0.2248,0.60659,0.064446,-16.32,11.46,9.0
5.5435,-4.304,-7.9679,-0.30116,0.54672,-0.0085521,-16.44,11.4,8.76
5.4481,-4.4947,-7.8862,-0.34514,0.60109,0.0064141,-16.62,11.34,8.52
4.8761,-3.6366,-7.6683,-0.40195,0.54336,0.021686,-16.92,11.4,8.22
5.5843,-3.8954,-7.7908,-0.45509,0.60873,0.052229,-17.16,11.28,7.92
6.96,-4.9033,-7.9543,-0.47861,0.48167,0.019853,-17.28,11.1,7.68
5.0531,-2.4789,-7.9679,-0.48533,0.51557,0.10873,-17.52,10.92,7.38
6.6331,-3.5413,-7.3141,-0.44013,0.5846,0.12553,-17.58,10.86,7.08
6.6331,-3.0782,-8.2539,-0.43341,0.44196,0.020769,-18.0,10.8,6.6
5.9112,-1.8932,-7.7636,-0.40256,0.42028,0.085521,-18.24,10.74,6.3
7.5048,-3.2961,-7.5048,-0.39859,0.2022,-0.041233,-18.36,10.68,5.94
6.4016,-3.5685,-8.7715,-0.41722,-0.10324,-0.08491,-18.6,10.2,5.52
5.0668,-2.9692,-7.2733,-0.47159,-0.12492,0.024129,-18.78,10.2,5.34
4.0044,-2.7104,-7.4776,-0.43005,0.12523,0.14111,-18.84,10.02,5.04
5.9521,-3.8001,-8.1722,-0.44502,0.12798,0.30146,-18.84,9.78,4.92
5.7614,-3.5958,-8.322,-0.45845,-0.14111,0.3488,-18.84,9.6,4.86
4.6445,-2.5061,-8.3493,-0.43035,-0.0039706,0.44838,-18.9,9.54,4.8
6.96,-4.2768,-8.5263,-0.42425,0.11057,0.45051,-19.02,9.48,4.86
5.4073,-2.9692,-9.0984,-0.42852,-0.17868,0.47709,-18.84,9.6,4.8
3.623,-0.89894,-8.9894,-0.47342,-0.15241,0.63652,-18.72,9.66,4.92
7.3822,-3.8001,-8.2539,-0.43524,-0.32345,0.59895,-18.48,9.72,4.98
6.4969,-2.5606,-8.7987,-0.51007,-0.4215,0.62217,-18.18,9.78,5.16
6.851,-3.3097,-8.1313,-0.50488,-0.29596,0.5733,-18.0,9.78,5.4
3.1463,-0.64016,-7.5457,-0.4163,-0.030849,0.67134,-17.7,10.08,5.7
7.355,-4.2904,-7.7772,-0.42364,-0.19578,0.53878,-17.52,10.14,5.88
6.1292,-5.4754,-8.322,-0.42516,-0.68295,0.43494,-17.34,10.32,6.12
3.5958,-3.2825,-7.1507,-0.3992,-0.58704,0.46884,-16.86,10.44,6.66
3.9227,-2.6968,-7.7908,-0.27275,-0.27703,0.45693,-16.5,10.62,6.9
4.6173,-2.6968,-7.4776,-0.26053,-0.30421,0.48411,-16.14,10.8,7.14
4.6445,-2.6423,-7.1507,-0.18815,-0.31185,0.52718,-15.78,11.04,7.2
3.3642,-1.1577,-7.3141,-0.030543,-0.26909,0.60659,-14.94,11.16,7.68
8.0905,-5.6252,-8.3493,-0.053145,-0.30329,0.52198,-14.58,11.34,7.8
5.8295,-5.8431,-8.8941,-0.17959,-1.0107,0.44166,-14.16,11.34,8.16
1.8932,-3.337,-7.5729,-0.17318,-0.57696,0.51343,-13.56,11.4,8.46
1.5527,-1.9613,-7.3686,-0.069944,-0.20189,0.68295,-13.14,11.52,8.88
3.7047,-3.3506,-7.8726,-0.10354,-0.14478,0.62522,-12.66,11.64,9.12
6.7557,-4.985,-8.5944,-0.21258,-0.34453,0.5226,-11.58,11.52,9.54
4.304,-4.6582,-7.0553,-0.17532,-0.35186,0.52534,-11.1,11.46,9.84
2.9284,-4.9169,-7.3414,-0.075747,-0.010996,0.47892,-10.56,11.4,10.08
4.9033,-5.0259,-7.2596,0.055283,-0.19823,0.47312,-9.66,11.64,10.56
3.3778,-3.2008,-7.5321,0.092546,-0.23702,0.45448,-9.12,11.52,10.86
3.9635,-3.5822,-7.3414,0.19303,-0.072693,0.49938,-8.52,11.4,11.16
4.9306,-6.9872,-6.3743,0.25045,-0.35888,0.34178,-7.5,11.58,11.82
2.5334,-5.094,-6.1973,0.31643,-0.46578,0.28986,-6.84,11.64,12.18
2.438,-4.6037,-6.4697,0.38087,-0.44593,0.28924,-6.12,11.82,12.48
3.6094,-5.38,-8.1722,0.35552,-0.42211,0.21228,-4.8,11.88,13.2
3.3778,-6.2245,-8.5536,0.22755,-0.41233,0.1909,-4.02,12.0,13.26
3.3778,-6.2245,-8.5536,0.13897,0.0042761,0.20006,-4.02,12.0,13.26
3.3778,-6.2245,-8.5536,0.16249,0.24618,0.25107,-4.02,12.0,13.26
3.4459,-6.0474,-8.0632,0.18357,0.10415,0.1799,-3.42,12.18,13.68
2.6696,-3.6775,-8.5672,0.16524,0.091019,0.20922,-1.8,12.66,14.46
2.8058,-3.9635,-7.8998,0.18112,0.34178,0.21411,-1.08,13.02,14.76
3.7592,-3.4732,-8.4174,0.051618,0.49083,0.10568,0.36,13.68,15.42
4.1542,-4.1951,-7.7364,-0.048258,0.45601,0.10599,1.02,13.86,15.66
4.1542,-5.8023,-7.069,-0.15149,0.22846,0.007025,2.28,14.46,16.38
3.2144,-6.0883,-6.1836,-0.16768,0.20067,-0.0281,3.72,14.64,17.22
1.5527,-4.7126,-6.5241,-0.18357,0.1909,-0.083689,4.98,15.0,17.88
4.0044,-4.9306,-7.4095,-0.13195,0.45937,-0.029627,6.0,15.9,18.72
7.2869,-8.3765,-9.5479,-0.3091,0.22083,-0.25504,6.84,16.26,19.56
4.0452,-6.6604,-9.2891,-0.43463,-0.024129,-0.20525,7.08,16.44,19.86
0.21793,-1.0488,-7.6546,-0.35919,0.60506,-0.073609,7.62,16.62,20.28
6.2926,-4.3585,-7.9407,-0.28375,0.89858,-0.091019,8.28,16.98,20.58
6.0338,-2.6968,-9.1256,-0.28772,0.54428,-0.098655,8.76,17.28,21.06
5.8704,-3.4187,-8.9894,-0.40103,0.36133,-0.074831,8.64,17.7,21.3
3.1191,-4.2223,-8.4855,-0.47953,0.30452,-0.076969,8.1,18.6,21.24
2.5606,-4.1542,-7.8998,-0.58215,0.48381,-0.059254,7.86,18.9,20.88
3.2689,-3.2144,-7.4776,-0.58338,0.54336,0.029322,7.14,19.26,20.34
6.1564,-2.833,-7.8317,-0.59956,0.34483,0.0012217,6.6,19.44,20.16
8.2539,-4.2223,-8.6898,-0.64874,0.093768,-0.17929,5.7,19.68,19.92
5.5843,-2.7649,-8.7715,-0.70524,0.016493,-0.24465,4.8,19.56,19.92
4.7399,-1.7706,-9.221,-0.70921,0.23366,-0.1799,3.9,19.26,19.92
6.5378,-3.6366,-8.8124,-0.68264,0.23854,-0.1127,3.54,19.14,19.86
4.3313,-2.1248,-10.038,-0.68081,0.27092,-0.01405,3.42,18.9,19.74
8.1177,-2.9692,-8.6489,-0.69058,0.29444,-0.091324,3.24,18.18,19.74
6.5786,-2.0431,-8.7306,-0.63041,0.12034,-0.15333,3.06,17.64,20.4
6.1564,-1.5663,-8.0905,-0.63469,0.010079,-0.18051,2.94,17.1,20.76
7.1779,-3.1599,-7.5457,-0.65973,0.01741,-0.26725,2.88,17.1,20.76
4.8352,-1.6344,-7.4503,-0.62094,-0.017715,-0.31948,2.94,16.68,20.94
4.4947,-0.89894,-7.4776,-0.55925,0.13561,-0.24435,2.94,16.44,21.0
6.1836,-1.1169,-7.5865,-0.53817,0.26603,-0.24832,2.76,15.9,21.06
6.674,-3.5549,-7.8862,-0.51924,-0.048564,-0.31857,2.34,15.72,20.94
5.8976,-2.8058,-6.1836,-0.37202,0.055283,-0.10873,1.98,15.36,21.18
7.4095,-4.3177,-6.9328,-0.21197,0.12126,-0.135,1.8,15.12,21.12
5.2302,-1.5663,-7.0009,-0.03146,-0.2022,-0.12217,1.26,14.46,21.36
7.0962,-3.8001,-7.5729,0.097433,-0.49786,-0.29047,0.96,13.8,21.36
4.2359,-2.2474,-5.9249,0.23213,-0.63469,-0.21961,0.96,13.32,21.48
5.5435,-3.9635,-5.775,0.42302,-0.4948,-0.23579,0.66,12.54,21.72
4.699,-4.7399,-6.7285,0.45723,-0.81734,-0.29505,1.08,12.06,21.9
3.9227,-4.1951,-7.0281,0.47464,-0.87537,-0.29199,1.38,12.12,21.9
3.6775,-3.6366,-8.3084,0.41753,-0.91202,-0.32559,2.1,12.06,22.02
2.833,-3.1599,-8.0224,0.35797,-0.72143,-0.17104,2.88,12.3,21.96
4.0725,-3.228,-8.54,0.32437,-0.64202,-0.19731,3.24,12.18,21.84
4.0725,-3.2553,-8.1313,0.37324,-0.48197,-0.089797,4.02,12.42,21.48
3.5685,-1.7434,-8.7851,0.45387,-0.40561,-0.072082,4.5,12.54,21.3
4.7399,-2.3427,-9.507,0.47006,-0.30391,-0.0082467,4.98,13.02,20.7
5.6388,-3.1735,-9.2482,0.40653,-0.3094,-0.047647,5.28,13.56,19.92
5.5162,-2.3018,-7.7091,0.31612,-0.25656,-0.096822,5.52,13.68,19.2
6.1564,-2.8194,-7.2324,0.35339,-0.21747,-0.13134,5.64,13.74,18.84
6.0474,-4.1951,-7.5865,0.37385,-0.51252,-0.18295,5.46,13.8,18.3
3.8273,-2.7377,-7.6274,0.37935,-0.68692,-0.15974,5.64,13.8,17.88
2.3291,-2.4244,-7.4503,0.39309,-0.53359,-0.08094,5.76,13.74,17.16
5.2166,-4.5083,-8.9213,0.40256,-0.22663,-0.053145,5.76,14.04,16.86
3.4868,-3.1872,-8.4038,0.29169,-0.2923,-0.082161,6.12,14.22,16.26
3.1191,-2.1248,-7.9951,0.31429,-0.11423,-0.052534,6.18,14.28,16.02
2.1248,-2.1112,-8.717,0.33201,-0.15699,0.034819,6.3,14.76,15.36
5.5571,-3.2553,-9.8203,0.29474,-0.047647,0.15027,6.3,15.06,14.94
5.6661,-4.0589,-9.3027,0.15027,-0.34819,0.12462,6.24,15.3,14.46
3.6366,-2.3427,-8.1177,0.12981,-0.1744,0.16554,6.0,15.48,13.92
4.2495,-3.8409,-7.7636,0.042455,-0.025045,0.18723,5.94,15.6,13.38
3.0101,-2.2746,-7.8317,0.092241,0.062308,0.3094,5.88,15.72,13.26
6.0202,-5.6661,-8.0769,0.032376,-0.15913,0.22388,5.76,15.78,12.72
2.9556,-3.7184,-7.8998,0.012828,-0.33323,0.21594,5.64,15.84,12.54
2.9011,-2.2474,-7.927,0.083994,0.037874,0.25779,5.28,15.84,12.12
4.1133,-4.6582,-8.0496,0.044593,-0.096517,0.18754,5.1,16.14,12.12
3.3506,-3.5958,-8.8124,-0.0012217,-0.32681,0.12614,5.1,15.84,12.0
3.1191,-3.2144,-8.4719,0.0064141,-0.22846,0.2025,5.16,15.84,11.88
3.3778,-4.7944,-8.2812,0.015577,-0.27092,0.1463,5.22,16.02,11.82
3.5685,-1.6753,-8.7034,0.02138,-0.13531,0.219,4.98,16.38,11.64
6.5105,-4.8625,-8.2539,0.028405,-0.015882,0.18998,4.86,16.8,11.58
5.6661,-4.8897,-8.2403,0.030238,-0.27031,0.07086,4.8,16.8,11.4
3.6775,-3.2553,-8.145,0.043677,-0.37721,0.013439,4.44,17.46,11.22
3.6094,-3.9635,-7.9815,0.08094,-0.36255,-0.0018326,4.26,17.88,11.28
3.9227,-2.4517,-8.3084,0.11118,-0.094684,-0.0015272,3.84,18.06,11.04
4.7671,-6.1428,-8.1995,0.052534,-0.17746,-0.025962,3.54,18.36,11.22
2.8739,-5.8976,-7.4503,0.0097738,-0.31185,-0.043677,3.36,18.72,11.1
0.6674,-2.8194,-6.8783,-0.015882,-0.14172,-0.0076358,2.94,19.02,10.92
3.2008,-4.0725,-6.7421,0.084605,0.39279,0.11851,2.58,19.2,11.04
4.4811,-6.8238,-7.2188,0.059865,0.17746,0.039401,2.28,19.38,11.04
2.0839,-4.6037,-7.3141,0.013134,0.084299,0.079718,1.8,19.5,10.68
1.7706,-3.5685,-6.2109,0.10629,0.25779,0.093462,1.5,19.62,10.8
2.6832,-8.5536,-7.0009,0.10324,0.1295,-0.033292,0.84,19.74,10.62
-0.054481,-3.4323,-7.5048,0.093768,0.080329,-0.068111,0.06,19.92,10.08
1.2939,-3.2825,-7.2869,0.10415,0.3653,-0.12767,-0.24,19.92,9.9
2.6015,-6.2654,-7.4503,0.16554,0.59162,-0.15882,-1.08,19.98,9.18
2.7922,-5.2302,-8.1722,0.14355,0.57024,-0.13073,-2.16,19.86,8.52
2.3155,-3.1872,-7.0962,0.22205,0.70799,0.000611,-2.64,19.86,8.28
4.1406,-5.2302,-8.0224,0.32406,0.69425,-0.013439,-3.84,19.86,7.32
1.471,-3.4732,-8.431,0.28527,0.37385,0.0097738,-4.8,19.62,6.48
1.6344,-1.8932,-7.4912,0.36011,0.7141,0.30391,-5.7,19.44,5.34
4.9714,-5.0259,-7.7908,0.39615,0.76328,0.29566,-6.18,19.2,4.74
4.1542,-4.3177,-9.6432,0.36102,0.37385,0.16188,-7.26,19.08,3.6
3.6094,-2.9965,-9.0712,0.24618,0.19242,0.23763,-8.16,18.84,2.7
3.6639,-7.7364,-8.6081,0.17685,-0.033598,0.15699,-8.7,18.66,2.1
0.65378,-2.0294,-9.8066,0.094684,0.12217,0.19303,-9.36,18.36,1.14
4.6582,-1.1713,-9.1529,0.038179,0.89125,0.3259,-10.08,17.88,0.54
8.5127,-4.5356,-9.2891,-0.020769,0.73854,0.22083,-10.5,17.46,-0.48
5.3528,-9.0303,-9.1937,-0.20922,-0.18509,0.18662,-11.1,16.8,-1.32
-0.54481,-0.054481,-8.4174,-0.19303,0.14661,0.45662,-11.76,16.14,-2.1
5.0123,-3.0237,-7.9543,-0.12614,0.6634,0.40439,-12.06,15.78,-2.28
6.6059,-4.0452,-8.4446,-0.066279,0.71257,0.42058,-12.24,14.64,-2.64
6.9191,-7.1371,-8.826,-0.26542,0.10385,0.1686,-12.54,13.8,-3.06
2.7786,-1.6481,-7.0826,-0.23366,0.14294,0.1518,-12.66,12.78,-3.36
5.2711,-4.1542,-7.1507,-0.24587,0.057421,0.022907,-12.78,12.12,-3.3
4.0861,-7.1915,-7.0281,-0.27031,-0.055589,0.010996,-12.72,11.28,-3.0
0.47671,0.16344,-7.1643,-0.197,0.22938,0.09499,-12.48,10.26,-2.76
9.2618,-8.826,-7.5184,-0.20983,0.13622,0.028711,-12.18,9.84,-2.4
-4.2904,-0.65378,-9.0439,-0.43127,-0.81306,-0.10965,-11.58,9.06,-1.98
-4.2223,5.7069,-4.8625,-0.27672,-0.0094684,0.32651,-11.22,8.58,-1.5
8.2403,-4.0452,-7.2188,-0.10934,0.97341,-0.085216,-10.86,8.16,-1.2
9.7249,-9.5206,-11.863,-0.46242,-0.81825,-0.084299,-9.96,7.74,-0.66
-1.4029,1.7162,-8.54,-0.55619,-0.41142,0.36377,-9.36,7.38,-0.24
2.2746,-3.6094,-4.5083,-0.22083,0.16952,0.40897,-8.7,7.14,0.3
2.656,-4.018,-8.6353,-0.16157,0.13256,0.17349,-7.56,7.14,1.38
3.8273,-3.8954,-7.8589,-0.15455,-0.22907,0.32009,-6.78,7.26,1.74
7.0281,-7.6002,-6.7966,-0.14478,-0.21777,0.17257,-6.18,7.44,1.92
1.3757,-2.7377,-8.3493,-0.10782,-0.35308,-0.069333,-4.92,7.8,2.46
1.9886,-2.152,-7.5184,-0.15149,-0.027489,0.015882,-4.2,8.22,2.82
8.4855,-11.536,-6.3743,-0.16585,-0.24923,-0.17043,-3.0,9.24,3.54
-0.84446,0.44947,-7.5321,-0.051007,-0.052229,0.10812,-2.52,9.78,3.72
1.2531,1.1577,-7.7364,-0.053756,-0.10293,0.12981,-2.28,10.32,3.78
6.2517,-6.2926,-8.7443,-0.022602,-0.33689,0.16371,-1.86,10.92,4.02
3.6911,-4.3858,-9.5751,-0.14936,-0.44685,0.085216,-1.32,12.06,4.38
2.4789,-4.9306,-7.2596,-0.10721,-0.29505,0.18357,-1.08,12.66,4.56
2.8603,-5.2166,-8.2812,-0.062308,-0.12553,0.065057,-1.08,13.26,4.56
3.2008,-5.775,-7.3822,-0.13592,-0.16646,0.13836,-1.08,14.16,4.56
1.8251,-0.28603,-8.6625,-0.096517,0.27733,0.14722,-1.2,14.7,4.68
5.3937,-2.9148,-8.6353,-0.16952,0.26878,0.10782,-1.32,15.0,4.92
2.8739,-3.3234,-7.9134,-0.25107,-0.092546,0.037568,-1.86,15.72,5.28
3.9635,-2.6696,-7.3005,-0.18021,0.1295,0.048564,-2.22,16.02,5.34
5.9385,-7.9951,-7.1507,-0.088881,-0.053756,0.033903,-2.52,16.26,5.34
1.7843,-0.47671,-9.1393,-0.098044,0.05284,0.070555,-3.3,16.68,5.7
3.6775,-4.5901,-9.1665,-0.14722,0.051007,0.197,-3.6,16.86,5.88
3.3642,-4.4947,-8.8124,-0.18601,-0.071166,0.14691,-3.96,17.04,6.12
3.7047,-0.68102,-8.6898,-0.14294,0.28344,0.12126,-4.62,17.34,6.6
7.069,-5.1213,-7.9543,-0.14936,0.24526,0.018631,-4.92,17.52,6.9
6.7421,-7.8317,-7.4912,-0.17257,-0.14386,-0.21014,-5.1,17.58,7.2
1.5255,-2.1929,-5.8023,-0.13897,-0.1295,-0.12614,-5.7,17.88,7.86
2.3018,-3.8273,-5.6116,-0.0036652,0.0030543,-0.11454,-6.0,17.88,8.16
2.3291,-6.0883,-7.6683,-0.028405,-0.17776,0.030238,-6.18,18.24,8.4
1.5936,-2.1793,-8.8124,-0.059865,0.030543,0.22663,-6.6,18.42,8.94
4.4539,-4.8488,-8.6353,-0.1124,0.19731,0.20708,-6.84,18.54,9.12
4.7671,-4.9033,-9.5342,-0.19028,0.18631,0.1576,-7.02,18.66,9.48
2.2882,-3.6094,-7.6138,-0.11729,0.17746,0.27092,-7.26,18.6,9.96
2.7649,-1.6753,-8.6898,-0.022297,0.24771,0.29719,-7.26,18.66,10.32
6.0611,-5.6933,-8.4719,-0.068722,0.08491,0.27917,-7.26,18.78,10.44
3.7456,-5.0259,-8.826,-0.063225,-0.23885,0.26664,-7.44,18.84,10.62
4.0861,-6.4697,-7.4503,-0.034819,-0.15485,0.23305,-7.8,18.96,10.92
4.0316,-7.5457,-7.75,-0.070555,-0.39859,0.10263,-7.92,19.2,11.16
1.2531,-5.5571,-7.6819,-0.030543,-0.36011,0.11637,-7.92,19.26,11.4
3.7592,-1.2122,-8.322,0.091935,0.45937,0.25137,-7.98,19.32,11.76
6.0066,-3.6366,-7.3958,0.13836,0.4893,0.27703,-8.1,19.26,12.06
6.9464,-6.0883,-7.8317,0.15272,0.16554,0.21869,-8.1,19.44,12.12
1.866,-4.7671,-8.2812,0.010385,-0.64019,0.18082,-7.8,19.62,12.42
0.61292,-2.1384,-7.6683,-0.0562,-0.10324,0.19578,-7.86,19.68,12.42
2.8603,-4.3585,-7.927,-0.089492,0.26481,0.22022,-7.8,19.86,12.6
4.6445,-3.2008,-8.1586,-0.13195,0.33292,0.219,-7.8,20.4,12.78
5.2438,-4.8352,-8.0224,-0.099266,0.080634,0.19823,-7.86,20.58,12.9
4.5764,-4.985,-9.0848,-0.097128,-0.063835,0.17746,-7.74,20.7,12.96
2.7786,-2.6696,-9.2346,-0.12675,-0.002138,0.24526,-7.56,20.82,13.08
2.9011,-1.9341,-8.0088,-0.097128,0.14936,0.27855,-7.56,20.88,12.96
4.5356,-3.514,-7.3277,0.053451,0.2364,0.1799,-7.62,21.06,12.84
3.0782,-4.0316,-8.0496,0.040623,-0.31979,0.072998,-7.32,21.24,12.9
3.0646,-4.5628,-7.7908,0.018631,-0.32803,0.040623,-7.14,21.36,12.78
2.7377,-5.8567,-7.3414,0.015577,-0.3091,0.028405,-7.14,21.48,12.84
1.8932,-4.127,-7.2596,-0.013744,0.044593,0.036957,-7.08,21.6,12.84
3.6775,-5.0395,-7.4912,-0.015272,0.16921,0.044899,-7.08,21.78,13.08
3.6094,-5.8295,-8.0905,-0.10537,0.048869,0.009163,-7.14,22.02,12.96
3.4459,-4.0589,-8.0496,-0.16768,0.11026,-0.020769,-6.96,21.96,13.02
3.6775,-4.8761,-7.641,-0.135,0.31857,0.014355,-6.96,21.9,13.02
2.9556,-3.9227,-7.5321,-0.065973,0.36438,0.054062,-6.96,21.96,13.2
4.018,-4.127,-8.1858,0.014966,0.26725,0.072388,-6.96,22.2,13.26
2.7922,-5.2166,-8.2948,0.011912,-0.012828,-0.010079,-6.84,22.2,13.44
2.1656,-0.89894,-8.3084,0.1069,0.30513,-0.06689,-6.84,22.38,13.44
4.985,-6.9872,-7.6819,0.075747,0.13622,-0.12981,-7.02,22.38,13.5
2.4925,-5.775,-8.0088,-0.0033598,-0.13439,-0.31796,-7.2,22.44,13.56
1.975,-2.7649,-7.641,-0.0088575,0.23518,-0.26237,-7.2,22.5,13.62
4.8897,-5.0123,-6.3335,0.029932,0.40287,-0.29016,-7.32,22.38,13.5
5.2302,-5.7886,-8.431,-0.07422,0.18051,-0.44471,-7.44,22.38,13.5
5.0668,-7.0553,-7.8317,-0.19364,-0.064141,-0.45326,-7.38,22.26,13.68
2.9284,-5.4754,-7.1643,-0.10599,-0.021686,-0.53298,-7.8,22.2,13.8
2.1112,-1.8115,-7.9679,0.0051924,0.45235,-0.46701,-7.92,22.2,13.8
3.5277,-1.975,-7.8317,0.040623,0.67928,-0.39645,-8.22,22.02,13.74
5.993,-5.598,-8.4855,-0.034208,0.38729,-0.47464,-8.64,21.54,13.62
3.1327,-3.6366,-7.1779,-0.048564,0.27764,-0.47709,-8.94,21.54,13.5
3.9499,-5.5707,-7.069,-0.094379,0.24893,-0.4945,-9.3,21.36,13.44
1.0351,-3.9227,-6.96,-0.039706,0.21441,-0.53787,-9.84,21.06,13.2
2.3018,-3.3642,-7.7772,-0.063835,0.51832,-0.46212,-10.02,20.7,13.08
4.4811,-4.9987,-8.4855,-0.18173,0.48381,-0.45021,-10.32,20.46,13.02
5.6661,-6.0747,-9.8748,-0.3259,0.31734,-0.4835,-10.74,20.4,12.96
1.471,-1.471,-8.0905,-0.23091,0.92821,-0.2587,-10.98,20.16,12.78
6.7693,-4.6718,-8.1177,-0.2251,0.956,-0.27917,-12.0,19.68,12.48
4.9578,-2.6968,-8.8941,-0.23121,0.75808,-0.17257,-12.42,19.44,12.24
5.7614,-3.7865,-7.9679,-0.26848,0.73243,-0.16402,-13.26,19.08,11.7
4.4266,-2.3699,-7.4776,-0.17287,0.64813,-0.16096,-13.56,18.9,11.52
5.7886,-3.5413,-7.641,-0.10079,0.64935,-0.14844,-13.74,18.66,11.34
5.2983,-3.6366,-7.5048,-0.054672,0.26725,-0.23579,-14.64,18.24,10.86
4.413,-2.0022,-7.6002,0.034208,0.35675,-0.18418,-14.88,18.0,10.74
4.9442,-2.2474,-8.3357,0.0058032,0.29138,-0.12462,-15.24,17.94,10.56
7.1507,-4.9442,-9.0167,-0.11423,0.1066,-0.21075,-16.02,17.58,10.08
5.1213,-3.8954,-7.4776,-0.10782,0.343,-0.13195,-16.38,17.34,9.72
3.2553,-2.3836,-6.7421,0.057116,0.80909,0.098349,-16.68,17.16,9.48
7.0281,-2.547,-8.4446,0.12339,0.54947,0.12339,-17.28,16.92,9.12
8.1858,-3.7592,-9.1393,0.089186,-0.026878,0.15852,-17.34,16.8,8.82
6.1428,-3.4051,-8.5808,0.045509,-0.19212,0.078802,-17.46,16.74,8.58
6.1564,-3.6366,-7.1507,0.10843,0.39584,0.13958,-17.76,16.68,8.22
7.0145,-4.9987,-7.5048,0.087659,-0.10599,0.054062,-17.88,16.62,8.16
4.522,-3.6366,-7.355,0.10446,-0.093157,0.097128,-18.12,16.5,7.92
5.38,-4.0861,-6.96,0.11179,0.051618,0.12981,-18.18,16.68,7.56
6.0883,-4.9306,-7.2188,0.071166,-0.10263,0.098655,-18.18,16.62,7.44
4.8625,-4.1542,-7.3686,0.05681,-0.11759,0.13683,-18.12,16.56,7.26
4.3585,-1.6753,-7.5457,0.1295,0.37293,0.47586,-18.24,16.86,7.02
9.4525,-3.228,-8.5263,0.075747,0.16616,0.42577,-18.3,16.86,7.02
7.9951,-5.7342,-8.0088,0.017104,-0.49358,0.32193,-18.3,16.98,6.9
4.7535,-2.9965,-8.322,0.22419,0.013134,0.62186,-18.12,17.28,6.9
6.674,-4.5492,-8.6353,0.21319,-0.28466,0.62583,-17.94,17.58,6.72
4.6309,-3.1327,-8.7306,0.20983,-0.50396,0.71319,-17.76,17.7,6.72
3.9499,-5.1485,-6.5786,0.17135,-0.4725,0.69272,-17.34,18.06,6.66
2.3972,-3.5277,-6.1973,0.22999,-0.16952,0.76694,-16.98,18.36,6.72
5.6388,-6.9872,-7.1234,0.13622,-0.43616,0.63072,-16.68,18.72,6.78
3.2825,-5.4345,-6.3335,0.14661,-0.47709,0.69914,-16.14,19.44,6.9
3.3778,-4.5764,-6.3879,0.146,-0.26328,0.7086,-15.78,19.74,7.02
3.6775,-5.1485,-6.3743,0.11301,-0.27825,0.70433,-15.42,20.22,6.96
5.3256,-4.8352,-7.6002,0.076053,-0.030238,0.78466,-14.52,20.88,7.08
6.7012,-6.96,-7.641,-0.028711,-0.3094,0.7254,-14.04,21.42,7.08
2.9284,-5.2847,-7.0009,0.043371,-0.13836,0.81428,-13.44,21.84,7.2
4.1951,-5.7614,-7.7364,0.068111,-0.086437,0.89247,-12.36,22.5,7.08
4.9306,-7.927,-7.6002,0.054978,-0.38882,0.84299,-12.0,22.8,7.32
1.7025,-6.0611,-7.5048,0.10415,-0.34239,0.8265,-11.58,23.34,7.44
3.8137,-6.3879,-7.1779,0.13011,0.14172,0.95417,-10.62,24.12,7.44
5.7478,-9.5479,-7.7364,-0.0015272,-0.26603,0.72937,-10.44,24.6,7.26
3.4187,-8.2267,-6.7966,0.025656,-0.27214,0.71868,-9.9,24.96,7.26
3.0237,-4.9033,-6.9328,0.12553,0.40989,0.85674,-9.0,25.62,7.14
4.2904,-5.8704,-8.1313,0.059865,0.28772,0.83963,-8.64,26.1,6.96
3.1735,-3.8137,-8.5808,-0.065057,0.33231,0.89767,-8.1,26.46,6.96
5.7342,-9.5751,-7.7636,-0.24099,0.17135,0.7086,-7.2,27.36,6.84
-0.51757,-4.0861,-7.3822,-0.24099,0.30177,0.72601,-6.72,27.54,6.78
1.362,-3.8273,-7.069,-0.23152,0.73059,0.77458,-6.36,27.84,6.6
3.623,-4.7944,-7.5321,-0.23915,0.73365,0.79321,-6.0,28.26,6.54
5.4481,-6.6059,-8.4038,-0.39156,0.42699,0.64568,-5.76,28.5,6.42
3.0918,-6.7012,-7.4095,-0.49022,0.25443,0.5229,-5.16,29.16,6.24
1.8524,-5.7205,-7.7091,-0.45326,0.30299,0.45509,-4.74,29.58,6.0
3.1327,-3.3642,-9.7385,-0.44104,0.41081,0.51282,-4.5,29.88,6.0
4.8488,-3.8001,-9.6704,-0.65179,0.14355,0.51496,-3.84,30.36,6.0
5.5707,-5.0259,-9.221,-0.7309,0.054367,0.4893,-3.42,30.6,6.06
6.4833,-7.8589,-8.6081,-0.94012,-0.33567,0.27611,-3.18,30.78,6.24
0.91256,-3.5413,-7.0281,-0.84422,0.010079,0.34147,-2.76,31.02,6.48
3.2144,-3.4596,-7.4503,-0.74617,0.39645,0.3094,-2.46,31.02,6.78
4.9442,-3.8409,-8.6489,-0.71074,0.34728,0.29963,-2.16,31.02,7.38
5.9793,-4.7807,-8.7987,-0.7532,0.11668,0.23091,-1.92,30.96,7.74
5.5707,-5.0531,-9.0575,-0.78893,-0.27061,0.038485,-1.8,30.9,8.1
3.8954,-3.3778,-9.0439,-0.80084,-0.16188,0.02138,-1.62,30.96,8.4
4.1406,-3.5413,-7.6002,-0.81215,0.058948,-0.043982,-1.2,30.6,9.18
5.6252,-3.4459,-7.3141,-0.76389,0.23457,-0.072388,-0.96,30.12,10.14
6.7829,-3.7456,-7.3822,-0.73059,-0.0281,-0.23579,-1.02,29.88,10.56
6.4969,-3.7728,-7.7364,-0.7138,-0.28863,-0.40317,-0.72,29.34,11.52
5.5435,-3.4323,-7.6819,-0.69608,-0.34086,-0.49114,-0.72,28.62,12.54
5.2847,-3.9635,-6.9328,-0.66035,-0.18021,-0.53665,-0.9,28.2,13.56
5.7342,-4.2359,-7.1098,-0.62094,-0.04948,-0.63408,-1.14,27.9,14.1
5.1485,-3.5822,-6.8238,-0.53726,-0.0012217,-0.6298,-1.26,27.66,14.4
6.5514,-2.261,-7.464,-0.4667,0.073915,-0.64507,-1.08,27.0,15.3
6.8374,-2.6015,-7.5729,-0.43921,0.01405,-0.6692,-1.2,26.34,15.96
6.1292,-3.5413,-7.2596,-0.40225,-0.042455,-0.70891,-1.74,25.68,16.38
4.2223,-3.8001,-6.8374,-0.37415,-0.12462,-0.72265,-2.04,25.32,16.98
4.3585,-3.0918,-6.3743,-0.25045,0.069944,-0.60476,-2.28,24.84,17.28
6.0611,-6.1019,-7.3958,-0.20678,-0.0054978,-0.6744,-2.46,24.48,17.22
2.9965,-3.7592,-6.3198,-0.22205,-0.15363,-0.76755,-2.88,24.0,17.64
3.3506,-2.833,-6.4152,-0.082161,0.059254,-0.73182,-3.18,23.4,18.0
4.3858,-4.5492,-7.4776,0.058338,-0.14325,-0.72143,-3.42,23.16,18.12
4.0316,-4.1542,-7.9951,0.074831,-0.2868,-0.78099,-4.26,22.86,18.18
3.3097,-2.7104,-7.4095,0.18784,-0.17318,-0.70616,-4.74,22.5,18.3
5.1213,-4.2223,-8.2539,0.26481,-0.28924,-0.69852,-5.16,22.14,18.42
4.7535,-3.9635,-7.7364,0.27611,-0.52412,-0.69516,-5.7,21.66,18.48
4.7807,-3.0782,-7.7636,0.42058,-0.63225,-0.65179,-6.24,21.36,18.72
5.1894,-4.9442,-8.7851,0.40684,-1.0886,-0.63011,-6.42,21.12,18.72
3.4187,-3.6911,-7.75,0.39218,-1.1451,-0.65271,-6.66,21.06,18.72
2.9148,-2.7649,-6.9872,0.46548,-0.86071,-0.5455,-6.6,20.94,18.66
4.5356,-4.4266,-7.0553,0.47037,-0.83108,-0.4835,-6.84,20.7,18.72
4.8625,-4.0589,-7.7636,0.49724,-1.1536,-0.50213,-6.78,20.7,18.96
4.6854,-4.5764,-8.1858,0.48564,-1.441,-0.50305,-6.54,20.82,18.96
1.6753,-3.2144,-7.9951,0.45479,-1.2938,-0.41111,-6.24,20.76,19.14
2.3291,-4.7263,-8.7306,0.4102,-0.51191,-0.40684,-5.76,20.82,19.26
1.5119,-4.3313,-8.5127,0.405,-0.16738,-0.29077,-5.64,20.94,19.2
2.5879,-3.6775,-9.0848,0.39401,-0.1182,-0.24038,-5.34,20.94,19.56
2.0839,-2.6696,-8.7034,0.3989,-0.21105,-0.17868,-4.98,21.18,19.68
2.1384,-2.0158,-8.54,0.45509,-0.057727,-0.078802,-4.92,21.24,19.68
4.9306,-5.4481,-10.161,0.39156,-0.037874,-0.057727,-4.8,21.36,19.56
1.185,-1.5391,-8.4446,0.31979,0.044288,0.0061087,-4.5,21.54,19.38
3.2825,-3.3234,-8.6898,0.28283,0.13195,0.05681,-4.38,21.54,19.38
2.7786,-4.0725,-8.9758,0.2248,-0.052534,0.17593,-4.44,21.6,19.38
3.2825,-3.5685,-10.038,0.16677,-0.02474,0.22327,-4.44,21.66,19.32
2.3427,-3.1327,-9.4525,0.092241,-0.0097738,0.24862,-4.32,21.96,19.08
2.2337,-2.8058,-9.7385,0.10293,0.057727,0.30421,-4.38,22.08,19.14
3.2825,-3.3097,-9.7113,0.0027489,0.009163,0.32193,-4.5,22.38,18.9
3.5413,-3.4868,-8.7851,-0.07086,0.027184,0.29566,-4.5,22.62,18.66
3.8954,-3.7728,-7.7636,-0.071777,0.047342,0.23946,-4.62,22.8,18.6
3.1872,-4.3585,-7.5184,-0.055589,-0.025656,0.21044,-4.44,23.04,18.48
3.9227,-3.9771,-8.3765,-0.012217,-0.037568,0.24679,-4.26,23.4,18.42
3.623,-4.5083,-9.0712,-0.079107,-0.28986,0.23457,-3.96,23.94,18.24
2.152,-3.2553,-8.5263,-0.021991,-0.12675,0.35064,-3.84,24.06,18.36
3.8818,-4.6173,-8.6898,0.010996,-0.18754,0.33109,-3.84,24.24,18.24
2.0294,-5.3392,-8.3629,-0.018021,-0.51954,0.25565,-3.66,24.3,18.12
2.2882,-2.7649,-7.7636,0.1011,-0.30085,0.22724,-3.3,24.48,18.0
3.7456,-4.5628,-7.7636,0.16982,-0.12614,0.20739,-3.12,24.48,18.18
2.9556,-5.8431,-7.927,0.15547,-0.44227,0.057727,-2.7,24.66,18.24
2.4517,-3.2144,-8.1177,0.14875,-0.2306,0.019853,-2.4,24.96,18.24
2.6696,-3.4187,-7.2596,0.18815,-0.078802,0.045204,-2.34,24.96,18.18
4.1678,-4.4811,-8.7306,0.1463,-0.052229,-0.043371,-2.1,24.96,18.36
2.3836,-5.1213,-7.75,0.017104,-0.26328,-0.027794,-2.1,25.08,18.18
1.4165,-2.8875,-8.1313,0.068722,-0.045815,0.0061087,-1.68,25.44,18.36
3.2416,-5.5707,-9.2346,0.033292,0.11912,0.081245,-1.62,25.56,18.42
1.6072,-4.699,-8.4855,-0.022602,-0.013439,0.05681,-1.5,26.04,18.54
2.2882,-2.8194,-8.826,0.038485,0.31062,0.084299,-1.44,26.04,18.42
3.6094,-5.1757,-9.1801,-0.0082467,0.26267,0.089492,-1.5,26.1,18.24
1.7025,-3.4187,-8.9894,-0.043066,0.1066,0.084299,-1.5,26.28,18.12
2.6015,-4.8216,-7.3686,-0.083078,0.15547,0.087354,-1.5,26.34,18.12
2.1248,-4.2359,-7.8453,-0.053145,0.12187,0.04948,-1.56,26.46,18.0
2.1112,-4.2495,-8.5672,-0.15944,0.10568,-0.018631,-1.74,26.58,17.88
1.6753,-3.4187,-8.2812,-0.15272,0.17715,-0.039401,-1.68,26.7,17.76
3.0918,-5.1349,-9.0712,-0.22907,0.1689,-0.054062,-1.92,26.7,17.88
2.2201,-3.3778,-8.1858,-0.28466,0.22816,-0.05681,-2.1,26.4,17.82
4.2087,-3.5004,-8.6762,-0.28222,0.42791,-0.060476,-2.4,26.28,17.64
4.0861,-3.3506,-8.1041,-0.30971,0.34056,-0.078802,-2.58,26.34,17.82
4.6037,-2.833,-8.2676,-0.26817,0.3653,-0.065668,-2.94,26.28,18.0
3.9771,-5.4618,-7.7091,-0.29688,0.18784,-0.13286,-3.48,26.16,18.18
2.833,-4.3177,-7.7636,-0.25809,0.16432,-0.18692,-3.72,26.16,18.3
4.1542,-4.6854,-8.2539,-0.28497,0.19761,-0.24435,-4.2,25.98,18.36
3.5549,-4.0316,-8.4446,-0.26481,0.20097,-0.3036,-4.62,25.68,18.42
3.8001,-4.0725,-8.1177,-0.24251,0.32834,-0.36163,-4.98,25.5,18.36
4.9033,-4.5764,-8.0224,-0.1909,0.37324,-0.39645,-5.58,25.5,18.36
4.5083,-4.8625,-8.322,-0.13622,0.16799,-0.49633,-6.06,25.14,18.54
4.3721,-3.732,-8.3765,-0.098655,0.1854,-0.48961,-6.6,24.9,18.42
4.3858,-3.8273,-8.5127,-0.086437,0.15272,-0.4609,-6.84,24.72,18.54
4.3449,-3.8137,-8.2812,-0.089797,0.15485,-0.47861,-7.32,24.12,18.48
3.3506,-4.3585,-7.8998,-0.13744,0.080634,-0.59071,-7.92,23.76,18.36
2.3836,-1.4301,-7.7091,-0.093462,0.19303,-0.53665,-8.52,23.34,18.48
5.1485,-3.5685,-8.0632,-0.076969,0.18601,-0.52595,-8.88,23.16,18.66
4.9033,-4.5628,-8.2131,-0.13164,-0.051924,-0.61392,-9.72,22.8,18.48
3.8682,-2.942,-8.0632,-0.16524,0.043677,-0.60812,-10.32,22.14,18.54
5.094,-4.5083,-8.036,-0.22694,0.091019,-0.63958,-10.56,21.48,18.36
3.1599,-3.4051,-7.355,-0.23915,0.033598,-0.62827,-11.16,21.18,18.36
5.3664,-3.8682,-7.8998,-0.17959,0.19487,-0.55253,-11.88,20.88,18.36
4.0316,-2.4517,-7.9134,-0.17898,-0.053756,-0.50305,-12.42,20.52,18.3
4.0861,-1.4846,-7.8045,-0.08094,0.063225,-0.42822,-12.66,20.22,18.18
6.2517,-3.8001,-9.3163,-0.076358,-0.13867,-0.46762,-13.26,19.68,18.24
3.0237,-2.2746,-8.2403,-0.072082,-0.31673,-0.45204,-13.56,19.32,18.42
3.1872,-2.3291,-8.826,0.021075,-0.13744,-0.39492,-13.86,18.84,18.66
3.8273,-3.1054,-9.1937,0.085216,0.044899,-0.24435,-14.28,18.42,18.66
5.2575,-4.1814,-10.011,0.084605,-0.10354,-0.29535,-14.4,18.36,18.78
3.5685,-2.0431,-8.7034,0.12675,-0.076358,-0.26298,-14.7,18.0,18.84
4.127,-2.4244,-8.3493,0.2251,0.092852,-0.21014,-14.82,17.58,18.96
5.1894,-3.1599,-8.4446,0.23671,0.0030543,-0.22083,-15.0,17.22,19.02
4.6445,-2.9284,-7.9679,0.24862,-0.11423,-0.19548,-15.12,17.28,18.96
4.9033,-3.2416,-7.9543,0.28466,-0.13439,-0.19303,-15.06,17.22,19.02
5.2711,-4.6309,-8.5263,0.26298,-0.3882,-0.27031,-15.3,16.92,18.54
2.8058,-2.8603,-7.2869,0.32437,-0.30207,-0.18387,-15.24,16.92,18.54
4.413,-3.2689,-8.4174,0.35369,-0.15333,-0.19914,-15.18,17.04,18.24
4.9306,-4.5083,-8.431,0.29413,-0.31215,-0.20311,-15.3,17.04,18.12
3.6503,-0.83084,-8.1586,0.38668,0.015272,-0.090713,-15.36,16.98,18.18
6.7148,-3.7184,-8.6625,0.37843,0.026878,-0.042455,-15.48,16.98,18.12
6.3198,-4.5356,-7.9815,0.31734,-0.36652,-0.047037,-15.66,16.98,18.0
3.9908,-4.6854,-8.6217,0.2584,-0.61728,-0.16646,-15.78,17.1,17.76
0.6674,-1.9205,-7.3277,0.34728,-0.32193,0.028711,-15.78,17.22,17.82
2.6832,-2.1656,-8.5944,0.33384,-0.13561,0.037568,-15.78,17.22,17.88
4.7399,-4.9033,-8.1313,0.19273,-0.44104,-0.029016,-15.9,17.22,17.94
2.6015,-3.4868,-7.5048,0.27519,-0.1909,-0.0048869,-15.9,17.34,18.0
3.9635,-5.3528,-7.8589,0.28436,-0.33445,0.0097738,-15.84,17.34,18.0
3.1735,-3.337,-8.6489,0.33078,-0.26512,0.081245,-15.72,17.34,18.06
4.2904,-4.6445,-8.4582,0.28955,-0.26176,0.086743,-15.78,17.52,18.06
3.5413,-4.6718,-8.0224,0.25992,-0.2981,0.065363,-15.72,17.58,18.18
2.2882,-3.2416,-7.927,0.2645,-0.14325,0.076664,-15.54,17.7,18.06
4.4675,-5.489,-7.9815,0.20525,-0.16616,0.026573,-15.42,17.88,18.18
3.6366,-5.9521,-7.5457,0.21502,-0.16585,0.0079412,-15.3,17.94,18.12
2.1384,-4.0997,-7.464,0.22266,0.026878,0.046731,-15.24,18.06,18.24
3.4187,-5.5707,-7.9679,0.19273,-0.13011,0.098349,-15.18,18.24,18.3
2.8739,-5.5299,-7.7908,0.17868,-0.14111,0.10171,-15.06,18.24,18.3
1.9613,-3.8001,-7.7227,0.23121,0.0045815,0.13744,-15.0,18.3,18.18
4.3721,-5.094,-8.8805,0.23518,0.026267,0.17837,-14.94,18.36,18.18
4.0316,-5.1485,-9.3163,0.098349,-0.11668,0.088881,-14.88,18.42,18.18
2.6696,-3.909,-7.7091,0.11515,0.10996,0.16768,-14.94,18.42,18.24
3.7728,-4.6037,-7.8589,0.146,0.13836,0.15272,-14.7,18.42,18.06
4.018,-5.4481,-8.3901,0.087965,0.012523,0.13744,-14.52,18.36,17.94
3.0918,-3.7456,-7.8453,-0.013134,0.072388,0.1182,-14.4,18.6,17.82
2.3427,-3.6094,-7.6002,0.014661,0.24526,0.17318,-14.34,18.66,17.76
4.018,-4.8488,-8.4855,-0.057421,0.20586,0.10965,-14.34,18.6,17.64
3.7456,-4.8352,-8.5808,-0.10171,0.22388,0.11484,-14.22,18.6,17.46
3.0237,-3.9363,-7.9679,-0.15882,0.37232,0.064141,-14.16,18.78,17.34
3.0918,-4.2904,-8.1586,-0.1628,0.36377,0.064141,-14.28,18.66,17.16
3.5549,-4.6445,-8.7987,-0.19884,0.3204,0.026267,-14.28,18.6,17.04
2.9556,-4.4811,-8.7443,-0.25534,0.34239,0.027184,-14.28,18.66,16.92
3.0237,-5.3937,-9.1937,-0.29963,0.3375,0.01405,-14.22,18.72,16.74
1.1305,-1.0896,-8.8668,-0.219,0.57116,0.12614,-14.1,18.84,16.8
2.7104,-0.55843,-9.8475,-0.26848,0.55741,0.15088,-14.22,18.78,16.86
5.6116,-3.8137,-9.0303,-0.33872,0.14264,0.12553,-14.58,18.78,16.8
5.094,-4.3313,-8.4446,-0.40287,-0.016493,0.021686,-14.64,18.72,16.86
3.3097,-4.8625,-7.2596,-0.40073,0.08094,-0.0562,-14.7,18.48,16.74
3.514,-4.3313,-7.5865,-0.38973,0.16127,-0.11759,-14.82,18.54,16.74
3.7865,-4.7671,-7.7364,-0.40928,0.17746,-0.15791,-14.82,18.48,16.86
3.7047,-3.2144,-7.4503,-0.37904,0.31521,-0.16463,-15.06,18.36,16.92
5.5843,-3.5958,-7.7908,-0.35583,0.38026,-0.20311,-15.12,18.18,16.92
6.17,-3.9227,-7.7772,-0.31826,0.39004,-0.22785,-15.36,18.06,16.98
5.203,-4.6854,-8.1177,-0.31857,0.21838,-0.31551,-15.66,18.0,17.16
2.833,-2.2746,-7.8589,-0.24282,0.17501,-0.24618,-15.78,17.7,17.1
4.7535,-2.1793,-8.0769,-0.17532,0.39065,-0.17868,-16.02,17.46,16.92
6.96,-5.203,-8.3493,-0.24068,0.18509,-0.35094,-16.26,17.46,16.86
2.3155,-3.5958,-8.145,-0.27703,-0.019242,-0.39126,-16.56,17.22,16.98
1.8932,-1.975,-7.2733,-0.20189,0.24954,-0.28344,-16.8,17.1,16.86
4.3994,-3.4868,-7.9407,-0.15363,0.31185,-0.36011,-17.4,16.74,16.68
4.7399,-3.7728,-7.7091,-0.1744,0.27458,-0.42516,-17.58,16.44,16.74
4.2223,-2.2337,-7.3277,-0.11026,0.38118,-0.38362,-18.06,16.26,16.68
5.4481,-3.6775,-7.2324,-0.052534,0.36957,-0.37507,-18.18,15.96,16.56
4.8488,-2.3291,-8.145,-0.030849,0.10507,-0.41478,-18.48,15.54,16.5
5.4209,-3.6775,-7.6683,-0.078802,0.09896,-0.49327,-18.84,15.06,16.14
4.2495,-3.0101,-7.1507,-0.07422,0.19456,-0.44593,-19.14,14.7,16.08
2.8467,-1.6344,-7.0009,-0.048869,0.2416,-0.39676,-19.32,14.4,15.96
6.0066,-4.3177,-8.0224,-0.047647,0.1573,-0.30146,-19.92,13.92,15.72
5.38,-4.2087,-8.3765,-0.087965,-0.20433,-0.34636,-20.1,13.5,15.6
4.0452,-2.7922,-8.3357,-0.044593,-0.1854,-0.24587,-20.28,13.2,15.36
5.2847,-4.8625,-9.6704,-0.066279,-0.23182,-0.26023,-20.76,12.54,15.18
2.9692,-2.152,-8.8941,-0.0051924,-0.044899,-0.13256,-20.94,12.36,15.24
3.6503,-1.1305,-8.7306,0.057116,0.0039706,-0.11851,-21.3,11.94,15.18
4.413,-1.0896,-8.0905,0.24099,0.22235,0.11454,-21.3,11.7,15.18
6.6876,-2.7922,-8.6081,0.16157,-0.16005,-0.020769,-21.6,11.58,15.12
4.127,-3.4459,-7.3141,0.18082,-0.37049,0.022602,-21.9,11.52,15.12
3.051,-2.2201,-7.0553,0.30055,-0.21014,-0.000916,-21.84,11.4,15.18
4.9714,-4.1814,-7.355,0.31857,-0.25412,0.03543,-21.84,11.34,15.18
4.2359,-3.228,-7.6274,0.3937,-0.36988,-0.040012,-22.08,11.22,15.18
5.2438,-3.4459,-7.9951,0.43035,-0.19548,0.033598,-21.96,11.16,15.36
6.4016,-5.094,-8.5808,0.35552,-0.38759,-0.041539,-22.02,11.1,15.42
2.6696,-1.6753,-7.2733,0.44043,0.0033598,0.10965,-22.02,11.22,15.36
6.9055,-5.4209,-8.7443,0.33934,-0.2981,0.02138,-22.02,11.4,15.54
3.732,-4.5083,-7.6002,0.3372,-0.40103,0.13592,-22.02,11.34,15.66
4.0861,-3.8001,-8.6762,0.33934,-0.27214,0.17593,-21.84,11.58,15.78
3.732,-5.2166,-8.54,0.30696,-0.3149,0.26634,-21.72,11.64,15.78
2.2065,-2.3972,-8.6353,0.33689,-0.30116,0.28741,-21.54,11.82,15.9
3.8682,-4.413,-8.3901,0.27092,-0.21441,0.28619,-21.36,12.24,16.08
4.5083,-5.1213,-8.8124,0.21869,-0.23885,0.20525,-21.42,12.36,16.08
2.8603,-5.0259,-7.9951,0.20097,-0.19639,0.25045,-21.3,12.72,16.08
2.4925,-3.6503,-7.2596,0.23518,0.14172,0.38973,-20.94,13.2,16.14
5.9521,-5.0123,-9.2482,0.19853,0.0085521,0.34422,-20.82,13.62,16.08
6.9191,-6.8783,-9.2618,0.09499,-0.23946,0.25168,-20.64,13.86,15.96
1.8932,-2.7922,-7.2869,0.13011,-0.027184,0.38851,-20.64,14.16,16.14
5.7205,-6.2517,-7.927,0.066279,0.0067195,0.32834,-20.4,14.7,16.26
2.2882,-4.2904,-7.1234,0.073609,-0.1069,0.35888,-20.22,15.12,16.14
4.699,-3.7047,-7.2869,0.049175,-0.06689,0.31521,-19.86,15.66,16.2
1.8387,-3.7047,-7.069,0.10812,-0.14355,0.37446,-19.8,16.02,16.2
4.0589,-4.6718,-8.4719,0.076664,-0.12401,0.36377,-19.74,16.2,16.2
4.7399,-6.3198,-7.7227,0.069944,-0.28161,0.30818,-19.44,16.44,16.26
3.0101,-6.1292,-7.3958,0.10537,-0.17746,0.21441,-19.02,17.16,16.38
1.4438,-5.2166,-6.3198,0.1179,-0.058948,0.25015,-18.84,17.28,16.32
3.6094,-4.5083,-7.5048,0.17959,0.1854,0.28314,-18.72,17.52,16.38
3.7865,-6.565,-7.7091,0.051618,0.12309,0.19853,-18.66,17.94,16.62
2.5061,-3.9227,-8.2539,-0.000611,0.22755,0.17959,-18.48,18.12,16.8
3.0101,-4.4539,-8.0632,-0.065668,0.38454,0.26176,-18.3,18.18,16.8
3.1054,-4.1814,-8.322,-0.099266,0.49236,0.2532,-18.12,18.6,16.86
4.5764,-6.7285,-9.0575,-0.1857,0.35247,0.18051,-18.0,18.6,16.92
2.7241,-6.3607,-7.464,-0.16768,0.3091,0.17257,-18.0,18.78,16.92
3.2553,-4.7399,-8.3493,-0.11851,0.55741,0.19945,-18.0,18.96,16.8
3.1327,-4.9442,-8.1586,-0.13011,0.49969,0.23885,-17.88,19.02,16.86
3.5413,-3.9908,-8.3357,-0.11423,0.60476,0.24771,-18.0,19.02,16.74
5.1213,-5.0804,-8.4174,-0.18876,0.49511,0.18509,-18.06,19.14,16.5
3.3097,-4.6445,-8.4446,-0.23732,0.44043,0.15821,-18.48,19.2,16.44
2.3836,-3.4459,-8.2948,-0.26328,0.59223,0.23854,-18.48,19.2,16.32
4.127,-3.8409,-8.9077,-0.30329,0.58338,0.23549,-18.6,19.14,15.96
3.7728,-3.4596,-8.7034,-0.41233,0.57879,0.27245,-18.72,19.26,15.84
3.9635,-3.4323,-8.2403,-0.43249,0.62033,0.28558,-18.9,19.26,15.66
6.7557,-6.4424,-8.0632,-0.54275,0.5568,0.1744,-19.14,19.2,15.24
3.732,-4.8352,-8.2403,-0.60292,0.47709,0.15272,-19.44,19.44,15.12
2.3972,-0.6674,-6.9464,-0.56902,0.82222,0.27947,-19.5,19.14,14.94
7.4503,-6.1019,-7.8589,-0.53603,0.54428,0.043677,-19.8,19.26,14.7
4.9714,-3.4732,-7.8317,-0.51221,0.27061,0.0018326,-20.16,19.26,14.58
5.5571,-4.8352,-7.5184,-0.47373,0.32315,-0.043677,-20.28,19.26,14.46
4.0452,-3.6775,-7.6683,-0.37935,0.40225,-0.011606,-20.64,19.2,14.52
5.8023,-3.0373,-8.1586,-0.38362,0.39767,-0.025656,-20.46,18.9,14.46
6.8919,-5.5162,-7.4095,-0.45723,0.076358,-0.18601,-20.94,18.78,14.34
3.6094,-4.7671,-6.9191,-0.41081,0.22144,-0.25473,-21.06,18.54,14.34
2.6832,-2.5606,-6.5786,-0.38362,0.30207,-0.21258,-21.18,18.36,14.28
3.732,-2.2337,-6.7285,-0.25107,0.57085,-0.06017,-21.42,18.24,14.22
6.8374,-6.7148,-7.5184,-0.35797,-0.1182,-0.31368,-21.6,17.76,14.1
2.9692,-2.8467,-7.3822,-0.27855,0.12645,-0.22174,-21.72,17.4,13.98
4.8897,-3.2416,-7.1915,-0.23335,0.35247,-0.26084,-22.2,17.22,14.1
5.2575,-3.8001,-7.7636,-0.16157,0.0015272,-0.34453,-22.26,16.92,14.16
4.8352,-2.1929,-7.246,-0.10476,0.16829,-0.27733,-22.26,16.62,14.16
7.3141,-4.6173,-7.5184,-0.15699,-0.091324,-0.40225,-22.44,16.38,14.34
3.3097,-2.1248,-7.1507,-0.11362,-0.11332,-0.35277,-22.56,15.78,14.16
5.8431,-4.1406,-7.7636,-0.09163,0.11209,-0.29566,-22.8,15.6,14.28
5.9657,-5.1076,-7.8862,-0.13683,-0.2642,-0.3598,-23.04,15.36,14.34
4.7263,-1.8932,-8.4991,-0.08094,-0.043677,-0.18906,-23.22,14.94,14.4
6.5786,-4.6445,-8.2539,-0.20495,-0.087354,-0.19517,-23.22,14.64,14.46
4.8625,-3.3915,-7.8181,-0.16157,-0.072082,-0.13714,-23.28,14.34,14.58
5.1894,-1.9205,-8.2403,-0.13195,0.073609,-0.073609,-23.4,14.1,14.7
5.1757,-1.7162,-8.0905,-0.063835,0.015272,0.016188,-23.46,13.92,15.0
7.3141,-3.4459,-9.0303,-0.11515,-0.18967,-0.052229,-23.46,13.56,15.0
3.6503,-0.88532,-7.8045,-0.096822,-0.2981,0.066279,-23.34,13.38,14.88
5.8295,-2.6423,-8.2131,0.0048869,-0.0061087,0.079412,-23.34,13.2,15.0
6.674,-4.0861,-8.1313,0.028711,-0.29016,0.043371,-23.28,13.08,15.06
4.5901,-1.5119,-7.6819,0.096211,-0.10201,0.10232,-23.22,12.9,15.18
7.0417,-3.6094,-7.4776,0.060781,-0.27733,-0.0088575,-23.22,12.6,15.3
5.5571,-3.7047,-7.1234,0.064752,-0.31918,-0.029932,-23.04,12.66,15.36
3.5685,-1.8796,-6.565,0.15272,-0.02474,0.061087,-23.04,12.6,15.48
7.2324,-4.4675,-7.5457,0.14875,-0.2529,-0.0012217,-22.86,12.66,15.84
5.094,-3.732,-7.3822,0.17562,-0.35766,0.051924,-22.56,12.78,15.96
4.7263,-3.0373,-7.7364,0.18601,-0.29199,0.041539,-22.26,12.84,16.08
4.7944,-3.337,-7.927,0.13897,-0.28986,-0.0015272,-22.02,12.84,16.14
4.5492,-2.4789,-7.9679,0.17868,-0.0027489,0.087965,-21.78,13.08,16.2
6.7829,-3.909,-8.6489,0.15669,-0.13164,0.065668,-21.6,13.08,16.26
6.7829,-3.909,-8.6489,0.15669,-0.13164,0.065668,-21.6,13.08,16.26
4.8625,-2.5742,-8.717,0.22388,-0.135,0.1967,-21.24,13.26,16.38
5.6388,-3.5413,-8.036,0.23457,-0.11087,0.30299,-21.0,13.38,16.38
7.6955,-5.2575,-8.0905,0.16188,-0.11851,0.19273,-20.58,13.86,16.26
5.1349,-5.4209,-7.1234,0.13286,-0.54153,0.13531,-20.22,14.16,16.44
4.1814,-4.2904,-7.0962,0.17929,-0.23396,0.1799,-19.62,14.64,16.2
3.8001,-4.5083,-6.9328,0.18448,-0.25595,0.13653,-19.38,14.7,16.26
4.2904,-2.8603,-7.4503,0.20128,-0.17623,0.16066,-19.08,14.94,16.08
4.6582,-4.2223,-7.355,0.077885,-0.48106,0.017715,-18.78,15.48,16.14
2.942,-1.4165,-7.1507,0.14447,-0.135,0.097738,-18.42,15.66,16.26
5.8976,-5.8295,-7.7364,0.060781,-0.23274,0.0281,-18.0,15.9,16.14
2.6832,-3.7047,-7.3141,0.094073,-0.32987,0.1069,-17.82,16.14,16.32
5.993,-4.1542,-8.6353,0.054672,-0.22144,0.055283,-17.58,16.44,16.44
2.9148,-4.5901,-6.9872,-0.0076358,-0.54978,0.049175,-17.1,16.8,16.56
3.6911,-2.6151,-7.7091,0.042761,-0.18784,0.029627,-16.8,16.92,16.68
4.6854,-4.699,-7.7636,0.009163,-0.30849,0.038179,-16.56,17.04,16.8
4.808,-4.9714,-7.6683,0.018631,-0.26145,-0.017104,-16.32,17.46,16.92
4.3858,-4.7944,-7.2869,-0.012217,-0.27092,-0.051007,-15.96,17.64,17.1
3.1599,-2.942,-6.8238,0.0094684,-0.094684,0.0094684,-15.72,17.82,16.98
3.9499,-3.8682,-7.8453,-0.059865,-0.10904,-0.000305,-15.3,18.06,17.22
3.9499,-2.6015,-7.4095,-0.06017,0.13134,0.026573,-15.12,18.24,17.1
6.2926,-6.3879,-8.5944,-0.097128,0.13347,0.02474,-14.94,18.36,17.16
4.0861,-5.2711,-7.927,-0.14966,0.0073304,0.035125,-14.7,18.54,17.34
4.699,-3.5685,-8.4855,-0.10415,0.31673,0.051924,-14.52,18.84,17.34
5.0123,-4.4266,-8.6625,-0.14844,0.071166,0.029627,-14.46,18.96,17.4
5.5162,-4.1406,-9.5479,-0.13806,0.14294,-0.0067195,-14.4,19.14,17.52
2.4653,-2.7649,-7.8589,-0.25809,-0.032987,-0.069028,-14.34,19.2,17.46
3.2553,-1.5391,-7.6546,-0.16524,0.36682,0.027184,-14.22,19.26,17.52
6.3198,-4.6718,-8.5127,-0.23793,0.3375,-0.0085521,-14.22,19.2,17.64
4.4402,-2.547,-7.2869,-0.20983,0.25015,0.0048869,-14.4,19.26,17.64
4.9987,-2.7649,-7.6683,-0.18387,0.24099,0.0562,-14.4,19.32,17.64
5.5299,-4.3313,-7.9951,-0.197,0.24618,0.089186,-14.58,19.32,17.64
4.2904,-3.8001,-8.0496,-0.27245,0.11881,-0.045509,-14.88,19.26,17.64
4.3313,-3.4732,-7.4095,-0.2474,0.38087,-0.038485,-14.94,19.2,17.64
4.9306,-4.8625,-7.5457,-0.2361,0.35675,-0.094073,-15.0,19.32,17.58
5.6116,-3.9499,-7.8317,-0.208,0.4215,-0.075442,-15.0,19.08,17.34
5.7614,-4.4402,-8.0905,-0.19273,0.011912,-0.13714,-15.06,19.02,17.22
3.5413,-1.3212,-7.5048,-0.071166,0.19975,-0.059865,-15.42,18.84,17.16
6.5105,-1.5663,-8.4855,-0.079107,0.19731,-0.037874,-15.48,18.78,17.1
7.464,-4.7535,-8.2948,-0.13073,-0.04948,-0.13958,-15.72,18.72,16.98
5.5571,-4.3177,-7.4503,-0.10537,0.05284,-0.20006,-15.9,18.78,16.86
3.9227,-3.4732,-6.6604,-0.036957,0.16921,-0.20067,-16.14,18.6,16.74
5.1485,-3.514,-7.1915,0.042761,0.1912,-0.25473,-16.32,18.54,16.62
5.7342,-3.5685,-7.8181,-0.029322,0.015882,-0.29291,-16.44,18.48,16.44
5.3256,-3.5685,-7.4503,-0.037874,0.13286,-0.32376,-16.44,18.3,16.44
5.2166,-3.0101,-7.464,-0.026267,0.18998,-0.32132,-16.56,18.18,16.5
5.094,-1.8387,-7.3414,0.028711,0.24648,-0.25717,-17.04,17.88,16.44
6.674,-3.3097,-7.5593,0.068722,0.20739,-0.22174,-17.4,17.94,16.44
7.2188,-5.2847,-8.1177,-0.0030543,-0.14691,-0.3543,-17.7,17.88,16.38
2.6832,-2.2882,-7.1507,0.065668,0.11668,-0.29596,-17.88,17.88,16.14
4.0861,-2.8603,-7.4367,0.06017,0.16005,-0.24099,-18.12,17.88,16.08
5.8023,-3.4732,-7.6546,0.044288,0.12431,-0.26145,-18.42,17.82,15.96
5.4073,-3.1463,-7.246,0.084299,0.07422,-0.28405,-18.6,17.4,15.84
5.3119,-3.2553,-7.3958,0.12065,0.015577,-0.23518,-18.84,17.46,15.72
5.9112,-4.2904,-7.7091,0.096822,-0.16402,-0.28558,-18.96,17.22,15.66
5.094,-4.0316,-7.8589,0.12584,-0.18723,-0.2642,-19.26,16.98,15.6
4.4811,-4.1133,-7.4503,0.15363,-0.25748,-0.30177,-19.38,16.92,15.48
2.8603,-2.0294,-7.0553,0.34422,-0.079412,-0.15363,-19.68,16.98,15.3
6.4969,-4.5764,-9.3572,0.28466,-0.2303,-0.14447,-19.92,16.86,15.0
4.4266,-3.6639,-8.2948,0.24496,-0.31734,-0.1014,-19.86,16.74,15.0
4.8897,-4.2087,-7.464,0.25198,-0.1182,-0.069639,-19.86,16.5,14.88
3.3778,-1.9477,-6.7285,0.34728,0.022907,-0.024129,-19.86,16.32,14.88
5.4073,-3.2825,-7.1643,0.38882,0.06689,-0.024129,-19.86,16.32,14.82
5.5299,-3.623,-7.7364,0.42974,-0.14569,0.062919,-19.8,16.2,14.7
5.8976,-7.0145,-8.036,0.25229,-0.61239,-0.099571,-19.8,16.08,14.52
1.1169,-0.83084,-6.1292,0.39737,-0.14019,0.057421,-19.86,16.02,14.52
3.9227,-3.9908,-7.5457,0.45632,-0.0064141,0.099876,-19.92,16.02,14.64
4.1678,-5.2983,-7.7364,0.39034,-0.20983,0.057421,-20.04,16.08,14.28
4.0861,-3.1327,-8.1586,0.34208,0.0073304,0.019548,-20.1,16.32,14.28
5.4754,-5.4481,-7.9679,0.30727,-0.0033598,0.0076358,-19.92,16.44,14.22
3.3506,-3.9635,-7.6274,0.33659,0.28344,0.073609,-19.86,16.62,14.16
3.5549,-3.8001,-7.641,0.27458,0.38698,0.18692,-19.92,16.86,13.98
3.8954,-4.2904,-6.96,0.32254,0.48381,0.27672,-19.86,17.04,13.8
6.1564,-6.3743,-8.6217,0.20372,0.19578,0.22174,-19.92,17.46,13.44
3.1054,-2.6423,-8.0496,0.18234,0.3879,0.36072,-19.92,17.52,13.32
3.4868,-2.4789,-7.8862,0.18326,0.58704,0.4328,-19.8,17.7,13.14
7.0553,-6.0202,-8.2539,0.092241,0.22846,0.34208,-19.92,18.36,12.72
2.7786,-2.833,-8.322,0.08827,0.11576,0.39676,-19.74,18.6,12.36
4.6718,-3.2553,-8.5263,0.012217,0.21686,0.43402,-19.74,18.84,11.94
4.1951,-5.6388,-8.0224,-0.069333,-0.044593,0.34636,-19.56,19.26,11.46
1.5663,-0.76274,-7.8045,-0.072082,0.30055,0.47098,-19.5,19.26,11.34
6.5105,-4.304,-7.5184,-0.092852,0.1631,0.33964,-19.44,19.32,11.1
5.203,-5.0395,-8.6081,-0.208,-0.095295,0.26176,-19.26,19.92,10.74
3.4051,-3.7047,-7.9951,-0.3262,0.017104,0.33598,-19.08,19.92,10.56
3.8273,-4.0589,-6.9328,-0.34667,0.19395,0.35216,-19.08,20.1,10.26
3.7728,-3.5685,-7.7636,-0.3372,0.135,0.36866,-18.9,20.52,10.02
3.9771,-2.7513,-8.145,-0.34911,0.18601,0.47831,-18.66,20.82,9.84
5.1485,-2.7377,-7.0553,-0.30788,0.061087,0.40256,-18.66,21.06,9.84
5.0531,-5.9657,-8.6762,-0.40928,-0.32345,0.34025,-18.12,21.12,9.96
3.3097,-4.9987,-7.4503,-0.41142,-0.10812,0.41722,-18.0,21.24,9.96
2.7922,-3.2416,-6.5105,-0.27275,0.11668,0.40806,-17.82,21.36,9.96
6.6604,-6.2926,-8.2676,-0.20556,0.087965,0.37324,-17.52,21.72,10.08
3.337,-4.4539,-7.5729,-0.23885,-0.25779,0.3656,-17.28,21.96,10.08
2.9011,-2.8875,-7.3277,-0.21411,-0.11729,0.37813,-17.16,22.2,10.08
7.5321,-7.8181,-7.9134,-0.26573,-0.18662,0.14416,-17.04,22.2,10.02
0.29965,-1.362,-6.8102,-0.19487,0.038179,0.23915,-16.74,22.44,10.5
5.6388,-3.7728,-6.96,-0.19517,0.30818,0.19517,-16.56,22.5,10.62
6.9736,-7.0417,-7.1915,-0.14569,-0.097738,0.11912,-16.26,22.56,10.86
3.4051,-2.0703,-7.7091,-0.15608,0.12278,0.21228,-16.26,22.62,10.92
6.5786,-6.2109,-7.6683,-0.19028,0.12462,0.19303,-15.96,22.56,10.98
6.2245,-8.1586,-7.75,-0.26359,-0.19884,-0.034208,-15.9,22.74,10.98
1.3757,-1.7979,-7.355,-0.16554,0.32162,0.076053,-15.66,22.86,11.34
4.7671,-4.7671,-7.6819,-0.20281,0.39309,0.087965,-15.6,22.92,11.52
5.8704,-6.4424,-8.826,-0.2868,0.10049,-0.012217,-15.42,22.86,11.58
2.6832,-2.152,-7.7364,-0.22785,0.2532,0.12981,-15.18,22.92,11.58
5.5843,-4.3177,-8.5536,-0.25076,0.15974,0.04215,-15.18,22.74,11.7
4.5083,-5.1485,-9.0303,-0.26176,0.082161,0.044288,-15.12,22.74,11.76
4.6037,-1.7706,-8.7851,-0.2923,0.40928,0.27214,-15.18,22.62,11.58
6.0202,-5.7614,-8.0632,-0.27825,0.19578,0.17043,-15.06,22.56,11.64
3.5685,-2.3018,-8.2403,-0.27886,0.13806,0.3204,-15.06,22.44,11.58
6.0338,-2.833,-7.1643,-0.27611,0.36133,0.23396,-14.88,22.32,11.76
7.246,-4.808,-7.7636,-0.32803,0.075747,0.059559,-14.94,22.26,11.7
5.3119,-4.0861,-7.4912,-0.35064,0.045509,0.075136,-15.06,22.2,11.76
3.5685,-3.8682,-6.3198,-0.33017,0.17501,0.11148,-15.06,22.02,11.64
4.6582,-4.018,-6.8783,-0.25931,0.18418,0.12798,-15.18,21.9,11.64
5.8295,-4.6445,-7.9951,-0.28466,0.0015272,0.069944,-15.24,21.84,11.76
4.6173,-2.9965,-7.7908,-0.2303,-0.050702,0.12828,-15.42,21.84,11.94
6.4424,-5.0531,-7.6138,-0.17257,-0.070555,0.019548,-15.3,21.96,11.94
5.8431,-6.0338,-8.1041,-0.15974,-0.18509,-0.024129,-15.18,21.96,12.12
4.1814,-2.9284,-7.1915,-0.025656,0.11759,0.083994,-15.0,21.96,12.36
6.6059,-6.4016,-6.9328,0.0051924,-0.10965,-0.043066,-14.94,21.96,12.48
3.4732,-4.0589,-6.851,0.07025,-0.25076,-0.1127,-14.64,22.08,12.48
5.094,-4.4675,-7.0281,0.061697,-0.13806,-0.078191,-14.58,22.02,12.6
4.8488,-5.6252,-6.8647,0.04215,-0.16463,-0.1576,-14.4,22.02,12.78
5.3119,-6.279,-7.246,-0.030238,-0.18143,-0.27306,-14.16,21.96,12.78
2.656,-4.0725,-6.9191,-0.047037,-0.14233,-0.20922,-14.1,21.9,12.84
3.7728,-3.7728,-7.9543,-0.010079,0.26664,-0.047037,-13.92,21.78,12.9
5.8023,-6.8374,-8.54,-0.11912,0.21594,0.0058032,-13.86,21.78,12.84
3.4323,-3.6503,-7.7636,-0.12095,0.32529,0.071166,-13.8,21.78,12.84
6.2381,-5.1485,-8.717,-0.092241,0.22113,0.14752,-13.74,21.6,12.72
4.1678,-3.5685,-8.5127,-0.084605,0.000916,0.17562,-13.74,21.6,12.6
2.8467,-1.5663,-8.2676,-0.070555,0.11148,0.25992,-13.86,21.66,12.48
5.7342,-5.9385,-8.2676,-0.18112,-0.036957,0.17226,-13.74,21.66,12.24
1.7979,-1.0624,-7.927,-0.11179,0.11118,0.28772,-13.86,21.6,12.06
4.3994,-1.7162,-8.2676,-0.18143,0.27092,0.33811,-13.92,21.6,11.94
5.598,-3.2553,-7.927,-0.18418,0.03146,0.30879,-14.04,21.54,11.94
6.1019,-3.909,-7.8453,-0.23121,-0.071777,0.28833,-14.04,21.6,12.06
4.5764,-4.0861,-7.5184,-0.17929,-0.1179,0.32803,-14.04,21.9,12.0
4.7944,-4.3858,-8.0905,-0.15394,-0.17715,0.30238,-13.86,22.2,12.06
4.1678,-3.9227,-7.8726,-0.12859,-0.2981,0.25198,-13.68,22.2,12.18
3.4596,-3.1872,-8.1586,0.0015272,-0.12187,0.36713,-13.38,22.38,12.18
5.9657,-5.1076,-8.5127,0.027184,-0.14386,0.35216,-13.26,22.38,12.18
5.1349,-5.5707,-7.927,-0.037874,-0.25992,0.26939,-13.02,22.38,12.36
3.732,-4.7126,-7.2188,0.021991,-0.17746,0.24007,-12.66,22.32,12.36
4.2495,-5.3528,-7.7091,0.040317,-0.19395,0.25229,-12.42,22.62,12.66
2.9965,-4.127,-7.1779,0.076664,-0.28497,0.28039,-12.18,22.68,12.78
3.8682,-5.1485,-7.8862,0.073609,-0.13073,0.25107,-11.94,22.86,12.9
4.8216,-6.1155,-7.3141,0.024435,-0.19945,0.21777,-11.46,23.1,12.72
3.7184,-5.1621,-7.1915,0.032376,-0.18815,0.22938,-11.16,23.22,12.6
3.4732,-4.6582,-7.3822,0.062614,-0.10812,0.22449,-10.92,23.28,12.66
3.8546,-4.7944,-7.6819,0.057116,-0.13042,0.2306,-10.74,23.4,12.72
3.9908,-3.8273,-8.2131,0.044593,0.014661,0.23579,-10.44,23.7,12.6
4.7944,-4.9578,-8.0088,-0.0045815,0.051313,0.24832,-10.26,23.7,12.66
4.3177,-5.8567,-8.0224,0.021686,0.015882,0.19823,-10.14,23.88,12.72
4.3177,-5.8567,-8.0224,0.0051924,-0.17104,0.15149,-9.9,24.18,12.72
