Ax,Ay,Az,Gx,Gy,Gz,Mx,My,Mz
1.9886,-7.3686,-3.8273,-0.44776,-0.613,0.40775,-17.04,36.12,10.26
2.9829,-6.456,-6.1564,-0.28772,0.024129,-0.087048,-16.98,36.06,10.44
8.54,-11.427,-6.6467,-0.31398,-0.36896,-0.35552,-16.92,36.06,10.44
6.7966,0.12258,-6.6059,0.080329,0.42699,-0.5339,-16.62,35.76,10.44
10.992,-3.0782,-4.4402,-0.097433,0.18631,-0.24374,-16.74,35.82,10.56
10.896,-3.8273,-5.0531,-0.30818,0.18509,-0.10568,-16.74,35.7,10.68
5.1349,-10.474,-2.8194,-0.47953,-0.38637,0.11973,-16.92,35.76,10.74
4.4402,-7.1507,-4.2223,-0.37446,-0.22633,-0.057421,-17.22,35.76,10.86
2.1248,-7.4776,-4.1678,-0.037874,-0.062308,0.3766,-17.46,35.64,11.04
8.6217,-2.4925,-6.6331,0.1967,0.2697,0.014355,-17.46,35.1,11.04
8.4038,-1.8251,-5.6388,0.40928,0.13592,0.40653,-17.46,34.92,11.16
5.9385,-3.3915,-3.6911,0.29016,0.075747,0.41386,-17.46,34.86,11.22
6.2245,-4.2768,-4.4811,-0.025045,-0.07758,0.19517,-17.34,34.62,11.34
5.884,-5.5707,-4.3449,-0.281,-0.27397,0.032681,-17.52,34.56,11.34
6.3743,-6.4152,-6.0611,-0.40684,-0.18021,-0.07758,-17.58,34.56,11.46
2.3155,-7.3005,-4.699,-0.39126,-0.34239,-0.24404,-17.52,34.56,11.52
5.2302,-0.68102,-6.1428,-0.062308,0.61361,-0.3488,-17.64,34.44,11.52
12.313,-4.9169,-4.7263,-0.0058032,0.45143,-0.12492,-17.58,34.38,11.58
10.106,-1.4165,-6.5378,0.019853,0.3262,0.19548,-17.4,34.26,11.76
7.1507,-8.0088,-2.0839,-0.10201,0.19059,0.64232,-17.28,34.2,11.64
4.8488,-6.8647,-2.9011,-0.037568,0.033903,0.43585,-17.04,34.2,11.64
4.6445,-4.3177,-5.6933,-0.19181,0.000611,0.41661,-16.68,34.26,11.46
5.7069,-7.75,-6.7285,-0.090713,-0.069333,0.21319,-16.38,34.44,11.34
5.9793,-6.3607,-7.2869,-0.072388,0.17349,-0.06689,-16.32,34.5,11.34
6.1564,-2.9556,-3.4323,0.053451,0.17226,0.018021,-16.08,34.56,11.4
7.4912,-4.0589,-3.1327,0.055894,0.24038,0.14111,-15.96,34.56,11.4
8.0632,-4.8761,-4.304,-0.20311,0.20189,0.10934,-15.9,34.44,11.28
7.069,-5.4481,-3.0782,-0.36805,0.17593,0.15333,-15.9,34.32,11.22
5.7342,-5.2983,-2.3836,-0.28772,0.31918,0.40256,-15.72,34.32,11.4
6.4424,-8.8941,-4.8625,-0.25412,0.16952,0.26725,-15.72,34.38,11.4
8.826,-5.1894,-6.3062,-0.13225,0.42394,-0.065363,-15.54,34.56,11.4
7.6683,-4.3177,-6.7285,-0.067501,0.23854,0.22174,-15.3,34.68,11.52
5.9112,-5.094,-4.9033,0.007025,0.28527,0.30452,-15.36,34.74,11.46
6.674,-5.2302,-4.6582,-0.08491,0.42455,0.23152,-15.24,34.86,11.52
7.9543,-5.2302,-4.3313,-0.1744,0.34239,0.016188,-15.24,34.86,11.7
7.9407,-6.0611,-4.5764,-0.2584,0.28619,-0.024129,-15.12,34.8,11.76
5.2847,-9.8884,-4.1406,-0.28588,0.16554,-0.048564,-15.24,34.8,11.82
7.4095,-3.2553,-4.2768,-0.078802,0.47495,-0.37568,-15.12,34.74,11.82
9.6704,-2.3427,-5.8976,0.037263,0.43463,-0.082161,-15.06,34.74,11.88
10.324,-9.0031,-4.9033,-0.12065,-0.28497,0.10843,-15.0,34.74,11.76
5.2575,-3.7865,-5.4481,-0.12584,0.14019,-0.50396,-15.18,34.74,11.64
8.1177,-1.1032,-5.5435,-0.16982,0.25168,-0.51282,-15.06,34.68,11.64
7.0553,-0.068102,-3.8137,-0.083383,0.14722,-0.07025,-15.06,34.62,11.46
9.6977,-4.5764,-3.3506,-0.22663,0.40989,-0.057727,-15.24,34.56,11.28
7.927,-7.2324,-3.732,-0.405,-0.0027489,-0.064752,-15.3,34.38,11.22
9.6977,-6.3743,-4.3177,-0.48197,-0.17043,-0.37202,-15.54,34.32,11.28
5.6661,-1.5391,-6.4152,-0.23243,-0.06353,-0.54306,-15.9,33.9,11.34
10.542,-1.2803,-6.0747,-0.20556,0.15913,-0.11423,-16.08,33.72,11.52
12.0,-3.4323,-5.7069,-0.11515,-0.21197,0.088881,-16.26,33.54,11.52
5.1621,-5.3528,-2.8058,-0.09896,-0.25931,0.15913,-16.44,33.36,11.7
5.7478,-2.7786,-3.7728,-0.12706,-0.37843,0.025656,-16.56,33.36,11.76
10.188,-2.6151,-6.4424,-0.30452,-0.24312,-0.14966,-16.68,33.12,11.82
7.1371,-5.9521,-3.1872,-0.2135,-0.29596,-0.016493,-16.98,33.0,12.0
4.0452,-5.3119,-3.228,-0.090713,-0.28069,0.030849,-17.16,32.94,11.94
9.2482,-6.9736,-4.7671,-0.12217,-0.33109,-0.1179,-17.16,32.76,12.18
6.0066,-1.5936,-6.6195,0.026267,-0.70616,-0.083383,-17.22,32.58,12.54
7.9543,-1.0896,-7.1779,0.16554,-0.22327,0.13195,-17.22,32.58,12.78
8.4446,-3.9908,-4.1133,0.12614,-0.27581,0.37538,-17.22,32.52,13.02
5.1485,-5.1894,-4.0589,0.095295,-0.31734,0.38546,-16.98,32.58,13.5
6.7966,-6.96,-4.0861,-0.13011,-0.55344,0.22449,-16.8,32.64,13.44
6.1019,-5.4481,-4.9987,-0.19456,-0.58307,-0.047342,-16.68,32.64,13.62
3.5413,-2.0975,-3.9635,0.0088575,0.057116,0.23335,-16.44,32.58,13.68
8.322,-9.3572,-3.7865,-0.034514,-0.25198,0.26053,-16.02,32.58,13.92
6.3198,-8.5127,-6.7829,-0.14325,-0.67989,-0.25351,-15.72,32.7,14.1
3.4459,-4.0997,-2.438,0.033598,-0.18967,-0.13653,-15.3,32.7,14.34
10.964,-6.2245,-4.7944,0.20342,0.065363,-0.12431,-14.88,32.7,14.7
6.5922,-5.0668,-4.7671,0.10599,-0.21991,-0.078191,-14.88,32.7,14.82
6.0066,-4.7944,-5.2438,0.1347,-0.1408,-0.000916,-14.58,32.64,14.76
8.2131,-6.3743,-5.598,-0.01405,-0.14294,0.059865,-14.28,32.64,15.06
5.1621,-5.5707,-4.9306,-0.049175,-0.25198,0.059865,-13.98,32.64,15.0
5.8023,-2.9556,-4.9578,-0.052534,-0.10354,-0.076664,-13.8,32.58,15.0
8.0905,-1.4982,-5.2847,0.010079,0.15944,0.22602,-13.56,32.7,14.88
9.1937,-8.0632,-4.4402,-0.093462,-0.17715,0.38271,-13.44,32.76,14.88
4.8761,-9.4117,-3.9363,-0.15058,-0.42974,-0.0036652,-13.26,32.82,14.88
7.4503,-4.2087,-5.7342,-0.17532,0.058338,-0.29993,-13.02,32.94,14.94
9.9837,-6.4152,-4.5492,-0.15302,-0.22724,-0.29444,-13.02,32.76,14.94
5.3119,-4.5356,-3.8682,-0.011301,-0.16035,-0.3375,-12.96,32.58,15.0
14.696,-9.5479,-8.2131,-0.21777,0.16463,-0.30177,-12.84,32.58,15.12
5.6116,-6.5105,-3.3915,-0.15485,-0.5849,-0.080329,-12.72,32.58,15.06
2.4789,-1.2395,-5.4345,-0.17226,-0.21533,-0.43249,-12.78,32.52,15.06
8.0224,-5.5162,-1.9205,0.10324,0.39859,0.40012,-12.9,32.4,14.94
10.678,-5.4754,-6.5378,0.026267,-0.07422,-0.092852,-12.96,32.4,15.06
4.1542,-4.7399,-6.1564,0.026878,-0.12431,0.23946,-13.14,32.34,15.24
7.4095,-3.2689,-6.0474,0.14416,0.067195,0.099571,-13.26,32.34,15.42
8.6353,-3.4323,-6.8374,0.076664,0.09163,0.03543,-13.32,32.28,15.42
7.6002,-4.7535,-5.4481,-0.073915,-0.07422,0.0085521,-13.5,32.34,15.42
7.1507,-4.6173,-4.4947,-0.1573,0.097738,-0.08827,-13.8,32.22,15.54
7.7091,-6.4833,-3.7047,-0.22358,0.13195,0.061087,-13.92,32.4,15.6
8.54,-7.4231,-4.413,-0.22113,-0.13897,-0.087659,-14.04,32.52,15.66
6.4424,-4.7535,-4.699,-0.065363,-0.15577,-0.092241,-14.04,32.52,15.9
8.036,-5.7069,-5.5162,0.11148,-0.17623,0.081856,-14.16,32.46,16.02
8.6489,-6.0202,-5.7069,0.2138,-0.023518,0.047342,-14.1,32.58,16.08
6.6876,-5.7478,-5.2847,0.29566,-0.039401,0.093157,-13.92,32.7,16.14
5.2711,-6.0883,-5.1894,0.40867,-0.15211,0.14997,-13.74,32.82,16.14
6.279,-6.7966,-4.6582,0.36774,-0.20831,-0.15547,-13.5,33.06,15.78
5.5435,-7.8726,-3.6639,0.38882,0.069028,-0.82192,-13.62,33.24,15.72
5.5026,-9.4117,-1.8932,0.38057,0.12126,-1.35,-13.62,33.42,16.02
5.8023,-9.8475,-1.3893,0.2981,-0.19914,-1.7501,-13.8,33.42,15.96
6.674,-9.5206,-2.1248,0.23549,-0.58949,-1.8665,-14.04,33.6,15.9
6.4288,-8.7715,-2.2882,0.59315,-1.5461,-1.5791,-14.46,33.72,15.9
4.9169,-7.2869,0.61292,1.2285,-1.5623,-1.3393,-15.18,34.08,15.72
5.1213,-6.4288,0.10896,2.2275,-0.84116,-0.90378,-15.66,34.32,15.6
5.993,-6.2654,-0.57205,2.4856,-0.65454,-0.66768,-16.68,34.92,15.18
5.993,-6.2654,-0.57205,2.8576,-0.0048869,-0.38057,-16.68,34.92,15.18
7.0417,-6.5105,0.20431,3.3451,1.679,0.31643,-17.16,35.22,15.0
7.0417,-6.5105,0.20431,3.2663,1.4154,0.58154,-17.16,35.22,15.0
9.9429,-6.4697,-3.1872,3.4392,1.1405,0.80237,-17.82,35.7,14.22
9.9429,-6.4697,-3.1872,3.5797,1.0318,0.93554,-17.82,35.7,14.22
5.7614,-6.1019,-8.3629,3.0293,2.3326,1.0913,-19.08,36.42,11.04
7.1915,-6.3743,-7.6955,2.4737,2.6967,1.0333,-20.22,37.02,7.44
7.641,-6.3879,-7.6274,1.8784,2.3521,1.033,-20.82,37.14,5.16
10.855,-7.246,-5.993,1.1643,2.0614,0.72052,-21.66,37.44,0.78
12.286,-6.7148,-7.7364,0.22724,1.0675,0.50885,-22.2,37.5,-3.72
8.5808,-5.4209,-3.8818,-0.010079,0.37965,0.47556,-22.62,37.32,-8.04
7.1371,-5.1894,-1.6208,-0.30116,0.85002,0.31551,-22.74,37.14,-12.3
8.6353,-6.0883,-0.36775,-0.14172,1.3674,0.35675,-22.8,36.72,-16.2
9.3844,-6.4152,0.44947,-0.022907,1.1054,0.39156,-22.8,36.48,-17.46
10.311,-6.8647,0.65378,0.020464,0.71929,0.2135,-22.68,35.94,-18.36
10.161,-7.246,-1.6208,-0.15272,0.098655,0.0033598,-22.38,35.52,-18.9
8.2812,-7.0826,-0.83084,-0.29749,-0.24801,-0.082467,-22.2,35.58,-18.84
6.2109,-5.8295,0.31327,-0.31673,-0.041844,-0.19456,-22.14,35.52,-18.66
7.3686,-7.2188,0.77636,-0.4612,-0.010996,-0.07086,-21.66,35.4,-18.42
6.5786,-7.5048,3.0646,-0.43677,0.073915,0.042455,-21.36,35.52,-18.12
5.5162,-6.9464,3.2825,-0.000611,0.33231,0.219,-21.18,35.7,-17.94
6.0611,-7.641,-0.69464,0.028405,0.26114,0.18479,-20.76,36.0,-17.7
5.1349,-7.464,-0.77636,0.0045815,0.38882,0.21838,-20.52,35.94,-17.46
7.4503,-8.0632,-0.83084,-0.19578,0.49694,-0.016799,-19.86,36.18,-17.28
7.2052,-6.8102,1.1577,-0.50855,0.4496,-0.33628,-19.62,36.36,-17.4
4.7399,-6.279,3.1054,-0.43555,0.85857,-0.62644,-19.32,36.54,-17.4
5.3664,-6.3198,4.5356,-0.13958,1.6866,-1.0418,-19.14,36.72,-17.28
7.069,-5.2711,2.152,-0.04948,1.0067,-0.85857,-18.72,36.84,-17.22
5.4073,-5.38,1.4438,-0.014661,0.091324,-0.47037,-18.48,36.72,-17.4
7.0145,-8.2267,1.0624,0.047037,0.057116,-0.15913,-18.12,36.78,-17.58
9.9292,-9.8066,0.76274,-0.090408,0.13561,-0.075136,-18.0,36.9,-17.7
11.155,-9.9565,1.2531,-0.16005,-0.10263,-0.21197,-17.82,36.9,-17.82
10.42,-9.6432,1.4165,-0.1405,-0.14325,-0.25015,-17.76,36.84,-18.06
7.8181,-7.3141,0.49033,0.071777,-0.14539,-0.30818,-17.76,36.66,-18.42
6.2926,-6.3471,-0.20431,0.1631,-0.19578,-0.29596,-17.94,36.72,-18.72
5.0395,-5.3528,-0.12258,0.12859,-0.10965,-0.30543,-18.06,36.72,-18.84
4.1542,-4.2904,0.12258,0.089492,0.31521,-0.27794,-18.36,36.42,-19.08
4.699,-4.8216,-0.38137,-0.019853,0.47403,-0.094073,-18.48,36.12,-19.2
4.8897,-4.4402,0.32689,-0.091019,0.39126,0.044899,-18.6,35.94,-19.44
7.6546,-5.6116,2.2474,-0.10201,0.44746,0.045815,-18.9,35.82,-19.8
11.768,-6.7829,4.304,-0.088575,0.53237,-0.18021,-19.08,35.82,-19.8
12.04,-7.6002,2.4108,0.08491,-0.12004,-0.24832,-19.44,35.7,-19.98
7.5457,-7.4503,0.76274,0.16218,-0.035736,-0.23579,-19.62,35.52,-20.1
6.9328,-7.6955,-0.21793,0.19028,-0.020769,-0.034819,-19.92,35.34,-20.16
7.9951,-7.5729,0.054481,0.22633,-0.26084,0.10568,-20.22,35.16,-20.16
13.934,-7.3686,1.6208,0.2645,-1.153,0.040623,-20.52,34.92,-20.16
11.686,-7.3141,0.24517,0.15974,-1.9765,-0.13011,-20.7,34.92,-20.28
8.3493,-6.0883,-0.77636,-0.10812,-1.9603,-0.3711,-21.24,34.68,-20.46
5.6116,-5.6116,0.39499,-0.3769,-1.263,-0.46884,-21.48,34.56,-20.34
6.3198,-5.4073,1.9477,-0.27703,-1.011,-0.33262,-21.54,34.44,-20.28
7.4776,-5.3937,2.656,-0.11148,-1.055,-0.27275,-21.9,34.32,-20.04
8.8805,-6.1019,2.547,0.36011,-1.5901,-0.093157,-22.2,34.26,-19.86
5.7478,-6.0611,1.5119,0.55955,-1.5769,-0.037568,-22.86,33.78,-19.38
4.6173,-6.1292,-1.2667,0.59284,-0.96914,0.016799,-23.28,33.72,-19.2
4.3177,-5.775,-1.5391,0.42394,-0.69242,0.031154,-23.82,33.54,-18.78
5.4618,-5.2166,0.21793,0.10965,-0.049175,0.041233,-24.06,33.54,-18.66
5.9249,-5.094,0.68102,0.089492,0.31826,0.095906,-24.12,33.48,-18.6
8.0632,-6.0747,0.19068,0.20189,0.489,0.18051,-24.42,33.24,-18.42
8.431,-6.9191,-1.4029,0.21777,0.21441,0.20342,-24.54,33.06,-18.24
8.145,-6.2517,-2.9965,0.1179,-0.088575,0.084605,-24.78,32.88,-18.06
7.3822,-5.4481,-2.2337,0.047953,-0.32559,0.060476,-24.66,32.82,-18.18
6.4833,-5.2166,-2.2746,0.17562,-0.18967,0.083078,-24.9,32.7,-18.24
5.598,-5.0123,-2.7649,0.2193,0.0027489,0.11729,-24.84,32.58,-18.36
6.2926,-5.8023,-5.2302,-0.013134,0.83872,0.31765,-24.72,32.52,-18.72
9.3844,-6.17,-5.5843,-0.54703,0.62827,0.2813,-24.66,32.58,-19.02
11.754,-5.5435,-4.808,-1.3613,-0.48258,0.1405,-24.42,32.64,-19.14
9.6841,-5.884,-9.5479,-2.3579,-1.4526,0.028711,-24.06,33.3,-19.14
8.0905,-6.4016,-9.2074,-3.5433,-0.74923,-0.37263,-23.94,33.66,-18.78
7.2188,-6.0611,-4.522,-3.974,0.34575,-0.54764,-23.76,34.26,-18.18
10.896,-6.3335,-0.23155,-4.1096,0.63805,-0.64477,-23.7,34.8,-17.4
14.478,-7.8045,-0.44947,-4.1508,0.27581,-0.91905,-23.88,36.18,-15.24
12.64,-7.5184,-1.7843,-3.9902,0.082772,-1.1527,-24.0,36.84,-13.92
10.583,-5.1349,0.081722,-3.1469,0.14172,-1.3054,-24.06,37.98,-10.8
10.283,-4.2904,0.88532,-2.5119,-0.71807,-1.2336,-24.18,38.4,-9.18
9.6432,-4.0725,0.89894,-2.2504,-1.2471,-1.0797,-24.42,38.82,-7.32
7.0281,-3.4596,-0.027241,-1.46,-1.7306,-0.22388,-24.66,39.18,-5.4
4.7399,-3.8818,0.95342,-0.91691,-1.0217,0.41447,-24.96,39.78,-0.84
4.985,-4.5901,-0.16344,-0.50366,0.021991,0.86896,-25.14,39.78,1.32
4.9578,-5.094,-0.88532,-0.13775,1.1796,1.1637,-25.32,39.72,3.6
5.7069,-6.4016,-1.6344,0.044593,1.6139,1.1609,-25.38,39.6,7.26
7.1915,-6.8783,-1.8115,0.14691,1.4545,0.95387,-25.5,39.36,8.88
8.9213,-6.8647,-1.5391,0.28375,0.78313,0.70158,-25.26,39.12,10.14
10.188,-6.1019,-2.2474,0.44227,-0.20189,0.54184,-25.08,38.58,11.94
9.0303,-5.8023,-3.2825,0.55161,-0.88728,0.38485,-24.84,38.22,12.72
7.4776,-6.3335,-5.8976,0.30085,-0.65271,0.1741,-24.24,37.92,13.74
5.094,-7.3141,-6.279,0.048869,-0.27855,0.19303,-23.82,37.8,14.1
8.1586,-7.7908,-6.6876,-0.16066,-0.17501,0.11087,-23.4,37.74,14.28
8.8124,-7.1234,-6.5241,-0.1179,-0.88698,0.10018,-22.86,37.68,14.4
8.8124,-7.1234,-6.5241,-0.1179,-0.88698,0.10018,-22.86,37.68,14.4
10.215,-5.4073,-4.0861,0.33872,-2.4899,0.18051,-21.3,37.56,14.22
6.9872,-4.1951,-2.9556,0.20831,-1.5592,-0.23824,-20.76,37.56,14.1
6.4152,-4.2632,-1.5255,0.14752,-1.3036,-0.23793,-20.1,37.56,14.1
4.6854,-4.699,-1.3076,0.28986,-1.2666,-0.055589,-18.78,37.26,14.04
3.3506,-5.8023,-2.942,0.37141,-0.82222,-0.047342,-17.82,37.2,14.28
3.6911,-8.1177,-6.2109,0.33903,-0.68509,-0.089797,-16.56,37.14,14.58
4.6718,-7.5865,-7.464,0.12889,-0.58704,-0.30543,-15.78,36.9,14.7
8.9758,-6.3198,-9.6841,-0.025656,-0.37354,-0.55741,-14.82,36.66,14.94
8.7306,-4.0044,-7.0553,-0.089797,-0.20464,-0.59651,-13.98,36.48,15.0
8.3765,-4.6445,-5.4754,-0.17226,-0.091935,-0.30727,-13.38,36.36,15.0
7.8045,-5.9249,-3.8409,-0.1854,-0.020159,-0.18448,-13.32,36.24,15.18
6.0611,-4.8625,-3.5549,0.040012,0.073915,-0.082772,-13.38,36.06,15.12
5.9657,-3.8273,-6.8647,0.16554,0.17868,-0.012828,-13.32,35.94,15.06
5.993,-3.4596,-7.3822,0.1347,0.77274,0.044288,-13.44,35.88,15.18
7.9134,-4.4402,-7.1915,-0.11606,1.3628,0.068417,-13.86,35.46,15.0
9.2074,-3.5822,-5.4754,-0.16341,0.83414,-0.048869,-14.22,35.46,14.46
9.8611,-3.3778,-4.699,-0.15394,0.3821,-0.12798,-14.28,35.58,14.34
7.8045,-3.1872,-3.7456,-0.10843,-0.24648,-0.16799,-14.58,35.7,14.22
6.7693,-3.5413,-2.4244,-0.044899,0.1295,-0.32926,-14.7,35.88,13.98
5.6524,-3.8546,-1.9341,0.037874,0.62889,-0.34239,-14.76,36.06,13.86
3.3506,-4.1814,-2.7104,0.16127,1.1383,-0.16096,-15.0,36.24,13.68
5.6388,-5.5707,-3.8546,0.028405,1.1429,0.20525,-15.3,36.36,13.56
8.1722,-5.4345,-5.1894,0.012523,0.35003,0.33872,-15.48,36.3,13.08
10.011,-5.7342,-6.7012,-0.019853,-0.12187,0.23457,-15.36,36.42,13.02
10.106,-6.0883,-6.6331,-0.012217,-0.38546,0.27031,-15.3,36.78,12.9
8.2539,-6.5786,-6.0611,-0.022602,-0.17165,0.11332,-15.48,36.6,12.78
3.4459,-2.5742,-3.5413,0.088575,0.04215,0.11759,-15.42,36.42,12.48
7.6274,-4.9714,-4.3858,0.20678,0.6127,0.40439,-15.24,36.48,12.42
8.3765,-6.4016,-3.8682,-0.019242,0.25565,0.26145,-15.06,36.48,12.24
1.7979,1.6889,0.21793,0.11759,0.49572,0.16921,-14.94,36.42,12.0
5.7886,-2.2065,-0.64016,0.17562,0.52168,0.74709,-14.76,36.48,11.7
8.5536,-5.4073,-1.1441,0.31521,-0.031154,0.75778,-14.64,36.54,11.7
13.934,-11.577,-6.9055,0.084299,-0.23274,-0.089797,-14.22,36.9,11.58
-0.44947,-3.5549,-3.3097,-0.093462,-0.6576,-0.69333,-14.1,37.02,11.52
-0.054481,-0.31327,-3.1054,0.12981,0.53665,-0.37843,-14.1,36.96,11.46
6.0202,0.12258,-2.0703,0.18173,0.4609,-0.028405,-13.92,37.2,11.34
11.414,-3.7184,-2.833,0.082772,-0.17471,0.025962,-13.86,37.26,11.22
8.5808,-8.7306,-5.6116,-0.18173,-1.0162,-0.58124,-13.8,37.32,11.22
14.288,-10.406,-7.5321,-0.10201,-0.23549,-0.23152,-13.8,37.08,11.22
0.38137,-6.3198,-2.1793,-0.2419,-0.24923,-0.54825,-13.8,37.08,11.04
14.86,-0.38137,-6.0202,0.15638,0.37965,-0.22694,-13.92,36.72,10.98
14.955,-5.8023,-5.4209,0.062003,-0.43646,0.40897,-14.04,36.42,10.92
3.5413,-2.6968,-3.4187,0.2642,-0.22755,0.59223,-14.16,36.3,10.68
6.4424,-5.8023,-4.2632,0.27031,-0.28039,0.81459,-14.1,36.18,10.62
4.9442,-4.1678,-3.051,0.27978,-0.34758,0.66706,-14.04,36.3,10.5
12.449,-8.036,-7.3005,0.13134,-0.19151,0.31826,-13.8,36.3,10.68
0.50395,-3.8273,0.21793,-0.036346,-0.208,-0.30727,-13.56,36.36,10.56
-1.4982,-0.7355,0.38137,0.2529,0.22633,0.036041,-13.5,36.36,10.5
8.2131,-10.338,-4.1814,0.019853,0.11576,0.12309,-13.44,36.48,10.32
13.035,-4.2904,-6.1836,-0.036652,0.51099,-0.41142,-13.26,36.6,10.32
11.496,-1.8387,-4.9987,-0.036957,-0.098349,-0.46884,-13.08,36.6,10.26
7.8317,-4.3585,-5.1213,0.097433,-0.31062,0.015577,-12.96,36.72,10.2
6.674,-8.4174,-6.0066,-0.18326,0.009163,0.14264,-13.02,36.9,10.2
6.96,-9.4117,-5.0531,-0.18173,0.21411,0.088881,-12.96,36.78,10.2
4.0589,-5.0123,-3.1735,0.036041,0.28008,0.16952,-12.96,36.72,9.96
8.5263,-4.6854,-5.775,0.14539,0.25259,0.24801,-13.02,36.6,9.78
8.7851,-5.5162,-5.8976,0.14355,0.27184,0.33414,-13.02,36.6,9.42
7.3822,-5.598,-4.9306,0.13867,0.31001,0.28558,-12.84,36.6,9.3
6.5786,-4.6854,-4.0044,0.098044,0.26206,0.16982,-12.84,36.72,9.24
7.9679,-6.7285,-4.018,0.0058032,0.11606,0.17715,-12.72,36.84,9.06
5.9793,-10.774,-2.9556,-0.081245,-0.11118,-0.13073,-12.66,36.96,8.88
6.3743,0.92618,-1.3757,0.12675,0.14844,-0.35094,-12.36,36.96,8.82
11.387,-0.89894,-2.9556,0.026573,-0.41966,-0.095295,-12.42,36.84,8.82
11.509,-9.3844,-7.9951,-0.14019,-0.5901,-0.0039706,-12.48,37.08,8.7
-0.96704,-7.6683,-2.9556,-0.13408,-0.17807,-0.22205,-12.42,36.96,8.64
1.3757,0.53119,-2.4108,-0.009163,0.18448,-0.11881,-12.42,36.96,8.7
13.961,-5.4073,-5.598,-0.17013,-0.22663,0.061392,-12.48,36.84,8.76
7.3414,-4.304,-5.3119,-0.25779,-0.3488,-0.0045815,-12.42,36.78,8.76
7.7091,-12.081,-6.4833,-0.24251,-0.26206,-0.17776,-12.3,36.66,8.76
3.337,-4.3858,-1.8932,-0.13378,0.014661,-0.29963,-12.12,36.48,8.88
10.583,-3.1327,-4.413,-0.21686,0.15852,-0.64385,-12.18,36.3,8.82
8.145,-6.7693,-4.7944,-0.34086,-0.36957,-0.39828,-12.36,36.06,8.94
6.9872,-3.5685,-5.8976,-0.19884,0.15027,-0.29719,-12.42,35.94,9.0
10.706,-4.0589,-6.6604,-0.25504,-0.017715,0.016799,-12.42,35.7,9.0
6.7012,-3.1463,-4.5356,-0.14722,-0.033598,0.26237,-12.78,35.58,9.18
7.6955,-7.927,-5.2575,0.018326,-0.12675,0.49358,-12.84,35.52,9.24
4.018,-4.1814,-3.8273,0.082467,-0.081856,0.44349,-12.96,35.4,9.42
10.542,-2.9829,-5.4618,0.036041,0.059254,0.17165,-12.9,35.4,9.66
3.7184,-3.3506,-1.1577,-0.068111,-0.26328,0.13744,-13.2,35.34,9.9
3.3097,-5.6933,-2.1248,-0.007025,-0.086743,0.20953,-13.26,35.34,9.96
8.9213,-7.1915,-3.7728,-0.23518,-0.15638,-0.16066,-13.2,35.4,10.14
7.8998,-1.4165,-4.4402,-0.36041,-0.53115,-0.42547,-13.14,35.46,10.26
6.8238,-0.23155,-3.9908,-0.31307,-0.49114,-0.27092,-13.14,35.4,10.32
10.787,-7.5729,-6.6059,-0.34789,-0.49114,-0.14722,-13.02,35.22,10.44
5.5435,-8.036,-4.7399,-0.39828,-0.26664,-0.25412,-12.9,35.04,10.74
7.1915,-4.4402,-4.2359,-0.27764,-0.43677,-0.31582,-12.84,35.04,10.92
10.896,-6.4152,-6.17,-0.23549,-0.78099,-0.23549,-12.9,34.92,11.16
4.5356,-1.4029,-3.6094,-0.011301,-0.53726,-0.062614,-12.96,34.5,11.52
12.286,-3.9363,-5.6797,0.080329,-0.31887,0.2022,-13.02,34.26,12.06
10.229,-4.1133,-4.5901,0.077274,-0.64966,0.37141,-12.96,34.14,12.18
6.3335,-1.6344,-3.623,0.1967,-0.51252,0.50305,-12.84,34.14,12.78
8.7851,-7.8589,-4.5492,0.080634,-0.832,0.47922,-12.66,34.14,13.38
3.5685,-3.4459,-2.5198,0.13958,-0.62217,0.17959,-12.18,34.5,13.98
7.1915,-3.5685,-4.0452,0.18143,-0.6353,0.0064141,-11.94,34.5,14.22
8.2267,-4.3994,-4.6854,0.14752,-0.82528,-0.0085521,-11.52,34.32,14.46
7.4503,-5.3119,-4.3585,-0.029322,-0.70219,-0.29505,-11.1,34.5,14.94
4.7263,-4.5083,-2.9965,0.02474,-0.69883,-0.19487,-10.8,34.56,15.06
7.5729,-3.2553,-3.8546,0.072082,-0.65271,-0.21075,-10.44,34.8,15.3
9.9292,-3.5958,-5.2438,0.019853,-0.84513,-0.20372,-10.26,34.98,15.3
7.069,-6.4833,-5.1757,-0.0082467,-0.98624,-0.17562,-9.9,35.1,15.66
6.5514,-6.3335,-5.4481,-0.0030543,-0.70402,-0.25931,-9.3,34.92,15.9
6.6331,-5.7069,-4.8897,0.070555,-0.67501,-0.25351,-9.18,34.98,16.08
8.9894,-7.7364,-5.6661,0.14019,-0.64904,-0.44532,-9.0,34.8,16.32
4.9033,-1.6344,-3.6366,0.34514,-0.67531,-0.31215,-8.64,34.92,16.56
9.2482,-2.833,-5.8295,0.36285,-0.52565,-0.063835,-8.64,34.98,16.8
7.1779,-4.9306,-4.9987,0.21991,-0.60476,-0.04215,-8.46,34.86,16.86
6.3471,-4.1814,-4.018,0.19639,-0.54459,-0.17898,-8.22,34.86,17.04
5.0259,-5.2711,-3.5549,0.1799,-0.63988,-0.08094,-7.92,34.86,17.34
4.6718,-4.6718,-3.4596,0.22571,-0.48167,-0.1347,-7.62,34.74,17.46
13.253,-9.1256,-8.9758,0.16005,-0.53176,-0.25259,-7.32,34.92,17.46
2.4108,-4.6309,-2.4108,-0.1292,-0.94592,-0.71899,-7.14,34.68,17.34
2.261,-0.83084,-5.6524,0.32651,-0.33445,-0.77336,-7.14,34.8,17.34
10.188,-4.1542,-6.6059,0.14752,-0.9053,-0.52718,-7.14,34.68,17.34
7.6002,-4.808,-5.8023,0.1347,-0.53298,-0.40042,-7.02,34.8,17.16
7.1507,-5.6116,-5.094,0.059865,-0.82467,-0.36591,-7.02,34.8,17.28
5.6116,-4.7944,-4.4402,0.16341,-0.62064,-0.30757,-7.14,34.8,17.34
8.4719,-5.1485,-5.6661,0.17135,-0.50366,-0.43463,-7.2,34.68,17.34
5.1621,-6.0883,-4.1678,0.208,-0.64721,-0.47892,-7.32,34.8,17.28
5.5571,-6.3198,-5.1076,0.32529,-0.59284,-0.35949,-7.5,34.86,17.34
7.4912,-5.1076,-5.6252,0.27458,-0.50671,-0.42455,-7.62,34.8,17.4
5.775,-3.228,-4.9169,0.35003,-0.6747,-0.38393,-7.86,34.8,17.52
6.6059,-3.5822,-5.489,0.43707,-0.59682,-0.25076,-7.92,34.86,17.64
10.665,-6.8374,-7.8045,0.18509,-0.64385,-0.51832,-7.86,34.92,17.58
0.78998,-2.5606,-0.28603,0.29719,-0.38423,-0.65271,-7.92,34.98,17.7
7.9951,-3.9363,-4.3449,0.41203,-0.41203,-0.56902,-8.04,34.86,17.64
5.7886,-2.4517,-3.0782,0.25198,-0.74159,-0.63774,-8.16,34.68,17.88
12.585,-8.1722,-7.8998,0.24099,-0.71105,-0.60292,-8.28,34.62,18.06
8.6898,-9.6841,-7.9543,0.063835,-0.96211,-0.6463,-8.28,34.68,17.94
8.3901,-3.8273,-5.0123,0.42272,-0.38576,-0.70097,-8.28,34.8,18.0
11.264,-5.2711,-7.1915,0.33231,-0.9444,-0.6857,-8.4,34.62,18.06
7.6138,-6.2109,-4.9987,0.33934,-0.79504,-0.76205,-8.46,34.62,18.0
6.9328,-5.6388,-4.4947,0.39859,-0.64752,-0.72021,-8.7,34.32,17.82
4.9987,-6.0883,-5.1621,0.30329,-0.84666,-0.75564,-8.88,34.2,17.94
5.7478,-3.3915,-4.2223,0.42577,-0.43646,-0.80023,-9.0,34.14,17.88
7.3141,-5.1894,-5.8976,0.4331,-0.73701,-0.75747,-9.36,33.84,18.06
2.1929,-3.7865,-4.1814,0.60964,-0.8152,-0.52595,-9.6,33.72,17.94
6.8919,-5.8295,-7.1915,0.59987,-0.32376,-0.45296,-9.6,33.72,18.18
5.775,-3.3097,-3.4868,0.44502,-0.7196,-0.64874,-9.9,33.9,17.94
7.1507,-3.6094,-3.5004,0.54153,-0.44776,-0.54978,-9.96,33.9,17.88
12.286,-7.9543,-6.7148,0.30177,-1.0171,-0.89034,-10.14,33.9,17.88
1.3212,-5.993,-3.2961,0.38759,-1.2055,-1.0449,-10.62,33.72,17.82
9.8611,-5.3392,-6.8783,0.39828,-0.45968,-1.3457,-10.8,33.54,17.94
11.414,-5.7886,-7.0553,0.3598,-0.94837,-1.3155,-11.1,33.42,18.0
7.0009,-4.7944,-3.909,0.52962,-0.35003,-1.0531,-11.46,33.3,18.06
8.6625,-5.6797,-4.699,0.51313,-0.4554,-0.7871,-11.7,33.12,17.94
8.5808,-10.093,-6.7693,0.49052,-0.72204,-0.77885,-12.0,33.0,18.0
4.4402,-7.2596,-3.8273,0.58338,-0.51893,-0.96547,-12.24,32.94,17.76
6.6059,-5.3528,-5.884,0.60598,-0.41661,-0.98135,-12.48,32.7,17.58
5.9112,-7.7772,-6.0611,0.59132,-0.30696,-0.93126,-12.9,32.46,17.34
4.127,-6.0747,-2.6423,0.3989,0.15333,-1.0473,-13.5,31.92,17.16
5.3528,-5.9521,-1.7434,0.43463,0.31734,-1.007,-13.98,31.62,16.98
5.9249,-8.9486,-2.7104,0.4835,0.28711,-0.94195,-14.28,31.32,16.98
4.4266,-12.068,-6.4969,0.27489,0.050396,-1.1949,-14.7,31.2,16.74
5.0804,-5.3119,-6.9872,0.40195,0.42547,-1.2407,-15.54,30.96,16.2
8.0905,-5.7478,-6.5105,0.37599,0.71105,-1.2449,-15.96,30.78,16.02
0.89894,-5.0531,-7.8045,0.30482,1.0831,-0.42638,-16.86,30.3,15.24
11.25,-5.7614,-5.6116,0.1967,1.4025,-0.75656,-17.4,30.12,14.88
12.735,-3.4732,-8.2812,0.10232,0.56383,-0.62003,-18.0,29.76,14.4
2.3836,-2.4108,-6.8238,0.076358,0.15088,0.049786,-18.66,29.4,14.16
4.4811,-2.7241,-5.0259,0.40348,0.75656,0.44013,-19.92,28.92,13.44
11.782,-7.5729,-4.699,0.50793,0.73701,0.037874,-20.46,28.68,13.02
7.8998,-3.4051,-4.3858,0.53481,0.45693,-0.31001,-20.88,28.44,12.54
9.2891,-3.4187,-1.7162,0.38912,0.55405,-0.52779,-21.72,28.32,11.7
6.4833,-4.1951,-3.2416,0.28741,0.33475,-0.39462,-22.26,28.14,11.1
5.9793,-5.1213,-3.1599,0.16402,0.014966,-0.4725,-22.8,27.96,10.68
10.065,-4.5356,-7.6138,-0.095906,-0.010079,-0.55803,-23.7,27.6,9.72
10.801,-2.4653,-6.9328,-0.11423,0.14813,-0.68845,-24.12,27.3,9.12
8.7034,-1.8387,-7.9679,-0.019853,-0.0061087,-0.44715,-24.54,27.18,8.82
9.3436,-4.3858,-5.203,0.10049,-0.37202,-0.35003,-25.26,26.76,8.1
10.256,-2.5742,-6.7421,0.19456,-0.35003,-0.47556,-25.62,26.46,7.92
12.272,-2.4517,-6.2245,0.1799,-0.4667,-0.17257,-25.8,26.46,7.68
11.441,-4.1542,-5.0804,0.33292,-0.38698,-0.1741,-26.52,26.1,7.26
8.5808,-1.8932,-3.6094,0.38576,-0.60628,-0.21411,-26.82,25.92,7.32
6.5241,-0.16344,-3.3234,0.46976,-0.35125,-0.029322,-27.12,25.86,7.2
7.7636,-1.7298,-2.5742,0.45998,-0.54917,0.057116,-27.42,25.38,7.26
9.0575,-4.6173,-3.514,0.32498,-0.80329,0.055589,-27.48,25.2,7.32
7.0281,-5.1621,-3.623,0.2364,-0.94898,0.06689,-27.66,25.14,7.32
5.8704,-4.4675,-4.8352,0.21869,-0.93798,0.0015272,-28.02,25.02,7.56
7.5457,-4.1406,-5.2847,0.1014,-0.96822,-0.17104,-28.14,24.96,7.8
6.674,-7.2596,-4.3994,0.26176,-0.73793,0.058643,-28.26,24.96,8.1
3.2008,-6.0202,-5.7886,0.086437,-1.098,-0.36469,-28.14,25.02,8.7
8.0905,-4.8625,-5.8023,0.11668,-0.65485,-0.42089,-28.14,25.08,9.06
10.597,-4.8216,-4.8352,0.20006,-0.28008,-0.50855,-28.08,24.96,9.36
7.927,-8.4719,-5.5843,0.354,-0.51343,-0.14508,-27.9,24.84,9.96
4.9578,-6.2926,-5.8704,0.33414,-0.6127,-0.1967,-27.96,24.96,10.14
8.6081,-4.5356,-6.9191,0.37782,-0.38057,-0.29108,-27.96,24.78,10.5
6.96,-4.9987,-5.2166,0.58979,-0.077274,-0.039401,-28.02,24.66,10.98
5.9249,-4.808,-4.1951,0.64141,-0.037874,-0.041844,-28.08,24.54,11.22
6.3879,-4.0589,-4.1406,0.64049,-0.15149,-0.16952,-28.02,24.42,11.46
8.54,-6.5922,-4.3994,0.4664,-0.28222,-0.43127,-27.72,24.18,11.76
2.152,-4.1678,-4.0589,0.40867,-0.42883,-0.3708,-27.66,24.18,11.76
4.127,-2.8058,-5.6933,0.30604,-0.05284,-0.38301,-27.72,24.18,11.82
7.355,-3.4187,-5.9521,0.12156,0.058948,-0.5287,-28.02,23.88,12.06
4.0589,-2.833,-5.598,0.23366,0.12431,-0.26084,-28.14,23.82,11.94
6.7421,-9.5479,-3.7184,0.20586,-0.049786,-0.40134,-28.14,23.76,11.88
6.5786,-8.9486,-5.5571,0.27122,-0.3711,-0.86773,-28.26,23.76,11.64
8.4719,-4.4402,-6.7693,0.29566,-0.096822,-0.76816,-28.44,23.4,11.58
9.6977,-6.1973,-6.7557,0.25076,-0.029627,-0.69303,-28.5,23.28,11.34
8.6353,-4.0861,-5.5026,0.33475,-0.032681,-0.84635,-28.68,23.1,11.28
7.6274,-5.3664,-3.1463,0.40073,-0.14813,-0.54978,-28.8,22.74,10.92
6.96,-6.2109,-4.2223,0.33323,-0.2416,-0.58032,-28.92,22.5,10.8
4.304,-3.3234,-4.4947,0.34178,-0.14172,-0.49022,-29.16,22.14,10.86
7.9951,-3.6366,-4.8897,0.36835,-0.0082467,-0.28588,-29.52,21.54,10.5
6.5378,-4.7399,-4.1406,0.38943,-0.030849,-0.27092,-29.64,21.18,10.32
6.4969,-4.018,-4.3585,0.42913,0.14111,-0.32315,-29.76,21.0,10.14
4.8625,-7.1915,-4.6718,0.15058,-0.1292,-0.51862,-30.0,20.64,9.72
5.0123,-4.4402,-4.0861,0.24526,0.30849,-0.6805,-30.36,20.28,9.54
6.565,-3.6911,-3.6775,0.31246,0.37324,-0.53665,-30.42,20.04,9.48
8.6762,-5.0123,-4.0725,0.28497,0.41997,-0.54734,-30.54,19.8,9.18
4.7944,-3.228,-4.3177,0.35216,0.52657,-0.33048,-30.9,19.38,8.7
14.07,-13.266,-7.464,-0.055894,-0.22724,-0.62522,-31.26,19.2,8.28
1.5119,-3.8682,-8.3357,0.017104,-0.22694,-0.47159,-31.68,18.78,7.86
7.641,-5.3937,-7.6683,-0.011606,0.63774,-0.10476,-31.98,18.42,7.68
2.1929,-5.3119,-2.4517,0.41386,0.9447,0.26298,-32.1,18.3,7.38
9.0031,-6.2381,-5.7205,0.31857,0.85246,-0.10873,-32.22,18.06,7.2
5.5162,-4.127,-3.623,0.46609,0.44899,0.24068,-32.58,17.46,6.78
6.96,-3.9908,-4.4539,0.41539,0.49969,0.20281,-32.58,17.1,6.42
7.2188,-3.2416,-4.8352,0.29505,0.58032,0.15913,-32.88,16.74,5.7
9.1665,-2.4517,-4.3721,0.1573,0.62186,-0.039401,-32.94,16.68,5.22
9.5615,-3.4596,-3.6366,0.022907,0.37263,-0.18021,-33.06,16.68,4.98
6.9736,-8.2812,-3.5277,-0.0030543,-0.032987,-0.3708,-33.18,16.44,4.38
7.4776,-4.2359,-6.3471,0.0042761,-0.10843,-0.59559,-33.3,16.14,4.08
9.5615,-2.1112,-4.9714,0.029322,0.42699,-0.36316,-33.3,15.9,3.84
10.815,-2.8058,-4.8625,0.23549,0.21502,-0.15272,-33.48,15.78,3.12
8.4446,-3.2689,-5.094,0.26909,0.023518,-0.029932,-33.36,15.84,2.88
6.3879,-3.8954,-4.1814,0.26695,-0.082467,0.22724,-33.6,15.66,2.52
10.733,-11.06,-4.6173,0.11912,-0.19884,-0.071777,-33.66,15.6,1.74
1.6344,-3.732,-8.8941,0.19487,-0.45876,-0.33842,-33.6,15.48,1.44
5.4209,1.076,-1.7025,0.14813,0.35461,-0.099571,-33.72,15.24,0.9
9.7794,-4.5356,-2.6015,0.33506,0.09896,0.20525,-33.72,15.24,0.78
8.4719,-7.464,-2.152,0.2138,-0.47922,0.18265,-33.66,15.12,0.84
6.3743,-8.3765,-1.471,0.22113,-0.40073,0.12187,-33.66,14.88,0.72
6.279,-3.4187,-6.0066,0.10201,0.07758,-0.12401,-33.48,14.7,0.42
9.4934,-5.2166,-4.0452,-0.024435,0.3821,-0.11973,-33.54,14.64,0.36
8.8668,-7.3141,-3.7865,-0.02474,0.037568,-0.17868,-33.54,14.64,0.24
3.8137,-3.8954,-5.7478,-0.051313,-0.12828,-0.2529,-33.42,14.28,0.24
5.489,-3.514,-5.2166,-0.10476,0.53573,-0.1069,-33.48,14.1,-0.06
8.1177,-1.7843,-4.9578,-0.18051,0.57421,0.12675,-33.42,14.1,-0.24
10.311,-5.9657,-3.9227,-0.29993,0.2364,0.41936,-33.36,13.86,-0.36
7.2869,-4.8488,-5.6797,-0.416,-0.13347,0.23946,-33.48,13.86,-0.54
9.6296,-9.1665,-5.775,-0.57116,-0.067806,0.26237,-33.42,13.92,-0.66
0.29965,-6.279,-2.9692,-0.26328,0.19823,0.43891,-33.3,14.04,-0.78
8.7443,-4.6445,-5.1213,-0.19792,0.61545,0.14539,-33.36,13.98,-0.9
13.116,-4.7944,-4.9442,-0.16707,0.62919,0.083689,-33.36,14.1,-1.02
11.032,-2.6015,-5.0259,0.062003,0.22235,0.15791,-33.54,14.1,-1.02
6.4152,-3.9499,-3.1735,0.14844,0.16921,0.46823,-33.54,14.34,-1.44
7.5457,-6.9328,-3.623,0.068722,0.11912,0.38362,-33.42,14.34,-1.62
5.8567,-5.7614,-4.7671,-0.072998,-0.19975,0.18876,-33.36,14.58,-1.68
5.3937,-6.17,-5.38,-0.11576,0.081551,0.14478,-33.24,15.0,-1.74
5.8023,-6.8102,-5.7205,-0.11087,0.093157,0.028405,-33.12,15.3,-1.74
5.4209,-5.8023,-5.5435,-0.021991,0.28802,-0.15638,-33.18,15.48,-1.8
7.6955,-3.0646,-3.0918,0.090713,0.4777,-0.13073,-33.06,15.72,-1.74
8.3765,-0.12258,-5.203,0.146,0.52534,-0.029016,-33.12,15.72,-1.74
6.0202,-9.507,-1.1305,0.013134,0.41997,0.37324,-33.24,15.96,-1.68
6.7012,-5.6524,-5.9793,-0.058643,-0.0024435,0.17501,-33.0,15.9,-2.1
6.17,-6.8374,-4.7263,-0.024129,0.22205,0.15577,-33.0,15.84,-2.22
6.17,-6.8374,-4.7263,-0.024129,0.22205,0.15577,-33.0,15.84,-2.22
5.4481,-3.4732,-5.2166,0.062308,0.62553,0.14294,-32.64,15.9,-2.7
5.5026,-5.1757,-2.0703,0.07422,0.77672,0.35797,-32.58,15.96,-2.7
8.036,-3.3097,-4.4811,0.033292,0.51893,0.32315,-32.4,15.9,-2.88
8.5944,-7.8998,-4.0861,-0.098655,0.2868,0.49694,-32.28,16.14,-3.3
6.4969,-8.2676,-4.3585,-0.135,0.10354,0.37721,-32.22,16.14,-3.54
8.3765,-6.7012,-5.6661,-0.20464,0.26328,-0.058948,-32.1,16.08,-4.14
9.2755,-9.3844,-4.1951,-0.24709,0.10263,-0.12278,-31.92,16.32,-4.32
3.6639,-2.2337,-4.0589,-0.13531,0.3485,-0.24954,-31.86,16.38,-4.62
8.7034,-3.0646,-1.8251,0.0045815,0.54184,-0.061697,-32.04,16.44,-5.04
10.815,-5.3528,-0.8036,-0.014355,0.39401,0.13317,-32.04,16.5,-5.22
8.717,-5.4073,-3.8682,-0.30024,-0.16554,-0.24129,-32.04,16.68,-5.52
6.6059,-4.8488,-2.5742,-0.31307,-0.090713,0.096211,-32.1,16.68,-5.58
7.355,-3.9635,-3.6366,-0.34422,-0.13531,-0.20892,-32.28,16.74,-5.88
7.3414,-8.1858,-4.0997,-0.40409,-0.22846,-0.036957,-32.58,16.74,-6.3
3.8682,-5.1621,-3.8409,-0.28253,0.10415,-0.27794,-32.52,16.8,-6.3
10.256,-4.808,-4.6718,-0.1854,0.15944,-0.21044,-32.76,16.44,-6.3
10.937,-6.0611,-5.7886,-0.23243,-0.069333,-0.068111,-32.94,16.44,-6.36
8.0769,-6.5786,-5.3119,-0.33903,-0.24984,-0.13225,-33.06,16.38,-6.18
5.993,-4.7535,-4.8216,-0.36774,-0.11973,-0.12187,-33.18,16.32,-6.0
6.5105,-4.699,-4.413,-0.23274,-0.049786,0.35003,-33.18,16.26,-6.0
9.1256,-7.2733,-2.8194,-0.080634,-0.012523,0.020769,-33.18,16.26,-5.76
6.7285,-4.7399,-2.9011,0.11209,-0.043371,-0.09896,-33.36,16.08,-5.58
7.7091,-3.3778,-4.3313,0.09896,0.03207,-0.0027489,-33.54,15.96,-5.1
8.3901,-4.1814,-5.4754,-0.07086,0.037568,0.1408,-33.6,16.08,-4.98
8.3357,-6.1836,-4.522,-0.14386,-0.066584,0.19914,-33.54,15.96,-4.92
6.0611,-2.1248,-6.2654,-0.061697,-0.3372,0.0036652,-33.42,16.14,-4.8
9.4525,-3.4596,-3.0646,-0.055589,0.025351,0.30696,-33.54,16.26,-4.44
9.0031,-5.1485,-2.547,0.0033598,-0.10415,0.26909,-33.6,16.32,-4.26
6.3335,-5.8023,-4.1406,-0.01069,-0.33414,0.18204,-33.72,16.38,-4.32
8.0632,-3.3778,-4.9578,-0.07758,-0.43005,-0.025656,-33.42,16.68,-4.14
10.488,-3.0918,-4.1133,-0.086437,-0.074831,-0.18479,-33.42,16.68,-3.9
7.6002,-4.7126,-3.0237,0.082772,-0.2419,0.035736,-33.42,16.68,-3.84
7.6002,-5.8976,-6.3879,0.061087,-0.49633,-0.15638,-33.3,16.74,-3.72
8.3493,-3.7728,-5.2166,-0.072693,0.023824,-0.20647,-33.06,16.86,-3.66
7.2188,-2.3699,-3.6094,0.009163,0.1069,-0.069028,-32.94,16.86,-3.72
7.6683,-5.8704,-3.1735,0.13011,0.092546,0.28527,-33.06,16.86,-3.66
11.836,-7.6002,-6.3471,0.067195,-0.15058,0.2251,-32.94,16.92,-3.42
9.5479,-5.6933,-6.0747,-0.055283,-0.28588,-0.099571,-33.0,16.8,-3.3
6.7421,-4.0861,-2.8058,0.021991,0.30055,0.20403,-32.88,16.44,-3.24
7.6683,-3.4732,-2.6696,0.072998,0.24557,0.33872,-32.7,16.32,-3.18
11.278,-6.674,-4.6037,-0.045204,-0.080329,0.18173,-32.64,16.38,-3.0
4.7671,-3.5685,-5.2983,-0.27519,-0.53848,0.19761,-32.76,16.2,-2.94
4.985,-3.3097,-6.5378,-0.43249,-0.14447,0.21961,-32.7,16.2,-2.94
7.8317,-6.851,-4.0997,-0.45693,-0.23946,0.35094,-32.52,16.2,-2.94
6.9191,-5.6933,-5.2575,-0.41294,-0.42455,-0.000611,-32.34,16.26,-2.7
7.927,-5.5162,-4.2904,-0.41081,-0.19884,0.20281,-32.4,16.14,-2.52
7.3822,-6.6467,-3.3097,-0.18937,-0.17074,0.22266,-32.16,16.26,-2.22
9.8611,-4.9306,-3.8001,-0.072998,-0.022602,0.089492,-32.16,16.32,-2.1
9.1256,-3.514,-4.7399,-0.014661,-0.046731,0.1066,-32.16,16.38,-2.04
6.96,-3.3778,-4.3585,0.0015272,-0.050396,0.35003,-32.16,16.68,-1.68
4.1814,-3.0101,-5.2575,0.11576,-0.095906,0.65668,-32.04,16.92,-1.44
6.8374,-9.8611,-3.2961,-0.013439,-0.5171,0.52412,-32.1,17.22,-1.32
5.1894,-2.5061,-8.6762,-0.20159,-0.56108,-0.62766,-31.74,17.28,-0.84
5.9249,-0.53119,-3.8001,-0.079107,-0.11454,-0.281,-31.68,17.46,-0.72
7.4503,-5.1485,-1.076,0.11576,0.45265,-0.01741,-31.62,17.58,-0.54
10.855,-9.7113,-4.7535,-0.19609,-0.36438,-0.14355,-31.68,17.76,-0.3
5.2575,-2.4517,-7.4095,-0.09896,-0.22266,-0.10568,-31.74,17.82,0.06
9.8611,-2.0158,-4.9169,0.10568,0.3427,0.065668,-31.62,18.0,0.18
7.9951,-10.556,-5.0259,0.16066,0.096211,0.21625,-31.62,18.24,0.66
3.0918,-2.547,-6.2654,0.10843,0.16249,-0.34667,-31.5,18.24,0.78
9.3572,-1.5391,-3.7592,0.11668,0.58582,-0.11851,-31.68,18.3,0.78
8.3901,-3.4459,-2.0839,0.12065,0.19823,0.16341,-31.5,18.36,0.72
7.7091,-5.1213,-5.5843,0.11332,0.23488,0.21075,-31.5,18.06,0.42
8.5127,-7.8862,-4.2359,-0.036957,-0.093157,0.11973,-31.44,18.0,0.3
5.6524,-4.4811,-6.7421,-0.12828,-0.1518,-0.24496,-31.74,18.0,0.12
6.2381,-4.8625,-3.4187,0.18845,0.1127,-0.17165,-31.8,17.94,0.06
8.8941,-3.5413,-4.0861,0.23946,0.14478,-0.31857,-31.86,17.76,-0.12
12.612,-3.3234,-4.3449,0.17318,0.12248,-0.40775,-31.86,17.7,-0.18
10.706,-4.5356,-3.1872,-0.0039706,-0.0012217,-0.018937,-31.86,17.58,-0.3
7.0962,-8.54,-1.9341,-0.050091,-0.15058,-0.027794,-32.1,17.52,-0.72
8.7851,-3.5958,-5.6252,-0.18906,0.027489,-0.66706,-32.16,17.46,-0.96
8.4719,-6.1155,-2.9556,-0.16952,0.11668,-0.38057,-32.34,17.22,-1.02
4.1951,-9.221,-3.0918,0.012828,-0.080634,-0.11057,-32.46,16.98,-0.96
1.3212,-7.1915,-4.1133,0.093462,0.21258,-0.34239,-32.58,16.98,-0.9
8.717,-3.5413,-4.8352,0.092241,0.47617,-0.36316,-32.76,16.86,-0.78
8.54,0.47671,-7.355,0.12339,0.72174,-0.20403,-32.82,16.74,-0.72
7.4503,-2.833,-1.58,0.030238,1.2682,0.16921,-32.94,16.62,-0.9
6.9872,-6.6604,-5.8976,0.18112,-0.21289,-0.17929,-33.18,16.56,-1.26
7.9134,-4.7671,-6.674,-0.16616,-0.20831,-0.064752,-33.3,16.68,-1.44
6.5378,-4.9442,-3.5413,0.0012217,0.33262,-0.22724,-33.36,16.56,-1.5
8.8668,-3.337,-4.5628,0.04612,0.16218,-0.13439,-33.48,16.32,-1.56
9.9701,-3.9908,-3.8546,0.18326,-0.21961,-0.16554,-33.54,16.26,-1.86
12.299,-0.57205,-4.6445,0.10293,-0.31826,-0.18967,-33.54,16.14,-2.04
8.1995,-2.4653,-2.2746,0.034819,-0.3543,0.20433,-33.72,16.2,-2.46
7.9951,-4.0589,-4.2904,-0.019548,-0.52687,0.12187,-33.66,16.26,-2.58
10.025,-7.4776,-3.228,-0.0082467,-0.51129,0.046731,-33.72,16.14,-2.7
2.3972,-2.2201,-4.7399,0.10996,-0.89919,-0.53542,-33.72,16.02,-2.76
9.7385,-3.337,-3.5549,0.33598,-0.30421,-0.23182,-33.84,15.9,-2.64
9.2891,0.65378,-4.9578,0.32956,-0.58796,-0.062919,-33.66,15.78,-2.58
9.4525,-4.1542,-2.8194,0.17318,-0.38637,0.197,-33.6,15.6,-2.16
4.8897,-4.6445,-4.018,0.18723,-0.45418,0.25779,-33.6,15.42,-1.98
7.5048,-7.0145,-3.8409,0.28253,-0.45296,0.25748,-33.6,15.42,-1.8
1.3212,-1.1169,-5.6116,0.46976,-0.33567,0.055894,-33.72,15.3,-1.32
8.54,-1.6072,-3.2144,0.32406,0.30879,0.1463,-33.72,15.3,-1.14
7.5593,-6.0066,-1.5527,0.31887,-0.032681,0.35888,-33.6,15.3,-0.9
5.4481,-5.3256,-5.3392,0.011301,-0.19059,0.28863,-33.48,15.12,-0.66
6.9055,-2.4244,-7.0281,-0.25779,0.16493,0.24526,-33.42,15.06,-0.66
10.501,-2.6832,-7.2324,-0.4383,0.24282,0.22235,-33.36,15.12,-0.6
7.3414,-8.8668,-4.6445,-0.61514,-0.47556,0.12004,-33.36,15.06,-0.48
1.3076,-6.2517,-5.3256,-0.48533,-0.61361,0.046426,-33.18,15.12,-0.42
5.884,-5.4754,-5.598,-0.36346,-0.029932,-0.13225,-33.18,15.0,-0.24
11.441,-7.7636,-4.7671,-0.18692,-0.2419,-0.1689,-32.94,15.06,0.06
7.9951,-5.4618,-5.9657,-0.11484,-0.01405,-0.044593,-32.88,15.0,0.24
7.6002,-3.4323,-6.1292,-0.074831,0.28497,0.13164,-33.0,14.94,0.36
3.1599,-5.4209,-3.1599,0.15608,-0.28588,0.34911,-32.88,15.0,0.54
5.8295,-1.471,-6.6876,0.2923,0.14386,0.33414,-32.76,15.06,0.66
8.8396,-4.6173,-0.47671,0.33109,0.29444,0.38393,-32.88,15.06,0.72
4.8625,-2.8603,-4.0589,0.39401,-0.11637,0.091324,-32.88,15.24,1.14
5.6116,-4.5356,-2.7377,0.22785,-0.034514,-0.044288,-32.88,15.48,1.2
8.0632,-2.3427,-5.6661,0.1127,-0.0281,-0.37171,-32.88,15.54,1.32
3.0101,-4.2495,-3.5277,-0.13439,-0.029322,-0.32987,-32.94,15.72,1.44
3.3234,-4.6037,-4.9442,0.023824,-0.085216,-0.19975,-32.94,15.78,1.38
9.3844,-5.3664,-5.2575,-0.016188,0.0088575,-0.32895,-32.94,16.02,1.44
7.7772,-5.8023,-5.1349,0.012523,0.013744,-0.087354,-33.3,16.08,1.5
8.6081,-6.17,-6.1973,0.039706,-0.33537,-0.19823,-33.42,16.14,1.38
8.7306,-5.2575,-5.884,0.11881,-0.2529,-0.050091,-33.36,16.08,1.32
9.398,-5.7342,-4.8625,0.21228,-0.20861,-0.011606,-33.54,16.08,1.26
7.5729,-7.2869,-3.6366,0.5339,-0.31032,0.042455,-33.54,16.08,1.2
8.7715,-2.8739,-5.2711,0.5455,0.025045,0.042761,-33.78,15.96,1.08
6.17,-1.4165,-3.4868,0.56139,0.17379,0.47831,-33.84,15.84,1.02
6.8647,-6.6059,-2.0839,0.45265,0.25717,0.51313,-33.84,15.78,0.9
3.8954,-7.1507,-1.3076,0.37232,-0.058948,0.28741,-33.78,15.78,0.96
4.6309,-3.4459,-2.4517,0.21777,0.42455,-0.18418,-33.66,15.84,0.84
8.6898,-6.7693,-4.3994,-0.031154,0.2416,-0.076358,-33.72,15.84,0.72
0.43585,-8.2676,-2.8058,0.11668,0.014661,-0.083994,-33.78,15.72,0.36
2.9556,-5.4618,-5.2575,-0.058032,0.96456,-0.5962,-33.72,15.78,-0.06
10.379,-5.0804,-4.7126,-0.22969,0.54275,-0.62492,-33.72,15.9,-0.24
6.4288,-5.5299,-3.4732,-0.0956,0.60567,-0.28527,-33.66,16.02,-0.36
6.6467,-4.1406,-3.6094,-0.02474,0.94806,-0.36133,-33.6,16.02,-0.66
5.5571,-10.093,-2.6968,0.010079,0.77549,-0.06017,-33.78,15.9,-1.2
3.6503,-11.06,-3.1872,0.26573,0.15944,-0.23946,-33.72,15.84,-1.5
5.4209,-5.1621,-9.5206,-0.11881,0.28924,-0.5226,-33.78,15.66,-1.74
10.692,-8.54,-2.833,-0.22877,0.71166,-0.072693,-33.84,15.42,-2.52
6.7557,-4.9033,-5.4209,0.038179,0.041844,-0.28283,-33.96,15.18,-2.88
7.8453,0.50395,-5.5707,0.089797,0.14508,-0.3094,-34.2,15.0,-3.12
11.414,1.2803,-3.5822,0.020159,0.52321,0.21472,-34.2,14.94,-3.54
10.692,-6.1155,-5.1076,-0.02474,-0.49083,-0.30818,-34.44,14.7,-4.14
5.1349,-3.9908,-4.3449,-0.25931,-0.32498,-0.14569,-34.5,14.58,-4.44
9.1393,-1.4438,-4.1542,-0.23671,0.17837,-0.037568,-34.56,13.92,-4.68
8.431,-3.2553,-3.8273,-0.09163,-0.36682,0.30543,-34.68,13.92,-5.04
5.7205,-1.2258,-4.4539,0.040623,-0.20556,0.38759,-34.68,13.8,-5.1
8.2812,-1.7162,-5.7069,0.045204,-0.043982,0.49786,-34.5,13.74,-5.22
4.2632,-9.2074,-5.5707,0.079412,-0.61728,0.27519,-34.44,13.74,-5.4
3.732,-6.4288,-5.9385,-0.07025,-0.43463,0.2419,-34.26,13.86,-5.46
8.9622,1.866,-7.8862,0.047037,0.19792,-0.068111,-34.26,13.86,-5.4
13.471,-3.2553,-4.6037,-0.16463,0.062919,0.33964,-34.2,13.74,-5.4
9.9973,-8.0224,-2.1112,-0.22755,-0.22235,0.55497,-34.08,13.74,-5.28
7.9134,-5.4754,-4.4947,-0.42883,-0.3879,0.096517,-34.02,13.68,-4.8
5.38,-3.051,-3.0918,-0.38271,-0.10873,0.33628,-33.9,13.68,-4.56
10.27,-5.6933,-4.7535,-0.39095,-0.038179,0.25045,-33.66,13.8,-4.32
3.228,-4.0589,-4.522,-0.19639,-0.57269,0.20342,-33.48,14.1,-4.14
3.7728,-2.4517,-4.0044,-0.03207,-0.092852,0.35369,-33.42,14.1,-3.84
7.3822,-1.5527,-5.6116,-0.18509,0.25107,0.14325,-33.3,14.34,-3.6
10.937,-7.5729,-4.1133,-0.32987,-0.40287,0.048869,-33.3,14.4,-3.3
4.6037,-5.8159,-6.3607,-0.35766,-0.74312,0.081856,-33.24,14.52,-3.12
3.3642,-8.2539,-4.1542,-0.29047,-0.52993,0.405,-33.3,14.52,-2.82
7.75,-4.3313,-6.17,0.027489,0.16677,-0.013744,-33.12,14.7,-2.16
8.1586,-4.6718,-2.5879,0.15088,0.2251,0.036652,-33.12,14.88,-1.86
3.4187,-8.0769,-0.40861,0.24435,0.14355,0.040012,-33.0,15.06,-1.62
7.641,-4.1814,-4.7399,0.12706,0.27306,-0.16829,-32.82,15.36,-1.38
8.0496,-1.5936,-4.2087,0.12248,0.27672,-0.011606,-32.7,15.6,-1.2
5.0531,-2.4244,-2.9011,0.25901,0.48503,0.37477,-32.7,15.72,-1.08
4.5356,-12.708,-6.4969,0.29138,0.41417,0.59956,-32.64,16.08,-1.14
8.1995,-2.6151,-10.311,-0.040928,0.49388,-0.3653,-32.64,16.14,-1.08
8.0224,1.9613,-9.5479,-0.032681,0.77397,-0.41142,-32.58,16.14,-1.14
6.851,-0.98067,-3.6639,0.23518,1.0165,0.28802,-32.52,16.26,-1.2
5.5435,-13.634,-4.9442,-0.24465,-0.26237,-0.054367,-32.4,16.38,-1.38
4.9987,-0.53119,-7.2869,-0.13103,0.54856,-0.3543,-32.52,16.44,-1.56
10.76,-3.2825,-1.4165,0.021075,0.74984,0.094073,-32.46,16.56,-1.56
11.182,-10.215,-3.3234,-0.11393,0.30971,0.054367,-32.52,16.56,-2.34
3.6911,-8.54,-2.152,-0.18418,-0.052534,0.1292,-32.52,16.56,-2.76
2.2337,-6.3062,-2.1929,0.1124,0.17349,0.15547,-32.46,16.44,-3.18
12.299,-1.5119,-5.3119,-0.054062,0.31826,-0.27978,-32.52,16.2,-3.84
15.473,-1.4301,-5.993,-0.27275,0.343,-0.55619,-32.58,16.14,-4.2
9.0712,-3.8001,-1.9341,-0.12401,0.3488,0.043677,-32.58,16.02,-4.38
3.9363,-8.0632,-3.8001,-0.049175,0.076053,0.10415,-32.52,15.84,-4.86
7.0962,-5.9249,-6.2245,-0.34147,0.10263,-0.34392,-32.52,15.72,-5.22
8.8668,-5.8295,-5.9657,-0.66737,0.3824,-0.56963,-32.76,15.54,-5.28
1.0488,-7.1371,-3.623,-0.05681,0.5061,-0.21197,-32.88,15.42,-5.58
5.9793,-4.0725,-6.0202,-0.13836,0.82864,-0.15241,-32.82,15.42,-5.88
11.25,-1.8796,-6.9736,-0.11484,0.76419,0.18357,-32.94,15.24,-6.36
8.5808,-7.0009,-3.7865,-0.14813,0.096211,0.064446,-32.94,15.3,-6.54
6.0202,-4.4811,-5.1894,-0.14905,-0.053145,-0.042455,-33.06,15.36,-6.66
6.9872,-5.0804,-2.2201,-0.090713,0.094073,-0.0036652,-33.12,15.3,-6.66
8.7715,-5.0804,-2.6696,-0.017715,-0.092546,-0.31887,-33.3,15.3,-6.84
12.245,-0.14982,-4.0044,-0.10812,-0.069028,-0.31765,-33.48,15.24,-7.02
8.5127,0.84446,-3.2825,-0.018937,-0.13347,0.15547,-33.48,15.24,-7.26
9.1937,-4.0725,-3.8273,0.022602,-0.42669,0.53817,-33.42,15.12,-7.32
7.9679,-11.4,-3.0373,-0.26909,-0.88667,0.15791,-33.6,15.24,-7.38
1.1441,-2.438,-8.6898,-0.14569,-0.72998,-0.20006,-33.42,15.36,-7.44
1.6753,1.9341,-4.6037,0.058032,0.17837,0.13134,-33.24,15.3,-7.32
10.243,-5.4754,-3.5685,0.074831,-0.30696,0.26023,-33.12,15.54,-7.26
10.215,-6.4152,-4.0316,-0.15974,-0.56474,0.025656,-33.0,15.72,-7.2
6.0883,-6.0474,-4.7944,-0.13103,-0.25198,0.27031,-32.82,15.6,-6.84
10.27,-11.877,-4.9306,-0.15363,-0.11179,0.33964,-32.46,15.54,-6.72
5.1485,-10.896,-5.2847,-0.30696,-0.59529,-0.11209,-32.4,15.6,-6.54
1.6072,-1.5391,-5.0395,-0.23824,-0.057421,-0.25229,-32.22,15.54,-6.24
12.681,-1.866,-4.0861,-0.25687,0.064752,0.052229,-32.1,15.6,-5.88
17.121,-3.4459,-5.3119,-0.49602,-0.16768,-0.0012217,-32.04,15.66,-5.58
10.569,-7.0826,-1.866,-0.59926,-0.50457,0.21686,-32.04,15.66,-5.28
3.6094,-5.1349,-4.0452,-0.31001,-0.17349,0.10049,-31.74,15.66,-4.86
7.8589,-5.5162,-4.7399,-0.33323,-0.2587,0.018937,-31.74,15.72,-4.74
7.1507,-2.3155,-7.6955,-0.41447,0.038179,0.10904,-31.8,15.72,-4.56
4.522,-11.686,-1.2667,-0.2642,-0.12859,0.32956,-31.74,15.66,-4.08
4.0861,-5.6797,-6.17,-0.20892,-0.15547,-0.28008,-31.74,15.6,-3.84
11.632,-6.8783,-5.993,-0.20433,-0.055589,-0.31826,-31.68,15.6,-3.48
1.9477,-4.6445,-4.2495,0.20403,0.21533,0.12889,-32.04,15.78,-3.0
7.1507,-3.0101,-4.9578,0.27428,0.35369,0.10018,-32.1,15.9,-2.7
11.414,-3.051,-4.2495,0.20769,0.28039,0.088881,-32.16,16.02,-2.52
10.243,-4.0044,-4.6445,-0.022297,0.021075,0.053756,-32.22,16.2,-2.4
4.8488,-5.3937,-4.6037,-0.083078,-0.15394,0.1686,-32.22,15.96,-2.1
6.7421,-5.4209,-5.38,-0.12798,-0.065363,0.021686,-32.22,16.08,-2.04
7.0553,-5.3937,-4.7671,-0.044593,0.06689,0.093157,-32.34,16.14,-1.8
6.7966,-3.9771,-5.6797,-0.057421,0.055283,-0.071471,-32.34,16.08,-1.68
5.8704,-3.0782,-6.0066,-0.065057,0.146,-0.038179,-32.28,16.14,-1.62
5.9249,-6.9872,-3.6366,-0.0088575,-0.045815,0.23366,-32.46,16.14,-1.74
7.1915,-6.7421,-4.4947,0.035736,-0.05681,0.036346,-32.4,16.14,-1.86
7.5865,-6.2517,-3.2689,0.19731,-0.0082467,-0.08491,-32.52,16.2,-1.98
9.4934,-4.0044,-3.623,0.32803,0.040012,-0.33567,-32.46,16.08,-2.28
11.032,-2.6832,-3.4187,0.25473,0.13958,-0.3372,-32.46,16.02,-2.34
11.25,-3.0101,-2.7922,0.16402,0.2193,-0.1573,-32.4,15.9,-2.52
5.1213,-6.2926,-2.1929,0.12004,0.10996,-0.0036652,-32.28,15.84,-2.7
3.0918,-5.1485,-4.6854,0.052534,0.19609,-0.1576,-32.4,16.08,-2.88
5.1757,-4.9578,-4.7535,-0.17349,0.57574,-0.11393,-32.4,16.02,-2.82
7.0417,-9.0848,-5.1621,-0.062614,0.041233,-0.1182,-32.52,15.78,-3.12
4.4675,-5.6661,-7.75,-0.099571,0.29596,-0.099876,-32.58,15.78,-3.18
6.0338,-4.3177,-6.7557,-0.087048,0.47831,0.0088575,-32.7,15.78,-3.42
8.8668,-4.3177,-4.7671,-0.098044,-0.13439,-0.15547,-32.82,15.78,-3.54
7.2188,-2.1929,-3.7456,-0.0562,0.11912,-0.036652,-32.88,15.78,-3.6
6.5105,-3.2553,0.83084,0.16677,0.27611,0.31368,-32.94,15.72,-3.66
11.278,-5.2575,-3.4868,0.0012217,-0.16677,-0.12401,-33.0,15.84,-3.72
8.6625,-0.16344,-6.1155,-0.16982,-0.015272,-0.11332,-33.0,15.9,-3.96
7.7908,-4.7126,0.53119,-0.0058032,0.067195,0.17807,-33.18,15.96,-4.14
9.4117,-1.3076,-8.0905,-0.043066,-0.38546,-0.090713,-33.24,15.96,-4.14
12.476,-6.0883,-3.3642,-0.22205,-0.03543,0.053451,-33.24,15.84,-3.96
7.8453,-10.542,-1.6344,-0.089492,-0.68356,-0.14539,-33.3,15.78,-4.08
8.8396,-3.7456,-5.2575,-0.2642,-0.51282,-0.48991,-33.24,15.66,-3.84
9.6568,-5.993,-2.6696,0.0061087,-0.27703,0.11026,-33.3,15.6,-3.9
7.6955,-3.9227,-5.7614,0.021075,-0.30665,0.048869,-33.3,15.48,-3.78
7.927,-3.9771,-3.7728,0.11179,-0.29932,0.50732,-33.0,15.24,-3.72
5.4345,-4.3177,-4.4539,0.18295,-0.1912,0.7138,-32.88,15.24,-3.66
11.618,-6.9872,-3.909,-0.026573,-0.69975,0.42761,-32.94,15.12,-3.6
4.5764,-2.9965,-6.0474,0.022602,-0.69791,0.19487,-32.76,15.06,-3.12
7.246,-4.0997,-4.1678,-0.10446,-0.47098,0.24587,-32.64,15.0,-2.82
4.8625,-2.3972,-5.1757,-0.095295,-0.49052,0.26512,-32.52,15.06,-2.34
10.787,-3.2689,-3.4732,-0.22174,-0.16463,0.15241,-32.46,14.94,-2.22
5.3256,-5.9657,-2.7513,-0.2306,-0.57879,0.12492,-32.28,15.06,-1.74
7.0553,-6.3743,-2.2474,-0.1912,-0.16005,0.037263,-32.22,15.06,-1.62
3.623,-3.2553,-2.6696,0.044593,-0.17287,0.20586,-32.16,15.18,-1.44
6.1836,-5.2575,-2.9148,0.16524,0.36346,0.7138,-32.04,15.54,-1.02
7.8453,-6.5105,-6.6059,0.11148,-0.34544,0.32376,-31.92,15.78,-0.78
9.7249,-8.2812,-7.8181,-0.1405,-0.53695,0.0018326,-31.92,16.08,-0.54
3.0237,-3.6094,-7.7091,-0.069944,-0.54734,-0.12156,-31.92,16.5,-0.06
9.6296,-5.7069,-5.5707,-0.02474,0.047647,-0.31276,-31.74,16.68,0.3
3.623,-2.5742,-4.4811,0.25504,0.020464,-0.089186,-31.62,16.86,0.54
10.025,-3.0918,-2.656,0.15027,0.32009,0.19975,-31.62,16.92,0.78
9.3572,-6.5514,-2.5879,0.16707,0.1857,0.34086,-31.68,16.92,0.78
7.6683,-6.8919,-5.0531,0.05681,-0.12004,0.12981,-31.56,17.28,0.84
4.522,-6.3198,-4.6037,0.11912,0.058948,0.27,-31.38,17.4,0.84
6.5786,-8.717,-5.2575,0.1631,-0.14416,0.16188,-31.44,17.52,1.02
4.8488,-2.5742,-6.4424,0.18906,0.12675,-0.18754,-31.14,17.82,0.84
11.618,-3.5004,-3.9363,0.025045,0.17257,-0.17746,-31.14,17.94,0.96
6.1973,-3.2144,-1.7706,0.091019,0.22358,-0.025351,-31.14,17.94,0.96
7.6138,-6.0747,-0.1362,0.052229,0.34178,-0.10049,-31.02,17.94,0.96
0.31327,-8.9077,-2.0703,-0.060476,-0.44349,-0.52779,-31.2,17.88,0.66
4.5628,-2.4108,-4.5492,0.041233,0.4667,-0.85491,-31.2,17.76,0.42
12.79,-2.5061,-5.094,0.11118,0.57879,-0.5339,-31.32,17.58,0.18
10.202,-5.7886,-7.8453,-0.03543,0.37538,-0.26481,-31.44,17.4,-0.18
8.1177,-7.7091,-6.3198,-0.17929,0.41447,-0.18509,-31.56,17.4,-0.3
2.7922,-7.5048,-4.9169,-0.19945,0.20678,-0.055283,-31.74,17.16,-0.48
1.9613,-5.1349,-3.1327,-0.079718,0.27978,-0.085521,-32.1,17.16,-0.72
5.2166,-4.4402,-3.3097,0.12462,0.66676,0.099571,-32.1,17.1,-0.96
9.6841,-6.0474,-3.2825,0.22571,0.47617,0.20006,-32.4,16.98,-1.14
10.815,-6.8647,-5.884,-0.010385,-0.25015,-0.1799,-32.64,16.8,-1.56
7.3822,-4.9306,-4.7671,-0.057727,-0.19517,-0.13836,-32.76,16.62,-1.8
5.6116,-6.0883,-1.9341,0.13073,0.094379,0.026573,-32.88,16.44,-2.04
5.6116,-6.0883,-1.9341,0.13134,0.1857,0.05284,-32.88,16.44,-2.04
14.124,-4.808,-4.699,-0.085827,0.26328,-0.089186,-33.0,16.38,-2.1
11.863,-5.1213,-4.1542,-0.081245,-0.22816,-0.2981,-33.06,16.38,-2.22
7.8726,-6.0474,-3.4051,-0.09163,-0.15944,-0.3427,-33.24,16.2,-2.4
4.9578,-6.6604,-2.6696,0.015882,-0.25779,-0.17501,-33.24,16.14,-2.52
7.7636,-4.9987,-4.6718,-0.041539,-0.18143,-0.354,-33.3,16.02,-2.64
10.229,-2.833,-5.2302,-0.10843,-0.26206,-0.35613,-33.18,15.9,-2.76
9.5479,-3.8818,-3.9363,-0.087659,0.10537,0.11973,-33.18,15.72,-2.76
8.54,-8.5808,-2.6287,-0.14905,-0.20403,0.25931,-33.12,15.54,-2.76
2.1248,-6.1428,-6.0611,-0.20281,-0.64691,-0.029322,-32.88,15.3,-2.7
8.1177,-1.5391,-8.4855,-0.24465,-0.20067,-0.2532,-33.0,15.12,-2.7
12.762,-0.068102,-6.8102,-0.12889,-0.0088575,0.019548,-33.12,15.0,-2.64
8.2539,-4.5356,-3.4323,-0.0281,0.062919,0.45509,-33.12,14.88,-2.58
3.8954,-7.9407,-4.1133,-0.15058,-0.19884,0.49572,-33.06,14.7,-2.4
6.3607,-7.1234,-2.9829,-0.20647,-0.15455,0.21044,-33.06,14.4,-2.28
7.0281,-3.0101,-3.2689,-0.034514,-0.089797,0.15974,-33.12,14.52,-2.1
8.4174,-5.6252,-2.8058,0.24893,0.16921,0.30024,-33.12,14.76,-1.68
6.279,-7.927,-5.8023,0.084605,-0.24923,0.26145,-33.0,14.82,-1.32
5.2166,-6.5786,-7.7364,-0.17501,-0.39309,-0.023824,-33.06,14.94,-1.2
3.3778,-2.3972,-5.4209,-0.077274,-0.054672,0.083078,-32.88,14.94,-1.14
4.0997,-4.7535,-3.2008,0.11087,0.17623,0.39187,-32.88,15.12,-0.9
7.4503,-4.9987,-3.4187,0.07025,0.1967,0.039401,-32.88,15.12,-0.78
5.2983,-10.079,-3.4459,-0.086132,-0.16066,-0.058032,-32.7,15.42,-0.48
4.0589,-8.5536,-5.5435,-0.14355,-0.26053,-0.12889,-32.52,15.42,-0.36
6.0883,-3.5958,-5.9249,-0.042761,0.2306,-0.18784,-32.46,15.6,-0.18
12.163,-6.1836,-4.6445,0.10263,0.30665,0.037874,-32.34,15.72,-0.3
8.8941,-6.9328,-6.4152,0.029016,0.1518,-0.1014,-32.4,15.84,-0.42
3.3097,-2.5606,-4.6445,0.021075,0.32498,0.0048869,-32.28,15.84,-0.48
6.8374,-8.6625,-3.8954,-0.065363,0.27978,0.21869,-32.4,15.72,-0.66
4.018,-7.4095,-5.9521,-0.18204,0.1408,0.050396,-32.34,15.78,-0.96
6.0066,-7.0009,-5.7342,-0.19945,0.26603,-0.087659,-32.28,15.84,-1.14
7.9543,-3.514,-5.3937,0.065973,0.34941,-0.10934,-32.28,15.9,-1.32
10.706,-2.3155,-6.2109,-0.009163,0.33537,-0.23824,-32.4,15.78,-1.62
9.0575,-6.279,-3.0237,0.0039706,0.48991,0.038485,-32.52,15.78,-1.68
7.9407,-9.8748,-4.3449,-0.088575,0.43585,-0.29444,-32.52,15.6,-2.16
8.9349,-8.3357,-3.9635,-0.26176,0.099571,-0.60476,-32.52,15.54,-2.46
3.9499,-1.185,-5.4345,-0.18387,0.36499,-0.45051,-32.58,15.48,-2.82
7.2869,-3.1735,-3.6775,-0.30727,0.95387,0.25045,-32.94,15.48,-2.88
7.2733,-4.0997,-3.732,-0.18601,1.036,0.5174,-32.94,15.48,-3.06
5.9521,-7.4912,-2.7377,-0.20739,0.70005,0.45998,-33.0,15.48,-3.36
7.5048,-10.174,-4.5901,-0.135,-0.29902,0.18845,-32.88,15.48,-3.96
3.4868,-1.757,-7.0826,-0.20617,-0.50366,-0.10293,-33.0,15.42,-3.96
4.2223,-1.7706,-10.079,-0.18204,0.46304,0.34697,-33.06,15.48,-4.02
9.0439,-6.9872,-0.65378,-0.048564,0.88637,0.53267,-33.12,15.72,-4.2
12.967,-5.5162,-7.5729,-0.21625,-0.13317,-0.051313,-32.94,15.72,-4.32
6.279,-7.5865,-1.58,-0.11545,-0.064752,0.32101,-32.7,15.9,-4.56
4.9578,-8.3084,-2.8603,0.000305,-0.1066,0.31398,-32.76,15.9,-4.68
7.641,-0.55843,-5.993,0.021686,0.096517,-0.28283,-32.82,16.02,-4.8
11.169,1.4438,-7.1507,-0.14325,-0.045509,-0.086437,-32.7,16.14,-4.86
13.021,-1.1986,-4.7671,-0.15058,0.18295,0.043982,-32.58,16.32,-4.98
5.0531,-4.304,-4.1406,-0.16829,-0.16982,0.1014,-32.22,16.38,-5.22
7.1915,-4.9306,-4.7126,-0.41722,-0.30788,-0.20067,-32.16,16.38,-5.28
7.7636,-6.9055,-2.7649,-0.43585,-0.43494,-0.14844,-32.16,16.32,-5.22
10.651,-7.2052,-5.5707,-0.34575,-0.49297,-0.23274,-32.22,16.56,-5.28
10.896,-2.5334,-6.0611,-0.41111,-0.66859,-0.47403,-32.04,16.38,-5.22
5.3664,0.47671,-8.2539,-0.28375,-0.56413,-0.22174,-32.1,16.26,-5.16
14.669,-10.801,-3.3642,-0.36408,-0.84208,-0.14722,-32.28,16.02,-5.04
0.40861,-4.9987,-4.2495,-0.1744,-0.66462,0.064752,-32.4,15.78,-4.98
8.54,-4.2495,-3.6094,-0.14508,-0.25504,-0.12065,-32.4,15.72,-4.98
11.618,-5.5162,-5.5299,-0.045509,-0.25779,0.14325,-32.46,15.54,-4.38
4.7671,-3.8682,-4.5492,-0.14203,-0.37782,0.16188,-32.52,15.36,-4.08
2.1384,-4.1951,-3.2144,0.08827,0.0012217,0.51924,-32.52,15.24,-3.66
5.2302,-3.4051,-5.6116,0.038485,0.0064141,0.63377,-32.46,15.36,-3.18
7.0962,-3.6639,-6.1155,-0.087354,-0.13347,0.46517,-32.34,15.48,-2.64
3.9908,-7.2733,-2.7513,-0.047037,-0.3543,0.72876,-32.22,15.6,-2.22
3.3778,-2.6968,-6.1292,-0.077274,-0.23121,0.20769,-31.98,15.78,-1.98
8.54,-2.4925,-7.2052,-0.12859,0.079107,0.32498,-31.98,16.14,-1.74
9.6704,-7.6819,-2.8739,-0.14355,-0.40225,0.31429,-31.8,16.2,-1.44
2.8603,-5.7614,-5.2847,-0.21869,-0.68417,-0.13561,-31.38,16.68,-1.02
9.6977,-6.4152,-5.9112,-0.072693,0.14569,-0.30543,-31.2,16.92,-0.78
13.021,-9.0167,-5.1757,-0.208,-0.41569,-0.16341,-31.14,17.04,-0.6
8.9349,-4.4539,-5.8976,-0.0018326,0.23213,-0.016799,-30.84,17.4,-0.36
8.7034,-8.145,-3.6366,0.15058,0.061087,0.28924,-30.72,17.64,-0.24
5.8704,-4.8352,-4.5764,0.15974,0.064141,-0.0018326,-30.48,17.82,-0.18
5.0531,-2.8603,-2.8194,0.17562,0.20708,0.29719,-30.42,17.76,-0.06
2.9965,-6.1836,-1.9341,0.32865,0.36255,0.62369,-30.42,17.76,-0.12
5.7342,-9.6977,-3.5685,0.06353,0.068111,0.058643,-30.24,17.82,0.06
13.579,-7.3686,-5.7069,-0.24404,-0.1631,-1.0214,-30.18,17.76,0.12
5.8704,-3.4323,-2.7377,0.011301,-0.13897,-0.90713,-30.18,17.7,0.12
8.5263,-2.0839,-4.5356,0.03207,0.14172,-1.0321,-30.36,17.64,0.06
6.6195,-4.2223,-3.9363,-0.13164,0.27458,-0.51618,-30.66,17.4,0.18
6.1019,-6.5786,-4.1814,-0.20769,0.57024,-0.15424,-30.84,17.28,0.12
5.8431,-6.1973,-6.3198,-0.2697,0.54947,0.16982,-31.02,17.16,0.24
5.9249,-5.4481,-6.96,-0.14111,-0.42364,0.13347,-31.26,16.86,0.12
3.732,-5.2847,-5.9249,0.19609,0.090103,0.33872,-31.32,16.68,0.12
4.1814,-3.7184,-5.2302,0.28222,0.24496,0.32437,-31.44,16.5,0.06
6.7012,-2.942,-6.4016,0.16432,0.70891,0.47709,-31.38,16.62,0.06
10.746,-6.3198,-1.4438,0.15638,0.18876,0.050091,-31.68,16.74,0.06
8.6217,-8.3765,-0.57205,0.13103,-0.36041,-0.24129,-31.86,16.62,-0.06
3.2008,-3.8409,-1.2122,0.24709,-0.39218,-0.36774,-31.98,16.5,-0.12
12.708,-5.8704,-4.6173,0.045509,-0.13958,-0.35369,-32.34,16.26,-0.18
9.616,-6.6195,-4.8625,0.052534,-0.63377,-0.36835,-32.28,16.14,-0.3
5.3256,-0.69464,-8.2948,-0.0956,-0.22633,-0.66706,-32.34,16.2,-0.42
5.0395,1.9205,-3.0373,-0.042455,0.22266,0.0079412,-32.34,16.26,-0.42
9.4798,-5.6524,-2.6832,0.056505,0.052229,0.47525,-32.4,16.2,-0.6
9.6568,-10.869,-2.1248,-0.040623,-0.63988,0.28008,-32.4,16.2,-0.6
6.8374,-2.9011,-6.1292,-0.12156,-0.6353,-0.10018,-32.22,16.14,-0.66
10.964,-3.9635,-5.5707,-0.11576,-0.52534,-0.03207,-32.28,16.14,-0.6
8.6762,-4.018,-5.9657,-0.046731,-0.52015,-0.049175,-32.28,15.84,-0.54
3.5822,-10.215,-3.623,-0.057421,-0.50396,-0.0076358,-32.34,15.54,-0.42
3.5685,-3.5277,-6.1564,-0.032376,-0.39767,-0.15791,-32.34,15.48,-0.3
12.898,-5.4481,-5.0123,-0.079412,-0.47128,0.10873,-32.16,15.36,0.18
4.3858,-2.438,-5.7342,0.12492,-0.12767,0.55467,-31.98,15.36,0.36
10.992,-6.96,-2.9011,0.14111,0.11087,0.54275,-31.92,15.42,0.54
7.7364,-9.9292,-2.3699,0.16035,-0.49358,0.66706,-31.74,15.42,0.6
4.7671,-3.4732,-5.9657,0.18418,-0.13836,0.15485,-31.38,15.6,0.72
5.3528,-2.6968,-4.0316,0.26848,0.019242,0.34422,-31.26,15.66,1.02
4.985,-3.3915,-3.8682,0.24374,0.076053,0.40989,-31.02,15.84,1.2
5.6797,-7.8862,-5.4618,-0.15547,-0.23488,0.022297,-30.9,16.32,1.32
3.4732,-5.8976,-5.7069,-0.22846,-0.35644,-0.086132,-30.84,16.32,1.38
4.5356,-5.1894,-5.4345,-0.17532,-0.13622,-0.20556,-30.9,16.5,1.44
7.2869,-4.5901,-4.4811,-0.085216,0.011301,-0.27917,-30.6,16.62,1.5
5.6388,-5.9112,-4.1133,0.018631,0.080634,0.0064141,-30.66,16.68,1.56
7.1507,-4.6445,-4.7944,0.031765,0.19151,-0.0054978,-30.54,16.8,1.44
9.1256,-2.0975,-5.9112,0.036041,0.17959,0.135,-30.48,16.98,1.56
6.3062,-5.7069,-3.623,0.11881,0.23121,0.54672,-30.42,16.98,1.62
5.2166,-6.9872,-3.337,0.10018,0.208,0.36744,-30.42,17.04,1.62
7.1234,-8.4855,-6.5241,-0.094073,-0.093462,-0.069639,-30.48,17.1,1.74
3.8001,-5.8295,-6.5378,0.000916,-0.34636,-0.38882,-30.54,17.1,1.68
6.9328,-0.31327,-4.4402,0.24312,0.21716,-0.51588,-30.66,16.98,1.68
8.4719,-2.1112,-3.7592,0.45265,0.5171,0.023824,-30.84,17.04,1.8
1.1441,-8.2948,-4.5356,0.11179,-0.32498,0.10293,-30.84,16.92,1.5
4.8625,-2.0294,-5.5843,0.044288,0.34667,-0.48686,-30.78,16.8,1.32
8.0496,-1.1986,-3.0646,0.048564,0.41386,-0.3259,-30.72,16.8,1.26
9.2755,-5.1485,-2.2882,0.0033598,0.022907,-0.040317,-30.84,16.86,1.14
0.88532,-5.7342,-4.2904,-0.1854,-0.01405,-0.1628,-30.96,16.8,0.96
4.0044,-2.2474,-5.9385,-0.30635,0.52779,-0.54336,-30.96,16.92,0.72
15.813,-9.6432,-5.598,-0.52382,-0.19151,-0.5339,-31.14,16.92,0.6
0.34051,-4.6854,-5.884,-0.31948,-0.076664,-0.4386,-31.26,16.68,0.54
1.0896,-5.6116,-5.4073,-0.20403,0.34422,-0.4328,-31.38,16.44,0.54
4.6582,-3.2689,-3.514,-0.075136,0.74434,0.049786,-31.5,16.26,0.36
16.072,-9.9292,-5.4481,-0.31521,-0.082467,-0.0042761,-31.86,16.26,0.36
2.8739,-6.9736,-6.4016,-0.068722,-0.19884,0.32742,-32.04,16.08,0.24
7.8317,0.76274,-6.0066,0.0039706,0.2193,0.11362,-32.28,15.9,0.24
13.757,-2.2201,-4.0316,0.026267,0.44318,0.21747,-32.34,15.9,0.3
11.223,-2.7377,-0.68102,0.11332,0.39156,0.40103,-32.52,15.9,0.36
9.8884,-8.6762,-4.6445,-0.14661,-0.28497,0.11881,-32.64,15.66,0.3
4.1542,-5.8295,-5.4209,-0.25198,-0.43799,0.013744,-32.52,15.66,0.3
7.7091,-6.3743,-4.2632,-0.03207,-0.28191,-0.11209,-32.58,15.42,0.24
5.094,-1.2395,-6.96,0.17623,0.3146,0.21564,-32.58,15.3,0.24
12.817,-4.6037,-5.4073,0.065057,0.15638,0.31154,-32.52,15.3,0.24
12.844,-6.9736,-5.7205,0.0061087,-0.23457,0.26359,-32.4,15.48,0.24
1.6344,-5.2166,-5.0531,0.0076358,-0.57788,0.12675,-32.1,15.54,0.24
5.1894,-5.4481,-3.514,0.059865,-0.21777,0.048258,-31.86,15.48,0.24
7.3005,-3.1191,-4.2495,0.13225,-0.24923,-0.13744,-31.8,15.48,0.3
11.673,-4.8216,-5.7069,0.043371,-0.3989,-0.18723,-31.68,15.48,0.36
6.2517,-3.8273,-4.8216,0.0018326,-0.40775,-0.062919,-31.68,15.48,0.3
6.96,-4.2495,-4.6854,-0.027184,-0.34514,-0.065668,-31.68,15.36,0.3
3.9363,-5.2983,-2.9965,0.04948,-0.31765,0.27214,-31.56,15.36,0.42
5.2302,-6.0883,-4.5356,0.06353,-0.31796,0.16127,-31.44,15.36,0.48
5.4345,-4.9578,-6.3198,0.13928,-0.26298,0.11668,-31.5,15.54,0.72
8.826,-3.1599,-5.1349,0.0039706,-0.37385,-0.14172,-31.44,15.54,1.02
6.4288,-5.5026,-3.8954,0.062919,-0.12339,0.086132,-31.32,15.72,1.2
6.4288,-5.5026,-3.8954,0.036041,0.054367,-0.031154,-31.32,15.72,1.2
4.2904,-5.9249,-4.6445,0.078191,0.0073304,-0.043066,-31.26,15.72,1.38
5.4073,-4.3177,-4.4402,0.018631,-0.09896,-0.033598,-31.32,15.84,1.62
5.38,-3.4732,-5.6933,0.197,0.094684,0.11362,-31.26,15.84,1.86
8.9486,-11.114,-4.8352,0.045815,-0.33262,0.1179,-31.02,15.9,2.1
5.6661,-5.4209,-8.4719,0.073609,0.030238,-0.30391,-30.54,16.02,2.34
6.8238,-6.7148,-4.3313,0.0015272,-0.22449,-0.28405,-30.42,15.84,2.34
10.501,-0.29965,-5.8567,0.20433,0.41966,-0.37538,-30.24,15.6,2.28
5.6797,-3.1054,-2.8603,0.13714,0.44654,-0.057727,-30.3,15.3,2.16
13.307,-12.435,-2.4517,0.13347,0.69669,0.33934,-30.24,15.18,1.8
2.8603,-12.871,-5.6388,-0.11698,-0.2022,0.22449,-30.18,15.18,1.8
0.39499,-7.5184,-3.4187,-0.000916,0.14142,-0.37629,-30.12,15.12,1.62
7.7636,1.471,-5.993,0.23518,0.33139,-0.58124,-30.24,15.0,1.2
15.132,-2.2337,-7.0281,0.083689,0.12981,-0.43982,-30.42,14.82,1.08
9.3027,-4.1951,-4.7671,-0.019548,0.33414,-0.38607,-30.9,14.58,0.9
7.8453,-4.6445,-4.2768,-0.35003,0.1631,-0.53512,-30.96,14.52,0.78
7.9951,-10.651,-2.9011,-0.50396,0.24374,-0.28375,-31.38,14.34,0.66
3.623,-7.6002,-4.2904,-0.46487,-0.01405,-0.23824,-31.38,14.22,0.6
6.5105,-6.0747,-7.069,-0.21014,0.5006,-0.28741,-31.38,14.04,0.54
9.8475,-0.69464,-9.5887,0.026573,0.46517,0.086132,-31.74,13.8,0.78
9.6296,-2.9556,-6.3198,0.16341,0.75442,0.51099,-31.92,13.5,0.66
5.6661,-6.4833,-1.1986,0.31765,0.50732,0.91538,-31.98,13.38,0.72
5.4209,-7.4776,-3.2144,0.17196,-0.19517,0.21075,-32.22,13.32,0.36
3.6775,-4.5356,-3.9227,0.018326,-0.31337,-0.072082,-32.28,13.32,0.36
7.9134,-4.3449,-3.4868,0.032681,-0.19639,-0.11545,-32.22,13.2,0.36
8.2539,-0.77636,-4.9987,0.15058,0.038485,0.0088575,-32.4,13.2,0.18
11.673,-5.1894,-4.2632,0.016493,0.13286,0.054062,-32.52,13.2,0.12
8.9894,-5.7069,-4.018,-0.07086,-0.40836,-0.1237,-32.52,13.26,0.12
3.4323,-3.0237,-3.5413,-0.10079,-0.36805,-0.26481,-32.52,13.32,-0.06
2.0567,-2.1929,-3.7047,0.072082,0.015882,0.17532,-32.58,13.5,-0.3
14.792,-9.7658,-6.1292,-0.15119,-0.74587,-0.21686,-32.58,13.5,-0.3
4.6854,-2.4108,-8.5808,-0.087048,-0.52931,-0.43463,-32.46,13.5,-0.72
14.478,-7.7364,-6.2245,-0.12126,-0.41172,-0.48075,-32.34,13.38,-0.78
5.0259,-5.4209,-4.7126,0.0042761,-0.39584,-0.17135,-32.4,13.32,-0.9
6.4288,0.20431,-4.7263,0.11118,0.20586,-0.3427,-32.22,13.02,-0.84
11.836,-4.5083,-2.6696,0.037874,0.0094684,0.28924,-32.28,12.9,-0.96
4.4266,-3.0918,-5.1213,-0.03146,-0.24404,0.37751,-32.34,12.84,-0.78
5.7342,-4.1406,-3.9908,-0.044593,0.18601,0.3262,-32.28,12.84,-0.66
4.9987,-6.9328,-2.7377,0.000305,-0.21166,0.53634,-32.28,12.84,-0.54
4.2904,-4.5083,-5.6933,-0.077885,-0.10904,-0.07758,-32.34,12.96,-0.54
4.9306,-6.0611,-3.2416,-0.11362,0.11454,0.072388,-32.46,12.96,-0.36
6.1019,-7.3277,-6.0611,-0.21075,-0.26756,-0.083994,-32.4,13.02,-0.24
6.0883,-7.5865,-3.6775,-0.26023,-0.13836,-0.076664,-32.4,13.14,-0.3
5.4754,-11.496,-4.1406,-0.14722,-0.10629,0.2923,-32.34,13.38,-0.12
4.5356,-6.2926,-5.2847,0.03146,-0.05681,-0.18754,-32.4,13.5,0.12
7.5184,-4.0725,-5.2166,0.30085,0.21533,-0.2138,-32.28,13.56,0.18
9.7658,-4.8488,-5.598,0.47495,0.34025,0.32559,-32.28,13.8,0.42
8.0224,-5.4754,-6.0611,0.14233,0.14539,0.29596,-32.28,13.92,0.42
4.2495,-2.1656,-5.6252,0.090408,0.080329,0.1909,-32.28,14.16,0.42
5.9385,-2.8058,-4.9714,-0.034514,-0.033292,0.25534,-32.04,14.64,0.42
3.8409,-2.6696,-3.9635,-0.018326,0.023824,0.33934,-31.86,14.76,0.36
4.7944,-5.7069,-4.4539,-0.11576,0.19914,0.28191,-31.68,14.82,0.42
4.3449,-5.7069,-4.6854,-0.096517,0.065363,0.011301,-31.26,15.18,0.12
11.782,-11.536,-6.1155,-0.13011,0.069333,-0.33689,-31.2,15.18,0.06
3.5413,-7.3822,-4.9033,-0.16005,-0.64935,-0.79596,-31.2,15.3,0.06
7.3958,-3.4459,-3.6366,-0.018326,0.091935,-1.0391,-31.32,15.24,0.06
4.8897,2.833,-6.96,0.18784,0.36927,-0.71319,-31.32,15.24,0.06
13.893,0.21793,-8.1858,-0.15302,0.6017,-0.22969,-31.62,15.36,0.06
3.1872,-8.4038,-3.8273,-0.21136,0.21625,0.2645,-31.68,15.3,-0.12
1.362,-4.2632,-5.7069,-0.17501,0.4441,0.052229,-31.68,15.24,-0.06
8.1858,-5.4481,-5.38,-0.21991,0.18845,0.12828,-31.8,15.0,-0.3
1.9341,0.46309,-8.8396,0.000611,0.065973,-0.13958,-32.04,14.82,-0.3
5.8295,0.64016,-8.1586,-0.053451,0.78863,0.27122,-32.22,14.76,-0.3
10.774,0.47671,-6.9736,-0.14966,1.4371,0.34972,-32.58,14.76,-0.3
6.6467,-10.038,3.6094,-0.090713,1.9349,0.58124,-32.82,14.94,-0.12
6.5922,-13.539,4.8488,0.11026,0.71868,-0.01069,-33.0,14.94,-0.24
3.1735,-4.9714,-6.1155,-0.051924,-1.3622,-0.28711,-33.3,14.94,-0.66
7.8726,-0.61292,-9.4253,-0.086132,0.029016,-0.33659,-33.24,15.06,-0.78
14.642,-0.61292,-8.7306,-0.15821,0.41661,-0.29841,-33.24,15.24,-1.08
8.5808,-6.8919,-3.228,0.027184,0.097433,0.18418,-33.24,15.18,-1.2
10.188,-4.3858,-4.6582,0.03879,-0.22449,0.15669,-33.3,15.3,-1.56
10.365,-5.094,-3.1191,0.1347,-0.22571,0.41478,-33.42,15.36,-1.68
1.6889,-3.0101,-1.8387,0.43127,-0.043677,0.821,-33.36,15.42,-1.68
12.095,-7.2324,-6.1836,0.32773,-0.16585,0.51374,-33.24,15.48,-1.74
17.666,-3.7728,-10.311,-0.10415,-0.54642,-0.25107,-33.24,15.48,-1.86
6.6331,1.471,-4.7944,-0.0076358,-0.043677,0.1408,-33.24,15.48,-1.8
2.6151,-4.4539,-2.0975,0.10385,-0.29016,0.44624,-33.18,15.36,-2.16
2.2337,-10.501,-1.2939,0.16066,-0.54184,0.51924,-33.12,15.48,-2.1
14.124,-7.8589,-7.5321,-0.13653,-0.48533,-0.26359,-32.82,15.78,-1.8
3.514,-2.0839,-4.7399,-0.14905,-0.5339,-0.22999,-32.76,15.6,-1.68
4.7671,0.14982,-6.3471,-0.10568,-0.041844,-0.23549,-32.82,15.66,-1.56
4.6718,-1.9886,-3.3506,-0.03207,-0.23518,0.41172,-32.52,15.72,-1.32
10.474,-8.7851,-4.3858,-0.11729,-0.13806,0.40561,-32.46,15.66,-1.02
8.9486,-10.924,-5.489,-0.50427,-0.6634,0.13744,-32.46,15.78,-0.84
3.2825,-6.1564,-4.304,-0.26114,-0.25137,-0.16768,-32.16,15.84,-0.36
7.8317,-3.8273,-5.0259,0.11729,0.069944,-0.31032,-32.16,15.96,-0.3
13.184,-7.7227,-5.8704,0.095906,-0.31246,-0.18815,-31.98,16.02,-0.24
7.4776,-1.0896,-8.9213,0.16738,0.16249,-0.24771,-31.8,15.72,-0.18
11.06,-4.7399,-4.1542,-0.018326,0.22846,0.000305,-31.74,15.66,0.18
0.89894,-4.808,-1.0488,0.1573,0.093462,0.58613,-31.68,15.48,0.36
9.3844,-7.6002,-0.99429,0.065973,0.53878,0.55344,-31.86,15.3,0.66
2.3291,-3.6094,-3.3097,0.18418,-0.354,0.40256,-31.86,15.66,0.72
5.6524,-0.19068,-10.038,0.12095,-0.10201,0.23182,-31.86,15.54,0.9
7.4231,-2.8194,-4.2223,-0.10904,0.13836,0.25107,-31.86,15.9,1.14
6.1836,-8.0905,-4.127,-0.11362,0.22174,0.22144,-31.86,16.08,1.14
6.6059,-13.702,-3.5549,-0.29016,0.029016,0.13195,-31.92,16.14,1.26
3.6366,-3.1599,-8.0224,-0.12981,0.069333,-0.42608,-31.92,16.32,1.26
10.869,-9.9156,-3.514,0.021991,0.18051,-0.025962,-31.92,16.32,1.2
8.4582,-4.0044,-5.1213,0.36957,0.28405,-0.19548,-31.98,16.44,1.14
12.803,-6.1155,-5.0259,0.23213,0.11423,-0.047953,-32.1,16.44,1.26
7.1779,-6.1836,-2.5606,0.32529,0.14661,0.050702,-32.1,16.56,1.2
5.6252,-1.7298,-2.833,0.32315,0.34758,0.1179,-32.1,16.74,0.9
6.5378,-2.0839,-3.2689,0.28069,0.34606,0.31154,-32.1,16.98,0.78
8.0224,-5.9249,-3.3097,0.071471,0.1179,0.06017,-32.1,16.98,0.66
8.2539,-4.6445,-4.9306,-0.030543,0.10232,-0.31215,-32.04,16.98,0.36
7.9679,-7.2188,-2.4108,-0.19975,0.20311,-0.5959,-32.28,16.98,0.24
5.4754,-7.927,-3.9908,-0.25351,-0.090408,-0.79626,-32.28,16.8,0.24
6.7966,-3.8273,-6.6331,-0.32529,0.22449,-0.63774,-32.4,16.5,-0.24
7.5593,-4.7944,-6.1292,-0.29169,0.27397,-0.049786,-32.52,16.2,-0.42
8.7715,-6.4697,-6.2381,-0.24007,-0.13103,0.08827,-32.88,15.84,-0.66
2.8739,-6.7966,-5.7886,-0.23854,-0.43433,0.03146,-32.88,15.72,-0.66
6.2245,-3.623,-5.3664,-0.060781,-0.2025,0.0024435,-32.88,15.6,-0.78
9.7658,-2.4517,-4.5492,0.051007,0.15272,-0.065363,-33.06,15.48,-0.9
8.8941,-2.7922,-3.1872,0.085827,0.20769,-0.050396,-33.24,15.24,-0.84
10.883,-3.4596,-2.9692,-0.061697,0.15547,-0.070555,-33.3,15.06,-0.84
9.1801,-3.0101,-2.9829,-0.099266,-0.10873,0.055283,-33.42,14.88,-1.02
7.6002,-5.2575,-3.4323,-0.01069,-0.29444,0.25107,-33.54,14.7,-1.02
3.8954,-2.6015,-3.1735,0.068722,-0.35125,0.28833,-33.48,14.52,-1.02
11.836,-8.4991,-2.4517,0.10476,0.12248,0.4948,-33.72,14.7,-1.08
9.6977,-6.674,-6.8647,0.087048,-0.91783,-0.22999,-33.54,14.76,-0.96
12.313,-11.114,-5.7614,-0.13439,-1.2272,-0.70921,-33.48,14.88,-1.02
2.3699,-2.0022,-7.5321,0.027489,-0.17959,-0.56352,-33.42,15.0,-0.96
15.187,-5.775,-6.7421,-0.044593,-0.023824,-0.69516,-33.48,15.0,-0.84
5.2711,-0.8717,-4.3994,0.12614,-0.45082,-0.072693,-33.36,14.88,-0.78
12.19,-5.1757,-4.7671,-0.002138,-0.28069,0.093768,-33.3,14.7,-0.48
3.7728,-6.2245,-2.9556,0.012217,-0.36163,0.31521,-33.3,14.58,-0.3
3.9363,-3.6911,-3.1599,-0.0051924,-0.10324,0.14264,-33.12,14.46,-0.06
6.4288,-1.0215,-4.6718,0.13622,0.086132,0.14905,-33.06,14.16,0.36
4.7944,-0.19068,-5.993,0.15547,0.33017,0.55925,-33.06,14.34,0.54
8.2812,-2.6015,-5.2166,-0.016493,0.42119,0.47037,-33.06,14.52,0.66
5.7478,-8.7306,-2.4108,-0.18601,-0.43188,0.14447,-32.94,14.52,0.84
0.88532,-8.1858,-6.0066,-0.23702,-0.6576,-0.15363,-32.94,14.46,1.26
1.8387,-4.3721,-4.0861,0.11301,0.030238,-0.0051924,-33.0,14.52,1.5
15.677,-17.257,-4.6718,0.16096,0.11393,-0.21869,-32.94,14.46,1.98
3.8682,-5.6661,-10.379,0.27061,-0.21716,-0.77733,-32.94,14.58,2.1
12.449,-3.8682,-6.3198,0.17593,0.12248,-0.95203,-32.94,14.58,2.28
5.3528,2.0294,-4.9987,0.43463,0.50121,-0.34086,-32.94,14.64,2.28
6.6331,0.95342,-1.5663,0.36255,0.4664,0.16738,-32.88,14.52,2.28
-0.095342,2.7922,-3.9635,0.45876,0.48228,0.95784,-32.94,14.58,2.22
9.4389,-5.8976,-2.9965,0.0054978,0.57055,0.84666,-33.06,14.82,2.22
3.514,-8.8941,-4.9987,-0.25381,-0.24984,0.54856,-33.0,14.82,2.1
-0.57205,-8.7715,-4.5492,-0.25045,-0.25992,0.3204,-32.88,14.88,2.04
3.5004,-4.7944,-5.9521,-0.044593,0.28344,-0.52626,-32.94,14.76,1.8
15.119,-5.7614,-4.0044,-0.07422,0.13989,-0.30818,-33.0,14.64,1.62
9.4253,-14.764,-0.12258,-0.1628,-0.60995,-0.45021,-33.12,14.64,1.44
-1.9613,-6.3471,-3.3915,-0.18723,-0.015272,-0.64904,-33.06,14.46,1.2
5.2302,-6.8102,-2.4789,-0.10629,-0.090103,0.076358,-33.06,14.34,1.14
11.795,-7.2869,-10.351,-0.10568,0.064752,-0.019548,-33.06,14.4,0.84
13.511,-9.1256,-10.093,-0.14142,-0.1518,0.50763,-33.06,14.4,0.9
7.6683,1.2803,-8.9213,0.31032,0.65393,0.62522,-33.06,14.52,0.66
12.095,-0.28603,-4.6582,0.050702,0.54581,1.1466,-33.0,14.52,0.54
5.3119,-2.656,-0.35413,0.18143,0.087354,1.0852,-32.88,14.64,0.24
-3.514,-10.896,1.076,0.25259,-0.17349,0.89461,-32.7,14.7,0.24
8.2812,-10.951,-3.4459,-0.1912,0.21808,-0.47159,-32.58,14.64,0.24
9.2074,0.19068,-4.4402,0.020159,0.39737,-0.72388,-32.4,14.76,0.06
8.1586,-7.0145,-4.0452,0.14019,0.060781,-0.28527,-32.16,14.88,-0.12
8.0905,-4.1133,-4.5356,0.26023,0.14813,-0.58765,-31.92,14.94,-0.42
14.669,-2.0703,-4.7944,-0.026878,-0.098349,-1.084,-31.86,15.12,-0.6
4.7671,-10.065,-0.8036,-0.13011,-0.37415,-0.50977,-31.8,15.24,-0.78
-0.10896,-9.1801,-4.4402,-0.43158,-0.28894,-0.1741,-31.74,15.3,-0.9
0.46309,-5.094,-5.4754,-0.45723,0.32009,-0.24312,-31.62,15.48,-0.96
14.029,-5.3392,-5.7069,-0.24557,0.041233,0.1854,-31.5,15.48,-1.02
14.029,-8.2812,-9.4389,-0.22449,-0.27581,0.060781,-31.5,15.42,-0.96
5.094,-11.7,-5.3528,-0.19487,-0.32437,0.1573,-31.68,15.42,-0.78
4.8897,-1.9477,-4.8761,0.34483,0.59834,0.26512,-31.92,15.12,-0.78
11.632,-2.7377,-4.5764,0.27275,0.34422,0.43463,-32.04,14.94,-0.78
11.659,-6.279,-2.9965,0.2135,-0.26878,0.2926,-32.16,14.82,-0.96
0.095342,-3.0237,-2.5879,0.2981,-0.080634,0.54367,-32.28,14.7,-0.96
9.4117,-4.6173,-5.7069,0.075442,0.065363,0.23854,-32.28,14.58,-0.72
11.25,-7.2324,-5.775,-0.19181,-0.38423,-0.062003,-32.52,14.64,-0.6
-2.0703,-1.4982,-3.5685,0.135,-0.084605,0.0030543,-32.46,14.64,-0.48
10.338,-4.7535,-5.8976,-0.082467,0.19578,-0.34147,-32.46,14.7,-0.42
14.356,-8.0224,-6.5105,-0.28466,-0.16707,-0.34117,-32.4,14.52,-0.54
1.5663,-8.9349,-3.6094,-0.38759,-0.84605,-0.73334,-32.4,14.7,-0.48
-4.2223,1.2939,-3.2825,0.18845,0.45418,-0.48717,-32.46,14.7,-0.36
11.25,-1.0896,-2.5742,0.047037,0.72937,-0.22846,-32.34,14.58,-0.3
15.84,-9.8339,-3.0373,-0.23702,0.07422,0.10171,-32.46,14.34,-0.36
-3.0373,-7.0553,-7.2052,-0.24893,-0.90378,0.4777,-32.34,14.34,-0.36
0.78998,-11.727,-10.365,-0.44868,-0.36285,-0.26176,-32.28,14.34,-0.3
6.456,0.88532,-6.7693,0.011912,0.16066,-0.23366,-32.28,14.22,-0.18
11.931,-1.2258,-4.2223,0.21044,0.4273,-0.14966,-32.46,14.16,-0.24
5.3392,-1.5391,-2.3563,0.27214,0.57941,0.61697,-32.28,14.1,-0.3
7.7091,-6.2654,-4.1542,-0.051007,-0.098044,0.25748,-32.28,14.16,-0.54
5.4481,-7.0145,-4.127,-0.16463,-0.43066,0.35216,-32.28,14.1,-0.48
3.5004,-10.896,-1.9205,-0.048564,-0.28619,0.2755,-32.4,14.28,-0.48
7.9543,-2.4789,-5.8295,0.086132,0.13195,-0.12339,-32.34,14.4,-0.48
10.12,-0.40861,-6.3198,0.1127,0.086132,0.014355,-32.28,14.52,-0.66
8.5808,-3.4187,-3.5004,0.24618,0.2361,0.25198,-32.28,14.7,-0.66
6.6331,-9.221,-4.5764,0.12584,-0.000916,0.26267,-32.04,15.06,-0.54
2.1384,-4.2495,-5.2166,0.000305,-0.22358,-0.055894,-31.98,15.18,-0.6
5.2166,-4.3858,-5.2302,0.010079,-0.10324,0.022602,-31.92,15.12,-0.48
6.3607,-4.0725,-2.2337,0.13011,0.15455,0.11393,-31.92,15.3,-0.48
10.515,-9.7385,-3.7728,0.21808,0.23152,0.33139,-31.56,15.6,-0.72
4.3585,-7.3141,-4.6854,0.15302,-0.2419,0.038485,-31.5,15.66,-0.72
12.694,-9.7658,-7.8453,0.080634,-0.087354,-0.4105,-31.44,15.6,-0.72
3.3506,-2.3018,-4.9987,0.09163,-0.28344,-0.16799,-31.26,15.6,-0.72
5.2711,-2.833,-1.9886,0.25045,0.19853,-0.13531,-31.14,15.54,-0.78
6.7148,-3.5277,-4.0861,0.26756,0.24129,0.058338,-31.08,15.6,-0.96
8.6353,-7.8045,-6.3062,-0.27703,-0.29047,-0.36408,-30.9,15.54,-1.2
7.75,-14.301,-3.337,-0.24251,-0.26084,-0.44471,-30.84,15.48,-1.2
-1.7298,-4.1542,-2.0839,0.15913,0.17349,-0.3317,-30.72,15.66,-1.26
11.768,-4.5083,-4.1814,0.13408,0.28863,-0.28222,-30.66,15.42,-1.5
11.496,-8.9349,-5.1621,0.0073304,0.17318,-0.20525,-30.72,15.42,-1.74
6.3198,-6.1564,-7.6819,-0.098655,-0.02138,-0.29291,-30.66,15.36,-1.98
6.4969,-4.699,-4.5356,-0.2025,0.074526,-0.35369,-30.84,15.06,-1.92
5.5299,-8.9894,-2.8058,-0.1686,0.21502,0.093462,-30.96,14.76,-1.98
7.246,-8.7987,-5.3119,-0.26878,0.23305,-0.30727,-31.02,14.58,-1.92
5.6116,-1.58,-4.3721,-0.059865,0.20128,-0.28008,-31.14,14.34,-2.16
11.795,-0.92618,-6.9191,-0.10904,0.18845,-0.19456,-31.32,14.22,-2.1
10.964,-1.6481,-5.38,-0.11362,0.32681,0.34789,-31.38,14.04,-2.1
4.4402,-6.7148,-2.6696,-0.089492,0.6298,0.86651,-31.5,13.98,-2.16
6.3743,-9.1937,-4.4402,-0.2532,0.31337,0.38485,-31.74,13.98,-2.34
6.279,-4.4402,-4.9306,-0.22449,-0.000305,-0.027794,-31.92,13.8,-2.46
6.7421,-5.2575,-3.7047,0.000916,0.21869,0.44868,-32.04,13.8,-2.58
9.8066,-8.7987,-6.6331,-0.12217,0.17623,0.13286,-32.1,13.86,-2.52
7.5048,-9.4525,-5.5435,-0.2135,-0.025351,-0.040317,-32.16,13.86,-2.52
4.4402,-2.2474,-4.7399,0.087354,0.23366,-0.17929,-32.1,13.8,-2.58
8.3493,-5.4073,-3.4868,0.10843,0.22999,0.26023,-32.28,14.16,-2.76
11.836,-11.7,-3.4596,-0.071471,0.14539,0.23518,-32.4,14.16,-3.0
0.19068,-5.8976,-3.5958,0.082772,0.024129,0.26298,-32.22,14.28,-3.06
10.324,-1.4846,-6.7285,0.21808,0.30757,0.11576,-32.28,14.58,-3.3
14.601,-7.8726,-4.0316,-0.15272,-0.1014,0.1912,-32.28,14.64,-3.3
4.8625,-10.256,-4.3721,-0.090103,-0.13744,0.11515,-32.16,14.76,-3.48
-1.7162,-7.8998,-4.2223,0.085521,0.40378,-0.17959,-32.16,14.82,-3.48
14.996,-0.54481,-5.7614,-0.19639,0.065057,-0.61392,-32.16,14.88,-3.6
12.449,-3.5413,-2.6968,-0.19273,0.15638,0.31612,-32.46,14.88,-3.6
2.2337,-8.8124,-3.8546,-0.13897,0.22235,0.31185,-32.52,14.76,-3.78
9.112,-9.6568,-6.7012,-0.30757,0.063835,0.042455,-32.52,14.76,-3.96
12.095,-11.182,-4.8625,-0.57696,-0.41783,-0.43891,-32.52,14.82,-4.02
3.8137,-3.1191,-4.4675,-0.021991,-0.088881,-0.36682,-32.58,14.7,-4.08
13.021,-7.0009,-6.3743,0.012217,0.098349,-0.1909,-32.76,14.88,-4.14
9.1665,-5.5162,-6.8919,-0.19761,-0.11668,-0.15577,-32.88,14.82,-4.2
7.4776,-3.5685,-4.5356,-0.24099,-0.12309,-0.22297,-32.94,14.64,-4.26
4.7535,-7.8998,-2.152,-0.083383,0.23976,0.32559,-33.0,14.46,-4.32
10.161,-13.879,-2.9011,-0.069639,0.22266,0.55589,-33.0,14.34,-4.26
4.699,-10.583,-3.8954,-0.11087,0.0058032,-0.059254,-33.0,14.22,-4.14
9.8339,0.43585,-5.9112,0.11668,0.22327,-0.13561,-33.18,13.98,-4.02
11.768,-2.656,-4.2223,0.043982,0.091324,0.27825,-33.0,14.16,-3.96
11.945,-10.406,-4.1678,-0.33445,0.0051924,0.087965,-32.82,14.16,-3.9
-4.4402,-1.5527,-1.9205,-0.20678,0.24648,0.10476,-32.94,14.04,-3.66
4.7671,-1.975,-3.3097,-0.24526,0.39798,-0.17929,-32.94,14.04,-3.42
14.383,-5.7342,-2.6696,-0.39187,-0.18326,0.082467,-32.94,14.1,-3.54
8.6762,-8.0496,-4.6445,-0.39279,-0.31765,0.18387,-33.0,13.98,-3.42
2.4108,-4.5764,-5.1485,-0.22755,-0.082772,0.22327,-33.18,14.22,-3.3
12.735,-4.3994,-7.5729,-0.14478,0.20464,0.14447,-33.12,14.4,-3.18
7.5457,-6.2245,-3.9363,-0.16585,-0.16585,0.45571,-33.0,14.34,-3.06
4.1814,-4.413,-4.9306,0.030238,-0.031154,0.56933,-33.0,14.52,-2.88
6.8102,-6.5378,-3.6094,0.064752,0.18784,0.65485,-32.94,14.76,-2.7
9.2618,-6.0747,-4.9987,0.0018326,-0.10232,0.31948,-32.94,15.06,-2.7
6.4424,-5.6661,-4.0316,-0.016493,-0.22816,0.25656,-32.88,15.12,-2.7
2.7377,-5.3937,-3.1054,0.1744,0.1014,0.29383,-33.0,15.6,-2.58
8.6081,-5.2847,-5.0259,0.075442,0.038485,-0.12156,-32.88,15.84,-2.4
9.2891,-4.0725,-5.1894,0.002138,-0.13989,-0.15944,-32.76,15.9,-2.52
7.2596,-3.6094,-4.4266,-0.018326,-0.16982,-0.057421,-32.28,16.26,-2.22
5.4073,-5.8023,-4.018,-0.078802,0.01741,0.13195,-32.16,16.44,-2.1
5.8704,-7.8045,-4.127,-0.15088,0.012523,0.08491,-31.86,16.5,-1.98
6.2517,-1.9341,-3.909,-0.15424,-0.18937,-0.26878,-31.86,16.8,-1.98
6.2517,-1.9341,-3.909,-0.15424,-0.18937,-0.26878,-31.86,16.8,-1.98
10.27,-6.9191,-4.9306,-0.22969,-0.043677,-0.0085521,-31.86,17.04,-2.1
8.7715,-9.2482,-5.0259,-0.34025,-0.025351,0.053756,-31.86,17.04,-2.1
5.5707,-4.0861,-4.5492,-0.24251,-0.17959,-0.079718,-31.74,16.98,-1.8
8.9213,-3.6094,-5.4754,-0.10629,0.015577,0.021075,-31.68,16.98,-1.74
6.8919,-7.1643,-4.9306,-0.08491,-0.060476,0.30543,-31.74,16.86,-1.56
7.0553,-8.0769,-5.6661,-0.030238,-0.058338,0.42302,-31.86,16.8,-1.56
5.8023,-5.4754,-5.3528,-0.024129,-0.14447,0.2025,-31.92,16.74,-1.56
8.2948,-2.9965,-5.094,0.055894,-0.16952,0.25381,-32.04,16.74,-1.38
9.398,-6.7829,-2.9965,0.012217,-0.0030543,0.25809,-32.1,16.8,-1.44
4.6037,-8.8396,-2.152,0.094684,-0.036957,0.22816,-32.16,16.74,-1.32
9.221,-7.641,-6.1292,0.055283,-0.10904,-0.10263,-32.04,16.92,-1.14
11.264,-8.4719,-5.9657,-0.25198,-0.70616,-0.55925,-32.04,16.8,-0.96
7.9679,-4.1814,-6.7557,-0.24954,-0.5287,-0.65149,-31.98,16.68,-0.66
5.4073,-4.808,-3.1872,-0.04215,-0.10782,-0.31948,-31.98,16.62,-0.54
6.4424,-1.3893,-5.1894,-0.031765,0.093157,-0.37202,-31.86,16.62,-0.48
11.863,-2.8467,-4.0589,-0.23671,-0.17685,-0.26634,-31.92,16.62,-0.36
7.6819,-9.0575,-3.6775,-0.2416,-0.083383,0.17043,-31.86,16.5,-0.12
4.2087,-9.6977,-4.6037,-0.30452,-0.36408,-0.11301,-31.74,16.44,-0.06
5.5707,-7.2733,-6.3335,-0.28619,-0.39248,-0.51924,-31.74,16.44,0.12
6.2245,0.35413,-5.5707,-0.025656,-0.10049,-0.34361,-31.92,16.26,0.54
10.215,-2.7241,-4.8625,-0.02474,0.37721,-0.043982,-32.04,16.14,0.72
10.161,-8.5127,-3.3506,-0.20617,0.1182,0.21716,-32.1,16.14,0.84
5.6388,-2.2474,-5.5707,-0.22969,-0.24832,-0.10843,-32.34,15.72,1.14
4.6173,-3.2144,-2.6287,0.045509,0.20586,0.70647,-32.46,15.84,1.26
8.0905,-4.9578,-7.3141,0.20372,0.18998,0.7648,-32.58,16.14,1.38
7.4776,-11.605,-4.699,0.06353,-0.076969,0.87384,-32.52,16.14,1.44
5.993,-6.4697,-5.5707,0.22877,-0.62522,0.012523,-32.46,16.26,1.62
5.5843,1.58,-11.496,0.26786,-0.42516,-0.10415,-32.52,16.26,1.62
10.569,-9.8066,-1.6753,0.11118,-0.051313,0.56047,-32.52,16.56,1.74
6.3743,-6.3335,-4.413,0.010079,-0.33414,-0.28558,-32.4,16.62,1.8
-2.8603,-5.0259,-0.92618,-0.086437,-0.51068,-0.69303,-32.34,16.62,1.98
7.1915,0.14982,-5.2847,0.16616,0.096211,-0.62278,-32.1,16.8,1.98
14.574,-3.8273,-4.7399,0.0042761,-0.3937,-0.82864,-31.92,16.86,2.16
0.54481,-8.0905,-5.0395,0.15333,-0.23946,0.37324,-31.92,16.92,2.22
5.5435,-4.9987,-5.8295,0.1014,-0.029932,-0.081551,-31.74,16.86,2.4
8.2267,-2.9556,-5.3256,0.029627,-0.22785,-0.076664,-31.68,16.68,2.58
5.8295,-2.547,-3.9227,0.16554,-0.25656,0.057421,-31.5,16.2,2.88
8.9213,-4.6037,-5.9112,-0.1518,-0.070555,-0.20128,-31.5,16.08,3.12
6.7966,-6.5514,-4.4675,-0.23763,-0.17898,-0.24862,-31.56,15.9,3.12
6.0202,-7.6138,-3.1599,-0.17257,-0.1127,-0.44379,-31.56,15.66,3.54
12.817,-9.7658,-4.9306,-0.35766,-0.35675,-0.74251,-31.56,15.42,3.54
6.279,-6.279,-5.2847,-0.20953,-0.34575,-0.48075,-31.98,15.3,3.96
9.507,-2.833,-7.4095,0.016188,-0.0094684,-0.2923,-32.16,15.06,4.26
8.1722,-2.7241,-7.464,0.13195,0.022297,0.44654,-32.1,14.88,4.5
8.1722,-2.6015,-7.6138,0.14478,0.067195,0.51771,-32.1,14.7,4.56
3.4459,-4.3313,-4.127,0.20617,0.072998,0.77061,-32.04,14.58,4.86
3.623,-3.7592,-3.7047,0.26389,0.19212,0.75808,-32.1,14.7,4.86
5.2847,-7.4231,-2.6015,0.17104,0.075136,0.63958,-32.1,14.76,4.92
5.5843,-5.2438,-2.7377,0.18998,-0.085521,-0.27367,-32.04,15.24,4.68
8.1586,-1.4982,-4.7535,0.15638,-0.28772,-0.47617,-32.1,15.3,4.68
9.1529,-3.0918,-4.5083,0.14569,-0.43952,-0.354,-32.1,15.42,4.8
7.1915,-5.4073,-4.6037,0.009163,-0.043677,-0.26878,-32.1,15.48,4.8
5.9112,-10.324,-4.8625,-0.12034,-0.17746,-0.30543,-31.92,15.66,4.92
4.8625,-5.8431,-4.3177,-0.029627,-0.25045,-0.46945,-31.8,15.54,4.92
8.8668,-0.68102,-6.6604,0.096822,-0.33109,-0.13622,-31.38,15.54,4.8
9.1801,-3.7865,-5.9793,0.16646,-0.059865,0.22449,-31.38,15.48,4.74
7.641,-6.4697,-5.0804,0.17501,0.05681,0.42822,-31.5,15.48,4.68
6.6604,-5.6933,-5.3528,0.085521,-0.018021,0.13347,-31.5,15.54,4.74
7.5865,-4.699,-3.8409,-0.0012217,-0.2587,-0.0054978,-31.5,15.48,4.8
5.5707,-4.0725,-2.6968,0.10354,-0.11209,0.016799,-31.5,15.48,4.8
2.9148,-3.5685,-2.4789,0.21991,0.096211,0.016799,-31.62,15.24,5.16
10.597,-7.5729,-4.9306,0.036346,-0.14172,-0.13408,-31.5,15.3,5.22
8.5536,-10.038,-5.203,-0.0067195,-0.59651,-0.30788,-31.5,15.18,5.16
7.6955,-2.656,-6.6331,0.050396,-0.25473,-0.5678,-31.38,15.18,5.16
7.7227,-5.3937,-4.6718,0.083383,-0.15608,-0.19242,-31.44,15.12,5.22
7.5729,-7.3822,-4.3313,0.12401,-0.098655,-0.24648,-31.38,15.18,5.22
8.2131,-4.1814,-4.9442,0.085216,-0.082467,-0.24374,-31.62,15.24,5.16
8.0224,-5.0668,-4.9987,0.082161,-0.23488,-0.091019,-31.62,15.3,5.22
6.8238,-5.8295,-5.1213,0.058032,-0.068417,-0.035125,-31.5,15.3,5.34
5.2302,-4.018,-4.0861,0.12248,-0.0085521,-0.020769,-31.26,15.18,5.34
10.379,-7.4776,-4.522,0.081245,-0.13622,-0.12217,-31.14,15.18,5.4
1.7843,-4.8216,-3.3506,0.2248,-0.027184,0.065973,-31.14,15.12,5.46
9.5751,-2.7377,-5.6524,0.084605,-0.10049,-0.10293,-31.08,14.88,5.34
7.9679,-5.5026,-4.5628,0.099266,-0.025962,0.02138,-31.2,14.7,5.34
7.4095,-9.6977,-4.1542,0.064141,-0.073609,-0.10507,-31.08,14.58,5.4
9.6023,-3.4732,-5.6524,-0.03543,-0.083689,-0.56383,-31.26,14.52,5.64
9.6023,-5.7614,-3.9227,-0.019853,-0.26603,-0.22755,-31.26,14.4,5.7
4.6173,-5.0668,-4.5628,0.11851,-0.11912,-0.0036652,-31.2,14.34,5.76
7.6274,-3.6366,-4.8625,0.030238,-0.002138,0.018631,-31.32,14.28,5.76
6.0611,-4.5628,-4.127,0.1909,-0.074526,0.31521,-31.26,14.22,5.82
3.9499,-6.6195,-3.732,0.26145,-0.040012,0.52137,-31.26,14.28,5.88
7.0553,-4.8625,-6.1564,0.15944,-0.071166,0.066584,-31.62,14.28,5.94
5.9657,-1.6481,-4.8352,0.24007,-0.16188,0.05681,-31.74,14.4,6.06
6.4016,-1.5255,-4.4539,0.33567,0.064446,0.25595,-31.74,14.46,5.94
4.3449,-5.5435,-2.4517,0.29596,0.24679,0.25595,-31.86,14.7,6.0
8.2267,-8.4038,-3.7184,0.028405,-0.14142,-0.13134,-31.92,14.82,6.06
5.2575,-6.1973,-4.0316,-0.0051924,-0.32651,-0.23518,-31.86,15.0,6.0
7.3822,-4.8352,-5.7886,-0.0054978,-0.30116,-0.37354,-32.04,14.94,6.0
5.6661,-3.051,-4.7535,0.11362,-0.0033598,-0.16768,-31.98,15.06,5.94
9.4389,-7.2869,-5.8704,0.10904,0.060476,-0.051924,-31.92,15.18,5.88
5.3528,-4.5356,-6.6195,0.091935,-0.30177,-0.31124,-31.8,15.3,5.76
5.3528,-4.5356,-6.6195,0.16829,-0.2584,-0.27886,-31.8,15.3,5.76
6.9191,-2.9965,-4.1951,0.33201,0.03543,0.27917,-31.86,15.42,5.82
7.0962,-7.7364,-2.9965,0.32254,0.29535,0.54856,-31.92,15.48,5.7
4.6037,-7.6002,-3.6911,0.18876,0.0027489,0.17318,-31.68,15.66,5.64
7.8317,-6.8647,-4.5628,0.16066,-0.11912,-0.026573,-31.56,15.66,5.4
6.279,-4.0997,-4.3313,0.14447,-0.25076,-0.25473,-31.56,15.54,5.46
6.3879,-4.5492,-4.522,0.12187,-0.076664,-0.38729,-31.5,15.42,5.52
4.6718,-5.4209,-3.3097,0.14416,0.079718,-0.29932,-31.5,15.24,5.52
8.6489,-5.993,-5.0668,0.025351,0.0039706,-0.48625,-31.62,15.12,5.46
8.6489,-5.094,-5.2438,-0.079412,-0.18357,-0.45143,-31.62,15.06,5.28
8.9622,-5.3119,-4.985,-0.062614,-0.17898,-0.2587,-31.74,14.88,5.34
5.1076,-6.4697,-4.9306,-0.061697,-0.10721,0.13897,-31.8,14.76,5.34
7.5321,-5.6933,-6.3062,-0.0088575,0.062919,0.089186,-31.74,14.64,5.58
8.0224,-5.5299,-4.7944,-0.013439,0.0024435,0.081856,-31.74,14.58,5.58
4.7671,-3.6775,-4.3177,0.26512,0.16921,0.23976,-31.8,14.4,5.52
6.6059,-3.8954,-4.7399,0.19181,0.11973,0.1854,-32.16,14.16,5.58
6.9736,-4.3994,-3.9635,0.13225,0.12523,0.22113,-32.28,14.1,5.52
5.993,-6.4152,-1.9886,0.16585,0.20159,0.11881,-32.28,14.22,5.52
7.2188,-8.2403,-4.3585,0.16066,0.016188,-0.086437,-32.34,14.22,5.28
6.674,-6.2245,-6.1564,0.07025,-0.32284,-0.27825,-32.28,14.28,5.28
5.4345,-4.5083,-5.9521,0.15272,-0.26756,-0.24923,-32.46,14.28,5.28
7.4367,-3.9227,-6.1292,0.33811,0.055283,0.030543,-32.22,14.4,5.34
6.8919,-5.9249,-5.5707,0.32834,0.15394,0.16952,-32.22,14.46,5.34
4.7263,-5.6252,-4.3858,0.29352,0.10201,0.12584,-32.22,14.58,5.34
6.6467,-5.2711,-4.2223,0.22785,0.0033598,0.072388,-32.46,14.7,4.92
7.1915,-11.128,-3.732,0.087659,-0.13989,-0.20586,-32.52,14.7,4.68
2.9284,-7.1779,-3.514,0.16249,-0.059865,-0.30971,-32.4,14.82,4.74
7.3414,-4.1406,-3.9227,0.18509,0.05681,-0.41661,-32.28,14.88,4.56
7.5457,-3.3506,-4.0725,0.18692,0.12889,-0.3207,-32.22,14.82,4.44
9.4117,-4.2087,-5.38,0.047953,0.089186,-0.38026,-32.28,14.58,4.32
6.279,-6.7829,-3.6775,0.013744,0.24771,0.010079,-32.28,14.46,4.32
5.2983,-7.7091,-4.1951,-0.097738,0.11881,-0.029627,-32.28,14.34,4.2
5.6116,-6.3743,-4.7807,-0.13622,0.042455,-0.15547,-32.28,14.22,4.14
6.8647,-4.699,-5.2711,-0.035736,0.071166,-0.025962,-32.58,14.28,3.9
6.0611,-4.7944,-5.1485,0.062614,0.28283,-0.032376,-32.76,14.16,3.42
8.4719,-5.094,-6.3743,0.097738,0.33506,-0.11637,-32.76,14.1,3.24
6.4152,-6.674,-5.1213,-0.037874,0.14203,-0.22266,-33.0,13.92,3.12
5.5435,-6.1428,-5.2711,0.03207,0.15119,-0.12492,-33.0,13.8,3.06
5.884,-5.9521,-4.1542,0.089797,0.39034,0.061392,-33.18,13.62,2.94
8.5672,-6.3471,-5.4618,0.11179,0.29077,0.033598,-33.18,13.5,2.76
7.0281,-3.9635,-5.0531,0.1576,0.30696,-0.002138,-33.48,13.14,2.46
5.9112,-2.9965,-4.1814,0.33903,0.43707,0.26878,-33.42,13.08,2.34
7.0553,-9.6023,-4.2223,0.078191,0.37965,0.28527,-33.66,13.14,1.92
1.2667,-5.6116,-2.7513,0.19792,0.50916,0.12523,-33.66,13.14,1.68
10.12,-2.9011,-6.0474,0.023518,0.35675,-0.45387,-33.66,13.2,1.44
10.583,-4.6718,-5.3664,-0.08491,-0.03146,-0.29077,-33.54,13.08,1.44
4.5764,-6.3198,-5.2575,-0.11087,0.26389,-0.20372,-33.54,12.96,1.02
4.1406,-6.8919,-3.0373,-0.17685,0.47739,-0.19273,-33.66,12.78,0.9
11.591,-5.9657,-3.6503,-0.17746,0.49694,-0.36011,-33.66,12.72,0.72
5.5843,-2.8194,-3.7047,-0.10385,0.15272,-0.0073304,-33.6,12.72,0.24
7.7227,-6.4833,-5.3119,-0.15241,0.40348,0.36102,-33.6,12.78,-0.06
8.0224,-10.828,-4.3994,-0.23305,0.39737,0.30604,-33.6,12.78,-0.12
6.5786,-8.0088,-8.4446,-0.23488,0.098349,0.002138,-33.72,12.84,-0.54
5.7614,-5.3528,-4.8761,-0.10476,0.35064,0.014966,-33.78,12.72,-0.66
7.6546,-2.5606,-5.8295,0.07422,0.43035,-0.040623,-33.84,12.54,-0.78
9.1393,-8.54,-2.9556,0.05284,0.68478,0.19517,-34.02,12.3,-1.2
5.8976,-7.9815,-4.8488,-0.010996,0.50488,0.2138,-34.14,12.12,-1.38
8.3084,-7.4367,-5.2302,-0.13836,0.37141,0.045204,-34.14,12.06,-1.68
6.6059,-3.0918,-4.1814,-0.0051924,0.44196,0.012217,-34.02,12.18,-1.98
7.7636,-5.8567,-4.5764,-0.10385,0.27917,0.1518,-33.96,12.12,-2.34
3.8546,-7.4503,-3.6911,-0.12095,0.53787,0.34697,-33.84,12.24,-2.64
7.6002,-1.4574,-5.6661,-0.21319,0.33995,-0.33262,-33.84,12.24,-3.18
9.9292,0.01362,-6.6876,-0.28558,0.14813,-0.30055,-34.02,12.12,-3.36
6.7148,-7.0826,-3.4459,-0.29077,0.0956,0.18754,-34.02,12.06,-3.6
5.094,-11.891,-3.6503,-0.49144,0.34544,-0.28283,-33.96,12.12,-4.02
3.0373,-6.8919,-4.0997,-0.34758,0.38087,-0.43707,-33.96,12.18,-4.32
11.223,-4.3449,-4.9987,-0.26817,0.35064,-0.34636,-33.9,12.18,-4.38
10.052,-5.7069,-4.985,-0.24404,0.30482,0.20708,-34.08,12.18,-4.8
5.3937,-5.5435,-4.2223,-0.12278,0.46273,0.49419,-34.08,12.3,-4.92
5.2438,-4.2768,-6.2517,-0.0054978,0.57788,0.64049,-34.14,12.36,-4.98
9.8339,-9.4389,-6.3743,-0.33048,0.22449,0.57513,-34.2,12.36,-5.58
3.4732,-4.413,-5.7614,-0.34086,0.08491,0.17257,-34.14,12.42,-5.7
2.3155,-5.0259,-2.5742,-0.077274,0.52443,0.18631,-34.32,12.36,-5.76
10.678,-4.5901,-4.127,0.027184,0.66401,-0.35247,-34.26,12.36,-6.06
11.904,-1.9341,-6.2245,-0.41936,-0.11729,-0.63408,-34.2,12.42,-6.18
9.8066,-7.5184,-1.866,-0.44288,-0.1628,-0.36408,-34.14,12.54,-6.42
3.3097,-7.3141,-4.3177,-0.39523,0.146,-0.056505,-34.14,12.6,-6.72
7.6955,-8.5127,-4.7399,-0.5397,0.10263,-0.47342,-34.26,12.66,-7.02
8.7579,-4.127,-4.1133,-0.44502,0.21747,-0.45754,-34.14,12.72,-7.32
7.1098,-2.2474,-6.8238,-0.52473,-0.4331,-0.096211,-33.9,12.6,-7.44
5.0804,-1.5936,-7.641,-0.52198,0.20189,0.023518,-34.02,12.54,-7.62
9.5206,-6.3062,-4.9714,-0.52962,0.21472,0.38179,-34.14,12.42,-7.68
9.2346,-7.8998,-5.8431,-0.51832,0.03146,0.32162,-34.26,12.12,-7.8
5.9249,-7.5048,-3.2553,-0.43768,-0.029627,0.29627,-34.38,12.0,-7.8
5.38,-4.6309,-3.5685,-0.22419,0.18967,0.22969,-34.32,11.82,-7.92
9.9973,-3.3778,-5.094,-0.14233,0.14416,0.20922,-34.44,11.64,-7.74
9.4661,-3.5685,-4.7399,-0.25656,-0.068417,0.28802,-34.5,11.46,-7.74
7.2188,-2.7649,-5.1894,-0.28986,-0.053451,0.35125,-34.56,11.52,-7.62
6.6195,-7.4095,-2.152,-0.36102,0.067806,0.5736,-34.62,11.34,-7.56
6.7012,-8.2131,-3.0373,-0.38943,-0.15394,0.26023,-34.56,11.28,-7.38
7.246,-4.699,-4.413,-0.39492,-0.34239,-0.047037,-34.62,11.28,-7.32
6.279,-2.2337,-3.732,-0.2251,-0.2868,0.049786,-34.56,11.64,-7.26
8.0496,-2.4517,-4.2632,-0.10171,0.07422,0.28039,-34.44,11.82,-7.02
9.4389,-6.4697,-5.094,-0.197,-0.045509,0.32834,-34.38,12.0,-6.96
4.5356,-7.0553,-5.4754,-0.41905,-0.44532,0.10721,-34.2,12.18,-6.48
2.9965,-3.4732,-4.6718,-0.20006,-0.23702,0.13286,-34.14,12.36,-6.36
9.5751,-5.8159,-4.0861,-0.077885,-0.016799,0.12859,-34.02,12.72,-6.18
6.5105,-3.3506,-4.9033,-0.02138,-0.21075,0.089492,-33.9,13.02,-5.82
7.2324,-3.4051,-4.8625,-0.0048869,0.0012217,0.38882,-33.78,13.32,-5.58
7.1507,-4.413,-4.2087,-0.040012,-0.000916,0.46273,-33.66,13.44,-5.52
3.3097,-4.0997,-3.4732,-0.17226,-0.18998,0.29658,-33.54,13.74,-5.28
4.0997,-3.9908,-3.3642,-0.095906,-0.017104,0.40225,-33.24,14.1,-4.74
5.6524,-8.6625,-3.2961,-0.13073,0.02474,0.39981,-33.06,14.4,-4.44
5.5026,-3.1872,-5.3528,-0.1741,-0.14844,-0.051924,-32.94,14.52,-3.9
7.2188,-2.3427,-5.4754,-0.21014,-0.10018,-0.21166,-32.7,14.64,-3.84
11.741,-6.5105,-5.2438,-0.28558,-0.24954,-0.18906,-32.58,14.76,-3.66
2.9284,-7.5729,-4.8625,-0.36469,-0.17165,-0.076053,-32.52,15.3,-3.54
7.4367,-5.0804,-2.6423,-0.28405,0.28833,-0.28497,-32.52,15.48,-3.3
6.3879,-2.152,-1.58,0.034819,0.37751,0.281,-32.52,15.48,-3.06
9.9292,-6.1564,-4.5492,0.044899,0.1405,0.42455,-32.58,15.96,-3.0
7.0962,-5.6797,-5.8023,-0.16585,0.026573,0.10446,-32.58,16.02,-2.94
2.9829,-5.38,-3.732,-0.21625,0.09896,0.14386,-32.52,16.26,-2.76
5.0259,-5.5435,-4.9033,-0.16952,-0.016799,0.11057,-32.52,16.26,-2.76
6.7012,-4.6445,-6.3198,-0.26114,-0.0064141,-0.15363,-32.46,16.26,-2.7
4.7944,-5.4754,-2.5879,-0.13408,0.16677,0.027489,-32.46,16.38,-2.58
6.6467,-6.0338,-3.8137,-0.058643,0.26542,-0.038179,-32.52,16.5,-2.52
8.717,-7.6138,-4.8352,-0.33078,0.010996,-0.28008,-32.82,16.68,-2.52
4.808,-5.4073,-4.6582,-0.24618,-0.10996,-0.19609,-32.82,16.44,-2.46
6.279,-6.4424,-4.9442,-0.058643,0.135,0.067806,-32.64,16.44,-2.52
7.7772,-6.8919,-5.5435,-0.050091,0.0039706,0.051618,-32.7,16.38,-2.58
8.4582,-1.7025,-6.6467,0.011912,0.036041,-0.10385,-32.58,16.2,-2.58
8.431,-2.1929,-4.3858,-0.029322,0.086132,0.17532,-32.58,16.08,-2.58
8.4174,-7.4912,-2.7922,0.021075,0.41447,0.45876,-32.52,16.14,-2.52
5.2438,-6.0066,-4.0452,-0.16554,0.19028,-0.029322,-32.52,16.08,-2.64
4.2087,-5.5707,-3.8273,-0.18876,-0.054978,0.025962,-32.52,16.2,-2.52
7.927,-7.9543,-5.2438,-0.24435,-0.15882,-0.27825,-32.64,16.02,-2.7
4.8352,-3.4732,-6.8647,-0.21075,-0.21838,-0.3769,-32.64,15.9,-2.7
7.0145,-3.1191,-5.5026,-0.0030543,0.208,-0.14905,-32.64,15.9,-2.76
10.297,-4.7399,-5.5571,0.000305,0.23457,0.058032,-32.58,15.72,-2.82
6.6195,-6.5514,-5.4073,-0.11668,0.053145,0.29932,-32.46,15.78,-2.88
6.3471,-5.4345,-4.1814,-0.23213,0.080329,0.18479,-32.7,15.72,-2.88
5.38,-4.3177,-3.5277,-0.16341,0.078496,0.30391,-32.64,15.84,-2.82
6.3471,-4.9306,-4.3585,-0.055894,0.14294,0.22388,-32.7,15.9,-3.06
9.1801,-3.5413,-6.4152,-0.10446,-0.016799,-0.11698,-32.7,15.96,-3.12
6.3198,-2.8603,-3.1327,0.031154,0.23396,0.15638,-32.64,15.78,-3.24
8.5127,-6.9055,-3.8818,-0.082772,0.28986,-0.11729,-32.64,15.84,-3.12
10.828,-8.4174,-4.6582,-0.32865,0.06017,-0.51801,-32.7,15.84,-3.3
6.279,-6.96,-2.4789,-0.12248,0.14264,-0.40409,-32.58,15.96,-3.3
7.069,-5.598,-5.0259,-0.053756,0.34758,-0.47495,-32.7,15.78,-3.66
8.8396,-4.6173,-6.9328,-0.26634,0.22969,-0.50885,-32.76,15.54,-3.72
9.1529,-6.5105,-4.3994,-0.38515,0.29627,-0.32773,-32.82,15.6,-3.66
6.2654,-5.1485,-3.9635,-0.20678,0.6408,-0.10751,-33.24,15.66,-3.72
8.1722,-3.6639,-3.2416,-0.1237,0.9218,-0.087965,-33.24,15.54,-3.78
9.6023,-4.1814,-1.757,0.014355,1.0205,0.025045,-33.48,15.36,-3.84
6.5105,-6.5378,-5.6933,0.22113,-0.16188,-0.064141,-33.6,15.18,-4.14
-2.7377,-1.4165,-11.032,-0.24587,-0.55253,0.48258,-33.6,15.0,-4.2
13.443,-2.7104,-6.0611,-0.55619,0.59101,-0.25412,-33.78,15.0,-4.26
-2.5061,-2.1793,-2.8875,-0.33109,-0.13775,-0.055589,-34.02,14.82,-4.5
4.7807,-6.5105,-2.0839,-0.19548,-0.13958,0.60537,-34.02,14.88,-4.5
15.337,-3.2416,-6.0883,-0.22235,-0.025351,-0.21716,-34.14,14.82,-4.5
8.7443,-2.2474,-2.547,-0.09499,-0.23732,0.17623,-34.14,15.0,-4.5
10.678,-6.4833,-4.6445,-0.19578,0.065057,0.28619,-34.14,15.06,-4.5
10.447,-10.529,-2.0839,-0.2981,-0.81367,0.046731,-34.08,15.18,-4.56
2.4244,-2.6423,-7.7772,-0.27825,-0.58185,0.23335,-33.84,15.06,-4.56
11.387,-0.92618,-8.1177,-0.28741,0.024435,0.20159,-33.84,15.06,-4.44
11.032,-2.3427,-6.3062,-0.093462,-0.28375,0.61942,-33.72,15.12,-4.32
4.8625,-3.5958,-4.0044,-0.028711,-0.38637,0.76114,-33.72,15.3,-4.08
9.6432,-5.3937,-2.942,-0.29016,-0.38729,0.74617,-33.36,15.72,-3.48
8.7715,-4.2495,-3.7456,-0.4386,-0.64996,0.52657,-33.18,15.9,-3.3
6.565,-4.6309,-2.6832,-0.31551,-0.3149,0.53603,-32.82,16.26,-2.76
9.1393,-6.9055,-2.833,-0.19975,-0.60445,0.17837,-32.58,16.38,-2.58
7.641,-2.9965,-5.6661,-0.10812,-0.7703,-0.30146,-32.4,16.5,-2.04
9.1256,-1.4574,-7.6955,-0.080023,-0.50519,-0.28466,-32.34,16.56,-1.8
9.3163,-4.8488,-3.5277,-0.094379,-0.37202,0.19761,-32.28,16.68,-1.32
2.9011,-5.2983,-3.3506,-0.059559,-0.52443,0.051313,-32.04,16.98,-0.48
7.0145,-4.7944,-4.413,0.14325,-0.28008,0.19151,-31.92,17.1,-0.12
8.4719,-4.5356,-5.8704,0.26206,-0.60323,0.14111,-31.92,17.4,0.18
5.2438,-3.2144,-6.2654,0.2981,-0.47434,0.11851,-31.86,17.82,0.48
5.8976,-3.7728,-4.1678,0.3091,-0.21105,-0.016188,-31.44,18.24,1.08
5.203,-2.7786,-4.3449,0.27336,-0.1628,-0.05681,-31.5,18.36,1.26
8.4038,-5.6661,-4.0997,0.058032,-0.24374,-0.14783,-31.5,18.42,1.44
3.4459,-4.6309,-4.699,-0.055589,-0.2584,-0.17318,-31.56,18.42,1.74
4.018,-5.5162,-3.2961,0.050396,0.061392,0.077885,-31.56,18.42,1.92
3.3915,-3.4187,-3.1872,0.16218,0.092852,0.11576,-31.68,18.42,2.1
6.7012,-6.96,-3.9227,0.11576,0.19823,0.32803,-31.5,18.42,2.28
2.2474,-7.3141,-4.3858,0.18082,0.07086,0.29932,-31.44,18.54,2.22
8.0088,-5.9657,-7.7772,0.051618,0.27947,-0.066584,-31.32,18.6,2.28
7.5729,-6.6059,-5.3664,-0.025045,-0.1689,-0.19914,-31.02,18.6,2.04
8.7034,-1.7706,-5.8431,0.1631,0.42852,-0.65607,-30.9,18.42,2.04
11.55,-3.7592,-2.7241,0.16799,0.4163,-0.2923,-30.78,18.3,2.04
7.0962,-6.1564,-3.1599,0.14264,0.21258,-0.33628,-30.9,18.0,1.86
9.4798,-6.2926,-5.1757,-0.050091,0.33903,-0.48045,-30.84,17.94,1.68
6.6331,-5.5707,-4.1133,-0.051924,0.30574,-0.12278,-30.84,17.88,1.62
5.5571,-5.3528,-6.3335,-0.03207,0.49266,-0.047953,-31.14,17.82,1.38
3.1191,-4.7807,-5.38,0.11057,0.60476,0.19914,-31.26,17.76,1.26
4.9169,-4.9033,-5.8704,0.08827,0.63713,0.065668,-31.32,17.82,1.14
8.9077,-3.8682,-4.9987,-0.037263,0.51618,-0.38149,-31.62,17.7,0.6
7.8045,-4.5356,-3.0782,-0.12126,0.47037,-0.44654,-31.68,17.64,0.42
7.5457,-3.9635,-2.4244,-0.11576,0.33537,-0.49663,-31.92,17.7,0.12
6.8647,-4.6445,-2.4517,-0.16585,-0.002138,-0.15638,-32.28,17.4,-0.12
9.902,-5.9249,-4.5901,-0.2419,-0.37874,-0.33628,-32.4,17.46,-0.36
9.3844,-4.0997,-7.3958,-0.26237,-0.50763,-0.50213,-32.52,17.28,-0.48
6.5514,-1.7298,-4.3449,0.039401,0.027794,-0.22694,-32.82,17.04,-0.66
12.681,-3.4732,-3.8682,0.16188,0.011301,-0.099876,-32.94,16.74,-0.66
10.678,-3.4732,-3.623,0.21166,-0.39218,0.047037,-32.94,16.74,-0.84
9.6977,-2.547,-4.5083,0.18784,-0.27978,0.11668,-33.12,16.5,-1.02
10.311,-5.2575,-3.0237,0.096822,-0.56047,0.051313,-33.12,16.32,-1.02
6.9464,-4.2087,-4.3313,0.080023,-0.63591,-0.066584,-33.12,16.02,-1.14
6.2654,-5.4209,-2.9965,0.12645,-0.55008,-0.10079,-33.24,15.78,-0.96
4.3585,-3.0646,-4.5492,0.17257,-0.4383,-0.12156,-33.3,15.54,-0.78
9.3299,-1.7706,-4.8352,0.076358,-0.31643,-0.11209,-33.18,15.24,-0.6
10.433,-4.5764,-3.4868,-0.0097738,-0.2416,0.17654,-33.06,15.18,-0.3
7.5048,-8.9622,-1.5936,0.0067195,-0.98227,0.14875,-33.06,15.0,-0.24
7.2869,-5.8976,-6.8647,-0.20495,-0.64813,-0.062003,-32.94,14.76,0.18
6.1564,-4.2632,-6.2654,-0.13592,-0.47831,0.16829,-32.88,14.82,0.24
8.2812,-3.8682,-7.246,-0.090103,-0.28069,0.14508,-32.82,14.88,0.48
4.8625,-3.2689,-4.3449,0.03207,-0.016493,0.5849,-32.76,14.52,0.96
11.414,-8.4174,-2.942,0.026878,-0.098044,0.45754,-32.7,14.64,1.32
8.322,-8.0088,-3.9227,-0.0076358,-0.46334,0.43555,-32.58,14.94,1.8
5.6661,-5.7069,-3.5685,0.065973,-0.46914,0.35613,-32.58,15.0,2.04
5.0259,-3.8001,-4.4947,0.24648,-0.11118,0.51557,-32.46,15.0,2.4
8.4174,-3.1191,-6.1019,0.13989,-0.09499,0.43921,-32.28,15.18,2.58
7.2733,-8.826,-6.7285,-0.16157,-0.35827,0.16127,-32.16,15.72,3.0
1.0488,-5.6661,-5.4618,-0.21655,-0.40653,0.075747,-32.04,15.72,3.12
6.6059,-2.0567,-4.018,0.16952,0.14294,0.22449,-31.8,16.32,3.84
11.155,-5.4754,-3.9635,0.029016,0.044288,0.13378,-31.68,16.56,3.78
4.0316,-5.8431,-4.6309,0.051924,-0.0054978,0.2813,-31.56,16.74,4.02
3.8818,-7.4503,-4.8216,-0.042761,0.15302,0.14416,-31.5,16.98,4.2
8.0769,-3.8954,-5.9793,-0.078191,0.08491,-0.11637,-31.02,17.52,4.5
8.6898,-3.0782,-6.2245,-0.090408,0.044899,-0.12065,-30.84,17.52,4.5
5.1213,-5.3119,-4.2495,0.0024435,0.20372,0.11301,-30.66,17.64,4.56
8.2812,-4.2087,-4.8488,0.037874,0.31948,-0.18723,-30.54,18.0,4.56
10.379,-11.128,-5.3119,-0.16768,-0.12431,-0.27031,-30.6,18.18,4.44
5.0531,-9.3844,-5.1485,-0.096211,-0.068417,-0.41233,-30.66,18.24,4.2
5.094,-5.1076,-5.5571,0.063225,0.36316,-0.33903,-30.6,18.24,4.08
6.3471,-2.2201,-3.7047,0.31429,0.43494,-0.12278,-30.72,18.24,3.96
10.896,-2.1112,-6.4152,0.18357,0.43891,-0.13653,-30.72,18.0,3.66
6.0202,-3.5549,-3.7184,0.073304,0.52382,0.30513,-30.9,17.94,3.42
8.8941,-10.311,-3.4051,-0.17104,0.30329,-0.088881,-31.02,17.94,3.3
5.775,-11.073,-3.8682,-0.2193,-0.16768,-0.29566,-31.08,17.94,3.06
8.6762,-3.1872,-6.2245,-0.27092,0.095906,-0.70372,-31.32,17.7,2.76
9.3027,-3.0101,-5.38,0.035736,0.23366,-0.29871,-31.56,17.58,2.64
10.202,-4.2495,-4.5492,0.10629,0.42455,-0.20586,-31.62,17.46,2.46
5.1485,-7.3822,-4.0861,0.050091,0.058948,-0.01741,-31.8,17.1,2.22
6.6604,-5.3664,-4.3177,-0.039401,-0.043371,-0.096211,-31.92,16.92,2.16
5.6388,-3.2416,-4.0316,0.10324,-0.14722,0.10904,-31.92,16.8,2.1
8.8941,-6.0883,-4.6445,0.080023,-0.16402,0.10049,-32.04,16.62,1.98
5.8976,-3.6094,-5.0531,0.14752,-0.22694,0.036957,-32.04,16.56,1.8
9.8339,0.16344,-6.8374,0.030238,-0.13653,-0.30329,-32.04,16.68,1.8
8.2131,-7.1779,-3.8682,-0.016799,-0.59193,-0.28955,-32.04,16.44,1.74
1.8387,-3.9908,-4.4811,-0.086743,-0.19639,-0.30971,-31.98,16.2,1.68
4.6718,-2.8875,-4.4811,-0.12889,-0.023824,-0.15058,-32.1,15.84,1.62
8.2948,-3.8273,-5.3392,-0.043066,-0.33567,-0.021991,-32.1,15.78,1.74
9.5751,-2.6696,-6.674,-0.0048869,-0.23213,-0.0058032,-32.22,15.72,1.74
6.7012,-5.2711,-4.9578,0.14325,-0.31124,0.42699,-32.28,15.6,1.8
7.355,-2.6015,-5.8295,0.20495,-0.25473,0.34453,-32.1,15.48,1.8
11.114,-3.8273,-4.9987,0.12034,-0.15211,0.10476,-31.86,15.54,1.68
4.1951,-7.9951,-3.2553,0.096822,-0.60781,0.083383,-31.86,15.48,1.86
5.8023,-4.7263,-4.7535,0.025351,-0.27245,-0.51924,-31.92,15.48,1.98
8.4446,-3.9771,-2.9965,0.17746,-0.25809,0.07025,-31.98,15.18,2.28
9.0848,-6.7421,-4.4947,0.096211,-0.27672,0.26817,-31.98,15.12,2.28
8.6762,-8.8668,-6.1973,-0.12156,-0.56474,0.02138,-31.98,15.06,2.4
-2.8058,-1.6753,-5.0123,0.10965,-0.41936,0.21961,-31.86,15.18,2.64
11.005,-1.5527,-7.2869,0.28588,0.12431,0.19273,-31.8,15.3,2.82
16.603,-8.1041,-5.3937,0.050091,0.1347,0.1127,-31.74,15.3,3.0
1.5663,-3.7047,-8.4719,-0.055283,-0.27978,-0.027489,-31.38,15.42,3.18
6.9191,-4.6037,-3.5549,-0.18723,-0.018326,-0.1909,-31.38,15.42,3.24
3.4596,-4.699,-0.9398,0.1127,0.078191,0.19639,-31.32,15.42,3.36
4.1951,-10.338,-2.2201,-0.12187,-0.0281,-0.11362,-31.32,15.42,3.84
3.5277,-2.6287,-4.6445,0.16402,0.010079,-0.34697,-31.32,15.36,3.84
14.342,-1.58,-8.54,0.094684,-0.074831,-0.40775,-31.26,15.24,4.02
11.128,-2.7513,-6.2245,0.051924,-0.29932,0.058032,-31.32,15.48,3.96
8.9622,-6.674,-7.0281,-0.15913,-0.27336,0.0054978,-31.26,15.48,4.2
0.54481,-3.2008,-3.4732,-0.040317,-0.058643,0.076969,-31.38,15.66,4.32
4.1678,-3.6775,-0.9398,-0.13653,-0.030543,0.25931,-31.32,15.48,4.5
12.149,-12.708,-5.7342,-0.17013,0.030238,0.31887,-31.32,15.54,4.68
8.9213,-17.38,-5.5435,-0.25045,-0.42058,0.0562,-31.2,15.54,4.68
13.089,-2.4925,-6.5241,0.12095,-0.0030543,-0.7981,-31.08,15.66,4.68
9.0303,2.2882,-3.7865,0.31062,-0.072998,-0.34453,-31.02,15.6,4.92
9.6296,0.14982,-5.6797,0.27825,0.15424,-0.032681,-31.08,15.6,5.22
4.3313,-17.107,-6.4969,-0.14875,-0.58826,-0.12523,-31.02,15.66,5.22
5.6797,-2.3563,-9.3844,-0.56627,-0.59529,-0.99174,-30.96,15.78,5.28
8.8668,6.1292,-4.9714,-0.18906,0.20281,-0.36957,-30.78,15.84,5.28
6.7557,-6.0883,-1.6072,-0.033903,0.26267,0.57208,-30.9,15.72,5.76
-0.51757,-11.019,-2.7786,0.057421,0.17562,0.64599,-30.96,15.84,5.76
13.266,-5.3664,-8.7034,-0.29993,-0.43616,-0.040928,-30.9,15.72,5.88
4.4947,4.127,-4.6309,0.20953,0.35247,0.89522,-30.96,15.72,6.06
0.6674,2.5742,0.54481,0.29688,0.93921,1.85,-30.9,15.84,6.06
2.2337,-5.7342,5.5707,0.38759,0.11301,1.5299,-30.84,16.14,6.18
8.2403,-9.9292,-12.19,-0.56566,-2.0094,-0.97647,-30.78,16.68,6.42
-0.38137,-2.5879,-9.9973,-0.52412,-0.99815,-1.0889,-30.54,16.86,6.36
0.69464,-0.9398,-1.4165,0.29627,-0.040012,-0.097128,-30.42,16.98,6.42
18.619,-15.554,-8.6353,0.13897,-0.34819,-0.3824,-30.48,17.28,6.6
-6.0202,-9.5615,-2.942,0.51129,-0.59284,-0.013744,-30.54,17.34,6.72
7.9951,-3.2144,-6.2517,0.36988,0.036652,-0.59559,-30.48,17.58,6.78
-4.9578,-6.8919,1.1577,0.69639,-0.15882,1.0516,-30.0,17.64,6.66
-8.4446,-6.1428,1.5255,1.1564,0.64599,1.1035,-29.76,17.94,6.66
17.611,4.9306,-14.669,-0.90439,-0.091935,-1.6826,-29.64,18.12,6.6
-11.128,-3.7728,0.24517,-0.62522,-0.46151,0.25992,-29.58,18.3,6.72
-6.4288,-12.326,-0.14982,0.20647,0.24709,-0.038485,-29.52,18.36,6.66
10.106,-8.1995,-5.6116,0.028711,-0.43035,-0.48472,-29.58,18.18,6.66
11.577,-2.4789,-4.6718,-0.21961,-0.32681,-0.66829,-29.58,17.76,6.96
7.2052,-4.0316,-5.094,0.11759,-0.12095,-0.33048,-29.64,17.7,7.08
13.675,-14.247,-6.5241,-0.29138,-0.76358,-0.75381,-29.76,17.58,7.08
4.9306,-7.5865,-2.3018,-0.24618,-0.57024,-0.79565,-29.58,17.1,7.38
3.5822,-2.833,-2.4653,0.086132,-0.37293,-0.63163,-29.46,16.8,7.56
13.77,0.31327,-7.3822,0.0015272,-0.30574,-0.33995,-29.64,16.44,7.8
5.6524,-6.3198,-3.6911,0.067195,-0.55711,0.14325,-29.7,16.2,8.1
5.1757,-10.678,-4.127,-0.042761,-0.7199,0.0088575,-29.76,15.84,8.34
5.6661,-1.5391,-6.1428,-0.19303,-0.68783,-0.38362,-29.64,15.6,8.52
2.1929,-0.84446,-1.8524,0.17471,-0.21044,0.11393,-29.76,15.24,9.0
9.6704,-4.3449,-3.5413,0.22602,-0.10568,0.013744,-29.76,15.0,9.36
10.093,-11.931,-3.7456,0.18082,-0.55986,0.19884,-29.82,14.88,9.6
-1.1577,-3.9635,-3.5277,-0.041844,-0.81398,-0.40164,-29.7,14.64,9.72
14.369,-5.8431,-7.7772,-0.16952,-0.66218,-0.48717,-29.76,14.4,10.2
4.127,-3.8546,-5.4209,-0.076969,-0.53054,-0.39309,-29.76,14.1,10.44
11.427,-10.474,-6.1155,-0.072388,-0.45998,-0.39615,-29.64,14.1,10.92
9.3572,2.6015,-6.3471,0.25901,-0.23702,-0.35552,-29.58,13.98,11.28
17.638,-8.6353,-4.8897,0.082772,0.20189,-0.32284,-29.46,14.04,11.46
5.9249,-10.447,-3.1872,-0.079412,-0.8042,-0.034514,-29.4,13.86,11.76
11.659,-4.4811,-6.1564,0.22724,0.081245,-0.16707,-29.4,13.74,12.36
8.3084,-6.5378,-4.3177,0.18723,-0.55741,0.13256,-29.4,13.62,12.66
4.6037,-2.1112,-7.1098,0.30024,-0.21014,-0.32376,-29.16,13.5,12.84
6.8647,-9.6023,-4.2223,0.1066,-0.83169,-0.18082,-29.1,13.14,13.02
0.32689,-4.4539,-3.3642,0.17685,-0.72785,-0.28344,-28.92,12.96,13.32
9.2891,-0.1362,-6.3062,0.12339,-0.21777,-0.68081,-28.98,12.9,13.5
6.0338,-8.7579,-2.8739,0.071777,-0.79474,-0.23732,-28.68,12.54,13.8
7.4503,-4.0861,-5.8023,0.11912,-0.47281,-0.56108,-28.56,12.66,13.92
8.4174,-5.5299,-7.3414,0.19456,-0.54886,-0.18784,-28.56,12.42,13.98
4.9987,-2.6832,-5.9249,0.29902,-0.43524,-0.13653,-28.5,12.18,14.4
10.774,-3.2008,-5.2847,0.30482,-0.31765,-0.11332,-28.44,12.0,14.76
8.8396,-6.9464,-4.0316,0.25045,-0.73701,-0.031154,-28.44,12.0,14.82
9.7249,-7.2188,-5.9249,0.13134,-0.59407,-0.45784,-28.38,11.64,15.24
5.3119,-2.7241,-4.1951,0.090103,-0.7813,-0.53542,-28.32,11.58,15.3
5.1213,-0.054481,-4.985,0.27794,-0.23732,-0.30238,-28.44,11.58,15.6
11.141,-8.0224,-5.5571,0.28069,-0.18387,-0.069639,-28.44,11.46,16.08
9.0848,-11.7,-5.5843,0.16524,-0.96578,-0.18448,-28.5,11.4,16.32
2.833,-7.6138,-5.2575,0.22052,-0.49999,-0.46548,-28.38,11.4,16.68
12.272,-7.0281,-6.7285,0.13928,-0.66798,-0.54336,-28.44,11.28,17.22
1.9613,-5.4481,-3.3506,0.5342,-0.27458,-0.38057,-28.32,11.22,17.46
10.937,-5.1076,-5.2166,0.46456,-0.22571,-0.39492,-28.38,11.28,17.64
4.8216,-5.8295,-3.0237,0.2529,-0.54245,-0.49297,-28.08,11.34,18.0
10.106,-8.8668,-5.6661,0.2135,-0.45601,-0.72846,-27.96,11.34,18.18
4.2904,-4.3858,-3.8137,0.35125,-0.3934,-0.5226,-27.84,11.28,18.42
5.6116,-0.50395,-3.909,0.4725,0.18143,-0.085827,-27.72,11.34,18.6
12.354,-9.0303,-5.993,0.25962,0.026878,-0.027489,-27.66,11.34,18.96
-4.0044,-10.529,-4.5764,0.025045,-0.96089,-0.3094,-27.48,11.34,19.2
15.119,-2.3972,-7.4776,0.20953,0.11545,-0.95845,-27.18,11.22,19.5
0.35413,-2.4925,-2.3563,0.26084,-0.18418,-0.079412,-26.94,10.92,19.44
6.7693,-4.0997,-4.6173,0.36438,0.27245,-0.21258,-26.94,10.74,19.62
5.993,-9.1529,-4.2359,-0.025656,-0.52718,-0.30299,-26.94,10.62,19.62
10.474,-17.148,-7.9679,-0.21625,-0.60873,-0.8543,-26.82,10.56,19.68
2.9692,-0.74912,-5.5435,0.15882,-0.15974,-0.87262,-26.82,10.2,19.92
7.1507,-1.6617,-3.9771,0.50824,0.12798,0.21166,-26.94,9.72,19.92
10.896,-7.5457,-5.4073,0.34911,-0.2248,-0.18326,-27.06,9.6,19.92
2.7922,-0.62654,-4.985,0.25931,-0.4105,-0.43768,-27.06,9.06,19.92
11.496,-0.69464,-2.7377,0.4835,0.26634,0.092546,-27.0,8.7,20.04
6.1836,-10.311,-3.8137,0.2361,-0.34422,0.033598,-27.36,8.46,19.8
6.2517,-8.1586,-7.2869,0.013134,-0.51801,-0.57055,-27.36,8.34,19.74
2.2337,-3.2825,-2.7786,-0.058948,-0.45662,-0.72326,-27.42,7.98,19.68
13.961,-2.8194,-7.6138,0.21136,-0.15485,-0.91477,-27.54,7.74,19.86
10.828,-2.0975,-6.9328,0.13164,-0.29841,-0.71807,-27.54,7.56,19.86
6.6059,-5.2166,-3.909,0.24526,-0.22419,-0.32529,-27.78,7.44,20.04
9.221,-15.813,-7.3822,0.036041,-0.70708,-0.46762,-27.6,7.32,20.22
3.2144,-2.7377,-6.6195,0.075442,-0.63286,-0.69914,-27.66,6.9,20.46
7.9134,1.8524,-4.7263,0.37446,-0.16554,-0.58857,-27.66,6.72,20.46
3.4051,2.5334,-3.0918,0.82192,0.14172,0.22022,-27.66,6.72,20.58
17.652,-15.064,-4.2768,0.53145,0.61514,-0.5226,-27.78,6.48,21.0
-12.19,1.185,-1.185,0.55314,-0.99052,-0.078802,-27.72,6.42,21.12
14.642,-3.3915,-7.9951,0.067501,0.13836,-0.99968,-27.66,6.3,21.18
-4.6582,-3.051,-1.7706,0.31612,-1.0473,-0.042455,-27.6,6.42,21.48
7.4095,-6.7285,-3.5004,0.3653,0.09163,-1.0208,-27.3,6.3,21.66
4.522,-11.768,-2.0158,0.50641,-0.49694,-0.39859,-27.24,6.24,21.66
7.6819,-2.3018,-8.322,0.06689,-0.72785,-1.2947,-27.12,5.94,21.96
8.1858,-3.623,-3.8273,0.19823,-0.066584,-0.66096,-27.12,5.82,22.26
-3.0101,-0.89894,-1.866,0.43433,0.013439,-0.1347,-27.0,5.28,22.68
15.146,-7.8317,-7.7227,0.1744,0.18906,-0.64171,-26.82,5.16,22.68
2.2474,-12.49,-4.5901,-0.019242,-0.63102,-0.23915,-26.94,4.62,22.86
11.169,-10.46,-8.4174,0.29841,0.11729,-0.6185,-26.82,4.32,22.8
4.8352,-0.1362,-5.3119,0.092852,-0.22449,-0.86071,-26.7,3.96,22.86
9.1256,3.2144,-6.1428,0.44471,0.26664,-0.59071,-26.7,3.54,22.98
8.9349,2.6151,-4.0861,0.50977,0.50488,-0.043982,-26.82,3.18,23.16
11.7,-4.8625,-2.6968,0.1909,0.135,0.048564,-27.12,3.06,23.1
-11.319,-4.413,-1.1032,0.33506,-0.0067195,0.57941,-27.18,3.0,22.8
9.8339,-13.797,-5.8704,-0.057116,0.08491,-0.26206,-27.36,2.94,22.56
11.387,-7.9543,-11.659,0.23549,-0.40103,-1.2969,-27.3,2.82,22.5
12.095,-2.7377,-9.5479,0.25443,-0.12462,-1.3512,-27.24,2.82,22.5
1.5936,-1.7025,0.24517,0.82406,0.3821,-0.5455,-27.24,2.46,22.38
0.47671,-2.5198,-3.4459,0.73029,0.51588,-0.34697,-27.48,2.52,22.2
9.6704,-14.819,-5.4073,-0.056505,-0.054978,-0.80359,-27.78,2.34,21.9
-5.4209,-4.0861,-3.7728,-0.027184,-0.10263,-0.73823,-27.78,2.22,21.78
14.029,-1.8251,-4.6173,0.09499,1.3018,-0.58796,-27.84,1.86,21.48
4.3858,-9.0984,-1.3484,-0.015577,0.30268,-0.097738,-28.2,1.5,21.3
3.4868,-5.4754,-4.5083,0.43402,0.86163,-0.87354,-28.26,1.32,21.24
8.8805,-1.6481,-10.515,0.01741,0.46853,-0.08827,-28.92,0.9,20.88
11.223,-2.8194,-8.3629,-0.0036652,0.58215,-0.50855,-29.4,0.72,20.52
-1.0079,-2.4517,-4.7671,-0.039401,-0.018631,-0.16127,-29.76,0.72,20.16
0.96704,-7.069,-2.7649,0.068417,-0.15821,0.30268,-30.18,0.48,20.16
16.086,-5.5435,-8.2948,-0.07086,-0.37629,-0.31185,-30.48,0.18,19.74
9.0303,-5.9249,-1.7979,0.46181,0.45815,-0.032376,-30.72,-0.06,19.56
11.128,-8.7851,-2.7104,0.20433,-0.54672,-0.35736,-30.84,-0.06,19.38
10.597,-0.55843,-9.5887,0.057421,-0.49297,-0.83505,-30.96,-0.18,19.26
3.9227,1.866,-2.6696,0.076664,-0.002138,-0.27642,-31.14,-0.42,19.14
3.7047,-1.3212,-2.9556,0.36163,0.135,0.53542,-31.26,-0.42,19.08
15.623,-8.5127,-5.993,-0.078191,-0.14936,-0.18265,-31.32,-0.78,19.2
-5.3937,-3.0646,-5.0531,0.22877,-0.53634,0.37751,-31.32,-1.02,19.26
3.7456,-2.7786,-6.5922,0.054062,0.01405,0.078496,-31.14,-1.08,19.32
12.531,-8.2812,-5.8295,0.018937,-0.7141,0.31673,-31.08,-0.96,19.38
-2.1248,-1.0488,-6.6467,0.17013,-0.6524,0.55497,-30.84,-0.9,19.5
15.963,-5.2847,-3.9908,0.0054978,0.13408,0.36011,-30.66,-0.84,19.92
10.515,-6.2245,-2.5606,0.01069,-0.82803,0.56994,-30.42,-0.78,20.04
6.8647,-7.9679,-4.8625,-0.079718,-0.26909,0.23152,-30.18,-0.48,20.34
2.656,-9.2346,-1.9477,-0.015272,-0.90866,0.23702,-29.88,-0.06,20.88
14.901,-5.6661,-7.9134,0.20128,-0.2923,-0.3372,-29.52,0.54,21.3
2.4653,-6.4152,-4.699,0.22205,-0.45662,-0.039095,-29.22,0.9,21.42
4.9306,-7.3822,-6.7693,0.41783,-0.30421,-0.092852,-28.98,1.14,21.9
7.6819,-1.9205,-5.5843,0.33017,-0.11148,-0.13439,-28.74,1.38,22.14
6.5514,-1.2258,-4.9714,0.47861,0.044593,0.36652,-28.74,1.92,22.68
8.8805,-6.7148,-2.0294,0.29016,0.039095,0.17807,-28.56,2.22,22.62
-0.57205,-2.4925,-4.5901,0.33903,-0.47922,0.19059,-28.5,2.76,23.04
14.478,-12.762,-6.8238,-0.096211,-0.15058,-0.25656,-28.38,3.0,23.28
-2.152,-1.185,-5.8023,-0.032376,-0.55864,-0.33781,-28.02,2.88,23.46
11.141,-2.9011,-9.2891,0.12248,0.40989,-0.94715,-28.02,2.82,23.64
7.8317,-7.0962,-2.4244,0.48655,0.26725,-0.093157,-28.14,2.64,23.76
-2.3155,-5.0668,-4.3449,0.10354,-0.40714,-0.50855,-28.02,2.82,23.82
8.4174,-3.2553,-4.2223,0.19487,0.23182,-0.6918,-27.72,2.88,23.94
4.3313,-2.8467,-1.8115,0.32742,0.077885,0.024435,-27.66,2.88,23.82
15.323,-10.365,-7.0553,0.22205,0.25168,-0.54795,-27.78,2.64,23.7
3.732,-7.8181,-3.8001,0.11026,-0.21502,-0.34911,-27.84,2.28,23.76
7.1234,-2.261,-3.1735,0.1124,0.043677,-0.8717,-27.84,1.98,23.52
12.449,-3.9908,-6.0611,0.016799,0.016493,-1.1863,-27.96,1.86,23.46
2.4108,-5.38,-2.2337,0.10782,0.62186,-0.6466,-27.96,1.68,23.16
1.7706,-12.98,-5.203,-0.068417,0.24312,-0.87323,-28.32,1.32,23.1
7.0826,-8.8668,-8.5808,-0.38668,-0.0061087,-1.5669,-28.38,1.02,23.04
7.7636,1.9068,-9.2891,-0.27397,0.69028,-1.2746,-28.92,0.24,22.86
6.6331,-4.7399,-1.7298,0.16585,1.0663,-0.13928,-29.4,-0.42,22.8
6.5786,-3.2144,-6.2517,0.22571,0.7477,-0.12095,-29.52,-0.78,22.68
10.174,-1.7979,-5.4073,0.18387,0.25015,-0.30329,-29.94,-1.56,22.32
5.1485,-7.1915,-3.7456,-0.069028,-0.058948,-0.57513,-30.6,-2.04,21.78
-11.291,1.8796,-6.0066,0.23793,0.11881,-0.27336,-30.72,-2.34,21.6
16.154,-6.2245,-1.8251,-0.022907,0.90347,-0.41966,-31.14,-2.94,21.12
13.879,-1.2395,-9.6704,0.15669,0.034514,-0.52198,-31.68,-3.42,20.88
8.9486,-2.6015,-4.4811,-0.13195,-0.48228,-0.71532,-32.22,-3.72,20.4
-1.6753,-5.7069,-3.0237,0.30146,0.043982,0.031765,-32.34,-3.96,20.04
3.909,-0.84446,-5.8431,-0.035736,-0.23213,-0.083383,-32.52,-4.14,19.38
15.936,-2.7922,-8.4174,0.19548,-0.020159,0.04948,-32.76,-4.8,19.26
4.9987,0.17706,-6.3062,0.21961,-0.36927,0.12187,-32.76,-4.98,19.08
7.1915,-1.6481,-5.5571,0.3543,-0.033903,0.42974,-32.58,-5.1,19.14
11.945,-10.801,-4.7807,0.21777,-0.61575,0.66309,-32.52,-5.22,19.38
-0.28603,-3.2825,-6.3471,0.23488,-0.82284,0.46945,-32.28,-5.04,19.26
12.367,-2.6832,-4.522,0.078191,-0.41508,-0.041844,-32.04,-4.98,19.26
8.2131,-5.3664,-4.4811,0.25748,-0.5339,0.52137,-31.62,-4.68,19.56
7.5729,-5.6388,-4.2768,0.16493,-0.43249,0.31246,-31.5,-4.56,19.98
4.3177,-2.3836,-5.094,0.10904,-0.28955,0.64477,-31.26,-4.02,20.64
8.1177,-1.0624,-4.2632,0.14478,0.17135,0.96517,-30.9,-3.3,20.94
15.064,-15.65,-2.5742,0.047037,-0.3879,0.52351,-30.54,-2.64,21.36
1.471,-13.021,-7.1371,-0.10782,-1.6112,0.25198,-30.24,-2.52,21.42
9.8475,1.7025,-8.9894,0.12828,0.16952,-0.27947,-30.0,-1.92,21.78
6.5786,-5.993,-3.0101,0.3262,0.073304,0.4215,-29.64,-1.5,22.32
7.8045,-8.717,-7.5865,0.47281,-0.56902,0.26053,-29.4,-1.32,22.32
1.7843,-7.4776,-2.3563,0.22602,-0.53023,0.21991,-28.98,-0.84,22.68
8.9349,-7.8453,-3.6911,0.31979,-0.12492,-0.1066,-28.68,-0.36,22.8
11.319,-8.2676,-4.9033,0.14478,-0.33017,-0.33598,-28.44,-0.18,22.92
-0.32689,1.6753,-2.3291,0.63713,0.12706,-0.12339,-28.02,0.24,23.04
13.184,-2.833,-6.8374,0.53359,0.31551,0.14569,-27.66,0.54,23.4
5.9521,-3.3642,-5.9249,0.066279,-0.02474,-0.30177,-27.78,0.96,23.64
0.53119,-6.5241,-3.6639,0.036652,-0.022297,0.13103,-27.66,0.9,23.82
0.19068,-7.0009,-1.0351,0.18082,0.22663,0.33078,-27.42,1.2,23.7
4.8761,-8.8805,-4.7671,-0.21044,0.16646,-0.61575,-27.42,1.38,23.64
5.4209,-8.7443,-4.8625,-0.19609,0.18387,-0.478,-27.48,1.8,23.88
2.0839,-12.967,-5.5571,0.029627,0.29902,-0.51496,-27.54,1.86,23.88
6.8919,0.24517,-4.3858,0.053451,0.5846,-1.1005,-27.66,1.74,23.94
14.383,-8.7579,-1.9886,0.28863,0.69272,-0.5791,-27.78,1.68,24.0
10.992,-17.829,-3.6094,0.10507,0.40684,-0.53359,-28.02,1.62,23.94
-5.2166,-2.547,-5.1076,0.065973,0.81306,-1.1096,-28.14,1.56,23.7
15.377,-5.9657,-4.0316,-0.027794,0.86743,-0.82039,-28.68,0.84,23.28
2.0294,0.53119,-7.3822,0.037568,0.5339,-0.32101,-28.98,0.6,22.98
4.0997,0.47671,-3.3506,-0.10751,1.7871,0.17807,-29.4,-0.12,22.32
11.891,-11.373,1.1169,-0.0064141,0.81825,0.40531,-29.76,-0.18,21.9
11.768,-5.2575,-10.828,-0.55833,-0.17501,-0.76083,-30.24,-0.48,21.6
3.8546,-7.6546,0.027241,-0.33781,0.71654,0.012217,-30.84,-1.38,20.94
0.50395,-9.0712,0.72188,0.24312,0.57666,0.20647,-31.08,-1.68,20.4
15.473,-2.1248,-5.5571,-0.30207,0.31032,-1.0449,-31.44,-2.04,20.04
10.91,-4.6445,-2.6287,-0.080634,-0.37293,-0.20281,-32.16,-2.52,19.14
3.1191,-2.152,-6.9191,-0.11729,0.021075,-0.083078,-32.4,-2.7,18.84
8.6489,-0.88532,-7.1371,-0.29138,0.11851,0.082467,-32.46,-2.94,18.36
13.28,-9.7249,-2.6287,0.073304,0.21991,0.9557,-33.06,-3.36,17.88
12.735,-13.552,-6.0747,-0.083689,-1.1732,-0.054978,-33.12,-3.36,17.58
-4.9714,1.7706,-4.9306,0.007025,-0.70585,-0.18143,-33.18,-3.48,17.52
8.9758,-0.88532,-2.3018,0.028405,0.34208,-0.12798,-33.36,-3.72,17.34
1.1713,2.0431,-7.069,0.19487,0.092852,0.38362,-33.3,-3.9,17.28
16.521,-6.3471,-1.362,-0.030238,-0.0094684,0.27886,-33.3,-4.02,17.28
0.40861,-5.0804,-5.0531,0.064446,-1.0745,0.50335,-33.24,-4.02,17.22
6.3198,-4.2632,-4.8352,-0.089492,-0.4215,0.29138,-33.24,-4.08,17.4
8.5944,-7.069,-4.2632,-0.038179,-0.66309,0.45632,-33.12,-4.08,17.52
-0.72188,-2.6423,-7.0962,0.21502,-0.55039,0.052534,-32.64,-4.08,17.76
13.988,3.7456,-10.365,-0.075136,-0.15149,-0.42699,-32.4,-4.02,17.82
17.298,-1.2122,-3.1599,0.000305,-0.24801,0.23946,-32.4,-3.9,18.0
3.4459,-10.12,-4.5083,-0.036652,-0.72907,0.35369,-31.92,-3.72,18.48
5.4754,-10.706,-3.1599,-0.28955,-0.49572,0.034514,-31.8,-3.72,18.78
2.7922,-4.4266,-4.2495,-0.016493,-0.40836,0.11484,-31.62,-3.42,18.84
7.246,-4.6309,-5.5162,0.025045,-0.27275,0.30696,-31.32,-3.24,19.38
4.2632,-3.9908,-5.9793,0.29871,-0.048258,0.28436,-31.2,-3.0,19.56
5.0123,-4.6445,-5.3528,0.23824,-0.038485,0.35155,-30.9,-2.76,19.8
2.8058,-5.6661,-3.5685,0.2306,-0.13347,0.33689,-30.48,-2.46,20.28
4.985,-10.42,-3.514,0.0048869,-0.18173,0.2419,-30.18,-2.22,20.58
3.2416,-6.2245,-6.4424,-0.02138,-0.14539,0.1408,-30.06,-1.98,20.82
6.1292,-3.4187,-6.279,-0.21289,0.060476,-0.29108,-29.82,-1.8,21.12
8.9894,-0.24517,-7.0009,-0.18387,0.13775,-0.37965,-29.76,-1.68,21.24
6.8647,-5.8295,-2.9556,0.081856,0.37874,-0.059559,-29.64,-1.5,21.6
7.0009,-5.5707,-5.1349,-0.035125,0.16768,0.13622,-29.58,-1.38,21.72
6.1564,-4.9578,-5.9521,-0.135,0.076053,0.21105,-29.64,-1.32,21.78
10.351,-6.456,-6.0611,-0.14752,-0.020769,-0.019853,-29.52,-1.14,21.78
7.9951,-2.5334,-4.6445,0.11179,-0.025962,-0.24832,-29.58,-0.9,21.72
10.025,0.83084,-6.4152,0.20647,0.087354,-0.32681,-29.46,-0.78,21.78
11.536,-4.8625,-2.7377,0.20495,0.14752,0.059559,-29.46,-0.78,21.84
9.2755,-5.7205,-3.2825,0.14355,-0.11973,0.018021,-29.52,-0.72,21.78
6.0474,-7.2188,-2.833,0.017104,-0.13378,-0.1631,-29.7,-0.66,21.78
5.1485,-6.0611,-3.6775,0.07025,-0.39187,-0.2474,-29.76,-0.6,21.66
8.6353,-5.1485,-6.7012,0.068417,-0.42028,-0.45937,-29.76,-0.54,21.54
7.7636,-8.1858,-5.9657,0.10018,-0.35155,-0.38851,-30.06,-0.72,21.48
2.0839,-2.6423,-6.565,0.16035,-0.091019,-0.34514,-30.18,-0.78,21.48
11.101,-0.50395,-7.5321,0.014966,0.41722,-0.29719,-30.06,-0.9,21.48
7.2324,-6.3743,-0.20431,0.21686,0.11301,0.09896,-29.94,-0.9,21.36
6.0611,-9.6841,-3.8137,0.20189,-0.18418,-0.081551,-30.0,-0.96,21.42
6.3743,-6.7012,-5.6661,-0.064752,-0.281,-0.40684,-30.06,-0.96,21.54
6.3198,-2.2474,-5.1349,-0.009163,0.36896,-0.28741,-30.18,-1.08,21.78
6.5786,-3.4459,-2.8058,0.1237,0.66768,-0.078191,-30.12,-1.08,21.78
8.7306,-6.7693,-2.8058,0.14569,0.28986,-0.078191,-30.18,-1.2,21.96
10.719,-1.4982,-6.7012,0.13439,-0.0039706,-0.33384,-30.18,-1.14,21.96
9.7522,-4.7399,-2.2882,0.16402,0.17043,-0.19792,-30.24,-1.2,22.02
0.85808,-2.8058,-3.6775,0.47342,-0.079107,0.072693,-30.3,-1.26,22.14
11.741,-8.6625,-4.6445,0.34758,-0.27855,-0.21655,-30.12,-1.02,22.26
5.2847,-3.8001,-7.927,0.25748,-0.50549,-0.24862,-30.06,-1.08,22.32
10.774,0.44947,-6.4424,0.043371,0.12737,-0.59346,-30.24,-1.02,22.32
3.8409,-5.4073,-2.0158,0.21594,-0.21258,0.16554,-30.24,-0.9,22.32
7.5048,-6.6331,-6.7148,0.25168,0.050702,0.23579,-30.12,-0.9,22.32
10.311,-8.0905,-4.1678,-0.0051924,-0.21625,0.19884,-30.0,-0.9,22.32
11.427,-4.3585,-6.8647,0.19364,0.092852,0.036346,-30.06,-0.9,22.02
9.0167,-6.7285,-3.2144,0.018021,-0.31612,0.38423,-30.06,-0.96,21.9
0.98067,-4.6854,-5.1485,0.16218,-0.46548,0.57177,-30.0,-0.9,21.72
9.8203,-2.4925,-7.3958,-0.17471,-0.02474,0.13317,-30.06,-0.9,21.78
8.2539,-8.3901,-4.0452,-0.15913,-0.25198,0.30971,-29.82,-1.2,21.54
6.0611,-5.2302,-5.2166,-0.23335,-0.19151,-0.018326,-29.82,-1.26,21.36
7.355,-4.9306,-4.304,0.071777,0.2364,0.21105,-29.76,-1.44,21.3
9.221,0.12258,-4.6718,0.38301,0.5339,0.50855,-29.82,-1.26,21.3
9.5479,-4.1678,-2.942,0.28497,0.36316,0.94867,-29.76,-1.08,21.3
10.065,-14.751,0.32689,0.069028,-1.0773,0.27397,-29.82,-1.02,21.36
-2.4108,-1.8932,-12.367,-0.11881,-0.39706,-0.21472,-29.58,-0.78,21.72
13.402,0.43585,-4.4539,0.16524,0.74953,-0.55803,-29.58,-0.66,21.66
5.1485,-7.641,-0.6674,0.46456,0.2251,0.2364,-29.4,-0.36,21.6
8.6353,-10.597,-3.732,0.033292,-0.10476,-0.24771,-29.52,-0.18,21.72
3.9499,-6.565,-5.9657,-0.019853,0.098655,-0.31887,-29.52,-0.18,21.9
11.482,-5.1894,-8.2676,-0.20586,0.12217,-0.55772,-29.52,0.18,21.9
4.2495,-0.24517,-6.7557,0.21289,0.45754,0.010385,-29.46,0.42,22.02
9.6023,-2.0703,-5.598,0.44654,0.51954,0.36438,-29.52,0.72,21.9
10.46,-2.0431,-6.4424,-0.03207,0.10415,0.37171,-29.58,0.84,21.72
2.8058,-11.673,-0.8036,-0.15547,0.097433,0.35033,-29.7,1.26,21.66
1.5391,-10.869,-3.4323,0.045509,0.10904,-0.11484,-29.7,1.26,21.6
6.2245,-5.4481,-4.8897,0.08491,0.42974,-0.55192,-29.7,1.26,21.36
11.264,-6.8647,-4.8488,0.17471,0.33903,-0.13439,-29.82,1.26,20.7
7.1234,-5.1349,-6.6467,0.048869,0.15272,-0.21716,-30.0,1.32,20.58
10.665,-2.9965,-8.9622,-0.16646,0.28986,-0.38332,-30.12,1.38,20.46
-0.17706,-7.1234,-2.8603,-0.14844,-0.21044,-0.068111,-30.12,1.14,20.22
8.54,-7.1371,-6.1292,-0.092241,0.12339,-0.28069,-30.24,1.08,19.98
7.2324,-6.5378,-3.1191,-0.13347,0.29291,-0.41264,-30.3,1.14,19.8
13.266,-3.3097,-6.7966,-0.000916,0.35186,-0.70708,-30.36,1.02,19.62
9.2891,-0.76274,-6.0883,-0.13408,0.47067,-0.60751,-30.54,0.84,19.56
6.0883,-2.4653,3.3234,-0.0076358,0.73731,-0.0039706,-30.72,0.72,19.56
7.4503,-6.1564,-5.4481,0.13561,0.076053,-0.20403,-31.02,0.42,19.2
11.387,-3.9635,-4.7671,-0.24038,0.009163,-0.5058,-31.26,0.24,19.08
6.7012,-1.2803,-4.6718,-0.11576,0.071777,-0.40317,-31.44,0.12,19.14
7.4776,-4.3177,-5.2166,0.01069,-0.45998,-0.4725,-31.92,0.06,19.08
10.801,-7.2596,-4.8352,-0.022907,-0.66523,-0.58277,-32.04,-0.24,18.9
6.3743,-3.3778,-4.9987,0.050396,-0.57635,-0.58735,-32.04,-0.48,18.9
14.901,-6.3607,-4.2223,-0.17501,-0.51129,-0.146,-32.34,-0.9,18.78
3.514,-3.5822,-6.1836,0.036652,-0.70738,0.19181,-32.34,-1.14,18.78
13.757,-2.2474,-4.699,0.10751,0.093462,0.15027,-32.34,-1.56,18.96
