Ax,Ay,Az,Gx,Gy,Gz,Mx,My,Mz
4.1542,-0.91256,-8.8668,0.13073,-0.39615,-0.0042761,6.9,-4.32,27.54
0.84446,-3.4459,-10.474,-0.066584,-0.70188,0.18143,6.96,-4.32,27.48
1.4438,-0.095342,-8.9077,0.18112,-0.18845,0.007025,7.14,-4.38,27.54
3.5413,-5.5026,-7.5457,0.22297,-0.29444,0.030543,7.44,-4.32,27.84
1.471,-3.5685,-9.3027,0.23793,-0.41081,0.17898,7.74,-4.32,27.96
1.5255,-1.757,-9.4117,0.17013,-0.27733,0.1014,7.86,-4.32,28.14
2.942,-2.2065,-8.6217,0.12859,-0.27611,-0.036652,8.28,-4.26,28.62
2.4108,-3.0237,-9.7658,0.0064141,-0.53542,-0.014966,8.34,-4.26,28.92
2.0567,-2.6151,-8.9486,-0.098655,-0.56749,-0.14966,8.52,-4.14,29.4
2.0567,-1.7706,-8.3357,0.013439,-0.36194,-0.12156,8.7,-4.2,29.52
2.8739,-1.471,-9.5751,-0.034819,-0.2361,-0.10537,8.88,-4.14,29.7
4.5083,-3.2825,-10.215,-0.10476,-0.27794,-0.18815,9.18,-4.14,29.76
3.1191,-2.4108,-8.4038,-0.0024435,-0.31185,-0.21105,9.3,-4.08,30.18
3.7456,-2.9692,-8.3765,-0.099571,-0.19639,-0.30116,9.36,-4.08,30.42
3.3506,-4.9578,-9.5751,-0.1014,-0.35675,-0.35613,9.66,-4.02,30.66
1.9205,-1.4982,-9.5751,-0.081551,-0.33048,-0.35705,9.84,-4.08,30.96
2.1793,-1.4438,-9.3436,-0.04215,-0.31643,-0.37446,10.02,-4.26,31.26
2.3563,-2.2201,-9.8611,-0.13958,-0.32009,-0.33872,10.32,-4.38,31.56
2.7786,-3.1327,-9.507,-0.2248,-0.23121,-0.36133,10.56,-4.74,31.86
2.5742,-3.5413,-7.5865,-0.135,-0.12798,-0.36102,10.74,-4.92,32.04
2.8603,-3.3778,-8.0088,-0.13714,0.042761,-0.36438,10.74,-5.04,32.34
3.0373,-1.58,-9.398,-0.039401,0.1909,-0.35369,11.16,-5.52,32.88
3.2553,-5.4073,-8.6762,-0.13347,-0.35216,-0.48594,11.34,-5.76,33.3
2.4108,-6.3879,-8.4719,-0.11332,-0.51496,-0.46792,11.4,-5.88,33.54
1.362,-2.1793,-7.9679,0.079718,0.14355,-0.52687,11.82,-6.54,34.08
2.2337,-2.6015,-7.2869,0.11148,0.27886,-0.56566,12.0,-6.72,34.38
2.3972,-3.1872,-9.2755,0.0088575,-0.024129,-0.58154,12.06,-7.08,34.68
1.9341,-3.5822,-8.5127,-0.1066,0.036346,-0.47617,12.18,-7.8,35.04
1.6753,-4.2495,-7.8998,-0.080023,0.096211,-0.40561,12.24,-7.98,35.04
1.3212,-4.0589,-9.1937,-0.099571,0.17685,-0.35827,12.12,-8.22,35.16
1.866,-4.4811,-8.9622,-0.20097,0.13531,-0.43188,12.18,-8.46,35.52
1.4301,-1.9477,-9.0848,-0.13103,0.31337,-0.46701,12.06,-9.0,35.76
1.9205,-4.0316,-8.0224,-0.1576,0.24374,-0.42028,12.12,-9.18,35.82
1.9886,-2.1929,-10.338,0.061087,0.3711,-0.35736,11.7,-9.84,35.82
3.3097,-5.9249,-8.9758,-0.2025,0.086132,-0.31062,11.58,-9.84,35.7
0.85808,-1.7298,-9.4117,0.13256,0.17685,-0.19395,11.46,-10.14,35.64
0.38137,2.1248,-10.474,0.18815,0.54672,-0.24526,11.28,-10.26,35.7
6.1836,-6.674,-8.7851,-0.21808,0.037568,-0.2419,10.98,-10.62,35.52
0.70826,0.70826,-10.215,0.15974,0.062614,-0.13989,10.86,-10.8,35.4
1.471,-0.38137,-8.4719,0.14203,0.54764,-0.23763,10.68,-10.98,35.52
3.2144,-5.8295,-10.637,-0.066584,0.07086,-0.11729,10.2,-11.1,35.34
0.35413,-0.19068,-8.7306,0.12492,0.32681,-0.17776,10.08,-11.16,35.28
0.35413,1.9068,-7.3686,0.29719,0.75442,-0.14661,10.08,-11.28,35.04
5.2166,-6.6876,-8.2812,-0.15058,-0.089797,-0.058338,9.9,-11.34,34.98
-0.89894,1.9477,-10.665,0.16432,-0.354,-0.049175,9.48,-11.34,34.86
0.8036,1.1577,-7.4367,0.21136,0.89034,-0.19884,9.3,-11.4,34.74
5.1621,-6.0066,-9.9565,0.0061087,0.3259,0.047953,9.12,-11.16,34.44
4.3449,-5.3528,-11.128,-0.21289,0.017104,0.0082467,9.0,-11.16,34.26
0.40861,-2.3836,-7.355,-0.16921,0.12065,-0.080634,8.88,-11.28,33.96
2.9829,2.1248,-9.8203,0.028405,0.85124,-0.12706,8.46,-11.1,33.72
8.3765,-4.9442,-9.902,-0.22388,0.26664,-0.18051,8.16,-11.1,33.42
4.7807,-7.246,-8.9213,-0.30299,-0.6408,-0.043982,7.98,-11.1,33.3
1.9205,2.6423,-9.6432,-0.17898,0.75564,-0.25626,7.56,-11.1,32.94
8.1858,-3.7456,-8.3901,-0.32742,0.17043,-0.31765,7.32,-11.22,32.64
6.4152,-5.1076,-8.0224,-0.084299,-0.39828,0.1069,7.02,-11.22,32.4
3.7865,-1.58,-10.052,-0.25259,0.32742,-0.29413,6.9,-11.22,31.8
5.7614,-4.7126,-8.7715,-0.22633,-0.1011,-0.21014,6.78,-11.46,31.68
2.152,-1.6753,-10.188,-0.15272,0.0051924,-0.17746,6.72,-11.52,31.56
4.7399,-1.9341,-7.1915,-0.1347,0.37263,-0.37202,6.54,-12.0,31.38
5.4754,-5.0531,-9.4253,-0.085827,-0.14233,-0.2306,6.48,-12.18,31.32
2.833,-2.0022,-11.087,-0.15424,-0.18143,-0.31643,6.48,-12.24,31.32
3.2144,-1.3076,-8.2539,-0.11729,0.041233,-0.42822,6.54,-12.48,30.96
3.8546,-2.3018,-8.8668,-0.11545,-0.23243,-0.43097,6.66,-12.54,31.02
2.8058,-1.5255,-9.4798,-0.064446,-0.3259,-0.42089,6.6,-12.72,30.78
6.2517,-3.4459,-9.8066,-0.13989,-0.33964,-0.5736,7.02,-12.9,30.72
4.699,-3.8001,-8.5808,-0.18357,-0.48075,-0.59865,7.02,-13.08,30.6
1.6753,-2.3427,-7.2869,0.12889,-0.28466,-0.38087,7.14,-13.2,30.54
5.2438,-1.2667,-11.005,0.040928,0.089492,-0.51526,7.14,-13.26,30.66
6.4016,-1.9205,-10.651,-0.0058032,-0.3937,-0.5507,7.32,-13.38,30.66
3.3097,-1.1986,-9.4389,0.048564,-0.35919,-0.48319,7.5,-13.5,30.6
3.6503,-4.808,-7.2188,0.025656,-0.18479,-0.6298,7.68,-13.62,30.66
1.7979,-3.5822,-7.8045,0.18692,-0.32651,-0.45571,7.8,-13.5,30.72
2.0839,-1.9886,-9.4798,0.025656,-0.25076,-0.55986,7.86,-13.44,30.9
4.0589,-2.4789,-9.5342,0.0015272,-0.24007,-0.58399,8.28,-13.44,31.2
3.051,-2.9965,-8.2403,-0.025045,-0.030238,-0.53512,8.46,-13.44,31.26
1.8796,-3.0782,-7.8998,0.083994,-0.0094684,-0.49847,8.64,-13.26,31.38
2.8603,-4.0452,-9.6023,-0.013439,-0.10018,-0.49236,8.82,-13.32,31.56
4.3721,-3.8273,-9.1801,-0.010996,-0.11973,-0.61361,9.12,-13.08,31.56
2.6832,-2.6423,-8.2131,-0.0015272,0.10721,-0.56658,9.12,-13.02,31.86
2.5742,-2.547,-8.6081,-0.041844,0.3091,-0.52657,9.42,-12.78,32.04
3.6094,-2.5061,-9.5751,-0.07086,0.20281,-0.55528,9.48,-12.54,32.1
3.9635,-1.7979,-10.025,-0.079718,0.054978,-0.55161,9.42,-12.36,32.4
2.7649,-1.7025,-8.7306,-0.091935,0.20983,-0.48717,9.24,-12.18,32.64
2.8467,-1.8387,-8.1858,-0.065668,0.7086,-0.51924,9.18,-12.18,32.88
3.2961,-1.757,-8.322,-0.046426,0.92607,-0.58643,9.06,-12.24,32.94
3.8273,-1.58,-9.6841,-0.081245,0.96211,-0.49572,8.82,-12.12,33.18
5.0123,-1.7025,-9.4389,-0.097128,0.51771,-0.36102,8.46,-12.0,33.24
4.0044,-1.185,-8.145,0.0073304,0.35552,-0.42577,8.28,-11.82,33.42
4.6037,-2.7786,-7.0281,0.037568,0.27245,-0.31796,7.62,-11.52,33.6
2.9965,-3.3506,-7.7364,0.028405,-0.30146,-0.32865,7.32,-11.4,33.84
2.1656,-2.6968,-8.4174,0.050702,-0.47373,-0.28344,7.2,-11.22,33.96
2.1656,-2.6968,-8.4174,0.18631,-0.036652,-0.2416,7.2,-11.22,33.96
7.355,-2.0703,-11.305,-0.067501,0.39615,-0.44227,6.78,-11.1,33.9
3.5277,-1.6753,-7.8862,0.135,0.21472,-0.5681,6.54,-11.16,33.66
0.36775,0.61292,-7.0281,0.43097,-0.81398,-0.47067,6.54,-10.92,33.48
3.0646,-3.6094,-8.8396,0.072388,0.23243,-0.24251,6.6,-10.5,33.42
4.5083,-3.909,-10.501,-0.0094684,0.12431,-0.31704,6.6,-10.32,33.42
3.8954,0.44947,-7.8181,0.1066,0.17257,-0.40012,6.54,-10.2,33.12
5.1894,-3.9635,-8.4582,0.096517,0.21075,-0.23854,6.96,-10.08,33.0
3.3097,-1.2803,-9.9837,-0.11118,-0.0562,-0.30696,7.2,-10.14,32.94
0.96704,-0.20431,-8.2403,0.13653,-0.10568,-0.19334,7.44,-10.2,32.76
4.3177,-0.58567,-9.8203,0.057116,0.38179,-0.074831,7.5,-10.14,32.46
5.2302,-1.6072,-9.0303,0.098044,0.24343,-0.1182,7.44,-10.02,32.46
3.7865,-1.9613,-9.221,0.081551,-0.15149,-0.039706,7.38,-10.08,32.46
3.7456,-2.0975,-7.8726,0.13653,0.15821,-0.13592,7.26,-10.32,32.1
3.6775,-3.0237,-7.9951,0.061697,0.21961,-0.082772,7.32,-10.56,31.68
3.8001,-0.7355,-8.7443,0.055589,0.076664,-0.048564,7.32,-10.62,31.68
4.018,-2.1929,-9.3572,-0.13806,0.31857,-0.023824,7.38,-10.56,31.38
-1.362,2.1248,-7.2188,0.30971,-0.0015272,-0.051924,7.32,-10.62,31.26
3.9227,-3.623,-7.5729,0.15608,0.32284,0.055589,7.14,-10.56,31.14
6.4697,-4.2223,-9.9701,-0.0030543,0.16157,0.036346,7.08,-10.44,30.9
1.8796,-0.8717,-7.5729,0.11118,0.17287,0.096517,6.96,-10.62,31.02
4.7126,-4.2632,-8.4582,-0.015272,0.50702,0.33017,6.96,-10.68,30.9
4.7399,-3.7865,-9.6977,-0.25595,0.20372,0.22602,7.02,-10.62,30.72
-0.39499,0.57205,-7.8045,0.025962,0.21289,0.18418,6.72,-10.62,30.36
3.6094,0.49033,-7.8045,-0.076664,0.84177,0.20708,6.66,-10.56,30.18
6.6331,-1.6617,-7.927,-0.050396,0.51252,0.48625,6.6,-10.44,29.94
7.0009,-6.8783,-9.4525,-0.18601,0.070555,0.43341,6.18,-10.2,29.4
3.3915,-4.3177,-8.3357,-0.15088,0.27153,0.46395,5.88,-10.26,28.98
0.23155,0.47671,-7.5048,-0.12675,0.71044,0.3992,5.64,-10.32,28.74
6.4833,-0.58567,-10.46,-0.1518,0.95997,0.46853,5.16,-10.32,28.14
8.3629,-3.5277,-9.9837,-0.1799,0.2306,0.54734,4.92,-10.44,27.84
5.1894,-4.522,-9.0848,-0.080634,0.31246,0.70952,4.62,-10.44,27.54
-0.95342,-0.95342,-7.2188,-0.061697,0.32284,0.61606,4.38,-10.44,27.18
6.7693,0.054481,-11.128,-0.208,0.39248,0.51252,3.66,-10.38,26.34
4.9987,-1.0624,-10.61,-0.21472,-0.10843,0.72357,3.18,-10.38,26.1
3.8001,-0.68102,-8.9758,-0.3207,-0.022907,0.62003,2.82,-10.26,25.5
5.3119,-2.0839,-9.7113,-0.40775,-0.05681,0.60995,2.4,-10.2,25.26
4.3994,-0.16344,-9.8611,-0.34147,-0.41692,0.53023,2.1,-10.2,24.96
1.7025,1.076,-9.8748,-0.1967,-0.26512,0.66309,1.8,-10.2,24.72
7.069,-3.3506,-10.42,-0.2978,-0.30879,0.48655,1.56,-10.14,24.54
0.70826,0.27241,-8.6489,-0.019853,-0.6295,0.53817,1.32,-10.02,24.3
7.1507,-0.76274,-10.992,-0.12462,-0.10568,0.23824,1.38,-9.96,24.24
6.7012,-0.5993,-9.9973,-0.02474,-0.59346,0.40103,1.32,-9.78,24.18
2.6287,-1.0215,-8.6762,0.012523,-0.71563,0.42638,1.44,-9.72,24.18
3.4187,-1.6889,-8.9077,-0.040012,-0.46151,0.29658,1.56,-9.78,24.24
4.1951,-0.6674,-10.134,0.03879,-0.59315,0.37446,1.86,-9.48,24.48
6.4833,-3.4868,-10.229,-0.18265,-0.70616,0.13714,2.1,-9.3,24.48
1.7025,-0.14982,-7.7636,0.17807,-0.71257,0.36041,2.4,-9.12,24.84
6.1292,-3.2144,-9.9156,-0.024435,-0.37904,0.012828,2.82,-9.12,25.14
5.884,-3.228,-9.2755,0.14936,-0.60445,0.33384,3.24,-9.06,25.44
3.2416,-1.9886,-8.2948,0.047953,-0.57085,0.23243,3.9,-9.06,26.04
1.9341,-2.8467,-5.8159,0.32101,-0.3485,0.36805,4.32,-9.0,26.4
3.5685,-3.1872,-7.641,0.19242,-0.17013,0.23366,4.56,-9.0,26.76
3.6366,-4.2359,-7.8181,0.13806,-0.30604,-0.035125,4.98,-8.94,27.42
1.3212,-2.4789,-7.355,0.31551,-0.69272,0.27092,5.28,-8.94,27.84
1.9068,-1.9341,-8.5536,0.18326,0.011606,0.13622,5.46,-8.88,28.2
5.5299,-6.6195,-8.1722,-0.0281,-0.17654,0.02138,6.24,-8.64,29.04
1.6617,-3.3234,-6.9328,0.30757,-0.17287,0.30543,6.42,-8.76,29.4
3.0918,-0.50395,-6.6331,-0.051313,0.32742,-0.0054978,6.9,-8.82,30.36
2.7922,-5.4618,-7.4776,0.15455,-0.036957,0.3769,7.08,-8.82,30.6
4.127,-3.4868,-8.3629,0.096211,-0.010079,0.23946,7.14,-8.76,30.78
3.4459,-6.0747,-7.6002,0.10171,0.014966,0.3543,7.08,-8.64,31.26
1.8524,-1.0624,-9.1529,0.12767,0.4948,0.1912,7.02,-8.46,31.68
3.9635,-4.7126,-7.8589,-0.078191,0.4893,0.025656,6.96,-8.46,31.74
2.5879,-5.4754,-8.036,0.034208,0.13928,0.27764,7.02,-8.34,32.04
3.0646,-2.656,-7.9407,-0.027184,0.66676,0.018021,7.08,-8.28,32.52
3.8409,-5.6116,-8.0632,-0.053145,0.40897,0.16554,7.02,-8.22,32.58
3.0918,-4.9987,-8.2676,-0.023824,0.32773,0.11881,6.9,-8.46,32.7
3.4187,-4.6173,-8.6898,-0.15669,0.562,0.069944,6.36,-8.34,32.7
4.1542,-6.5105,-8.322,-0.21136,0.34239,0.012828,6.18,-8.16,32.7
1.2531,-1.7025,-8.9349,0.016493,0.64507,0.17043,5.76,-8.16,32.58
6.3743,-6.0747,-8.8941,-0.23243,0.6411,-0.087659,5.16,-8.04,32.34
4.8352,-5.7342,-10.025,-0.06689,0.29383,0.14722,5.04,-8.1,32.28
1.4438,-0.12258,-9.3436,-0.055894,0.64599,0.0082467,4.62,-8.1,32.1
4.7944,-2.1656,-8.6898,-0.030238,0.60384,0.07422,3.9,-8.28,31.56
3.5277,-0.57205,-10.106,0.039095,0.4102,0.11484,3.42,-8.4,31.38
4.5356,-1.7706,-9.8066,-0.073304,0.29627,0.096517,3.06,-8.46,31.08
1.5391,-3.0373,-7.6955,-0.0048869,-0.025045,0.22113,2.16,-8.46,30.36
1.6889,0.01362,-9.6841,-0.084299,0.36072,0.12523,1.86,-8.46,30.12
6.7148,-2.3836,-10.12,-0.29871,0.39584,-0.25229,1.68,-8.4,29.7
6.0202,-4.3449,-9.0303,-0.12065,-0.15913,0.15394,1.26,-8.46,29.28
3.6775,-1.1577,-8.2812,-0.17623,0.26542,-0.090713,0.78,-8.82,28.74
6.6467,-4.413,-8.7715,-0.26634,0.13286,-0.10079,0.6,-8.82,28.62
2.4789,0.36775,-9.9973,-0.14905,-0.15333,0.15882,0.42,-9.0,28.5
7.3686,-9.0439,-6.7012,-0.5342,-0.13408,-0.11515,0.12,-8.94,27.96
-1.7979,-1.5391,-8.322,-0.18509,-0.44227,0.23335,0.06,-9.0,27.66
2.2474,1.2667,-10.324,-0.30482,0.34453,-0.30574,-0.06,-9.18,27.42
10.215,-4.8761,-9.793,-0.53115,0.27184,-0.30543,-0.06,-9.24,27.24
0.28603,-2.1248,-8.1995,-0.19548,-0.5339,0.33842,-0.06,-9.42,26.94
4.6718,-2.5198,-8.6353,-0.30635,0.082772,-0.077885,0.24,-9.96,26.76
7.4776,-6.6604,-10.76,-0.35797,-0.1744,-0.0030543,0.12,-10.26,26.58
3.1599,-6.3198,-7.927,-0.38851,-0.66523,0.083383,0.36,-10.44,26.64
-2.0567,4.2359,-6.9872,-0.042455,0.22144,0.23457,0.6,-10.68,26.58
8.1858,0.19068,-8.54,-0.0067195,0.8604,-0.32315,0.66,-11.1,26.4
9.1801,-5.1076,-10.569,-0.074526,0.05284,-0.13806,0.78,-11.76,26.22
-0.53119,-3.0373,-8.1995,0.035736,-1.095,0.15699,0.9,-11.94,26.04
1.3212,0.35413,-7.8045,0.12431,-0.24832,0.000305,0.9,-11.88,26.1
7.5457,-5.1485,-7.9951,-0.17532,0.24068,-0.58826,0.96,-12.06,26.1
5.094,-3.6639,-8.322,-0.0012217,-0.40103,-0.11698,0.9,-12.06,26.1
3.6366,-2.2746,-8.9349,-0.20586,-0.093768,-0.3989,0.9,-12.12,26.04
4.3858,-1.9068,-7.5729,-0.10629,0.1628,-0.28161,0.66,-12.18,25.92
7.355,-3.0237,-9.3436,-0.23396,-0.017715,-0.44013,0.84,-12.24,25.8
0.27241,-4.4402,-7.8181,-0.17959,-0.41417,-0.15302,0.96,-12.18,25.5
0.70826,0.77636,-9.4253,-0.03879,0.25809,-0.28497,1.02,-12.24,25.5
5.5707,-1.4165,-9.507,-0.078191,0.65699,-0.17959,0.96,-12.18,25.74
4.6037,-2.9284,-8.9349,0.068722,0.11301,-0.0027489,0.96,-12.48,25.62
2.9829,-2.8058,-8.3084,0.13561,-0.022602,0.085521,1.02,-12.42,25.62
2.7241,-3.4868,-9.0984,0.073915,0.24343,0.16066,0.96,-12.3,25.5
3.4732,-5.1349,-8.9758,-0.033292,0.097738,-0.076969,0.84,-12.42,25.38
2.9284,-0.027241,-8.7579,0.0094684,0.25565,-0.087659,0.9,-12.48,25.08
6.1292,-4.8761,-7.1234,-0.18387,0.31093,-0.20342,0.72,-12.6,24.96
4.1133,-4.7944,-7.927,0.033598,-0.038485,0.12401,0.36,-12.6,24.96
4.304,-3.8001,-8.826,-0.091019,-0.0045815,-0.12248,0.18,-12.72,25.08
1.4982,0.40861,-9.0031,0.042455,0.32376,0.025045,0.12,-12.84,25.14
6.1836,-1.362,-8.8532,-0.14966,0.62675,-0.1573,-0.18,-13.14,24.96
6.565,-5.4754,-8.3629,-0.13775,0.50855,-0.1237,-0.48,-13.2,24.9
4.6309,-4.8625,-7.355,-0.015577,-0.039401,-0.10446,-0.6,-13.2,24.96
2.5198,-1.5119,-8.6898,-0.24954,0.18143,-0.17532,-0.78,-13.38,24.66
5.2166,-3.3234,-9.8611,-0.38057,0.79229,-0.21533,-0.96,-13.44,24.78
5.7886,-1.8115,-9.3163,-0.21441,0.3259,-0.28283,-1.14,-13.5,24.72
0.51757,0.49033,-7.8317,-0.054672,0.40134,-0.18631,-1.38,-13.62,24.72
6.8647,-2.9829,-8.7034,-0.19028,0.57452,-0.11148,-1.8,-13.68,24.48
4.1951,-1.7979,-8.322,-0.098044,0.17929,0.020769,-1.98,-13.86,24.18
3.732,-2.9965,-8.4446,-0.23946,0.15669,0.020769,-2.22,-13.92,24.0
3.1191,-1.4438,-8.4446,-0.20769,0.39492,0.03543,-2.46,-14.04,23.58
5.9112,-1.3212,-9.0167,-0.33964,0.32956,-0.082467,-2.82,-14.28,23.4
3.5277,0.10896,-8.6081,-0.15638,0.25107,-0.018937,-3.12,-14.34,23.28
5.775,-1.7025,-9.0439,-0.24984,0.31643,0.0082467,-3.48,-14.46,23.22
5.0804,-3.7047,-8.3901,-0.16799,0.033903,0.13836,-3.6,-14.82,22.8
3.4187,-3.7047,-9.221,-0.20617,0.13561,0.026878,-3.66,-14.82,22.62
5.775,-0.47671,-8.1313,-0.21014,0.32284,0.035736,-3.9,-15.0,22.26
6.4152,-3.2553,-7.5457,-0.12462,0.25412,0.13439,-3.84,-15.18,22.2
5.6797,-3.2825,-8.6217,-0.16738,-0.07758,0.0562,-4.14,-15.3,22.02
2.942,1.2122,-10.188,-0.096822,-0.1518,0.066279,-4.32,-15.48,21.84
8.7034,-5.3119,-9.3299,-0.4499,0.22388,0.030849,-4.32,-15.84,21.54
0.96704,0.20431,-8.4719,-0.04215,-0.29291,0.10843,-4.2,-15.96,21.3
4.3858,-0.74912,-8.2539,-0.38393,0.34208,0.051313,-4.14,-16.2,21.12
5.3664,-0.054481,-8.826,-0.18173,0.32009,0.18479,-4.32,-16.26,20.94
5.7205,-2.3291,-8.7034,-0.19028,-0.13653,0.28588,-4.14,-16.44,20.82
4.127,-4.0861,-7.9679,-0.12095,0.088575,0.33842,-4.02,-16.74,20.52
4.0861,-0.54481,-10.147,-0.13225,-0.13592,0.24251,-4.08,-16.8,20.4
8.717,-2.7922,-8.3084,-0.40042,0.16707,0.1295,-3.96,-16.92,19.8
2.2882,0.89894,-7.464,0.032376,-0.20831,0.29138,-3.84,-16.98,19.62
6.7557,-2.8739,-9.221,-0.44074,0.25045,0.39156,-3.72,-16.98,19.44
3.8546,-0.81722,-9.1937,-0.25992,0.011301,0.24251,-3.6,-17.22,19.2
-2.1929,1.4165,-8.036,-0.032376,-0.77733,0.19914,-3.54,-17.46,18.84
6.6876,-1.6072,-7.6955,-0.28405,0.75198,0.33384,-3.42,-17.58,18.66
11.727,-4.522,-10.924,-0.43005,-0.66035,0.28558,-3.54,-17.82,18.42
-5.2575,3.5277,-4.9578,0.25137,-0.076358,0.50335,-3.48,-17.88,18.3
-1.4165,2.7649,-6.7012,0.058948,0.57208,0.24771,-3.36,-18.18,18.0
14.996,-2.3972,-12.299,-0.31704,0.10476,0.043371,-3.24,-18.3,18.0
-1.6344,-0.88532,-6.7012,0.20464,-0.80665,0.7141,-3.18,-18.54,18.06
5.203,-0.89894,-8.4446,-0.21044,0.16738,0.23457,-3.18,-18.42,18.0
13.157,-7.4095,-9.8066,-0.31246,0.40684,0.36927,-3.12,-18.36,18.0
1.2258,2.1793,-8.3493,0.19456,-0.78221,0.36194,-3.12,-18.06,18.06
1.7298,-0.76274,-7.0145,-0.0073304,0.45265,0.45173,-3.18,-17.94,18.24
8.717,-2.5606,-10.038,-0.06689,-0.093462,0.36621,-3.06,-17.94,18.24
4.6854,-3.4051,-8.7579,-0.022297,-0.38149,0.37202,-2.88,-17.64,18.6
-0.35413,1.7434,-8.7306,0.15455,-0.20861,0.33323,-3.06,-17.4,18.78
8.3629,-5.094,-9.1665,-0.018631,0.1686,0.27947,-2.94,-17.1,19.08
6.5786,-5.1757,-8.3493,0.1741,-0.49969,0.38882,-2.82,-16.98,19.2
0.47671,-0.054481,-7.5593,0.15211,-0.027184,0.4612,-2.82,-16.8,19.44
7.7908,-2.152,-9.5479,-0.13653,0.053451,0.25504,-2.82,-16.74,19.68
0.16344,-0.96704,-6.3198,0.19151,-0.46151,0.6127,-2.82,-16.68,19.8
1.5391,0.054481,-7.4776,0.28466,-0.094073,0.36682,-2.94,-16.38,20.22
8.1995,-4.0861,-9.6977,-0.051313,-0.081245,0.39798,-2.94,-16.32,20.28
2.4925,-3.9227,-7.2733,0.23305,-0.58674,0.62553,-3.06,-16.2,20.46
3.6503,-4.1406,-7.6683,-0.029932,0.044288,0.43341,-2.88,-15.96,20.64
3.2825,-1.6344,-8.4719,0.13134,0.23579,0.32529,-2.88,-15.72,21.24
5.4618,-2.4517,-8.6353,0.021686,0.015577,0.49297,-3.0,-15.54,21.42
3.4051,-2.2065,-7.6546,0.12462,0.092241,0.53756,-3.18,-15.24,21.78
5.4618,-5.6797,-7.9134,-0.13561,0.05284,0.38118,-3.3,-15.06,22.38
2.3291,-3.6366,-8.1586,0.063835,0.049786,0.51129,-3.36,-14.88,22.68
4.7944,-3.8001,-7.3005,-0.16524,0.28375,0.16218,-3.36,-14.64,22.98
2.0839,0.70826,-9.0303,0.045204,0.35552,0.60873,-3.42,-14.4,23.16
6.4152,-0.6674,-9.2482,-0.17257,0.39645,0.34758,-3.48,-14.1,23.52
5.3528,-6.3879,-8.3357,-0.28527,0.21533,0.34758,-3.66,-13.86,23.64
1.6889,-2.0022,-8.0905,0.020769,0.1011,0.2923,-3.78,-13.62,23.52
4.9169,-4.4266,-8.1041,-0.28436,0.62492,0.35736,-4.02,-13.44,23.52
4.0725,-3.3097,-9.0303,-0.20739,0.3036,0.41783,-3.9,-13.44,23.58
3.7865,-2.5879,-8.5536,-0.20861,0.49694,0.41172,-4.08,-13.44,23.46
5.8976,-5.5435,-8.5536,-0.35125,0.46365,0.38362,-4.2,-13.32,23.4
3.0918,-2.8058,-7.9543,-0.16646,0.34728,0.35033,-4.5,-13.2,23.22
5.775,-2.547,-9.112,-0.3146,0.63774,0.19761,-4.74,-13.44,22.98
5.5299,-3.2825,-8.7987,-0.27611,0.36499,0.29719,-4.92,-13.32,22.62
4.1542,-3.0237,-8.2539,-0.21289,0.3543,0.39126,-4.86,-13.56,22.44
3.5004,-2.2201,-9.0848,-0.31124,0.67776,0.40439,-4.98,-13.5,22.14
7.0145,-4.8625,-8.8668,-0.39279,0.48167,0.25229,-5.4,-13.68,21.96
3.4868,-3.7047,-8.5672,-0.28619,0.18021,0.48778,-5.4,-13.8,21.72
2.8467,-2.0567,-8.3084,-0.38637,0.46487,0.23671,-5.64,-13.68,21.36
5.6524,-1.3348,-9.221,-0.40042,0.50366,0.21625,-5.76,-13.62,21.0
6.851,-4.9578,-8.7443,-0.41692,0.24129,0.43097,-5.76,-13.74,20.76
4.3449,-1.9477,-8.9349,-0.45479,0.24587,0.2926,-5.94,-13.68,20.46
2.1384,0.040861,-7.1915,-0.50335,0.52046,0.23182,-6.0,-13.68,20.28
1.5391,1.6072,-8.2267,-0.26634,0.59895,0.32498,-6.06,-13.62,20.04
10.42,-3.7047,-9.6841,-0.75106,0.33964,-0.000305,-6.3,-13.62,19.74
-1.8387,1.8387,-7.6546,-0.10996,-0.087354,0.7254,-6.42,-13.8,19.32
-2.3836,3.5413,-8.322,-0.46181,0.44807,0.079107,-6.42,-13.8,19.08
9.4117,-2.8875,-9.3844,-0.78863,0.90591,-0.28955,-6.36,-13.86,18.84
4.1678,-1.0624,-8.036,-0.23518,-0.29993,0.40928,-6.48,-13.98,18.42
0.6674,-0.49033,-6.4969,-0.35186,0.50183,0.0082467,-6.48,-13.98,18.3
12.939,-3.7456,-11.032,-0.46823,0.7648,-0.11942,-6.3,-14.46,18.0
10.692,-4.8352,-8.7443,-0.64019,-0.084605,-0.2532,-6.3,-14.52,17.76
-3.6366,1.7025,-8.2539,-0.055894,-0.50396,0.32315,-6.24,-14.52,17.58
0.31327,3.051,-8.8668,-0.45082,0.14142,-0.40348,-6.12,-14.7,17.4
9.9292,-0.70826,-9.5887,-0.33078,0.29596,-0.072082,-5.88,-15.0,17.16
5.3119,-0.35413,-8.0496,0.025962,-0.65882,0.19426,-5.7,-15.18,17.28
4.7126,-1.3484,-7.6002,-0.11759,-0.33659,0.076969,-5.34,-15.18,17.58
4.3994,-1.6481,-7.355,-0.022602,-0.040623,0.0012217,-5.16,-15.24,17.58
7.8045,-2.5742,-8.6898,-0.25351,-0.3375,-0.34178,-4.98,-15.3,17.46
3.3234,-1.471,-7.3822,0.090408,-0.62583,-0.013134,-4.44,-15.36,17.46
3.3097,0.83084,-7.4367,0.15669,-0.36713,-0.099876,-4.14,-15.24,17.64
9.1937,-4.7944,-8.3493,-0.2248,0.29016,-0.46151,-3.78,-15.3,17.82
4.1951,-1.7298,-7.6274,0.020769,-0.33689,-0.16371,-3.36,-15.12,17.82
3.8954,-2.5606,-6.6331,0.048564,-0.28741,-0.35003,-3.06,-14.88,18.12
3.7865,-2.833,-6.8919,-0.04948,0.038485,-0.26542,-2.7,-14.76,18.24
3.6503,-0.38137,-8.3493,-0.12187,-0.15455,-0.3262,-2.4,-14.58,18.42
5.8704,-5.1757,-7.0009,-0.1066,-0.3824,-0.27642,-2.1,-14.1,18.6
1.8932,-3.337,-6.9872,0.080023,-0.48686,-0.065973,-1.92,-13.74,18.66
2.8603,-0.62654,-7.8998,-0.0018326,0.024435,-0.31001,-1.5,-13.5,18.9
10.12,-4.699,-8.6762,-0.32101,0.48747,-0.22785,-1.32,-13.38,19.08
5.1485,-5.38,-6.7012,0.16921,0.13378,0.025351,-1.08,-13.14,19.2
1.4165,-3.2825,-6.5241,0.22816,-0.14966,0.13714,-0.96,-12.78,19.32
5.2166,-5.2983,-8.2812,-0.030238,0.25168,-0.23732,-0.78,-12.24,19.68
5.1213,-3.5958,-8.7306,-0.11393,0.063835,-0.15241,-0.78,-11.88,19.68
4.3177,-1.2531,-7.5457,0.061392,-0.10049,-0.23091,-0.96,-11.46,19.92
4.9033,-2.9284,-9.2891,-0.22541,0.30299,-0.0048869,-0.78,-10.86,20.04
7.3005,-3.3097,-8.145,-0.2303,0.45051,-0.21441,-0.96,-10.68,19.92
3.337,-1.3893,-7.8998,0.079718,0.035736,0.087965,-1.14,-10.38,19.74
5.6524,-3.4868,-9.221,-0.22205,0.46151,-0.1295,-1.08,-10.2,19.92
5.6252,-1.5391,-9.1801,-0.22999,0.36377,-0.026573,-1.26,-10.02,19.86
5.1349,-0.44947,-8.6353,-0.1295,0.48167,-0.19578,-1.5,-9.72,19.62
6.1292,-2.0703,-7.9951,-0.075136,0.48289,-0.12859,-1.68,-9.42,19.5
7.1643,-3.1463,-9.1665,-0.30452,0.3094,0.04948,-2.1,-9.0,19.08
4.127,0.40861,-9.1801,-0.13958,0.092546,-0.0097738,-2.34,-9.0,19.02
4.0589,0.31327,-8.7715,-0.26053,0.45387,0.096211,-2.7,-8.82,18.78
6.3743,-3.514,-8.431,-0.31887,0.57085,0.075442,-3.24,-8.58,18.24
2.4517,2.9284,-8.322,-0.078496,-0.029322,-0.024435,-3.42,-8.52,17.82
5.6116,-0.95342,-7.2733,-0.14691,0.47159,0.067501,-4.26,-8.4,17.46
7.9815,-3.1327,-9.5206,-0.30329,0.061392,0.30146,-4.5,-8.34,17.28
8.7987,-2.8739,-9.8339,-0.24496,-0.14264,0.063225,-4.8,-8.28,17.1
1.076,2.5879,-7.2052,0.032987,-0.25168,0.2419,-5.4,-8.1,16.62
8.6625,-3.6094,-8.4174,-0.32956,0.47037,0.208,-5.46,-8.1,16.32
11.727,-4.2087,-9.5206,-0.076664,-0.6744,-0.012523,-5.64,-8.1,16.08
0.54481,0.61292,-6.7148,0.051618,-0.92974,0.074831,-5.88,-8.16,15.9
6.1564,-2.6015,-8.0224,-0.36499,0.54611,0.22846,-5.94,-8.16,15.72
9.6704,-2.4925,-9.1529,-0.29383,-0.13378,0.086132,-6.12,-8.04,15.48
1.4438,1.362,-7.5865,0.021075,-0.74006,0.22144,-6.24,-8.22,15.18
5.2438,-2.5879,-8.5263,-0.1347,0.0088575,0.35858,-6.42,-8.28,15.12
8.7034,-0.89894,-9.8066,-0.30543,0.0097738,0.19181,-6.48,-8.34,15.0
5.5707,-0.44947,-8.1041,0.029016,-0.41661,0.3091,-6.42,-8.58,14.82
2.7922,-0.7355,-7.9134,-0.14478,-0.22419,0.44471,-6.36,-8.58,14.64
6.5378,-2.6696,-8.4855,-0.2193,-0.18967,0.3656,-6.24,-8.52,14.76
2.1384,1.2122,-7.4231,0.022907,-0.45815,0.20953,-6.18,-8.58,14.64
1.0488,2.9284,-5.884,0.17013,0.29016,0.4218,-6.24,-8.28,14.64
15.977,-7.9134,-10.828,-0.36988,-0.43158,0.40867,-6.36,-8.16,14.58
1.6481,0.35413,-8.9349,0.17868,-1.1448,0.20159,-6.42,-8.16,14.34
-4.6445,3.4596,-6.8919,-0.093768,-0.21655,0.34728,-6.54,-8.16,14.34
11.673,-3.3778,-8.3357,-0.47128,0.63683,0.39828,-6.48,-8.1,14.52
8.9486,-0.24517,-10.093,-0.20892,-0.97586,0.28344,-6.36,-8.04,14.4
3.6366,-1.6617,-8.3493,-0.14783,-0.67378,0.45173,-6.18,-8.16,14.4
1.9068,2.0567,-11.182,0.020464,-0.32315,0.27061,-5.94,-7.92,14.64
13.048,-3.5822,-10.311,-0.26817,-0.52107,0.1857,-5.94,-7.86,14.7
6.8919,-2.9965,-8.3357,0.015882,-0.66798,0.52198,-5.82,-7.92,14.82
-2.8194,5.1213,-9.1665,0.18021,-1.0174,0.29596,-5.76,-7.92,14.82
9.0031,-2.5198,-7.927,0.050091,-0.12248,0.41233,-5.64,-7.8,15.18
1.4846,1.975,-9.1529,0.30085,-1.1432,0.35583,-5.46,-7.92,15.3
7.4776,1.975,-11.7,-0.034819,-0.57452,0.20892,-5.28,-7.86,15.66
1.5936,2.3563,-8.2539,0.30299,-0.86163,0.32009,-4.86,-7.74,16.44
7.2188,-1.2531,-7.5184,0.25015,-0.84727,0.14539,-4.68,-7.62,16.62
6.8919,-2.3018,-4.5492,0.35125,-0.37293,0.14142,-4.38,-7.8,16.92
7.9815,-5.0531,-7.7636,0.16066,-0.99388,-0.082467,-4.14,-7.44,17.94
1.2939,-0.19068,-8.5672,0.45907,-0.83536,0.26786,-4.02,-7.32,18.36
2.6696,3.6094,-8.7579,0.37141,-0.22174,0.0045815,-3.72,-7.32,18.72
4.127,-2.0294,-7.4367,0.42944,-0.22358,0.48258,-3.42,-7.2,19.68
8.5536,-5.9249,-9.9292,-0.10049,-0.40989,0.16952,-3.24,-7.08,20.16
7.4912,-11.645,-7.9951,-0.0085521,-0.89095,0.28375,-3.0,-7.08,20.64
-2.0022,-2.8603,-5.2711,0.43891,-0.72082,0.32712,-2.4,-7.02,21.66
4.0861,-2.4925,-9.5751,-0.024435,0.19334,-0.43066,-2.28,-7.02,22.14
3.1191,-3.2961,-8.4446,0.30268,-0.028711,0.050091,-1.98,-7.2,22.5
2.4517,-1.7162,-7.927,0.5171,-0.0058032,-0.041844,-1.8,-7.2,23.4
3.5685,-6.5378,-7.1098,0.27458,0.093768,0.11759,-1.68,-7.08,24.0
3.3778,-7.1643,-7.9134,0.19212,-0.17532,0.022907,-1.5,-6.96,24.36
5.2983,-5.2575,-7.5184,-0.0024435,0.012217,-0.32559,-1.2,-7.08,25.14
1.4438,-5.2847,-5.5707,0.30116,-0.10446,0.087965,-1.2,-7.14,25.56
1.8932,-0.92618,-7.1915,0.13836,0.35094,-0.33598,-1.2,-7.02,25.8
6.6059,-6.5241,-9.0575,-0.16463,0.53176,-0.19914,-0.9,-6.84,26.22
3.337,-6.7421,-7.7364,0.11118,-0.076969,0.18418,-0.96,-6.96,26.4
2.1793,-0.31327,-8.8941,0.059559,0.11026,0.047953,-0.96,-6.9,26.46
5.0259,-4.9033,-7.246,-0.24526,0.75136,-0.029627,-1.32,-6.96,26.34
2.2201,-2.3563,-8.0632,0.06017,0.135,0.21777,-1.26,-7.08,26.34
5.6933,-3.0782,-10.828,-0.39248,0.4609,-0.14294,-1.44,-6.9,26.4
0.70826,-2.9556,-7.8317,0.053145,0.19334,0.23549,-1.62,-7.08,26.28
0.16344,5.0804,-8.5944,0.040012,0.76694,-0.15577,-1.74,-7.32,26.22
5.2575,1.0624,-8.4582,-0.38362,1.2648,-0.086743,-1.92,-7.38,26.4
6.9191,-7.5865,-9.3436,-0.2584,-0.050396,0.10965,-2.34,-7.68,25.74
1.9886,-4.2768,-7.8045,-0.0076358,-0.61209,0.077885,-2.58,-7.74,25.5
-0.72188,1.2395,-7.8181,0.07025,0.35491,-0.033903,-2.82,-7.98,25.5
9.7385,-3.9635,-8.7715,-0.36133,1.0143,-0.22877,-3.48,-8.34,25.26
7.6683,-6.3062,-9.1393,-0.1967,-0.3427,0.2303,-3.72,-8.34,25.08
1.4165,-0.1362,-9.5342,-0.13378,-0.31429,-0.048258,-4.02,-8.58,24.96
5.6661,-0.16344,-9.4661,-0.29322,0.46304,-0.18143,-4.2,-8.82,24.78
6.9055,-6.5378,-7.6002,-0.23274,-0.12309,0.10782,-4.32,-8.82,24.48
2.9829,-0.70826,-11.169,0.033903,-0.49511,0.10934,-4.5,-8.94,24.24
5.7205,-5.7478,-8.7715,-0.47067,-0.19609,-0.092241,-4.62,-9.0,23.88
-1.2803,6.2245,-7.9951,0.36591,-0.092852,-0.077885,-4.74,-9.0,23.7
3.8954,4.5764,-8.8941,0.072082,0.27397,-0.37018,-4.8,-9.12,23.4
5.3528,-5.0531,-7.9951,-0.13347,-0.15363,0.10721,-4.68,-9.18,23.28
1.1577,0.76274,-6.9328,0.17593,-0.80634,0.0076358,-4.62,-9.42,23.22
2.3836,-1.1441,-6.4152,-0.0281,0.33598,-0.0030543,-4.62,-9.42,22.92
4.9987,-2.4789,-8.7987,-0.14386,0.22999,-0.028405,-4.2,-9.66,22.74
5.4209,-1.9341,-9.3844,-0.16646,-0.23182,-0.26267,-4.02,-9.84,22.8
5.9385,-5.4481,-7.8998,-0.24129,-0.21197,-0.18815,-3.9,-9.78,22.62
1.5936,-4.1133,-6.7012,-0.046731,-0.15577,-0.06017,-3.78,-9.84,22.56
6.5786,-2.8875,-9.7113,-0.14936,0.29902,-0.38546,-3.72,-10.08,22.8
5.993,-4.127,-9.6568,-0.083689,-0.11851,-0.12584,-3.6,-10.26,22.8
3.4459,-0.58567,-9.3844,0.054978,-0.16371,-0.21961,-3.54,-10.56,22.86
4.3721,-4.2768,-8.1858,0.039095,-0.024435,-0.050091,-3.48,-10.68,22.74
4.2495,-3.6775,-10.161,-0.045204,-0.1576,-0.24679,-3.42,-10.74,22.8
4.6445,-2.3018,-9.4389,-0.018937,-0.038485,-0.28008,-3.42,-10.74,22.92
4.4539,-1.5391,-8.6625,-0.095906,0.076358,-0.26359,-3.42,-10.92,22.92
4.3449,-4.4539,-6.4424,-0.06353,0.11454,-0.22938,-3.3,-11.04,22.98
3.4187,-1.9886,-10.174,0.059559,0.057727,-0.012828,-3.3,-10.92,22.92
6.1973,-3.9499,-7.5048,-0.0076358,0.21777,-0.12523,-3.36,-10.92,22.92
1.5255,-2.3699,-6.7012,0.20922,0.15455,0.16829,-3.24,-11.04,23.04
2.1656,1.7025,-7.4912,0.21472,0.47342,-0.23488,-3.36,-10.98,23.04
5.6388,-6.1292,-8.9622,-0.047037,0.32254,0.010996,-3.18,-10.74,22.74
4.6173,-3.2961,-8.9622,-0.0054978,-0.29169,-0.2303,-3.18,-10.5,22.62
3.1463,-2.0703,-6.96,0.079107,0.16463,-0.4328,-3.12,-10.44,22.62
7.0281,-3.3234,-9.4661,-0.34392,0.3598,-0.30421,-3.18,-10.38,22.74
9.616,-6.9328,-9.0167,-0.35797,0.22999,-0.37782,-3.18,-10.44,22.62
2.6151,-2.2746,-8.6081,-0.042761,-0.35766,-0.25473,-3.06,-10.32,22.62
2.9011,2.0022,-8.1177,-0.22327,0.3598,-0.35247,-3.18,-10.26,22.62
6.9328,-2.833,-9.5751,-0.37935,0.73212,-0.064446,-3.36,-10.2,22.56
7.8045,-1.9886,-9.7385,-0.1741,0.12401,-0.2419,-3.48,-10.26,22.44
2.6696,-1.3212,-7.0962,0.11026,-0.24923,-0.14905,-3.6,-10.38,22.38
1.975,-1.5119,-7.9134,-0.061087,-0.076969,-0.078496,-3.72,-10.32,22.26
4.4675,-0.095342,-10.379,-0.17837,0.28802,-0.19792,-3.66,-10.2,22.02
5.9793,-2.0567,-8.322,-0.014355,0.10843,-0.15516,-4.08,-10.2,22.38
3.9499,-1.1169,-7.9679,0.11942,-0.14569,-0.17776,-4.2,-10.32,22.5
5.8295,-3.5549,-8.7034,-0.10537,-0.15119,-0.1292,-4.32,-10.08,22.56
6.8783,-4.699,-7.9815,0.081551,-0.10721,-0.31215,-4.32,-10.02,22.5
10.583,-4.127,-9.5751,-0.19242,0.37843,-0.0097738,-4.44,-9.84,22.68
10.583,-4.127,-9.5751,-0.19242,0.37843,-0.0097738,-4.44,-9.84,22.68
10.215,-6.2926,-10.106,0.18051,-0.65912,-0.079718,-4.38,-9.72,22.74
0.32689,1.6344,-7.4095,0.3091,-0.85124,-0.18204,-4.32,-9.54,23.04
3.2553,-1.1986,-8.7579,-0.0281,0.079412,0.033598,-4.2,-9.36,23.22
8.6081,-3.2553,-8.5944,-0.29749,0.12126,-0.21075,-4.14,-9.24,23.46
2.6696,0.14982,-7.7908,0.41325,-0.84391,-0.18418,-4.14,-9.24,23.7
6.0338,-4.2904,-9.1256,0.27336,-0.72204,-0.015577,-4.08,-9.3,24.06
6.4833,-0.8036,-10.283,0.055589,-0.22969,-0.208,-3.78,-9.06,24.3
6.1973,-0.99429,-7.8998,0.15088,-0.44104,-0.25748,-3.66,-8.88,24.48
1.8387,-0.34051,-8.7443,0.17898,-0.50641,-0.063225,-3.3,-9.0,24.66
3.8409,0.57205,-9.0848,-0.062614,-0.18173,-0.13775,-3.18,-9.0,24.84
6.1292,-2.152,-8.3493,-0.05681,0.041539,-0.027184,-3.12,-8.94,24.84
3.0646,-1.9613,-8.4174,0.044288,-0.31582,-0.068111,-2.58,-8.88,25.08
0.92618,2.0294,-7.8726,0.16677,-0.25504,-0.16829,-2.16,-8.88,25.26
5.7342,-2.3155,-9.0575,-0.13134,0.16341,0.015577,-1.86,-8.94,25.38
3.5413,-2.0294,-7.927,0.14264,-0.36988,-0.087354,-1.5,-8.88,25.56
0.40861,-0.29965,-6.9328,0.33292,-0.37935,-0.01741,-1.26,-8.82,25.68
2.7241,-1.5391,-9.8339,0.092852,0.1909,0.08094,-1.08,-8.82,25.74
4.2768,-1.6208,-8.2948,-0.040623,0.11118,-0.017104,-0.66,-9.06,25.68
1.8524,0.64016,-8.7306,0.22877,-0.16829,0.15516,-0.48,-9.18,25.74
4.7671,-2.4925,-8.7987,-0.10721,0.11881,0.13042,-0.36,-9.36,25.62
0.98067,0.095342,-8.7443,0.19914,-0.12462,0.36224,-0.18,-9.36,25.86
4.9714,-1.1577,-10.774,-0.011912,0.013439,0.25962,-0.18,-9.54,25.62
6.4424,-3.8137,-9.221,0.0085521,0.053145,0.32803,-0.18,-9.6,25.68
1.1169,-0.96704,-6.5105,0.20525,-0.000916,0.21869,0.06,-9.78,25.5
1.5391,0.35413,-8.7715,0.29688,0.1686,0.40928,0.06,-9.84,25.26
8.4991,-3.1599,-10.542,-0.043677,0.21533,-0.024435,-0.06,-9.96,25.14
0.89894,-0.89894,-7.246,0.41997,0.055894,0.57971,-0.06,-10.02,24.96
7.7636,-4.1133,-10.787,-0.089186,0.019242,0.089797,-0.3,-10.14,24.84
-5.3119,2.2201,-7.2596,0.3149,-0.040317,0.16554,-0.18,-10.14,24.84
10.474,3.3506,-9.1256,0.50213,0.2981,0.76144,-0.36,-9.96,24.96
10.011,-9.6977,-6.7966,0.026878,1.2575,-0.50091,-0.42,-10.02,24.84
-0.25879,-2.6287,-9.8066,0.47892,0.055894,1.3778,-0.6,-10.08,24.84
11.046,-5.5026,-8.2676,-0.074526,0.16493,-0.49236,-0.84,-10.2,24.78
5.5026,-8.1177,-7.6546,0.093768,0.79077,0.22266,-0.9,-10.08,24.72
-0.85808,-0.12258,-8.036,0.35064,0.48136,0.61972,-1.38,-9.84,24.78
4.9714,-2.6968,-8.4991,0.10385,1.076,-0.36346,-1.56,-9.78,24.84
4.9306,-3.3234,-9.5751,0.10385,0.73518,-0.054367,-1.92,-9.66,24.96
6.4833,-3.7047,-9.0439,-0.049786,0.38546,-0.10965,-2.04,-9.54,25.02
4.9033,-3.6911,-5.993,0.26634,0.21502,-0.31032,-2.7,-9.54,24.9
5.1621,-3.2961,-7.0009,0.099266,-0.19303,-0.12278,-2.88,-9.36,24.96
6.5105,-3.4187,-6.7285,-0.078802,-0.023518,-0.28955,-3.42,-9.3,25.02
6.5105,-3.4732,-7.6955,-0.071166,-0.3372,-0.14478,-4.26,-9.12,24.96
5.4073,-2.3155,-7.4095,-0.17471,-0.33842,-0.37171,-4.5,-8.82,25.02
4.1133,-1.9477,-7.2733,-0.099571,-0.42241,-0.15394,-4.68,-8.58,25.14
3.2961,-1.9341,-7.9407,-0.26389,0.023518,-0.16616,-4.74,-8.4,25.08
5.38,-2.2201,-8.5944,-0.32345,0.047647,-0.15974,-5.28,-8.1,25.62
5.8159,-2.3427,-8.4855,-0.17623,-0.16493,-0.11026,-5.46,-8.04,25.74
5.9112,-0.19068,-9.2891,-0.19487,-0.41508,-0.23518,-5.88,-7.86,26.04
5.6933,-2.5742,-9.4798,-0.37354,-0.20769,-0.27611,-5.94,-7.86,26.22
5.0259,-3.2553,-9.3027,-0.25534,-0.014355,-0.14997,-5.88,-7.68,26.46
3.7047,-2.5061,-8.9486,-0.20433,0.070555,-0.055589,-5.58,-7.38,26.94
4.4947,-1.7162,-8.3493,-0.09896,0.35491,-0.017104,-5.64,-7.14,27.18
4.7399,-1.7025,-8.6625,-0.13928,0.46242,-0.052534,-5.4,-7.02,27.3
4.1542,-1.58,-8.1995,-0.010385,0.31582,-0.063225,-5.22,-6.72,27.66
3.0237,-1.4029,-7.355,0.047342,-0.041233,-0.045815,-5.1,-6.78,27.78
2.8603,-1.362,-7.6546,0.06017,-0.14905,0.062308,-5.04,-6.54,27.9
7.4912,-3.4459,-8.3629,0.091935,0.22938,-0.078496,-4.8,-5.94,27.84
6.3743,-2.9965,-8.4446,-0.051313,0.0058032,-0.1127,-4.8,-5.58,27.72
5.6661,-1.58,-8.8805,-0.09896,-0.30971,-0.019853,-4.86,-5.34,27.72
5.1894,-3.5413,-8.7715,-0.14416,0.011606,-0.1689,-4.68,-4.68,27.6
5.1894,-3.5413,-8.7715,-0.28375,0.093462,-0.098349,-4.68,-4.68,27.6
3.623,-1.58,-7.8998,-0.32467,0.17196,-0.000916,-4.68,-4.2,27.6
3.7047,-1.5119,-6.5105,-0.089797,0.38851,0.10079,-4.92,-3.48,27.54
4.1542,-2.7513,-7.4912,-0.0079412,0.74831,0.24679,-5.22,-3.18,27.6
5.4073,-3.228,-5.7614,-0.011301,0.75503,0.2138,-5.1,-2.94,27.48
5.9657,-0.99429,-8.4446,0.015272,0.45326,0.25626,-5.22,-2.46,26.88
6.5786,-3.1735,-7.5729,0.28894,-0.024435,0.054672,-5.28,-2.28,26.7
6.5241,-3.514,-8.0769,0.3146,-0.38882,0.10201,-5.34,-1.98,26.28
4.4402,-3.1872,-6.8647,0.26786,-0.35491,-0.091019,-5.4,-2.1,25.5
5.5435,-0.6674,-9.2618,-0.11057,-0.34972,0.023824,-5.46,-2.22,25.14
10.801,-2.6151,-9.3572,-0.25748,-0.27489,-0.3656,-5.28,-2.46,24.48
3.5413,-1.4165,-7.7227,0.040317,-1.536,0.099571,-5.28,-2.58,24.0
5.4618,0.027241,-8.6081,-0.20708,-0.85857,-0.29077,-4.98,-2.64,23.88
5.2302,-1.2803,-8.717,-0.24099,-0.56047,-0.36011,-4.86,-2.88,23.4
6.6876,-2.5061,-8.8941,-0.28161,-0.47525,-0.25779,-4.26,-3.24,22.62
4.018,-2.7922,-7.6002,-0.15394,-0.47678,-0.24801,-4.26,-3.42,22.2
6.0202,-2.2337,-8.7306,-0.26848,-0.23366,-0.4722,-3.66,-3.84,21.9
1.4574,-0.28603,-7.4776,-0.032681,-0.79626,0.05284,-3.42,-4.08,21.9
6.96,-0.38137,-9.5751,-0.18021,-0.48717,-0.31429,-3.18,-4.26,21.96
4.699,-3.9635,-9.8611,-0.22174,-0.22541,-0.24465,-2.94,-4.44,22.2
4.5492,-2.833,-9.616,-0.24954,-0.049786,-0.26573,-2.76,-4.44,22.26
3.0101,-1.8115,-5.9657,-0.098655,0.083689,-0.14203,-2.28,-4.74,22.74
2.6015,-0.31327,-5.8704,-0.032987,-0.0048869,-0.19395,-2.22,-4.8,23.04
9.9429,-5.775,-10.011,-0.095295,-0.32162,-0.20495,-1.8,-5.1,23.46
4.5356,-4.6037,-9.0984,-0.073304,-0.95264,-0.049786,-1.74,-5.04,23.34
1.5663,-0.85808,-8.8396,-0.045204,-0.85552,-0.22999,-1.62,-5.16,23.52
1.5936,1.7706,-7.6002,-0.16127,0.39645,-0.42608,-1.38,-5.28,23.76
7.4912,-2.8467,-9.2074,-0.3766,0.21961,-0.38362,-0.9,-5.4,24.0
4.4266,-0.10896,-8.6081,-0.052229,-0.45968,-0.43921,-0.84,-5.64,24.0
3.4732,0.027241,-11.754,-0.050091,-0.59132,-0.281,-0.18,-5.82,24.36
3.0646,-0.64016,-8.826,-0.23305,-0.24954,-0.3769,-0.18,-5.88,24.36
1.4029,3.0237,-7.7636,-0.11301,-0.42822,-0.42699,0.18,-6.0,24.48
3.9227,2.6832,-9.0575,-0.14142,0.089186,-0.39859,0.48,-6.06,24.54
6.1836,-3.0373,-9.0575,0.029627,-0.51282,-0.39309,0.78,-6.24,24.66
0.91256,1.3484,-7.7091,0.13622,-0.78557,-0.4835,1.08,-6.24,24.66
2.9692,1.3076,-9.2618,0.08827,0.061392,-0.31582,1.38,-6.18,24.96
2.7104,0.35413,-9.6432,0.034514,-0.71899,-0.43035,1.98,-6.36,25.56
3.0237,2.6423,-5.6388,0.24221,-0.080329,-0.42302,2.22,-6.42,25.86
4.5356,-0.42223,-7.246,0.4893,-0.28466,-0.33048,2.34,-6.48,26.1
8.2812,-3.0782,-10.706,0.30696,-0.55833,-0.64782,2.58,-6.36,26.4
3.3778,-0.095342,-7.4503,0.41142,-0.88514,-0.51374,3.12,-6.24,27.06
3.8001,-0.5993,-8.8941,0.15638,-0.062308,-0.45876,3.3,-6.3,27.3
2.6968,-0.70826,-7.8862,0.20739,-0.53298,-0.51282,3.72,-6.12,27.84
3.1191,1.0351,-7.8045,0.15577,-0.13653,-0.60292,4.02,-6.18,28.2
6.4697,-3.2825,-9.9973,0.080634,0.15149,-0.56963,4.32,-6.18,28.38
-1.4301,0.14982,-7.4367,0.36499,-0.49786,-0.49724,5.04,-6.06,28.86
-1.4301,2.3836,-8.1858,0.16035,0.19151,-0.51068,5.28,-6.12,29.16
7.1915,-3.1191,-8.7851,-0.13164,0.70585,-0.22449,5.82,-6.06,29.46
-2.1248,1.4029,-6.6331,0.46945,-0.15577,-0.20036,6.18,-6.0,29.64
-1.2258,-0.24517,-6.7693,0.037568,0.76572,0.080634,6.36,-5.88,29.82
7.9679,-6.851,-10.106,-0.13256,0.86071,0.030543,6.6,-5.88,29.94
1.866,0.027241,-6.9328,0.33262,0.053451,-0.28894,7.02,-5.94,30.0
-0.98067,-1.2803,-6.851,0.37965,0.30757,0.13164,7.14,-5.94,29.88
7.5729,-6.1428,-10.61,-0.20831,0.80237,0.14508,7.26,-6.0,29.76
3.1463,-1.7706,-8.1722,0.097738,0.17226,0.082467,7.5,-6.0,29.4
-1.3893,-2.0567,-6.2109,0.12798,0.47953,0.18326,7.44,-5.88,29.04
-1.8251,-0.040861,-8.0224,0.17104,0.80146,0.39126,7.2,-5.82,28.98
9.0848,-4.6445,-8.6217,-0.23457,0.95967,0.12004,6.9,-5.7,28.32
0.58567,-1.362,-7.927,0.21472,0.47586,0.73059,6.78,-5.82,27.9
1.6344,-1.7706,-9.8748,-0.12553,0.55803,0.4218,6.42,-5.76,27.54
2.5606,-2.6696,-8.3765,-0.08827,0.56077,0.70219,5.82,-5.88,26.58
1.4029,1.8796,-9.5615,-0.12767,0.41417,0.63163,5.58,-6.06,26.1
6.5105,-1.2803,-10.964,-0.41325,0.70311,0.70341,5.34,-6.12,25.74
2.5879,-3.9499,-7.2052,-0.12156,0.27061,0.99205,4.56,-6.06,24.84
4.5356,-4.9442,-8.5127,-0.31887,0.14203,0.79351,4.14,-6.06,24.36
2.8875,-4.6582,-6.1564,-0.072082,0.93615,0.91691,3.84,-5.88,23.88
8.9622,0.50395,-12.64,-0.096822,0.16768,0.27489,3.06,-5.88,23.22
8.6081,-5.2575,-8.6898,-0.14661,0.39126,1.015,2.76,-5.94,22.92
1.5119,-0.62654,-8.4446,-0.24923,-0.063225,0.62064,2.58,-5.94,22.44
5.2575,-4.3721,-6.7148,-0.44654,0.69211,0.61025,1.92,-5.76,22.14
3.9771,-0.92618,-9.0303,-0.30146,0.30513,0.74281,1.44,-5.58,21.96
7.2596,-2.942,-9.9156,-0.39706,0.22297,0.46181,1.2,-5.58,21.72
2.547,-0.35413,-9.8203,-0.18173,0.0088575,0.79962,0.42,-5.46,21.48
4.8625,-0.8036,-10.896,-0.2364,0.2361,0.41478,0.12,-5.28,21.3
4.0452,-0.50395,-8.717,0.0094684,0.22663,0.69303,-0.24,-5.1,21.06
6.565,-2.7649,-8.717,-0.050396,0.25473,0.52993,-0.78,-5.1,20.88
5.5299,-3.8273,-7.3414,0.0045815,0.29047,0.53176,-1.02,-5.04,20.76
4.3177,-1.2258,-8.322,0.067501,-0.1124,0.52504,-1.44,-5.04,20.58
5.489,-2.4925,-10.256,0.021991,0.062919,0.48014,-1.92,-4.92,20.4
5.2847,-1.8251,-8.9077,-0.17562,-0.034514,0.32101,-2.22,-4.74,20.28
3.2553,-1.7162,-8.3901,-0.1295,-0.020464,0.66248,-2.46,-4.74,20.4
7.3686,-5.3256,-7.8181,-0.2978,0.20159,0.35125,-3.0,-4.8,20.1
4.8625,-3.0782,-7.9815,-0.22144,0.071166,0.49724,-3.18,-4.86,19.98
3.2825,-0.35413,-8.3765,-0.11515,-0.063225,0.56291,-3.42,-4.74,19.92
5.8567,-0.40861,-10.12,-0.20372,0.31704,0.40623,-3.78,-4.8,19.8
5.9112,0.027241,-9.398,-0.044593,-0.22571,0.49144,-4.02,-4.86,19.92
6.0611,-1.9886,-8.145,-0.044593,-0.31704,0.43494,-4.14,-4.86,20.04
5.2847,-1.9613,-8.4446,-0.032681,-0.33567,0.30482,-4.32,-4.74,20.22
4.5764,-1.4438,-8.8941,0.048564,-0.20861,0.27642,-4.38,-4.8,20.46
6.0338,-1.7979,-8.2812,-0.086132,-0.32437,0.21044,-4.32,-4.86,20.76
5.1213,-2.3836,-8.5944,-0.032987,-0.38546,0.098044,-4.5,-5.04,21.06
5.2166,-1.0624,-7.5457,-0.025962,-0.46884,0.089186,-4.5,-5.16,21.36
4.2768,-0.92618,-7.7364,-0.036041,-0.48472,0.11973,-4.56,-5.16,21.54
7.1915,-2.9965,-8.1586,-0.17043,-0.54245,-0.029932,-4.56,-5.28,21.66
3.6775,0.01362,-8.9486,0.12737,-0.60781,0.092852,-4.26,-5.16,22.32
6.3062,-2.8058,-8.3493,-0.039401,-0.47312,-0.19761,-4.32,-5.28,22.56
5.4481,-5.1757,-7.3686,-0.075136,-0.55558,-0.23213,-3.9,-5.4,23.28
4.0861,-1.4029,-7.5184,0.000305,-0.54886,-0.13592,-3.72,-5.46,23.46
4.985,-4.0997,-7.0145,-0.049175,-0.44074,-0.20556,-3.54,-5.46,23.7
4.0589,-3.6094,-7.355,0.000916,-0.19731,-0.2193,-3.36,-5.58,23.94
5.4209,-3.1735,-6.8102,-0.029627,-0.28527,-0.29688,-3.06,-5.64,24.48
4.1406,-4.5083,-7.1915,0.01069,-0.3488,-0.35033,-2.94,-5.7,24.6
4.0589,-1.9613,-8.8805,-0.036652,-0.26939,-0.43433,-2.7,-5.82,24.84
1.471,-3.9771,-5.9657,0.0045815,-0.34239,-0.28558,-2.22,-5.76,25.2
4.0861,-0.61292,-9.2482,-0.072082,0.14539,-0.54245,-2.04,-5.94,25.38
7.9679,-3.5549,-9.9429,-0.36713,0.22388,-0.90316,-1.8,-6.24,25.62
3.8954,-6.6604,-8.2539,-0.17104,-0.49205,-0.28619,-1.38,-6.3,25.8
0.5993,0.23155,-6.2109,0.077885,-0.065057,-0.60812,-1.02,-6.54,25.92
2.2746,1.866,-8.7715,0.14294,0.33017,-0.44074,-0.84,-6.6,25.92
7.5048,-4.3449,-9.221,-0.25809,0.76328,-0.93585,-0.6,-6.78,25.92
3.623,-4.0589,-6.7421,0.27245,-0.29688,-0.15333,-0.36,-6.96,25.8
2.7786,-2.6151,-7.5729,0.098655,-0.12981,-0.45143,-0.3,-7.2,25.74
3.3642,-4.9987,-7.7772,-0.081551,0.5003,-0.58979,-0.12,-7.38,25.62
4.3858,-3.4187,-7.464,0.089492,0.38729,-0.59498,0.18,-7.5,25.56
3.2416,-2.4517,-6.8647,0.15211,0.36682,-0.71838,0.24,-7.56,25.5
5.1894,-5.3937,-9.0303,-0.20189,0.2697,-0.74678,0.36,-7.74,25.08
1.8115,-2.6287,-7.4503,0.0045815,0.29077,-0.70188,0.54,-7.74,24.9
1.7298,-0.32689,-8.7851,-0.011301,0.19884,-0.64538,0.6,-7.68,24.72
4.2223,-4.4266,-8.1722,-0.19028,0.46823,-0.54825,0.72,-7.92,24.42
2.4789,-1.4982,-8.7443,-0.18295,0.29322,-0.30604,0.66,-7.86,24.18
7.1371,-2.6423,-9.0031,-0.40042,0.53237,-0.53603,0.66,-8.04,23.88
3.4459,-1.6072,-8.6353,-0.2813,0.42516,-0.24618,0.54,-7.98,23.4
3.3642,-0.31327,-8.8941,-0.37751,0.39859,-0.31521,0.66,-7.98,23.16
5.1621,-3.0237,-9.2482,-0.34361,0.45754,-0.10996,0.66,-7.86,22.92
3.2689,-0.72188,-8.9894,-0.25717,0.31826,-0.22877,0.6,-8.04,22.38
2.1929,0.83084,-8.2131,-0.17104,0.22816,-0.22205,0.42,-8.04,22.02
5.2711,-1.7298,-9.1256,-0.31185,0.5565,-0.12981,0.42,-8.04,21.66
5.3664,0.70826,-9.8066,-0.28253,0.28222,-0.2361,0.18,-8.1,21.24
7.0281,-2.0839,-9.5751,-0.3259,0.31276,-0.13439,0.18,-8.16,20.88
6.1836,-2.1793,-7.9951,-0.3708,0.36377,-0.2361,0.12,-8.22,20.46
2.8058,-0.47671,-7.8181,-0.19303,-0.054978,-0.146,-0.06,-8.16,20.1
4.7671,0.068102,-8.4719,-0.28008,0.41661,0.064446,-0.3,-8.16,19.68
8.4991,-1.7025,-10.065,-0.37507,0.41814,0.1011,-0.24,-8.22,19.26
7.6683,-0.91256,-8.9213,-0.19456,0.10629,0.0033598,-0.36,-8.4,19.02
5.6388,-2.1112,-7.5184,-0.21564,0.30391,0.097128,-0.78,-8.52,18.48
6.4152,-2.3155,-7.8453,-0.21472,0.17807,0.1631,-1.02,-8.7,18.24
3.4459,0.58567,-7.75,-0.087965,-0.09499,0.16432,-1.2,-8.7,17.88
5.7342,-0.40861,-9.3436,-0.16738,0.19273,0.37263,-1.44,-8.7,17.52
6.674,-0.19068,-8.8941,-0.010079,0.40653,0.17685,-1.68,-8.82,17.4
6.7966,-0.92618,-10.025,-0.07422,-0.3598,0.4328,-1.86,-8.88,17.22
4.6173,-2.2882,-7.75,0.03879,-0.11057,0.23763,-2.16,-8.82,16.68
-1.0351,2.6015,-8.7987,0.000611,-1.0217,0.48014,-2.28,-8.82,16.74
3.7184,-1.185,-9.1665,-0.2303,-0.10171,0.33811,-2.28,-8.82,16.68
6.1564,1.9886,-10.379,-0.047342,-0.12126,0.40134,-2.4,-8.82,16.26
7.3686,-2.1793,-8.7851,-0.083994,-0.2645,0.42089,-2.52,-8.88,16.26
5.2438,-2.5879,-6.7557,0.094073,0.0076358,0.48106,-2.64,-8.76,16.08
6.7421,-3.3642,-8.1041,-0.059559,-0.22755,0.35736,-2.58,-8.52,15.84
1.866,0.19068,-6.674,0.066279,-0.076053,0.40348,-2.34,-8.34,15.84
2.6423,1.8932,-10.243,-0.092852,-0.21869,0.38118,-2.34,-8.22,16.02
9.7249,-2.9556,-8.3493,-0.019548,0.17746,0.22388,-2.22,-8.04,15.84
1.9613,0.65378,-7.3277,0.16677,-0.5846,0.46395,-1.98,-7.92,15.78
4.0589,-2.1112,-7.8862,-0.044288,-0.07422,0.24923,-1.98,-7.8,15.72
4.2495,-1.0215,-7.8317,-0.0036652,-0.3656,0.33567,-1.62,-7.38,16.02
2.152,1.1577,-8.9894,0.026573,-0.5284,0.37293,-1.5,-7.26,15.96
6.4152,0.62654,-11.087,-0.054672,-0.33811,0.28741,-1.44,-7.14,16.14
2.8739,-1.7434,-7.8045,-0.0085521,-0.62797,0.5507,-1.26,-6.84,16.5
2.0975,-0.25879,-8.145,-0.013744,-0.60018,0.35613,-1.14,-6.42,16.8
3.8682,0.36775,-7.6819,0.07422,-0.28314,0.3934,-1.02,-6.24,17.1
8.7715,-4.7944,-9.6977,-0.07025,-0.7984,0.36346,-0.9,-5.94,17.4
3.8954,-2.8058,-7.7227,0.14111,-0.70616,0.57666,-0.9,-5.76,17.7
-0.47671,1.4438,-9.2482,-0.092546,-0.73701,0.26695,-0.66,-5.7,17.82
4.0997,-0.6674,-8.322,0.11057,-0.54275,0.44593,-0.24,-5.46,18.66
2.0567,2.7377,-8.5944,0.29871,-0.8375,0.48778,-0.18,-5.28,19.02
7.8589,-3.228,-8.3493,0.18601,-0.27245,0.24099,0.12,-5.28,19.44
6.4697,-3.5822,-7.9951,0.15424,-0.79596,0.17318,0.24,-5.1,19.92
0.70826,0.38137,-7.4367,0.46029,-0.7758,0.38118,0.48,-4.98,20.46
3.4187,1.1986,-9.4389,0.36591,-0.53329,0.23793,0.66,-4.86,20.64
2.152,-1.7298,-7.2052,0.21808,-0.59407,0.17532,1.14,-4.5,21.48
2.4108,1.1441,-8.5127,0.43707,-0.77244,0.50549,1.44,-4.44,21.78
6.8102,-4.0861,-8.7306,-0.055283,-0.061697,-0.20922,1.68,-4.44,22.2
2.9011,-0.47671,-9.4389,0.37415,-0.31857,0.45571,2.28,-4.44,23.16
7.1507,-0.40861,-10.651,-0.17746,-0.097738,-0.31643,2.46,-4.38,23.7
4.2904,-7.641,-5.8976,0.33048,-0.57116,0.48381,2.7,-4.2,24.3
2.9829,0.85808,-9.6704,0.40195,-0.3937,-0.032987,3.12,-4.14,24.96
5.6661,-1.1169,-8.1177,0.0048869,0.19273,-0.5116,3.3,-4.14,25.26
4.127,-4.6718,-8.036,0.24618,-0.21136,0.10812,3.54,-4.08,25.74
4.0861,-4.1951,-6.3471,0.078496,-0.25504,-0.4102,3.78,-4.2,26.58
1.076,-3.6094,-5.598,0.37721,-0.18448,0.29077,3.9,-4.26,26.94
4.9033,-3.5413,-10.569,0.046426,-0.10293,-0.019853,3.9,-4.38,27.24
2.547,-3.5277,-7.5048,0.15302,0.037874,0.0064141,4.14,-4.62,27.66
1.1986,0.47671,-7.4503,0.31551,-0.029322,0.13408,4.2,-4.56,28.08
4.699,-7.7364,-8.7579,-0.30879,0.2645,-0.31918,4.2,-4.62,28.62
1.471,-4.6582,-6.279,0.23946,0.34697,-0.019242,4.26,-4.62,28.86
1.4029,2.4517,-7.6819,0.51862,0.65546,0.14264,4.2,-4.68,29.04
5.6933,-7.5865,-7.7636,-0.13195,0.3036,-0.32376,4.02,-4.92,29.1
2.0839,-4.7944,-9.5751,0.30116,0.063835,0.23793,3.96,-4.98,29.22
4.127,-1.0351,-9.1529,0.014661,0.051924,-0.20097,3.96,-4.98,29.4
2.0839,-5.2166,-8.8124,0.093157,0.25962,0.058948,3.78,-5.04,29.46
6.3198,-4.6854,-9.4934,-0.20311,0.71899,-0.27886,3.72,-4.86,29.58
3.8001,-6.8783,-5.8704,0.20617,0.1014,0.069639,3.6,-4.86,29.58
3.623,3.9499,-9.0848,0.24343,0.48106,0.20953,3.42,-4.98,29.64
5.7886,-2.3836,-8.1041,-0.13531,0.86376,-0.2813,3.12,-5.1,29.64
6.6331,-6.5786,-8.7987,-0.23549,0.057727,-0.0562,2.76,-5.34,29.46
1.4438,1.1441,-7.4776,0.08827,-0.0058032,-0.01741,2.52,-5.64,28.98
2.4653,2.9965,-7.5729,0.15882,0.48655,-0.042761,2.28,-5.7,28.8
8.0769,-5.6252,-11.237,-0.52931,0.27825,-0.43738,2.1,-5.76,28.32
0.25879,-2.5742,-6.0338,-0.2251,-0.065668,-0.29871,1.74,-5.94,27.84
1.5391,3.9635,-7.9815,0.17501,0.45601,-0.11026,1.44,-6.0,27.66
9.2482,-2.6968,-10.842,-0.6692,0.87079,-0.86407,1.2,-6.12,27.36
2.9011,-6.674,-7.5184,-0.041233,-0.28711,0.14508,0.84,-6.18,26.76
-0.10896,2.1929,-6.0883,0.4441,-0.45509,0.17074,0.6,-6.3,26.52
5.598,-4.9987,-12.313,-0.24954,1.0052,-0.4102,0.24,-6.54,25.98
8.1722,-10.297,-8.1313,-0.37049,-0.16188,-0.20189,0.24,-6.54,25.38
-0.50395,0.98067,-5.5435,0.35919,-0.88667,0.43035,0.06,-6.54,25.08
0.65378,4.3449,-6.7012,0.31796,-0.29719,-0.14691,0.06,-6.54,24.96
10.665,-6.4833,-10.801,-0.74526,0.81856,-0.64263,-0.18,-6.54,24.78
1.5119,-5.9385,-6.3335,0.1744,-0.62339,0.32254,-0.18,-6.6,24.18
-0.39499,4.4947,-7.927,0.35186,-0.32315,-0.76328,-0.18,-6.54,24.18
8.9622,-7.3277,-9.4117,-0.55283,1.1545,-0.96425,-0.3,-6.6,23.88
5.094,-4.9714,-9.0031,-0.078802,-0.26053,-0.054978,-0.3,-6.72,23.64
3.7728,-1.6344,-7.8589,-0.11057,-0.5003,-0.42791,-0.36,-6.72,23.22
1.866,-2.6015,-6.3062,-0.24221,0.43035,-0.37018,-0.36,-6.78,23.04
6.0883,-0.8717,-9.2618,-0.41081,0.45937,-0.37965,-0.3,-6.96,22.5
9.5479,-4.8352,-9.0575,-0.28833,-0.22205,-0.27519,-0.3,-7.02,22.2
5.4073,-2.1793,-9.7249,-0.25229,-0.43921,-0.15913,-0.18,-7.02,22.08
4.6037,-3.1735,-6.8919,-0.22449,-0.13103,-0.43891,-0.12,-6.96,22.02
2.5061,-2.9148,-8.6081,-0.080634,-0.10599,-0.2025,-0.12,-7.02,21.72
5.5299,-0.78998,-9.8066,-0.3708,-0.072693,-0.52779,0.06,-6.96,21.6
3.4459,-1.4846,-7.9407,0.087965,-0.11759,-0.2364,-0.12,-6.96,21.66
3.3506,-1.8796,-8.5672,-0.029627,-0.32773,-0.21686,0.12,-7.02,21.54
6.4697,0.47671,-9.8748,-0.1799,0.039706,-0.26084,0.18,-7.02,21.54
7.2869,-1.5391,-8.3765,-0.095295,-0.14111,-0.30146,0.06,-6.96,21.48
4.4266,-0.36775,-7.75,0.18448,-0.42547,-0.36988,0.12,-6.9,21.78
5.884,-3.2553,-9.0303,0.078802,-0.27794,-0.084299,0.12,-6.9,22.26
5.7614,-2.9556,-9.3436,-0.059865,-0.072693,-0.19059,0.24,-6.78,22.38
3.8546,2.0022,-6.8783,0.1408,-0.38485,-0.19761,0.24,-6.72,22.74
6.2109,-5.8159,-6.8919,0.23946,-0.22144,-0.1463,0.18,-6.48,23.28
4.1542,-0.040861,-10.474,0.079107,-0.50671,-0.12767,0.24,-6.36,23.58
5.6116,-1.1169,-9.6432,0.016188,0.19884,-0.25962,0.24,-6.24,23.94
3.9363,2.152,-8.7306,0.13164,-0.19731,0.047342,0.18,-6.0,24.48
8.3901,-3.9363,-7.4776,-0.14019,0.34361,-0.2416,0.24,-5.88,24.54
3.8818,-1.7979,-7.3141,0.27489,-0.58063,0.035125,0.12,-5.88,24.72
1.6344,1.6208,-8.4719,0.17654,0.053145,0.031765,0.3,-5.52,25.08
8.145,-5.38,-9.9565,-0.018326,0.18845,0.15088,0.54,-5.4,25.2
9.2891,-5.5843,-11.114,-0.16829,-0.16554,0.014661,0.78,-5.28,25.14
0.40861,0.89894,-6.9191,0.19426,-0.63713,0.083689,1.14,-5.22,25.32
5.775,-5.7614,-7.7091,-0.18479,0.29749,0.24099,1.32,-5.16,25.32
7.7091,-3.051,-10.256,-0.10232,-0.36866,-0.071166,1.5,-5.1,25.2
2.7377,-0.76274,-8.322,0.13897,-0.35858,0.13103,1.86,-5.1,25.14
7.2869,-4.5083,-8.5808,-0.0027489,0.13073,-0.045204,2.22,-5.1,25.02
2.3427,1.8251,-7.641,0.39309,-0.54398,0.051007,2.46,-5.1,24.84
7.2733,0.70826,-10.065,0.13439,0.0058032,0.17104,3.06,-5.22,24.84
11.673,-7.1098,-10.229,-0.16921,-0.1182,0.076053,3.24,-5.22,24.84
2.0839,-1.8796,-5.5162,0.37354,-0.61148,0.19578,3.6,-5.1,24.84
2.3972,2.9556,-11.278,0.32559,-0.34789,0.28833,4.02,-5.22,25.08
16.508,-11.25,-10.651,-0.13256,0.18937,-0.15211,4.26,-5.28,25.08
4.699,-3.8409,-6.8647,0.40836,-1.0855,0.38759,4.44,-5.46,25.14
0.65378,-0.12258,-9.2755,0.13286,-0.10629,0.067806,4.92,-5.58,25.26
10.787,-7.0553,-10.706,-0.31551,0.20464,-0.088575,4.92,-5.64,25.38
4.0997,-2.3427,-8.7715,0.11057,-0.57421,0.31643,5.22,-5.76,25.38
-0.7355,2.9829,-5.9657,0.2697,0.095906,0.5226,5.4,-5.94,25.5
13.266,-10.42,-11.782,-0.29138,-0.15149,0.31734,5.64,-5.82,25.62
0.49033,-2.6423,-4.6445,-0.10934,-0.48136,0.0076358,5.88,-5.88,25.62
3.9635,2.5742,-10.243,0.46914,-0.66768,0.63469,5.88,-5.94,25.8
9.7794,-6.0066,-10.256,-0.20036,0.40867,-0.208,6.12,-6.0,25.68
-2.0703,4.7399,-8.6898,0.66248,-0.67409,0.46884,6.18,-6.12,25.98
4.304,3.8954,-11.945,0.16005,0.35003,-0.24893,6.18,-6.36,26.04
3.0373,-6.5378,-5.6661,-0.19303,0.26786,-0.088575,6.42,-6.24,26.28
2.6696,2.6015,-10.365,0.53451,-0.71593,0.63774,6.54,-6.12,26.58
5.993,-0.96704,-9.221,-0.1066,-0.086132,-0.27306,6.6,-6.06,26.7
6.8102,-2.6832,-12.612,-0.1182,-0.53176,0.28436,6.84,-6.06,27.06
1.8387,-4.1814,-5.489,-0.0076358,-0.32834,0.0033598,6.72,-6.06,27.3
-0.20431,-1.185,-11.836,0.25656,-0.097433,0.60628,6.72,-6.06,27.6
2.547,-5.203,-5.6933,0.067501,0.70188,-0.075747,6.54,-6.36,28.08
2.2065,0.24517,-8.6489,0.58826,0.11942,0.72815,6.48,-6.36,28.56
6.6195,0.19068,-11.182,0.2587,0.22113,0.15455,6.6,-6.54,28.74
1.9341,-3.3506,-6.2926,0.37018,0.26084,0.19884,6.48,-6.84,29.4
1.9341,3.0918,-8.322,0.84391,-0.32559,0.26909,6.42,-6.9,29.58
4.8625,-1.8796,-7.8453,-0.12278,0.20525,-0.29566,6.24,-7.02,29.94
3.2825,-4.9033,-8.5127,0.24129,0.027184,0.25107,6.24,-7.2,30.18
4.3994,-1.471,-8.4991,0.24587,-0.10537,-0.0064141,6.12,-7.26,30.24
2.2882,-2.0022,-8.4719,0.092546,0.22205,-0.12828,5.94,-7.38,30.3
5.3664,-4.8897,-9.5479,-0.29291,0.11942,-0.36041,5.58,-7.5,30.6
2.942,-5.1621,-6.1836,-0.14936,0.076664,-0.34606,5.46,-7.44,30.66
1.0624,0.8036,-8.54,0.14386,0.28986,0.08094,5.34,-7.56,30.72
7.1098,-8.3084,-7.1507,-0.49175,0.42241,-0.50488,5.22,-7.74,30.66
1.6072,-2.5198,-7.927,-0.009163,0.25198,-0.071166,5.16,-7.92,30.42
2.5742,2.9965,-8.3629,0.036041,0.24709,-0.34606,4.92,-8.1,30.42
5.9521,-8.8941,-10.406,-0.44899,0.2584,-0.078802,4.62,-8.1,30.36
2.2474,-1.1986,-9.0031,0.25595,-0.0281,-0.034514,4.56,-8.16,30.36
2.4653,3.6503,-6.3607,0.19059,0.33537,-0.17135,4.44,-8.22,30.48
7.1507,-7.1098,-11.727,-0.27611,0.3989,-0.23885,4.08,-8.4,30.24
7.8589,-4.0589,-12.122,-0.23121,-0.029627,-0.41875,4.08,-8.52,30.06
1.1577,-0.96704,-6.5922,0.071166,-0.55192,-0.13683,4.02,-8.52,30.0
1.8524,1.4846,-8.9622,0.10171,0.5623,-0.18204,3.66,-8.7,29.76
10.842,-4.3449,-11.414,-0.49633,0.75228,-0.62766,3.54,-8.88,29.52
5.1485,-5.3528,-7.2052,-0.10018,-0.25626,-0.15455,3.48,-9.0,29.28
5.2438,-0.68102,-8.0769,-0.14386,-0.22663,-0.48381,3.12,-9.06,29.22
3.9635,-5.203,-8.4719,-0.22113,0.28833,-0.11973,2.94,-9.0,29.22
5.3256,-3.2144,-9.8611,-0.074526,-0.1573,-0.30177,3.06,-9.0,29.16
4.9306,-4.8897,-6.9872,-0.13989,-0.22907,-0.27947,3.0,-9.0,28.92
0.92618,-4.522,-7.9543,0.069639,-0.35003,0.075747,3.06,-8.94,28.74
4.7399,-0.054481,-9.7113,-0.01069,-0.072388,-0.39065,3.12,-8.94,28.56
5.3119,-2.7786,-8.7306,0.069028,0.05681,-0.22633,3.18,-9.06,28.44
6.7421,-4.4811,-9.0303,-0.071166,-0.072998,-0.47098,3.06,-9.06,28.68
3.8682,-5.4073,-8.1586,-0.0076358,-0.17165,-0.34208,3.06,-9.24,28.56
2.4244,-0.89894,-9.1801,-0.022602,0.032681,-0.29688,3.3,-9.06,28.56
6.4288,-5.6661,-8.2539,-0.2529,0.29138,-0.52993,3.42,-8.82,28.62
2.3018,-4.7944,-7.0417,-0.072998,0.055283,-0.32895,3.66,-8.64,28.68
4.5628,-3.7456,-8.8805,-0.1292,-0.14325,-0.46181,4.02,-8.22,28.74
4.4947,-2.4244,-8.9622,-0.19945,-0.17593,-0.53756,4.14,-8.04,28.74
3.8273,-1.3893,-8.9349,-0.13561,-0.23182,-0.51191,4.08,-7.8,28.62
2.7241,-3.3778,-8.2948,0.0015272,-0.040928,-0.30879,4.02,-7.56,28.98
4.2223,-1.5119,-10.542,-0.19334,-0.15608,-0.23091,4.02,-7.44,29.04
4.6037,-0.98067,-10.229,-0.11026,0.19975,-0.19609,4.02,-7.2,29.1
6.0066,-1.8387,-8.9213,0.015882,-0.056505,-0.10507,4.08,-6.72,29.22
6.1019,-4.3177,-7.7091,0.083689,0.072998,-0.079718,4.08,-6.66,29.28
3.3506,-2.8603,-9.1801,-0.029016,-0.18204,-0.1909,3.96,-6.3,29.46
4.3177,-0.92618,-10.719,-0.14416,0.13867,-0.17013,3.84,-6.06,29.52
4.7671,-2.3836,-8.3901,-0.11515,0.093768,-0.19548,3.84,-6.06,29.64
1.7298,1.5119,-7.9407,0.12095,-0.43585,-0.31368,3.6,-6.0,29.82
8.0088,-4.699,-9.4798,-0.066584,-0.053451,-0.23732,3.42,-5.88,29.94
4.2495,-4.413,-9.8066,0.035125,-0.58032,-0.25351,3.24,-5.82,30.0
3.051,2.0022,-9.1256,-0.069028,0.035736,-0.43585,3.3,-5.76,30.12
6.4016,-3.2553,-8.8124,-0.047037,-0.091935,-0.16677,3.6,-5.7,30.12
5.3937,-1.362,-8.6489,-0.15455,-0.22633,-0.38454,3.6,-5.64,30.06
1.3484,1.2803,-7.4776,0.036041,-0.40256,-0.21289,3.6,-5.64,30.06
4.7671,-1.7162,-8.8668,-0.24465,0.12492,-0.14813,3.72,-5.58,30.06
2.2201,0.35413,-9.3163,-0.061087,-0.52076,-0.15272,3.78,-5.46,30.0
4.2904,-2.0294,-8.2131,-0.15699,-0.1182,-0.23396,4.02,-5.46,29.88
2.6015,1.6617,-10.488,-0.014966,-0.21319,-0.086437,4.08,-5.58,29.82
2.6015,1.6617,-10.488,-0.12492,0.070555,-0.21777,4.32,-5.58,29.94
4.0044,-1.8251,-9.0984,0.045815,-0.44654,-0.23915,4.86,-5.58,29.88
4.2223,-2.6151,-7.6683,0.011912,-0.29047,-0.2529,5.22,-5.7,29.82
4.2632,-3.6094,-7.7908,0.069944,-0.31612,-0.10415,5.7,-5.64,29.94
2.7649,0.027241,-10.202,-0.029627,-0.15363,-0.16066,6.12,-5.64,29.88
5.38,1.6344,-10.515,-0.067195,0.07422,-0.18357,6.36,-5.7,29.76
3.8954,-4.3721,-7.3414,0.14813,-0.38454,0.15119,7.2,-5.46,29.88
1.4438,-1.9886,-9.2891,0.010385,-0.26542,0.039095,7.8,-5.52,29.94
5.5435,-0.43585,-8.9486,-0.10293,0.074526,-0.16096,8.52,-5.7,29.88
1.4846,1.362,-7.6002,0.19151,0.018021,0.095906,9.06,-5.76,29.7
7.2869,-1.8251,-11.25,-0.022907,0.064446,0.043982,9.48,-5.52,29.52
0.9398,-4.1133,-8.1586,0.40164,-0.15027,0.54336,9.9,-5.46,29.34
3.2825,-4.7399,-7.4776,-0.018021,-0.20769,-0.002138,10.14,-5.64,29.34
0.6674,0.46309,-8.9349,0.25351,0.44502,0.4386,10.26,-5.46,29.28
4.4811,0.17706,-11.114,0.046731,0.059254,0.053145,10.2,-5.46,29.4
4.413,-0.35413,-8.6898,0.13561,0.29596,0.26878,10.02,-5.7,29.28
5.2575,-5.2575,-8.3493,0.10232,0.0094684,0.34483,9.9,-5.7,29.28
3.6775,-5.4754,-7.8317,0.12401,-0.11576,0.38393,9.9,-5.7,29.28
0.88532,1.7025,-8.7851,0.25229,0.098044,0.46701,9.78,-5.64,29.46
8.826,-2.3972,-10.569,-0.1069,0.3036,0.091019,9.72,-5.7,29.58
4.018,-3.0646,-7.464,0.2248,-0.17257,0.5287,9.66,-5.7,29.64
4.8761,-4.4402,-6.7829,-0.027794,-0.013744,0.12248,9.6,-5.7,29.82
0.6674,-1.3893,-6.7421,0.33231,-0.047037,0.50855,9.48,-5.76,29.58
2.6015,1.7162,-9.8203,0.28253,0.041539,0.2587,9.48,-5.82,29.76
9.4389,-5.4209,-9.1937,0.029322,0.22052,0.1408,9.42,-5.82,29.7
2.3972,-4.7671,-6.4697,0.32987,-0.21838,0.43677,9.42,-5.82,29.88
0.47671,0.20431,-8.7851,-0.090103,0.3091,-0.13195,9.42,-5.94,29.76
2.547,-2.4517,-8.322,0.1463,0.20311,0.35247,9.54,-6.0,29.64
5.4481,-1.6753,-10.065,-0.19456,0.40378,-0.14752,9.36,-5.82,29.82
5.3664,-5.1213,-7.8453,-0.038485,0.42944,0.12889,9.36,-5.94,29.88
4.127,-0.38137,-9.4798,0.078802,0.11851,0.06017,9.12,-6.18,29.88
4.522,-3.0237,-7.5184,0.046426,0.43066,0.11148,9.06,-6.3,30.06
4.6309,-2.3972,-10.515,0.15547,0.0030543,0.17043,9.0,-6.66,30.24
4.1133,-2.9148,-8.8124,0.03146,0.13836,-0.061087,8.82,-6.78,30.3
1.8387,-0.29965,-8.2131,0.30574,0.016493,0.20036,8.64,-7.02,30.36
5.9112,-3.7047,-9.3299,0.055589,0.43646,-0.034514,8.1,-7.08,30.72
6.3198,-5.0668,-8.0496,-0.03879,0.30482,-0.026573,7.8,-7.08,30.72
3.3506,-3.6775,-7.2324,0.27428,-0.15485,0.19273,7.62,-7.14,30.72
3.1054,-2.2201,-9.2482,0.11973,0.30146,-0.0064141,7.2,-7.32,31.14
5.0395,-1.3757,-10.297,-0.1182,0.27642,0.055589,7.02,-7.32,31.2
4.3585,-5.1757,-7.8453,0.029322,-0.11759,0.17868,6.72,-7.5,31.2
3.2144,-1.3757,-8.0905,0.090103,-0.069944,0.13011,6.36,-7.56,31.26
4.5764,-4.6854,-8.431,-0.13347,0.27428,0.043066,6.24,-7.56,31.26
4.3449,-2.9829,-9.1256,-0.030238,0.0015272,-0.058032,6.12,-7.62,31.2
4.2904,-2.5061,-8.3629,-0.022297,0.14752,-0.045204,5.64,-7.5,31.26
5.3528,-3.5413,-8.9486,-0.11668,0.10476,-0.1689,5.58,-7.44,31.2
4.4539,-2.6015,-7.8045,-0.066584,0.066279,-0.15027,5.58,-7.38,31.02
4.5492,-2.1384,-7.8998,0.026267,0.27122,-0.12828,5.64,-7.44,30.66
5.3937,-2.8739,-9.0167,-0.061087,0.30818,-0.18631,5.64,-7.5,30.66
5.7886,-3.6094,-9.2618,-0.15149,0.01405,-0.21075,5.64,-7.74,30.54
2.4517,-2.2201,-7.3141,-0.075136,0.013439,-0.15272,5.58,-7.86,30.12
3.0646,-0.57205,-8.1177,-0.052229,0.30329,-0.14691,5.64,-7.92,30.06
5.4754,-2.2337,-8.0632,-0.15974,0.38515,-0.20831,5.76,-7.92,29.88
4.7944,-4.1814,-8.0632,-0.045815,0.051007,-0.082161,5.58,-7.92,29.46
3.7184,-2.9965,-7.75,-0.028711,0.14783,-0.18692,5.52,-7.98,29.46
4.7263,-3.4596,-8.8124,-0.046731,0.17898,-0.19578,5.52,-7.92,29.34
4.7126,-1.8524,-9.221,-0.067195,0.2364,-0.20403,5.52,-8.16,28.98
5.0259,-4.3177,-8.4719,-0.12401,0.24709,-0.39309,5.46,-8.16,28.74
4.4266,-4.3994,-8.54,-0.076358,0.15241,-0.20739,5.4,-8.16,28.56
2.2882,-2.438,-7.7636,-0.080023,0.34636,-0.25595,5.22,-8.22,28.32
3.337,-0.95342,-9.4525,-0.17837,0.44715,-0.28253,5.1,-8.28,28.14
5.9657,-1.8932,-9.8884,-0.34789,0.29322,-0.42761,5.04,-8.22,27.9
7.3141,-6.0883,-7.8045,-0.19639,-0.12156,-0.22327,4.98,-8.22,27.72
-0.054481,-0.49033,-7.927,-0.0036652,-0.14875,-0.093768,4.68,-8.1,27.3
5.8023,-4.5083,-10.038,-0.36744,0.42547,-0.26389,4.74,-8.1,27.12
3.5685,-0.36775,-9.6432,-0.42791,0.26145,-0.20769,4.68,-8.22,26.82
2.0022,1.6072,-8.4991,-0.2868,-0.0082467,-0.34208,4.56,-8.22,26.58
5.9657,-2.3155,-8.9622,-0.35125,0.46976,-0.16982,4.38,-8.28,26.46
5.4754,-0.78998,-10.297,-0.32315,-0.17471,-0.029016,4.26,-8.28,25.92
3.8001,0.31327,-8.8124,-0.28558,-0.27092,-0.062614,4.14,-8.34,25.8
4.0316,-1.1169,-9.4117,-0.3149,0.1182,-0.0094684,4.02,-8.34,25.62
4.9033,-0.53119,-8.7715,-0.29841,0.075747,-0.15363,3.9,-8.52,25.44
5.9249,-3.0237,-8.9486,-0.12309,-0.20036,-0.023213,3.9,-8.58,25.32
6.7012,-3.6094,-8.4719,-0.22297,-0.058338,-0.20678,3.78,-8.58,25.32
4.7263,-0.58567,-9.3299,-0.19303,-0.32406,-0.11484,3.66,-8.76,25.32
3.3097,0.84446,-8.4582,-0.069028,-0.010996,-0.21869,3.6,-8.82,25.2
5.993,-1.1577,-7.5729,0.0033598,-0.17654,-0.12156,3.54,-8.82,25.32
8.2812,-6.1155,-9.4798,-0.13286,-0.31368,-0.16157,3.54,-8.82,25.32
4.8216,-0.99429,-9.6296,-0.051924,-0.5846,-0.26084,3.6,-8.88,25.32
2.7649,1.3212,-6.6331,0.030543,-0.39828,-0.27122,3.72,-8.88,25.38
4.9987,-1.362,-10.079,-0.11362,-0.29291,-0.038179,3.96,-8.88,25.56
5.1894,0.14982,-9.5479,-0.17379,-0.35186,-0.15608,4.02,-8.94,25.74
2.5742,-1.4982,-6.7421,0.07422,-0.30849,-0.010079,4.14,-9.12,25.98
6.5378,-2.9148,-8.9213,-0.15149,-0.057727,-0.048258,4.5,-9.12,26.1
7.5729,-3.0237,-8.826,-0.18082,-0.14936,-0.079718,4.86,-9.24,26.16
1.3076,0.27241,-9.1801,0.099876,-0.62705,0.0045815,5.22,-9.06,26.22
5.2166,-1.2803,-9.507,-0.1127,0.076053,0.054978,5.82,-9.06,26.4
5.4754,-0.89894,-8.5127,0.033598,-0.2697,-0.0097738,6.06,-9.12,26.4
1.8387,-1.1577,-7.4095,0.17593,-0.3207,0.2364,6.24,-9.18,26.4
5.3119,-3.4732,-9.0575,-0.089797,0.12889,0.15882,6.96,-9.12,26.46
2.1248,1.0079,-9.0712,-0.037568,-0.14203,0.12126,7.26,-9.18,26.64
3.0237,1.185,-8.1995,0.037874,0.35094,0.15547,7.56,-9.18,26.52
5.3119,-2.0294,-9.2074,0.10537,0.024129,0.22938,8.1,-9.3,26.52
3.2553,-0.12258,-9.8748,0.071471,-0.23152,0.31062,8.4,-9.36,26.52
4.7535,-2.7377,-7.5457,0.050091,0.019853,0.19273,8.64,-9.3,26.52
4.8488,-1.8115,-10.215,0.14722,-0.24221,0.22633,9.24,-9.24,26.34
3.4051,-2.2337,-8.3357,0.12981,-0.23305,0.4105,9.24,-9.12,26.4
1.8115,-0.98067,-8.8941,0.20525,-0.42028,0.49847,9.3,-9.24,26.4
3.9227,-3.0237,-8.3629,0.046426,-0.14447,0.31398,9.66,-9.18,26.46
1.2122,0.040861,-8.8396,0.17623,-0.33567,0.40592,9.9,-9.18,26.64
5.8704,-1.4574,-10.161,-0.013134,-0.10415,0.14264,10.2,-9.24,26.7
2.9284,-0.10896,-8.5127,0.13531,-0.28039,0.28894,10.26,-9.24,26.64
4.7944,-0.57205,-9.4798,0.10904,-0.24832,0.13836,10.32,-9.18,26.64
6.3879,-2.9284,-8.4446,0.13836,-0.30421,0.16188,10.5,-9.18,26.82
1.6481,-0.19068,-8.54,0.22205,-0.43738,0.32345,10.74,-9.06,27.12
6.565,-0.89894,-11.387,-0.1237,-0.2025,0.012217,10.98,-9.12,27.3
2.7649,-3.4187,-7.6002,0.14844,-0.36591,0.31276,10.98,-9.06,27.42
5.2575,0.14982,-10.42,0.15272,-0.3091,0.055283,11.22,-9.3,28.02
7.4912,-3.1327,-8.8668,0.031154,0.11026,0.069333,11.46,-9.36,28.14
2.6696,-2.9284,-7.4776,0.2251,-0.25931,0.49755,11.82,-9.48,28.32
5.775,-3.5004,-7.3686,-0.050091,0.13836,-0.16432,12.12,-9.78,28.86
2.8194,-4.2223,-7.4776,0.3094,-0.16371,0.38515,12.24,-9.96,28.98
4.0997,-1.7979,-8.54,0.13592,-0.016188,-0.063835,12.3,-9.9,29.22
2.6423,-3.3642,-8.145,0.13103,0.1069,0.30055,12.78,-10.32,29.94
4.7399,-2.0839,-9.3844,0.018937,0.086437,-0.033598,13.02,-10.32,30.06
4.5492,-3.1872,-8.0224,0.13286,0.1463,0.087048,13.2,-10.32,30.24
2.152,-0.69464,-6.9464,0.27122,0.14172,0.15547,13.38,-10.5,30.3
4.1951,-4.7671,-8.7987,-0.037874,0.18295,-0.17318,13.62,-10.5,30.54
3.8273,-2.5742,-9.5479,0.013134,-0.076358,0.10293,13.98,-10.56,30.72
3.1463,-3.1191,-8.1041,0.033903,-0.06353,0.016493,14.28,-10.56,30.72
3.8818,-1.975,-8.7034,0.041539,0.37202,-0.079718,14.64,-10.26,30.84
4.9578,-2.5061,-9.3436,-0.0085521,0.099571,-0.067806,14.64,-10.14,30.84
5.6524,-4.8761,-8.8396,-0.094684,-0.068111,-0.14264,14.82,-9.9,30.78
1.362,0.054481,-8.4174,0.19853,0.10415,-0.010996,14.88,-9.48,30.66
4.9033,-0.91256,-10.188,-0.1741,0.27184,-0.30116,15.12,-9.42,30.54
4.1814,-4.6718,-8.1586,-0.039095,0.073609,-0.14569,15.12,-9.18,30.42
5.0259,0.21793,-8.9486,-0.12889,0.24312,-0.39676,15.18,-8.94,30.18
3.0782,-3.8954,-6.6331,-0.080634,0.20983,-0.30421,15.12,-8.82,30.18
3.8001,-2.438,-8.6081,0.16463,-0.018631,-0.020464,15.12,-8.58,30.18
6.279,-2.6696,-9.6841,-0.15791,0.12431,-0.35613,15.12,-8.34,30.0
3.3778,-0.7355,-8.717,0.068417,-0.002138,-0.22388,14.94,-7.92,29.64
5.4345,0.27241,-9.0303,-0.19212,0.43646,-0.61453,14.7,-7.62,29.52
4.3177,-4.6037,-8.4991,-0.018631,0.11545,-0.20067,14.4,-7.44,29.16
4.522,-3.6911,-9.9292,-0.10996,0.054672,-0.37843,14.22,-7.44,29.04
2.8467,-3.1872,-8.1313,0.092852,0.18295,-0.14447,14.1,-7.44,28.74
5.4618,0.42223,-9.3027,-0.002138,0.62278,-0.48289,13.86,-7.14,28.68
7.246,-6.0202,-7.8317,-0.16707,0.43738,-0.48961,13.44,-7.02,28.56
0.31327,-6.0883,-6.7829,0.25687,-0.19487,0.21258,13.26,-6.78,28.38
4.3313,-4.1814,-9.4117,-0.19426,0.6576,-0.48625,12.84,-6.48,28.14
4.8216,-4.7535,-8.4446,-0.061087,0.42577,-0.25412,12.72,-6.36,28.02
4.5764,-3.8001,-7.9951,-0.082161,0.32987,-0.34636,12.42,-6.3,27.66
2.2201,-3.732,-7.5457,0.046731,0.41478,-0.18204,11.76,-6.06,27.3
4.2632,-1.7298,-9.9292,-0.098349,0.51862,-0.34178,11.46,-6.0,27.12
5.2711,-3.337,-8.9894,-0.085216,0.40439,-0.20983,11.22,-6.0,27.18
3.7865,-3.1327,-9.7385,-0.12217,0.21808,-0.075136,10.62,-5.58,26.76
5.3528,-3.5413,-8.322,-0.24771,0.53695,-0.23885,10.32,-5.34,26.64
1.4438,-1.3348,-7.8862,-0.24343,0.42394,0.051313,9.9,-5.16,26.58
8.9077,-5.8159,-9.5887,-0.49877,0.7251,-0.15638,9.24,-5.1,25.98
5.5571,-3.2961,-9.6704,-0.26328,0.36011,-0.050396,9.12,-5.22,25.68
2.6968,0.29965,-9.8203,-0.29535,0.26267,-0.17776,8.76,-5.22,25.5
3.5958,-0.095342,-8.8941,-0.28069,0.67867,-0.043066,7.98,-5.34,25.08
7.2188,-0.84446,-10.474,-0.45051,0.31612,-0.054672,7.74,-5.22,24.78
8.0769,-3.1735,-8.8941,-0.38607,0.1967,-0.069028,7.32,-5.28,24.66
2.2882,0.19068,-8.7715,-0.2364,-0.16096,0.048869,6.54,-5.4,24.42
6.5786,-3.2144,-8.0769,-0.42883,0.47006,-0.034819,6.3,-5.4,24.24
4.9033,-0.10896,-8.8532,-0.24374,0.16616,-0.044593,6.06,-5.46,23.94
8.5672,-3.3642,-8.4855,-0.35247,0.089186,-0.047953,5.4,-5.82,23.76
4.699,-1.4982,-8.4719,-0.13867,-0.34117,0.09163,5.16,-6.0,23.58
1.757,1.8387,-9.1256,-0.30604,0.030849,0.081856,4.92,-6.18,23.28
6.6467,-4.3177,-7.6546,-0.29199,0.23091,0.16554,4.62,-6.12,23.16
1.0624,2.0703,-9.5479,-0.11148,-0.32834,0.21777,4.14,-6.06,23.34
9.0575,-4.9306,-8.3629,-0.40531,0.24496,0.16921,4.08,-6.06,23.4
3.0782,-1.6208,-8.145,-0.02474,-0.13347,0.26817,4.02,-6.12,23.22
6.1564,-3.1463,-8.4038,-0.35125,0.49083,0.17196,3.78,-6.24,23.04
3.6775,0.35413,-8.3629,-0.082772,-0.27245,0.39737,3.66,-6.48,23.04
2.7786,0.83084,-8.9622,-0.22174,0.079107,0.42669,3.66,-6.48,22.86
7.0962,-2.4244,-8.4719,-0.16585,-0.024435,0.47892,3.66,-6.54,22.68
4.2495,-0.10896,-9.8066,-0.069944,-0.48564,0.39065,3.54,-6.6,22.62
7.0281,-3.0782,-7.5184,-0.13989,-0.16524,0.31612,3.66,-6.72,22.44
-1.0351,2.6423,-8.5127,0.019548,-0.56658,0.54856,3.72,-6.6,22.38
6.3879,-1.7298,-9.2074,-0.14325,-0.24709,0.52046,3.84,-6.66,22.5
7.3822,-1.2258,-9.0575,-0.062919,0.20159,0.50946,3.9,-6.66,22.38
6.674,-2.9011,-8.826,-0.017104,-0.3094,0.40775,4.08,-6.72,22.08
1.3893,-1.1986,-7.8589,0.12034,-0.34575,0.5681,4.08,-6.78,21.84
3.051,-0.96704,-9.1529,-0.024129,-0.14966,0.49358,4.14,-6.78,22.02
5.0668,-0.28603,-9.9565,0.009163,-0.42761,0.54703,4.26,-6.84,21.96
5.5435,-2.6287,-8.2539,0.053756,-0.47128,0.6014,4.5,-6.66,22.08
4.4947,-3.6503,-7.75,0.083689,-0.49052,0.63377,4.74,-6.6,22.2
6.5922,-2.8058,-9.5751,-0.0064141,-0.3708,0.50244,5.04,-6.54,22.32
6.3062,-3.1191,-8.2131,0.046731,-0.47617,0.4163,5.28,-6.42,22.44
4.6445,-2.3563,-8.717,0.040623,-0.62766,0.38118,5.4,-6.3,22.8
6.5786,-4.0589,-8.1722,0.13622,-0.3769,0.16554,5.58,-6.3,22.98
5.1076,0.83084,-8.8941,0.18021,-0.40531,0.24068,5.82,-6.0,23.34
7.4231,-1.1305,-9.9973,-0.060781,-0.41233,0.014355,5.88,-6.12,23.46
2.7241,-0.17706,-8.7306,0.057421,-0.56322,0.18204,6.06,-6.06,23.82
2.9148,0.6674,-9.3572,0.058032,-0.42883,0.29719,6.24,-6.06,23.88
4.6854,-3.2008,-7.641,0.057116,-0.2025,0.41111,6.54,-6.12,24.48
4.5901,-3.4051,-8.8396,0.045509,-0.35064,0.28558,6.6,-6.18,24.6
4.4675,-2.0703,-8.2539,0.037263,-0.40561,0.32223,6.72,-6.06,25.14
2.7513,-2.3427,-7.7091,0.17898,-0.20495,0.3259,6.72,-6.18,25.5
4.8352,-1.5255,-8.7306,0.040317,-0.035125,0.083994,6.9,-6.3,25.86
6.6059,-4.3313,-8.9349,0.12156,-0.18448,0.091324,7.02,-6.42,26.04
3.228,-1.6344,-7.8589,0.23488,-0.33781,0.22785,7.14,-6.66,26.52
3.5958,-2.0294,-7.0553,0.19975,0.025962,0.015272,7.14,-6.6,26.7
7.0417,-4.9987,-8.4582,0.061697,-0.033598,0.11973,7.2,-6.78,27.12
1.471,-5.1213,-6.5105,0.20861,-0.32712,0.30727,7.5,-6.78,27.54
1.7434,-2.6423,-8.0905,0.055894,-0.010385,-0.034514,7.56,-6.72,27.9
2.2201,-2.5198,-8.2131,0.01405,0.37293,-0.045815,7.56,-6.78,28.56
4.2223,-1.5119,-9.9973,-0.081856,0.22358,0.085827,7.5,-6.66,28.8
5.0668,-3.1054,-7.1915,-0.058948,0.16585,-0.047647,7.56,-6.84,29.04
4.3313,-2.3836,-8.7715,-0.093768,0.18937,-0.073609,7.44,-7.2,29.34
5.1894,-5.884,-7.6002,-0.13439,0.025656,-0.18509,7.44,-7.02,29.4
1.8796,-4.9169,-5.9793,0.28924,0.045509,0.12462,7.38,-7.14,29.46
4.6718,1.7979,-10.433,-0.076358,0.54428,-0.40653,7.26,-7.26,29.76
6.5241,-6.7693,-8.8668,-0.22174,0.030238,-0.29291,7.26,-7.26,29.7
2.3836,-3.6503,-7.6683,0.2022,-0.26328,0.079107,7.32,-7.56,29.7
3.9908,-3.9363,-7.6274,-0.1011,0.4725,-0.39554,6.96,-7.68,29.88
4.304,-2.7377,-8.7987,0.040623,0.19426,-0.10568,6.78,-7.74,29.76
5.3256,-1.2667,-9.8611,0.020769,0.18784,-0.33689,6.6,-7.98,29.52
2.3563,-4.413,-6.7148,0.058643,-0.074526,-0.078191,6.42,-7.92,29.22
4.0861,-0.40861,-9.6977,0.018631,0.2419,-0.29596,6.42,-8.04,29.1
4.7671,-2.5742,-8.322,-0.0076358,0.4047,-0.4496,6.36,-8.1,28.92
3.9499,-2.5334,-9.1937,0.085827,-0.0042761,-0.12095,6.42,-8.1,28.44
5.1894,-4.0316,-9.2618,-0.054978,0.22846,-0.33781,6.36,-8.04,28.32
3.0918,-2.6696,-7.1507,0.026878,0.25779,-0.3656,6.36,-8.04,28.26
4.7399,-3.2416,-8.0905,0.012828,0.25412,-0.39584,6.3,-7.86,27.84
3.0237,-3.9227,-7.069,0.057116,0.29077,-0.23213,6.12,-7.86,27.84
6.6331,-2.4244,-9.507,0.085827,0.23702,-0.097738,5.94,-7.68,27.42
4.3994,-7.0009,-8.0088,-0.19884,0.35766,-0.4612,6.06,-7.56,27.18
2.2882,-2.9829,-7.641,-0.023518,0.050091,-0.16402,6.0,-7.56,27.12
1.5936,-1.7025,-7.8453,-0.085216,0.33689,-0.3091,6.0,-7.62,27.0
6.1292,-4.6445,-8.4719,-0.28924,0.72082,-0.43768,5.94,-7.8,26.76
3.8546,-2.9011,-8.0632,-0.18295,0.43219,-0.32803,5.76,-7.68,26.52
3.8954,-2.6832,-8.4719,-0.35308,0.45845,-0.35522,5.64,-7.56,26.46
4.7126,-3.1599,-9.0712,-0.41386,0.38668,-0.22633,5.28,-7.38,26.16
4.7399,-1.7706,-8.8396,-0.39126,0.23396,-0.28405,5.04,-7.32,25.92
3.1191,-1.3893,-8.0088,-0.34178,0.26389,-0.21044,4.68,-7.2,25.68
3.3506,-0.64016,-9.9973,-0.34483,0.41814,-0.081551,4.26,-7.26,25.26
12.64,-6.4424,-10.665,-0.65332,0.18418,-0.14355,4.08,-7.32,24.72
2.7377,-2.2337,-6.6195,-0.14875,0.21228,-0.12553,3.96,-7.2,24.36
2.6696,2.6015,-9.2891,-0.38698,0.37232,-0.13256,3.42,-7.38,23.94
10.365,-3.4187,-10.828,-0.48747,0.5342,0.069333,3.12,-7.44,23.58
9.1393,-1.8796,-12.122,-0.35675,-0.60842,0.018937,2.88,-7.5,23.28
2.547,-2.261,-5.8976,-0.1741,-0.18265,0.07025,2.64,-7.56,22.56
2.8194,-2.1112,-7.7772,-0.27917,0.11484,0.21411,2.46,-7.74,22.44
6.3879,-0.51757,-9.7658,-0.38546,-0.000611,-0.01741,2.4,-7.8,22.08
1.5391,2.152,-8.6625,0.055894,-0.094073,0.2532,2.1,-8.16,21.78
4.4675,2.1112,-10.869,-0.30513,0.018326,0.29474,1.98,-8.4,21.72
11.877,-5.2302,-9.0303,-0.14447,-0.10996,0.042761,1.98,-8.58,21.54
-1.4165,0.77636,-7.6819,0.2419,-0.82589,0.4499,1.86,-8.88,21.42
2.6287,-1.0351,-8.9213,-0.084605,-0.22266,0.09163,1.8,-8.88,21.6
5.9521,-0.21793,-9.8748,-0.029627,-0.056505,0.33475,1.74,-9.18,21.78
8.3765,-2.4108,-7.5048,-0.048564,-0.26023,0.031154,1.8,-9.48,21.66
2.942,-1.8932,-5.7069,0.32498,-0.39034,0.41844,1.92,-9.54,21.72
1.7843,0.89894,-9.9973,-0.10263,-0.55528,0.14875,2.04,-9.54,21.96
4.1406,-0.8717,-8.7034,0.1912,-0.31368,0.28986,2.22,-9.84,22.5
4.6445,-1.2667,-8.322,0.091019,-0.38882,0.22266,2.34,-9.72,22.62
5.2847,-2.1656,-9.3299,0.034819,-0.37629,0.29322,2.46,-9.72,22.92
3.3642,-1.4574,-6.9328,0.10873,-0.44715,0.19884,3.0,-9.6,23.16
1.076,-0.14982,-6.8647,0.31551,-0.33201,0.35033,3.3,-9.54,23.22
4.8352,-1.0624,-9.1937,0.10934,-0.12004,0.097433,3.54,-9.48,23.52
3.514,-1.2531,-7.8317,0.36835,-0.45082,0.29047,4.26,-9.36,23.94
2.6423,-0.57205,-8.0632,0.30482,-0.40195,0.18509,4.5,-9.3,24.12
4.7126,-1.2258,-9.4934,0.22297,-0.30696,0.33995,4.92,-9.18,24.24
4.2768,-4.7944,-8.4719,0.135,-0.34636,0.25015,5.52,-8.82,24.66
3.1054,-3.4732,-6.6331,0.26603,-0.39676,0.18479,5.82,-8.64,24.96
-1.4165,0.054481,-6.7421,0.31398,-0.17898,0.45937,6.0,-8.46,25.2
-1.4165,0.054481,-6.7421,0.31398,-0.17898,0.45937,6.0,-8.46,25.2
-0.040861,-4.2223,-5.2302,0.36744,-0.57849,0.65607,6.9,-7.8,25.86
-3.2416,2.1384,-7.9679,0.086437,-0.62461,0.21502,7.2,-7.62,26.04
4.3449,-4.808,-8.7851,0.0042761,0.26634,0.23305,7.56,-7.5,26.7
3.2144,1.5391,-10.896,0.13775,-0.43097,0.32193,7.62,-7.2,27.0
4.5492,-2.5198,-7.7227,0.080023,-0.23549,0.28436,8.22,-6.9,27.3
6.0202,-3.5822,-9.0439,0.047342,-0.15791,0.33139,8.34,-6.72,27.42
4.1542,-3.5685,-8.3765,0.13347,-0.40775,0.28161,8.46,-6.54,27.66
3.1054,0.040861,-8.322,0.15547,-0.075136,0.18173,8.64,-6.12,28.08
5.9112,-3.3097,-9.8475,0.021686,-0.14691,0.16402,8.82,-6.12,28.38
2.8603,-2.2474,-7.5457,0.051007,-0.40287,0.25229,9.0,-6.06,28.62
3.6366,-1.5391,-8.2131,0.17868,-0.1292,0.35613,9.18,-5.94,28.86
6.456,-5.7614,-8.1858,-0.021075,0.18295,0.12553,9.24,-5.94,29.1
4.304,-6.6876,-7.4503,0.22052,-0.26145,0.42364,9.3,-5.94,29.34
4.0589,-2.8194,-7.8862,0.14142,0.075747,0.098349,9.42,-5.88,29.76
3.732,-4.304,-7.8453,0.15669,0.1689,0.02474,9.42,-5.76,29.88
4.7535,-2.1793,-10.174,0.0012217,0.16005,-0.030238,9.48,-6.0,30.36
2.7513,-4.7126,-6.9464,0.054672,-0.03146,-0.065057,9.54,-6.06,30.6
1.2258,-3.2961,-6.5241,0.20067,0.25473,0.20556,9.54,-5.94,30.9
3.8001,-1.866,-8.431,-0.092546,0.4331,-0.18601,9.48,-6.0,31.14
5.2302,-5.5162,-9.8339,-0.10049,0.051618,-0.092546,9.6,-6.18,31.5
2.0975,-1.58,-7.8045,0.024435,-0.14936,0.01741,9.66,-6.18,31.56
2.438,-3.2961,-7.6002,-0.047037,0.11729,-0.02138,9.48,-6.12,31.86
5.8431,-2.2474,-10.188,-0.13867,0.57269,-0.074526,9.42,-6.3,31.86
5.1485,-5.0531,-8.5263,-0.16127,0.024435,-0.069333,9.36,-6.36,31.92
3.1191,-4.4675,-7.4231,0.06353,-0.000611,0.16463,9.36,-6.42,31.98
4.8761,-2.152,-9.9156,-0.11606,0.52779,-0.15913,9.18,-6.54,31.86
5.6252,-6.5922,-8.6353,-0.20892,-0.023824,-0.16035,9.06,-6.6,31.92
1.8524,0.14982,-9.0303,0.055283,0.000305,0.2135,8.94,-6.72,31.86
4.3994,-4.522,-7.927,-0.23427,0.32651,-0.087659,8.28,-6.78,31.86
3.8273,-2.5061,-8.3084,-0.016799,0.36163,0.055589,8.22,-6.96,31.86
6.0338,-1.7434,-8.9077,-0.16585,0.45173,-0.14966,8.1,-7.2,31.8
5.5571,-6.3471,-7.3822,-0.054062,-0.10873,0.053756,7.92,-7.14,31.62
3.5685,1.6753,-9.4525,-0.054367,0.3485,-0.1347,7.44,-7.2,31.56
6.3198,-3.5685,-10.815,-0.33903,0.21044,-0.29963,7.5,-7.32,31.38
1.2667,-2.0839,-6.4697,-0.028711,-0.15058,-0.029627,7.14,-7.56,31.08
3.0237,-0.24517,-7.75,-0.072998,0.30299,-0.15485,6.96,-7.5,30.9
6.1428,-3.0373,-9.5751,-0.21808,0.48839,-0.45296,6.9,-7.56,30.78
3.5685,-0.62654,-9.4117,0.028405,-0.13561,-0.033598,6.72,-7.56,30.54
6.6195,-1.471,-9.5342,-0.28955,-0.051924,-0.46456,6.78,-7.74,30.48
3.8546,-4.522,-8.0905,0.047342,0.055589,-0.0033598,6.78,-7.92,30.18
7.8045,-2.4517,-9.6704,-0.35583,0.22724,-0.7309,6.9,-7.92,29.82
4.5356,-6.2517,-7.8045,-0.1066,-0.26603,-0.14722,6.78,-8.04,29.64
2.8739,-1.7298,-8.0632,-0.089797,-0.32406,-0.013134,6.9,-8.1,29.58
2.3836,-2.3836,-6.9872,-0.083383,0.23182,-0.30543,7.14,-8.52,29.34
4.0997,-1.6344,-9.8748,-0.12828,0.30818,-0.29047,7.08,-8.7,29.16
9.112,-3.7456,-7.4367,-0.343,0.076969,-0.57666,7.08,-8.64,28.68
0.83084,-3.0918,-8.1722,-0.015272,-0.27306,-0.0085521,7.2,-8.76,28.5
5.5435,-0.53119,-9.0848,-0.17135,-0.12401,-0.37049,7.26,-8.76,28.5
5.2438,-3.0782,-7.9951,-0.33903,0.40531,-0.72876,7.32,-8.94,28.38
6.1428,-1.7434,-9.3163,-0.31093,-0.12523,-0.47586,7.74,-9.12,28.14
4.1133,-2.3836,-8.1041,-0.30177,-0.04215,-0.4441,7.74,-9.18,28.02
3.8001,-0.55843,-8.6353,-0.39095,-0.037263,-0.46273,7.98,-9.24,27.9
3.9227,-2.547,-8.3765,-0.23976,-0.14722,-0.13775,8.16,-9.24,27.84
4.6309,-0.76274,-8.7987,-0.25473,-0.1909,-0.19731,8.46,-9.3,27.66
2.6423,0.95342,-8.1586,-0.011301,0.027794,-0.1014,8.64,-9.24,27.36
7.8045,-2.2474,-9.616,-0.1518,0.054978,-0.23121,8.82,-9.6,27.12
6.1564,-3.2961,-7.641,0.080634,-0.27764,-0.18387,9.06,-9.66,27.12
0.50395,1.5255,-8.717,0.15669,-0.47617,-0.028405,9.24,-9.66,27.24
6.565,-3.5004,-9.2346,-0.15821,-0.16157,-0.29291,9.72,-9.84,27.48
4.3858,-1.8387,-8.8532,-0.028405,-0.56352,-0.16066,9.9,-10.14,27.36
6.3879,-1.2667,-8.717,-0.1463,-0.36346,-0.4047,10.02,-10.08,27.48
2.5879,-0.12258,-8.3629,0.25656,-0.32987,-0.09163,10.38,-10.2,27.48
8.2812,-3.1327,-10.719,-0.089186,-0.21075,-0.25381,10.56,-10.14,27.36
4.5356,-2.2746,-8.8668,0.27489,-0.52718,-0.080023,10.8,-10.26,27.24
2.3155,0.38137,-7.641,0.23243,-0.050396,-0.15272,11.16,-10.5,27.54
4.5901,-1.8387,-8.8668,0.17868,-0.086743,0.13256,11.28,-10.44,27.66
7.75,-3.909,-9.1256,0.19761,-0.18845,-0.11515,11.58,-10.38,27.9
3.7047,-2.6696,-8.3493,0.26481,-0.42608,0.014966,12.24,-10.14,28.32
1.8115,-2.6015,-7.1915,0.26237,-0.089186,-0.047953,12.48,-9.96,28.38
2.2201,1.7025,-8.8532,0.25717,-0.092852,0.037568,12.6,-9.96,28.56
7.0417,-2.4789,-9.6568,0.23549,0.054672,0.047342,12.84,-9.78,28.8
7.7636,-5.1485,-10.052,0.19181,-0.35094,0.043982,12.9,-9.66,28.86
3.4051,-3.9227,-8.6217,0.17013,-0.35736,0.026267,13.08,-9.6,28.86
0.88532,0.61292,-8.1177,0.21655,-0.012828,-0.032376,13.32,-9.36,28.98
6.0611,-0.36775,-11.645,0.091935,-0.17746,0.10415,13.38,-9.3,29.1
6.9464,-5.0804,-9.6296,0.14325,-0.12614,0.007025,13.5,-9.18,29.16
0.32689,-0.21793,-7.246,0.38149,-0.1744,0.29413,13.56,-8.94,29.34
3.9771,-0.38137,-10.052,0.26481,0.083689,0.22266,13.56,-8.82,29.4
6.5378,-2.2882,-11.291,0.146,-0.28527,0.14416,13.5,-8.82,29.4
1.9886,-3.3506,-7.7364,0.2025,-0.29199,0.38454,13.38,-8.58,29.64
3.1872,-4.1542,-7.3958,0.064446,-0.083994,0.039401,13.38,-8.58,29.7
3.7865,-5.0531,-8.2539,0.017104,-0.28039,0.22602,13.44,-8.46,29.76
3.0918,-0.24517,-9.1256,0.069944,-0.12859,0.14019,13.5,-8.46,29.64
4.8216,-2.8467,-9.6977,-0.012523,0.018021,0.146,13.62,-8.4,29.7
5.2302,-3.2689,-10.297,-0.048564,-0.14325,0.18021,13.68,-8.46,29.82
3.2553,-3.4868,-7.069,0.10751,-0.20097,0.10079,13.68,-8.58,30.0
7.4503,-2.5061,-9.6704,0.031154,0.26176,-0.085827,13.5,-8.46,30.24
5.4481,-5.1621,-9.0303,0.12737,-0.28527,0.14478,13.38,-8.34,30.42
2.9284,-0.054481,-9.7113,0.12004,-0.25229,0.14019,13.32,-8.34,30.42
2.3155,-3.7047,-7.3414,0.18021,0.090713,0.33506,13.26,-8.4,30.6
3.5413,-0.8036,-9.3163,0.091324,0.37354,0.20678,13.14,-8.4,30.84
4.2632,-1.4165,-8.6081,0.093462,0.27184,0.24862,13.08,-8.4,30.72
5.203,-7.0553,-8.1722,-0.12645,-0.096517,0.10507,13.02,-8.58,30.84
1.362,-4.413,-7.7227,0.083689,-0.19792,0.3485,12.9,-8.58,30.9
2.9148,-0.47671,-8.0088,0.018021,0.35675,-0.095906,12.96,-8.58,31.02
5.3937,-4.699,-8.7987,0.068722,0.095295,0.032376,12.48,-8.88,31.14
4.6037,-3.8409,-9.6023,0.060781,0.082161,-0.055283,12.42,-8.82,31.32
4.3585,-3.8954,-8.9077,-0.0281,-0.076969,-0.054978,12.18,-8.82,31.5
3.1054,-0.21793,-9.1393,0.036652,0.23243,0.048564,12.0,-8.94,31.74
4.6582,-1.7979,-8.717,-0.031154,0.30024,-0.21869,11.94,-8.88,31.68
4.9987,-1.5391,-9.8748,0.000305,-0.011301,0.020769,11.82,-9.0,31.68
4.1951,-6.4424,-8.1177,-0.21228,-0.3711,-0.094684,11.64,-9.06,31.68
-1.2939,-0.040861,-6.9328,0.027184,-0.31276,0.20464,11.64,-9.06,31.56
2.656,1.6617,-9.6977,-0.022297,0.45082,0.10629,11.52,-9.06,31.5
3.2825,-4.7399,-7.7091,-0.0033598,-0.047342,0.023213,11.4,-9.12,31.32
4.413,1.6889,-10.161,0.067501,-0.058948,0.020464,11.34,-9.12,31.2
5.1894,-3.7047,-8.322,-0.21686,0.051007,-0.37874,11.04,-9.06,31.08
3.0918,-1.8115,-8.3084,0.066584,-0.14294,-0.16188,10.98,-9.0,30.84
4.6309,-1.4846,-8.431,-0.13134,0.16829,-0.28558,10.86,-9.12,30.72
4.7263,-4.4811,-9.1393,-0.1295,-0.15852,-0.10721,10.86,-9.12,30.54
2.2882,-1.6344,-7.355,-0.051924,-0.0085521,-0.19059,10.86,-9.0,30.3
4.0861,-1.2395,-8.431,-0.064141,0.33353,-0.11729,10.8,-9.24,30.24
4.6582,-4.2768,-8.2539,-0.040928,0.1518,-0.17837,10.74,-9.12,30.24
4.5083,-2.2474,-9.4389,-0.146,0.089797,-0.26725,10.62,-9.24,30.06
3.2825,-3.623,-8.0224,0.029627,-0.019548,-0.0033598,10.44,-9.24,30.0
3.4732,-3.3642,-8.2539,-0.15547,0.1799,-0.24068,10.32,-9.3,30.0
4.3449,-5.6116,-7.8045,-0.10721,-0.0051924,-0.23305,10.2,-9.24,30.12
3.2825,0.31327,-8.7306,0.018021,0.1518,-0.20831,10.08,-9.36,30.06
4.9306,-1.3212,-8.9349,-0.067195,0.27306,-0.39004,10.32,-9.42,29.94
2.8194,-1.1169,-8.0769,0.047037,0.089797,-0.25931,10.32,-9.54,29.88
5.993,-3.4323,-9.221,-0.11576,0.072388,-0.28375,10.32,-9.48,29.76
6.4152,-6.9191,-8.4991,-0.14966,-0.036652,-0.40195,10.32,-9.48,29.46
2.4789,-4.6718,-7.2188,-0.052534,-0.1741,-0.10904,10.26,-9.54,29.22
6.7966,-1.9613,-9.6841,-0.2642,0.31307,-0.52993,10.14,-9.36,29.04
6.4697,-7.3005,-8.322,-0.22022,-0.019548,-0.36499,10.2,-9.36,28.74
2.1248,-2.0294,-9.793,-0.062919,-0.099266,-0.22205,10.32,-9.42,28.62
6.4152,-5.7205,-7.9951,-0.32376,0.2306,-0.54336,10.32,-9.18,28.26
0.89894,-1.4301,-7.2052,-0.02474,0.10293,-0.13531,10.38,-9.12,28.2
1.3212,2.4925,-11.291,-0.16402,0.0562,-0.2251,10.32,-9.24,28.02
5.4345,-5.9385,-7.3822,-0.26848,-0.078802,-0.29291,10.5,-9.24,27.54
0.50395,0.44947,-8.1177,-0.098349,-0.2697,-0.045815,10.26,-9.18,27.48
2.6968,1.58,-7.7772,-0.15485,0.37721,-0.46945,10.44,-9.12,27.36
9.0575,-4.9987,-10.025,-0.15088,0.24374,-0.079718,10.44,-9.12,27.0
4.3177,-2.5198,-8.3357,-0.17776,-0.23121,-0.33323,10.38,-9.12,27.0
1.0896,-0.12258,-8.3765,-0.21533,-0.097128,-0.19242,10.38,-9.18,27.0
5.4481,-3.2144,-8.6353,-0.2813,0.18326,-0.38973,10.5,-9.06,26.94
3.7456,0.095342,-8.9894,-0.15913,-0.10843,-0.26542,10.74,-9.06,26.76
4.8352,-1.4574,-8.4446,-0.15516,0.074831,-0.22327,10.74,-9.0,26.52
6.1428,-2.1929,-10.774,-0.22266,-0.12004,-0.085521,10.92,-9.18,26.4
3.9363,-2.5198,-7.8317,-0.067501,-0.29535,-0.066584,11.28,-9.36,26.1
1.7706,-0.44947,-9.6023,-0.0079412,-0.27336,0.016188,11.34,-9.3,26.1
6.4152,-1.471,-11.305,-0.22938,-0.045204,-0.38301,11.4,-9.36,26.1
1.076,3.514,-9.8339,0.24771,-0.071471,0.17257,11.58,-9.36,26.04
11.686,-3.4187,-10.706,-0.25076,0.16616,-0.44135,11.46,-9.36,25.92
5.7069,-4.9306,-4.7807,0.42516,-0.1854,0.13561,11.7,-9.3,25.98
6.279,0.31327,-10.978,-0.043677,-0.46976,-0.30574,12.0,-8.94,26.16
5.4073,-3.3506,-7.8998,0.29596,-0.1573,-0.017104,12.3,-9.0,26.28
1.8387,1.0896,-8.6081,0.23182,-0.49327,0.054672,12.3,-9.0,26.22
9.0712,-4.4675,-8.7443,-0.047647,-0.2529,-0.42638,12.48,-9.18,26.46
2.6287,-4.2904,-6.4969,0.27,-0.35094,0.27947,12.6,-9.06,26.7
3.0782,-1.2122,-8.2948,0.050702,-0.18265,-0.24374,13.14,-8.88,26.94
4.3449,-1.2939,-9.2482,0.13439,-0.32345,0.075747,13.32,-8.7,27.06
4.808,0.6674,-10.706,0.10385,-0.24832,-0.041539,13.56,-8.64,27.3
5.1213,0.36775,-9.4798,0.17532,-0.40042,0.021075,13.74,-8.64,27.42
2.261,-4.0725,-6.3471,0.3766,-0.18021,0.3653,14.04,-8.64,27.66
4.4539,-4.7671,-9.221,0.26053,-0.3375,0.018937,14.46,-8.28,28.02
2.5742,-2.833,-9.1393,0.40684,-0.39218,0.146,14.58,-8.22,28.26
3.0237,-0.42223,-8.145,0.34789,-0.17776,0.032681,15.24,-8.04,28.5
5.094,-1.866,-7.3414,0.40897,0.019548,0.11362,15.3,-7.92,28.62
4.8488,-4.9306,-6.565,0.30727,-0.28222,0.29627,15.48,-7.86,28.8
2.8058,-3.8682,-7.9134,0.10934,-0.27245,0.0088575,15.84,-7.5,29.1
0.27241,3.2008,-9.5206,0.26359,-0.090103,0.28833,15.96,-7.5,29.16
7.355,-2.0839,-9.9565,-0.19395,-0.15974,-0.13744,15.9,-7.38,29.22
0.10896,-3.0237,-6.8374,-0.0054978,-0.4328,0.47831,15.96,-7.14,29.7
1.866,-0.6674,-8.3357,-0.050091,0.0030543,0.047342,16.02,-6.9,29.82
4.7944,-0.1362,-10.215,-0.0027489,0.15608,0.01069,16.26,-6.6,29.88
5.6388,-4.6445,-7.9951,0.11332,-0.37874,0.080634,16.38,-6.54,30.3
1.0215,-1.1305,-8.6353,0.20831,-0.15088,0.18479,16.32,-6.48,30.42
4.5083,-0.76274,-9.902,0.067806,0.049175,-0.036652,16.26,-6.36,30.84
3.514,-4.4811,-9.112,0.11606,-0.41111,-0.021075,16.2,-6.3,31.02
2.3836,-3.6094,-8.0224,0.086743,-0.31062,0.040317,16.38,-6.12,31.14
2.152,-2.6968,-6.9328,0.15149,0.010385,0.015882,16.5,-5.94,31.32
3.514,-0.38137,-8.826,0.14019,0.19517,0.09499,16.62,-5.88,31.5
5.2711,-5.9793,-7.8726,-0.044899,-0.18357,-0.0058032,16.68,-5.76,31.74
-0.14982,-3.1054,-5.8431,0.18479,-0.146,0.33537,16.86,-5.52,31.98
2.6696,-3.3506,-8.7443,-0.026878,0.3882,-0.021991,16.92,-5.58,32.46
4.8625,-4.985,-9.9156,-0.009163,0.021075,0.012523,16.92,-5.58,32.46
2.1248,-4.6445,-8.4991,-0.12675,-0.27764,-0.0281,16.8,-5.52,32.7
1.2531,-3.7047,-6.3607,-0.027489,0.32987,-0.063225,16.92,-5.34,32.82
4.699,0.43585,-9.8339,-0.0082467,0.60628,-0.068111,17.04,-5.4,33.12
8.6081,-5.1213,-9.6023,-0.25443,-0.067195,-0.31643,17.1,-5.4,33.06
0.53119,-1.0488,-8.2812,-0.12248,-0.020159,0.13867,17.04,-5.52,33.18
3.0918,-1.3348,-9.2755,-0.22663,0.34941,-0.14783,16.92,-5.58,33.36
6.674,-3.5413,-11.032,-0.28619,0.26237,-0.053145,16.74,-5.64,33.54
5.1213,-4.3585,-8.6081,-0.0562,-0.098044,0.03543,16.74,-5.82,33.6
7.069,-1.58,-10.202,-0.25381,0.2981,-0.094379,16.74,-5.88,33.84
3.4323,-2.9011,-7.355,0.047342,-0.032376,-0.097738,16.68,-6.06,33.78
5.9521,-0.98067,-9.902,0.043371,-0.029932,-0.20036,16.62,-6.06,33.78
3.9227,-3.1191,-8.1995,0.14539,-0.35491,-0.022602,16.62,-6.18,33.78
5.2847,-2.1248,-11.291,-0.2529,-0.18601,-0.416,16.62,-6.24,33.72
5.8704,-3.4732,-9.8066,-0.16402,-0.45235,-0.27886,16.62,-6.3,33.66
6.4152,-2.8467,-9.3027,-0.28283,-0.12492,-0.3711,16.68,-6.12,33.54
5.38,-2.5606,-8.5263,-0.2135,-0.22694,-0.37568,16.8,-6.3,33.48
5.7614,0.095342,-10.501,-0.19853,-0.12767,-0.37751,16.98,-6.48,33.48
4.8352,-4.0589,-7.8453,-0.10171,-0.29169,-0.27336,17.1,-6.54,33.3
2.3836,-3.2553,-7.5048,-0.000916,-0.3207,-0.16738,17.28,-6.66,33.18
2.9556,-1.4165,-8.9213,-0.056505,-0.13286,-0.27581,17.52,-6.78,33.24
5.2983,-4.1678,-10.12,-0.085827,-0.3094,-0.29658,17.94,-6.9,33.12
3.8409,-5.7342,-7.8181,-0.13042,-0.42119,-0.47434,18.24,-6.96,33.3
0.29965,-0.70826,-8.7579,0.087965,-0.080023,-0.32315,18.66,-7.14,33.3
7.0145,-6.0747,-9.112,-0.19303,-0.032681,-0.56566,18.96,-7.32,33.3
1.9341,-5.1621,-7.2596,0.16799,-0.58796,0.028711,19.2,-7.44,33.36
1.58,-0.34051,-9.2891,-0.042455,-0.033903,-0.37904,19.38,-7.62,33.48
4.6718,-1.866,-8.7443,0.16127,-0.042761,-0.10934,19.8,-8.16,33.6
6.7421,-3.8001,-10.42,-0.016493,-0.071471,-0.40164,19.98,-8.22,33.66
7.1507,-6.7012,-3.3506,-0.048869,-0.35858,-0.36499,20.22,-8.22,33.84
1.6072,2.0975,-10.46,0.59498,-0.35491,0.1967,20.82,-8.52,33.96
8.3765,-6.8374,-10.161,-0.19456,0.4777,-0.64691,21.0,-8.58,34.02
4.522,-5.8023,-7.4095,0.22235,-0.54367,0.11576,21.12,-8.64,34.08
4.1406,-3.3506,-8.3357,-0.27306,-0.093768,-0.62553,21.42,-8.88,34.44
4.0861,-0.76274,-9.9701,0.34086,-0.45601,0.3259,21.48,-8.82,34.5
3.051,3.2553,-8.5672,0.064446,0.30329,-0.72693,21.96,-8.94,34.8
10.869,-9.5342,-12.844,-0.25565,-0.30788,-0.72479,22.02,-8.94,34.86
-0.027241,-8.5127,-2.9284,0.46701,-0.59773,0.40256,22.2,-8.88,34.92
-1.7162,1.7979,-6.1836,0.13836,-0.043066,-0.73243,22.38,-8.94,34.98
9.2891,-6.4833,-7.4776,0.018021,0.26878,-0.49205,22.8,-8.76,35.34
3.2008,-3.6094,-9.0031,0.33934,-0.95417,-0.097738,22.92,-8.64,35.4
3.2416,0.99429,-10.815,0.089797,-0.18692,-0.46395,23.46,-8.46,35.52
3.8001,-2.2201,-8.8668,0.14875,-0.41753,-0.30452,23.64,-8.34,35.58
6.1292,-2.0294,-9.8339,-0.051924,-0.29963,-0.4725,23.76,-8.28,35.7
5.9249,-3.7728,-8.6625,0.030238,-0.7251,-0.40775,24.0,-8.16,35.64
1.9341,-3.0237,-7.1098,0.0051924,-0.24954,-0.39859,24.3,-7.8,35.82
6.1564,-0.50395,-11.087,-0.055894,0.051007,-0.57605,24.54,-7.86,35.88
5.6797,-6.9464,-9.0984,0.016188,-0.40103,-0.40714,24.54,-7.92,35.82
2.6696,-1.471,-8.0224,-0.094073,0.044593,-0.65546,25.32,-7.68,35.94
1.8932,0.31327,-7.1234,0.093768,0.13561,-0.54123,25.5,-7.74,36.0
2.9965,-0.70826,-8.5944,0.23274,0.05284,-0.36163,25.8,-7.68,36.0
4.7807,-2.8739,-9.0031,0.16585,-0.135,-0.22907,26.28,-7.68,36.0
3.5958,-5.5707,-8.4174,0.18265,-0.18815,-0.21686,26.46,-7.62,36.18
2.0567,-5.0259,-7.7636,0.12859,-0.219,-0.32376,26.64,-7.68,36.24
5.993,-4.127,-10.706,-0.045509,-0.25687,-0.54886,26.94,-7.68,36.3
-0.081722,-2.8467,-5.2711,0.051618,-0.3207,-0.62186,27.24,-7.5,36.36
2.8194,1.6208,-10.774,-0.071777,0.24282,-0.69852,27.54,-7.5,36.36
7.6546,-9.1937,-7.0962,-0.1573,-0.36835,-0.51924,27.96,-7.5,36.3
0.34051,0.095342,-9.6704,0.17196,-0.45448,-0.27397,28.2,-7.56,36.36
5.8295,-2.4789,-11.073,-0.1573,0.35094,-0.6408,28.38,-7.38,36.3
0.8036,-0.19068,-9.6704,0.17043,-0.13775,-0.24221,28.56,-7.32,36.36
5.1485,-1.8932,-10.351,0.030849,0.23366,-0.51526,28.74,-7.26,36.36
5.0259,-3.1463,-7.8453,0.17837,-0.14997,-0.38332,28.8,-7.02,36.36
4.4811,-4.2087,-10.787,0.16677,-0.023824,-0.18326,28.92,-6.96,36.42
5.2711,-10.542,-6.2517,0.036957,-0.18479,-0.38026,29.22,-6.84,36.36
-1.6344,-2.4517,-5.5026,0.42486,-0.29474,-0.078191,29.4,-6.6,36.36
15.214,-6.3062,-13.525,-0.17807,0.72021,-0.81764,29.52,-6.66,36.42
7.6683,-12.83,-5.0531,0.27092,-0.99418,0.1405,29.7,-6.72,36.36
-4.8216,-0.89894,-0.64016,0.17226,0.15547,-0.44715,29.76,-6.6,36.42
10.855,-6.5514,-7.927,-0.58063,1.1478,-0.84574,29.94,-6.72,36.66
3.6775,-2.261,-5.1213,0.43463,-0.54,0.33567,29.94,-6.54,36.6
10.733,-2.5742,-17.788,-0.55864,0.33842,-0.67348,30.0,-6.48,36.84
-4.0589,-13.062,0.78998,-0.31765,-1.0507,0.78679,30.12,-6.36,36.66
-9.4798,15.486,-5.4073,0.57482,1.3662,-1.3958,30.12,-6.36,36.78
-1.6617,12.967,-9.902,0.79962,2.0779,-0.60048,30.06,-6.42,37.08
14.737,-18.265,-12.994,-0.97555,-0.029016,-0.98655,29.88,-6.48,36.96
-2.6968,-5.7342,-1.8251,0.43433,-2.4303,0.79474,29.88,-6.48,36.96
-14.22,11.863,-1.9613,0.67165,-0.04612,-0.83017,29.94,-6.54,37.08
14.547,-11.387,-13.811,-0.93707,1.2019,-0.55161,30.06,-6.18,36.84
7.0281,4.6718,-10.351,0.086437,-0.70647,-0.42455,29.94,-6.24,36.9
5.6933,-6.8647,-9.3027,-0.33017,-0.32162,-0.31337,29.88,-6.3,36.96
1.1169,-11.319,-5.2711,-0.064446,-0.14875,-0.16341,29.88,-6.18,36.54
3.2825,-1.4165,-0.98067,-0.06017,0.32467,-0.98777,30.06,-6.24,36.36
-7.3141,15.759,-5.6933,1.2004,0.22266,-0.029016,30.0,-6.36,36.24
3.2553,7.0417,-14.179,0.007025,0.7535,-0.12462,29.82,-6.36,36.42
6.279,-13.103,-5.8567,-0.074526,-1.0296,0.33414,29.82,-6.36,36.3
-3.514,-0.16344,-3.1599,0.17623,-1.4649,-0.47525,30.06,-6.36,36.0
-5.1076,0.44947,-6.0747,-0.28405,0.78374,-0.30574,30.3,-6.24,36.06
2.152,4.5083,-7.9679,0.43677,1.1005,-0.11729,30.54,-6.24,36.18
6.7012,8.4446,-18.36,0.039095,0.78435,0.33078,30.36,-6.36,35.94
9.8611,-16.835,-4.5356,-0.69791,-0.44104,-0.34758,30.36,-6.3,35.76
-4.4402,4.6309,-8.9622,0.24312,-0.97586,-0.90561,30.54,-6.36,35.88
-2.6696,-2.7377,-4.6718,0.45784,1.2996,0.40561,30.6,-6.24,35.88
11.087,-3.1327,-14.955,-0.24496,0.57666,-0.88789,30.48,-6.36,36.12
12.572,-4.304,-10.474,0.38362,-0.10812,0.12095,30.3,-6.3,36.24
-2.2201,-0.70826,-8.3357,1.0018,-1.3082,0.48319,30.36,-5.94,36.3
6.2245,-7.7636,-13.988,-0.13958,0.40195,-0.5171,30.42,-5.76,36.36
8.3493,-7.2052,-11.468,0.15699,-0.61484,-0.13164,30.48,-5.88,36.3
-0.98067,-1.3212,-9.4798,0.29077,-0.5229,0.22205,30.6,-5.64,36.36
6.9872,-1.8932,-13.28,-0.33475,0.40073,-0.8604,30.66,-5.58,36.36
5.489,-1.7025,-8.0905,0.38271,-0.41692,-0.013744,30.66,-5.52,36.3
4.9578,0.34051,-10.488,0.011606,0.073304,-0.40531,30.84,-5.04,36.6
6.674,-7.069,-6.3062,-0.13164,-0.14447,-0.25626,31.02,-5.04,36.66
2.3018,-0.027241,-6.4833,0.12584,-0.53695,0.17471,31.14,-4.74,36.72
2.7513,-2.6832,-8.1177,-0.0097738,0.035736,-0.22144,31.2,-4.68,36.66
6.4833,2.9556,-13.552,-0.44379,0.22633,-0.63805,31.32,-4.5,36.6
4.127,-7.246,-6.6876,-0.56169,-0.478,-0.25656,31.68,-4.2,36.36
4.0861,-3.0782,-5.7069,-0.47647,-0.14111,-0.49816,31.86,-4.38,36.42
2.3427,-2.0294,-5.8704,-0.15791,0.01741,-0.19395,32.1,-4.38,36.36
4.304,0.44947,-11.7,-0.1405,-0.037874,-0.21166,32.28,-4.38,36.3
3.732,-1.0896,-10.542,0.054062,-0.041844,-0.10629,32.28,-4.5,36.3
2.833,0.28603,-9.5751,0.14661,-0.1124,-0.026878,32.1,-4.56,36.12
8.2539,-4.7126,-10.91,-0.20953,-0.029627,-0.32895,32.34,-4.74,36.18
1.7025,-2.656,-5.3392,0.51832,-0.38485,0.22694,32.46,-4.8,36.12
3.8818,1.8115,-12.177,0.21686,0.14111,-0.15882,32.46,-4.86,36.36
3.4323,-7.5048,-4.7671,0.47312,-0.41661,0.16829,32.52,-5.22,36.48
0.12258,5.4481,-8.9486,0.68386,-0.081856,-0.04215,32.58,-5.28,36.54
4.9714,2.7513,-11.346,0.30727,0.47464,-0.32009,32.64,-5.34,36.6
6.6876,-7.0826,-9.5751,0.21166,-0.50793,0.14264,32.7,-5.64,36.96
2.1248,-1.4574,-9.1937,0.13806,-0.72052,-0.50916,32.64,-5.52,36.96
-0.35413,0.62654,-6.4969,0.2813,-0.23518,-0.074831,32.58,-5.52,37.08
5.1757,-1.0488,-8.8396,-0.014661,0.2364,-0.49266,32.82,-5.46,37.44
8.2131,-4.3858,-8.5944,0.027489,-0.21166,-0.32345,32.82,-5.4,37.68
5.6797,-4.808,-8.3901,0.23671,-0.72968,-0.19151,32.94,-5.46,37.92
3.9227,-0.054481,-10.42,0.15577,-0.23213,-0.35125,33.12,-5.58,38.1
6.6604,-6.7012,-8.9758,-0.24984,-0.087659,-0.60231,33.24,-5.64,38.22
3.2825,-6.2517,-8.2539,0.13317,-0.69211,-0.13347,33.3,-5.64,38.22
4.6854,-2.9148,-9.7794,0.10751,-0.25809,-0.47037,33.48,-5.34,38.4
4.0997,-6.1836,-7.8998,0.15424,-0.20983,-0.2645,33.54,-5.4,38.4
3.514,0.38137,-9.4525,0.14416,-0.072998,-0.60567,33.72,-5.22,38.58
4.7399,-3.7728,-6.1836,-0.054978,0.0082467,-0.46304,34.14,-5.1,38.64
3.1327,0.068102,-8.322,0.2138,-0.2251,-0.27092,34.32,-5.16,38.7
3.2553,0.10896,-7.464,0.11423,0.16096,-0.47128,34.5,-5.22,38.82
6.9328,-4.8352,-10.869,-0.10476,-0.1799,-0.56108,34.68,-5.16,38.82
4.5356,-3.8954,-8.9622,0.057727,-0.45662,-0.44532,34.98,-4.98,38.88
2.0839,-0.68102,-6.5241,0.11393,-0.1857,-0.55161,35.16,-4.86,38.82
4.3858,-1.5391,-10.706,0.21075,0.17074,-0.36194,35.52,-4.56,38.64
9.6841,-4.6309,-12.585,-0.28986,0.073304,-0.92332,35.46,-4.32,38.52
6.456,-6.3879,-8.3084,0.45326,-0.47067,-0.22755,35.76,-4.2,38.46
2.7104,4.2495,-9.5479,0.56352,-0.11393,-0.39248,36.12,-3.84,38.64
6.6195,-0.9398,-11.741,-0.38973,0.36285,-0.78374,36.18,-3.66,38.64
2.2065,-7.1507,-6.3062,-0.3598,-0.26848,-0.92393,36.18,-3.66,38.46
2.3018,0.23155,-7.5184,0.36988,-0.73518,-0.36896,36.36,-3.3,38.52
3.8137,0.34051,-10.093,-0.35613,0.32803,-1.273,36.6,-3.12,38.52
4.0589,-7.1915,-8.3084,-0.032681,-0.1631,-0.4554,36.78,-2.94,38.34
2.0567,1.0079,-8.0496,0.35766,-0.020464,-0.69119,37.08,-2.52,38.4
2.833,-1.7025,-8.5536,0.13011,0.20495,-0.33017,37.02,-2.34,38.34
2.4653,-2.8194,-8.5127,0.35766,0.11881,-0.23915,37.26,-1.86,38.4
6.8374,-2.7786,-9.8339,0.032987,0.14936,-0.57574,37.2,-1.5,38.52
4.985,-8.2676,-7.5729,0.026878,-0.50946,-0.37843,37.2,-1.14,38.82
3.9771,-9.1529,-6.6331,0.046426,-0.48045,-0.47403,37.2,-0.9,38.88
1.2803,-2.4244,-7.7227,0.04948,0.12462,-0.759,37.26,-0.3,38.7
3.0101,-1.1032,-8.9622,-0.12584,0.56047,-0.83902,37.44,-0.12,38.7
6.1019,-1.6481,-8.1177,-0.12981,0.47159,-0.84025,37.62,0.12,38.76
2.7922,-0.84446,-8.322,0.33811,-0.22297,-0.58521,37.56,0.6,38.82
4.2495,-3.2689,-9.3163,-0.16127,-0.37751,-0.55986,37.38,1.08,38.88
3.8818,-5.7069,-7.1507,0.17898,0.026878,-0.58246,37.2,1.32,39.12
0.12258,2.547,-7.8045,0.18723,0.0012217,-0.50916,36.96,2.22,39.36
5.8567,-3.8137,-8.3901,-0.19914,0.70555,-0.33628,36.9,2.52,39.48
0.57205,1.58,-12.354,0.19792,0.21105,-0.4102,36.78,3.36,39.9
3.228,3.6366,-7.9679,-0.065057,0.31398,-0.47495,36.66,3.66,40.02
10.351,-12.136,-6.9191,-0.45021,0.57635,-0.21961,36.6,3.84,39.9
-2.5742,6.279,-11.536,0.41661,-0.68845,-0.33109,36.3,4.38,40.02
6.1836,2.5606,-9.0984,-0.3934,1.0146,-0.55436,36.18,4.68,40.14
6.0611,-7.0962,-10.052,-0.26481,0.58399,-0.062919,36.0,5.04,40.26
8.1722,4.6037,-8.322,-0.36591,0.37232,-0.63286,35.58,5.76,40.56
4.2359,-10.188,-5.8704,-0.28344,0.31246,-0.031765,35.46,6.0,40.44
0.9398,-3.1463,-10.052,-0.014966,-0.72174,-0.33781,35.34,6.18,40.38
3.5822,-3.8001,-7.3277,-0.25473,0.95387,-0.15791,35.22,6.42,40.14
5.0395,-2.3427,-10.188,-0.14936,0.2923,-0.037263,35.22,6.48,40.02
3.6366,3.9908,-11.986,-0.1124,0.11606,-0.3207,35.22,6.48,40.02
2.7786,-6.456,-4.8352,0.031765,-0.1295,-0.20403,35.1,6.3,39.54
-6.0611,5.5707,-8.2131,0.33139,-0.89583,-0.33231,35.16,6.24,39.42
-1.1986,8.7306,-10.447,-0.1912,0.90561,0.049786,35.16,6.24,39.42
13.116,-6.7693,-8.9349,-0.17349,0.71441,-0.37232,35.1,6.24,39.06
3.909,2.152,-11.128,0.23366,-1.5156,-0.16677,35.1,6.18,38.76
2.6832,-4.6445,-3.4187,0.11026,0.018021,-0.29902,35.28,6.18,38.52
4.8897,3.8273,-14.574,-0.51374,-0.075442,-0.13897,35.4,6.3,38.16
11.7,-3.1191,-8.4446,-0.33262,0.33964,-0.1744,35.52,6.0,37.98
6.1836,-3.3234,-6.0066,0.21441,-0.67348,0.1405,35.64,6.0,37.8
9.0303,-5.5707,-11.85,-0.1741,-0.54153,-0.019242,36.0,6.0,37.62
5.2575,-5.4073,-7.7636,0.017715,-0.11637,-0.029932,36.18,5.94,37.38
-1.5255,4.5901,-11.237,0.16707,-0.81306,-0.17715,36.48,5.88,37.08
7.1643,-6.4697,-6.8374,0.14722,-0.17959,-0.17868,36.84,5.82,36.84
-0.57205,3.1054,-8.2539,0.47495,-0.66004,-0.1573,36.96,6.0,36.84
4.9169,3.1735,-12.476,-0.094073,0.17379,-0.60842,37.26,6.12,36.6
-0.70826,-2.152,-3.9635,0.57849,-0.28711,0.38362,37.68,6.24,36.48
3.4323,3.0237,-13.062,-0.036346,-0.41783,-0.33231,37.74,6.42,36.42
10.351,-7.1779,-10.447,0.0094684,-0.13744,-0.21441,37.86,6.54,36.54
2.9692,3.2416,-14.833,-0.135,-0.78985,-0.060476,38.46,6.48,36.48
12.081,-6.8374,-13.116,0.03543,0.66493,-0.25901,38.64,6.84,36.42
-3.909,0.49033,-5.8159,0.8995,-0.30849,1.0873,38.94,6.96,36.3
9.6977,-13.212,-9.5615,-0.85277,0.50946,-0.90805,39.24,7.2,36.18
-5.993,4.6582,-2.8058,0.82345,-0.7758,0.90439,39.24,7.26,36.3
-0.19068,9.1801,-12.503,0.05681,0.18815,-0.026573,39.3,7.26,36.42
4.1406,-5.489,-6.8238,0.50396,0.011912,0.71777,39.66,7.44,36.54
9.8066,0.38137,-13.443,0.087354,-1.2083,-0.36774,39.72,7.2,36.3
4.8352,-3.4051,-7.7227,-0.052534,-0.32498,-0.49694,39.84,7.14,36.36
4.5764,2.2474,-12.885,0.29841,-0.54978,-0.045509,40.08,7.14,36.54
7.8998,-4.5083,-11.032,-0.19639,0.59437,-0.47128,40.38,7.08,36.6
3.7865,-4.8352,-7.7636,0.39218,-0.697,0.5006,40.44,6.9,36.48
2.3972,2.2337,-13.021,0.8546,-0.066584,0.60323,40.44,6.78,36.6
11.032,-6.2926,-11.754,-0.44868,0.55741,-0.55803,40.5,6.66,36.84
2.2201,-11.291,-5.993,0.2248,-0.06353,0.16585,40.56,6.6,36.9
-0.81722,8.7443,-5.489,1.0782,0.5284,-0.52107,40.62,6.24,37.38
5.203,-1.4438,-6.4833,0.64019,1.0861,0.12065,40.62,6.36,37.68
10.637,-11.264,-9.1529,-0.094684,0.24709,-0.3488,40.5,6.54,37.86
3.3778,-2.8058,-8.7306,0.65912,-0.93859,0.31276,40.32,6.84,38.1
5.6388,-13.416,-6.1836,-0.58643,-1.0818,-0.68295,40.26,7.02,38.4
-1.7843,-15.514,-4.7671,0.56627,-0.34453,0.15302,40.26,7.14,38.46
-1.1032,12.667,-8.3493,0.62522,1.2898,-0.37141,40.08,7.5,39.12
12.503,-4.3177,-8.9213,-0.78679,2.4969,-0.45754,39.72,7.56,39.36
9.2482,-7.3822,-10.283,-0.032681,0.59315,-0.078496,39.48,7.74,39.54
1.9068,-1.6481,-5.3528,0.73884,-0.60628,0.32009,39.06,8.1,39.9
5.203,-14.655,-10.379,-0.54672,-0.15027,-0.21075,38.76,8.22,40.02
1.3757,-3.9499,-10.896,0.089797,0.088575,-0.20953,38.4,8.34,40.26
0.9398,6.3879,-8.0632,-0.43738,0.55558,-0.41142,38.16,8.58,40.38
2.9556,-15.228,-9.793,-0.79596,0.021686,-0.6014,37.74,8.88,40.02
0.39499,5.3392,-11.06,0.75503,-0.23427,0.18051,37.44,8.94,39.96
3.051,11.346,-6.8238,-0.43707,1.1588,-0.78374,37.02,9.0,40.2
4.0589,-4.9169,-11.182,0.35155,-0.39767,0.18173,36.66,9.12,40.32
3.7728,8.1586,-10.42,0.59926,-0.21564,-0.063835,36.24,9.18,40.44
5.8023,0.12258,-8.9213,-0.24496,0.9499,-0.11576,35.22,8.94,40.26
11.346,-6.2517,-13.607,-0.79962,-0.20372,-0.45693,34.98,8.94,40.2
3.8682,-9.8066,-5.8023,-0.25168,-1.3861,0.081856,34.44,8.88,40.2
-4.6037,5.9112,-9.0848,0.51343,-0.50641,0.30849,33.96,8.94,40.32
8.6898,4.5356,-13.539,0.17318,2.0806,-0.22816,33.3,9.06,40.44
15.677,-5.1349,-13.879,-1.0733,0.085216,-0.37324,33.0,9.12,40.62
8.1177,-15.554,-6.2926,0.26725,-2.219,0.34758,32.52,9.0,40.62
-6.1836,6.3198,-7.1779,1.0562,-1.4606,0.64446,31.98,9.18,40.44
2.9284,0.91256,-10.46,-0.13378,1.1747,-0.86682,31.8,9.36,40.68
13.797,-9.2482,-11.073,-0.83566,1.3118,-0.91049,31.74,9.48,40.56
3.228,-0.6674,-7.9679,0.53237,-0.76175,0.18784,31.68,9.66,40.8
10.297,-10.42,-8.3765,-0.8656,-0.49541,-1.3989,31.56,9.78,40.56
-3.3506,-3.514,-6.8783,-0.26848,-0.76541,-0.16096,31.68,9.9,40.5
2.3018,8.1177,-6.2245,0.4383,0.62766,-0.74434,31.8,9.84,40.38
8.3629,-8.431,-10.311,-0.11179,1.2825,-0.46976,31.92,9.9,40.5
11.278,-9.902,-12.749,-0.24007,-0.099266,-0.42119,32.04,9.78,40.5
1.185,-3.4459,-4.8625,0.18845,-1.1475,-0.41844,32.04,9.72,40.26
-2.0294,-0.50395,-5.1485,0.37782,-0.061087,-0.45845,32.22,9.72,39.9
6.3607,-4.1951,-8.5672,-0.053756,0.45387,-0.59834,32.4,9.9,39.96
1.5527,-9.8611,-7.246,-0.096211,-0.26237,-0.22785,32.64,10.26,39.72
2.4789,7.1507,-12.572,0.099571,-0.29138,-0.49969,32.88,10.32,39.96
7.641,7.4776,-9.6568,-0.48106,1.066,-0.88881,32.94,10.38,40.14
8.3084,-12.803,-6.8374,-0.55833,-0.14203,-0.61025,33.0,10.62,39.78
-1.2531,-1.076,-8.3357,-0.0076358,-0.67867,-0.13836,33.3,11.1,39.54
-0.36775,6.1836,-10.964,-0.28619,0.65576,-0.42486,33.48,11.4,39.72
10.474,-5.598,-10.61,-0.41966,1.4966,-0.52107,33.48,11.76,39.96
6.2926,0.21793,-9.2755,-0.0051924,-0.36469,-0.22144,33.18,12.0,40.2
9.1529,-11.877,-6.3335,-0.42638,-0.43463,-0.45357,32.94,12.3,40.38
-3.732,-5.993,-7.4503,0.38118,-0.63255,-0.12645,32.76,12.36,40.5
0.64016,9.9292,-9.4253,0.52382,1.1231,-0.956,32.76,12.54,40.68
12.667,-2.0294,-9.6704,0.24771,1.3085,-0.19181,32.1,12.96,40.98
6.5378,-7.2324,-7.069,0.19426,-0.72204,-0.35003,31.62,13.38,41.46
-2.0294,-2.1248,-2.9284,0.58918,-1.0586,-0.37232,31.38,13.62,41.76
-3.0101,4.7671,-9.5751,0.34208,-0.093768,-0.40653,30.84,14.1,41.94
11.659,-3.9635,-9.7522,-0.16188,1.1393,-0.07086,30.42,14.7,42.06
5.0531,-7.7636,-7.4503,0.16432,-0.85735,-0.036346,30.42,15.18,42.12
-1.7979,-0.83084,-7.8453,0.43707,-0.79718,-0.16982,30.0,15.54,42.24
5.5435,-1.7843,-8.0224,-0.41142,1.1243,-0.18692,29.76,15.78,42.36
4.2223,-4.1678,-8.9622,0.19212,-0.23396,0.24526,29.46,16.2,42.18
1.5391,-3.9771,-8.717,-0.17043,0.1686,-0.14691,29.52,16.62,42.06
-0.50395,2.6696,-11.141,0.20433,0.025351,-0.085521,29.52,16.8,41.88
9.1256,1.0079,-9.507,-0.13103,0.85124,-0.21869,29.4,16.8,41.88
2.1248,-6.4424,-6.6059,-0.25259,0.26909,0.056505,29.4,16.62,41.76
4.6718,-1.471,-9.0167,-0.019853,-0.21441,-0.068111,29.46,16.5,41.7
6.7421,-6.5786,-6.5378,-0.10232,0.69394,0.15516,29.46,16.62,41.64
4.1678,0.081722,-11.332,0.060781,-0.21258,-0.10324,29.46,16.74,41.46
5.4073,-2.3291,-7.6955,-0.13164,0.43433,-0.055283,29.64,16.62,41.34
3.3097,-4.9987,-6.5922,0.029322,-0.063225,0.0024435,29.82,16.62,41.34
5.9112,-0.35413,-8.6353,-0.072693,0.11942,-0.16646,30.0,16.56,41.22
4.9987,-2.7649,-6.9736,-0.022297,0.068722,-0.048564,30.12,16.56,41.1
4.0589,-3.2689,-7.0826,-0.05284,-0.14722,-0.042455,30.06,16.62,40.86
4.2904,-5.0668,-9.7522,-0.29627,0.010079,-0.14355,30.24,16.8,40.62
2.2474,6.0611,-9.8203,-0.17623,-0.14997,-0.28466,30.18,16.62,40.32
5.6116,3.514,-9.1393,-0.50732,0.55436,-0.1576,30.24,16.56,40.14
3.228,-1.5119,-9.112,-0.45754,-0.14722,0.075136,30.36,16.32,39.9
-0.24517,-1.4438,-8.5263,-0.35216,-0.098349,0.31368,30.36,16.32,39.66
10.951,-4.7263,-10.161,-0.75869,0.09896,0.16738,30.66,16.2,39.3
-1.3757,2.4925,-10.883,-0.27519,-0.39828,0.27886,30.54,16.02,38.76
2.0022,1.6617,-9.7794,-0.28222,-0.33689,0.24648,30.66,15.84,38.58
3.051,0.50395,-8.6353,-0.012217,0.36927,0.58643,30.84,15.6,38.28
11.073,-5.8704,-11.741,-0.26573,-0.43005,0.31734,30.9,15.42,37.86
-2.0022,-0.12258,-8.2812,0.063835,-1.0037,0.62247,31.26,15.18,37.56
1.2531,-1.471,-9.9837,-0.21197,-0.1463,0.3711,31.32,15.12,37.5
6.96,-1.4982,-8.4855,-0.13867,0.071471,0.2868,31.56,14.88,37.38
3.8409,1.1032,-7.5457,0.26328,-0.27581,0.6576,31.86,14.52,37.32
8.3357,-3.5549,-7.0417,0.19945,0.10934,0.56169,31.8,14.22,37.32
5.5707,-4.2359,-5.3528,0.27917,0.087354,0.54336,31.98,14.22,37.32
6.3743,-4.2087,-7.8317,0.2584,-0.3653,0.40348,32.22,14.16,37.56
-2.152,-1.58,-6.3471,0.73182,-0.13164,1.0241,32.46,14.1,37.86
1.1986,1.185,-11.877,0.032681,-0.30238,0.44868,32.64,13.86,37.98
6.0066,-9.9565,-8.7987,-0.34117,0.29138,-0.06689,32.76,13.92,38.46
-1.7025,1.5391,-7.2869,0.45418,-0.89278,1.0855,32.88,13.74,38.88
3.228,1.2667,-8.5127,0.25168,0.50519,0.3427,32.76,13.62,39.36
12.19,-10.883,-9.0712,-0.61545,1.0437,-0.14355,32.76,13.44,39.6
9.4934,-9.8339,-8.9349,0.29902,-0.51801,0.49908,32.64,13.2,39.66
3.4732,2.3836,-9.0984,0.53054,-0.58674,0.3711,32.58,12.66,40.32
3.7184,-2.4517,-8.7715,0.33353,0.23946,0.023824,32.46,12.24,40.68
5.8704,-4.3585,-5.993,0.19151,0.19639,-0.1408,32.22,11.88,40.8
5.1757,-6.5786,-6.0747,0.4441,-0.26542,-0.046731,32.16,11.82,41.1
2.0294,2.3427,-6.8783,0.71166,-0.14569,0.22449,32.04,11.58,41.4
3.5004,-0.7355,-7.3141,0.52137,0.343,0.033903,31.62,11.76,41.76
4.9987,-4.8216,-5.8295,0.24832,-0.16493,-0.0064141,31.62,11.58,41.82
2.4789,-5.6116,-7.8045,0.31551,-0.39828,0.086743,31.44,11.88,42.24
2.7649,-6.2517,-8.1722,-0.20372,-0.32895,-0.16371,31.32,12.18,42.66
-0.12258,-1.7025,-10.229,0.045815,0.5962,-0.11759,31.38,12.48,42.72
5.5707,-0.89894,-5.993,-0.37782,0.6017,-0.18998,31.32,12.84,42.6
4.3585,-9.3436,-6.1973,-0.1124,0.03879,0.10171,31.32,12.9,42.66
3.9227,-8.54,-9.1393,-0.46059,-0.40225,0.135,31.38,12.9,42.66
3.2553,-9.0303,-9.2482,-0.081551,0.10843,-0.000916,31.32,13.02,42.36
2.6832,6.565,-7.0417,0.33903,0.98899,-0.042761,31.5,12.96,42.12
8.322,-7.8998,-8.2403,-0.29658,1.1845,-0.37843,31.56,12.84,41.82
6.4152,-4.2495,-9.3163,0.059254,-0.26939,0.05284,31.44,12.54,41.52
2.0431,0.49033,-8.826,0.21197,0.13897,0.2584,31.38,12.36,41.4
1.9886,-1.9613,-7.4503,-0.025656,0.40745,0.23457,31.26,12.36,40.98
3.0918,-0.027241,-9.3844,0.25107,0.68997,0.25107,30.84,12.36,40.74
4.5764,-0.58567,-9.4117,0.07025,0.45754,0.20647,30.78,12.48,40.74
5.7478,-9.7385,-9.6841,-0.55803,-0.33292,-0.19914,30.6,12.66,40.38
-1.8387,8.7987,-8.9894,0.24648,-0.28466,0.2587,30.18,12.9,40.32
10.529,-9.112,-6.5241,-0.91844,0.63897,-0.45509,29.58,12.84,40.32
7.1507,-11.482,-8.145,-0.49847,0.35949,0.11912,29.34,12.9,40.14
4.9578,3.514,-9.793,-0.10782,-0.42516,0.22877,28.98,13.02,39.96
5.6252,-3.909,-7.9407,-0.6298,0.32193,-0.12584,28.68,13.32,39.78
6.4697,2.1793,-10.215,-0.06017,0.61087,0.32284,28.2,13.26,39.66
11.196,-8.7443,-6.8647,-0.74648,0.041844,-0.46976,28.02,13.2,39.54
4.5901,-6.1564,-11.536,-0.2303,-0.77244,0.69975,27.72,13.2,39.48
-1.9886,-4.2495,-6.6331,-0.047342,-0.25504,-0.55833,27.72,13.02,39.42
3.4459,0.88532,-9.0439,0.090713,0.11118,0.35186,27.72,12.9,39.42
4.9306,-5.4754,-10.093,-0.017715,0.80695,-0.6127,27.66,12.84,39.06
3.6639,-8.4174,-5.6116,-0.18723,-0.087048,-0.39492,27.6,13.02,39.0
-2.9284,-4.5492,-8.9349,0.23488,-0.48197,0.17532,27.66,13.14,39.06
2.8467,-1.7298,-7.7364,-0.24282,0.87751,-1.1295,27.48,13.44,38.82
1.1169,-2.5061,-9.0984,-0.43402,0.31368,-0.15027,27.36,13.38,38.58
2.5742,-4.3721,-3.732,0.17165,0.66432,-0.72876,27.12,13.74,38.58
7.1234,-0.49033,-12.19,-0.50305,-0.61606,0.4725,26.82,14.16,38.28
7.0962,-6.5514,-5.9385,-0.58185,1.025,-1.2993,26.7,14.28,38.16
0.8036,4.4811,-8.0905,0.15149,-0.88239,0.88392,25.86,14.58,38.28
6.3743,-5.2983,-8.1041,-0.63652,1.3809,-0.40836,25.38,14.7,38.1
6.7285,0.47671,-13.62,-0.48747,1.1622,0.11209,25.02,14.76,38.28
8.3493,2.3972,-11.877,-0.44685,-0.047647,-0.24801,24.48,14.82,38.34
4.699,-5.3664,-7.8998,-0.54764,-0.38057,0.019242,23.7,14.76,38.4
3.732,-1.5119,-8.9349,-0.48228,-0.11087,-0.26267,23.28,14.76,38.28
4.3858,2.8058,-10.379,-0.19731,0.15058,-0.086437,22.38,14.52,38.46
8.5808,2.9556,-12.217,-0.21838,0.42822,-0.10568,22.08,14.46,38.7
9.2346,-0.89894,-9.8339,-0.14478,-0.24832,-0.078496,21.66,14.34,38.64
2.7513,-2.9148,-6.8919,0.014355,-0.75564,-0.2138,21.3,13.92,38.58
1.2939,3.2689,-6.8647,0.25076,-0.53756,-0.3992,21.0,13.8,38.82
4.6582,0.21793,-9.3708,0.18082,-0.14905,-0.023824,20.76,13.56,39.06
1.7979,-4.2632,-9.0303,0.27397,-0.94104,-0.15882,20.52,13.44,39.18
-0.7355,7.927,-8.0224,0.30085,-0.75381,-0.57146,20.58,13.44,39.42
6.7421,-2.8875,-5.3119,-0.14203,0.5287,-0.12126,20.7,13.38,39.48
0.72188,7.1915,-9.0712,0.51099,-1.0763,-0.18509,20.88,13.32,39.78
5.3392,2.9829,-5.2166,0.13897,-0.08827,-0.1179,21.0,13.26,39.9
3.4187,-8.2812,-7.1234,0.29291,-0.41905,0.42761,21.06,13.14,40.26
9.3299,-2.5198,-9.5479,-0.49724,0.4777,-0.41692,21.6,13.2,40.62
1.8387,-6.0611,-6.2517,0.14447,-0.71777,0.36713,21.84,13.26,40.74
-2.6151,0.58567,-7.8045,0.083078,-0.49908,-0.17593,22.2,13.26,40.98
4.4811,-2.6696,-8.0088,-0.33506,0.967,0.20647,22.44,13.14,41.34
3.6094,-1.9613,-8.2539,0.17532,-0.22205,0.080023,22.74,13.2,41.46
3.9908,2.0975,-8.1177,0.1066,-0.072693,0.17685,22.92,13.26,41.46
5.884,-7.8453,-10.12,-0.15485,0.20586,0.38332,23.46,13.02,41.58
0.84446,-1.2803,-10.569,0.013439,-0.42547,0.07025,23.64,12.96,41.58
-0.6674,1.9886,-9.1529,-0.036041,0.36835,0.35064,23.88,12.78,41.52
6.5241,-3.8409,-8.54,-0.037568,0.48167,0.38637,24.42,12.78,41.22
1.6208,2.1656,-10.243,0.3262,-0.36011,0.40989,24.54,12.72,41.1
7.8589,-2.9965,-7.8181,0.094073,0.21777,0.35247,24.78,12.66,40.8
2.3155,-3.8273,-7.6955,0.25626,-0.60231,0.35155,25.32,12.6,40.26
1.6072,-2.0567,-7.8589,0.13347,-0.16493,0.3091,25.5,12.66,39.9
9.0984,-2.7104,-9.9292,-0.18662,0.054367,0.26114,25.62,12.66,39.72
3.514,0.6674,-11.182,-0.080634,-0.57238,0.49633,26.16,12.72,39.36
7.0962,-7.9951,-5.7069,-0.49724,0.43066,0.30788,26.52,12.72,39.18
3.4051,-3.8546,-12.667,-0.22419,-0.75595,0.35003,27.36,12.84,38.82
2.656,-6.0338,-5.6933,-0.76633,0.11698,0.44593,27.54,12.84,38.64
-3.5822,4.6445,-6.6331,-0.14355,-0.3711,0.55467,27.9,12.84,38.4
8.5536,1.6344,-13.375,-0.76816,0.80756,-0.067501,28.32,12.84,38.16
1.6344,2.2882,-8.826,0.058643,-0.5452,0.86346,28.92,12.54,37.74
6.0883,-4.7671,-7.0962,-0.36011,0.5733,0.085827,29.4,12.48,37.56
3.909,-2.6423,-8.6898,0.012217,-0.11515,0.46578,29.76,12.42,37.44
3.514,-0.7355,-8.9349,-0.033292,0.043982,0.38485,30.36,12.06,37.38
-1.3757,4.8488,-10.76,0.28802,0.18601,0.55131,30.6,11.94,37.56
9.3163,1.8387,-14.261,-0.8375,0.51618,-0.47373,30.9,11.64,37.62
-0.50395,-7.5729,-3.7456,-0.052534,-0.61056,0.66829,31.44,11.22,37.5
-3.9227,5.6661,-9.1393,0.38393,-1.12,0.405,31.62,10.86,37.56
10.569,-4.6173,-9.8884,-0.80359,1.0293,-0.72204,31.74,10.56,37.44
2.261,3.8954,-9.5615,0.06353,-0.35583,0.70585,31.98,10.14,37.74
2.6423,1.3484,-8.7443,0.15058,0.16524,0.27642,32.1,9.96,37.92
10.774,-6.6059,-11.032,-0.47067,0.29963,-0.063835,32.16,9.78,38.1
-3.051,-2.833,-6.2654,0.58949,-1.4294,0.78007,32.4,9.42,38.4
-5.4618,11.128,-9.507,0.72357,-0.54062,0.032987,32.58,9.12,38.76
6.3607,0.44947,-9.1801,-0.73182,1.6832,-0.69944,32.58,8.88,39.0
12.544,-10.542,-8.6762,-0.24984,0.28283,-0.281,32.64,8.58,39.18
3.8001,4.1951,-11.223,0.48869,-1.4606,0.38454,32.64,8.16,39.36
3.8001,4.1951,-11.223,-0.47861,-0.1124,-0.48686,32.64,8.16,39.36
-2.833,0.47671,-7.927,0.77977,-0.33903,0.75503,32.82,7.92,39.48
7.9134,4.7807,-6.0066,0.025656,2.853,-0.058338,32.76,7.56,40.08
14.233,-8.9758,-5.4481,-1.0589,0.44013,0.1854,32.64,7.32,40.2
-0.095342,-6.96,-6.3062,-0.2248,-1.8531,-0.32742,32.58,6.9,40.44
-0.69464,7.4367,-8.145,0.76786,-0.37538,0.28344,32.58,6.66,40.92
4.0044,-1.3484,-10.828,-0.89278,1.0192,-0.37354,32.64,6.36,41.1
2.547,-5.6388,-9.1937,0.43738,0.50855,-0.25992,32.46,6.06,41.64
7.0962,6.8919,-6.4152,0.79687,0.25779,0.20067,32.04,5.94,41.7
8.5263,-6.4424,-10.61,-0.33995,0.42302,-0.54,31.74,5.7,41.82
6.0747,-7.9951,-9.0031,0.088575,-1.4566,-0.16646,31.62,5.7,41.7
-2.8603,2.6968,-8.6353,0.83383,-0.25473,0.18876,31.86,5.82,41.46
3.9908,1.4438,-9.9973,-0.0094684,1.1307,-0.18723,32.16,6.18,41.7
11.223,-9.3844,-10.256,-0.44685,0.75381,-0.3262,32.28,6.36,41.58
6.4833,-9.3436,-6.5786,0.23824,-0.71807,0.0079412,32.28,6.54,41.46
-1.2667,-2.6151,-4.413,0.72418,-0.75014,0.41753,32.4,7.02,41.22
-0.61292,-0.88532,-6.2517,0.5678,0.55253,-0.16646,32.52,7.26,41.16
2.6423,6.2245,-10.597,0.42577,1.7013,-0.10629,32.34,7.5,41.04
10.256,-8.0905,-6.7012,0.0048869,1.2214,-0.3882,32.34,7.98,41.04
4.9987,-17.121,-6.7693,-0.29719,-1.4401,0.26603,32.28,8.4,40.86
-2.6968,-7.9815,-1.1441,0.33384,-0.98166,0.043982,32.34,8.7,40.8
-6.1019,-0.99429,-3.8001,0.32406,0.76175,-0.18479,32.1,9.18,40.74
15.159,-5.0531,-12.912,-0.88392,2.6411,-0.77733,31.68,9.66,40.5
10.093,-10.038,-8.9213,-0.10293,-0.07758,0.13561,31.26,9.78,40.26
2.4789,0.49033,-8.7034,0.051313,-0.82436,0.30177,31.02,10.02,40.02
4.1814,-16.903,-7.5457,-0.97433,0.35308,-0.59834,30.66,10.62,39.42
2.3699,-6.3879,-7.6002,-0.28497,0.031765,-0.13408,30.6,10.74,39.18
-0.40861,5.6933,-8.322,-0.29963,0.87232,-0.35858,30.24,10.86,38.94
13.729,-1.1713,-13.048,-0.67409,1.3329,-0.042761,29.34,10.74,38.46
8.2812,-5.4209,-7.0962,-0.53756,0.7813,-0.51526,29.04,10.62,38.16
-2.6015,2.261,-3.7728,0.18906,-0.062308,0.56902,28.92,10.8,37.92
10.065,-7.1507,-14.71,-1.1112,0.081245,0.039095,28.26,10.8,37.56
5.8023,-7.6274,-9.7249,-1.2153,0.45357,-1.1377,27.84,10.56,37.32
-8.2403,6.4016,-12.027,-0.079412,-2.7187,0.092852,27.6,10.32,37.26
3.0918,0.50395,-1.8796,-0.60353,1.8763,-1.401,27.18,10.2,37.02
10.964,-6.0883,-9.902,-0.89919,-0.67226,0.11973,26.94,9.96,37.02
6.5786,-0.57205,-8.8668,-0.39798,-1.1243,-0.37324,26.34,9.54,36.84
-8.9622,10.093,-6.565,0.13744,-1.8506,-0.089797,26.04,9.3,37.08
-2.8875,8.4991,-6.0611,-0.72388,1.1677,-0.21105,25.74,9.06,37.02
15.827,-5.6797,-11.114,-1.098,0.93218,-0.14386,25.68,8.7,36.96
5.9249,-0.44947,-6.3607,0.21441,-1.7776,0.000611,25.92,8.52,36.9
-6.7012,3.1463,-2.3427,1.0339,-1.4303,-0.096211,26.22,8.52,37.14
12.708,-5.7478,-14.07,0.35461,-0.26695,0.31368,26.7,8.34,37.2
17.066,-9.9973,-13.648,-0.43646,0.28497,-0.20617,27.12,8.16,37.38
6.0883,-2.3155,-5.38,1.4215,-2.1118,-0.097433,27.24,8.28,37.68
-4.8761,7.3277,-11.591,0.53237,-1.6603,0.012217,28.02,8.52,37.92
15.282,-3.2008,-12.19,-0.9893,1.4459,-0.87415,28.5,8.46,37.98
15.159,-11.101,-5.2847,0.20922,-0.47037,-0.27672,29.04,8.52,38.04
-6.6059,1.2939,-5.8567,0.59223,-2.0036,-0.31185,30.18,8.76,38.28
-0.21793,0.24517,-11.686,-0.26909,0.55283,0.18143,30.78,8.88,38.22
5.993,2.1793,-10.842,-0.051313,1.3689,-0.065973,31.32,9.06,38.4
9.902,-9.0167,-6.1292,0.069944,-0.4383,-0.019242,32.22,9.66,38.58
-1.3757,-5.0804,-6.8647,0.624,-1.5382,0.30635,32.76,9.96,38.7
-0.43585,1.3757,-9.4117,0.40225,-0.47525,-0.50793,33.24,10.14,38.76
5.203,-5.0668,-5.8023,0.20281,0.20281,-0.14233,33.96,10.56,38.82
3.6366,0.54481,-13.198,0.42241,-0.15699,-0.089492,34.2,10.74,38.88
13.866,-3.0918,-14.152,-0.59254,-0.074526,-0.54978,34.68,10.8,38.82
-1.1713,-4.9714,-7.4095,0.035125,-1.2159,0.87262,35.34,11.04,38.82
-2.3291,1.4165,-9.8748,-0.16982,0.58551,-0.35888,35.52,11.22,38.94
4.5901,-0.70826,-9.902,-0.21655,1.3381,0.28283,35.76,11.4,38.88
3.228,-2.1112,-8.54,0.52382,-0.031765,0.4328,35.88,11.4,38.7
-2.152,-0.51757,-5.8023,0.61148,-0.11545,0.36988,35.88,11.52,38.7
0.054481,0.96704,-9.1937,0.40897,0.6857,0.13744,36.0,11.7,38.4
6.2926,-4.413,-7.5729,0.4273,0.49999,0.013134,35.7,11.88,38.34
1.6481,2.3155,-9.5887,0.49602,-0.70738,0.30116,35.52,12.0,38.4
4.8488,-4.7126,-7.8181,-0.23854,0.40012,-0.087659,35.4,12.18,38.22
6.0202,-0.14982,-11.032,-0.44349,-0.16707,0.22969,34.92,12.3,37.98
9.4389,-9.7385,-9.3436,-0.92668,0.20036,0.13775,34.8,12.3,37.92
3.228,-4.6173,-7.641,-0.47312,-0.28069,0.43158,34.5,12.36,37.98
7.3958,0.21793,-11.659,-0.36194,0.54092,0.14997,34.14,12.18,37.74
14.288,-9.5751,-11.482,-0.61972,0.32132,-0.34819,33.96,12.12,37.62
3.6366,-5.4481,-5.8023,0.36591,-0.90255,0.70036,33.78,12.0,37.5
3.6094,1.7979,-10.188,0.032987,0.61514,-0.17593,33.6,12.0,37.8
5.0531,-1.5119,-8.6489,0.25443,0.16402,0.29688,33.48,12.0,37.74
5.0123,-1.7843,-10.774,0.12034,-0.31643,0.3824,33.24,11.88,37.8
0.040861,-3.5958,-3.7592,0.4215,-0.23152,0.72601,33.6,11.64,38.04
0.92618,-0.46309,-7.246,0.6295,0.2865,0.65668,33.54,11.46,38.1
4.6718,-1.2803,-7.5321,0.44166,1.0592,0.1573,33.48,11.4,38.28
9.3844,-6.6331,-8.717,0.35003,0.53176,0.28833,33.48,11.22,38.7
7.4095,-10.583,-8.4991,-0.027794,-0.57666,0.16952,33.42,11.1,38.82
0.1362,-5.8976,-6.9055,0.26359,-0.43188,0.39004,33.36,11.22,38.88
7.1643,-9.0575,-7.7364,-0.759,0.65271,-0.33445,33.12,11.04,39.3
0.6674,-3.6094,-5.7205,-0.047647,1.0156,0.14905,33.0,10.98,39.42
1.9613,5.6933,-9.6977,-0.028711,0.7083,0.40012,32.82,11.04,39.66
11.741,-6.8647,-10.501,-0.76236,0.98655,-0.14905,32.52,10.92,39.72
3.4596,-3.9908,-2.9011,-0.035736,0.18937,0.36102,31.92,10.5,40.2
3.4596,-3.9908,-2.9011,-0.035736,0.18937,0.36102,31.92,10.5,40.2
3.9635,-2.0567,-12.177,0.2755,0.50274,0.42852,31.26,10.26,40.26
5.0804,2.3836,-10.542,-0.044899,0.68111,0.26756,30.9,10.2,40.26
3.3778,-9.6977,-5.2711,-0.1857,-0.10873,0.49999,30.42,9.9,40.08
2.1248,-2.4108,-7.3277,0.19364,-0.39004,0.54886,30.18,9.78,40.08
6.3335,1.6617,-11.278,0.033292,0.79412,0.25901,29.82,9.6,40.02
10.801,-1.0896,-12.299,-0.31215,0.90103,-0.01069,29.58,9.48,39.9
5.6933,-3.9635,-6.8647,-0.31887,-0.29077,0.058948,29.28,9.42,39.84
3.1599,-3.4459,-9.1256,-0.25076,-0.64019,0.23213,29.04,9.18,39.84
7.069,0.40861,-11.509,-0.44379,0.7929,-0.35949,28.92,9.12,39.9
7.7908,0.027241,-8.4719,-0.30421,0.18784,-0.022907,28.74,9.06,39.78
4.9578,-3.0918,-7.2733,-0.16585,-0.22083,0.13225,28.5,9.12,39.72
5.8704,0.57205,-12.422,-0.31521,-0.087354,-0.096211,28.56,9.06,39.78
9.9973,-7.4776,-10.719,-0.53878,-0.32865,-0.26512,28.38,8.88,39.66
-1.6753,2.5198,-6.7012,0.56872,-0.70372,0.63958,28.56,8.76,39.66
5.884,3.5277,-10.283,-0.096211,0.59437,-0.58765,28.5,8.64,39.54
7.5865,-5.5162,-7.0826,-0.038179,0.46242,-0.23305,28.68,8.64,39.48
4.2087,6.4424,-9.9565,0.50549,-0.26878,-0.15913,28.62,8.52,39.6
11.332,-4.6718,-8.8668,-0.1744,0.1069,-0.52412,28.56,8.52,39.54
5.2847,-12.367,-5.9521,-0.032681,-0.83108,0.20464,28.74,8.7,39.48
2.7786,0.40861,-6.9055,0.24435,-0.99602,-0.10904,28.86,8.82,39.6
5.3119,-2.3427,-6.4424,-0.61545,0.89492,-1.1945,28.98,8.94,39.48
7.2869,-4.413,-9.6568,-0.31215,0.1124,-0.046426,29.1,9.12,39.42
3.3506,-4.304,-8.4855,-0.21686,-0.28802,-0.30238,29.34,9.18,39.36
2.3972,-2.1929,-8.8668,-0.051924,-0.27917,-0.20464,29.34,9.3,39.3
1.1713,0.57205,-8.1586,-0.0061087,-0.050091,-0.46701,29.7,9.36,39.3
7.8317,-5.1076,-9.4798,-0.3146,0.36682,-0.5681,30.06,9.48,39.0
6.6604,-3.6775,-9.5342,-0.17807,-0.24832,-0.36713,30.12,9.6,39.0
4.9033,-1.5527,-7.8589,-0.035125,-0.41783,-0.63805,30.12,9.6,39.06
3.9227,-4.2768,-7.4776,-0.002138,-0.064752,-0.44471,30.18,9.78,38.7
3.7047,-1.9341,-8.1722,-0.0281,0.098655,-0.51954,30.36,9.9,38.64
3.8273,0.92618,-6.7285,0.23671,0.42486,-0.32376,30.3,9.78,38.58
7.8862,-2.833,-10.924,-0.17654,0.50916,-0.17562,30.42,9.78,38.34
10.583,-4.8761,-8.0088,-0.31643,0.3821,-0.80512,30.36,9.84,38.34
0.43585,-1.4165,-6.3743,0.27581,-0.25687,-0.096517,30.42,9.9,38.4
1.3757,-1.7706,-7.8045,0.27092,-0.45601,-0.22358,30.36,10.2,38.58
5.6388,-3.2416,-7.8998,-0.12981,1.0611,-0.37782,30.36,10.26,38.64
5.4073,-2.5879,-10.12,-0.15944,0.43158,-0.12126,30.06,10.38,38.76
5.775,-2.0839,-8.6353,0.10232,0.28986,-0.47403,29.46,10.44,39.0
4.4266,-0.96704,-7.2324,0.19426,0.007025,-0.14936,29.28,10.5,39.12
1.7025,0.46309,-8.8124,0.29688,-0.0018326,-0.20372,28.92,10.62,39.3
11.536,-5.8295,-9.1665,0.049786,0.22449,-0.08094,28.56,10.92,39.84
6.3198,-5.6524,-7.9815,0.060476,0.47647,-0.44104,28.2,10.98,39.96
5.094,-1.1713,-6.7557,0.58307,-0.54825,-0.1518,27.96,11.04,40.2
3.514,-1.5255,-7.6819,0.42089,-0.096822,-0.086743,27.42,11.34,40.5
9.3436,-4.2632,-9.3572,-0.146,0.81001,-0.39156,27.3,11.46,40.68
4.0316,-1.0488,-9.1256,0.33689,0.15333,-0.24618,26.94,11.52,40.74
3.909,1.9068,-8.7987,0.14813,-0.46762,0.017715,26.1,12.0,40.98
7.246,0.46309,-7.8589,0.022297,1.4691,-0.53695,25.62,12.18,40.98
8.1177,-4.7535,-6.8919,0.24496,0.88545,-0.47464,25.14,12.42,41.16
3.2689,-1.9341,-7.7091,-0.021991,-0.046731,-0.15272,24.24,13.32,41.76
1.8932,1.076,-6.9872,-0.0281,-0.1686,-0.0058032,23.7,13.74,42.18
4.4947,0.65378,-7.2596,0.16646,1.0956,-0.17898,23.28,14.1,42.36
5.1213,-3.3097,-4.8352,0.083994,2.3598,-0.55589,21.96,14.82,43.02
5.6252,-3.3097,-4.304,0.12126,0.30574,0.52993,21.42,15.24,43.2
6.6467,-1.8115,-3.8546,0.20647,0.028405,0.4386,20.7,15.54,43.44
10.501,-2.5879,-7.8453,0.029932,0.64171,-0.13164,19.32,16.56,43.74
7.464,-3.9499,-7.6819,0.21472,0.33445,0.01741,18.66,16.98,43.86
5.5843,-4.3721,-7.1779,0.33903,-0.40775,0.78038,18.18,17.34,43.92
5.5571,-3.3778,-6.674,-0.041539,0.46426,0.4163,17.52,17.7,43.86
4.6582,-2.9011,-7.1507,0.20067,0.44563,0.75503,17.22,18.0,43.98
1.7706,0.64016,-7.1371,0.34208,-0.074831,0.93859,16.98,18.24,43.86
15.268,-3.0646,-9.9837,-0.081551,0.9783,-0.30024,16.8,18.24,43.2
1.4165,-5.0531,-10.297,0.5455,-1.1096,0.032987,16.92,18.42,42.78
1.5527,-3.9227,-6.5105,0.078496,-0.58521,0.7309,17.1,18.6,42.66
2.9829,-3.5413,-6.7693,-0.1576,1.0938,0.53298,17.34,18.9,42.06
8.322,-4.9033,-6.7693,-0.6411,2.1478,0.19273,17.34,19.14,41.88
9.1393,-4.7535,-5.7342,-0.61789,1.7776,0.099571,17.52,19.44,41.58
7.9951,-2.9284,-5.5707,-0.14844,0.15272,0.27642,17.34,19.62,41.4
6.4833,-4.304,-5.2983,-0.013744,0.18173,0.033292,17.16,19.86,41.28
5.3256,-4.8216,-3.732,0.017104,0.31001,0.18876,16.92,20.16,41.22
9.9292,-3.7184,-6.96,-0.34606,0.64568,0.32162,16.2,20.52,41.28
9.7794,-4.0997,-5.38,0.12584,-0.13042,-0.01069,15.84,20.7,41.16
7.5729,-1.8387,-4.808,0.15821,-0.53023,0.074831,15.6,20.76,41.16
5.1485,-0.8036,-8.9486,-0.084605,-0.10049,-0.12706,14.82,21.3,41.4
12.231,-4.6445,-7.5321,-0.32009,0.014966,0.29566,14.52,21.3,41.4
3.6094,-4.2495,-2.8058,0.35216,-0.97708,0.20464,13.98,21.42,41.16
7.927,1.7025,-8.5127,-0.551,-0.37477,0.3485,13.5,21.18,40.74
7.0553,-0.29965,-8.145,0.063835,-0.43616,0.36163,13.44,21.0,40.5
8.2539,-6.0883,-6.3198,-0.033292,-0.40561,0.20708,13.32,20.76,39.9
5.5162,-6.1292,-6.2926,0.068417,-0.46456,0.35155,13.44,20.64,39.78
7.2324,-4.3721,-7.3822,-0.30757,-0.19334,0.096517,13.74,20.64,39.6
9.4661,-1.185,-6.7693,-0.40775,-0.072388,-0.18784,14.34,20.28,39.12
6.6876,-0.39499,-4.0725,0.13378,-0.90591,-0.08827,14.64,20.34,38.76
9.7113,-1.4438,-6.96,-0.038485,-0.63866,-0.076358,15.0,20.28,38.64
7.9679,-4.5356,-5.9112,0.23976,-0.36194,0.081551,15.48,20.04,38.22
4.9578,-3.7728,-4.9442,0.040928,-0.5058,0.023824,15.78,19.92,38.16
4.8625,-2.0294,-8.0905,-0.34117,-0.1857,0.010996,15.9,19.98,37.8
4.6718,-1.7298,-7.2869,0.18143,-0.25962,0.1576,16.56,19.8,37.8
