Ax,Ay,Az,Gx,Gy,Gz,Mx,My,Mz
3.5277,-0.31327,-8.1995,0.0079412,-0.34147,-0.99418,-24.66,9.66,24.66
4.9306,-1.2258,-9.2482,0.21258,-0.11851,-0.7813,-24.78,8.58,25.14
6.2381,-3.1054,-9.8748,0.1741,-0.16952,-0.81886,-24.66,8.16,25.32
5.9249,-3.5685,-9.6568,0.13317,-0.18204,-0.89309,-24.6,7.74,25.5
2.0839,-3.1463,-7.7908,0.060781,0.1066,-0.86315,-24.66,6.96,25.8
3.0918,-3.1872,-7.1915,0.047647,0.46029,-0.81459,-24.72,6.66,25.86
4.1406,-2.9692,-6.7966,0.093462,0.45876,-0.84086,-24.72,6.18,25.98
5.0123,-3.6775,-8.0224,0.11729,0.10629,-0.95234,-24.78,5.58,26.04
2.4789,-2.9965,-7.8453,0.095295,0.14813,-0.9502,-24.96,5.28,25.98
1.6208,-2.4653,-7.7364,0.062919,0.43127,-0.88423,-24.96,4.86,25.98
1.1305,-2.6151,-7.6002,0.071166,0.65454,-0.61911,-25.08,4.5,26.1
4.1542,-3.732,-9.0848,0.10324,0.47647,-0.6579,-25.5,4.02,26.1
4.5492,-4.0997,-10.12,0.043677,0.35827,-0.74709,-25.68,3.84,25.98
1.2122,-1.4574,-8.5263,0.011912,0.69425,-0.72968,-25.74,3.66,25.8
2.3427,-0.83084,-8.3765,0.16738,1.0177,-0.44715,-26.28,3.06,25.08
5.9521,-2.3972,-8.6762,0.32162,0.80695,-0.34208,-26.46,2.82,24.84
6.1564,-2.0158,-9.2618,0.39951,0.62766,-0.29658,-26.7,2.58,24.6
5.2575,-2.7513,-7.6138,0.27947,0.78985,-0.18173,-27.24,1.86,24.0
6.4424,-3.9635,-5.38,0.1857,0.95173,-0.12584,-27.54,1.62,23.64
4.8897,-1.6481,-6.279,0.37568,0.91263,-0.11881,-27.9,1.32,22.92
5.993,-2.0294,-8.1858,0.44502,1.1894,0.018937,-28.2,1.32,22.38
6.2926,-0.95342,-9.4389,0.41692,1.2107,0.16249,-28.56,1.26,21.84
6.4016,-1.8796,-9.3163,0.43738,1.2269,0.27397,-28.86,1.14,21.24
4.808,-2.6015,-8.6489,0.46731,1.1613,0.36591,-28.92,1.14,20.58
6.8374,-2.833,-7.3005,0.41569,1.2025,0.4047,-29.52,1.26,19.32
6.1428,-1.471,-6.1836,0.40684,1.2358,0.354,-29.82,1.26,18.6
7.2324,-0.99429,-6.96,0.41111,1.1622,0.37049,-30.36,1.74,17.28
6.3062,-0.25879,-8.1858,0.16157,1.0311,0.28833,-30.72,1.92,16.68
6.7285,-0.76274,-8.5127,-0.11179,1.0653,0.29505,-31.02,1.98,15.84
5.4481,0.21793,-6.8919,-0.30146,1.0412,0.40134,-31.38,2.22,15.12
6.7557,0.6674,-7.3822,-0.40195,0.9053,0.34331,-31.8,2.76,13.14
7.1371,-0.38137,-7.4503,-0.59559,0.74984,0.26786,-32.16,2.88,12.3
9.112,-1.6753,-7.4776,-0.66737,0.70494,0.23274,-32.64,3.12,10.8
7.1234,-1.1577,-6.4152,-0.75442,0.60751,0.14142,-32.88,3.24,10.14
6.851,0.027241,-6.7012,-0.76144,0.58429,0.135,-33.0,3.36,9.42
9.1256,-0.5993,-6.4424,-0.74098,0.53939,-0.0094684,-33.42,3.54,8.76
7.4503,1.5119,-9.5751,-0.76144,0.25015,0.062003,-33.78,3.54,7.44
8.8941,0.35413,-8.322,-0.82803,0.38943,0.1744,-34.02,3.6,6.9
5.7478,0.35413,-9.3844,-0.74312,0.15669,0.23671,-34.26,3.66,5.82
5.8704,1.6753,-10.406,-0.71807,0.11729,0.38698,-34.44,3.78,5.34
7.8181,0.35413,-10.515,-0.61025,-0.18509,0.41844,-34.5,3.96,4.98
9.2074,-2.0294,-9.616,-0.50824,-0.33017,0.3204,-34.56,3.9,4.62
6.5241,-0.27241,-8.9349,-0.39462,-0.44654,0.33842,-34.62,3.9,4.56
7.6683,-0.46309,-7.1234,-0.26298,-0.30818,0.37171,-34.56,4.2,4.26
7.5457,-0.27241,-7.3414,-0.097433,-0.67226,0.40409,-34.38,4.26,4.2
7.7908,-0.91256,-6.5786,-0.11851,-0.48167,0.40103,-34.26,4.68,4.08
7.75,-1.9068,-5.38,-0.10812,-0.53939,0.35919,-33.96,4.86,4.02
7.0145,-1.8387,-5.7478,-0.054062,-0.62247,0.33323,-33.78,4.92,4.2
5.5026,-0.96704,-6.6604,-0.069028,-0.61423,0.36346,-33.6,5.1,4.5
3.8409,0.92618,-7.5048,-0.10079,-0.54672,0.45051,-33.3,5.28,4.98
5.7478,0.8036,-9.0439,-0.23243,-0.59651,0.45968,-32.94,5.46,5.46
6.6331,0.25879,-8.8668,-0.34758,-0.52321,0.52473,-32.64,5.82,5.64
7.0009,-0.44947,-8.2403,-0.41172,-0.49541,0.55925,-32.58,5.94,5.88
7.8998,-1.3212,-6.7966,-0.45265,-0.41875,0.54642,-32.34,6.18,6.48
8.0632,-2.9692,-5.5026,-0.3989,-0.49602,0.46517,-32.28,6.3,6.84
5.2711,-1.2803,-5.7069,-0.30391,-0.78313,0.36346,-32.28,6.6,7.32
4.4811,-1.185,-5.7069,-0.15455,-0.84452,0.48808,-32.16,6.84,7.56
7.1643,-3.2553,-6.7148,-0.053145,-0.55558,0.46609,-31.74,7.02,8.1
7.2324,-3.0237,-7.0553,0.077885,-0.55467,0.4948,-31.5,7.2,8.28
5.9249,-3.0918,-7.641,0.10537,-0.51099,0.60628,-31.26,7.56,8.88
5.8567,-4.7399,-7.4503,0.091324,-0.24923,0.66065,-31.08,7.8,9.36
5.6252,-3.4187,-7.8589,0.067806,-0.019853,0.64049,-30.6,8.22,10.02
4.0589,-2.6287,-7.3414,0.10599,-0.15669,0.72998,-30.54,8.4,10.2
6.0202,-3.7047,-7.8317,0.20831,0.15272,0.69211,-30.3,8.94,10.68
5.6116,-3.4187,-7.7364,0.27122,0.14722,0.49297,-29.88,9.48,11.1
2.9148,-2.2337,-7.1234,0.25595,0.13806,0.58949,-29.64,9.84,11.22
3.8273,-1.8251,-7.3822,0.19884,0.28375,0.61056,-29.4,10.38,11.34
6.8783,-1.7298,-8.1041,0.093768,0.38851,0.54245,-29.46,10.92,11.4
6.9191,-1.4982,-7.75,-0.026573,0.35552,0.52687,-29.28,11.28,11.34
5.2302,-1.2667,-6.6876,-0.10293,0.49877,0.64721,-29.22,11.76,11.22
7.0417,-1.6344,-7.5048,-0.22877,0.39859,0.69425,-29.28,12.48,11.1
9.902,-2.4789,-8.4446,-0.30177,-0.06689,0.57788,-29.34,12.72,10.86
6.4833,-1.7706,-8.2267,-0.32254,-0.61636,0.54947,-29.22,13.14,10.5
5.7342,-2.4789,-8.4719,-0.28191,-0.80573,0.58002,-29.04,13.38,10.32
5.6661,-2.6423,-9.0848,-0.25687,-0.64232,0.55161,-29.04,13.5,10.2
5.598,-1.362,-8.7306,-0.24557,-0.53817,0.53054,-28.92,13.92,10.2
7.0145,-0.50395,-8.9894,-0.070555,-0.47098,0.46792,-28.62,14.22,10.26
6.1292,0.1362,-8.9894,-0.029932,-0.75808,0.35216,-28.44,14.52,10.38
6.8374,-0.72188,-8.9758,-0.014966,-1.0055,0.32926,-28.26,14.7,10.5
7.0553,-3.0918,-8.145,-0.076969,-0.9557,0.19975,-27.72,15.12,10.86
4.0997,-3.3506,-6.2926,-0.043371,-0.82314,0.23396,-27.3,15.54,11.4
5.6388,-3.8546,-6.7012,-0.039095,-0.49908,0.21838,-27.06,15.84,11.7
8.6625,-3.8137,-7.8589,-0.13531,-0.51404,0.057727,-26.82,16.08,12.42
6.8919,-3.6639,-6.9464,-0.24648,-0.74556,-0.033903,-26.22,16.32,13.08
3.0918,-3.7456,-4.6173,-0.11759,-0.48014,0.10965,-25.92,16.38,13.32
4.5764,-4.413,-5.4481,0.017104,-0.10079,0.11606,-25.56,16.8,14.04
5.3528,-5.3528,-6.6059,0.035736,-0.22388,-0.025045,-25.32,17.04,15.0
3.623,-4.699,-6.4288,0.094073,-0.40134,-0.0082467,-25.14,17.28,15.24
1.7162,-4.5764,-6.8919,0.23305,-0.29047,0.146,-24.9,17.46,15.78
3.051,-5.775,-8.5808,0.25198,-0.1069,0.10721,-24.84,17.58,16.26
1.8932,-3.5413,-7.6683,0.2474,0.054672,0.096517,-24.84,17.82,16.44
2.8739,-3.8273,-8.3901,0.33598,0.14416,0.070555,-24.78,18.24,16.5
3.909,-6.2381,-9.1529,0.23976,0.24984,-0.0036652,-24.72,18.42,16.56
1.7706,-2.1929,-6.0747,0.18021,0.60537,-0.051924,-24.78,18.48,16.68
6.1155,-3.2553,-7.6274,0.28924,0.66218,-0.17379,-24.9,18.72,16.62
5.884,-5.1485,-7.7364,0.20953,0.35827,-0.21808,-24.84,18.78,16.14
4.3177,-1.5255,-6.565,0.2755,0.32987,-0.20342,-25.14,18.78,15.84
5.3528,-2.4517,-6.8374,0.49205,0.21472,-0.06353,-25.44,18.84,15.36
6.6195,-5.0259,-8.4174,0.5681,0.080023,-0.036652,-25.74,18.66,15.0
4.6582,-6.4969,-6.6331,0.49022,0.0094684,-0.17226,-26.16,18.66,14.52
3.0782,-6.1564,-5.5707,0.50671,0.17654,-0.17532,-26.28,18.6,14.28
2.8058,-4.7399,-6.5922,0.6802,0.30849,-0.13897,-26.52,18.54,13.86
4.6582,-5.6661,-8.3629,0.686,0.52718,0.10415,-26.7,18.6,13.26
4.699,-5.1894,-8.1858,0.53023,0.7758,0.197,-27.06,18.66,12.78
3.6366,-2.7649,-7.8589,0.56719,0.7981,0.37049,-27.18,18.66,12.6
5.1485,-4.9306,-9.4525,0.59376,0.76725,0.53512,-27.48,18.9,12.06
4.8352,-4.127,-8.7034,0.55803,0.68386,0.55528,-27.6,19.38,11.52
5.0259,-4.5356,-8.9349,0.57055,0.58154,0.52321,-27.66,19.62,11.04
5.2983,-3.6503,-7.8317,0.56536,0.54245,0.44654,-27.54,20.04,10.38
6.1564,-2.2882,-7.5729,0.58215,0.43799,0.4667,-27.72,20.46,9.72
6.2517,-2.0567,-7.3686,0.49114,0.27031,0.51038,-27.78,20.64,9.36
6.5922,-3.8682,-6.9736,0.34361,0.22388,0.4777,-27.84,21.12,8.34
5.5707,-4.5492,-5.8295,0.19059,0.20067,0.4386,-27.72,21.6,7.62
5.094,-6.0202,-4.5356,-0.025962,0.21228,0.29138,-27.66,22.08,6.96
5.0259,-7.8862,-4.522,-0.22999,0.23915,0.10873,-27.48,22.68,6.06
4.3177,-6.4424,-3.909,-0.37202,0.36163,-0.048869,-27.42,22.86,5.88
4.2223,-4.8352,-4.127,-0.40317,0.47495,-0.1066,-27.3,23.1,5.52
5.5435,-7.0009,-7.355,-0.46823,0.56963,-0.083383,-27.54,23.34,5.22
5.0531,-5.9793,-7.4503,-0.60384,0.60292,-0.11301,-27.6,23.28,4.92
5.0395,-6.6331,-6.7966,-0.61972,0.66035,-0.13989,-27.42,23.46,4.68
4.2495,-6.17,-5.3528,-0.5339,0.8769,-0.098655,-27.54,23.52,4.86
4.4811,-4.3721,-5.1213,-0.45968,0.97647,-0.092852,-27.54,23.46,4.74
7.0553,-7.4503,-6.0202,-0.50091,1.1399,-0.14539,-27.96,23.64,4.5
6.2245,-4.5901,-6.3471,-0.55711,1.0956,-0.2025,-27.84,23.64,4.38
6.674,-3.1463,-6.2517,-0.56322,1.0916,-0.22633,-28.02,23.58,4.26
7.927,-5.2166,-6.8374,-0.65668,1.0137,-0.44196,-28.26,23.46,3.96
7.3141,-5.1213,-7.0962,-0.90469,0.7703,-0.53023,-28.68,23.22,3.3
6.0474,-1.4029,-5.7342,-0.82406,0.7138,-0.48564,-28.8,23.04,2.94
8.54,-2.547,-6.1292,-0.63988,0.54489,-0.52565,-29.04,22.92,2.7
8.9758,-2.8467,-9.0031,-0.65729,0.14844,-0.61361,-29.34,22.74,2.1
7.8453,-0.88532,-8.3357,-0.72998,0.017715,-0.47556,-29.88,22.5,1.56
8.6353,-2.0975,-8.4582,-0.7251,-0.0097738,-0.41203,-29.94,22.26,1.32
6.1973,-2.0022,-8.6489,-0.70005,-0.33475,-0.16005,-30.54,21.9,0.96
7.246,-0.28603,-9.2346,-0.65637,-0.37049,-0.11301,-30.9,21.36,0.84
8.2403,1.7025,-10.229,-0.66493,-0.66737,-0.13073,-31.14,21.0,0.84
7.8317,2.3836,-9.9429,-0.68447,-1.0302,-0.063225,-31.2,20.82,1.02
9.7658,-1.4438,-8.4991,-0.70311,-1.0687,-0.072082,-31.32,20.34,1.56
7.6002,-1.076,-6.3879,-0.69211,-1.2648,-0.25687,-31.32,20.1,2.1
6.1292,0.57205,-5.5299,-0.60445,-1.3176,-0.25717,-31.44,19.86,2.4
9.3572,-0.99429,-6.4833,-0.33231,-1.2675,-0.32345,-31.5,19.56,3.48
9.3708,-2.6423,-7.3141,-0.43402,-1.5174,-0.60659,-31.32,19.14,4.44
6.9328,-2.3972,-5.5707,-0.5061,-1.5192,-0.74006,-31.02,18.78,5.58
5.9249,-1.4982,-4.8625,-0.42699,-1.2165,-0.84605,-30.96,18.48,6.24
6.5786,-0.50395,-5.8704,-0.24618,-1.0867,-0.81489,-30.9,18.06,7.62
6.8102,-1.7979,-7.641,-0.18204,-1.3155,-0.87354,-30.72,17.46,8.88
6.0066,-2.2746,-7.6002,-0.2419,-1.1866,-0.91783,-30.6,17.28,9.48
5.8023,-3.1735,-7.641,-0.27672,-0.93249,-0.90836,-30.6,16.8,10.86
5.1621,-5.5843,-6.0066,-0.36285,-0.70555,-0.96456,-30.48,16.2,12.36
3.7592,-4.7126,-4.2632,-0.29963,-0.42058,-0.98288,-30.42,15.84,12.9
2.152,-3.5413,-3.2689,-0.043066,-0.33048,-0.86407,-30.36,14.94,14.1
3.5822,-3.6911,-6.4288,0.22449,-0.30574,-0.65973,-30.24,14.28,15.24
5.5707,-3.8954,-8.7034,0.22755,-0.21594,-0.62705,-30.24,13.92,15.72
3.9363,-3.1054,-8.4582,0.18754,-0.16402,-0.5397,-30.12,13.56,16.26
3.4596,-3.7184,-9.3299,0.12095,-0.020769,-0.44838,-30.0,13.08,16.8
4.6037,-5.2575,-8.8668,-0.053756,0.13347,-0.56108,-30.06,12.72,17.22
3.1191,-1.5119,-6.456,-0.093768,0.24038,-0.6182,-30.24,12.24,17.7
6.565,-2.2474,-8.4855,0.0281,0.33109,-0.61453,-30.18,12.0,17.7
7.1643,-2.3699,-8.7306,0.059559,0.16646,-0.66371,-30.3,11.76,17.76
6.9328,-1.9341,-9.6296,0.041844,0.16646,-0.62461,-30.3,11.16,17.7
4.6037,-1.2531,-7.8181,0.067806,0.33414,-0.46334,-30.42,10.92,17.64
5.489,-0.68102,-8.4446,0.13928,0.45998,-0.29566,-30.6,10.62,17.28
5.7614,-0.95342,-8.8805,0.12339,0.43219,-0.197,-30.84,10.44,17.16
5.7614,-1.2531,-9.2482,0.0036652,0.34453,-0.12431,-31.02,10.2,16.86
9.0439,-3.7728,-10.828,-0.22419,0.32926,-0.42272,-31.2,10.02,16.62
0.14982,0.57205,-5.5843,-0.13958,0.37354,-0.27794,-31.38,9.66,16.02
3.2961,0.27241,-7.3686,-0.013744,0.57513,-0.1011,-31.56,9.48,15.78
6.2109,0.83084,-9.4934,-0.033903,0.47647,-0.051007,-31.86,9.3,15.24
6.6195,1.1441,-9.6023,-0.10904,0.30879,-0.058643,-31.92,9.06,14.76
5.8567,0.6674,-8.9486,-0.06017,0.34606,0.038179,-32.16,8.76,14.52
4.699,0.081722,-7.9407,-0.037263,0.34697,0.060476,-32.4,8.52,14.34
6.1292,-1.58,-7.8181,-0.009163,0.34117,0.10293,-32.88,8.16,13.92
5.2438,-0.99429,-7.0009,0.018021,0.31857,0.06689,-33.0,8.04,13.74
6.565,-1.2667,-8.6489,0.087048,0.14111,-0.062003,-33.12,7.86,13.38
4.127,0.095342,-7.8453,0.08827,0.074526,-0.076053,-33.12,7.8,13.26
3.3915,1.471,-7.8317,0.072693,0.28283,0.04612,-33.3,7.8,13.08
4.127,1.8251,-8.036,0.078802,0.36652,0.11881,-33.36,7.74,12.9
9.0303,1.8251,-9.3027,-0.083689,0.17196,0.021075,-33.54,7.74,12.78
5.6116,0.24517,-7.641,-0.14325,-0.044593,-0.015272,-33.9,7.74,12.48
7.1779,-2.6015,-7.1371,-0.083383,0.13867,0.13592,-34.08,7.86,12.3
5.3664,-0.6674,-7.9951,-0.11942,-0.1799,-0.054367,-34.14,7.8,12.24
5.8431,-0.50395,-8.3765,-0.045204,-0.0036652,0.14386,-34.38,7.92,12.12
7.1234,-1.7025,-8.3765,-0.013134,0.077885,0.15516,-34.38,7.98,12.06
4.9033,-0.44947,-8.2267,0.17196,-0.095906,0.2416,-34.44,8.16,11.82
7.069,-1.6344,-8.9894,0.22969,0.026878,0.39462,-34.44,8.46,11.7
7.75,-3.0373,-7.8998,0.19609,0.16157,0.33323,-34.56,8.46,11.52
6.279,-3.4187,-6.6876,0.11606,0.098044,0.25779,-34.56,8.7,11.52
4.1678,-3.9363,-4.8216,0.14294,0.19364,0.29413,-34.74,9.0,11.46
4.1814,-1.362,-6.1428,0.21655,0.23213,0.36255,-34.68,9.12,11.34
5.884,-0.84446,-8.1586,0.18998,0.11851,0.46242,-34.62,9.36,11.34
7.6683,-1.471,-9.3708,0.07025,0.13806,0.44502,-34.5,9.54,11.28
4.9578,-1.3212,-7.7364,0.043066,0.19823,0.53512,-34.44,9.78,10.98
4.9714,-1.9341,-7.0553,0.15821,0.30574,0.57146,-34.56,10.08,10.8
6.1019,-1.185,-7.9407,0.17776,0.25351,0.53726,-34.56,10.38,10.62
7.0826,-1.1577,-8.5127,0.19181,0.17654,0.42944,-34.5,10.98,10.26
8.3357,-2.8739,-8.3901,0.13195,0.07025,0.34667,-34.62,11.1,10.26
7.464,-3.2825,-7.5593,0.040012,0.043371,0.31001,-34.56,11.4,10.14
4.522,-0.49033,-6.6331,0.092852,0.21961,0.45784,-34.68,12.0,9.78
7.4776,-1.076,-7.8998,0.052229,0.20067,0.47006,-34.74,12.3,9.48
7.0962,-1.4438,-7.6002,0.000305,0.085827,0.42822,-34.68,12.54,9.24
4.7807,-1.0896,-6.6059,-0.0030543,-0.017104,0.51435,-34.8,13.08,9.0
4.6718,-1.7706,-6.8102,0.019548,0.16096,0.63897,-34.8,13.32,8.82
5.3528,-1.9886,-7.4367,-0.026878,0.13164,0.69028,-34.8,13.68,8.7
5.7342,-3.0237,-7.2052,-0.16432,0.026878,0.57696,-34.62,14.46,8.58
4.0861,-2.5061,-6.4288,-0.14233,0.042455,0.66279,-34.5,14.7,8.7
4.9169,-3.3097,-7.0962,-0.12584,0.22571,0.64935,-34.44,15.06,8.58
5.6116,-2.4789,-7.7227,-0.11668,0.20953,0.64385,-34.08,15.6,8.58
6.7012,-2.4653,-8.145,-0.0956,0.058338,0.66065,-33.96,16.02,8.52
5.5707,-1.8932,-7.7091,-0.010996,-0.060476,0.68478,-33.96,16.32,8.4
7.2052,-2.3291,-8.826,0.0058032,-0.029322,0.69242,-33.78,17.04,8.58
6.5241,-2.7649,-8.2539,-0.075136,-0.094073,0.62492,-33.72,17.4,8.64
6.2517,-2.5198,-7.8726,-0.11057,-0.10934,0.51526,-33.6,17.58,8.7
5.884,-2.942,-7.3822,-0.10599,-0.13592,0.51862,-33.48,17.88,8.76
6.4424,-2.7649,-7.4095,-0.086743,-0.19548,0.44257,-33.18,18.42,8.88
6.6604,-2.8058,-7.1098,-0.073915,-0.25962,0.38607,-33.12,18.6,8.94
8.036,-3.2144,-8.3084,-0.03207,-0.3094,0.4664,-32.94,19.08,9.3
8.0632,-3.8682,-8.1995,-0.13164,-0.42272,0.31704,-32.76,19.26,9.24
5.5299,-2.7377,-6.96,-0.075747,-0.33262,0.37904,-32.58,19.62,9.72
6.4288,-3.5413,-6.8647,-0.025351,-0.23915,0.34667,-32.46,19.98,9.9
5.5571,-2.7104,-6.9736,0.0018326,-0.26695,0.36163,-32.28,20.28,10.02
6.0747,-2.6832,-7.4095,0.12095,-0.36408,0.40073,-32.16,20.4,10.14
6.8102,-3.5685,-7.7636,0.14325,-0.41356,0.29658,-32.16,20.7,10.2
4.1542,-2.0975,-7.4095,0.20831,-0.39981,0.25565,-31.86,20.94,10.68
5.8567,-2.7922,-7.8726,0.20281,-0.32345,0.15852,-31.74,21.18,10.86
4.127,-1.7706,-7.0145,0.15699,-0.35583,0.13806,-31.5,21.54,11.16
6.0202,-2.0975,-7.5729,0.088575,-0.27886,0.13225,-31.32,21.72,11.46
6.7966,-3.4187,-7.3686,-0.013744,-0.38332,0.037568,-31.14,21.9,11.4
6.3607,-3.732,-7.3414,-0.086132,-0.50977,-0.059559,-31.14,22.02,11.64
5.8023,-4.3177,-6.9055,-0.064141,-0.43188,-0.0058032,-31.02,22.38,12.18
5.2847,-5.4073,-7.0553,-0.053756,-0.48197,-0.090713,-30.78,22.5,12.36
4.6445,-4.2904,-7.0962,0.025962,-0.29932,-0.10079,-30.54,22.62,12.6
4.5356,-4.0316,-6.96,0.067195,-0.28986,-0.13592,-30.36,22.38,12.72
3.2961,-3.5685,-6.5786,0.21655,-0.1857,-0.072388,-30.24,22.62,13.02
4.699,-4.1951,-7.6819,0.2135,-0.14386,-0.065057,-30.12,22.74,13.32
5.5299,-5.0531,-8.322,0.15974,-0.15974,-0.080023,-30.06,22.74,13.56
3.8818,-3.1327,-6.6467,0.24923,0.14478,0.069028,-30.06,22.74,13.86
4.5764,-3.4732,-6.9191,0.25565,0.14783,0.087048,-30.18,22.68,13.98
5.1485,-4.3721,-7.8317,0.10293,0.010996,0.03207,-30.24,22.68,13.98
3.514,-4.7263,-7.3686,0.039706,0.16066,0.014355,-30.24,22.68,14.28
3.2825,-4.2223,-7.2188,0.051007,0.30329,0.017104,-30.18,22.74,14.28
4.7399,-4.0997,-8.0632,0.039706,0.32284,-0.03543,-30.3,22.86,14.22
4.7944,-4.0316,-7.9543,0.0082467,0.21502,-0.12675,-30.42,22.74,14.1
4.0452,-3.051,-6.9736,0.054062,0.37354,-0.06689,-30.6,22.74,14.04
5.3664,-3.2961,-7.5184,0.038485,0.33109,-0.038179,-30.78,22.62,14.04
6.279,-4.699,-8.0496,-0.027794,0.094379,-0.057116,-30.96,22.68,13.98
4.1814,-3.1599,-7.5184,-0.067195,0.23793,-0.080329,-31.14,22.44,13.68
5.0123,-2.7104,-7.2324,-0.030849,0.40073,-0.042455,-31.2,22.2,13.62
6.3471,-3.2008,-8.4038,-0.014355,0.27917,-0.058643,-31.32,21.84,13.32
5.9385,-3.4868,-7.8317,-0.062308,0.036652,-0.16218,-31.44,21.72,13.14
5.4754,-3.2553,-7.6138,-0.013439,0.042761,-0.16799,-31.44,21.66,13.38
5.8431,-3.0373,-7.927,0.0082467,0.028711,-0.17501,-31.5,21.6,13.26
6.2245,-3.8273,-8.2131,0.052229,-0.15791,-0.23824,-31.8,21.12,13.2
5.2302,-3.0918,-7.9407,0.089492,-0.12248,-0.24129,-31.8,20.88,13.14
5.993,-3.1327,-7.9543,0.087354,-0.083383,-0.25687,-31.98,20.52,13.26
6.0338,-3.3915,-7.8181,0.03879,-0.14722,-0.27275,-32.04,20.34,13.38
5.4073,-3.8001,-7.3141,-0.0027489,-0.21075,-0.26237,-32.1,20.16,13.38
4.8625,-3.6503,-7.2869,-0.023518,-0.17715,-0.26053,-32.1,19.98,13.44
4.8625,-2.4108,-7.1915,-0.12614,-0.1631,-0.31062,-32.1,19.5,13.62
6.0066,-2.1656,-7.1643,-0.1182,-0.057116,-0.3262,-32.16,19.38,13.5
6.5786,-6.2654,-7.355,-0.21808,-0.27367,-0.39859,-32.1,19.38,13.62
2.2474,-3.8682,-6.0747,-0.29016,-0.19395,-0.40714,-32.04,18.78,13.98
4.699,-2.8603,-6.851,-0.1463,0.14386,-0.26298,-32.1,18.54,14.1
7.7364,-4.0861,-8.5127,-0.17471,0.051007,-0.29871,-31.98,18.3,14.16
2.5606,-2.9284,-6.8919,-0.22724,-0.23274,-0.37354,-31.92,17.88,14.34
3.1872,-1.4301,-7.0962,-0.079718,0.14019,-0.27306,-31.86,17.52,14.52
6.3198,-3.1599,-8.1041,-0.060476,0.071166,-0.20586,-31.8,17.22,14.52
7.8453,-6.6331,-8.5127,-0.21105,-0.1295,-0.41753,-31.68,16.92,14.64
3.514,-6.3062,-5.9657,-0.17654,-0.13073,-0.478,-31.56,16.68,14.88
0.14982,-1.0624,-4.7944,0.082467,0.35277,-0.32742,-31.56,16.38,14.94
4.9169,0.081722,-7.3414,0.14294,0.26542,-0.20708,-31.56,16.2,15.0
6.9872,-3.2553,-7.8045,-0.020769,-0.0064141,-0.34208,-31.56,15.78,15.0
5.2166,-2.9829,-7.1643,-0.089186,0.059254,-0.30299,-31.62,15.48,15.06
5.1213,-4.5764,-6.0747,-0.15577,0.023518,-0.3262,-31.68,15.36,15.12
5.4209,-2.547,-7.3958,-0.1292,0.043677,-0.35583,-31.62,15.18,15.12
6.0202,-1.8251,-8.2812,-0.10324,-0.093462,-0.32345,-31.56,14.94,15.24
9.3163,-4.0044,-10.161,-0.12614,-0.065668,-0.38301,-31.68,14.58,15.36
7.3686,-4.7807,-8.8396,-0.28924,-0.21594,-0.53634,-31.74,14.4,15.3
1.4165,-1.8932,-7.1234,-0.044593,0.16982,-0.16921,-31.68,13.92,15.42
7.3005,-2.7649,-8.5672,-0.049175,0.14386,-0.10079,-31.8,13.68,15.48
9.1393,-3.8001,-9.1937,-0.20495,-0.12065,-0.25565,-31.92,13.5,15.36
6.279,-3.7728,-7.355,-0.20617,-0.12859,-0.26878,-31.86,13.44,15.36
3.5958,-1.866,-6.279,0.040928,0.13836,-0.11637,-31.86,13.02,15.36
7.069,-2.9284,-8.4174,0.026878,-0.020159,-0.13622,-31.8,12.78,15.42
7.927,-3.6775,-8.7715,-0.14294,-0.22174,-0.33506,-31.86,12.6,15.48
1.6072,-0.91256,-5.7205,0.084299,0.07422,-0.11759,-31.68,12.36,15.36
3.2008,-1.4165,-6.6059,0.14355,0.065057,0.0051924,-31.68,12.06,15.24
8.4991,-3.2144,-9.4389,0.064446,-0.076358,-0.054367,-31.86,12.0,15.24
4.1406,-1.6481,-7.1507,0.034208,-0.035125,-0.089492,-31.92,11.82,15.06
5.598,-3.051,-7.9951,0.059254,-0.055894,-0.043371,-31.92,11.76,15.18
7.0553,-4.3721,-8.4446,-0.019853,-0.061087,-0.12798,-31.92,11.76,15.12
5.5843,-2.8058,-7.7364,0.055283,-0.050702,-0.10629,-31.8,11.7,15.06
3.1054,-1.3348,-6.7557,0.20464,0.076053,-0.0097738,-31.74,11.64,15.06
7.7636,-1.3348,-9.1665,0.15913,-0.020159,-0.088575,-31.98,11.58,15.06
6.0883,-1.866,-7.75,0.10324,-0.082467,-0.094379,-31.98,11.46,15.06
5.884,-3.051,-7.0553,0.072693,-0.023213,-0.078191,-32.1,11.52,15.06
5.6116,-3.5413,-7.355,0.018326,-0.074831,-0.054367,-32.04,11.58,15.12
6.0338,-3.3778,-7.3958,-0.021075,-0.097738,-0.07086,-32.1,11.58,15.18
3.8409,-2.4517,-6.9328,0.055894,0.10385,0.032376,-32.16,11.7,15.12
3.8409,-2.4517,-6.9328,0.055894,0.10385,0.032376,-32.16,11.7,15.12
6.1973,-4.0589,-7.8045,0.064752,-0.08827,-0.025656,-32.04,11.7,15.18
4.4675,-3.2689,-7.2188,0.10904,-0.022907,-0.021075,-31.86,11.7,15.18
3.0918,-2.7104,-7.3822,0.18967,0.14447,0.10721,-31.92,11.88,14.94
4.4811,-2.6151,-8.2131,0.21625,0.26053,0.20036,-31.98,12.0,14.94
6.2517,-3.3234,-7.8181,0.1179,0.22449,0.14752,-31.92,12.36,15.0
3.2825,-2.2201,-6.8102,0.093768,0.24801,0.12248,-31.8,12.42,15.0
5.1349,-2.9692,-7.1371,0.1179,0.3149,0.16218,-31.68,12.54,14.88
6.7966,-3.0373,-7.7636,0.063225,0.13836,0.1182,-31.68,12.78,14.94
6.1292,-2.8603,-7.8589,-0.0061087,0.10232,0.069028,-31.74,12.78,14.76
4.8897,-1.8251,-7.1779,-0.065973,0.16524,0.077885,-31.8,13.08,14.58
7.5048,-1.7843,-7.8998,-0.13897,0.13958,0.055894,-31.74,13.08,14.4
7.246,-2.261,-7.7772,-0.19517,-0.02138,0.072998,-31.56,13.14,14.16
5.6388,-2.0567,-7.246,-0.26298,-0.083689,0.0079412,-31.62,13.44,14.22
6.3879,-1.7025,-7.6819,-0.26176,-0.14019,0.060781,-31.74,13.44,13.98
6.6467,-1.5936,-7.7091,-0.20617,-0.14264,0.065973,-31.74,13.5,13.98
9.2482,-2.152,-8.9622,-0.15882,-0.18692,0.044288,-31.62,13.38,13.74
6.1836,-2.152,-7.9134,-0.076969,-0.40897,0.027184,-31.62,13.38,13.74
5.0531,-1.5391,-8.4038,-0.025045,-0.35766,-0.01069,-31.62,13.44,13.62
6.4697,-1.8387,-8.6353,0.043066,-0.37599,0.059559,-31.62,13.68,13.56
6.3879,-1.8387,-8.1858,-0.0073304,-0.40745,0.0015272,-31.5,13.8,13.62
5.0259,-0.83084,-7.4095,0.050396,-0.40836,0.055283,-31.44,13.86,13.8
6.5378,-2.3427,-7.7091,-0.0015272,-0.53878,0.016493,-31.38,13.86,14.04
5.6388,-2.5742,-7.246,0.0073304,-0.51526,-0.0027489,-31.32,13.86,14.52
6.0611,-2.9556,-7.4776,-0.030849,-0.6466,-0.092546,-31.2,13.86,14.76
4.304,-1.8387,-6.7148,0.014355,-0.6408,-0.093462,-30.96,13.86,14.94
3.8273,-1.2939,-7.0145,0.1576,-0.46456,0.0097738,-30.66,14.04,15.12
6.5786,-2.833,-7.6546,0.10324,-0.63377,-0.094073,-30.36,14.28,15.66
4.2223,-2.1929,-7.0281,0.20617,-0.58032,-0.043371,-30.18,14.34,15.96
5.7205,-2.4244,-7.6546,0.24129,-0.51832,-0.058338,-29.7,14.46,16.56
6.2245,-3.6094,-7.4367,0.22938,-0.58735,-0.15791,-29.46,14.4,16.92
5.8704,-3.909,-7.8317,0.18326,-0.70311,-0.208,-29.28,14.46,17.4
4.0861,-2.9284,-6.7148,0.24771,-0.55864,-0.12675,-29.04,14.52,17.46
3.4732,-1.5663,-6.4833,0.31398,-0.39431,-0.029016,-28.8,14.64,17.7
5.8023,-3.4459,-7.4503,0.22022,-0.56352,-0.025656,-28.44,14.76,18.42
3.337,-3.1327,-6.4969,0.2587,-0.39859,0.099876,-28.26,15.0,18.72
3.4596,-4.1814,-7.6683,0.24068,-0.49419,0.072998,-27.9,15.3,19.02
5.0259,-4.7944,-9.0712,0.22022,-0.43494,0.04215,-27.78,15.54,19.32
4.9033,-5.5571,-8.9622,0.18631,-0.45968,0.02474,-27.66,15.6,19.56
1.5391,-2.9829,-6.2654,0.31307,-0.13561,0.040317,-27.42,15.66,19.86
5.8704,-2.942,-9.112,0.34544,-0.24435,0.025045,-27.18,16.02,20.16
5.38,-3.6775,-8.7034,0.20647,-0.31124,0.094379,-27.06,16.26,20.46
5.0259,-2.2201,-7.2596,0.18723,-0.25137,0.091935,-26.76,16.62,21.0
6.2109,-2.6015,-7.6546,0.2025,-0.33567,0.078191,-26.64,16.8,21.12
6.8374,-4.9714,-8.5808,0.13103,-0.46151,0.03146,-26.52,16.86,21.3
4.6582,-3.4732,-6.6876,0.043371,-0.34667,-0.058643,-26.22,16.98,21.42
4.9578,-2.8467,-7.246,0.12217,-0.45418,0.0061087,-26.04,17.4,21.54
5.5162,-3.9908,-8.2539,0.087354,-0.45998,-0.062308,-25.92,17.52,21.66
4.7807,-3.9908,-7.2733,-0.019548,-0.48442,-0.17654,-25.74,17.7,22.14
4.7671,-2.3836,-7.7636,0.11912,-0.44074,-0.27184,-25.74,17.88,22.38
4.8761,-2.5061,-8.1586,0.16127,-0.49052,-0.25687,-25.62,17.94,22.44
4.9987,-4.3177,-8.3901,-0.000611,-0.65912,-0.40836,-25.38,17.88,22.68
3.5958,-2.4108,-7.355,0.065668,-0.54764,-0.4441,-25.26,17.76,22.8
4.8761,-2.7104,-9.5615,0.11423,-0.63958,-0.5003,-25.14,17.7,22.98
4.8761,-4.1542,-8.9077,0.039706,-0.7309,-0.60292,-25.08,17.64,22.98
3.8954,-1.4982,-7.3141,0.14691,-0.55314,-0.60384,-24.9,17.58,23.16
5.6252,-1.2531,-8.0496,0.20831,-0.51099,-0.57696,-24.84,17.52,23.4
6.0474,-4.7535,-8.6353,0.012828,-0.94257,-0.76328,-24.78,17.4,23.94
4.0316,-2.5334,-6.7966,0.039401,-0.64019,-0.75289,-24.6,17.28,24.18
5.7614,-2.4925,-7.355,0.10201,-0.65271,-0.72724,-24.42,17.04,24.54
5.4209,-4.7671,-8.1586,0.071777,-0.65027,-0.74739,-24.12,16.44,24.96
4.0861,-3.6366,-7.0281,0.016799,-0.65088,-0.7929,-23.94,16.2,25.26
3.7728,-3.0918,-6.279,0.1347,-0.46517,-0.76205,-23.94,16.08,25.44
4.127,-5.775,-9.1529,0.16402,-0.74281,-0.79168,-23.7,15.66,26.04
1.7025,-3.9499,-6.8374,0.15944,-0.49908,-0.78191,-23.7,15.6,26.4
4.985,-4.0589,-8.1041,0.18051,-0.39248,-0.89675,-23.58,15.3,26.7
2.0567,-3.2689,-6.674,0.27794,-0.23976,-0.80176,-23.52,14.76,27.3
4.985,-3.4868,-7.8998,0.26053,-0.14142,-0.7648,-23.46,14.4,27.6
5.4481,-4.1133,-7.7091,0.15791,-0.38423,-0.77702,-23.4,14.22,27.96
4.0316,-4.9987,-8.5536,0.10751,-0.2923,-0.76541,-23.46,13.74,28.38
4.3449,-5.8159,-9.1393,0.020769,-0.35308,-0.84177,-23.16,13.26,28.5
1.1577,-2.7649,-6.3607,0.23579,0.043066,-0.70341,-23.16,13.08,28.68
6.96,-4.8488,-10.379,0.29444,0.032987,-0.7758,-23.4,12.66,28.98
5.4754,-5.0259,-9.5751,0.1127,-0.17807,-0.77855,-23.4,12.36,29.1
1.362,-3.4732,-6.6604,0.22663,0.073915,-0.6524,-23.28,12.06,29.28
5.0395,-4.8897,-9.9156,0.14752,-0.047953,-0.65118,-23.46,11.58,29.58
3.9227,-3.732,-8.6898,0.085521,-0.010996,-0.70799,-23.4,11.22,29.64
3.4596,-2.6968,-7.7908,0.17776,0.093462,-0.70983,-23.52,10.98,29.7
3.2144,-2.9692,-7.5729,0.25595,0.048869,-0.61514,-23.46,10.38,29.64
4.4947,-2.5334,-8.2403,0.22846,0.099571,-0.60353,-23.64,10.2,29.7
6.3198,-3.1872,-9.112,0.11606,-0.090408,-0.69242,-23.7,10.02,29.76
2.6696,-3.9499,-7.0281,0.054672,-0.090408,-0.73334,-23.76,9.48,29.7
3.7592,-2.7786,-7.1915,0.14661,0.17959,-0.71624,-24.0,9.3,29.76
5.5162,-3.3506,-8.2812,0.15913,-0.10446,-0.72449,-24.12,8.94,29.7
8.6081,-3.8137,-9.8339,0.17349,0.19303,-0.81825,-24.0,8.52,29.82
9.398,-6.0066,-10.433,-0.10263,-0.45845,-0.94531,-24.12,8.34,29.94
-2.2337,-1.8387,-3.5822,0.22724,0.35186,-0.6689,-24.3,8.1,30.06
10.42,-3.1327,-9.7385,0.27306,0.27581,-0.68417,-24.48,7.68,29.88
4.9987,-5.8431,-7.5457,0.11484,-0.31673,-0.759,-24.48,7.32,29.82
4.3858,-6.4016,-8.826,0.016799,-0.13958,-0.86682,-24.6,7.14,29.82
0.38137,-4.0452,-6.5378,0.036041,-0.078802,-0.73182,-24.72,6.72,30.06
3.1191,-1.8932,-7.6002,0.30391,0.41997,-0.73365,-24.84,6.48,29.94
7.3958,-2.7104,-9.7385,0.15547,0.24435,-0.82558,-24.9,6.24,29.82
4.1678,-5.9249,-6.9872,0.077274,0.13714,-0.82956,-25.14,5.64,30.0
1.3212,-5.6252,-6.4016,0.096211,0.19395,-0.66248,-25.2,5.52,29.88
1.757,-2.547,-6.3879,0.25656,0.44288,-0.5171,-25.26,5.28,29.7
3.8954,-1.9341,-7.4095,0.24709,0.47953,-0.4496,-25.5,4.98,29.52
6.456,-6.7421,-6.7012,-0.030543,0.25045,-0.72143,-25.8,4.56,29.34
1.2803,-5.4754,-5.1485,0.067195,0.55803,-0.65149,-25.98,4.44,29.22
2.6287,-3.8818,-5.9385,0.10079,0.66462,-0.62614,-26.1,4.26,29.04
5.5162,-5.3119,-8.1858,-0.0015272,0.41508,-0.60445,-26.58,3.9,28.86
3.3097,-3.6775,-7.5457,-0.087354,0.52901,-0.57452,-26.64,3.54,28.74
1.9886,-1.4165,-7.6683,0.009163,0.6576,-0.30604,-26.94,3.24,28.56
8.826,-4.3858,-10.597,0.083994,0.60659,-0.066279,-27.42,2.64,28.02
8.717,-6.9328,-10.093,-0.29505,0.23457,-0.38607,-27.6,2.34,27.9
2.8194,-4.3858,-7.5729,-0.31398,0.15699,-0.42608,-27.78,2.1,27.6
1.4846,-1.4301,-7.246,-0.02474,0.84391,-0.068111,-27.96,1.92,27.3
11.223,-3.9908,-10.065,-0.11576,0.4609,-0.18906,-28.62,1.56,27.06
9.6704,-4.3177,-9.1937,-0.25565,0.061087,-0.48045,-28.8,1.38,26.94
3.0237,0.19068,-7.0281,-0.1347,0.18937,-0.3656,-29.1,0.72,26.46
9.5615,-2.3836,-9.3163,-0.12798,0.45173,-0.13103,-29.28,0.36,26.1
8.5808,-2.1929,-8.9349,-0.21411,0.12706,-0.25626,-29.46,0.06,25.98
4.4675,-0.29965,-8.2131,-0.20281,0.020159,-0.11057,-29.64,-0.12,25.68
12.83,-3.9227,-9.4798,-0.13378,0.30879,-0.033903,-29.88,-0.72,25.32
9.8339,-4.6037,-8.6353,-0.28527,-0.3882,-0.53756,-29.94,-0.84,25.08
0.27241,1.1577,-7.9543,-0.1011,-0.56627,-0.39218,-30.06,-1.38,25.08
6.3471,-0.76274,-8.2539,-0.082467,0.35613,-0.11912,-30.3,-1.38,24.96
8.1313,-1.5391,-7.7091,-0.17898,0.16371,-0.14508,-30.42,-1.56,24.84
8.7443,-1.866,-7.6002,-0.29138,-0.12248,-0.24984,-30.54,-1.74,24.72
7.3822,-4.0997,-6.1836,-0.26786,-0.44349,-0.28191,-30.54,-2.34,24.6
2.6423,-2.0839,-5.7614,-0.15821,-0.36346,-0.21441,-30.54,-2.58,24.6
6.3471,-2.1112,-7.5593,-0.039706,0.057727,-0.029016,-30.48,-2.7,24.6
7.0281,-0.77636,-9.1937,0.013744,-0.050091,-0.08491,-30.54,-2.88,24.78
8.2812,0.054481,-10.202,-0.045204,-0.17746,-0.22174,-30.54,-3.0,24.78
4.3585,-1.975,-7.0962,-0.04215,-0.22113,-0.17349,-30.6,-3.18,24.84
2.9011,-0.32689,-6.9464,0.092852,0.12187,0.1295,-30.6,-3.3,25.08
8.0224,-0.35413,-8.3765,0.097738,0.097433,0.090103,-30.6,-3.3,25.2
6.0883,-2.0158,-7.464,0.10446,-0.65882,-0.17104,-30.42,-3.24,25.2
2.6015,-1.0215,-7.0281,0.28069,-0.3427,-0.020769,-30.18,-3.42,25.44
7.2188,-2.7922,-8.2676,0.33995,-0.5736,-0.13378,-30.06,-3.6,25.56
6.4424,-0.12258,-9.7522,0.35827,-0.74556,-0.30421,-29.88,-3.54,25.92
5.4073,-1.0624,-8.1041,0.35491,-0.42364,-0.25534,-29.7,-3.48,25.98
5.1621,-0.40861,-7.4231,0.39676,-0.28008,-0.21166,-29.52,-3.54,26.1
11.577,-1.9341,-9.4525,0.26114,-0.65179,-0.50213,-29.28,-3.66,26.22
4.8897,-1.4574,-6.4152,0.18815,-0.5565,-0.39492,-28.92,-3.6,26.4
2.0567,-1.7025,-4.5764,0.2532,-0.23182,-0.28588,-28.8,-3.66,26.52
6.9328,-2.2882,-8.6217,0.20739,-0.87476,-0.50549,-28.44,-3.48,27.0
4.7671,-0.8036,-8.7579,0.21197,-0.81123,-0.48564,-28.14,-3.48,27.06
7.4367,-2.4517,-8.9349,0.13042,-0.47403,-0.59834,-27.84,-3.48,27.36
4.6445,-1.1441,-7.0145,0.3091,-0.32834,-0.27153,-27.3,-3.42,27.96
10.065,-3.9227,-8.7715,0.24251,-0.33842,-0.43768,-27.06,-3.36,28.08
5.9385,-4.0861,-6.1564,0.27672,-0.49602,-0.44563,-26.76,-3.24,28.26
5.1485,-4.2223,-8.1858,0.26573,-0.54,-0.60018,-26.1,-3.24,28.68
1.2803,-2.2337,-7.0281,0.38973,-0.41783,-0.3653,-25.8,-3.3,28.92
3.5822,-2.2065,-8.3357,0.41081,-0.18021,-0.26512,-25.56,-3.24,29.34
5.2575,-2.9965,-8.9622,0.26176,-0.065363,-0.26542,-24.96,-3.12,29.76
5.4754,-3.5413,-7.7908,-0.0018326,0.60659,-0.40989,-24.9,-3.06,30.0
4.9987,-2.8603,-6.9328,0.019853,0.72754,-0.37751,-24.48,-2.94,30.36
4.6037,-1.58,-6.0338,0.087048,0.54703,-0.27764,-24.18,-2.76,30.48
7.2596,-3.0918,-7.4231,0.21136,-0.58674,-0.23702,-24.06,-2.64,30.6
6.565,-3.7184,-8.2539,0.14569,-0.8097,-0.34422,-23.76,-2.64,30.78
4.8625,-3.8273,-7.641,0.075136,-0.79138,-0.28405,-23.64,-2.4,30.9
3.228,-2.1929,-7.246,0.27978,-0.60476,-0.087354,-23.4,-2.4,31.08
4.5356,-2.7786,-8.4719,0.40073,-0.53542,0.013134,-23.28,-2.34,31.14
6.1155,-4.0997,-9.507,0.33414,-0.74098,-0.035125,-23.1,-2.04,31.32
3.0782,-1.8932,-5.9793,0.47037,-0.79748,0.017715,-22.68,-1.68,31.5
5.0531,-4.6037,-8.0632,0.5568,-1.0122,0.028405,-22.56,-1.56,31.5
4.3313,-4.9442,-7.2869,0.48136,-1.0861,-0.040012,-22.2,-1.2,31.62
1.3212,-3.9635,-7.2596,0.53634,-0.76938,0.1127,-21.6,-0.72,31.92
1.7298,-4.3313,-7.5729,0.48014,-0.48411,0.14875,-21.24,-0.42,32.1
3.2553,-3.9227,-7.9951,0.37385,-0.063835,0.17501,-21.0,-0.12,32.16
4.6718,-6.0474,-9.8611,0.14478,0.02474,0.057421,-20.58,0.12,32.46
3.1191,-1.9205,-5.7614,0.40256,-0.13225,0.15211,-19.86,0.72,32.76
4.1814,-6.674,-12.313,0.28558,-0.2135,0.1463,-19.56,0.9,32.94
3.732,-2.0567,-5.5026,0.11515,0.31826,-0.0042761,-19.02,1.5,33.18
4.2223,-4.3449,-9.0848,0.33506,0.059254,0.0562,-18.66,1.8,33.36
3.8546,-4.0861,-8.2539,0.27855,0.24557,-0.014966,-18.42,1.98,33.54
5.38,-3.4868,-9.507,0.43738,0.26848,0.067806,-18.18,2.4,33.72
5.3119,-5.7069,-11.114,0.15149,0.11362,-0.043371,-17.94,2.58,33.66
3.4732,-3.6366,-7.6138,0.14019,0.2978,-0.063225,-17.94,2.7,33.66
2.5198,-4.6854,-9.0303,0.21166,0.14844,0.021075,-17.94,3.06,33.48
2.2882,-4.5764,-8.1586,0.20433,0.34941,0.033598,-18.06,3.12,33.3
3.228,-3.514,-8.1722,0.23671,0.31643,0.092241,-18.06,3.18,33.24
3.4732,-5.4345,-8.7034,0.24404,0.34483,0.095906,-18.12,3.48,33.18
3.0646,-4.0452,-7.1507,0.15394,0.40745,0.041844,-18.18,3.72,33.12
4.5492,-2.1929,-6.7557,0.22541,0.50427,0.016799,-18.18,3.72,32.88
2.5606,-5.3256,-8.4719,0.24282,0.19548,0.10324,-18.36,4.02,32.52
3.5685,-5.2575,-9.6023,-0.10263,0.46365,0.043066,-18.54,4.2,32.4
3.9908,-4.9033,-8.8805,-0.17226,0.51588,0.055283,-18.78,4.26,32.22
3.4323,-3.4051,-6.4016,0.051618,0.52534,0.064141,-18.96,4.32,32.22
4.2223,-4.8216,-8.9349,0.05681,0.51618,0.061697,-19.32,4.5,31.92
3.732,-5.2847,-8.0905,-0.069028,0.52168,0.048258,-19.5,4.68,31.74
3.6639,-3.909,-7.7636,-0.041844,0.63225,0.078802,-19.62,4.5,31.62
4.1678,-4.1133,-7.3686,0.033598,0.75136,0.098044,-20.04,4.68,31.2
4.7535,-3.9908,-8.3493,0.074831,0.7648,0.13714,-20.1,4.62,31.08
5.0804,-4.9033,-9.4117,0.039095,0.6466,0.12706,-20.4,4.56,30.84
4.4811,-2.4517,-6.2517,0.097128,0.64049,0.027794,-20.76,4.56,30.42
5.2438,-4.6445,-9.0575,0.19334,0.49297,0.14783,-21.48,4.68,29.76
5.203,-5.3528,-9.616,-0.034819,0.42364,0.083078,-21.72,4.68,29.52
4.9714,-4.2223,-9.0575,-0.2474,0.40439,0.0562,-22.02,4.68,29.16
5.6116,-2.2337,-6.7693,-0.082467,0.48564,0.13897,-22.44,4.62,28.32
6.279,-5.7069,-9.6977,-0.097433,0.39187,0.14844,-22.62,4.68,28.02
5.4481,-5.5707,-8.3357,-0.29932,0.29169,0.036957,-22.74,4.8,27.72
5.4073,-5.0531,-8.4174,-0.13561,0.208,0.079718,-23.1,4.62,27.18
5.5435,-3.8273,-8.1041,-0.23579,0.27122,-0.038485,-23.34,4.68,27.0
6.279,-1.9613,-7.8045,-0.18448,0.10385,-0.062919,-23.52,4.92,26.88
5.4481,-4.6582,-7.8453,-0.16952,0.062919,-0.055894,-23.94,4.68,26.34
5.6933,-4.5492,-8.3629,-0.31185,0.11148,-0.16096,-24.0,4.62,25.98
4.7944,-1.1713,-5.5707,-0.18601,0.19426,-0.13347,-23.94,4.5,25.92
6.7693,-2.4653,-7.5048,-0.12187,-0.050396,-0.082161,-24.12,4.44,25.8
4.9578,-5.993,-7.7091,-0.39615,0.018631,-0.22022,-24.06,3.78,25.56
4.304,-2.7377,-6.17,-0.22174,-0.038485,-0.19059,-24.06,3.6,25.62
5.4754,-4.8352,-8.7715,-0.24893,-0.012217,-0.1912,-24.18,3.24,25.38
5.7069,-5.0259,-7.927,-0.35339,0.098349,-0.31185,-24.18,3.06,25.26
3.8001,-3.7728,-5.7205,-0.29688,0.073915,-0.28283,-24.18,2.7,25.02
4.8488,-2.7922,-6.1564,-0.090103,0.19823,-0.35644,-24.12,2.52,25.14
5.1757,-5.5162,-9.1256,-0.21838,-0.18845,-0.31429,-23.94,1.98,24.72
2.6423,-3.8954,-6.279,-0.26023,0.11851,-0.18937,-23.88,1.5,24.48
4.0589,-2.2201,-8.1586,-0.18784,0.22724,-0.17654,-23.82,1.2,24.42
5.2983,-4.4947,-8.0905,-0.23946,-0.073609,-0.16035,-23.64,0.6,24.3
4.7944,-2.8058,-6.0611,-0.31429,0.009163,-0.27611,-23.64,0.36,24.12
5.9521,-3.5958,-7.2188,-0.22907,0.0064141,-0.28588,-23.4,0.06,24.06
5.1349,-5.4073,-6.3743,-0.29199,0.10782,-0.2926,-23.34,-0.18,23.82
6.1973,-3.5685,-6.8238,-0.27978,0.18784,-0.43249,-23.22,-0.48,23.64
4.7399,-3.9635,-7.8998,-0.1741,-0.023824,-0.38698,-23.1,-0.78,23.58
5.6524,-4.9033,-8.7715,-0.21136,0.031765,-0.39676,-22.98,-1.32,23.4
4.1542,-2.7377,-6.674,-0.31032,0.12859,-0.44043,-23.04,-1.44,23.4
3.7184,-1.5527,-6.7012,-0.16829,0.072693,-0.26878,-23.1,-1.68,23.22
4.6309,-4.1542,-8.2812,-0.25015,0.017715,-0.13806,-23.1,-2.1,23.04
4.4402,-3.3234,-7.4776,-0.28863,0.26664,-0.031154,-22.98,-2.28,22.92
5.203,-2.3836,-7.5457,-0.1631,0.27061,0.030543,-22.74,-2.7,22.86
7.3958,-4.5764,-8.7987,-0.20464,0.065668,-0.02138,-22.74,-3.0,22.74
4.5356,-3.0646,-6.851,-0.17349,0.15088,-0.011912,-22.92,-3.24,22.62
7.2596,-2.1929,-9.2482,0.10263,0.16127,0.027489,-22.98,-3.36,22.14
6.96,-3.9908,-10.025,-0.067195,-0.067806,-0.0061087,-22.92,-3.54,22.08
4.4402,-1.7706,-7.5457,0.0064141,0.17043,0.007025,-22.92,-3.72,21.72
5.3119,-2.6696,-7.6819,0.01069,0.024435,0.076053,-22.98,-3.84,21.66
5.6116,-2.4517,-7.7364,-0.0054978,0.11209,0.03207,-22.92,-3.9,21.48
7.0145,-2.9556,-8.3357,-0.055283,0.052229,0.0061087,-22.8,-4.08,21.3
4.6718,-2.1248,-6.6059,-0.011301,0.0076358,-0.025351,-22.62,-4.14,21.0
7.6274,-3.6094,-8.7715,-0.1182,-0.016799,-0.031765,-22.62,-4.32,20.88
3.1599,-1.7025,-5.3664,-0.069944,0.06017,-0.061697,-22.62,-4.14,20.94
5.2575,-1.7298,-7.7636,0.023518,0.18234,0.085827,-22.68,-4.14,20.7
4.5356,-2.4789,-6.0474,-0.25901,-0.11484,-0.1127,-22.86,-3.9,20.4
2.4653,-0.69464,-5.8567,-0.1011,0.016493,0.020464,-22.8,-3.9,20.34
6.6467,-3.1327,-10.079,-0.16646,-0.054367,0.057116,-22.92,-4.08,20.22
4.3449,-0.027241,-6.2381,-0.11576,0.079107,-0.020464,-22.92,-4.08,20.16
5.6252,-1.1305,-7.8862,0.050091,-0.017715,0.18967,-23.04,-4.14,20.22
7.0417,-2.6287,-8.4582,-0.038179,0.045204,0.11545,-23.1,-4.08,20.16
6.3198,-1.7706,-7.3005,0.0039706,-0.12278,0.09499,-23.16,-4.14,20.16
3.2553,-1.471,-5.7069,0.11148,-0.11576,0.22022,-23.28,-4.08,20.16
6.3607,-3.8001,-8.6081,0.064141,0.018937,0.13958,-23.46,-4.02,20.1
4.0589,-2.0567,-6.1564,-0.021075,-0.16432,0.080023,-23.82,-3.84,19.92
3.6503,-2.9556,-6.6059,0.13042,0.010079,0.25565,-24.06,-3.78,19.86
5.9657,-2.4108,-7.3141,0.02474,0.041539,0.12492,-24.3,-3.84,19.98
7.3686,-3.8001,-8.9622,-0.040928,-0.20495,0.084299,-24.36,-3.9,19.98
3.9908,-2.5879,-5.9657,-0.036346,-0.060476,0.089186,-24.3,-3.78,19.98
2.2746,-0.6674,-5.3664,0.10934,-0.023213,0.2251,-24.36,-3.6,20.1
7.9679,-4.2495,-9.507,-0.09896,-0.20678,0.1799,-24.84,-3.48,20.4
5.7614,-2.8603,-7.2188,-0.083994,-0.16768,0.1011,-25.02,-3.3,20.34
4.6445,-2.0022,-6.5105,0.071166,-0.16493,0.25962,-25.14,-3.3,20.58
5.7614,-2.3972,-8.0905,0.18082,0.0076358,0.3094,-25.2,-3.12,20.7
8.2539,-3.7728,-9.9156,0.018326,-0.34514,0.28405,-25.2,-3.06,20.76
5.5162,-4.0997,-7.9679,-0.021075,-0.37263,0.29199,-25.2,-3.0,20.94
2.6015,-2.3836,-5.6388,0.17165,-0.077885,0.31276,-25.2,-2.82,21.18
7.0281,-4.4947,-9.1937,0.03543,-0.22266,0.26786,-25.32,-2.82,21.36
4.0589,-2.2882,-5.8704,0.18204,-0.11148,0.23976,-25.26,-2.58,21.42
6.4152,-3.5549,-9.1529,0.15394,-0.25779,0.30085,-25.5,-2.22,21.84
5.5707,-2.9011,-8.0496,0.059865,-0.24801,0.2138,-25.5,-2.22,21.96
5.7205,-3.1599,-7.8317,0.051313,-0.29383,0.17715,-25.56,-2.28,22.14
3.5549,-2.6015,-6.1836,0.076969,-0.208,0.23732,-25.5,-2.16,22.14
6.9872,-3.8273,-9.8203,-0.012217,-0.28008,0.18265,-25.32,-1.8,22.5
5.5162,-5.2438,-8.431,-0.22358,-0.34331,0.027489,-25.38,-1.62,22.68
3.3915,-1.1577,-5.2166,-0.087659,-0.31246,0.032987,-25.38,-1.38,23.04
6.3335,-1.9886,-8.2403,0.18173,-0.21777,0.18387,-25.44,-1.26,23.16
6.7421,-4.1951,-9.3299,0.072693,-0.46731,0.22694,-25.56,-1.08,23.4
5.1213,-3.9908,-8.2403,-0.039706,-0.32773,0.20433,-25.44,-0.96,23.7
2.9556,-4.6718,-6.9872,-0.034514,-0.42058,0.22571,-25.38,-0.96,23.94
3.4732,-2.2201,-5.8704,0.20372,-0.15241,0.20525,-25.38,-1.02,24.18
3.1054,-4.5083,-6.7829,0.21869,-0.30818,0.23366,-24.84,-0.84,24.54
3.8001,-3.8001,-6.1564,0.22449,-0.18295,0.30299,-24.72,-0.78,24.78
5.2983,-4.1133,-7.6955,0.20006,-0.074526,0.21625,-24.6,-0.6,25.14
3.1872,-5.7205,-6.1836,0.10599,-0.12004,0.26634,-24.18,-0.42,25.5
4.0316,-5.3937,-6.3879,0.091324,0.096211,0.16066,-24.24,-0.42,25.74
4.0589,-4.1951,-5.5435,0.18937,0.16463,0.14783,-24.18,-0.36,25.92
2.9556,-6.17,-8.2676,0.020159,0.08094,0.097738,-23.94,-0.24,26.28
3.2825,-4.5492,-6.0611,0.067195,0.47617,0.026267,-24.06,0.12,26.46
3.5004,-4.304,-5.9112,0.2138,0.46365,0.11606,-23.88,0.18,26.52
4.0452,-6.7012,-9.1256,0.13195,0.49327,0.17746,-23.7,0.42,26.58
2.9284,-6.6467,-6.7966,-0.074526,0.59132,0.14661,-23.64,0.66,26.58
3.5685,-4.8488,-5.2575,0.094073,0.96669,0.13042,-23.7,0.84,26.58
3.3506,-6.0611,-6.6604,0.16952,0.9218,0.17257,-24.0,1.08,26.46
4.0452,-3.6094,-7.1915,0.18845,1.0522,0.15149,-24.24,1.38,26.28
4.2223,-3.8409,-6.8647,0.18326,1.0892,0.26328,-24.48,1.44,25.98
4.4811,-4.7944,-7.9134,0.054672,1.0513,0.31582,-25.14,1.74,25.26
5.094,-6.3198,-9.4661,-0.11668,0.91172,0.31826,-25.44,1.86,25.02
3.732,-7.0962,-8.4038,-0.23091,0.95203,0.29016,-26.04,2.34,24.18
4.2632,-2.2065,-7.0145,-0.043982,1.2278,0.29383,-26.4,2.46,23.88
7.0962,-3.7865,-7.3141,-0.055283,1.1316,0.31185,-26.64,2.58,23.64
8.3084,-5.6388,-8.0088,-0.14783,0.98166,0.26817,-27.06,2.76,23.28
5.5707,-4.304,-6.2517,-0.25931,0.73976,0.22846,-28.08,2.94,22.56
6.3743,-4.5764,-6.9328,-0.20769,0.84208,0.29077,-28.56,2.94,22.02
8.1177,-4.9442,-8.2131,-0.3262,0.73243,0.1463,-28.92,3.06,21.48
3.9635,-5.489,-6.7012,-0.41203,0.50396,0.18845,-29.7,3.18,20.52
4.5764,-3.0646,-6.8919,-0.3427,0.81978,0.16982,-30.06,3.12,20.28
5.9112,-2.3155,-7.4503,-0.32681,0.73609,0.25931,-30.42,3.3,19.86
8.4719,-4.7399,-9.0439,-0.49144,0.38637,0.17196,-30.66,3.48,19.5
4.7399,-4.5901,-7.4912,-0.53603,0.2923,0.19823,-31.2,3.42,18.78
4.8897,-3.2825,-7.2869,-0.51252,0.43158,0.20311,-31.56,3.3,18.36
6.0474,-3.0646,-7.5321,-0.48014,0.25412,0.17104,-32.1,3.36,17.58
6.1836,-1.3757,-7.7364,-0.39554,0.29016,0.14111,-32.34,3.3,16.92
9.3163,-3.6094,-10.011,-0.46395,0.16096,0.091935,-32.52,3.12,16.5
8.1313,-5.5571,-9.6568,-0.79901,-0.15302,-0.11393,-32.58,3.06,16.26
6.0202,-3.1872,-5.2302,-0.60842,0.10354,-0.0048869,-32.82,3.18,15.6
8.145,-3.5549,-5.7069,-0.47831,0.09499,-0.097433,-32.94,3.06,15.48
7.0553,-4.7399,-8.2539,-0.49175,-0.47495,-0.25229,-33.24,2.94,15.06
3.2553,-2.8467,-5.7342,-0.47403,-0.4218,-0.1069,-33.36,2.82,14.76
3.9908,-1.2531,-5.38,-0.36408,-0.135,-0.08094,-33.36,2.58,14.64
8.6353,-5.0668,-8.4719,-0.44532,-0.62094,-0.1967,-33.42,2.22,14.46
4.1542,-5.4073,-5.5707,-0.5171,-0.38454,-0.22938,-33.36,2.04,14.4
5.2575,-1.3212,-4.7263,-0.37141,-0.20403,-0.3094,-33.3,1.8,14.46
7.0417,-3.4187,-7.4776,-0.23732,-0.56902,-0.21716,-33.18,1.14,14.7
7.1234,-4.8897,-7.7908,-0.35308,-0.48686,-0.29047,-33.0,0.96,15.06
5.6661,-4.3994,-7.3822,-0.38576,-0.43982,-0.3146,-33.0,0.9,15.3
4.7944,-2.5742,-6.7557,-0.1518,-0.31521,-0.16402,-32.94,0.48,15.6
4.8352,-3.7047,-6.8919,-0.1347,-0.31398,-0.11942,-32.76,0.06,15.84
5.8295,-4.4811,-7.1371,-0.16371,-0.21991,-0.18784,-32.7,-0.18,16.14
5.9249,-4.9306,-7.2188,-0.19426,-0.18295,-0.24557,-32.46,-0.9,16.74
4.7944,-3.4323,-6.0202,-0.0562,-0.002138,-0.1014,-32.22,-1.08,16.98
5.5162,-4.6718,-7.1779,-0.14875,-0.023518,-0.094379,-31.92,-1.32,17.22
5.0531,-6.6059,-6.9872,-0.24587,0.074526,-0.14478,-31.86,-1.62,17.46
4.1814,-1.4029,-6.1836,-0.070555,0.089186,-0.11148,-31.68,-1.86,17.94
4.6854,-2.1929,-7.8998,-0.070555,-0.044288,-0.037874,-31.68,-1.98,17.94
4.6582,-3.1599,-8.1586,-0.10751,0.16127,0.099876,-31.5,-2.22,18.06
4.7944,-4.4539,-6.8238,-0.25076,0.16432,0.022297,-31.44,-2.28,18.12
5.094,-3.4732,-7.4367,-0.16096,0.18051,0.0097738,-31.44,-2.58,18.3
5.1621,-2.3836,-7.7227,-0.12645,0.17807,0.0015272,-31.32,-2.76,18.42
6.7829,-3.8273,-8.9077,-0.079107,0.14539,0.12553,-31.2,-3.06,18.48
4.5764,-2.4653,-6.8374,-0.090103,0.18234,0.13378,-31.14,-3.24,18.42
6.3743,-1.4165,-8.6081,-0.037568,0.073915,0.16799,-31.08,-3.3,18.48
5.0395,-4.1814,-6.8919,-0.2135,0.076053,0.095906,-30.96,-3.36,18.48
3.8818,-1.6753,-5.4073,-0.11881,0.25076,0.1127,-30.96,-3.36,18.6
8.2267,-3.4868,-9.1393,-0.05284,0.071471,0.11973,-30.78,-3.48,18.72
5.6797,-3.1872,-7.0553,-0.059865,0.11973,0.087965,-30.72,-3.66,18.78
7.2188,-2.833,-8.2539,-0.085827,0.0045815,0.12431,-30.54,-3.78,19.02
4.8625,-2.9965,-6.1836,-0.064446,0.1124,0.22174,-30.42,-3.72,19.08
7.4776,-3.051,-8.2403,-0.16921,-0.072998,0.080634,-30.3,-3.78,19.08
3.9908,-1.9341,-5.8295,-0.085521,0.0097738,0.15363,-30.0,-3.72,19.26
4.1814,-2.3155,-5.9657,-0.0030543,0.10415,0.27,-29.88,-3.42,19.38
6.5105,-3.0782,-7.4912,-0.074831,0.049786,0.2306,-29.58,-3.0,19.68
7.6138,-3.5958,-8.3357,-0.11362,-0.053756,0.17746,-29.52,-2.76,19.74
6.9872,-4.6173,-8.4446,-0.22663,-0.13225,0.058338,-29.4,-2.52,19.86
5.3392,-1.3212,-8.0632,-0.082772,0.11973,0.16127,-29.1,-2.04,19.8
7.246,-2.8603,-9.0303,-0.12278,-0.012217,0.21502,-29.04,-1.8,19.8
4.0316,-2.656,-6.4016,-0.016799,0.093157,0.29413,-28.98,-1.56,19.68
5.8023,-2.2337,-7.8998,-0.019548,0.058948,0.28314,-28.74,-1.32,19.62
4.9306,-2.3836,-7.3958,0.038485,-0.016188,0.41783,-28.68,-1.08,19.62
7.8045,-3.8137,-9.0712,-0.046426,0.045509,0.37721,-28.5,-0.54,19.68
5.0531,-4.0589,-6.5378,-0.087659,0.013744,0.32132,-28.44,-0.24,19.68
5.1621,-2.8058,-6.8647,-0.035736,0.012828,0.29749,-28.2,0.3,19.5
5.2166,-2.2337,-7.3686,-0.0058032,-0.016493,0.3769,-28.08,0.48,19.5
7.4095,-3.228,-8.0632,-0.034819,-0.027489,0.36774,-28.02,0.66,19.32
6.8919,-3.2825,-7.5865,-0.069639,-0.15913,0.3375,-28.14,0.9,19.26
7.3822,-3.6366,-9.1393,-0.1069,-0.24923,0.32559,-28.14,1.26,19.02
5.2438,-4.1951,-6.9872,-0.15424,-0.025351,0.35125,-28.2,1.56,19.14
8.2131,-2.8058,-9.3844,0.069944,-0.032681,0.42883,-28.14,1.8,19.32
7.8726,-5.3256,-9.4389,-0.083994,-0.36835,0.42913,-28.2,2.22,19.38
5.2166,-3.1872,-6.1836,-0.21319,-0.26298,0.33506,-28.26,2.52,19.44
4.9033,-2.5061,-6.6331,-0.049175,-0.27367,0.3824,-28.2,2.7,19.38
5.3119,-2.7786,-7.2869,0.019242,-0.22388,0.44532,-28.32,3.24,19.26
6.6604,-4.0316,-8.7579,-0.074831,-0.34086,0.44104,-28.44,3.48,19.26
3.1054,-2.3018,-5.6252,-0.11332,-0.33598,0.46059,-28.62,3.78,19.32
6.3062,-3.5958,-8.1177,0.018326,-0.14264,0.54367,-28.62,3.9,19.26
6.3471,-5.3528,-8.7987,-0.17318,-0.39095,0.45479,-28.68,4.14,19.32
5.2847,-5.0531,-7.7364,-0.18967,-0.2923,0.32406,-28.68,4.38,19.38
3.8546,-3.228,-7.1779,-0.075747,-0.28253,0.36469,-28.92,4.86,19.74
4.3177,-2.7649,-7.355,-0.025045,-0.25107,0.41722,-28.86,4.92,19.74
4.9033,-3.051,-9.4798,-0.1069,-0.29016,0.51099,-29.04,5.46,19.86
4.5083,-5.4754,-7.0145,-0.18692,-0.28833,0.49633,-29.16,5.64,19.92
4.2632,-1.9205,-5.0804,-0.081551,-0.0015272,0.46151,-29.1,5.76,20.1
6.674,-3.2144,-8.8124,0.028711,-0.3708,0.49114,-29.1,6.06,20.28
4.6037,-6.1292,-8.145,-0.11545,-0.30177,0.3769,-29.04,6.3,20.82
5.2166,-3.1054,-5.8976,-0.012523,0.047342,0.25198,-28.98,6.42,21.06
6.6059,-3.9363,-8.3765,-0.027489,-0.35613,0.135,-28.86,7.02,21.54
5.2847,-4.0997,-7.3958,-0.10782,-0.28833,0.058643,-28.86,7.32,21.66
5.8431,-3.9363,-7.1507,-0.10049,-0.30055,0.062614,-28.68,7.44,21.9
5.6388,-4.2087,-8.0905,-0.075747,-0.35155,0.12309,-28.5,7.62,22.2
5.4073,-3.4459,-7.7227,-0.069333,-0.33078,0.13958,-28.44,7.62,22.26
4.9578,-3.8409,-7.75,-0.073304,-0.38637,0.13225,-28.32,7.8,22.56
5.6797,-2.4925,-7.6002,-0.0064141,-0.27489,0.011301,-28.08,7.98,22.92
6.5241,-2.833,-9.2618,-0.12309,-0.54214,-0.098655,-27.84,7.86,23.16
4.4947,-3.3778,-7.5048,-0.12431,-0.44593,-0.12248,-27.9,7.86,23.22
4.808,-4.8352,-7.6002,-0.13622,-0.35949,-0.17165,-27.72,7.86,23.34
4.9714,-4.7807,-7.7364,-0.16493,-0.35766,-0.28069,-27.48,7.8,23.4
5.7342,-2.6696,-7.641,-0.1182,-0.35736,-0.38301,-27.24,7.44,23.82
4.9306,-2.8467,-8.0632,0.041539,-0.45204,-0.30116,-26.82,7.08,24.12
4.808,-3.1191,-7.6819,0.085521,-0.31918,-0.23763,-26.64,7.02,24.36
5.7478,-3.8818,-7.9951,0.091019,-0.28405,-0.23152,-26.1,6.9,24.84
3.2416,-4.2359,-6.6331,0.14172,-0.36621,-0.10751,-25.8,6.66,25.32
3.6094,-4.4675,-7.2188,0.1124,-0.17868,-0.15088,-25.68,6.36,25.74
3.1327,-5.3937,-7.5048,0.034208,-0.19548,-0.15424,-25.5,6.12,26.1
3.0646,-4.1542,-6.96,0.040012,-0.032987,-0.16707,-25.2,6.24,26.64
3.732,-3.5685,-7.8181,0.12065,0.135,-0.18021,-25.2,6.18,26.76
3.7865,-5.2575,-9.9292,0.022907,-0.053145,-0.20953,-25.14,6.18,27.0
2.8603,-4.2632,-6.7557,0.084299,0.28466,-0.23549,-25.44,6.18,27.12
3.2144,-3.4596,-6.2381,0.22724,0.26359,-0.19334,-25.32,6.12,27.36
4.8761,-5.0123,-9.2482,0.22022,0.20892,-0.14294,-25.44,6.06,27.36
3.514,-4.2359,-7.641,0.062614,0.22846,-0.16371,-25.5,6.06,27.3
4.6445,-3.7592,-7.6683,0.17135,0.51435,-0.11087,-25.8,6.36,26.82
4.699,-4.9714,-8.6353,0.14264,0.28405,-0.043066,-25.86,6.36,26.7
3.9908,-4.6309,-7.8998,0.0085521,0.26695,-0.10599,-25.86,6.3,26.64
3.9499,-4.4266,-7.069,0.054978,0.42058,-0.1014,-26.04,6.3,26.7
4.1542,-5.5707,-7.6683,0.10385,0.42089,-0.073609,-26.46,6.12,26.4
4.699,-5.8704,-8.6489,0.01069,0.30482,-0.13622,-26.58,6.24,26.22
2.3563,-4.1133,-6.3471,0.094073,0.67256,-0.07086,-27.0,6.36,25.8
5.1894,-2.942,-7.4503,0.18234,0.82222,-0.086132,-27.18,6.36,25.8
6.9736,-4.0861,-9.3436,0.10751,0.60842,-0.098655,-27.36,6.24,25.62
4.127,-4.3721,-7.7364,-0.0012217,0.4725,-0.0033598,-27.66,6.24,25.2
4.6718,-2.0839,-6.4288,0.050091,0.74709,0.027794,-28.02,6.06,24.54
6.2245,-3.4868,-8.0224,0.062308,0.49388,0.08827,-28.32,6.18,24.36
3.6094,-4.5628,-6.96,-0.208,0.24343,-0.081856,-28.44,6.18,24.18
4.8761,-3.2553,-7.3005,-0.16493,0.55619,-0.097128,-28.92,5.76,23.7
5.9385,-4.7399,-7.8589,-0.17623,0.45723,-0.082772,-29.1,5.76,23.4
6.1155,-4.3994,-7.2052,-0.15272,0.47373,-0.14111,-29.34,5.88,23.04
5.1757,-4.6445,-7.1779,-0.13653,0.23793,-0.075136,-29.76,5.76,22.5
6.0066,-2.6968,-6.96,-0.022297,0.49663,-0.069944,-30.0,5.52,22.26
5.7069,-4.3177,-8.6625,-0.058643,0.08827,0.010385,-30.36,5.4,21.72
3.9635,-4.6445,-6.6331,-0.16157,0.16249,0.0036652,-30.54,5.4,21.24
5.9249,-3.9227,-6.7693,-0.19028,0.45571,-0.059559,-30.66,5.46,21.18
5.9657,-4.3449,-7.9134,-0.31368,0.12645,-0.12645,-30.78,5.28,21.06
4.4402,-5.0259,-6.3198,-0.4218,0.24099,-0.25259,-31.26,5.28,20.76
5.3392,-2.4108,-6.4288,-0.28588,0.32773,-0.2645,-31.44,5.04,20.52
6.3743,-2.9556,-8.3765,-0.18754,0.10385,-0.14355,-31.74,4.86,20.16
6.7012,-3.7047,-8.4719,-0.30482,0.1127,-0.085216,-31.86,4.86,19.98
6.8647,-5.3528,-8.4174,-0.41966,0.098655,-0.082161,-32.04,4.56,19.86
3.5685,-1.9886,-4.0589,-0.30849,0.32987,-0.10568,-32.22,4.08,19.56
8.3493,-1.9205,-8.4855,-0.13317,0.089186,-0.1066,-32.4,3.9,19.26
7.9951,-3.8273,-9.507,-0.30024,-0.27092,-0.07758,-32.52,3.78,19.14
3.2416,-0.8717,-5.4754,-0.36194,0.023824,-0.13836,-32.64,3.3,18.96
6.7693,-0.96704,-8.4446,-0.15455,0.094684,0.000305,-32.64,3.12,18.84
8.0632,-3.6639,-10.12,-0.30665,-0.34758,0.018937,-32.7,3.0,18.6
7.5184,-4.9033,-9.6704,-0.41081,-0.24374,-0.12187,-32.76,2.88,18.42
3.337,0.14982,-5.9793,-0.07025,-0.14233,0.061697,-32.76,2.46,18.48
7.3277,-1.3484,-8.4582,0.064141,-0.15821,0.15821,-32.76,2.28,18.42
7.5593,-2.1248,-8.0224,-0.20128,-0.50183,-0.012217,-32.82,2.1,18.3
7.5593,-2.1248,-8.0224,-0.15088,-0.50427,0.028711,-32.82,2.1,18.3
5.3119,-3.1599,-6.7829,-0.12553,-0.46334,0.039706,-32.7,1.92,18.42
7.2188,-2.6015,-6.9328,-0.1799,-0.54398,-0.1689,-32.7,1.92,18.6
5.5571,-2.2201,-6.9736,-0.07758,-0.58551,-0.092546,-32.58,1.86,18.9
7.4095,-2.9284,-8.4719,-0.16677,-0.58063,-0.16096,-32.52,1.86,19.26
4.4402,-2.2474,-6.5378,-0.085216,-0.44807,-0.01405,-32.28,1.68,19.5
5.1894,-2.6015,-6.7693,0.045204,-0.48228,0.096822,-32.1,1.62,19.8
5.8023,-2.2201,-7.5321,0.077274,-0.33109,0.059559,-31.98,1.56,20.16
7.1643,-2.3291,-8.4719,0.068417,-0.39218,0.014661,-31.8,1.56,20.52
3.9635,-2.6015,-6.9055,0.13561,-0.49847,0.041539,-31.56,1.62,20.94
6.5105,-3.9635,-7.9815,0.12462,-0.4499,-0.076969,-31.5,1.68,21.54
5.6524,-2.261,-6.7421,0.1405,-0.49052,-0.23396,-31.14,1.74,21.96
5.8023,-3.1054,-7.7091,0.08827,-0.74128,-0.30177,-30.54,1.74,22.62
3.3506,-2.2882,-5.2166,0.21441,-0.40623,-0.21594,-30.24,1.74,22.98
5.8976,-2.3836,-7.2869,0.23763,-0.405,-0.20525,-30.0,1.68,23.1
6.8374,-3.1872,-8.9622,0.11973,-0.67378,-0.24832,-29.82,1.74,23.34
3.9227,-2.1929,-6.5241,0.11668,-0.58674,-0.2419,-29.16,1.86,23.88
5.0804,-2.4789,-7.7091,0.23121,-0.44502,-0.21625,-28.92,1.86,24.3
4.4266,-2.2337,-6.9191,0.26176,-0.4612,-0.17257,-28.5,1.98,24.66
6.6059,-4.9306,-9.5206,0.16677,-0.58246,-0.23671,-28.02,2.16,25.2
3.8001,-2.9148,-5.7886,0.17135,-0.27,-0.20617,-27.84,2.1,25.44
5.5435,-3.6366,-8.5808,0.21961,-0.53726,-0.17135,-27.54,2.04,25.68
4.127,-4.0725,-8.1313,0.19303,-0.3992,-0.12553,-27.06,1.92,25.92
3.6911,-1.3484,-5.5435,0.34636,-0.20067,-0.071166,-26.46,1.86,26.28
5.0668,-3.1599,-8.2403,0.47464,-0.30757,0.0082467,-26.28,1.92,26.58
5.1213,-4.3858,-8.1858,0.27184,-0.23396,0.083383,-25.92,2.04,27.06
6.2926,-6.279,-8.9894,0.07422,-0.32376,-0.058948,-25.62,1.98,27.42
3.6366,-5.4073,-6.4016,0.21258,-0.17562,-0.019548,-25.38,1.98,27.66
3.4187,-3.1327,-7.1915,0.28161,-0.23579,-0.097128,-25.14,1.98,27.96
5.5162,-3.732,-9.3844,0.13897,-0.31612,-0.10049,-24.78,2.22,28.26
3.5277,-3.0237,-6.8919,0.20097,-0.19456,0.088575,-24.54,2.28,28.32
5.6933,-5.1213,-9.4389,0.1854,-0.20586,0.10904,-24.06,2.58,28.56
3.4459,-4.3177,-6.7012,0.065363,-0.27184,0.13378,-23.88,2.76,28.62
5.1076,-4.3721,-9.221,0.22266,-0.18998,0.19364,-23.94,3.0,28.74
5.0259,-4.4402,-9.3163,0.24068,-0.29444,0.21961,-23.88,3.18,28.86
4.2904,-3.0918,-7.3822,0.42211,-0.05681,0.27092,-23.46,3.6,29.16
5.4345,-4.9306,-9.0303,0.30574,-0.23946,0.28314,-23.46,3.78,29.16
4.2223,-5.0531,-8.4719,0.33292,-0.17379,0.31582,-23.16,4.14,29.34
3.9908,-4.3994,-7.0281,0.19028,-0.14813,0.18967,-23.1,4.44,29.4
3.3506,-2.7513,-5.2166,0.24221,-0.11332,0.17226,-22.8,4.56,29.4
3.9499,-3.2961,-6.7285,0.31979,-0.15821,0.17623,-22.74,4.8,29.46
4.5083,-5.0259,-8.3629,-0.015882,-0.22541,0.023824,-22.56,5.04,29.52
4.985,-5.5435,-8.9622,-0.11973,-0.31704,-0.12217,-22.5,5.22,29.76
1.6208,-6.1019,-5.9521,-0.16249,-0.41539,-0.087659,-22.38,5.46,30.0
5.0531,-4.1814,-7.069,0.058948,0.19273,-0.34819,-22.32,5.46,30.18
5.8159,-3.8682,-9.0031,0.073304,-0.061392,-0.36255,-22.08,5.46,30.12
3.6094,-4.3449,-7.9407,0.14416,0.0073304,-0.29902,-22.02,5.7,30.18
4.3449,-4.8625,-7.5593,0.1066,0.10232,-0.21228,-21.96,5.82,30.24
4.7126,-3.7728,-6.4833,0.28833,0.15821,-0.083383,-21.72,5.88,30.3
4.699,-5.4481,-9.4934,0.2868,-0.034208,-0.10049,-21.72,6.06,30.18
2.3972,-4.699,-7.927,0.06689,-0.032681,-0.17501,-21.6,6.06,30.18
1.9205,-3.8682,-6.0202,0.091019,0.23549,-0.1799,-21.66,6.18,30.3
3.3506,-4.3177,-7.2188,0.19945,0.23549,-0.17776,-21.78,6.12,30.18
3.732,-4.6445,-7.9951,0.1405,0.26084,-0.19731,-21.72,6.12,30.36
3.0237,-5.0395,-7.8045,0.047647,0.22388,-0.20342,-21.72,6.18,30.24
2.8739,-6.2245,-7.7908,0.040928,0.36438,-0.17685,-21.84,6.12,30.06
3.0646,-5.1485,-6.7421,-0.074526,0.53481,-0.27764,-21.9,6.18,30.0
3.6366,-2.6423,-6.6331,0.065363,0.63469,-0.24038,-21.9,6.24,30.0
3.8273,-3.3778,-6.96,0.083689,0.50671,-0.11729,-21.96,6.24,29.94
5.094,-5.6116,-8.1858,-0.062308,0.39279,-0.13592,-22.14,6.12,29.7
4.2087,-3.7865,-7.1507,-0.13042,0.56688,-0.15272,-22.62,6.0,29.52
4.7671,-4.304,-8.2812,-0.050396,0.46395,-0.055283,-22.8,6.0,29.4
5.38,-6.0883,-9.0984,-0.061392,0.4328,-0.042455,-23.04,5.94,29.28
3.1599,-4.4811,-6.5378,-0.041233,0.49633,-0.09163,-23.76,5.82,28.92
4.699,-3.514,-7.5729,0.072998,0.65912,-0.17623,-23.88,5.64,28.62
5.2575,-2.6696,-7.6955,0.11393,0.5342,-0.13011,-24.18,5.64,28.26
5.4073,-4.7535,-8.2812,0.030849,0.39492,-0.080023,-25.08,5.46,27.72
4.7671,-5.203,-7.6138,-0.13317,0.41539,-0.1518,-25.5,5.28,27.36
3.9908,-4.1814,-7.2733,-0.13408,0.44379,-0.10049,-26.22,5.16,26.88
4.9033,-3.5822,-8.0905,-0.12675,0.40714,-0.14936,-26.46,5.1,26.64
6.7693,-4.0725,-8.5263,-0.20769,0.3317,-0.23427,-26.82,4.92,26.4
5.6252,-4.9987,-7.6683,-0.20769,0.20647,-0.20036,-26.88,4.98,26.16
5.9385,-3.0782,-7.2188,-0.10201,0.47739,-0.14478,-27.48,4.8,25.62
6.1564,-4.6445,-7.641,-0.11301,0.20311,-0.0024435,-27.72,4.5,25.38
5.7069,-2.9965,-7.7908,-0.06017,0.31979,0.0024435,-28.02,4.44,25.08
6.7693,-5.5162,-8.4174,-0.14508,0.20556,-0.033903,-28.26,4.14,24.54
2.7377,-2.9556,-5.8295,-0.18692,0.24557,-0.084605,-28.44,4.26,24.48
4.8625,-3.0237,-7.1915,-0.20189,0.13683,-0.11087,-28.56,4.08,24.3
4.2223,-3.8273,-5.5843,-0.29505,0.18784,-0.21655,-28.8,3.78,23.88
6.4969,-2.6423,-6.6876,-0.089797,0.038179,-0.29871,-29.04,3.78,23.7
4.3858,-5.3119,-7.0281,-0.12401,-0.15882,-0.22938,-29.1,3.66,23.7
6.8374,-3.7592,-8.0224,-0.13256,0.21136,-0.27458,-29.4,3.48,23.22
5.6661,-3.3234,-7.246,-0.11698,0.05284,-0.16493,-29.46,3.36,23.04
3.7047,-1.7706,-5.7886,-0.02138,0.31124,-0.11484,-29.64,3.18,22.92
5.6116,-5.2711,-6.3743,-0.24526,-0.030849,-0.21136,-29.94,2.88,22.62
3.4596,-3.2553,-4.8761,-0.20372,0.22052,-0.19761,-29.88,2.7,22.5
6.7966,-4.3858,-8.145,-0.15638,0.062003,-0.22235,-30.06,2.4,22.38
5.4754,-4.5764,-6.8919,-0.30879,-0.056505,-0.28497,-30.18,2.16,22.38
3.8001,-2.547,-6.0883,-0.26786,-0.019548,-0.38698,-30.18,1.98,22.26
4.9987,-2.4653,-7.8453,-0.24129,-0.073609,-0.23152,-30.24,1.8,22.32
6.279,-3.8001,-7.6683,-0.28924,0.0064141,-0.14783,-30.24,1.56,22.38
6.2926,-3.7728,-7.0826,-0.32162,-0.026573,-0.20036,-30.06,1.38,22.38
4.8352,-2.4108,-6.5378,-0.20769,-0.030543,-0.14905,-30.12,1.14,22.38
5.8976,-1.8932,-7.4231,-0.22113,-0.070555,-0.13256,-29.88,0.78,22.5
7.927,-4.018,-9.2482,-0.3207,-0.19823,-0.087048,-29.88,0.78,22.44
11.536,-7.7091,-10.46,-0.613,-0.1854,-0.43799,-29.88,0.6,22.38
4.9442,-1.6072,-6.8647,-0.208,-0.12614,-0.22174,-29.88,0.3,22.5
4.9578,-2.0839,-8.7306,-0.093462,-0.38423,-0.050091,-29.88,0.06,22.74
8.3765,-2.3155,-9.507,-0.10446,-0.14661,0.06017,-29.76,-0.18,22.98
5.5707,-2.438,-8.1722,-0.11362,-0.31612,0.11484,-29.7,-0.3,23.1
4.7944,-2.7377,-7.355,-0.047342,-0.19945,0.13867,-29.76,-0.48,23.16
4.5764,-1.2939,-6.3335,0.1179,-0.094073,0.19761,-29.82,-0.66,23.04
6.279,-3.0646,-7.4095,0.048869,-0.2697,0.083994,-29.88,-0.96,23.22
7.4503,-2.1112,-7.4776,-0.045204,-0.28436,-0.081551,-29.82,-1.08,23.34
5.1485,-2.3563,-7.4095,-0.072388,-0.50519,-0.034514,-29.76,-1.32,23.76
5.203,-3.732,-6.6059,-0.083689,-0.27519,0.03543,-29.88,-1.44,23.94
6.3471,-2.7104,-6.7966,-0.046731,-0.34667,-0.064752,-29.76,-1.68,24.24
5.2166,-1.3757,-7.927,0.023824,-0.62492,-0.0562,-29.34,-1.8,24.78
6.0066,-2.2474,-8.5808,0.047037,-0.46945,0.035125,-29.22,-1.8,25.02
6.1292,-3.5277,-7.9543,-0.000916,-0.39767,0.03879,-28.98,-1.74,25.08
7.4503,-2.7377,-8.5944,0.1686,-0.27519,0.022297,-28.68,-1.74,25.32
5.8159,-2.2474,-7.7091,0.094379,-0.49297,-0.071777,-28.56,-1.8,25.62
4.6445,-1.6753,-6.5922,0.15791,-0.3149,0.041539,-28.26,-1.62,25.86
5.9793,-4.8488,-7.8998,0.049175,-0.42883,0.0045815,-27.72,-1.5,26.4
4.6309,-3.8818,-7.1098,0.10232,-0.35308,-0.0281,-27.54,-1.5,26.52
5.7614,-3.4459,-8.6353,0.16035,-0.46792,-0.086743,-27.36,-1.5,26.76
3.0646,-1.5391,-6.4424,0.34789,-0.26634,-0.054672,-26.94,-1.38,27.06
5.5026,-2.0431,-8.8668,0.36469,-0.34239,0.0073304,-26.7,-1.26,27.24
6.1428,-4.1951,-9.5479,0.30757,-0.42883,0.046426,-26.46,-1.14,27.36
8.1586,-2.1384,-8.9622,0.26481,-0.23946,-0.094379,-26.28,-1.02,27.78
6.1973,-5.2847,-9.9292,0.0562,-0.73121,-0.146,-26.1,-0.9,28.08
1.2258,-3.2553,-4.4947,0.11209,-0.21747,-0.08827,-26.1,-0.84,28.44
6.7693,-2.8467,-9.5887,0.3094,-0.37782,0.047953,-25.8,-0.48,28.98
5.2575,-3.4732,-8.1858,0.22266,-0.44349,0.033292,-25.5,-0.3,29.04
4.7126,-2.3427,-6.8919,0.27153,-0.30238,0.002138,-25.38,-0.36,29.1
7.75,-4.8488,-10.706,0.15485,-0.44746,-0.025351,-24.96,-0.3,29.58
3.5958,-5.38,-6.6604,0.054672,-0.35308,0.023824,-24.72,-0.12,29.82
1.3212,-2.1248,-3.1872,0.31154,0.073609,0.078496,-24.54,-0.06,30.0
5.5843,-5.4754,-10.542,0.23763,-0.46976,0.037874,-24.18,0.06,30.36
2.5742,-4.3994,-6.3198,0.09499,-0.013439,0.077274,-24.0,0.18,30.36
5.9249,-2.7377,-7.641,0.1573,-0.30635,0.017715,-23.76,0.36,30.54
4.4811,-5.0531,-9.8475,0.10996,-0.5061,0.10201,-23.52,0.54,30.48
3.2689,-3.5413,-6.0202,0.10873,0.072693,-0.0042761,-23.04,0.9,30.66
3.8137,-2.6832,-6.8919,0.2697,-0.17196,0.09499,-22.8,1.02,30.66
3.8001,-3.3915,-9.8748,0.30757,-0.18021,0.2416,-22.68,1.14,30.66
5.0531,-4.3449,-7.6683,0.11973,-0.11332,0.21991,-22.5,1.32,30.72
4.7944,-3.8682,-7.7227,0.20708,-0.15394,0.20983,-22.32,1.62,30.78
4.5356,-6.0883,-8.9894,0.21197,-0.2642,0.26206,-22.14,2.04,30.78
3.228,-5.5707,-5.8704,0.18418,0.13164,0.16402,-22.08,2.16,30.84
4.7807,-3.0237,-7.8317,0.26114,-0.23121,0.12798,-21.78,2.76,31.02
2.942,-3.5413,-6.674,0.27978,-0.10476,0.2138,-21.72,2.88,31.08
6.0883,-5.6116,-8.4446,0.20097,0.12828,0.11423,-21.54,3.54,31.14
4.6173,-5.7342,-7.7364,0.0015272,-0.068722,0.000305,-21.48,3.72,31.14
2.9965,-4.7671,-6.8374,0.1463,-0.047647,0.032681,-21.36,4.02,31.26
3.7047,-5.1213,-8.0496,0.10385,0.025351,0.015272,-21.24,4.08,31.08
4.413,-4.2223,-7.5184,0.16616,0.083078,0.014966,-21.24,4.5,31.2
5.203,-5.0123,-8.7443,0.1069,0.0088575,-0.031154,-21.06,4.5,31.08
3.6775,-3.7728,-6.0474,0.16157,0.15852,-0.000305,-21.0,4.74,31.44
4.5356,-4.9578,-7.6002,0.22358,0.20647,0.019242,-20.94,4.74,31.44
4.1133,-5.7478,-7.9407,0.13042,0.058948,0.014966,-21.0,4.86,31.44
4.4947,-4.8897,-7.8453,-0.024435,0.24954,-0.13347,-21.12,4.98,31.5
2.7649,-3.9635,-6.8102,0.083689,0.32498,-0.1011,-21.3,5.28,31.26
3.5685,-5.0259,-7.9679,0.10934,0.30757,-0.072388,-21.36,5.46,31.2
4.413,-4.6582,-8.8668,0.012828,0.35064,-0.087659,-21.54,5.22,31.26
2.0431,-4.6309,-6.8102,0.097738,0.31704,0.012828,-21.66,5.22,31.26
2.5061,-5.3119,-7.5184,0.10843,0.44135,0.0067195,-21.78,5.16,31.14
4.1133,-4.0997,-8.431,-0.027184,0.45571,-0.057421,-21.96,5.1,31.2
4.1406,-4.3177,-7.4095,0.046426,0.54092,-0.0039706,-22.26,5.1,31.02
4.9306,-5.993,-7.9679,-0.030543,0.23121,-0.029322,-22.44,5.34,30.96
4.8216,-2.8194,-7.9679,-0.1011,0.47464,-0.13653,-22.68,5.4,30.54
4.6309,-4.522,-7.3822,-0.045815,0.37477,-0.043677,-22.86,5.4,30.42
5.5571,-4.985,-7.6002,-0.079412,0.37415,-0.063225,-23.1,5.34,30.3
6.7829,-5.7342,-8.6353,-0.15394,0.14142,-0.15852,-23.4,5.28,29.88
2.5198,-2.4789,-6.2654,-0.066584,0.16952,-0.17654,-23.58,5.1,29.7
3.8001,-0.12258,-7.0826,0.14722,0.56872,-0.03879,-23.7,5.1,29.64
8.145,-5.4073,-9.5751,0.1295,0.23121,0.010385,-24.12,5.1,28.92
2.6832,-2.8058,-6.7285,-0.17868,-0.018631,-0.028405,-24.36,5.04,28.74
3.5958,-3.732,-6.96,-0.13836,0.11301,-0.024435,-24.54,5.04,28.5
4.9442,-4.2495,-6.9328,-0.17287,0.1066,-0.19884,-24.84,5.28,28.26
4.9306,-2.0839,-7.6274,-0.092241,0.0018326,-0.22969,-24.96,5.22,28.14
6.8238,-4.6037,-8.826,-0.16952,-0.085827,-0.25229,-25.14,5.04,28.14
6.8647,-3.1327,-8.4719,-0.12462,0.085216,-0.30788,-25.5,4.8,27.9
7.5048,-6.2517,-9.1529,-0.26939,-0.3766,-0.28527,-25.56,4.8,27.78
3.1191,-3.8682,-6.4152,-0.24771,-0.25962,-0.26237,-25.62,4.62,27.6
5.0531,-0.92618,-7.355,-0.10385,-0.11118,-0.21441,-25.74,4.5,27.6
6.2517,-5.7205,-8.2403,-0.25015,-0.33811,-0.26603,-25.8,4.2,27.48
4.2087,-4.9714,-6.5514,-0.30818,-0.13744,-0.34239,-25.92,4.02,27.42
5.1213,-1.8524,-6.96,-0.20067,-0.20464,-0.41386,-25.86,3.78,27.6
6.4833,-3.1599,-7.8045,-0.1295,-0.21533,-0.34056,-25.98,3.48,27.84
7.8045,-6.7421,-7.7091,-0.31093,-0.35003,-0.42883,-26.04,3.18,27.96
3.1735,-4.7399,-4.985,-0.26664,-0.10385,-0.47373,-25.98,2.88,27.96
9.4117,-3.8954,-9.5615,-0.1518,-0.26389,-0.5678,-25.86,2.34,28.14
6.5922,-4.8625,-8.1586,-0.2584,-0.51343,-0.59162,-25.68,2.16,28.2
4.304,-3.4459,-5.6661,-0.13347,-0.22724,-0.56505,-25.74,1.86,28.44
5.6116,-2.6423,-8.3084,0.018631,-0.15027,-0.37049,-25.68,1.56,28.68
7.1915,-4.3177,-9.2618,-0.15974,-0.3427,-0.37935,-25.68,1.32,28.74
6.0202,-5.094,-8.3493,-0.21777,-0.31582,-0.40592,-25.56,1.02,28.92
5.8704,-4.7399,-7.0962,-0.12675,-0.1463,-0.56872,-25.44,0.78,28.92
4.2768,-2.6423,-7.6819,0.045509,-0.21747,-0.44135,-25.2,0.54,29.1
4.2904,-2.9829,-7.1371,0.06353,-0.012828,-0.24251,-25.2,0.36,29.1
6.7421,-4.6582,-8.9758,-0.08094,-0.15608,-0.27489,-24.96,-0.18,29.22
5.8023,-4.4947,-7.641,-0.16066,-0.20983,-0.36194,-24.78,-0.36,29.22
4.4811,-2.4925,-6.4833,-0.11912,-0.15821,-0.41264,-24.72,-0.6,29.28
3.9363,-3.5413,-6.8374,0.076053,-0.064446,-0.25779,-24.84,-0.72,29.34
7.069,-2.7513,-9.2618,0.1069,-0.11423,-0.24801,-24.84,-1.08,29.28
5.5299,-1.3348,-8.3765,0.094073,-0.28161,-0.24007,-24.66,-1.26,29.34
4.127,-0.68102,-8.4719,0.18692,-0.083383,-0.085216,-24.6,-1.38,29.4
8.9077,-5.0531,-9.8339,-0.12889,-0.11759,-0.23518,-24.42,-1.56,29.52
3.9908,-3.623,-5.8567,-0.1237,-0.23366,-0.32162,-24.36,-1.68,29.58
3.1599,-2.3291,-5.7614,0.11026,-0.11851,-0.25504,-24.36,-1.74,29.7
6.1155,-1.9341,-8.6489,0.036346,-0.19334,-0.19242,-24.18,-2.16,29.88
6.1155,-1.9341,-8.6489,0.036346,-0.19334,-0.19242,-24.18,-2.16,29.88
6.1155,-1.9341,-8.6489,0.036346,-0.19334,-0.19242,-24.18,-2.16,29.88
3.0646,-2.0294,-6.1973,0.29016,0.047953,-0.017715,-24.24,-2.28,30.0
8.1177,-4.7807,-8.9894,0.36377,0.12065,0.12889,-24.3,-2.34,30.12
8.7987,-4.6037,-9.1256,0.061697,-0.35247,-0.27428,-24.3,-2.4,30.18
4.0589,-2.6968,-6.7285,0.15058,-0.29444,-0.31887,-24.18,-2.46,30.36
4.8625,-3.4732,-7.7636,0.208,-0.16585,-0.34025,-24.12,-2.64,30.42
4.4811,-1.4982,-6.9736,0.2251,-0.11942,-0.34544,-24.18,-2.88,30.66
6.7285,-3.0101,-8.6898,0.28772,-0.15852,-0.22724,-24.12,-2.94,30.78
7.7091,-4.5356,-9.5206,0.079107,-0.33201,-0.34728,-24.18,-3.06,30.9
3.4732,-1.9886,-6.4833,0.1799,-0.051924,-0.27397,-24.12,-3.18,31.32
3.9908,-3.732,-6.6059,0.31643,-0.10507,-0.10782,-24.0,-3.36,31.38
6.456,-3.7728,-9.2346,0.15455,-0.21289,-0.33567,-24.06,-3.54,31.62
2.7241,-2.0975,-6.3743,0.047342,-0.40714,-0.44624,-24.12,-3.78,31.8
0.61292,-0.98067,-5.38,0.24038,-0.034514,-0.29413,-23.88,-3.78,32.04
7.3822,-3.9908,-9.6977,0.11209,-0.14508,-0.26634,-23.7,-4.08,32.1
3.4051,-1.8796,-6.565,0.19945,-0.13561,-0.1744,-23.34,-4.14,32.34
5.203,-4.3585,-8.1586,0.19487,-0.058643,-0.067195,-23.1,-4.38,32.34
5.8976,-4.4402,-8.5536,0.069028,-0.14661,-0.20403,-23.1,-4.32,32.52
5.1213,-2.4789,-8.2539,0.082772,-0.10049,-0.24251,-22.68,-4.2,32.64
3.1054,-1.1441,-6.7693,0.1295,0.091935,-0.1011,-22.62,-4.32,32.7
7.2052,-3.7047,-9.221,0.0033598,-0.15394,-0.18173,-22.38,-4.2,32.76
1.5255,-2.3018,-5.7614,0.13989,-0.086437,-0.071471,-22.08,-4.26,32.7
5.094,-2.5742,-9.3572,0.19823,-0.0082467,-0.0079412,-21.96,-4.2,32.76
6.7966,-3.0918,-10.678,0.069639,-0.058338,0.0064141,-21.6,-4.26,32.82
1.5391,-1.9205,-5.3528,0.048258,-0.1179,0.088881,-21.24,-4.14,32.94
4.4675,-2.3155,-7.9134,0.26756,0.16341,0.13561,-21.24,-4.08,32.94
7.2188,-3.5413,-9.9292,0.19273,0.043371,0.14416,-21.12,-3.84,32.94
7.8045,-5.9657,-9.4934,-0.039706,-0.096822,0.041233,-21.06,-3.72,33.0
0.23155,-1.0079,-4.1406,0.2981,0.17837,0.23121,-21.0,-3.66,33.18
7.5865,-4.3994,-10.801,0.27336,-0.0088575,0.26939,-20.94,-3.66,33.18
7.1915,-5.38,-9.6704,-0.021991,-0.18234,0.22297,-20.82,-3.72,33.3
4.8761,-1.7025,-8.1586,0.27642,0.11912,0.35461,-20.52,-3.48,33.18
9.616,-7.0417,-11.605,-0.15241,-0.24038,0.19364,-20.46,-3.42,33.18
3.1191,-5.5707,-5.6388,-0.19761,-0.146,0.14813,-20.46,-3.24,33.18
4.7535,-4.6309,-7.0826,0.060781,-0.080329,0.025962,-20.4,-2.88,33.42
3.4459,-3.3097,-7.1098,0.20097,0.012828,0.069639,-20.4,-2.64,33.36
8.036,-4.5901,-10.12,0.046426,-0.10263,-0.000611,-20.4,-2.52,33.42
1.5119,-0.99429,-4.8761,-0.064446,0.051313,-0.027489,-20.22,-2.28,33.36
6.4697,-3.4868,-8.145,0.25626,0.20739,0.30788,-20.28,-2.16,33.54
9.507,-5.993,-10.038,-0.060781,-0.20556,0.135,-20.28,-2.1,33.54
2.4653,-2.4517,-6.2926,0.089492,-0.007025,0.2251,-20.16,-1.86,33.6
4.8897,-4.127,-7.4503,0.10782,0.22235,0.26481,-20.04,-1.62,33.66
5.1076,-4.5083,-8.3629,0.072082,0.044593,0.056505,-20.16,-1.26,33.9
2.547,-3.7047,-6.1155,0.086743,-0.032987,0.089186,-20.16,-1.14,33.84
3.1599,-3.7592,-6.8374,0.22633,0.32437,0.067501,-20.16,-1.08,33.9
5.1076,-4.3994,-8.8124,0.17837,0.22571,0.069333,-20.28,-0.96,33.9
4.5628,-3.9908,-7.9679,0.085216,0.12645,0.0061087,-20.28,-0.9,33.78
3.9363,-3.1872,-7.1507,0.071777,0.10629,-0.000611,-20.4,-0.66,33.54
4.6718,-2.9965,-7.0962,0.14294,0.24709,0.079718,-20.46,-0.42,33.42
4.7399,-5.3119,-7.1507,0.14386,0.18082,0.051618,-20.46,-0.24,33.48
4.3994,-3.7184,-8.7034,-0.022602,0.030849,0.000611,-20.58,-0.12,33.3
2.2201,-3.0782,-5.4618,0.066279,0.34086,0.089797,-20.7,-0.12,33.24
3.8273,-6.5786,-6.0883,0.19578,0.47983,0.16463,-20.76,0.06,33.18
5.993,-6.5105,-8.8668,0.040623,0.23976,-0.060476,-20.88,0.36,33.18
3.1191,-4.2359,-6.7421,0.000611,0.1744,-0.05284,-21.24,0.42,33.12
1.8932,-3.3234,-4.7671,0.20372,0.7086,0.023518,-21.36,0.54,32.94
7.9134,-5.9385,-9.5479,0.10904,0.72357,-0.048564,-21.6,0.66,32.94
2.3427,-3.3097,-5.38,-0.09163,-0.1179,-0.051313,-21.84,0.9,32.88
4.808,-3.2144,-6.7012,0.068111,0.68753,0.02138,-22.02,1.02,32.88
6.1019,-4.3858,-7.2869,-0.040928,0.35094,0.018326,-22.14,1.14,32.76
2.6832,-4.6582,-6.5786,-0.25351,0.16738,-0.12431,-22.62,1.02,32.52
1.2395,-2.8194,-4.7671,-0.12217,0.41417,0.071166,-22.74,1.08,32.34
8.2131,-5.4073,-8.7034,0.023518,0.79382,0.074526,-22.8,1.2,32.28
5.8023,-5.5843,-8.1858,-0.15669,0.18234,0.046731,-23.1,1.26,31.98
3.9771,-3.8409,-6.7966,-0.25168,0.26084,-0.10751,-23.28,1.08,31.86
4.1678,-3.8682,-6.3198,-0.11851,0.52748,-0.063225,-23.46,1.08,31.68
6.6059,-4.3994,-8.2676,-0.18204,0.38668,-0.12462,-23.76,1.02,31.26
7.5321,-4.5356,-9.0848,-0.29902,0.21991,-0.22205,-24.06,0.84,31.08
2.5061,-3.0918,-5.7614,-0.30818,0.1179,-0.14844,-24.42,0.66,30.66
7.2188,-3.4459,-8.6762,-0.15913,0.5003,-0.047647,-24.42,0.48,30.36
8.7987,-4.2632,-9.1529,-0.27917,0.23915,-0.085521,-24.54,0.42,30.12
5.38,-3.9363,-7.1779,-0.27642,0.13011,-0.081551,-24.66,0.24,29.82
6.3062,-5.2575,-7.5593,-0.30238,0.19853,-0.11148,-24.78,0.06,29.64
5.0804,-4.3994,-5.9249,-0.22144,0.23366,-0.14569,-24.96,-0.12,29.58
7.1915,-2.9011,-8.7715,-0.25687,-0.14203,-0.17226,-25.5,-0.54,29.28
6.0611,-4.0861,-7.0417,-0.29047,-0.12309,-0.18082,-25.62,-0.66,29.04
5.3392,-3.7865,-6.7693,-0.27947,-0.011301,-0.24068,-25.62,-0.6,28.86
5.9249,-4.7263,-7.5729,-0.27214,-0.10721,-0.28069,-25.74,-0.84,28.86
6.3335,-1.8932,-7.7091,-0.19609,-0.17135,-0.30971,-25.86,-1.26,28.56
7.5593,-3.5004,-8.322,-0.33475,-0.32376,-0.32529,-25.68,-1.38,28.5
4.0316,-3.6366,-7.8317,-0.34453,-0.21838,-0.33323,-25.62,-1.86,28.56
5.993,-3.3234,-6.7012,-0.36621,-0.28191,-0.31673,-25.8,-2.04,28.5
6.9464,-3.7184,-7.0417,-0.33078,-0.37293,-0.26909,-25.8,-2.28,28.56
6.3198,-3.3097,-7.0962,-0.24435,-0.40867,-0.22694,-25.68,-2.52,28.62
6.0611,-2.9965,-7.7772,-0.18876,-0.35888,-0.20433,-25.56,-3.12,28.86
5.2575,-2.1248,-7.4095,-0.11484,-0.29749,-0.16157,-25.5,-3.42,28.92
5.8431,-2.547,-8.6625,-0.083383,-0.36896,-0.085521,-25.32,-3.6,29.1
4.4947,-1.3212,-6.8919,0.050702,-0.046426,0.072998,-24.96,-4.02,29.34
7.0009,-3.6775,-8.3901,0.065057,-0.077885,0.07758,-24.78,-4.26,29.28
5.3664,-3.1054,-6.5514,-0.021991,-0.36011,0.054062,-24.66,-4.5,29.4
5.0531,-2.152,-6.3198,0.1014,-0.26878,-0.022297,-24.48,-4.62,29.7
4.8625,-2.9829,-6.1019,-0.036957,-0.5339,-0.1518,-24.3,-4.92,30.0
3.6366,-0.96704,-5.6252,0.18173,-0.17868,-0.13714,-24.06,-4.98,30.12
7.246,-2.2882,-6.9055,0.15852,-0.31979,-0.11148,-23.94,-5.1,30.36
7.4231,-2.0294,-7.8045,0.15608,-0.22083,-0.023824,-23.4,-5.1,30.6
7.4231,-2.0294,-7.8045,0.11851,-0.44624,-0.11729,-23.4,-5.1,30.6
4.699,-2.7104,-7.0553,0.16402,-0.4664,-0.062003,-23.16,-5.04,30.9
6.1564,-2.656,-8.3765,0.15272,-0.24984,-0.11148,-22.98,-5.16,31.14
6.456,-2.9965,-8.0632,0.067806,-0.45387,-0.22938,-22.92,-5.1,31.26
4.6718,-3.6775,-6.5786,0.1124,-0.36011,-0.24496,-22.62,-4.92,31.32
6.565,-3.3778,-7.8998,0.16157,-0.38882,-0.32926,-22.14,-4.8,31.8
4.3994,-3.2961,-7.2733,0.17043,-0.49327,-0.29535,-21.96,-4.8,32.1
4.6173,-3.2008,-8.1177,0.14569,-0.3711,-0.23182,-21.84,-4.68,32.4
4.8897,-2.2065,-7.5593,0.14203,-0.22877,-0.1744,-21.48,-4.5,32.52
4.8216,-2.0158,-6.9736,0.22999,-0.19212,-0.074526,-21.18,-4.62,32.64
7.0009,-4.8352,-8.4719,0.19853,-0.33078,-0.035125,-20.88,-4.5,32.94
3.4868,-3.337,-6.7557,0.0956,-0.4496,-0.14478,-20.58,-4.44,33.12
2.7649,-1.7706,-6.8919,0.21472,-0.18479,-0.04948,-20.34,-4.5,33.18
5.5299,-3.5958,-8.3084,0.14966,-0.23732,0.026573,-20.04,-4.38,33.48
5.5299,-3.4868,-7.2869,0.1408,-0.18051,-0.068111,-19.68,-4.32,33.42
3.8273,-3.5413,-6.7012,0.14019,-0.27153,-0.038485,-19.38,-4.2,33.6
6.4833,-3.0646,-8.2812,0.18509,-0.0058032,-0.062614,-19.14,-3.9,34.02
6.0611,-3.0782,-8.1177,0.13011,-0.20739,0.013439,-19.02,-3.9,34.08
4.6309,-2.6832,-7.1779,0.20097,-0.10232,0.095295,-18.96,-3.78,34.08
6.2245,-4.5083,-9.0712,0.17013,-0.11362,0.18601,-18.66,-3.54,34.32
4.6854,-3.2961,-7.6002,0.12126,-0.13317,0.17868,-18.48,-3.3,34.38
4.985,-3.9227,-6.9191,0.19761,-0.10385,0.20983,-18.36,-3.12,34.5
2.2337,-3.6911,-7.3005,0.30818,-0.12278,0.39248,-18.06,-2.7,34.62
6.8238,-6.4969,-10.665,0.32284,-0.021991,0.40348,-17.88,-2.58,34.5
2.6423,-5.094,-6.7012,0.15821,-0.19517,0.46762,-17.88,-2.22,34.74
1.3484,-0.58567,-4.6445,0.50549,0.15302,0.4835,-17.82,-2.16,34.68
6.7012,-6.7557,-10.038,0.15638,-0.20159,0.5003,-17.76,-1.56,34.98
3.1463,-4.3858,-4.8897,0.055589,0.036652,0.34483,-17.7,-1.26,34.98
3.2144,-4.7263,-6.4152,0.23976,-0.0015272,0.18479,-17.64,-0.96,34.74
3.8682,-3.732,-7.5457,0.2926,-0.076969,0.24832,-17.52,-0.66,34.68
6.7829,-4.413,-9.6977,-0.0097738,-0.12095,-0.0097738,-17.46,-0.36,34.68
3.9227,-5.2983,-7.1915,-0.01741,-0.047037,0.071166,-17.28,-0.18,34.68
4.6309,-5.1621,-7.927,0.01405,0.017104,0.025962,-17.22,0.3,34.74
3.9363,-2.6696,-6.6876,0.13989,-0.064141,0.17562,-17.28,0.6,34.74
6.2926,-4.3994,-8.2676,0.25168,-0.047953,0.24923,-17.22,0.84,34.8
5.5299,-5.094,-8.2676,0.058948,-0.12828,0.17837,-17.28,1.32,34.98
4.9578,-5.3392,-7.8045,0.011301,-0.14844,0.13378,-17.16,1.44,35.04
4.4947,-4.9987,-6.6059,0.092546,-0.040317,0.090713,-17.1,1.74,35.04
3.9908,-4.4402,-7.0145,0.13958,0.058338,0.10324,-16.98,1.8,34.86
4.1814,-4.7263,-7.7227,0.12401,0.065363,0.088575,-16.86,1.92,34.98
3.7728,-3.7728,-7.1507,0.069333,0.05681,0.069944,-16.86,2.1,35.22
4.1814,-3.6503,-7.2869,0.13958,0.44379,0.092241,-17.04,2.4,35.28
3.8273,-5.5843,-7.5457,0.13531,0.20586,0.15088,-16.98,2.52,35.4
4.0316,-5.6388,-8.3765,0.05284,0.10843,0.072082,-16.98,2.52,35.34
3.0646,-4.808,-7.641,0.060476,0.21991,0.057727,-17.04,2.76,35.34
4.018,-3.6094,-7.4503,0.146,0.41172,-0.0082467,-17.04,2.88,35.28
3.6094,-5.5707,-6.9872,0.19273,0.33781,0.048869,-17.16,3.12,35.16
3.4459,-5.775,-7.7091,0.086743,0.2474,0.0054978,-17.22,3.24,35.04
4.3721,-3.8682,-7.1507,0.0012217,0.46151,-0.034819,-17.52,3.3,35.04
4.0861,-5.6252,-5.884,0.12126,0.24221,0.047342,-17.64,3.42,34.98
2.9965,-5.7069,-6.9055,0.043982,0.54734,-0.027794,-17.82,3.54,34.98
5.2847,-4.5083,-7.9407,-0.032376,0.56597,-0.11576,-18.3,3.6,34.68
3.8137,-3.9771,-6.4152,0.057116,0.59315,-0.06689,-18.54,3.78,34.38
4.0316,-5.7205,-7.0553,0.022297,0.46701,-0.083994,-18.84,3.66,34.14
5.3256,-5.2166,-7.4503,0.023213,0.41081,-0.010079,-19.14,3.6,34.08
5.7342,-4.2632,-7.3141,-0.077885,0.6973,-0.19487,-19.44,3.66,33.9
4.4675,-3.8954,-6.3879,-0.058948,0.51832,-0.14997,-19.74,3.6,33.78
4.7126,-4.9987,-7.3958,-0.16035,0.489,-0.15821,-20.4,3.6,33.48
5.3119,-5.1349,-7.2733,-0.22235,0.56291,-0.19578,-20.64,3.54,33.24
4.7944,-5.5435,-6.9736,-0.25473,0.43158,-0.22083,-21.3,3.3,33.0
3.9363,-4.0725,-6.279,-0.13073,0.68356,-0.19181,-21.42,3.3,32.76
5.094,-4.3721,-7.0826,-0.092852,0.74984,-0.1744,-21.72,3.18,32.58
6.5514,-4.5083,-8.4855,-0.17746,0.45693,-0.18143,-22.32,3.12,31.98
6.2654,-4.127,-8.0769,-0.27703,0.41356,-0.22449,-22.56,3.0,31.8
5.0123,-4.1542,-6.9328,-0.2584,0.3708,-0.14447,-22.74,2.64,31.62
5.3528,-4.5764,-7.2188,-0.24923,0.38332,-0.18357,-23.4,2.34,30.78
5.6252,-4.1951,-6.96,-0.27733,0.30696,-0.17593,-23.7,2.28,30.3
6.279,-3.7592,-8.0905,-0.27184,0.31124,-0.19639,-24.06,1.98,30.06
6.4016,-4.6173,-7.1915,-0.33811,0.10782,-0.1631,-24.24,1.8,29.64
3.8954,-3.8682,-6.0338,-0.32437,0.25687,-0.17562,-24.84,1.2,29.16
5.4481,-3.8001,-7.2869,-0.34697,0.2926,-0.13653,-25.08,1.02,28.92
6.7966,-4.9033,-7.3958,-0.44532,0.16677,-0.11729,-25.56,0.66,28.32
6.5378,-5.1894,-6.9464,-0.48319,0.13317,-0.2364,-25.98,0.3,28.02
4.2359,-4.018,-6.4152,-0.48014,0.11942,-0.19914,-26.1,-0.06,27.72
4.7126,-3.6094,-6.1973,-0.44807,0.28436,-0.17318,-26.28,-0.48,27.72
7.6138,-5.7614,-7.2869,-0.49847,0.066584,-0.22938,-26.82,-1.14,27.42
4.9714,-3.1735,-6.6331,-0.43127,0.044593,-0.21136,-27.06,-1.2,27.48
5.6661,-2.8739,-7.8045,-0.33995,0.069639,-0.070555,-27.36,-1.44,27.6
8.0224,-3.5004,-9.1937,-0.30574,0.058032,0.055894,-27.6,-2.16,27.78
5.598,-1.4438,-8.2131,-0.3372,0.012217,-0.048258,-27.54,-2.34,27.66
5.993,-2.0567,-8.2131,-0.20922,-0.023518,0.16249,-27.66,-2.58,27.66
6.4969,-3.2961,-7.464,-0.23427,-0.064141,0.07758,-27.6,-3.0,27.48
6.0883,-2.6015,-7.4776,-0.20617,-0.093157,0.062919,-27.66,-3.24,27.48
5.993,-2.3155,-7.2188,-0.22266,-0.21747,0.039706,-27.66,-3.66,27.54
5.8023,-0.89894,-7.8317,-0.2303,-0.15699,0.081856,-27.54,-3.72,27.6
6.96,-1.5119,-7.355,-0.27519,-0.0073304,0.11393,-27.72,-3.72,27.72
7.4095,-3.8409,-6.7693,-0.24312,-0.3882,0.10599,-27.72,-3.78,27.72
5.2302,-3.1327,-6.7148,-0.24771,-0.60537,0.040012,-27.42,-3.96,27.9
3.5004,-1.2667,-6.7966,-0.11393,-0.2529,0.14325,-27.24,-4.14,27.84
9.4389,-2.5742,-9.4525,-0.20495,-0.52534,0.044593,-26.94,-4.32,27.84
7.7908,-3.3097,-8.4174,-0.25962,-0.80604,-0.072998,-26.7,-4.38,27.84
3.0237,-2.0567,-5.5435,-0.037874,-0.416,0.061697,-26.58,-4.56,27.84
7.1643,-0.46309,-7.8317,0.083383,-0.146,0.15913,-26.46,-4.56,27.9
10.842,-3.732,-9.221,-0.015272,-0.72876,0.0079412,-26.22,-4.62,28.32
4.522,-2.0431,-6.9328,-0.077885,-0.94837,-0.10965,-26.04,-4.68,28.5
6.8102,-1.8115,-6.6331,0.065363,-0.30604,0.073609,-25.56,-4.92,28.92
8.5536,-3.6639,-7.7227,0.017715,-0.78832,-0.10201,-25.38,-5.04,29.22
6.8919,-3.9635,-8.4038,-0.024129,-0.87965,-0.16127,-24.96,-5.04,29.34
1.2531,-0.85808,-5.0259,0.08094,-0.62583,-0.067195,-24.24,-5.16,29.82
6.8374,-2.8194,-8.0088,0.23854,-0.2865,0.015272,-23.82,-5.22,29.94
10.283,-5.38,-9.8066,0.039095,-0.88392,-0.16554,-23.46,-5.1,30.24
3.1191,-2.547,-5.7342,0.17685,-0.67684,-0.065057,-22.5,-4.98,30.78
4.0861,-4.1542,-6.5786,0.20861,-0.48625,-0.027489,-22.2,-4.92,30.96
1.6481,-0.7355,-5.4345,0.34025,-0.29932,0.059254,-21.84,-4.8,31.38
9.8475,-4.6445,-11.278,0.049175,-0.76389,-0.13347,-21.48,-4.68,31.74
0.64016,-2.9556,-4.7126,0.17562,-0.3879,0.093768,-20.7,-4.5,32.34
4.9714,-4.4675,-7.927,0.18815,-0.2813,0.040317,-20.16,-4.44,32.7
3.4868,-3.0918,-6.3743,0.26542,-0.13836,0.20342,-19.8,-4.14,32.94
6.5378,-4.6718,-8.9622,0.17165,-0.31246,0.18326,-19.02,-4.02,33.3
2.8875,-3.0101,-6.1019,0.23732,-0.16218,0.26634,-18.72,-3.84,33.66
3.2825,-3.0646,-7.641,0.29627,-0.091324,0.32162,-18.42,-3.72,33.84
5.1485,-4.7944,-8.9349,0.11393,-0.15211,0.30116,-18.12,-3.42,33.96
3.337,-4.0997,-6.0066,0.16616,-0.042761,0.24251,-17.58,-3.12,34.26
4.3721,-4.5764,-8.1586,0.23457,-0.04948,0.22205,-17.46,-2.94,34.56
3.3915,-4.2768,-7.3822,0.25168,-0.11148,0.18754,-17.16,-2.7,34.86
4.8216,-2.7649,-8.9486,0.22449,-0.15394,0.15149,-16.8,-2.52,35.1
3.8954,-5.0804,-7.1507,0.068722,-0.25901,0.17104,-16.62,-2.34,35.16
4.3858,-4.3858,-5.9249,0.15577,0.088881,0.080634,-16.08,-2.1,35.28
4.985,-4.6037,-7.0553,0.2529,-0.16554,0.12034,-15.9,-2.1,35.46
4.8625,-5.9657,-7.9951,0.18967,-0.22052,0.030849,-15.54,-1.62,35.46
3.1599,-4.2223,-6.2381,0.22113,0.020464,0.16249,-15.36,-1.32,35.7
5.2711,-3.2144,-8.54,0.24618,0.026573,0.17715,-15.42,-1.26,35.88
4.2087,-4.2632,-6.456,0.098655,-0.083383,0.039706,-15.24,-1.08,36.24
4.7263,-3.7865,-7.2733,0.16157,0.023518,0.13867,-15.18,-1.08,36.42
5.2166,-5.38,-6.8647,0.15119,0.022907,0.076053,-14.94,-0.9,36.48
3.4187,-3.6639,-7.4776,0.091019,-0.011606,-0.031154,-14.52,-0.84,36.66
2.7241,-3.2553,-6.8647,0.19731,0.17471,0.090103,-14.46,-0.78,36.6
4.7263,-5.6524,-8.7034,0.12065,0.11057,0.021686,-14.52,-0.6,36.66
2.6696,-3.8001,-6.8647,0.027489,0.12095,0.025045,-14.52,-0.42,36.78
2.833,-3.5958,-6.2517,0.16738,0.27367,0.099571,-14.28,-0.3,36.9
3.051,-3.8682,-6.456,0.17593,0.33964,0.12889,-14.16,-0.12,36.84
3.5958,-4.6173,-7.2733,0.059254,0.092546,0.049175,-13.98,-0.12,36.78
3.4732,-4.7399,-7.2188,0.10018,0.2529,-0.0027489,-13.68,0.06,36.6
3.4187,-3.8818,-6.9464,0.052229,0.20403,-0.050396,-13.5,0.3,36.48
3.5413,-3.6639,-6.17,0.18418,0.46792,-0.043066,-13.2,0.42,36.3
4.3585,-5.4209,-7.2188,0.18631,0.35155,-0.029322,-13.08,0.6,36.24
4.018,-5.4209,-8.1177,0.0079412,0.42394,-0.15455,-13.14,0.72,36.12
4.2904,-4.7399,-6.96,0.041539,0.37538,-0.06017,-13.2,1.08,35.7
3.7456,-5.0668,-6.6604,0.097738,0.56627,-0.04948,-13.02,1.26,35.52
5.6797,-5.2847,-7.6546,0.073304,0.60262,-0.059559,-12.84,1.2,35.1
3.7728,-6.1836,-6.7966,0.089186,0.26267,-0.022297,-12.9,1.44,34.92
3.4323,-4.7944,-7.3005,0.062614,0.47709,-0.038179,-12.96,1.62,34.68
5.1349,-5.4754,-7.7636,-0.0051924,0.47189,-0.075442,-13.26,2.1,34.08
3.7865,-3.8001,-6.7012,0.0024435,0.51465,-0.10537,-13.38,2.34,33.9
4.9033,-4.6445,-7.2052,0.01069,0.44746,-0.075747,-13.86,2.7,33.24
4.9169,-5.1349,-7.8453,-0.071471,0.42944,-0.14203,-13.86,2.7,32.88
5.0123,-4.3177,-7.4095,-0.14386,0.48167,-0.13775,-14.22,2.88,32.52
3.514,-4.5764,-6.1973,-0.092546,0.42852,-0.067806,-14.58,2.82,32.16
5.2847,-5.9112,-7.3141,-0.15241,0.59132,-0.16524,-14.82,2.94,31.8
5.7069,-5.1894,-7.2869,-0.20892,0.37446,-0.23518,-15.48,3.24,31.08
4.699,-6.3335,-6.4969,-0.18876,0.41692,-0.26603,-15.84,3.36,30.84
5.2847,-2.9284,-6.7966,-0.13317,0.67073,-0.23121,-16.56,3.66,30.3
7.8998,-4.8625,-8.3084,-0.091324,0.62614,-0.22022,-16.98,3.66,30.0
6.0474,-5.4618,-6.9328,-0.21961,0.3146,-0.23763,-17.34,3.66,29.7
4.522,-4.018,-7.5321,-0.24404,0.25992,-0.2135,-17.7,3.6,29.34
5.5435,-5.8295,-7.464,-0.31918,0.34972,-0.11179,-18.36,3.36,28.98
5.0531,-4.3585,-6.4288,-0.29596,0.45112,-0.25443,-18.9,3.24,28.74
6.3879,-4.4947,-7.6683,-0.29199,0.23763,-0.26298,-19.38,3.12,28.56
4.5083,-3.6775,-6.9736,-0.24801,0.36041,-0.2926,-19.98,3.06,27.96
7.4503,-4.4402,-8.6081,-0.36224,0.16616,-0.27458,-20.16,3.12,27.84
5.1213,-4.8216,-6.7966,-0.3427,0.18357,-0.20403,-20.4,2.88,27.66
4.5356,-4.2087,-6.3062,-0.34606,0.2419,-0.21808,-20.76,2.7,27.6
5.598,-4.6173,-6.7148,-0.42699,0.19212,-0.17685,-21.54,2.34,27.06
5.3528,-3.7592,-6.8647,-0.49052,0.19609,-0.18173,-21.84,2.1,26.88
7.0962,-5.2575,-7.0553,-0.56749,0.16127,-0.038485,-22.38,1.74,26.58
6.8783,-5.7069,-6.6195,-0.52657,0.14111,-0.13042,-22.56,1.62,26.46
4.6037,-3.8818,-6.6604,-0.37202,0.19517,-0.000305,-22.86,1.38,26.34
5.6116,-3.4868,-7.8317,-0.28619,0.23091,0.10354,-23.28,1.14,26.22
7.1507,-2.8875,-8.4855,-0.30482,0.22938,0.059254,-23.52,0.72,25.86
6.6604,-3.4868,-7.9815,-0.25809,0.10415,0.15699,-23.7,0.48,25.74
5.2983,-3.5822,-6.2654,-0.17501,0.18021,0.085216,-24.3,-0.06,25.56
6.1428,-3.4187,-7.0281,-0.17165,0.18326,0.12859,-24.6,-0.36,25.44
6.0611,-2.7377,-6.9736,-0.17898,0.15241,0.1741,-24.84,-0.48,25.38
7.5048,-3.514,-7.464,-0.23549,0.028711,0.17837,-25.32,-0.96,25.26
5.8976,-2.8603,-7.2596,-0.2306,-0.068417,0.20678,-25.38,-1.2,25.2
5.7478,-2.833,-7.4503,-0.22388,-0.047037,0.27855,-25.74,-1.62,25.08
6.8102,-3.1327,-7.8589,-0.22633,-0.09896,0.25962,-25.86,-1.62,24.96
7.2324,-3.6366,-7.3958,-0.24435,-0.19639,0.20189,-25.98,-1.68,24.9
6.0883,-3.2008,-7.6955,-0.21716,-0.27947,0.15119,-26.16,-1.8,24.9
6.1564,-2.3699,-7.9951,-0.23396,-0.23366,0.12065,-26.22,-1.92,24.9
7.3822,-2.3291,-7.4776,-0.2022,-0.30788,0.1628,-26.28,-2.04,24.84
7.246,-2.8603,-8.2267,-0.18204,-0.44379,0.084605,-26.28,-1.8,24.84
4.7807,-3.2144,-6.2517,-0.27397,-0.59468,-0.0027489,-26.28,-1.8,25.02
0.9398,0.39499,-6.5241,-0.0088575,-0.26542,0.35216,-26.34,-1.86,25.02
9.2074,-2.0022,-8.8532,-0.039706,-0.10385,0.33842,-26.22,-1.92,25.08
6.4833,-2.547,-8.1586,-0.12248,-0.83872,0.12584,-25.98,-1.8,25.32
5.3392,-3.2825,-7.0962,-0.15119,-0.65485,0.12645,-25.92,-1.98,25.56
4.0725,-3.2689,-5.5162,-0.0045815,-0.44196,0.18754,-25.86,-1.98,25.74
6.7693,-1.8524,-8.1722,0.036957,-0.60201,0.15608,-25.38,-1.98,26.4
5.5299,-1.6481,-7.3414,0.021075,-0.65149,0.25412,-25.02,-1.92,26.82
4.7399,-1.6753,-7.1779,0.047647,-0.62308,0.31062,-24.84,-1.98,27.06
6.5786,-4.5083,-7.0145,-0.022602,-0.63163,0.34208,-24.24,-1.62,27.66
5.1349,-4.5083,-6.4969,0.0012217,-0.62522,0.30391,-24.06,-1.62,27.96
3.4323,-2.833,-6.8647,0.081856,-0.46426,0.38423,-23.46,-1.56,28.5
6.2109,-3.1463,-9.0303,0.1237,-0.49572,0.44349,-23.16,-1.5,28.68
6.4833,-3.909,-9.398,0.07025,-0.61667,0.44013,-22.8,-1.32,28.92
4.7944,-3.9771,-7.641,0.076969,-0.51252,0.44502,-22.56,-1.08,29.22
3.8001,-4.5764,-6.3879,0.1463,-0.36346,0.48319,-21.72,-0.72,29.76
4.127,-4.1814,-7.1779,0.2306,-0.29444,0.51801,-21.36,-0.36,29.82
4.5764,-2.942,-7.2596,0.25045,-0.36499,0.54214,-20.76,0.12,30.3
5.1349,-5.2166,-8.1177,0.079718,-0.51282,0.55497,-20.46,0.36,30.42
3.1872,-5.0123,-6.17,0.062614,-0.41447,0.56536,-20.28,0.6,30.42
4.3177,-5.1349,-6.851,0.062308,-0.30788,0.43249,-19.92,0.96,30.72
3.1599,-3.2144,-5.598,0.19456,-0.29444,0.47006,-19.8,1.2,30.84
5.6116,-6.0747,-7.7636,0.1689,-0.37446,0.37018,-19.14,1.8,31.32
4.2223,-5.0259,-7.0553,0.073304,-0.41569,0.27642,-18.78,2.16,31.5
4.8761,-4.4811,-8.3901,0.094379,-0.48228,0.21594,-18.42,2.4,31.74
4.0316,-4.3858,-7.2733,0.09499,-0.44166,0.23549,-17.82,3.0,32.16
4.9033,-4.3177,-7.5048,0.11851,-0.2361,0.15913,-17.52,3.18,32.34
4.9578,-4.2495,-7.2869,0.13378,-0.29474,0.10782,-17.34,3.24,32.64
4.9987,-5.489,-7.7227,0.13622,-0.24404,0.059865,-16.92,3.78,33.24
4.5492,-5.4209,-7.3414,0.11057,-0.32651,0.011606,-16.92,4.02,33.3
3.8409,-4.304,-7.9815,0.12828,-0.15974,-0.036346,-16.26,4.44,33.66
2.4517,-5.6252,-7.0009,0.1127,-0.343,-0.012217,-16.08,4.56,33.9
2.4517,-3.5549,-6.17,0.17165,0.07086,-0.070555,-15.9,4.74,33.96
4.7126,-4.6718,-8.5263,0.079107,-0.037874,-0.10324,-15.66,4.86,34.26
3.4323,-5.6797,-8.322,0.016188,-0.27061,-0.087659,-15.54,4.92,34.38
5.1894,-4.0997,-7.7772,0.061697,0.33201,-0.17501,-15.24,4.98,34.5
3.8273,-5.5707,-7.3005,0.056505,-0.097128,-0.16524,-15.24,5.16,34.56
5.1213,-3.8409,-7.7364,-0.0088575,0.22022,-0.25107,-15.12,5.34,34.86
3.337,-5.489,-7.4367,0.058948,-0.067806,-0.15455,-15.0,5.28,34.86
3.4187,-5.4345,-7.0009,0.051007,0.2022,-0.23518,-15.0,5.28,34.86
4.0316,-5.6252,-8.6353,0.049786,0.10599,-0.20922,-14.82,5.52,34.86
3.2553,-5.5843,-7.7908,0.094073,0.055894,-0.19517,-14.82,5.46,34.86
4.2359,-2.8058,-7.5321,0.12859,0.38576,-0.28405,-14.94,5.64,34.92
3.4187,-4.6854,-7.7364,0.17685,0.049786,-0.1799,-15.06,5.58,34.8
3.7047,-5.3119,-7.9679,0.026573,0.20097,-0.27306,-15.12,5.64,34.8
3.2825,-4.6854,-6.7285,0.059865,0.1686,-0.22694,-15.12,5.7,34.68
4.3177,-5.0259,-7.8317,0.097738,0.37538,-0.24801,-15.54,5.76,34.62
4.2904,-4.8352,-8.036,0.0097738,0.18204,-0.28802,-15.66,5.82,34.62
3.6775,-4.8625,-6.8783,0.029627,0.27978,-0.33995,-15.9,5.7,34.62
4.2632,-5.5162,-7.2188,0.095295,0.24618,-0.39156,-16.2,5.76,34.32
4.3585,-4.5628,-7.5593,0.076358,0.33017,-0.405,-16.32,5.82,34.32
4.6854,-4.3721,-7.8589,0.045204,0.29596,-0.37385,-16.56,5.94,34.26
4.0452,-4.7671,-7.246,-0.0015272,0.27886,-0.33689,-16.92,5.82,34.14
5.094,-5.3528,-7.8453,-0.076664,0.37813,-0.35461,-17.1,5.82,34.14
4.3449,-4.5764,-6.7693,-0.050396,0.3656,-0.2978,-17.28,5.64,33.9
5.4754,-5.1621,-7.4095,-0.025962,0.47983,-0.32681,-17.76,5.52,33.36
3.7728,-5.8159,-6.4833,-0.028711,0.354,-0.27092,-17.94,5.34,33.24
3.4868,-3.9908,-6.2245,-0.0076358,0.55467,-0.27428,-18.24,5.28,33.12
6.5786,-4.0316,-8.2267,-0.08827,0.3992,-0.29535,-18.54,5.22,32.82
3.0918,-6.0611,-5.993,-0.069944,0.40775,-0.30238,-19.08,4.74,32.52
4.2223,-4.8488,-6.7693,-0.022907,0.70127,-0.36072,-19.32,4.56,32.34
3.8409,-5.38,-6.9736,-0.14111,0.52443,-0.36377,-19.86,4.2,32.04
4.5628,-3.8818,-6.96,-0.1124,0.76786,-0.42119,-20.34,4.02,31.86
5.1621,-4.4811,-7.4912,-0.11301,0.70891,-0.3766,-20.64,3.84,31.68
4.8897,-5.7342,-6.674,-0.13683,0.5678,-0.28527,-21.06,3.6,31.38
5.0668,-5.7886,-8.3765,-0.2306,0.43494,-0.25259,-21.72,3.36,30.9
2.6696,-3.7728,-7.0553,-0.19426,0.60323,-0.14783,-22.08,3.36,30.66
6.5378,-5.4754,-7.8998,-0.26206,0.69089,-0.17196,-22.32,3.24,30.6
4.7399,-4.4539,-5.8431,-0.20892,0.59407,-0.14875,-23.28,2.94,30.06
5.2847,-3.8546,-6.6059,-0.12309,0.71563,-0.13042,-23.58,2.76,29.7
6.3198,-4.2904,-7.2596,-0.18448,0.57788,-0.062308,-23.88,2.52,29.52
6.4152,-3.6911,-6.9872,-0.2248,0.45998,-0.16829,-24.66,2.22,28.86
5.4073,-3.8137,-6.7829,-0.22052,0.40042,-0.097433,-25.08,2.16,28.44
6.7693,-2.8875,-8.0224,-0.2251,0.51862,-0.061697,-25.44,2.16,28.02
8.6489,-4.4811,-7.9815,-0.343,0.39615,-0.044593,-26.28,1.8,27.24
7.2188,-4.6582,-7.3005,-0.39401,-0.016799,-0.13744,-26.82,1.68,26.88
4.2768,-2.7377,-7.0553,-0.31673,0.14936,-0.039401,-27.12,1.56,26.52
6.9191,-2.4517,-7.7227,-0.30085,0.18051,-0.000611,-28.14,1.08,26.04
9.4389,-2.7377,-8.8941,-0.32132,0.0024435,-0.023213,-28.56,0.84,25.86
5.6524,-1.9341,-7.641,-0.35308,-0.24954,-0.002138,-29.22,0.48,25.56
5.2847,-1.2395,-7.4503,-0.30024,-0.11362,0.13103,-29.64,0.18,25.38
8.2812,-3.1191,-7.4095,-0.30574,-0.28986,0.14325,-29.88,-0.06,25.26
5.6797,-2.547,-7.0281,-0.25748,-0.44807,0.16585,-30.6,-0.42,25.14
6.7285,-2.3563,-7.5865,-0.26909,-0.41966,0.14172,-30.72,-0.54,25.02
6.4288,-1.8251,-7.8317,-0.25992,-0.38729,0.15394,-30.84,-0.78,25.02
6.9328,-4.0589,-6.5378,-0.22907,-0.49297,0.10843,-31.14,-1.2,25.14
3.9635,-1.8932,-6.2517,-0.072693,-0.44288,0.16707,-31.08,-1.38,25.2
5.9793,-2.2201,-7.3822,-0.046731,-0.35613,0.21166,-30.9,-1.74,25.38
7.75,-3.5822,-7.927,-0.1127,-0.7141,0.069944,-30.84,-2.1,25.62
6.1564,-1.6072,-7.355,-0.052229,-0.36774,0.16463,-30.42,-2.58,26.16
8.5263,-4.6582,-6.8783,-0.070555,-0.69852,0.11606,-30.18,-2.7,26.46
3.8001,-3.5958,-6.8919,0.035736,-0.56169,0.21014,-29.64,-3.0,26.88
6.5241,-2.3155,-7.8998,0.094684,-0.45907,0.30024,-29.16,-3.12,27.3
5.8976,-3.051,-7.464,0.093157,-0.64996,0.28314,-28.8,-3.24,27.66
4.9714,-2.1793,-7.4367,0.11209,-0.55283,0.27825,-28.38,-3.24,28.02
5.2302,-4.6309,-6.1564,0.097128,-0.68875,0.26328,-27.36,-3.42,28.62
2.9965,-2.7922,-5.8704,0.19548,-0.42852,0.30024,-26.94,-3.3,29.04
7.1507,-3.6366,-6.3471,0.061392,-0.52748,0.24557,-26.4,-3.24,29.46
3.2689,-2.5198,-6.0202,0.11759,-0.42974,0.34575,-25.44,-3.06,30.3
7.1915,-4.0589,-8.6625,0.0051924,-0.44715,0.29199,-24.9,-3.0,30.72
5.1894,-4.413,-6.6604,0.014966,-0.45845,0.36072,-24.3,-2.82,31.02
3.8273,-3.5685,-6.2245,0.07025,-0.26512,0.36194,-24.06,-2.76,31.2
4.7263,-4.808,-7.355,0.066279,-0.34911,0.41386,-23.1,-2.34,31.74
5.6797,-5.8023,-8.036,0.019548,-0.3488,0.33842,-22.68,-2.1,31.92
2.8467,-3.7592,-6.7966,0.086437,-0.28466,0.3149,-22.32,-1.86,32.22
3.8001,-3.3506,-7.8589,0.088881,-0.21136,0.28802,-21.96,-1.62,32.4
4.6854,-4.2495,-8.2131,0.088881,-0.21136,0.28802,-21.96,-1.62,32.4
4.5083,-5.3392,-7.641,0.068111,-0.26634,0.27611,-20.7,-0.96,33.36
4.3449,-4.2087,-6.4016,0.090408,-0.29169,0.16677,-19.8,-0.48,33.9
5.3119,-2.9965,-8.3765,0.23366,-0.24893,0.099876,-19.02,0.12,34.2
5.2983,-4.1814,-8.6217,0.12095,-0.28772,0.10996,-18.72,0.3,34.32
4.4402,-5.1621,-7.0281,0.076969,-0.24587,0.10843,-18.0,1.02,34.74
4.9578,-5.0259,-7.1234,0.036346,-0.28405,0.043066,-17.4,1.56,34.98
4.4811,-2.9556,-7.0009,0.1854,-0.15608,0.10354,-16.98,1.92,35.28
5.6661,-4.7399,-7.8726,0.10568,-0.10232,0.029627,-16.44,2.28,35.28
4.8488,-5.1757,-6.9328,0.023213,-0.18784,-0.033292,-16.2,2.58,35.4
4.304,-5.8976,-7.1643,0.046426,-0.18845,-0.083078,-16.02,2.82,35.58
2.547,-4.5764,-5.9249,0.1408,-0.093768,-0.10263,-15.96,2.88,35.58
5.1757,-3.3506,-8.1586,0.12278,0.0281,-0.10873,-15.84,3.12,35.7
3.4187,-4.5764,-8.0632,0.063835,-0.21441,-0.035736,-15.78,3.18,35.76
3.909,-4.0861,-7.9815,0.025351,-0.029322,-0.065973,-15.96,3.12,35.7
4.3449,-3.6503,-7.8589,0.01069,-0.0033598,-0.050396,-15.72,3.0,35.94
2.8467,-4.3858,-6.8102,0.12645,-0.056505,-0.0045815,-15.6,3.12,35.88
4.7399,-4.4811,-9.3708,0.1292,0.066584,-0.03146,-15.48,3.18,36.12
4.3585,-4.9306,-8.9622,0.045509,-0.13989,-0.055894,-15.36,3.18,36.18
3.3097,-3.9227,-7.2324,0.11881,0.12798,-0.13347,-15.3,3.3,36.0
4.699,-4.2223,-7.3958,0.13073,0.054367,-0.14691,-15.18,3.24,35.94
5.2847,-4.0316,-7.4776,0.15852,0.075747,-0.15394,-15.42,3.18,35.76
4.0861,-4.985,-7.1098,0.10904,-0.13439,-0.15088,-15.54,3.0,35.88
5.993,-3.9771,-8.1586,0.14325,0.12492,-0.18051,-15.48,3.06,35.88
5.6797,-5.1757,-8.8668,0.023518,0.028405,-0.26145,-15.42,3.18,35.76
3.2008,-4.7263,-6.5514,0.013439,0.085216,-0.24709,-15.42,3.18,35.64
3.9908,-4.5356,-6.8374,0.058948,0.13531,-0.22327,-15.42,3.24,35.82
4.3177,-4.3585,-6.7285,0.093768,0.18479,-0.24312,-15.42,3.36,35.82
5.8976,-4.8897,-8.2267,0.049786,0.208,-0.2923,-15.6,3.24,35.82
1.1713,-4.2632,-5.8159,0.027184,0.014355,-0.23854,-15.6,3.3,35.94
6.4016,-5.0668,-9.2074,0.033292,0.45051,-0.22633,-15.78,3.3,35.94
4.0044,-4.1542,-6.7966,-0.0073304,0.11057,-0.17043,-15.72,3.48,35.94
2.8058,-3.909,-6.8374,0.026878,0.45754,-0.17593,-15.72,3.42,35.94
2.7922,-8.1995,-6.5378,-0.093462,0.030238,-0.16371,-15.66,3.36,35.82
2.2201,-3.5822,-6.2245,0.043677,0.66554,-0.19884,-15.84,3.3,35.58
4.9033,-4.6718,-7.4776,-0.040012,0.3989,-0.13958,-16.14,3.24,35.52
6.0474,-4.413,-7.0826,0.029322,0.57085,-0.1066,-16.38,3.24,35.16
6.3198,-5.9249,-7.8317,-0.068417,0.58124,-0.1463,-16.62,3.06,34.98
3.3234,-5.2166,-6.1155,-0.10812,0.46212,-0.086743,-16.92,3.0,34.74
5.3119,-4.3313,-7.3005,-0.11912,0.70188,-0.16677,-17.28,2.94,34.62
5.1076,-5.1757,-7.4367,-0.14294,0.49694,-0.094684,-17.58,2.7,34.32
6.0747,-4.5356,-8.0632,-0.12523,0.64843,-0.16738,-18.06,2.4,34.02
3.6503,-4.304,-6.3743,-0.10934,0.47342,-0.1182,-18.66,2.1,33.6
5.1894,-3.9635,-7.8045,-0.071777,0.54398,-0.14355,-19.02,2.1,33.42
5.1757,-4.9306,-8.4991,-0.11545,0.34086,-0.10201,-19.62,1.98,33.18
4.6445,-5.1213,-7.8317,-0.14416,0.27092,-0.13103,-19.86,1.92,32.88
5.3119,-2.8739,-8.4582,-0.13592,0.3766,-0.17837,-20.52,1.68,32.4
5.9112,-3.8682,-8.4991,-0.1909,0.22205,-0.10201,-20.94,1.56,32.28
6.2926,-4.8625,-7.246,-0.19426,0.19395,-0.094073,-21.36,1.32,32.04
5.884,-3.8818,-6.3335,-0.16921,0.1686,-0.10782,-21.66,1.2,31.74
6.7693,-2.833,-7.4095,-0.062308,0.27367,-0.073304,-22.02,0.96,31.5
8.145,-4.8625,-7.927,-0.22266,-0.0048869,-0.16646,-22.62,0.72,31.14
4.9442,-2.9692,-6.8102,-0.27397,-0.18112,-0.24526,-22.8,0.48,31.02
4.4947,-2.9011,-6.3607,-0.23274,-0.037263,-0.1909,-22.86,0.24,31.08
6.1836,-3.3506,-7.0553,-0.18265,0.021686,-0.065668,-22.92,-0.3,30.84
7.927,-4.7944,-8.826,-0.27214,-0.29413,-0.14294,-22.92,-0.48,30.78
2.6287,-3.3234,-5.8567,-0.16799,-0.25962,-0.083994,-23.04,-0.84,30.72
3.6775,-1.8524,-7.1779,-0.059559,0.1628,-0.03146,-22.8,-0.96,30.72
8.4582,-4.8897,-8.7851,-0.16188,-0.23366,-0.08094,-22.92,-1.38,30.42
4.1951,-3.2416,-6.5241,-0.12492,-0.21472,-0.15394,-22.62,-1.44,30.48
6.1292,-4.3858,-7.3686,-0.064141,-0.081245,-0.090408,-22.8,-1.44,30.54
4.1406,-2.9692,-6.1564,-0.014661,-0.091935,-0.03146,-22.68,-1.68,30.72
8.3629,-4.0861,-8.8124,-0.11545,-0.061392,0.013439,-22.74,-1.98,30.72
5.0804,-3.7047,-6.4424,-0.13806,-0.10843,-0.01405,-22.86,-2.16,30.78
4.1542,-2.1384,-6.8374,0.018021,0.2022,0.12248,-22.92,-2.34,30.9
6.4288,-5.9249,-7.355,-0.074831,-0.10354,0.18509,-22.8,-2.52,31.14
4.7399,-3.3097,-8.1586,-0.044593,-0.011912,0.13164,-22.74,-2.64,31.26
4.7807,-3.2416,-7.5729,-0.058948,0.051007,0.24618,-22.56,-2.58,31.5
5.8023,-3.0782,-8.2131,0.05681,0.17104,0.24007,-22.8,-2.46,31.5
7.5048,-4.1542,-8.9486,-0.096517,-0.18357,0.17501,-22.68,-2.58,31.56
3.5413,-3.9908,-6.1155,-0.041844,-0.18021,0.21136,-22.44,-2.46,31.56
4.6582,-3.2961,-7.75,0.013439,0.14752,0.27917,-22.2,-2.34,31.56
6.4152,-4.0725,-7.2869,-0.11851,-0.12065,0.23243,-22.14,-2.16,31.5
5.8159,-3.8001,-7.1507,-0.082467,-0.078191,0.20983,-22.14,-2.22,31.62
4.6718,-3.7592,-6.7829,-0.0051924,-0.016799,0.31215,-21.96,-2.1,31.74
7.5048,-4.4811,-7.7636,-0.000916,-0.016188,0.30818,-21.96,-1.92,31.68
5.2166,-4.4947,-6.8919,-0.01741,-0.12828,0.34544,-22.08,-1.92,31.74
4.985,-4.127,-7.0281,-0.020159,-0.062614,0.3204,-22.14,-1.92,31.5
5.8295,-3.514,-7.6819,0.007025,0.02138,0.35186,-21.9,-2.04,31.86
5.5162,-3.1463,-7.3958,-0.0058032,-0.061087,0.30452,-21.96,-1.98,31.86
6.9872,-4.5628,-7.9407,-0.13439,-0.21777,0.25809,-21.96,-1.86,31.74
5.5435,-5.4481,-6.9328,-0.14142,-0.24007,0.25198,-22.02,-1.86,31.68
3.4459,-3.3778,-6.8374,-0.060476,-0.036957,0.25748,-21.84,-1.74,31.56
5.7342,-3.6094,-8.1177,-0.10537,-0.13317,0.23885,-21.84,-1.5,31.5
5.6252,-3.9908,-8.5536,-0.060781,-0.23824,0.25748,-21.96,-1.38,31.5
3.1327,-3.2825,-6.9328,-0.12645,-0.29566,0.20922,-21.9,-1.26,31.62
7.7091,-3.9908,-9.4389,-0.01741,-0.18937,0.21136,-21.54,-1.32,31.62
6.0611,-4.1133,-8.5536,-0.13408,-0.50183,0.16554,-21.42,-1.26,31.8
5.9793,-1.6344,-7.3822,-0.040012,-0.37263,0.084605,-21.18,-1.2,31.68
7.2188,-3.337,-7.5321,-0.02474,-0.53634,0.0054978,-21.06,-1.08,31.74
7.355,-4.304,-7.6683,-0.093768,-0.69089,-0.090713,-20.88,-1.14,31.92
6.1564,-4.2904,-5.8023,-0.16371,-0.66768,-0.20739,-20.76,-0.96,32.16
4.4811,-3.4732,-5.6116,-0.009163,-0.62308,-0.16432,-20.52,-0.96,32.52
5.1213,-2.9284,-6.5378,0.0042761,-0.63041,-0.11759,-20.34,-0.96,32.52
5.1213,-3.2961,-7.2324,-0.057421,-0.65118,-0.093157,-19.86,-0.84,32.7
3.8546,-4.8625,-6.279,-0.073915,-0.50396,-0.07758,-19.44,-0.54,33.24
4.1406,-7.9134,-7.6546,-0.090713,-0.42913,-0.10904,-19.02,-0.3,33.48
1.7434,-5.6524,-5.1485,-0.10721,-0.45143,-0.2416,-18.72,-0.18,33.48
4.699,-3.5277,-8.4038,0.15424,-0.27611,-0.30268,-18.36,-0.06,33.78
3.5277,-4.7671,-6.1292,0.089492,-0.19242,-0.2529,-17.94,-0.06,34.26
4.8897,-4.7126,-6.851,0.095295,-0.033903,-0.24771,-17.7,-0.06,34.38
3.6503,-5.203,-7.1779,0.036041,-0.17868,-0.16371,-17.28,-0.24,34.56
4.4675,-3.623,-7.4231,0.16524,0.096211,-0.10324,-17.1,-0.12,34.74
6.1155,-5.5843,-9.0984,0.10751,0.10446,-0.12523,-16.92,-0.12,34.86
1.9886,-5.2438,-6.2245,0.0082467,-0.007025,-0.15027,-16.68,-0.24,35.1
5.1485,-2.8875,-8.4719,0.10354,0.1799,-0.27275,-16.68,-0.3,35.04
4.1542,-4.2087,-8.0905,0.10263,0.094684,-0.19059,-16.74,-0.54,35.04
3.9908,-3.9363,-6.96,0.10904,0.27642,-0.18173,-16.86,-0.78,35.1
4.4402,-3.5685,-7.4095,0.14325,0.15547,-0.14813,-16.98,-0.72,34.92
4.8352,-4.9987,-8.6762,0.15455,0.13958,-0.099876,-16.98,-0.9,35.04
4.127,-3.3506,-7.927,-0.01741,0.15669,-0.20311,-16.92,-0.78,35.1
5.3256,-3.1191,-7.5593,-0.045509,0.18387,-0.26481,-17.16,-0.78,35.04
2.942,-3.2825,-6.279,0.0058032,0.12553,-0.12798,-17.22,-0.84,34.92
7.246,-5.8295,-9.7249,-0.14019,0.17562,-0.18509,-17.52,-0.96,34.86
5.38,-7.3822,-7.9134,-0.19609,-0.0076358,-0.25015,-17.76,-1.08,34.68
4.5356,-1.185,-8.1858,0.10171,0.38485,-0.24251,-17.88,-0.96,34.38
6.7148,-4.0044,-7.8181,0.10751,0.27306,-0.094073,-18.06,-1.14,34.26
5.5435,-3.8682,-6.3743,0.068722,0.27336,-0.11515,-18.24,-1.08,34.2
4.7535,-6.4833,-7.4503,-0.0042761,0.12309,-0.076358,-18.6,-1.08,34.02
2.2065,-5.8295,-5.4073,0.054062,0.34147,-0.075747,-18.72,-1.14,34.08
5.3664,-3.4459,-8.4446,0.10201,0.43768,-0.16463,-18.9,-1.2,33.96
3.7184,-4.2223,-7.4095,0.07025,0.26909,-0.064446,-19.2,-0.9,33.54
5.8567,-5.993,-8.4446,0.058948,0.42608,-0.079107,-19.38,-1.02,33.42
2.7786,-6.7966,-6.8238,0.032681,0.41539,-0.064141,-19.5,-0.9,33.3
4.6173,-2.8194,-7.4095,0.068722,0.50946,-0.15058,-19.74,-0.78,32.82
5.3256,-2.4517,-7.9679,0.1127,0.35827,-0.026878,-19.92,-0.78,32.52
4.3585,-4.4266,-5.7342,0.021075,0.48106,0.054978,-20.4,-0.9,32.28
6.5241,-2.4108,-8.3765,0.0054978,0.49786,0.036957,-20.58,-0.78,32.22
4.5901,-4.8352,-6.1019,-0.12737,0.23182,0.071471,-20.7,-0.72,32.1
2.5198,-5.2575,-4.6173,-0.079412,0.37293,0.2025,-20.7,-0.66,31.8
3.7184,-4.9306,-6.0202,-0.06689,0.42089,0.16341,-21.0,-0.6,31.32
3.8546,-2.438,-5.6797,0.093462,0.60476,0.18295,-21.12,-0.66,31.14
8.6898,-6.1973,-10.12,-0.035736,0.35736,0.14752,-21.6,-0.6,30.84
1.3076,-8.54,-5.993,-0.38057,0.31734,-0.093768,-21.96,-0.72,30.24
5.3256,-6.1292,-7.0962,-0.20036,0.79718,-0.33414,-22.2,-0.66,30.06
3.6366,-4.3721,-5.2711,-0.032987,0.80634,-0.1518,-22.38,-0.78,29.88
8.7579,-2.8194,-9.5887,-0.040623,0.61178,-0.076053,-22.98,-0.78,29.52
6.6195,-2.6015,-7.7772,-0.15669,0.67287,0.086743,-23.28,-0.72,29.22
6.4833,-5.0259,-7.6955,-0.12553,0.57085,0.27092,-23.46,-0.66,29.1
1.5119,-4.9987,-5.3664,-0.30177,0.43249,0.22969,-24.06,-0.78,28.32
5.5162,-2.3427,-7.5457,-0.12034,0.62583,0.31429,-24.36,-0.9,28.02
6.4833,-2.9556,-7.2188,-0.146,0.65271,0.31521,-24.72,-0.9,27.72
6.96,-5.7342,-8.0088,-0.2645,0.36041,0.18112,-25.44,-0.96,27.18
5.5571,-5.8431,-7.3141,-0.3882,0.24648,0.033598,-25.86,-0.72,26.82
4.1542,-2.5742,-7.2052,-0.35216,0.25717,-0.03543,-26.28,-0.72,26.28
4.7671,-3.1599,-6.7421,-0.416,0.19151,-0.015882,-26.58,-0.72,26.1
6.4969,1.2258,-9.0303,-0.42822,0.12859,0.018021,-26.76,-0.72,25.86
10.992,0.92618,-11.291,-0.56719,-0.040623,0.024435,-27.06,-0.72,25.62
12.98,-7.6683,-9.9429,-0.94257,-0.43371,-0.017104,-27.3,-0.84,25.38
2.6423,-0.85808,-4.3858,-0.47434,-0.16493,0.26298,-27.42,-1.08,24.9
8.5263,-2.8603,-7.7364,-0.18815,0.10324,0.38546,-27.72,-1.2,24.6
8.0224,-2.9556,-8.3629,-0.28741,-0.39248,0.29413,-27.78,-1.32,24.6
5.8976,-3.9227,-6.6467,-0.20556,-0.27581,0.37874,-27.84,-1.38,24.48
5.0531,-5.1213,-6.0202,-0.03146,-0.21441,0.38607,-27.78,-1.56,24.54
5.2166,-4.4539,-7.8998,0.040012,-0.16005,0.35552,-27.54,-1.74,24.54
3.5685,-3.2144,-6.2245,0.04612,-0.30055,0.25168,-27.36,-1.98,24.72
2.1793,-0.17706,-6.1292,0.19578,-0.039706,0.30207,-27.3,-1.98,24.84
8.6898,-3.337,-8.6081,-0.084605,-0.10782,0.14875,-27.06,-2.04,25.08
5.6388,-6.6331,-6.7421,-0.29413,-0.35705,0.12859,-27.06,-2.04,25.14
1.5119,-5.1076,-3.7047,-0.22816,-0.11454,0.15149,-26.88,-2.04,25.26
5.6116,-2.7649,-6.1564,-0.15302,-0.16096,0.16646,-26.52,-1.8,25.56
6.2245,-2.5742,-6.96,-0.086132,-0.11423,0.31154,-26.46,-1.68,25.86
7.3822,-4.0589,-7.641,-0.11148,-0.11087,0.37721,-26.34,-1.5,26.16
3.7728,-8.8396,-6.4697,-0.059865,-0.051618,0.45296,-26.16,-1.32,26.28
2.0294,-4.4947,-4.3585,-0.078496,0.086743,0.33781,-25.98,-1.08,26.4
3.0918,-2.7649,-7.0145,0.30329,0.24068,0.36866,-26.04,-0.84,26.52
5.6661,-1.6344,-7.9679,0.17623,0.15363,0.37232,-25.86,-0.66,26.7
5.6661,-1.6344,-7.9679,0.074526,0.30207,0.41142,-25.86,-0.66,26.7
6.1292,-8.9486,-6.9055,-0.12187,0.12492,0.31582,-25.92,-0.24,27.0
2.3563,-9.5342,-6.1836,-0.30635,-0.043066,0.24526,-25.8,-0.3,27.0
1.2258,-6.0202,-8.3901,-0.21961,0.47678,0.14844,-25.62,-0.18,27.12
5.5435,-5.1621,-8.1313,-0.17776,0.53909,0.17287,-25.74,-0.06,27.06
4.6037,-3.4323,-7.4367,-0.020464,0.5397,0.35216,-25.8,0.06,27.06
6.7285,-4.9033,-8.3493,-0.088575,0.55161,0.48472,-26.04,0.18,27.06
3.3642,-7.9543,-5.203,-0.069333,0.55955,0.5681,-26.16,0.48,26.88
3.3778,-6.6331,-6.1564,-0.02474,0.759,0.55619,-26.34,0.6,26.64
4.1542,-5.0804,-6.5514,-0.071471,0.65699,0.50274,-26.52,0.84,26.58
7.246,-3.5958,-8.2539,-0.12187,0.78466,0.36774,-26.82,1.08,26.1
6.4288,-5.8295,-7.5321,-0.3485,0.56139,0.30513,-26.94,1.32,25.8
4.2632,-5.1894,-6.9191,-0.41966,0.57482,0.32437,-27.24,1.5,25.5
6.1428,-5.9657,-7.1234,-0.52993,0.44074,0.29719,-27.84,1.8,24.9
5.4754,-5.6252,-6.6876,-0.45876,0.41814,0.28253,-28.14,1.98,24.54
10.665,-3.8818,-10.215,-0.44166,0.25443,0.2193,-28.68,1.98,23.88
6.7285,-2.4517,-7.8317,-0.57605,-0.076664,0.21686,-28.92,2.1,23.58
7.2188,-0.54481,-7.1915,-0.51343,-0.043982,0.33628,-29.22,2.16,23.28
10.215,-3.0782,-7.6683,-0.59987,-0.38607,0.35613,-29.22,2.22,22.92
7.5184,-4.5083,-6.4152,-0.66401,-0.6072,0.28069,-29.52,2.28,22.44
6.5514,-3.2008,-5.7205,-0.58307,-0.63652,0.23915,-29.46,2.28,22.56
9.3163,-3.1599,-8.2812,-0.39492,-0.89217,0.31185,-29.64,2.1,22.32
6.7421,-3.337,-7.3414,-0.47983,-1.0137,0.21747,-29.46,2.04,22.32
6.0883,-1.6753,-6.8647,-0.43921,-0.93432,0.19242,-29.46,1.92,22.5
5.6797,-5.6797,-5.7205,-0.44318,-0.93371,0.089797,-29.22,1.62,22.8
4.8352,-2.2882,-4.5764,-0.23671,-0.84727,0.032987,-28.98,1.38,23.04
8.7715,-2.1656,-7.9951,-0.20708,-1.2156,-0.078802,-28.74,1.32,23.4
6.5241,-2.9556,-6.5514,-0.12614,-1.0913,-0.03543,-28.02,1.26,24.24
8.6898,-4.6037,-7.9679,-0.24221,-1.1261,-0.18204,-27.54,1.2,24.9
4.304,-3.5413,-4.1406,-0.1463,-1.0748,-0.10568,-27.18,1.26,25.38
7.3414,-4.9987,-8.1177,-0.072998,-1.1713,-0.2135,-26.28,1.08,26.52
3.6094,-4.0589,-4.9442,-0.078191,-1.1448,-0.17562,-25.8,0.9,27.18
4.8625,-1.1169,-5.8976,0.082161,-0.86926,-0.16799,-25.2,0.78,27.66
4.7671,-5.993,-7.2052,0.024435,-1.179,-0.13011,-24.06,0.6,28.98
3.8273,-3.732,-5.094,0.075747,-0.76786,-0.2248,-23.52,0.6,29.58
5.9385,-3.2825,-8.8396,0.096517,-1.0892,-0.31154,-22.98,0.6,30.12
3.7728,-4.1678,-7.1643,0.12523,-1.1469,-0.2642,-22.26,0.48,30.78
7.5729,-3.1327,-8.9349,0.18204,-0.87965,-0.37996,-21.0,0.6,31.92
4.7399,-3.5822,-6.5786,0.11087,-1.1063,-0.35919,-20.34,0.54,32.34
6.4152,-2.9965,-6.5786,0.10537,-0.90775,-0.43646,-19.02,0.72,33.54
6.3471,-4.3994,-7.2869,-0.03207,-1.0754,-0.47953,-18.54,0.66,33.78
5.3256,-4.0589,-6.5378,-0.062919,-0.99021,-0.48319,-17.88,0.6,34.26
6.2245,-5.8295,-8.7715,-0.12584,-1.0171,-0.53115,-17.28,0.66,34.56
4.699,-6.5105,-7.8589,-0.12706,-0.87476,-0.56016,-16.74,0.72,35.22
5.0668,-2.4517,-7.8998,0.1014,-0.7419,-0.56474,-15.54,0.72,36.12
5.0395,-4.4811,-10.025,0.073609,-0.905,-0.39706,-15.0,0.72,36.54
2.8739,-5.0804,-4.2223,-0.10537,-0.68814,-0.3204,-13.8,0.72,37.26
7.355,-4.127,-8.6898,0.08827,-0.21808,-0.39523,-13.2,0.6,37.68
6.1973,-5.8567,-10.76,0.070555,-0.89553,-0.47281,-12.78,0.48,37.92
2.5198,-0.70826,-4.8352,0.36896,-0.20006,-0.5006,-11.64,0.36,38.52
8.3493,-4.0861,-13.28,0.29291,-0.44074,-0.58551,-11.4,0.3,38.82
2.8739,-3.2825,-5.1485,-0.067806,-0.8601,-0.68967,-10.8,0.24,38.94
7.464,-3.9771,-10.61,0.048258,-0.32529,-0.90622,-9.9,0.18,39.42
3.2008,-4.3449,-7.3822,-0.047647,-0.82497,-0.91905,-9.3,0.24,39.78
2.0431,-2.6968,-4.8761,0.20281,-0.40256,-0.76297,-8.88,0.12,39.96
5.3664,-1.7434,-9.0848,0.23488,-0.74434,-0.71502,-7.8,-0.06,40.32
4.1542,-3.5685,-9.4389,0.25656,-0.62369,-0.59284,-7.56,-0.12,40.44
5.3528,-5.8023,-8.54,-0.058948,-0.58887,-0.75503,-7.14,-0.12,40.44
5.7478,-3.6094,-8.4174,0.21625,-0.61789,-0.84177,-6.42,-0.24,40.74
4.7263,-6.3198,-9.6977,-0.04948,-0.8714,-0.90836,-5.88,-0.36,40.92
3.2553,-5.38,-6.7693,-0.058948,-0.66279,-0.91721,-5.52,-0.3,41.04
5.5707,-4.8216,-9.6841,0.040623,-0.64874,-0.96669,-4.86,-0.42,41.34
4.8488,-5.6661,-9.0303,-0.043066,-0.64507,-0.97677,-4.08,-0.36,41.46
5.203,-3.8001,-7.6002,0.017715,-0.44807,-1.0305,-3.72,-0.54,41.64
3.5685,-1.2803,-7.2188,0.28955,-0.44532,-0.83383,-3.06,-0.72,42.0
3.337,-1.4438,-6.4288,0.32406,-0.37843,-0.75289,-2.76,-0.78,42.0
6.8102,-4.8897,-10.924,0.10446,-0.42608,-0.78038,-2.46,-0.72,42.12
2.2882,-5.5162,-5.5707,-0.20953,-0.32803,-0.89675,-1.8,-0.72,42.42
5.7342,-5.4073,-9.7658,-0.080023,-0.45815,-1.1319,-1.32,-0.72,42.48
3.514,-3.7865,-7.1234,0.1066,-0.36438,-1.1142,-0.96,-0.78,42.66
5.884,-2.3699,-8.5808,0.0956,-0.34789,-1.1139,-0.24,-0.9,42.9
5.9521,-4.0044,-9.3708,-0.034208,-0.44043,-1.0589,0.12,-0.72,43.08
4.6037,-4.0861,-7.8589,-0.032987,-0.35277,-0.97005,0.48,-0.78,43.08
4.2495,-3.2416,-8.7306,0.026573,-0.29535,-0.90836,1.26,-0.9,43.08
4.9033,-4.5764,-9.6296,-0.064752,-0.3149,-0.93707,1.44,-0.96,43.26
3.3234,-3.5685,-7.2188,-0.025962,-0.16799,-0.94745,1.8,-0.78,43.26
5.2438,-6.5922,-11.114,-0.091019,-0.41508,-0.99632,2.64,-0.96,43.38
2.3155,-5.8023,-7.0281,-0.04612,-0.21838,-1.0409,3.0,-1.14,43.38
1.5391,-2.9011,-5.9657,0.14508,0.0018326,-1.0208,3.3,-1.32,43.38
6.7966,-3.1191,-10.896,0.11698,-0.32467,-0.99632,3.48,-1.2,43.44
2.9556,-4.018,-4.9442,0.051007,-0.0054978,-0.9612,4.14,-1.44,43.44
7.0009,-4.9714,-9.1801,0.07086,-0.0085521,-1.0504,4.32,-1.56,43.38
2.6968,-5.0259,-6.7421,0.054062,-0.16646,-0.95051,4.56,-1.38,43.44
7.0281,-7.3822,-11.005,-0.1631,-0.041844,-1.1066,5.04,-1.38,43.26
0.53119,-2.4108,-3.2961,0.085827,0.26939,-0.98074,5.28,-1.32,43.32
4.6037,-2.6968,-7.4776,0.25534,0.35766,-0.99266,5.52,-1.32,43.5
6.7148,-4.8761,-11.169,0.044899,-0.075442,-0.85552,5.58,-1.14,43.5
2.8467,-2.3836,-6.9328,0.20464,0.34819,-0.81062,5.64,-1.2,43.44
4.2223,-2.547,-9.2618,0.27397,0.33048,-0.71563,5.58,-1.14,43.38
3.5277,-2.9556,-6.3879,0.10782,0.39798,-0.70891,5.46,-0.84,43.5
3.5277,-2.9556,-6.3879,0.10782,0.39798,-0.70891,5.46,-0.84,43.5
1.0624,-4.808,-7.6274,0.17532,-0.024129,-0.53512,5.52,-0.66,43.5
2.8603,-3.1191,-7.8045,0.2587,0.43066,-0.4328,5.4,-0.72,43.56
6.5922,-4.0044,-11.06,0.1686,0.13011,-0.51404,4.98,-0.3,43.74
1.7979,-2.8194,-7.2052,0.20831,0.077274,-0.42486,4.92,-0.3,43.68
7.5048,-4.2359,-9.6568,0.19456,0.37446,-0.55192,4.56,-0.18,43.62
0.54481,-2.6968,-5.1485,0.33231,0.065668,-0.42883,4.26,-0.12,43.62
6.7829,-3.2825,-10.311,0.49969,0.32437,-0.30574,4.08,-0.12,43.62
8.3493,-3.8273,-11.359,0.091935,-0.031154,-0.43035,3.9,0.18,43.62
1.1305,-2.4517,-4.4402,0.20769,0.15944,-0.43494,3.42,0.54,43.56
4.5356,-2.6287,-7.3414,0.30665,0.38637,-0.40684,3.24,0.72,43.44
11.073,-8.3493,-11.836,0.094379,0.037874,-0.43677,2.94,0.9,43.32
-0.77636,-4.2087,-2.0567,-0.16677,-0.16677,-0.72754,2.94,1.08,43.2
-0.27241,-0.47671,-3.9227,0.31704,0.40042,-0.5565,2.76,1.14,43.2
8.1041,-4.018,-10.229,0.19517,0.20525,-0.32773,2.58,1.38,43.08
4.8625,0.57205,-7.9543,0.1011,0.12737,-0.34025,2.52,1.44,43.02
9.6023,-5.38,-12.122,-0.061697,-0.11332,-0.31734,2.28,1.56,42.9
-9.3844,-0.43585,3.8818,-0.13683,0.39248,-0.41478,2.22,1.8,42.78
-0.01362,3.4459,-6.6059,0.31521,0.45723,-0.29596,2.16,1.98,42.78
16.467,-6.9872,-16.93,0.20433,0.45876,-0.35186,1.8,2.04,42.54
10.76,-6.0883,-12.531,-0.45418,-0.19487,-0.70494,1.62,1.98,42.54
-1.0488,5.1349,-3.5685,0.16127,-0.015272,-0.19426,1.5,1.68,42.48
6.8919,-4.2632,-8.4038,0.42913,0.072082,0.26298,1.56,1.62,42.6
8.8941,-3.4187,-10.678,0.066584,-0.1518,0.019548,1.5,1.74,42.6
1.7298,0.29965,-4.7535,0.14722,-0.32529,0.047342,1.32,1.68,42.54
-0.36775,-0.62654,-4.2495,0.42058,-0.0030543,0.35155,1.26,1.62,42.54
12.326,-9.4389,-12.721,-0.26512,-0.40561,-0.32162,1.32,1.8,42.36
-0.96704,0.027241,-2.0294,-0.1576,-0.37721,-0.40225,1.38,1.68,42.24
2.4789,-2.0431,-7.2324,0.27214,-0.12614,-0.19028,1.5,1.74,42.48
8.8532,-3.3778,-11.25,0.14111,-0.042761,-0.090408,1.5,1.62,42.42
8.6762,-2.8603,-9.5887,0.043371,-0.63988,-0.067501,1.68,1.68,42.24
1.2939,-2.3427,-5.2711,0.20708,-0.46059,0.089186,1.98,1.74,42.36
5.5162,-0.77636,-8.2812,0.18754,-0.10232,0.084299,2.52,1.98,42.18
7.5865,-2.3563,-9.3163,0.13653,-0.30024,0.1686,2.76,2.1,42.12
6.2381,-4.127,-7.3686,0.16188,-0.48594,0.3207,2.94,2.22,42.18
4.1133,-4.7807,-8.6217,0.2416,-0.32834,0.3149,3.24,2.4,42.06
6.8374,-6.3062,-13.048,-0.087354,-0.76908,0.19426,3.48,2.64,42.06
3.337,-4.0861,-6.7421,0.27703,-0.17257,0.071777,3.78,2.94,42.12
1.3484,-1.471,-7.5048,0.78741,-0.21502,0.28986,4.38,3.06,42.24
7.355,-2.1793,-9.3436,0.72265,-0.037874,0.31429,4.62,3.3,42.3
8.5944,-2.6696,-7.7364,0.52443,-0.30788,0.15516,4.74,3.48,42.18
3.9227,-5.38,-6.8374,0.31521,-0.86712,0.010079,5.22,3.9,42.36
7.7908,-2.9148,-8.2131,0.0033598,-0.44776,-0.50274,5.4,4.26,42.54
7.7636,-3.9635,-10.556,-0.12706,-0.85857,-0.49266,5.64,4.32,42.54
1.471,-7.4503,-6.4697,-0.25259,-0.96028,-0.42638,5.94,4.74,42.48
7.5048,-6.5378,-11.536,-0.23915,-0.53084,-0.81428,6.6,5.16,42.72
4.3585,-2.8058,-8.6489,-0.15211,-0.82833,-0.73793,7.08,5.34,42.72
6.5922,-1.7162,-7.927,0.075136,-0.45876,-0.79321,7.8,5.82,43.02
5.2166,-3.2144,-7.5457,0.26878,-0.59407,-0.58307,8.22,5.88,43.08
4.4811,-2.3018,-6.4152,0.25168,-0.58979,-0.58124,8.64,5.94,43.14
4.3177,-1.9613,-6.7693,0.28008,-0.53939,-0.3989,8.88,6.18,43.2
4.8352,-4.8488,-7.355,0.026878,-0.6576,-0.5229,9.54,6.54,43.44
4.4402,-5.2166,-7.0962,-0.076664,-0.55528,-0.62156,10.02,6.66,43.5
0.31327,-5.2575,-4.522,0.060781,-0.62247,-0.48655,10.56,6.84,43.62
3.2825,-5.7342,-7.927,-0.017104,-0.33506,-0.66676,11.46,6.84,43.56
5.1349,0.040861,-8.6762,-0.0097738,-0.11454,-0.77274,11.82,7.08,43.68
8.0905,1.7298,-12.544,-0.10446,0.27917,-0.85827,12.18,6.96,43.86
2.547,-9.9156,-5.4345,-0.42669,-0.98288,-0.47678,12.66,7.14,43.98
-1.0624,-3.3778,-0.81722,0.033903,-0.16554,-0.42272,12.9,7.26,43.98
7.9679,-6.1973,-16.154,0.3656,0.59223,-0.14936,13.44,7.38,43.98
5.7478,-6.674,-9.5887,-0.27672,-0.60689,-0.67348,13.74,7.56,43.86
0.47671,-1.2258,-3.1735,0.0033598,-0.24221,-0.58185,13.86,7.62,43.92
0.24517,-2.152,-6.0066,0.65637,0.010996,-0.44838,14.22,7.74,43.92
5.5435,-4.7399,-10.283,0.32681,0.14478,-0.53848,14.52,8.04,43.68
4.5492,-3.3097,-6.9055,0.4893,-0.19792,-0.59773,14.58,8.1,43.62
-0.01362,-3.9771,-5.9793,0.72113,-0.3036,-0.42302,14.58,8.16,43.74
5.38,-6.1836,-11.319,0.16921,0.054672,-0.61209,14.7,8.64,43.68
2.0022,-1.076,-3.7728,0.15058,-0.10721,-0.71807,14.82,8.76,43.74
2.0839,-1.2122,-3.4732,0.41386,0.37935,-0.66096,15.0,9.06,43.56
1.1577,-7.2052,-4.7671,-0.22571,-0.59162,-0.9108,15.18,9.36,43.38
4.7671,-0.28603,-5.5571,0.13011,0.89553,-0.84513,15.06,9.6,43.26
8.0224,-5.5707,-8.7306,0.19028,0.3711,-0.92546,14.88,9.78,43.08
0.19068,-4.2904,-4.127,0.24557,0.54123,-0.53848,14.82,9.96,43.08
5.9112,-4.7671,-7.927,0.12004,0.73029,-0.6857,14.34,10.56,43.08
0.64016,-4.2904,-5.4073,0.19456,0.40225,-0.18967,14.1,10.8,43.08
3.0237,-4.6718,-7.5457,0.13806,0.7199,-0.2978,13.92,11.04,43.14
4.2223,-3.6094,-7.6683,0.015882,0.46884,-0.29138,13.68,11.22,43.14
4.0589,-5.7342,-8.2539,-0.024129,0.62064,-0.36255,13.14,11.7,42.9
0.17706,-3.1735,-3.5413,-0.032681,0.87537,-0.26359,12.78,11.7,42.78
6.7285,-7.6002,-10.937,0.24557,1.0192,-0.35247,12.12,11.88,42.66
4.0452,-8.54,-9.7522,-0.057727,0.29963,-0.31948,11.76,11.94,42.66
3.732,-6.8238,-7.927,-0.20464,0.6576,-0.50641,11.4,12.18,42.66
1.8932,-1.0488,-5.1621,0.36011,0.98349,-0.3992,10.32,12.42,42.66
6.851,-2.8603,-8.5944,0.38423,1.1057,-0.36835,9.72,12.48,42.6
5.6661,-6.6059,-7.6683,0.0079412,0.27978,-0.37935,9.24,12.48,42.6
3.4051,-3.0646,-5.993,0.10354,0.63835,-0.41844,8.34,12.6,42.6
3.5413,-4.8625,-5.7614,0.17685,0.59223,-0.22877,7.74,12.6,42.42
3.9908,-4.6445,-6.0883,0.17959,0.73334,-0.1295,7.2,12.6,42.24
9.616,-7.0826,-8.9077,-0.10263,0.27703,-0.46029,6.66,12.54,42.12
1.1169,-3.2961,-4.2632,0.10354,0.37782,-0.40134,5.82,12.6,41.88
3.9227,-4.9306,-6.5378,0.16096,0.63652,-0.49694,5.28,12.72,41.82
7.8317,-8.7987,-8.0088,0.034819,0.64843,-0.53054,4.32,12.78,41.7
3.9635,-5.0259,-5.489,-0.21808,0.6014,-1.1475,3.6,12.84,41.7
1.5527,-1.1986,-7.3005,-0.14539,0.59743,-1.0192,3.0,12.84,41.52
6.3198,-4.5492,-8.2948,-0.34178,0.62094,-0.88667,1.98,12.78,41.28
6.1292,-0.89894,-9.0984,-0.4215,0.5174,-0.79351,1.5,12.78,41.22
8.3493,-2.6696,-8.5127,-0.59193,0.28802,-0.63866,1.08,12.72,41.1
4.0725,-1.7979,-6.7966,-0.3766,0.31093,-0.13928,0.06,12.3,40.8
7.3141,-0.84446,-10.283,-0.32834,0.36805,0.027794,-0.3,12.18,40.62
6.8374,0.51757,-9.8748,-0.36194,0.26023,0.15149,-0.66,11.82,40.44
10.12,-4.3994,-10.188,-0.33262,-0.085216,0.13928,-1.08,11.76,40.44
0.34051,0.95342,-6.3062,-0.14936,-0.087965,0.219,-1.98,11.22,40.08
6.4424,-1.0624,-7.6002,0.01741,0.15608,0.26786,-2.28,11.04,40.08
11.768,-5.4073,-10.706,-0.1909,-0.46884,0.15669,-3.06,10.56,39.78
9.2891,-5.5435,-8.4855,-0.46823,-0.54398,-0.15394,-3.24,10.32,39.6
2.7104,-0.12258,-3.909,-0.15333,-0.28161,0.14142,-3.36,9.96,39.6
12.476,-4.0316,-9.5887,-0.15027,-0.33109,0.015882,-3.36,9.54,39.48
9.3708,-3.9363,-7.7091,-0.26573,-0.686,-0.097128,-3.24,9.36,39.48
5.3256,-1.2531,-6.8783,-0.12584,-0.72296,0.036957,-3.18,9.06,39.42
6.1564,-2.9692,-7.5321,0.12065,-0.45051,0.33964,-2.82,8.94,39.36
7.5048,-3.4868,-8.8941,0.079412,-0.48839,0.21075,-2.64,8.88,39.42
4.6445,-0.027241,-6.4833,0.11515,-0.40409,0.25931,-2.34,8.82,39.54
6.5786,-7.3686,-6.2381,0.11912,-0.59193,0.090408,-1.86,8.82,39.66
-0.58567,-1.1169,-2.9148,0.30696,-0.26359,0.21258,-1.68,8.88,39.78
4.699,-1.9205,-7.0553,0.42669,-0.31185,0.1912,-1.44,8.82,39.84
4.413,-1.6753,-5.5571,0.32742,-0.31307,0.18662,-0.54,8.88,40.08
5.0123,-0.46309,-6.565,0.28253,-0.41233,0.16127,-0.12,9.06,40.14
7.3958,-3.514,-7.8589,0.17837,-0.57055,0.18509,0.24,9.18,40.32
3.1191,-4.6173,-5.3119,-0.096211,-0.35003,-0.077274,0.9,9.36,40.32
3.8682,-1.0488,-6.7693,-0.083994,-0.49236,-0.098044,1.26,9.48,40.38
7.3005,-2.7786,-9.6841,-0.16921,-0.54917,0.0036652,1.56,9.78,40.44
6.1292,-3.4732,-7.5321,-0.24221,-0.49175,-0.0079412,2.28,9.9,40.68
7.8317,-3.909,-9.3163,-0.14997,-0.51832,0.1237,2.58,10.02,40.68
7.0009,-6.0883,-8.1722,-0.10812,-0.29596,0.13134,2.88,10.2,40.74
5.2302,-0.76274,-6.7693,0.17379,-0.21625,0.16463,3.66,10.32,40.8
4.9442,-1.1713,-6.5922,0.42974,-0.1744,0.44593,4.08,10.32,40.92
8.8396,-6.279,-10.188,0.32284,-0.41661,0.31307,4.5,10.32,40.92
1.866,-1.2531,-3.5277,0.3149,-0.19731,0.27764,5.04,10.68,40.86
7.0962,-8.4174,-9.2346,0.1744,-0.4386,0.061392,5.28,10.74,40.92
1.8932,-6.4424,-3.8954,0.15608,-0.12645,0.094684,5.64,10.86,40.8
6.4016,-0.83084,-8.7306,0.34208,-0.20433,-0.0094684,6.42,11.1,41.04
5.2166,-4.699,-8.3493,0.13164,-0.46701,0.20097,6.72,11.16,40.98
3.1735,-5.3528,-6.6876,-0.021686,-0.080023,0.092546,7.02,11.34,40.92
6.2245,-5.094,-8.8396,-0.19242,-0.35064,-0.024129,7.32,11.52,40.98
2.3836,-2.1656,-7.4503,-0.030849,-0.032681,0.072693,7.86,11.52,40.98
6.5514,-2.152,-11.25,-0.17379,-0.30665,0.027794,8.1,11.7,40.92
7.8998,-6.5786,-11.877,-0.30665,-0.53145,0.050396,8.34,11.94,40.92
6.0066,-1.8932,-7.3141,0.079412,-0.23335,-0.073609,8.88,12.24,40.86
5.0804,-1.2395,-8.1995,0.32834,-0.46823,0.19028,9.18,12.3,40.92
5.3528,-3.8273,-7.0826,0.36316,-0.42486,0.21319,9.54,12.36,40.86
5.3256,-3.9635,-7.0553,0.42791,-0.42699,0.29291,10.08,12.6,40.74
3.8682,-4.3994,-6.1155,0.35125,-0.47831,0.18845,10.32,12.78,40.86
4.9169,-5.3392,-7.1915,0.25626,-0.39951,0.069333,10.5,12.84,40.74
2.3291,-6.8238,-4.1678,-0.059865,-0.5006,-0.23854,10.92,12.96,40.62
3.4459,-4.2223,-6.0747,0.021991,-0.22969,-0.51221,11.1,13.02,40.68
4.5901,-3.1463,-8.1586,0.08094,-0.25687,-0.50793,11.46,13.38,40.68
4.9714,-3.7456,-8.3084,0.12859,-0.26634,-0.36438,11.7,13.5,40.68
4.4811,-3.4732,-7.5729,0.12126,-0.15699,-0.2416,11.94,13.5,40.8
5.0259,-3.4187,-8.3493,0.12065,-0.11759,-0.20311,12.12,13.5,40.8
5.8159,-4.0725,-9.5342,-0.010996,-0.22419,-0.13714,12.36,13.74,40.68
4.7944,-2.6832,-6.6195,0.05681,-0.029322,-0.18173,12.78,14.16,40.8
4.127,-4.304,-6.7012,0.17043,-0.2419,-0.086132,12.9,14.34,40.8
4.7944,-4.2495,-7.8453,0.16952,-0.11729,-0.13531,13.02,14.52,40.8
-0.027241,-3.4187,-5.2302,0.10415,-0.48136,-0.062003,13.56,14.64,40.68
4.413,-2.547,-7.8862,0.26145,0.03543,-0.030238,13.68,14.7,40.68
7.7908,-5.8159,-11.346,0.050702,-0.748,-0.2584,13.86,14.88,40.74
3.8682,-3.0918,-7.355,0.25412,-0.015577,-0.26573,14.04,15.12,40.86
7.5457,-6.1155,-11.673,-0.10721,-0.6857,-0.46426,14.28,15.36,40.74
1.8524,-2.438,-4.9987,0.017715,-0.13592,-0.45723,14.4,15.54,40.8
7.5593,-6.3335,-11.455,-0.27855,-0.4554,-0.74556,14.58,15.66,40.86
0.21793,-3.9363,-3.1054,0.020769,0.19548,-0.60567,14.64,15.84,40.68
7.4776,-6.1155,-8.717,0.027794,-0.20433,-0.61025,14.88,15.96,40.68
2.4789,-5.993,-8.1041,0.11423,-0.42058,-0.41844,15.12,16.08,40.56
3.5685,-2.656,-7.9679,0.2193,0.13775,-0.40134,15.06,16.14,40.44
3.4187,-2.2201,-6.7966,0.24923,0.015272,-0.35125,15.36,16.26,40.44
3.3506,-3.6775,-7.0281,0.36988,0.088881,-0.24709,15.24,16.44,40.5
2.6968,-3.9227,-6.1564,0.39156,0.12889,-0.20097,15.24,16.56,40.62
3.1191,-5.0804,-9.221,0.25137,0.058032,-0.22846,15.3,16.86,40.56
3.8273,-4.6037,-8.431,0.08827,0.10415,-0.42058,15.42,17.22,40.44
2.1929,-4.6037,-7.5048,0.11576,-0.021991,-0.4273,15.6,17.4,40.32
3.732,-1.0896,-6.5514,0.1124,0.19303,-0.48289,15.6,17.7,40.08
8.4719,-5.4754,-11.727,0.021991,-0.15577,-0.56749,15.54,17.88,39.96
6.6059,-6.3335,-10.093,-0.082772,-0.15455,-0.52137,15.66,18.12,39.9
3.7047,-0.39499,-4.1133,0.042455,0.32987,-0.56505,15.54,18.36,39.9
4.8761,-6.8783,-5.993,-0.025656,-0.35949,-0.54734,15.24,18.66,39.96
4.8216,-7.0962,-7.8862,-0.10996,0.011912,-0.59682,15.06,18.84,39.9
6.1564,-7.5729,-6.1836,-0.31551,0.0097738,-0.71624,14.94,19.08,39.78
2.4517,-2.152,-5.9249,-0.029627,0.33995,-0.52534,14.76,19.32,39.54
6.5105,-2.833,-10.106,0.26756,0.69455,-0.54092,14.58,19.38,39.42
7.3277,-5.884,-10.256,0.14447,0.14416,-0.29566,14.46,19.38,39.36
2.3427,-5.0531,-6.3471,0.28558,0.58857,-0.1857,13.92,19.62,39.18
2.7241,-4.9987,-6.4697,0.27611,0.57757,-0.12309,13.56,19.68,39.06
2.5742,-4.9578,-7.5048,0.2926,0.70555,-0.15302,13.08,19.86,39.06
5.3256,-3.5822,-7.7364,0.058032,0.61636,-0.26817,12.66,19.92,39.0
3.9227,-4.6445,-7.2324,-0.048869,0.54336,-0.20525,12.12,20.04,39.0
3.8137,-5.4345,-7.069,-0.14997,0.61942,-0.25656,11.82,20.22,38.88
3.5958,-5.1213,-6.6604,-0.14294,0.69761,-0.20036,11.52,20.34,38.7
4.127,-4.2904,-7.4095,-0.068111,0.66768,-0.11759,10.74,20.64,38.52
6.9464,-4.1133,-9.6296,-0.047037,0.68295,-0.14203,10.32,20.64,38.52
4.7807,-4.985,-8.7851,-0.0039706,0.51771,-0.072082,9.24,20.82,38.34
4.8352,-3.9635,-7.7636,-0.059559,0.57269,-0.15058,8.76,20.88,38.34
7.0145,-2.547,-9.9429,-0.079412,0.57788,-0.14508,8.28,21.0,38.52
6.8374,-3.4732,-8.2539,-0.23457,0.33781,-0.060476,7.86,21.0,38.52
5.0531,-3.0237,-6.4833,-0.093768,0.51129,0.0012217,6.9,21.06,38.46
7.2869,-3.9908,-7.8181,-0.11668,0.39828,0.042455,6.3,21.06,38.4
6.7966,-4.3177,-8.1313,-0.17593,0.21105,0.014966,5.76,20.82,38.34
5.3528,-2.5061,-7.5184,-0.18723,0.2587,-0.0058032,5.16,20.82,38.28
4.0044,-2.6968,-6.7693,-0.092852,0.23763,0.10629,4.8,20.82,38.34
6.0611,-4.1133,-7.641,-0.078191,0.13134,0.17379,4.5,20.7,38.4
4.6854,-3.051,-6.5786,-0.069333,0.25473,0.1628,3.84,20.76,38.28
5.6116,-4.4947,-7.4231,-0.077885,0.15485,0.19609,3.48,20.7,38.34
4.3858,-3.0918,-6.9328,-0.073915,0.1628,0.1347,3.12,20.58,38.28
6.2245,-4.2087,-7.5865,-0.034819,0.27367,0.12217,2.88,20.52,38.1
5.6116,-4.2495,-6.9328,-0.032681,0.23427,0.028711,2.7,20.52,37.98
6.7012,-2.8603,-8.0632,-0.048869,0.24984,-0.018021,2.34,20.46,37.86
5.4754,-3.3506,-7.2869,-0.023824,0.14447,0.041233,1.98,20.28,37.86
7.1779,-3.4732,-7.4095,-0.15363,0.14355,-0.026878,1.98,20.28,38.04
8.0088,-4.8216,-7.464,-0.23885,0.023824,-0.12401,1.92,20.46,38.04
3.5004,-3.2689,-6.6195,-0.11759,0.12248,-0.05681,1.86,20.4,37.98
5.3119,-2.6968,-7.1915,-0.098044,0.36072,0.033903,1.68,20.34,37.98
6.6604,-3.4596,-6.8783,-0.044899,0.27733,0.096517,1.5,20.28,38.1
6.7557,-5.2575,-6.9872,0.057116,0.092546,-0.098655,1.38,20.16,38.1
3.4323,-3.2144,-6.4969,0.093157,0.15333,-0.12828,1.26,19.98,37.98
4.2495,-5.1213,-6.3471,0.27672,0.31124,-0.064141,1.14,19.98,38.04
5.7342,-5.2847,-8.4038,0.2697,0.19242,-0.14355,0.78,20.28,38.04
3.4868,-1.6072,-7.0145,0.11606,0.40225,-0.090713,0.6,20.22,38.1
6.1973,-3.7184,-6.7285,0.065057,0.48228,0.020159,0.54,20.34,38.16
8.3493,-5.489,-7.464,-0.079107,0.062614,-0.20586,0.48,20.34,38.1
3.9635,-3.0237,-5.8976,-0.15027,0.13928,0.022297,0.12,20.52,37.92
5.9521,-2.4789,-7.2052,-0.135,0.45632,0.16157,-0.06,20.52,37.8
8.1722,-3.3506,-8.7987,-0.24984,0.1799,0.21502,-0.18,20.58,37.62
5.8295,-5.203,-7.0962,-0.31887,-0.012217,0.15363,-0.48,20.58,37.38
5.5162,-3.9635,-8.1586,-0.28833,0.11393,0.25381,-0.6,20.52,37.32
8.1177,-4.8625,-9.1529,-0.37599,0.17929,0.21502,-0.78,20.58,37.26
5.38,-3.6775,-6.8919,-0.27642,0.10263,0.33139,-1.02,20.58,37.2
5.1894,-2.2746,-6.3879,-0.13683,0.29749,0.39676,-1.14,20.58,37.08
6.9328,-0.51757,-7.3822,-0.04948,0.15363,0.5962,-1.38,20.34,37.26
7.5729,-3.5549,-7.1643,-0.081245,-0.077274,0.7251,-1.26,20.34,37.14
