Ax,Ay,Az,Gx,Gy,Gz,Mx,My,Mz
7.0417,-3.0373,-8.2539,0.064752,0.041233,0.55803,11.04,4.08,30.42
6.6331,-3.2553,-8.54,-0.035736,0.14233,0.45296,10.92,4.2,30.36
5.1894,-2.152,-7.5321,0.07422,0.03146,0.39248,10.74,4.26,30.24
3.9908,-1.58,-5.7614,0.1799,0.029627,0.46242,10.5,4.14,30.18
3.7184,-0.83084,-7.3686,0.44104,0.10751,0.61331,10.26,4.2,30.06
9.0439,-2.3018,-8.0496,0.35552,-0.0015272,0.43616,10.02,4.26,30.0
6.279,-4.0452,-7.355,0.3488,-0.30024,0.35216,9.6,4.56,29.94
3.7592,-4.3994,-7.5729,0.47739,-0.60018,0.23854,9.48,4.8,30.06
5.6524,-6.456,-7.9407,0.20433,-0.74648,0.31124,9.54,4.8,29.94
4.3449,-5.5299,-8.5808,0.13164,-0.44563,0.051618,9.6,4.8,29.94
3.7047,-1.6208,-7.246,0.08094,0.16952,-0.070555,9.6,4.86,30.06
4.9578,-3.9227,-7.5457,-0.058338,0.082161,0.027794,9.72,5.1,30.0
3.9771,-2.2065,-7.5321,0.11209,-0.13622,0.067195,9.84,5.28,29.94
5.7205,-1.6344,-7.927,0.076969,-0.10965,0.19303,9.96,5.7,30.06
5.9112,-4.2223,-8.1313,-0.13867,-0.066279,0.11973,10.02,5.76,30.06
3.5277,-3.7456,-7.0281,-0.0012217,-0.047037,0.055283,10.2,5.82,30.12
4.6037,-3.9635,-7.7908,-0.22571,0.044288,-0.079718,10.26,6.06,30.0
5.8431,-4.1814,-8.0088,-0.27458,-0.11362,-0.19945,10.56,6.06,29.88
5.9112,-2.3018,-8.2948,-0.21228,0.13286,-0.4725,10.8,5.94,30.0
5.8023,-3.0782,-7.6546,-0.21961,0.039095,-0.43555,10.86,5.82,30.06
4.3994,-0.57205,-7.8589,-0.13317,0.15363,-0.47464,10.8,5.7,30.0
7.0962,-0.20431,-9.221,-0.35339,0.038179,-0.48533,10.68,5.46,29.94
6.2381,-2.2746,-8.6625,-0.28955,-0.013439,-0.32254,10.62,5.28,29.94
8.1586,-2.8467,-5.9249,-0.41905,-0.078496,-0.59071,10.5,5.1,30.0
1.9613,-2.2882,-7.1507,-0.24282,0.04948,-0.12614,10.44,4.86,30.0
7.4231,-1.9205,-8.7715,-0.56352,0.16524,-0.78802,10.38,4.68,30.12
7.246,-7.5321,-7.1507,-0.39859,-0.15302,-0.33537,10.32,4.44,30.12
1.5255,-2.9148,-7.1234,-0.24618,0.405,-0.25045,10.26,4.02,30.24
7.2052,-4.2495,-7.1643,-0.56841,0.71135,-0.44776,10.14,3.72,30.36
4.8761,-5.8704,-7.1915,-0.24771,0.50488,-0.12706,10.08,3.36,30.48
4.1951,-2.9011,-6.9191,-0.20983,0.48717,-0.38362,9.9,3.0,30.42
2.2201,-1.5936,-7.9543,-0.049175,0.50977,-0.10415,9.84,2.94,30.48
5.4345,-1.4165,-8.0224,-0.11393,0.33292,-0.24526,9.72,2.7,30.48
5.4754,-1.1169,-8.2812,-0.063835,0.16035,-0.32345,9.3,2.28,30.78
7.3141,-4.2632,-8.2948,-0.2248,-0.14905,-0.45754,9.0,2.04,30.72
6.5786,-4.6037,-8.6353,-0.22449,-0.41905,-0.59712,8.94,1.68,30.78
2.5198,-2.6423,-7.9815,-0.17074,-0.20556,-0.67562,8.76,1.5,30.96
4.7944,-2.7377,-8.6489,-0.50916,0.038485,-0.59926,8.82,1.32,30.96
6.5105,-2.0158,-8.6898,-0.37293,0.20525,-0.63988,8.64,1.14,30.84
4.7807,1.5527,-7.246,-0.24496,0.33078,-0.51832,8.28,0.9,30.96
6.1836,0.21793,-7.927,-0.2364,0.36652,-0.21258,8.22,0.84,30.96
11.032,-2.9965,-8.6081,-0.32987,-0.49847,-0.30146,7.98,0.78,30.9
6.5105,-3.3097,-8.1177,-0.17685,-0.85643,-0.44807,7.56,0.42,31.2
3.5685,-2.0158,-6.9736,-0.14752,-0.1631,-0.58399,7.62,0.24,31.02
3.4187,-2.7377,-5.6661,-0.078191,0.11881,-0.3766,7.5,0.12,31.02
5.6116,-0.61292,-9.2482,-0.13683,0.051007,-0.33109,7.62,0.12,30.84
7.2324,0.70826,-9.3163,-0.055894,0.16768,-0.41142,7.68,-0.06,30.84
6.7557,-0.85808,-7.3822,0.14416,-0.17287,-0.13011,7.68,-0.24,30.9
1.4982,0.50395,-7.7091,0.34086,-0.41356,0.077885,7.68,-0.54,30.9
2.9829,-0.12258,-7.6002,0.25992,-0.11393,0.29291,7.5,-0.48,30.9
3.7865,-1.1305,-9.7794,0.13897,-0.32895,0.34239,7.56,-0.48,31.14
4.5901,-0.65378,-9.0575,0.23182,-0.12339,0.1014,7.86,-0.48,31.08
2.7104,0.19068,-7.8862,0.16371,-0.25107,0.33506,7.98,-0.48,31.14
5.6661,-1.185,-8.7987,0.053756,-0.208,0.40531,8.22,-0.48,31.32
6.4016,-2.6015,-9.0303,0.10599,-0.47495,0.36224,8.76,-0.42,31.14
3.0101,-2.2201,-8.6081,0.30788,-0.30665,0.50641,8.88,-0.3,31.2
1.1032,-1.2122,-7.1915,0.51893,-0.039401,0.48381,9.12,-0.12,31.2
8.1722,-2.3018,-10.896,0.36682,0.0061087,0.55192,9.66,0.06,31.14
5.3528,-1.7706,-10.12,0.45693,-0.085521,0.67776,9.9,0.12,31.14
3.1599,-2.0567,-7.2869,0.37904,0.13225,0.63041,10.08,0.54,31.02
8.2131,-7.246,-8.0224,0.16799,-0.048564,0.68234,10.38,0.84,30.72
5.4345,-6.3062,-7.246,0.30604,-0.24893,0.57666,10.68,0.84,30.66
3.9635,-2.4789,-9.3027,0.12004,0.13256,0.26542,10.74,1.02,30.54
7.0009,-3.2825,-8.2812,0.1014,0.0281,0.43555,10.92,1.2,30.54
5.7205,-2.4925,-8.3629,0.26145,-0.10996,0.28955,10.98,1.38,30.42
4.5492,-2.2201,-7.9951,0.25626,-0.10293,0.2584,11.1,1.44,30.3
4.3449,-1.58,-9.5479,0.24251,-0.075442,0.34667,11.22,2.04,30.24
6.7693,-2.0567,-9.1256,0.18143,-0.16157,0.26939,11.34,2.16,30.12
5.7614,-2.9556,-8.036,0.17471,-0.37171,0.36805,11.34,2.16,30.12
3.8954,-2.5198,-8.322,0.15241,-0.20372,0.34972,11.4,2.4,30.36
6.0611,-2.1656,-8.322,0.079412,-0.030849,0.281,11.34,2.58,30.36
6.0883,-3.5685,-7.2188,0.066584,-0.080329,0.28711,11.52,2.58,30.36
3.9908,-2.3018,-6.7285,0.20953,-0.12004,0.30452,11.58,3.0,30.72
6.4016,-4.3994,-8.1858,0.033292,-0.20372,0.11576,11.52,3.12,30.84
3.6911,-3.7047,-8.036,0.29474,-0.15088,0.11209,11.76,3.12,30.9
8.6217,-4.8216,-7.5321,-0.23854,-0.26023,-0.36285,11.82,3.36,30.78
8.6217,-2.4517,-6.7012,0.38668,-0.033598,0.35461,11.94,3.54,30.96
3.5958,2.0294,-8.7715,-0.093768,0.33995,-0.3094,11.94,3.66,31.02
7.3141,-4.699,-7.6683,-0.20708,0.18601,-0.21166,12.12,3.84,31.32
3.7865,-2.8603,-6.7421,0.000305,-0.51985,-0.11393,12.0,3.84,31.44
3.8273,-3.0918,-8.1858,-0.20464,-0.1127,-0.30543,12.06,3.9,31.74
4.0997,-3.1599,-8.7715,-0.1237,-0.085827,-0.36652,12.18,3.9,31.8
7.7227,-2.3972,-8.4855,-0.009163,0.18418,-0.21197,12.36,4.02,32.04
7.0962,-4.5628,-6.3471,-0.025962,0.23305,-0.32529,12.18,3.96,31.98
4.9987,-2.5061,-7.3005,0.051007,0.38546,-0.44899,12.24,3.9,32.16
4.8625,-3.2553,-7.4095,-0.000305,0.40561,-0.43738,11.94,3.78,32.1
4.3858,-1.8796,-7.7364,0.050396,0.71166,-0.31704,11.82,3.78,32.28
5.4073,-1.9341,-7.5457,-0.048869,0.81245,-0.32376,11.64,3.78,32.34
5.3664,-4.5356,-7.9679,-0.078496,0.64843,-0.30788,11.28,3.72,32.46
6.5378,-5.5299,-7.9815,-0.25076,0.3766,-0.42272,11.1,3.78,32.58
5.3528,-6.6059,-5.884,-0.12859,0.13928,-0.49541,10.92,3.66,32.7
3.7047,-2.4517,-6.96,-0.12889,0.55405,-0.32223,10.32,3.66,32.82
7.3141,-3.3642,-5.8295,-0.18479,0.5116,-0.38057,10.08,3.78,32.76
4.5356,-4.4539,-7.069,-0.15211,0.035125,-0.020464,9.9,3.72,32.88
7.246,-4.6037,-7.6002,-0.20617,-0.015577,-0.46609,9.12,3.48,32.76
5.0259,-4.2495,-8.2539,-0.17837,-0.24221,-0.071166,8.88,3.48,32.88
4.6037,-3.6366,-7.5048,-0.1689,0.084605,-0.53023,8.58,3.36,32.88
8.4991,-6.4152,-9.0575,-0.48289,-0.29932,-0.27092,8.34,3.36,32.88
5.5162,-4.2904,-9.3436,-0.26237,-0.082772,-0.72204,8.22,3.36,32.88
2.9011,0.1362,-9.3844,-0.45143,0.2474,-0.79321,8.04,3.36,32.88
5.6116,-0.89894,-7.7636,-0.42486,0.31704,-0.52779,7.86,3.12,32.88
5.6116,-0.89894,-7.7636,-0.33078,0.22846,-0.5733,7.86,3.12,32.88
8.2539,-2.3563,-7.8317,-0.29749,-0.17318,-0.43768,7.8,2.88,32.64
6.0883,-0.8036,-7.8589,-0.13775,-0.208,-0.43066,7.56,2.82,32.52
10.719,-2.3972,-7.6683,-0.38057,-0.37996,-0.32284,7.56,2.58,32.34
5.489,-2.6696,-6.3879,-0.11118,-0.4328,-0.38026,7.56,2.46,32.34
0.72188,0.50395,-8.1995,0.16829,-0.46212,-0.26237,7.56,2.52,32.4
6.0338,-1.2531,-7.641,-0.037568,0.16341,-0.22205,7.74,2.28,32.34
4.127,0.76274,-8.7715,0.092546,-0.36896,-0.09896,7.86,2.22,32.34
6.4424,-2.4244,-7.7364,-0.018631,-0.0058032,-0.10476,7.86,2.16,32.34
6.6059,-2.6015,-9.0031,-0.085521,-0.44563,-0.14966,8.1,1.86,32.28
4.3177,-2.656,-9.0712,-0.15119,-0.33017,0.041539,8.28,1.74,32.34
5.6388,-2.6832,-6.9872,-0.0082467,-0.028405,-0.03207,8.4,1.68,32.34
5.3119,1.4301,-9.507,-0.061697,-0.01069,0.11148,8.82,1.38,32.4
7.3141,-2.7649,-8.1586,-0.01405,0.036652,0.25992,8.88,1.38,32.4
4.9306,-1.58,-10.174,0.26542,-0.41722,0.44288,9.24,1.26,32.46
2.4244,-2.3427,-8.1858,0.36866,-0.42577,0.57024,9.72,1.14,32.64
-1.3757,0.32689,-9.1937,0.49908,-0.11637,0.6411,9.9,1.26,32.52
6.1564,-0.88532,-9.3572,0.62064,0.14386,0.5171,10.14,1.08,32.34
5.0123,-1.3484,-7.8998,0.68509,-0.035125,0.62156,10.38,1.5,32.34
6.7285,-1.8251,-7.0962,0.49938,-0.085521,0.47189,10.38,1.56,32.28
6.9055,-3.9635,-7.355,0.40531,-0.51191,0.48808,10.62,1.68,32.16
3.1463,-2.7513,-7.9543,0.4667,-0.47983,0.35858,11.04,2.1,32.1
8.6625,-4.7807,-8.8941,-0.14844,-0.53206,-0.11484,11.16,2.34,32.04
3.8273,-2.833,-6.5922,0.11668,-0.43585,0.0048869,11.34,2.58,31.92
6.7012,-0.51757,-7.2188,-0.18082,0.09499,-0.21197,11.7,3.0,32.04
6.1973,-2.152,-10.869,-0.037874,-0.42638,0.26145,11.82,3.3,32.04
9.9156,-5.7478,-9.9973,-0.42608,-0.76541,-0.23488,12.0,3.54,31.92
-3.4732,0.43585,-8.5127,0.35583,0.11851,0.40317,12.18,4.02,31.92
8.4446,-3.2553,-8.6762,-0.25473,0.053756,-0.13347,12.3,4.08,32.04
5.7342,-6.6195,-6.8647,0.56688,-0.31093,0.43982,12.6,4.32,31.98
6.7829,-2.9692,-7.7091,0.086437,-0.000305,-0.24251,13.26,4.56,32.1
4.699,-6.3198,-5.9249,0.32009,-0.53206,0.28558,13.56,4.68,32.16
2.4244,-3.2416,-7.8589,0.33048,-0.20861,-0.03879,13.8,4.86,32.34
1.7706,-2.0975,-5.2575,0.2926,-0.044593,0.26725,13.98,4.92,32.4
1.8932,-1.2939,-10.392,-0.23671,0.092241,0.0281,14.16,4.92,32.4
10.665,-6.7557,-7.355,-0.3653,-0.10812,-0.67501,14.28,4.98,32.4
0.10896,1.6072,-9.2891,0.18937,0.07025,0.38179,14.58,5.22,32.46
12.054,-8.826,-6.7557,-0.72907,-0.098655,-0.77549,14.7,5.28,32.46
0.081722,-4.7263,-7.5048,0.34544,-0.13592,0.44532,14.82,5.46,32.52
7.5048,-6.96,-5.8567,-0.63805,-0.011912,-0.93585,15.06,5.7,32.52
0.28603,-2.8194,-8.826,0.22999,-0.24099,0.43249,15.12,5.7,32.46
3.3097,2.152,-11.305,-0.23915,0.52351,-0.75747,15.0,5.82,32.7
7.0417,-2.0294,-7.7908,-0.10568,0.21777,0.033292,15.0,5.88,32.7
6.5105,-3.0646,-8.4174,-0.031154,0.059254,-0.23824,14.82,6.06,32.76
6.1428,-3.7865,-6.4152,-0.15211,-0.10079,-0.34636,14.64,6.06,32.76
4.1814,-2.7649,-7.3686,0.011301,-0.19028,0.029627,14.58,6.0,32.88
4.6173,-3.2553,-5.5162,-0.075747,0.18631,-0.52198,14.46,6.06,33.12
2.1112,-1.2667,-7.4231,0.14722,0.24374,-0.14844,14.28,6.12,33.18
6.9872,-1.6889,-9.4798,-0.34606,0.44471,-0.44135,14.16,6.06,33.18
1.1032,-3.8818,-6.4833,0.092241,-0.22633,-0.12156,14.04,5.88,33.0
4.1678,-0.54481,-8.2812,-0.27855,0.31857,-0.47922,13.8,5.82,33.06
6.4697,-5.5026,-5.7614,-0.15363,0.20433,-0.40806,13.56,5.58,33.18
4.6582,-0.38137,-8.2131,-0.060781,0.62278,-0.63866,13.38,5.4,33.3
3.7592,-1.6617,-6.3471,0.050396,0.51099,-0.25992,13.32,5.4,33.3
6.3743,-4.8897,-9.2074,-0.32712,-0.1124,-0.37415,13.02,5.34,33.18
4.6309,-5.2711,-5.8159,0.0039706,-0.22419,-0.65515,12.96,4.92,33.3
0.53119,-2.6151,-6.4833,-0.010996,-0.071471,-0.31246,12.84,4.86,33.3
4.2768,-2.6151,-8.3629,-0.2926,0.38637,-0.48503,12.78,4.98,33.36
6.4424,-0.57205,-10.174,-0.13378,0.53909,-0.28711,12.3,4.98,33.42
10.174,-4.127,-8.7034,-0.27519,0.042455,-0.38332,12.18,4.92,33.48
5.7069,-3.2416,-7.9815,0.10079,0.098044,-0.29138,12.0,4.86,33.6
0.46309,2.261,-6.9055,0.135,0.35766,-0.060781,11.88,4.98,33.84
9.1256,-4.9442,-9.902,-0.027184,-0.055283,0.13195,11.4,4.98,33.96
8.322,-1.7298,-10.992,0.048564,-0.43646,-0.25473,11.28,5.04,34.02
6.9055,-3.0237,-6.9872,0.042761,-0.28894,-0.28466,11.1,4.98,34.08
2.547,-1.3893,-7.8317,0.20678,-0.21319,-0.24465,10.8,5.16,33.96
4.3585,-1.6072,-9.0848,-0.03879,0.11423,-0.26023,10.86,5.22,34.02
9.4117,-4.304,-8.4038,0.039401,-0.10018,-0.19242,11.04,5.34,34.02
-0.61292,1.7298,-7.6819,0.40317,0.35613,-0.2923,10.86,5.52,33.9
2.2882,2.5742,-8.8532,0.040623,0.69394,0.10354,10.74,5.4,33.78
6.1836,-3.0918,-7.5865,-0.0085521,-0.05284,0.24709,10.74,5.4,33.78
1.3893,0.50395,-6.7421,0.33201,-0.089186,0.0281,10.98,5.4,33.54
4.0861,-4.7807,-5.1757,0.27458,-0.045204,0.58215,10.92,5.58,33.54
2.3972,-3.5413,-8.6898,0.23549,-0.37354,0.36469,11.04,5.58,33.24
6.674,-4.413,-6.8647,-0.029322,-0.14172,0.021686,11.16,5.88,33.06
-0.44947,-1.5255,-6.7693,0.38637,0.014355,0.40042,11.28,5.94,32.82
4.2223,-0.54481,-9.1801,0.015882,0.050091,0.18234,11.52,6.24,32.76
5.1621,-1.6344,-10.079,0.18845,-0.2364,0.55925,11.64,6.3,32.7
6.4697,-5.2575,-9.3844,0.099876,-0.06689,0.34056,11.7,6.36,32.58
1.5936,0.51757,-8.3901,0.19945,0.39034,0.41294,11.58,6.72,32.4
13.089,-8.9486,-8.5127,-0.3091,-0.029932,0.416,11.7,6.9,32.4
3.2144,-5.6524,-6.8919,0.26664,-0.59712,0.54428,11.82,7.14,32.28
2.9965,-3.2825,-8.9894,-0.29383,-0.13958,0.17623,12.0,7.62,32.04
3.6094,-1.2667,-9.4389,0.1857,0.23946,0.58949,12.12,7.8,31.92
10.61,-4.0725,-10.215,-0.14844,-0.041844,0.11209,12.36,7.92,31.86
5.2575,-4.5083,-7.6274,0.11057,-0.208,0.39798,12.48,7.98,31.86
2.0975,-2.3563,-9.3027,0.11484,-0.15058,0.31826,12.72,8.16,31.68
7.0826,-1.1169,-9.2482,-0.015272,0.092241,0.18479,12.78,8.34,31.68
5.8976,-4.9306,-6.7285,0.077274,-0.13653,0.37996,12.84,8.34,31.44
3.9227,1.6481,-10.052,-0.047342,0.19212,0.21411,13.08,8.58,31.62
11.482,-6.1836,-7.3141,-0.20892,-0.3824,0.14539,13.08,8.64,31.74
2.7377,-4.2768,-5.993,0.32681,-0.085827,0.45479,13.2,8.64,31.8
11.373,-6.279,-7.5048,-0.55619,0.17013,-0.1518,13.14,8.82,31.74
4.6309,-8.9349,-6.4152,-0.042761,-0.4777,0.5116,13.32,8.88,31.74
3.1054,-0.095342,-9.0848,-0.095295,0.18692,-0.13928,13.32,8.82,31.86
3.5413,-5.0259,-6.9736,0.091935,0.04612,0.46334,13.38,8.88,31.92
4.8625,0.081722,-9.0031,-0.0067195,0.34392,-0.18479,13.38,8.94,32.1
5.5162,0.16344,-8.3765,-0.16799,0.23885,0.049175,13.38,8.94,32.28
6.3198,-7.5184,-7.4776,-0.28069,-0.4664,-0.086437,13.38,8.82,32.52
1.58,-1.3484,-7.4231,0.12614,-0.065973,-0.17532,13.38,8.82,32.58
5.8295,-1.0624,-8.7306,-0.27825,-0.0085521,-0.24221,13.2,8.82,32.76
4.0452,-2.8603,-9.616,-0.11912,-0.16982,-0.25504,13.14,8.88,32.94
4.4811,-1.5663,-7.3822,-0.37843,-0.09499,-0.49297,13.14,8.7,32.94
3.4868,-3.4868,-6.6467,-0.21533,0.042761,-0.053756,13.2,8.52,33.0
7.2596,-0.12258,-8.6489,-0.19761,0.29077,-0.39462,13.2,8.28,33.0
5.4073,0.054481,-7.2188,0.019853,0.34758,-0.08094,13.14,8.28,33.24
9.1256,-2.8467,-8.0632,-0.23579,-0.06689,-0.2981,13.08,8.16,33.12
2.9829,-0.51757,-7.5457,0.12309,0.053451,-0.16952,12.9,7.8,33.18
6.7012,-1.7162,-8.3357,-0.16616,0.20556,-0.36224,12.9,7.62,33.06
7.1098,-4.8352,-6.9736,0.029322,0.046426,-0.23366,12.84,7.5,32.94
3.514,-0.24517,-6.6331,0.32162,0.64019,-0.32437,12.78,7.38,32.94
10.706,-4.808,-7.8045,-0.15944,0.41142,0.033598,12.78,7.26,32.94
7.8045,-11.182,-5.5299,0.090103,-0.4386,-0.12034,12.84,7.26,32.88
0.054481,-2.833,-7.3822,0.76633,0.22113,0.096822,12.9,6.96,32.94
3.6366,-0.58567,-10.815,0.37263,1.4853,0.56749,12.66,7.2,33.12
16.699,-14.165,-17.475,-1.6466,-1.3228,-0.88911,12.36,7.2,33.12
13.539,-18.864,-5.3664,0.686,-3.7202,-0.28222,12.3,7.32,33.0
-14.111,3.1599,-2.9011,0.26634,0.18631,-0.79443,12.72,7.68,33.06
-14.628,11.441,-6.7421,0.14264,1.4187,-1.8381,12.72,7.86,33.3
4.018,2.6015,-10.624,-0.99143,2.3265,0.95814,12.78,7.98,33.42
12.626,-6.6195,-7.5048,-0.15027,0.24587,-1.3436,12.24,8.16,33.72
3.3778,-0.47671,-3.8137,0.41294,-0.48075,-0.36835,12.0,8.22,33.78
-0.68102,-0.01362,-3.5413,0.0082467,-0.98471,-0.29719,11.88,8.46,34.02
7.246,-2.5742,-8.0632,-0.27245,-1.0748,-0.057727,11.76,8.64,34.2
10.174,-6.8647,-7.641,-0.2303,-0.43952,-0.39645,11.7,8.58,34.2
2.3699,-2.7649,-9.4798,0.022907,0.091935,-0.72754,11.4,8.94,34.02
9.6432,-4.127,-7.4095,-0.56688,0.19884,-0.15852,11.58,8.94,33.9
6.0747,-5.2438,-7.5729,-0.026878,-0.68356,-0.38485,11.88,9.06,34.08
0.83084,1.0896,-8.6353,-0.097128,-0.35247,-0.72724,11.82,8.94,34.2
1.7162,0.42223,-5.3528,0.06689,0.37354,-0.020769,11.22,8.58,34.26
2.6423,0.49033,-10.76,-0.032987,-0.060781,0.12187,11.1,8.34,34.08
12.095,6.1155,-13.947,-0.4554,0.25565,-0.37599,11.16,8.4,33.78
11.577,-4.8352,-6.9736,-0.71319,-0.24282,0.135,11.28,8.34,33.6
4.127,-11.863,-1.7298,0.06017,-1.0382,0.65485,11.52,8.34,33.54
-1.6617,-8.9622,-2.1929,0.21869,-0.93493,0.54184,11.64,8.22,33.18
7.1234,3.5413,-15.909,0.097128,0.010079,0.21991,11.82,7.92,32.82
5.993,2.5334,-11.169,0.3934,0.88637,0.77916,12.0,7.98,32.88
4.1678,-1.1169,-7.1371,0.69058,0.38729,0.7926,12.12,7.92,32.94
2.9965,-4.018,-4.8761,1.0855,-0.22755,0.72388,12.36,7.68,32.58
3.9635,-2.4789,-8.6081,0.83169,-0.2645,0.51343,12.3,7.74,32.4
5.993,-2.7377,-8.826,0.65363,-0.16188,0.3207,12.42,7.98,32.28
3.8818,-1.866,-7.8317,0.30177,-0.079107,0.53726,12.78,8.34,31.74
5.5571,-3.7592,-8.2131,0.015882,0.076053,0.45296,12.96,8.7,31.62
6.9464,-2.9829,-8.4038,-0.22144,-0.15027,0.25168,13.02,8.88,31.62
3.9499,-6.0611,-7.8589,-0.2419,-0.56139,0.36652,13.5,9.3,31.68
4.2768,-3.7047,-9.112,-0.31734,-0.26359,0.064752,13.56,9.54,31.62
3.5685,-1.8932,-8.6762,-0.18815,0.048258,0.08827,13.74,9.66,31.74
7.355,-1.0624,-8.8941,-0.0085521,0.37018,0.2697,13.92,10.14,31.68
7.2324,-3.6775,-8.2812,0.043371,-0.23854,0.39767,13.92,10.32,31.5
3.1872,-3.1054,-7.7636,0.28588,-0.57513,0.45509,14.04,10.44,31.5
3.8818,-1.6481,-7.7636,0.2755,-0.053756,0.24984,14.34,10.8,31.62
5.1213,-2.1656,-8.2812,0.24893,-0.062919,0.26939,14.52,10.92,31.68
6.2517,-2.2201,-8.1586,0.13195,-0.15119,0.044899,14.7,10.86,31.8
4.304,-2.7786,-6.4424,0.14905,-0.34056,0.092546,15.0,10.92,32.04
4.8352,-3.1327,-7.246,-0.002138,-0.27031,-0.000916,15.18,10.92,32.1
6.4288,-3.4323,-7.6955,-0.067806,-0.033292,-0.093157,15.54,10.86,32.16
5.7342,-4.0044,-7.3141,-0.16432,-0.079412,-0.09896,15.54,10.86,32.28
4.7399,-2.3972,-7.6683,-0.13897,0.03207,-0.092241,15.78,10.8,32.46
5.6933,-2.2201,-7.8045,-0.19517,0.13928,-0.18021,15.84,10.68,32.52
5.7614,-2.8194,-7.8998,-0.13134,-0.019853,-0.10782,16.02,10.62,32.64
4.1406,-3.4187,-7.6546,-0.045204,-0.024435,-0.12767,16.2,10.68,32.88
3.337,-2.5061,-7.9679,0.07086,0.080329,-0.090713,16.32,10.8,32.94
5.6116,-4.5901,-8.4719,-0.13744,-0.14691,-0.29596,16.44,10.92,32.94
2.0567,-4.5083,-7.4367,0.19975,-0.17226,-0.16157,16.74,10.86,33.06
3.1327,-0.8036,-8.4446,0.10721,0.31368,-0.46884,16.74,10.86,33.06
5.1349,-2.6968,-7.4776,0.16524,0.043066,-0.22022,16.74,10.74,33.12
4.7399,-3.514,-7.6683,0.18723,-0.018021,-0.35461,16.5,10.68,33.18
4.2904,-2.9284,-7.1643,0.16188,0.064446,-0.27122,16.38,10.68,33.06
5.3256,-1.6753,-7.8998,0.13744,0.24068,-0.25259,16.44,10.8,33.0
7.1371,-2.833,-7.8998,-0.071777,0.28711,-0.32376,16.2,11.04,33.12
5.38,-5.1349,-6.8374,-0.073915,0.098044,-0.13195,16.08,11.1,33.12
3.6094,-4.2223,-7.1915,-0.14416,0.3427,-0.22144,15.9,11.34,33.18
6.1292,-2.9829,-8.2403,-0.38729,0.4612,-0.36011,15.72,11.34,33.06
4.2768,-4.413,-7.8998,-0.3598,0.2642,-0.13653,15.48,11.22,33.0
3.732,-2.9965,-8.0224,-0.34606,0.40897,-0.24312,15.24,11.1,33.0
6.4288,-5.1349,-7.8045,-0.47189,0.2135,-0.31124,14.58,11.04,32.64
4.2495,-3.3642,-8.1858,-0.3882,0.19853,-0.29108,14.28,11.04,32.7
4.3177,-2.0567,-8.5808,-0.33964,0.24465,-0.32193,14.22,11.16,32.64
5.5299,-2.9011,-8.6762,-0.33811,0.099266,-0.26756,13.8,10.92,32.76
4.8625,-2.152,-8.7715,-0.27306,0.09499,-0.28619,13.62,10.92,32.76
4.4675,-2.0703,-7.9679,-0.20831,0.14813,-0.21319,13.32,10.74,32.82
6.8919,-1.9341,-10.161,-0.3036,-0.015882,-0.28527,12.9,10.32,32.7
7.8045,-2.4517,-8.6762,-0.25015,-0.21258,-0.40714,12.78,10.2,32.7
3.7047,-1.58,-6.8919,0.040928,-0.015882,-0.30085,12.66,9.96,32.7
4.8897,-1.1713,-7.4776,-0.15455,0.18479,-0.24893,12.18,9.66,32.76
6.7966,-1.9477,-7.8998,-0.058948,0.35736,-0.25504,12.0,9.54,32.76
6.279,-0.54481,-8.2539,0.056505,0.070555,-0.24618,11.76,9.54,32.82
7.2869,-2.0294,-7.8589,0.0061087,-0.23915,-0.15424,11.4,9.42,33.12
7.1643,-3.051,-7.8317,0.051007,-0.35522,-0.19517,11.22,9.48,33.06
4.413,-1.6072,-7.5729,0.1408,-0.38057,-0.19212,11.1,9.24,33.06
4.3585,-2.4517,-8.0088,0.08827,-0.219,0.017715,11.22,9.18,32.88
4.9987,-2.1112,-8.826,0.057727,-0.18204,0.022907,11.22,9.0,32.88
4.127,-1.1986,-8.7306,0.13164,-0.11515,0.020464,11.16,9.06,32.88
5.094,-2.3427,-8.4174,0.11637,-0.22602,0.19181,11.22,9.12,32.88
4.9578,-2.2882,-8.1041,0.22694,-0.34361,0.21166,11.28,9.24,32.76
5.4209,-3.8409,-8.2948,0.18631,-0.43952,0.27,11.4,9.36,32.7
1.9613,0.31327,-8.4038,0.34239,-0.012523,0.14325,11.7,9.6,32.46
4.8625,0.12258,-8.9622,0.22816,0.059559,0.2416,11.94,9.6,32.28
6.9464,-2.6015,-8.6762,0.2865,-0.13317,0.32284,12.12,9.78,32.22
4.1133,-2.1112,-9.1937,0.29993,-0.19059,0.30085,12.72,9.78,31.92
4.0589,-2.9556,-8.7987,0.33659,-0.25381,0.4328,13.02,9.96,31.8
1.7434,-2.1929,-8.4174,0.38393,0.047953,0.48442,13.2,10.26,31.8
6.0338,-3.0782,-8.3084,0.25198,0.197,0.43402,13.44,10.68,31.62
4.9306,-2.5198,-8.1586,0.27764,0.11973,0.51129,13.5,11.04,31.5
4.808,-2.9284,-7.8998,0.18051,-0.024435,0.43585,13.74,11.16,31.2
5.4073,-5.7886,-7.9679,0.06353,-0.3149,0.38576,14.22,11.58,30.96
3.5685,-3.9635,-8.5127,0.03879,-0.12798,0.27764,14.4,11.82,30.9
3.1872,-2.5061,-7.6819,-0.073609,0.2306,0.18479,14.52,12.06,31.02
5.489,-2.9284,-7.0826,-0.058948,0.15608,0.2474,14.7,12.3,30.9
5.2711,-2.4789,-8.7987,-0.064141,-0.019242,0.27611,14.7,12.66,30.9
5.4754,-4.6582,-8.1586,-0.10171,-0.16493,0.24832,14.88,12.84,30.72
2.3972,-1.1713,-8.5944,0.10476,0.018631,0.2697,15.06,13.32,30.72
6.8919,-4.5901,-7.0553,-0.091935,0.24038,0.20342,14.94,13.2,30.66
5.3256,-5.2575,-6.4152,0.15699,-0.058032,0.38698,14.94,13.2,30.6
4.5492,-2.6968,-8.6898,0.12156,0.051618,0.27275,15.0,13.2,30.54
4.5764,-3.6911,-7.8317,0.059559,-0.019853,0.3259,15.12,13.26,30.54
3.9908,-3.1463,-8.7715,0.0073304,0.10507,0.24068,15.12,13.26,30.72
4.3858,-4.8625,-7.2869,-0.12309,0.10782,0.15058,15.06,13.2,30.78
2.7104,-1.8796,-8.8396,-0.0064141,0.033598,0.27367,14.88,13.2,30.72
6.5378,-2.9556,-8.4582,-0.11087,0.208,0.10629,14.7,13.14,30.78
5.4481,-4.1951,-8.0769,-0.0067195,0.1014,0.17226,14.7,13.44,30.84
4.6854,-1.1713,-9.507,-0.0033598,0.17471,0.034514,14.52,13.32,31.02
5.9657,-3.4459,-7.9679,-0.11454,-0.046426,0.10324,14.4,13.08,31.14
5.2983,-4.3994,-7.5729,-0.10446,-0.13042,0.098655,14.34,13.08,31.14
5.0668,-2.152,-7.9815,-0.08094,0.027184,-0.041233,14.4,13.08,31.32
5.6116,-1.8387,-8.4582,-0.072693,0.037874,-0.014661,14.46,12.96,31.38
6.3471,-1.8387,-8.7034,-0.13928,0.087354,-0.11637,14.46,12.96,31.44
8.0496,-4.0452,-8.0632,-0.19884,-0.23182,-0.21747,14.34,12.9,31.56
4.2768,-0.95342,-7.2596,-0.041844,-0.10996,-0.15333,14.4,12.84,31.5
6.9055,-1.4982,-7.8181,-0.17929,0.13378,-0.30177,14.34,12.72,31.56
7.5729,-4.808,-7.7908,-0.14233,-0.14875,-0.27061,14.34,12.66,31.56
4.7671,-1.0351,-7.8726,-0.069028,0.096211,-0.39248,14.4,12.6,31.5
5.4481,-3.4051,-6.4016,-0.10324,0.024129,-0.22083,14.34,12.3,31.56
5.6524,-5.2302,-7.3141,-0.13867,-0.13439,-0.2584,14.4,12.24,31.56
3.0237,-4.0452,-6.1292,-0.097128,-0.13378,-0.44685,14.4,12.06,31.38
1.2531,-1.8115,-6.9328,0.076053,0.27061,-0.29322,14.28,12.0,31.62
4.8625,-2.2746,-8.7034,-0.14783,0.16188,-0.52046,14.16,11.76,31.74
4.5083,-8.0496,-6.7421,-0.38851,-0.29383,-0.63897,14.1,11.7,31.86
0.92618,-2.5061,-7.6683,-0.14355,-0.11118,-0.41203,14.04,11.58,31.86
1.8932,-1.4438,-7.3141,-0.22571,0.49511,-0.5565,13.92,11.58,31.92
6.2517,-3.2144,-9.0575,-0.24893,0.40928,-0.26328,13.62,11.46,31.98
8.0632,-4.3177,-8.2403,-0.30116,0.11851,-0.54245,13.56,11.52,31.92
4.127,-2.547,-7.7364,-0.086132,0.14294,-0.36774,13.44,11.58,31.86
6.4833,-2.8194,-8.6762,-0.18967,-0.053451,-0.27917,13.2,11.4,31.92
3.8954,-2.7241,-8.6217,-0.20036,-0.27489,-0.22724,13.14,11.34,31.92
2.9556,-0.96704,-9.3572,0.0018326,-0.028405,-0.12187,13.08,11.34,31.98
5.203,-1.471,-8.4174,-0.013134,0.3598,-0.018937,13.02,11.52,32.04
5.4481,-2.5061,-9.0031,0.11454,0.072998,0.11087,12.78,11.58,31.74
6.9328,-3.6094,-7.464,0.1967,-0.082772,0.061392,12.78,11.7,31.62
2.1929,-1.6072,-7.5729,0.24679,-0.050396,0.17165,12.54,11.76,31.56
2.1929,-1.6072,-7.5729,0.060476,0.13439,0.12828,12.54,11.76,31.56
6.565,-3.732,-7.6819,0.073609,-0.071166,0.01741,12.48,11.88,31.38
4.7671,-1.7706,-7.8998,0.077885,-0.048564,-0.054672,12.48,11.88,31.5
5.0531,-3.3642,-6.5105,-0.025656,-0.086743,0.019242,12.36,11.94,31.26
2.9965,-2.8194,-8.1177,0.092852,-0.13744,0.11118,12.3,11.88,31.2
5.2847,-2.547,-9.6023,-0.069028,-0.13286,0.11057,12.36,12.12,31.02
2.6968,-0.92618,-9.616,0.0012217,-0.066584,0.1631,12.3,12.18,30.96
4.8625,-1.3484,-9.9156,0.062308,0.071777,0.23915,12.24,12.3,30.84
5.8023,-2.6968,-9.0439,0.18845,-0.058338,0.33109,12.18,12.36,30.84
6.1155,-2.833,-8.9894,0.10873,-0.014355,0.35033,12.3,12.36,30.72
5.1076,-2.8058,-8.1586,0.12309,0.000611,0.3653,12.3,12.54,30.54
3.1327,-1.0351,-8.826,0.032681,-0.043371,0.37415,12.3,12.6,30.48
6.6331,-3.8682,-8.2267,-0.064752,-0.12737,0.28955,12.54,12.84,30.3
2.9965,-1.9068,-7.4095,-0.017104,-0.22419,0.32193,12.54,12.96,30.24
4.7671,-2.0294,-7.8045,-0.12217,-0.0076358,0.26848,12.66,12.96,30.06
6.4424,-3.7047,-8.1586,-0.15608,-0.17868,0.28986,12.78,12.9,29.94
4.699,-3.3642,-8.1586,-0.10263,-0.28436,0.31612,12.96,12.96,29.88
4.9033,-3.2553,-7.4231,-0.12248,-0.15699,0.27122,13.08,12.9,29.94
5.993,-3.732,-8.322,-0.062308,-0.1744,0.27153,13.32,13.02,29.76
4.3177,-3.1872,-7.7636,0.043371,-0.18692,0.18143,13.44,12.96,29.64
3.0918,-0.29965,-8.3629,0.10263,0.021686,0.17776,13.62,12.96,29.52
6.2517,-2.656,-8.5672,-0.037874,-0.15699,0.15149,13.86,12.96,29.46
3.6366,-3.1463,-7.8589,0.091019,-0.3036,0.23091,14.1,12.9,29.76
6.2517,-4.0316,-8.0224,-0.045815,-0.16249,-0.028405,14.22,12.96,29.7
4.5901,-3.9363,-7.0553,0.080023,-0.21655,0.032681,14.4,12.78,29.76
5.5843,-2.7377,-7.9951,0.0088575,-0.064752,-0.076664,14.58,12.66,29.88
3.6775,-3.0646,-7.1234,0.037568,-0.15638,0.03879,14.64,12.72,29.94
3.1872,-1.9886,-8.1858,-0.05681,0.036041,-0.07086,14.76,12.78,30.0
5.5162,-4.127,-7.6683,-0.11912,-0.064752,-0.045509,15.06,12.78,30.18
4.7671,-4.018,-7.9679,-0.044899,-0.13867,-0.082772,15.24,12.84,30.18
4.0725,-2.3563,-8.5127,-0.10721,-0.081856,-0.16738,15.36,12.78,30.3
5.38,-1.9068,-8.9077,-0.06353,-0.099876,-0.15485,15.42,12.84,30.3
5.6388,-1.9613,-9.0031,-0.15424,-0.1069,-0.20372,15.54,12.84,30.36
6.1292,-2.3836,-8.3357,-0.22297,-0.15547,-0.29932,15.6,12.84,30.42
5.1485,-3.3778,-7.1234,-0.15272,-0.21991,-0.27611,15.78,13.08,30.3
5.0804,-3.0237,-8.0224,-0.16127,-0.14019,-0.32742,15.84,13.08,30.42
5.8023,-2.6423,-8.1586,-0.12492,0.046731,-0.30421,15.9,13.26,30.24
4.9306,-3.4187,-7.7636,-0.13806,0.1066,-0.28986,15.78,13.14,30.3
4.2495,-2.6423,-8.0224,-0.11759,0.15974,-0.25229,15.96,13.2,30.24
4.9578,-4.4675,-7.4231,-0.17837,-0.027489,-0.27245,15.96,12.96,30.42
3.6366,-3.7592,-7.7227,-0.097128,0.087354,-0.21533,15.96,13.02,30.54
3.514,-2.4789,-7.355,-0.060781,0.42455,-0.25381,15.72,12.96,30.48
5.6252,-3.4459,-7.9679,-0.034514,0.42241,-0.14294,15.6,12.84,30.78
5.5162,-3.8001,-8.5808,-0.013134,0.077885,-0.23549,15.54,12.72,30.9
4.8761,-3.4459,-8.1586,0.042455,-0.027794,-0.29322,15.42,12.54,31.02
3.8546,-3.6639,-7.0826,0.038179,0.070555,-0.29474,15.3,12.54,31.14
7.0826,-5.3937,-7.7364,-0.20739,-0.042455,-0.47739,14.88,12.18,31.32
3.5549,-3.0646,-8.0769,-0.08827,-0.029627,-0.43249,14.76,12.12,31.14
4.4539,-1.4574,-8.5263,-0.1912,0.23213,-0.47342,14.58,12.0,31.14
5.3664,-1.6617,-7.927,-0.20586,0.44868,-0.24099,14.4,11.82,31.32
5.6661,-2.3155,-8.3357,-0.19731,0.40745,-0.097433,13.92,11.76,31.32
4.413,-2.6832,-7.8317,-0.12614,0.19303,0.0045815,13.8,11.64,31.2
6.4152,-3.0237,-8.2131,-0.10537,0.1857,0.21258,13.5,11.64,30.96
3.4187,-2.3836,-7.8453,-0.13225,0.19273,0.093768,13.2,11.52,30.9
4.2495,-0.91256,-9.4798,0.060781,0.090713,0.22083,13.02,11.34,30.96
5.6252,-2.3563,-8.5672,0.049786,-0.098044,0.084299,12.96,11.34,30.9
3.1463,-2.7104,-8.8805,0.18295,-0.12981,0.091019,12.78,11.28,30.84
6.5786,-2.7922,-8.5127,-0.0039706,-0.044288,-0.22633,12.78,11.16,30.72
3.7456,-0.91256,-7.7091,0.17776,-0.14966,-0.088575,12.78,11.16,30.78
7.355,-1.1986,-9.7658,0.055589,-0.15241,-0.043066,12.78,11.28,30.66
6.8374,-2.2065,-9.9156,0.024435,-0.25626,0.009163,12.54,11.28,30.6
7.069,-3.4187,-9.3572,-0.080634,-0.35858,0.01741,12.6,11.28,30.72
1.8932,-2.8058,-6.9191,0.09896,-0.1066,0.23121,12.72,11.34,30.66
1.185,1.4029,-8.4038,0.16616,0.35339,0.26176,12.84,11.58,30.24
7.1234,0.38137,-9.4798,0.22755,0.41722,0.38271,12.9,11.76,30.24
8.5808,-3.4596,-8.9758,0.24038,-0.12156,0.30482,12.9,11.94,30.18
0.62654,-3.3097,-7.5048,0.34728,-0.64477,0.29596,13.14,11.88,29.94
2.2201,-2.9965,-8.6762,0.32865,-0.48503,0.20128,13.26,12.06,29.94
5.7205,-2.6696,-9.8611,0.14569,-0.10171,0.11026,13.56,12.18,29.94
6.5241,-3.1327,-8.1041,0.096517,-0.14936,0.14936,13.8,12.48,29.76
4.2904,-2.2474,-7.641,0.10996,-0.10873,0.26725,14.04,12.66,29.7
5.4481,-3.3642,-8.2267,0.098655,-0.17013,0.21441,14.16,12.66,29.76
6.4697,-4.7399,-8.4174,0.074526,-0.36866,0.31093,14.28,12.84,29.82
1.0215,-1.2258,-8.2812,0.18692,-0.16554,0.31551,14.4,13.02,29.82
7.069,-2.833,-10.065,-0.030543,0.12828,0.21808,14.88,13.26,29.82
6.0747,-4.304,-8.1722,0.049786,-0.31215,0.36744,14.82,13.5,29.82
3.1327,-3.7184,-7.8045,0.000305,-0.25504,0.31857,15.06,13.68,29.82
4.5083,-3.4187,-6.2517,0.07086,0.077274,0.21686,15.18,13.74,29.82
4.2768,-2.4653,-9.2755,0.19028,0.1967,0.1741,15.42,13.98,30.0
7.0962,-1.3893,-8.8941,-0.0058032,0.10446,-0.067501,15.6,14.04,29.94
4.2495,-3.3778,-7.355,0.021991,-0.29505,0.086437,15.54,14.28,29.88
5.3664,-4.9306,-6.8647,-0.21502,-0.1912,-0.15088,15.6,14.58,29.88
4.5492,-3.5958,-8.4582,-0.11576,-0.14691,-0.076358,15.9,14.46,29.88
5.9112,-3.5277,-8.7987,-0.32651,0.15211,-0.24893,15.78,14.34,29.94
4.4675,-2.7104,-7.3822,-0.20861,0.18082,-0.074526,15.96,14.34,29.76
5.0668,-1.3484,-8.6217,-0.1463,0.38393,-0.11851,15.96,14.28,30.06
5.3937,-4.5764,-8.2539,-0.22663,0.076664,-0.12523,15.9,14.4,30.0
4.018,-3.514,-8.2948,-0.076358,-0.075136,-0.12065,15.84,14.16,30.06
3.8001,-3.1054,-7.7227,-0.081245,0.014355,-0.16432,15.78,13.98,30.24
5.4209,-1.4165,-9.1256,-0.089492,0.18143,-0.22663,16.08,13.92,30.24
3.9908,-1.6753,-7.3686,-0.05284,0.18112,-0.21197,15.96,13.92,30.42
3.8546,-1.9341,-7.3822,0.0281,0.26359,-0.03207,15.96,13.92,30.42
7.3822,-5.38,-9.0575,-0.21533,-0.040623,-0.12095,15.78,13.68,30.36
4.4811,-6.0883,-8.431,-0.12737,-0.18754,-0.039095,15.48,13.56,30.66
3.8682,-3.732,-7.5184,-0.17593,0.23824,-0.32559,15.42,13.5,30.42
3.3915,-0.14982,-7.5184,-0.025351,0.65485,-0.21655,15.72,13.14,30.72
8.6762,-2.0975,-8.5263,-0.11637,0.69639,-0.1576,15.48,13.08,30.54
5.2711,-5.1213,-6.6467,-0.1182,0.208,-0.23243,15.18,12.9,30.42
5.3119,-5.094,-7.0009,-0.018937,-0.12767,-0.13317,14.82,12.78,30.3
2.2746,-3.6639,-7.7636,0.11881,0.069333,-0.021686,14.46,12.54,30.12
3.4459,-2.5742,-9.398,-0.13622,0.38057,-0.1573,14.46,12.54,30.12
6.674,-3.2144,-7.7091,-0.095295,0.38057,-0.30849,14.1,12.54,30.12
4.2632,-3.0782,-8.0224,-0.0097738,0.37904,-0.1967,13.8,12.66,30.18
6.0611,-5.0259,-6.1564,-0.14844,-0.047037,-0.41539,13.08,12.54,30.24
0.8036,-2.7104,-8.4855,0.041233,-0.079718,-0.074526,12.42,12.54,29.94
5.7886,-2.6696,-9.0984,-0.1854,0.25259,-0.090408,12.12,12.54,29.94
5.9249,-1.8251,-10.079,-0.087659,0.2645,0.035736,11.76,12.48,30.18
6.8647,-2.5061,-8.717,-0.16066,0.14294,-0.11179,11.7,12.48,30.12
2.2201,-3.0646,-6.9055,0.096517,0.01405,0.11148,11.28,12.72,30.18
2.5061,-2.547,-8.717,0.043066,-0.0018326,0.19303,10.86,12.9,30.12
5.4754,-3.4459,-8.8532,0.14813,0.052534,0.2978,10.86,12.96,30.18
5.1485,-2.4108,-8.1177,0.13103,0.23702,0.14722,10.62,13.02,30.0
4.5083,-2.0294,-7.4503,0.19181,0.23915,0.17593,10.68,13.2,30.0
6.3743,-3.8682,-8.145,0.082772,0.016188,0.21869,10.62,13.26,29.76
6.3471,-5.6524,-8.322,0.06689,-0.20739,0.1744,10.62,13.5,29.94
4.9169,-3.0918,-8.7851,-0.013439,-0.10782,0.063225,10.68,13.5,29.64
1.0079,2.1248,-8.7715,0.14264,0.2865,0.075442,10.44,13.74,29.34
2.1656,2.1929,-9.7658,0.04215,0.24374,0.34972,10.44,13.74,29.34
9.0712,-6.0611,-9.4798,-0.096211,-0.079412,0.48594,10.5,13.74,28.98
3.8137,-4.9987,-8.5808,0.043371,-0.46823,0.49816,10.5,13.8,28.8
1.471,-1.9613,-8.0905,-0.0015272,-0.12309,0.42699,10.44,13.74,28.5
5.9249,-2.5606,-9.5751,0.025045,0.076969,0.5342,10.56,13.56,28.38
6.4016,-4.7671,-7.8181,-0.065363,-0.000611,0.49755,10.56,13.68,28.26
2.2474,-2.5742,-6.9191,0.047647,-0.042455,0.50763,10.68,13.86,28.26
7.6002,-4.3858,-7.5321,-0.13195,-0.052534,0.36682,10.8,14.04,27.9
3.7047,-2.8058,-8.1177,0.082772,-0.33598,0.45021,11.1,14.22,27.84
4.522,-3.2825,-8.54,-0.028711,-0.1912,0.28375,11.4,14.34,27.9
4.9987,-2.8603,-8.0769,-0.058948,-0.054978,0.23671,11.58,14.46,27.9
6.0066,-3.7184,-8.6353,-0.29199,-0.16463,0.25137,11.7,14.34,28.14
2.2746,-3.5685,-6.8919,-0.19334,-0.18204,0.41936,11.94,14.4,28.2
2.833,-2.3291,-8.1177,-0.20036,0.10782,0.41142,12.12,14.46,28.08
6.1292,-4.6582,-8.2812,-0.22327,0.080634,0.3708,12.3,14.46,28.2
4.0725,-0.7355,-9.112,-0.047342,0.093768,0.39431,12.66,14.28,28.38
5.7478,-1.58,-8.322,-0.14691,0.11362,0.21258,12.78,14.28,28.56
4.6173,-6.3879,-6.8374,-0.12492,-0.33048,0.33964,12.72,14.04,28.98
3.3506,-3.2825,-6.6331,-0.10568,-0.24648,0.023824,12.84,13.8,29.04
3.9227,-1.9205,-6.8102,-0.058948,0.075442,-0.026267,13.02,13.62,29.04
5.6524,-2.6968,-8.2812,-0.17501,0.12462,-0.10843,13.08,13.62,29.22
4.3585,-5.0123,-7.0145,-0.28253,-0.17715,-0.18662,13.08,13.74,29.52
2.6968,-3.8273,-7.0281,-0.20189,-0.0045815,-0.047953,13.14,13.68,29.52
5.1485,-2.0431,-8.1313,-0.25351,0.28711,-0.19823,13.26,13.44,30.0
6.7693,-3.0101,-9.6023,-0.26634,0.08491,-0.087965,13.08,13.26,30.3
3.4323,-2.7922,-7.7227,-0.15791,-0.028711,-0.078191,13.2,12.9,30.24
5.0531,-2.3018,-7.8998,-0.23518,0.22999,-0.21258,13.02,12.9,30.24
5.3528,-3.7184,-8.1177,-0.2416,-0.032376,-0.26756,13.2,12.78,30.3
4.6854,-2.6696,-9.1256,-0.13897,-0.095906,-0.14844,13.26,12.72,30.24
5.0668,-3.3778,-8.1858,-0.14325,0.057421,-0.23946,13.08,12.48,30.48
5.2575,-2.9148,-8.9213,-0.17837,0.12675,-0.21869,13.14,12.18,30.6
5.4345,-3.2689,-7.8589,-0.20495,0.073609,-0.25504,13.32,12.12,30.66
3.7047,-4.0316,-7.4503,-0.045204,0.12126,-0.076358,13.26,11.88,30.78
6.3879,-3.9635,-7.0553,-0.25229,0.085827,-0.31398,13.14,11.76,30.66
3.051,-2.1929,-7.4231,-0.039401,0.20556,-0.086437,13.08,11.7,30.78
5.203,-1.9341,-6.7421,-0.11301,0.4725,-0.17471,12.78,11.94,30.9
6.3879,-3.8682,-7.927,-0.051924,0.40348,-0.10079,12.54,11.64,30.9
7.8862,-5.1757,-8.0088,-0.20372,-0.32773,-0.27764,12.42,11.64,31.2
2.833,-4.6445,-6.6195,-0.043371,-0.32681,-0.17379,12.3,11.64,31.2
1.1169,-2.4108,-7.3141,-0.1408,0.20006,-0.31887,12.12,11.64,31.32
6.3879,-2.2201,-9.3572,-0.27886,0.062308,-0.20953,11.94,11.64,31.44
3.8409,-3.5413,-8.8396,-0.081551,-0.044288,-0.11637,11.76,11.52,31.5
4.0861,-2.6832,-8.2403,-0.090713,0.083994,-0.14447,11.64,11.4,31.38
4.2087,-2.7377,-9.2482,-0.053451,0.025962,-0.028711,11.52,11.52,31.32
4.9306,-3.3778,-8.6217,-0.020769,-0.093157,-0.055283,11.4,11.16,31.2
3.1735,-2.1384,-7.927,0.12584,0.12737,0.010385,11.34,10.98,31.14
6.0338,-2.6015,-8.6898,-0.0064141,0.23305,0.087659,11.28,10.92,30.9
6.2926,-3.8273,-7.4503,-0.021686,-0.059559,0.13011,11.16,10.92,30.66
3.0101,-2.8603,-7.246,0.13103,0.0085521,0.21564,11.16,10.8,30.6
4.9442,-2.547,-6.3743,-0.010079,0.08491,0.17532,10.92,10.86,30.24
5.1485,-1.2258,-8.7715,0.092852,0.096211,0.24068,10.98,10.86,30.12
6.6059,-2.3018,-8.5808,-0.000916,-0.11729,0.12278,10.98,10.86,29.94
3.0646,-1.9341,-8.7715,0.03207,-0.073915,0.22419,10.98,10.92,29.7
5.1894,-2.9011,-9.7385,-0.10843,-0.093768,0.22724,10.98,11.04,29.46
4.127,-2.6968,-10.12,-0.081551,-0.072082,0.39248,11.16,10.92,29.34
3.5413,-1.7025,-9.4117,-0.095906,0.18479,0.3598,11.22,11.04,29.22
4.1814,-1.9886,-8.9213,-0.11484,0.24038,0.42302,11.28,11.1,29.22
5.3256,-3.5685,-9.1529,-0.11729,-0.053756,0.45937,11.34,11.16,29.22
3.228,-2.7241,-8.4174,0.061392,0.074831,0.44563,11.46,11.22,29.34
6.6876,-4.808,-8.6762,-0.093157,-0.090408,0.39126,11.52,11.16,29.28
4.2359,-2.547,-9.2482,0.033598,0.042455,0.38882,11.76,11.16,29.34
6.4833,-4.7263,-7.9815,-0.022297,-0.019548,0.21716,11.82,11.22,29.46
4.2223,-3.514,-7.355,0.12401,-0.025351,0.28894,11.88,11.22,29.28
5.0395,-2.833,-8.2539,0.022297,0.1408,0.18418,12.18,11.28,29.4
5.2847,-3.4459,-8.4719,0.0051924,0.043677,0.23915,12.18,11.22,29.4
4.3449,-3.0646,-8.7851,-0.016493,0.013134,0.19975,12.24,11.34,29.58
4.0589,-2.8194,-6.9464,-0.038179,0.029322,0.20525,12.18,11.4,29.64
4.3177,-2.5198,-8.1586,-0.049786,0.057727,0.21747,12.12,11.4,29.7
7.927,-3.9771,-8.6353,-0.20831,-0.026573,0.085216,12.18,11.4,29.76
4.7944,-4.2904,-7.641,-0.072693,-0.16341,0.19212,12.0,11.52,29.76
5.1485,-1.2939,-7.5593,-0.12126,0.16677,0.055283,12.0,11.58,29.88
6.3471,-3.1735,-7.6002,-0.14447,-0.040317,0.12492,12.12,11.7,29.94
4.4675,-3.3642,-7.9815,-0.22358,-0.219,0.094073,12.0,11.64,30.06
4.3585,-2.547,-8.3493,-0.21564,-0.10629,0.1182,12.06,11.52,30.06
5.7614,-2.6968,-8.5808,-0.24587,-0.035736,-0.021075,12.12,11.4,30.18
4.413,-1.2395,-8.4446,-0.076969,0.064446,0.073609,12.06,11.34,30.3
7.1507,-3.7184,-8.4446,-0.21869,0.019548,-0.11301,12.0,11.28,30.36
4.5628,-4.018,-7.3414,0.022297,-0.19334,0.060476,12.12,11.16,30.3
6.6604,-2.2201,-8.1858,-0.14966,0.089186,-0.20403,12.3,11.1,30.42
5.5299,-4.4947,-7.7636,-0.037874,-0.23702,0.059254,12.42,11.1,30.42
5.0259,-3.8273,-8.54,-0.036041,-0.2303,-0.044593,12.42,11.1,30.42
4.9033,-2.1656,-8.6353,-0.089492,0.070555,-0.15852,12.6,10.8,30.54
5.8704,-3.337,-8.5127,-0.16005,0.096822,-0.18509,12.78,10.8,30.6
5.2847,-4.0316,-6.3743,-0.10934,-0.012523,-0.20983,12.78,10.74,30.72
7.8589,-3.0373,-8.5536,-0.18998,0.21961,-0.091324,12.72,10.68,30.78
6.7557,-5.6252,-6.9328,-0.17165,-0.043066,-0.15302,12.6,10.8,30.72
3.4868,-1.6889,-7.6546,-0.04948,0.017715,-0.044899,12.42,10.62,30.96
6.5105,-2.9965,-6.5105,-0.17685,0.18998,-0.25137,12.48,10.62,31.08
6.1019,-4.4811,-5.7342,-0.057727,-0.28588,-0.06017,12.42,10.5,31.14
6.1564,-4.1678,-7.6683,-0.19578,-0.39095,-0.30299,12.3,10.44,31.32
2.8058,-2.4789,-7.2052,0.039401,-0.081856,-0.25015,12.12,10.44,31.32
7.9951,-2.2882,-9.0303,-0.091935,0.028405,-0.24007,11.94,10.38,31.5
6.8102,-5.884,-7.2596,-0.076969,-0.20922,-0.27,11.94,10.44,31.62
2.7786,-2.9284,-8.7306,-0.064752,-0.20311,-0.26817,12.0,10.32,31.74
4.304,-1.0351,-8.9622,-0.17196,0.025962,-0.31643,11.88,10.32,31.68
5.1485,-2.5198,-9.1801,-0.13531,-0.15669,-0.12431,11.82,10.32,31.8
6.6331,-4.1814,-8.7306,-0.2587,-0.082772,-0.25534,11.88,10.26,31.8
1.0624,-1.2803,-6.7693,-0.035125,0.0094684,-0.17837,11.94,10.02,31.92
4.4539,-0.58567,-8.717,-0.09163,0.21044,-0.044288,12.06,10.14,31.86
8.5808,-3.7865,-8.9894,-0.078802,-0.090408,0.065668,11.94,10.08,31.8
3.8682,-2.4789,-8.5127,0.078191,-0.18082,0.043677,12.12,10.02,31.8
2.6423,-2.0294,-7.464,0.15211,0.051313,0.013439,12.18,10.02,31.8
5.0804,-2.4653,-8.3765,0.088575,-0.072998,0.10324,12.3,10.02,31.74
4.5492,-1.471,-8.1177,0.26848,-0.026267,0.10354,12.3,9.72,31.5
5.6116,-3.6775,-7.927,0.19456,-0.13744,0.15944,12.3,9.72,31.56
5.3528,-3.7865,-8.4719,0.2868,-0.33414,0.13561,12.36,9.84,31.5
3.0373,-0.53119,-9.616,0.2529,-0.12126,0.15944,12.54,9.84,31.38
5.2983,-2.2474,-9.0167,0.19151,-0.027794,0.21961,12.72,9.72,31.32
4.0589,-3.4051,-8.9486,0.21869,-0.20922,0.26114,12.72,9.96,31.26
4.8216,-3.5822,-7.9815,0.14416,-0.19823,0.17868,12.96,10.32,31.26
4.4402,-0.7355,-9.0984,0.30146,0.049175,0.2025,13.02,10.38,31.02
7.0009,-3.2961,-8.7306,0.074831,0.02474,0.22174,13.14,10.62,31.08
5.094,-3.337,-7.9679,0.24374,-0.25687,0.33934,13.14,10.68,30.9
6.851,-5.8023,-7.8589,-0.034514,-0.25015,0.19426,13.32,10.98,30.78
2.6696,-4.0316,-6.9872,0.24312,-0.39126,0.28191,13.56,11.16,30.78
5.884,-3.2008,-7.6819,0.066279,0.22113,0.027794,13.68,11.82,30.72
4.7671,-3.2553,-7.75,0.080023,0.16127,0.12492,13.68,11.94,30.66
5.9112,-3.4732,-8.5127,0.067195,-0.23915,0.18082,13.92,12.18,30.54
2.9829,-2.9284,-7.6002,0.1124,-0.56077,0.15852,14.16,12.48,30.42
2.5606,-0.92618,-8.6898,0.11362,-0.25626,0.13683,14.22,12.66,30.3
3.8954,-1.0624,-8.54,-0.022297,0.34056,0.20067,14.34,12.66,30.36
7.7091,-4.7399,-7.5865,-0.32193,-0.011301,0.028405,14.46,12.72,30.3
3.5685,-3.3506,-7.5865,-0.14539,-0.31215,0.070555,14.52,12.72,30.42
3.4051,-2.1656,-7.069,-0.17013,-0.18082,0.026267,14.58,12.72,30.3
5.6933,-4.6037,-7.7227,-0.27733,0.17013,-0.069028,14.82,12.66,30.48
5.1485,-3.0782,-7.7636,-0.12339,0.21014,-0.13347,14.82,12.54,30.48
5.0123,-1.5663,-8.4582,-0.09499,0.32681,-0.12675,14.76,12.48,30.66
5.489,-3.5822,-7.641,-0.058338,-0.0051924,-0.26267,15.06,12.18,30.78
5.0259,-3.0646,-7.0826,0.044288,0.01741,-0.36255,15.06,12.12,30.84
4.2904,-2.8058,-6.8238,0.071777,0.13867,-0.36682,14.94,12.06,30.96
6.5378,-3.7456,-8.2403,-0.135,0.35033,-0.36499,14.94,11.94,31.26
5.8704,-3.228,-7.7091,-0.1069,0.22358,-0.42944,14.82,11.7,31.44
4.127,-2.547,-7.6138,-0.022297,0.13836,-0.32101,14.7,11.64,31.56
3.7728,-2.4653,-8.2812,-0.13867,0.21808,-0.2474,14.64,11.52,31.74
4.6718,-3.8818,-8.1858,-0.02138,0.27184,-0.22541,14.4,11.46,31.8
4.8625,-2.0294,-7.9543,-0.0045815,0.76022,-0.22633,14.16,11.34,31.92
4.808,-2.2337,-8.5127,-0.033292,0.79993,-0.18204,13.92,11.22,32.1
7.7364,-3.7047,-8.0496,-0.1127,0.3488,-0.34697,13.74,11.22,32.16
3.2144,-3.8954,-6.0338,0.10507,0.16432,-0.10354,13.38,11.46,32.34
8.0632,-3.8273,-6.565,-0.18509,-0.14936,-0.31215,13.14,11.52,32.4
2.438,-2.9965,-7.1371,0.031154,-0.12431,-0.021686,12.6,11.82,32.52
5.6933,0.10896,-8.6217,-0.03543,0.21105,-0.33506,12.3,11.88,32.64
6.4016,-3.6094,-6.96,-0.028711,0.18937,0.21838,12.06,12.0,32.64
5.4209,-4.2223,-8.6489,-0.10568,-0.14569,-0.11209,11.76,12.06,32.76
3.9635,-5.3256,-6.2654,-0.020159,-0.14905,-0.11729,11.4,12.48,32.52
2.3018,-3.1191,-7.3822,0.0956,-0.078496,0.0042761,11.28,12.54,32.4
6.8919,-2.3836,-8.322,-0.22205,0.31643,-0.46456,10.86,12.54,32.34
6.0883,-2.7649,-8.0088,-0.078802,0.13775,-0.16646,10.86,12.54,32.34
5.7478,-3.1463,-7.4912,-0.16982,0.072998,-0.343,10.8,12.66,32.16
4.0316,-1.9205,-8.1041,-0.083689,-0.05681,-0.078802,10.5,12.72,31.86
7.0281,-3.337,-10.093,-0.29352,-0.058948,-0.023824,10.38,12.72,31.74
6.1836,-3.0237,-8.9077,-0.11087,0.0097738,-0.051924,10.32,12.54,31.68
5.38,-0.61292,-8.8805,-0.10751,0.18112,0.072998,10.14,12.36,31.5
7.1234,-3.8818,-8.0496,-0.038179,-0.063835,0.22205,10.14,12.3,31.32
6.3335,-4.0861,-8.6353,-0.027794,-0.29841,0.080329,10.08,12.12,31.14
2.7513,-2.4108,-6.0611,0.23763,-0.065057,0.18143,10.14,11.82,31.14
4.6037,-0.89894,-8.0088,0.12095,-0.028405,0.13195,10.2,11.82,31.08
8.3629,-3.3506,-9.0303,0.0097738,-0.2135,0.12492,10.14,11.88,31.08
2.8875,-1.5391,-7.464,0.29993,-0.15913,0.14325,10.32,11.88,30.96
5.4618,-0.95342,-8.7034,0.1518,-0.13928,0.074831,10.38,11.88,30.9
6.1836,-2.5879,-8.1177,0.24251,-0.43768,0.3149,10.32,11.94,30.78
6.0883,-2.6832,-9.3163,0.12706,-0.22633,0.16127,10.62,11.88,30.78
4.6309,-3.623,-7.5593,0.11759,-0.24221,0.14386,10.74,11.82,30.66
2.7649,-1.2531,-9.0848,0.16127,-0.16493,0.20036,10.92,12.0,30.66
5.3256,-3.514,-8.7443,0.036346,-0.26389,0.28069,11.22,12.18,30.48
4.8625,-4.5356,-7.5865,0.0088575,-0.24618,0.1744,11.34,12.3,30.6
4.1678,-3.8273,-7.0553,-0.0064141,-0.20128,0.1463,11.52,12.36,30.66
5.3528,-2.1248,-8.431,0.010996,-0.11545,0.25443,11.7,12.66,30.36
7.1098,-3.8546,-8.9213,-0.088881,-0.23763,0.21716,11.76,12.6,30.36
4.8897,-3.8954,-7.6683,0.046731,-0.27397,0.22419,11.94,12.72,30.18
4.4402,-3.3915,-6.1019,0.064752,-0.16738,0.1576,12.24,13.02,30.36
4.5492,-2.9829,-7.3141,0.01069,-0.13897,0.080634,12.3,13.14,30.36
6.8374,-4.1133,-8.6625,-0.096211,-0.3207,0.050396,12.54,12.96,30.48
2.3972,-3.6094,-6.9328,-0.076664,-0.33781,0.0094684,13.02,12.96,30.3
2.9284,-0.49033,-7.641,0.01405,0.029627,-0.018021,13.14,12.96,30.36
5.8976,-1.6344,-8.3493,-0.10568,0.14111,-0.0067195,13.32,12.9,30.36
6.17,-5.2575,-7.7364,-0.14813,-0.17104,0.014661,13.68,12.84,30.6
3.8273,-4.6718,-7.5457,-0.069333,-0.16341,0.051618,13.74,12.78,30.54
2.8194,-2.8603,-7.5048,-0.010996,-0.014355,0.022907,13.92,12.84,30.6
5.1485,-2.6696,-8.5944,-0.087659,0.17929,0.002138,14.1,12.9,30.72
3.9908,-2.9556,-7.3822,0.0094684,0.16005,0.073304,14.1,13.02,30.66
4.3858,-2.5879,-7.6955,-0.071777,0.12828,-0.027794,14.1,12.9,30.84
5.5707,-3.2553,-8.5944,-0.073915,0.017104,-0.039401,14.28,12.66,30.78
6.3335,-4.2223,-9.1256,-0.18631,-0.041233,-0.13958,14.46,12.66,30.78
4.8897,-4.3177,-7.5048,-0.1182,-0.0048869,-0.12065,14.52,12.78,30.78
7.2324,-3.6366,-8.7715,-0.22938,-0.057116,-0.20617,14.22,12.78,30.9
7.2324,-3.6366,-8.7715,-0.22938,-0.057116,-0.20617,14.22,12.78,30.9
4.9306,-3.8137,-8.1722,-0.16188,-0.09896,-0.14203,14.16,12.66,30.9
3.9635,-2.6968,-7.6683,-0.16585,0.000611,-0.21991,14.04,12.66,30.84
5.0123,-2.2474,-9.4389,-0.1237,0.11881,-0.045204,14.16,12.6,30.78
7.9951,-2.547,-10.174,-0.30727,0.12278,-0.19914,14.1,12.48,30.78
3.6775,-1.0215,-7.8317,-0.0039706,0.27031,0.092241,13.98,12.3,30.84
7.2869,-2.8194,-7.7908,-0.21686,0.3091,-0.24954,13.98,11.94,31.02
4.5764,-3.623,-7.1507,0.029932,0.014355,0.10415,13.92,11.94,30.96
5.2166,-2.6423,-8.5536,-0.048258,0.18723,-0.13928,13.74,11.94,30.9
5.6661,-3.9227,-7.4503,-0.087354,0.083994,-0.13989,13.62,11.88,30.96
4.6718,-1.362,-7.9951,-0.044899,0.22633,-0.12737,13.44,11.76,31.14
3.3234,-3.6639,-6.6331,-0.12798,0.030849,-0.2251,13.5,11.76,31.2
3.0782,-2.6287,-8.0088,-0.032681,0.0036652,-0.10873,13.5,11.82,31.14
5.993,-6.6331,-7.1915,-0.19884,-0.31368,-0.27611,13.32,11.76,31.2
1.1986,-4.1542,-5.8567,0.1689,-0.12401,0.071777,13.26,11.64,31.2
2.7513,-0.44947,-8.0769,0.02474,0.27947,-0.36041,13.26,11.7,31.32
9.221,-5.4481,-9.5751,-0.002138,0.061697,-0.08827,13.02,11.7,31.44
5.3664,-5.8295,-7.9815,0.077274,-0.32926,-0.16616,12.84,11.7,31.44
2.0294,-1.6072,-6.6195,0.1854,0.1124,-0.20128,12.84,11.76,31.32
4.9169,-0.74912,-8.4855,0.16066,0.34025,0.054367,12.66,11.94,31.26
7.4367,-2.833,-8.4446,0.063835,0.20036,0.002138,12.6,11.88,31.26
6.1155,-3.2553,-8.0224,0.078191,-0.083078,-0.021991,12.48,11.94,31.2
3.3778,-3.2144,-6.6331,0.098655,-0.077885,0.037874,12.3,11.88,31.02
5.094,-2.7922,-8.54,0.038485,0.093768,-0.033292,12.18,11.94,30.96
5.8023,-3.9771,-8.4446,-0.053756,-0.025656,-0.030849,12.06,12.0,30.96
4.9306,-5.2302,-7.5321,0.0024435,0.018021,-0.10568,11.94,12.06,30.84
4.413,-0.85808,-8.3629,-0.063225,0.10599,-0.19395,11.46,12.24,30.72
4.7399,-3.5413,-8.0632,-0.014966,-0.04948,0.064141,11.28,12.24,30.72
5.3119,-4.3858,-8.2267,-0.067501,0.11179,-0.12798,11.28,12.36,30.54
4.2768,-3.8137,-7.4095,-0.05681,0.025962,0.020464,11.4,12.54,30.54
3.8137,-1.6753,-8.2676,0.034819,0.26878,0.041844,11.28,12.6,30.54
6.2245,-0.92618,-9.9565,-0.20433,0.22327,-0.10873,11.22,12.54,30.48
3.4732,-5.1213,-6.4424,0.015272,-0.047647,0.2248,11.16,12.66,30.42
4.0861,-4.3721,-8.0496,-0.096822,0.18357,-0.073304,11.16,12.78,30.36
3.4187,-2.2882,-7.355,0.085216,0.27214,0.065057,11.22,12.96,30.24
3.4187,-2.2882,-7.355,0.21319,0.53267,0.12401,11.04,13.14,30.3
7.8453,-2.261,-8.7034,-0.054978,0.21991,0.10843,11.1,13.2,30.24
5.2847,-7.8045,-6.0747,0.082772,-0.37141,0.22174,10.98,13.2,30.12
1.8932,-1.8932,-7.0145,0.025656,0.09499,-0.098655,11.04,13.38,30.18
5.9385,-3.3506,-8.4991,-0.23518,0.29719,0.11668,11.04,13.62,30.06
6.1973,-3.0237,-8.9213,-0.19761,0.42638,-0.034819,10.86,13.74,29.94
4.9578,-1.7298,-7.5184,-0.21961,0.45204,0.16218,10.56,13.8,30.18
6.2517,-3.7728,-8.6081,-0.21228,0.135,0.26512,10.56,13.86,30.12
5.4073,-3.4187,-8.8668,-0.19456,-0.043371,0.13897,10.44,13.98,30.24
3.1599,-2.0975,-7.7772,-0.049786,0.13592,0.23457,10.08,14.04,30.36
6.674,-2.0294,-9.5206,-0.090713,0.28924,0.23793,9.84,13.92,30.36
6.0747,-3.1599,-8.3357,-0.039706,0.0281,0.17746,9.48,13.92,30.48
6.4288,-3.0918,-8.6081,-0.062003,-0.000916,0.15882,9.3,13.86,30.6
6.1292,-4.3858,-7.4503,-0.040623,-0.10385,0.16646,9.06,13.8,30.66
3.1599,-2.3291,-6.4152,0.1295,0.13958,0.1741,9.0,13.8,30.54
3.4051,0.69464,-6.2926,0.25534,0.49908,0.24496,8.88,13.86,30.48
10.038,-2.2474,-11.564,0.072388,0.42394,0.43707,8.64,13.92,30.54
7.3277,-14.955,-5.4754,-0.36011,-1.387,0.11148,8.64,14.1,30.3
-1.7025,-5.1894,-4.7944,0.17807,-0.7477,0.37507,8.7,14.04,30.3
0.1362,3.1599,-6.9736,-0.11881,0.86285,-0.4777,8.58,14.28,30.54
13.934,-5.1076,-10.147,-0.66615,0.30299,0.26481,8.4,14.34,30.48
10.025,-8.3901,-6.8374,0.085521,-0.29291,-0.055283,8.46,14.28,30.54
5.1349,-3.2144,-6.456,-0.37354,-0.15119,-0.31612,8.34,14.34,30.6
1.4301,-1.58,-3.4187,0.51649,0.47403,0.12187,8.4,14.4,30.72
-4.4811,7.5048,-6.0611,0.76816,0.82589,-0.029627,8.16,14.46,30.96
17.23,-13.021,-13.184,-1.3408,-0.23763,0.25717,7.62,14.52,31.32
9.4934,-11.741,-7.1643,-0.0088575,-1.678,0.43005,7.56,14.4,31.32
-4.4266,2.6696,-4.9578,0.22022,-0.42333,-0.79871,7.56,14.34,31.32
5.7614,-4.8625,-10.106,-0.63347,0.35125,0.87293,7.56,14.46,31.5
14.124,-4.3585,-12.531,-0.66279,-0.062614,-0.82436,7.44,14.22,31.62
5.4618,-4.5492,-6.7012,0.13775,0.43066,0.2697,7.44,14.16,31.8
0.9398,-0.23155,-6.8647,0.05284,0.70524,0.087354,7.32,13.86,31.8
11.931,-1.7025,-10.215,-0.36408,-0.36163,-0.24343,7.44,13.62,31.68
5.8567,-7.8862,-6.8919,-0.01741,-0.78069,0.72174,7.44,13.56,31.86
0.49033,-4.6854,-7.4912,-0.029322,-0.16585,0.0039706,7.5,13.38,31.92
6.6195,-4.6445,-8.4174,-0.10812,0.42272,0.19212,7.2,13.32,31.86
6.1973,-0.7355,-7.9679,0.11118,0.29993,0.0054978,7.2,13.14,31.8
3.6775,2.152,-7.8998,0.15211,0.38576,0.2416,7.44,12.9,31.62
6.5378,-2.0703,-6.9872,0.21808,-0.16188,0.4777,7.5,13.02,31.8
2.6423,-10.665,-1.9068,0.66004,-0.21075,0.84238,7.44,13.02,31.98
5.4754,4.9169,-13.266,0.18418,0.35858,-0.42913,7.02,12.96,32.04
14.192,3.4323,-13.198,-0.45051,0.31398,-0.062919,6.9,12.78,32.04
3.4868,-5.8704,-2.7649,-0.18173,0.22999,0.12187,6.3,12.6,31.98
-0.57205,-5.9657,-3.4596,-0.22541,-0.56902,0.12248,6.24,12.72,31.98
5.094,-6.2654,-7.4912,-0.48839,-0.24343,-0.13378,6.24,12.72,32.04
4.8352,-3.0101,-10.733,-0.25748,-0.36011,0.084605,6.06,12.54,31.98
4.2904,-1.6208,-9.1256,-0.30727,0.43433,0.058948,5.88,12.42,31.92
6.7557,-5.775,-8.6081,-0.23824,0.39859,0.21716,5.82,11.82,31.98
14.492,-15.01,-13.784,-0.75411,-0.95967,-0.060476,5.94,11.76,31.86
3.8546,-9.9565,-1.3484,0.26267,-0.49327,-0.20097,6.06,11.58,31.8
-5.8023,2.7649,-1.0624,0.90775,0.95112,-0.31368,6.06,11.22,31.68
-0.49033,11.577,-9.7794,1.0684,1.8845,1.0825,5.82,10.8,31.86
16.549,-8.9349,-8.3493,-0.93249,1.5247,1.0705,5.76,10.5,31.74
-1.4301,2.6287,-5.4073,0.90378,-0.69028,0.85368,5.76,10.32,31.62
-1.3212,-0.55843,-3.4187,0.47831,-0.96089,0.21075,5.82,10.38,31.62
1.5663,-10.815,-4.7671,-0.66829,-0.47831,1.4612,5.94,10.32,31.38
15.473,-16.998,-13.457,-0.92424,-2.1386,-1.1884,6.06,10.32,31.32
-6.4424,-3.0782,-4.304,-0.08491,0.6295,-0.20678,6.3,10.38,31.14
-0.99429,11.387,-11.291,-0.63988,0.94226,-1.2446,6.54,10.62,31.02
16.29,-5.0259,-8.1586,-1.0751,1.3952,-0.11026,6.66,10.74,30.96
5.3256,-0.35413,-10.338,-0.090713,-0.33934,0.81795,6.48,10.56,30.66
2.9284,-3.2553,-7.9679,-0.093768,-0.76847,-0.027184,6.42,10.68,30.66
1.0624,-3.7184,-6.6195,0.10476,0.082467,0.77916,6.48,10.8,30.6
8.9894,-1.3348,-11.441,-0.3317,0.0036652,-0.10629,6.9,10.8,30.18
8.6762,-8.1313,-9.7385,-0.34728,-0.061087,0.24282,7.02,10.74,30.06
5.0668,-5.6524,-3.4732,0.23121,0.10568,0.22907,7.38,10.68,30.06
-2.4108,-4.6718,-2.2474,0.6353,0.37415,0.71502,7.86,10.68,29.88
4.018,0.34051,-9.9837,0.30421,-0.030543,-0.17349,7.8,10.56,29.94
11.782,0.068102,-12.463,0.15363,-0.10415,-0.4047,7.68,10.44,29.82
6.9328,-1.0624,-7.5457,0.41447,0.18051,0.19151,7.62,10.5,29.7
5.489,-0.19068,-7.355,-0.032681,0.23335,-0.26878,7.44,10.5,29.64
10.583,-3.0237,-8.8805,-0.51099,-0.30055,-0.39676,7.44,10.56,29.58
9.0031,-4.413,-9.1665,-1.1878,-1.0229,-0.40317,7.74,10.92,29.64
1.7025,-8.9077,-2.2065,-1.1069,-0.59987,-0.40745,7.74,10.92,29.4
-3.5413,-7.3141,-0.99429,-0.57391,0.062919,0.79077,7.92,10.74,29.34
13.729,-5.6797,-15.064,-1.1689,0.12034,-0.48564,8.16,10.62,29.34
10.256,-1.7298,-11.986,-0.551,0.017715,-0.096517,8.34,10.68,29.4
1.9341,1.9886,-7.9951,0.051924,0.62919,0.55741,8.52,10.68,29.46
8.1858,-1.4438,-10.283,0.061697,0.49847,0.36957,8.46,10.08,29.58
7.6819,-4.7944,-8.3901,0.44746,-0.20403,0.38026,8.52,9.9,29.7
2.3018,-3.051,-6.5786,0.6295,-0.061087,0.46181,8.64,9.84,29.76
1.7979,-0.89894,-5.9657,0.50793,0.18876,0.20159,8.7,9.78,30.06
7.1507,-1.7979,-7.5593,0.21625,0.10293,0.18692,8.88,9.48,30.24
10.161,-4.1814,-7.5865,-0.043982,-0.2868,-0.11668,9.0,9.48,30.3
2.5061,-0.76274,-6.6467,-0.013744,0.040012,0.065057,9.12,9.3,30.6
7.2052,-2.1384,-7.8998,-0.43371,0.35216,-0.10263,9.12,9.3,30.72
9.0848,-4.7671,-7.7091,-0.48045,0.043066,-0.10812,8.94,9.36,30.78
4.8897,-5.3392,-7.6683,-0.36927,-0.12248,-0.10751,8.94,9.3,30.9
6.0474,-2.6968,-7.8862,-0.52687,0.20372,-0.25045,8.82,9.42,30.96
5.6524,-3.5822,-7.6683,-0.35094,0.083994,-0.12431,8.64,9.36,30.96
5.4345,-2.2882,-7.6002,-0.23488,0.15821,-0.21747,8.52,9.72,31.14
5.9385,-4.2223,-6.9736,-0.02138,-0.22174,-0.10049,8.58,9.96,31.14
5.4481,-3.0782,-6.9328,0.036041,-0.17104,-0.20678,8.52,9.84,31.14
5.1076,-2.6423,-6.565,0.18326,-0.18265,-0.10873,8.46,9.72,31.08
5.5026,-2.8875,-7.9951,0.085827,-0.048869,-0.11118,8.34,9.48,31.26
8.4174,-3.1191,-9.7385,-0.14478,-0.010079,-0.35919,8.22,9.42,31.26
5.3119,-4.127,-7.1098,0.079718,-0.22205,-0.057727,8.34,9.18,31.2
4.5901,-1.0079,-7.3822,-0.19639,0.35583,-0.36805,8.28,9.18,31.38
6.6195,-2.0839,-7.6274,-0.23152,0.10476,-0.0076358,8.46,9.24,31.44
6.4288,-4.0452,-7.4776,-0.21747,-0.17196,0.03146,8.4,9.12,31.44
5.8295,-4.3177,-7.5457,-0.29352,0.07086,-0.18204,8.46,9.24,31.38
5.1621,-1.3757,-7.1779,-0.25412,0.061697,-0.21533,8.46,9.12,31.32
5.2847,-1.9341,-7.7091,-0.28466,-0.0073304,-0.11881,8.58,9.06,31.32
6.8374,-3.2825,-8.6081,-0.32406,-0.17013,-0.23793,8.7,8.76,31.38
4.0861,-2.1929,-7.927,-0.12828,-0.044899,-0.10079,8.64,8.76,31.44
3.2144,-0.89894,-8.145,-0.18112,0.14294,-0.1576,8.64,8.7,31.5
6.1155,-1.3484,-8.9349,-0.10507,0.16218,-0.091324,8.7,8.58,31.56
5.0531,-0.61292,-8.7034,0.10049,0.05681,-0.045204,8.76,8.22,31.62
7.0145,-1.2395,-7.9951,-0.0073304,0.12675,-0.058338,8.64,8.1,31.68
6.0202,-2.7377,-6.9872,0.034819,-0.17379,-0.051924,8.76,7.86,31.68
5.0531,-0.8036,-7.3141,0.057727,-0.20097,-0.1347,8.7,7.74,31.74
5.203,-0.70826,-8.145,0.012217,-0.14355,-0.011301,8.76,7.68,31.68
7.464,-3.3506,-8.3901,-0.10049,-0.32467,-0.031154,8.64,7.62,31.98
3.9227,-1.0488,-7.4776,0.10385,-0.26206,-0.10201,8.7,7.62,31.98
4.127,-1.5119,-8.0224,0.080023,-0.17959,0.11881,8.7,7.62,32.04
6.3062,-1.5119,-9.4389,0.053145,-0.11057,0.17287,8.76,7.62,32.1
5.7342,-2.1929,-8.0769,0.047342,-0.20128,0.17471,9.0,7.62,32.04
3.4868,-1.7979,-7.7364,0.2813,-0.15149,0.31765,9.12,7.68,31.98
4.2904,-0.89894,-9.1393,0.24251,0.019242,0.32193,9.3,7.98,31.74
6.5786,-2.8603,-9.221,0.20586,-0.22999,0.40195,9.42,8.16,31.74
4.8897,-2.3427,-9.0575,0.29658,-0.18784,0.40775,9.72,8.34,31.62
4.9033,-2.0839,-8.0632,0.19242,-0.065057,0.45693,9.96,8.52,31.62
5.5026,-4.2087,-7.6546,0.15394,-0.15516,0.5791,10.08,8.58,31.56
4.985,-3.6911,-7.927,0.12034,-0.082772,0.42455,10.2,8.58,31.5
4.8625,-2.3836,-7.5865,0.10904,-0.10018,0.41997,10.44,8.82,31.38
5.5435,-2.9556,-8.6217,0.036957,-0.24282,0.39981,10.86,8.88,31.44
5.094,-3.9635,-7.7908,0.0094684,-0.30879,0.31551,10.92,8.88,31.26
5.0259,-3.3097,-7.8589,-0.020159,-0.18631,0.281,11.46,9.18,31.14
5.2438,-2.0567,-8.8941,-0.090103,-0.14264,0.16768,11.52,9.24,31.08
4.8352,-1.975,-8.2539,-0.058948,-0.14752,0.27245,11.7,9.36,31.08
4.3858,-2.0839,-8.5127,-0.097433,-0.04215,0.3207,11.88,9.18,31.14
5.775,-2.0431,-8.9622,-0.10629,-0.10201,0.2813,12.12,9.36,31.14
4.7399,-2.0839,-8.54,0.045204,-0.20006,0.3937,12.18,9.42,31.08
4.5901,-1.9613,-7.9407,0.15638,-0.13531,0.31826,12.24,9.66,30.96
5.4754,-2.7786,-7.7091,0.17929,-0.208,0.16402,12.48,9.48,30.9
5.6933,-2.1248,-8.2812,0.21258,-0.31307,0.20097,12.54,9.6,31.02
6.6876,-2.7786,-8.3493,0.09499,-0.31857,-0.027489,12.6,9.42,31.08
5.5707,-3.4323,-7.5729,0.092546,-0.49297,-0.0067195,12.9,9.6,31.02
4.8761,-2.6968,-7.2324,0.09499,-0.37415,-0.039095,13.14,9.66,31.14
5.4073,-2.0567,-7.7772,0.032987,-0.11942,-0.10568,13.2,9.6,31.14
6.4152,-3.0782,-8.0632,-0.066584,-0.098044,-0.16952,13.32,9.72,31.14
4.5356,-2.2746,-8.2403,-0.11301,-0.27672,-0.1576,13.32,9.72,31.2
4.8761,-1.7706,-8.145,-0.1408,-0.19303,-0.23488,13.5,9.9,31.14
5.6661,-1.6344,-7.9679,-0.14752,-0.055589,-0.2306,13.68,9.9,31.44
6.3879,-4.3177,-8.4719,-0.26909,-0.1912,-0.33567,13.8,9.96,31.5
4.2768,-4.6582,-6.7966,-0.20189,-0.33384,-0.30543,14.04,9.84,31.44
4.2223,-0.76274,-8.1858,-0.080329,0.065973,-0.32345,14.28,9.84,31.56
6.2926,-2.8875,-8.2812,-0.13286,-0.0051924,-0.33659,14.34,9.96,31.68
5.598,-4.1814,-8.0905,-0.052534,-0.083689,-0.24893,14.4,9.96,31.68
4.0589,-3.5413,-6.4833,0.040012,-0.067195,-0.41447,14.52,9.78,31.8
4.9987,-2.7649,-7.3686,0.097433,0.0033598,-0.41142,14.64,9.72,31.74
6.4833,-3.2689,-7.7091,0.012523,-0.086743,-0.55314,14.64,9.6,31.8
5.0531,-3.5549,-7.6002,-0.0036652,0.048869,-0.46792,14.7,9.66,31.92
5.3256,-3.7592,-7.3958,-0.1011,0.21838,-0.51618,14.76,9.54,31.92
5.1485,-4.3449,-7.1643,-0.11148,0.14019,-0.45173,14.64,9.66,31.86
4.9033,-5.0259,-7.246,-0.20189,0.18295,-0.4609,14.76,9.6,31.74
4.2495,-2.8603,-7.4231,-0.1909,0.31582,-0.49663,14.82,9.66,31.92
4.7807,-2.9829,-8.4038,-0.16096,0.33781,-0.38759,14.64,9.78,31.86
4.1678,-4.699,-7.7772,-0.13439,0.1628,-0.41508,14.46,9.66,32.04
2.3291,-1.4165,-8.9213,-0.0082467,0.31979,-0.40378,14.34,9.6,31.92
5.8704,-1.1441,-9.7113,-0.16402,0.28466,-0.44563,14.16,9.6,31.86
5.7069,-2.9556,-8.54,-0.071471,0.14111,-0.27184,13.86,9.6,31.62
4.5764,-2.0839,-8.3765,-0.068111,0.27336,-0.34147,13.68,9.48,31.8
4.5764,-2.0839,-8.3765,-0.022907,0.27611,-0.21044,13.68,9.48,31.8
5.7069,-2.2882,-8.4446,-0.089186,0.219,-0.18143,13.26,9.3,31.8
5.2166,-1.866,-8.4038,-0.080023,0.27122,-0.13195,13.26,9.24,31.68
4.9578,-1.3212,-8.3084,-0.079107,0.30085,-0.13317,12.96,9.18,31.68
7.4095,-3.4323,-8.0632,-0.18448,-0.029322,-0.22938,12.66,8.82,31.62
4.2495,-2.6287,-7.1234,0.022602,-0.04948,-0.16646,12.24,8.58,31.5
2.9284,-0.12258,-8.3765,0.03207,0.20678,-0.16249,12.06,8.52,31.44
7.8181,-3.0237,-8.826,-0.1292,0.073304,-0.13958,11.64,8.46,31.38
2.6968,0.12258,-7.9679,0.11057,0.015577,-0.13867,11.46,8.46,31.38
2.3836,0.70826,-7.464,0.17471,0.29474,-0.11851,11.4,8.4,31.5
6.7421,-3.7456,-8.4582,0.12737,-0.020769,0.074831,11.28,8.52,31.5
6.6195,-3.1191,-8.9622,0.11362,-0.18723,-0.064752,11.04,8.64,31.5
5.3664,-3.5413,-7.5048,0.18326,0.000611,0.025656,10.98,8.58,31.32
4.7535,-0.76274,-9.3572,0.17226,0.15455,0.146,10.8,8.82,31.14
7.0962,-2.3699,-9.3436,0.16799,0.014355,0.21166,10.68,8.76,31.26
5.7069,-2.4517,-8.1586,0.28711,-0.000305,0.22327,10.8,8.82,31.32
5.6252,-2.8194,-7.9679,0.20525,0.059254,0.20708,10.62,9.12,31.14
3.4459,-2.7649,-8.0088,0.40378,-0.10934,0.39615,10.68,9.36,31.14
4.018,-1.3484,-9.6296,0.30971,0.12065,0.32467,10.68,9.54,31.08
4.3721,-2.5742,-7.4776,0.26573,0.28191,0.38637,10.56,9.84,30.9
4.5356,-2.6696,-7.5457,0.13134,0.21166,0.43494,10.56,10.02,30.84
7.2052,-4.6037,-8.4855,0.026573,-0.10537,0.36744,10.5,10.14,30.6
2.4653,-3.9363,-6.8647,0.072388,0.12004,0.49633,10.26,10.38,30.54
5.1076,-3.1872,-7.927,-0.067806,0.28008,0.28191,10.2,10.44,30.36
6.7557,-5.3119,-7.9543,-0.071471,0.067195,0.43219,10.2,10.74,30.3
3.2416,-2.2201,-8.1858,0.061392,0.16188,0.42913,10.08,10.98,29.94
5.3119,-2.656,-7.6683,0.0085521,0.32742,0.33323,9.96,11.1,29.88
5.5843,-3.2144,-8.322,0.050702,0.22083,0.42791,9.9,11.28,29.88
4.5492,-3.7728,-8.0632,0.016493,0.16157,0.40745,9.72,11.52,29.76
3.6911,-4.4402,-8.1041,-0.013134,0.14905,0.51343,9.72,11.64,29.58
4.7399,-4.808,-8.1177,-0.09896,0.23702,0.41966,9.6,11.58,29.46
7.2869,-3.623,-8.5944,-0.15302,0.30696,0.42486,9.78,11.76,29.34
5.6524,-4.3858,-7.3005,0.062003,0.31948,0.54917,9.72,11.76,29.4
3.2553,0.64016,-8.6762,0.018326,0.38026,0.4163,9.66,11.82,29.4
9.4798,-5.6116,-7.9134,-0.17165,0.067806,0.35613,9.36,11.94,29.46
4.3449,-3.8682,-8.1586,0.0030543,-0.4105,0.46242,9.3,11.88,29.46
3.6775,-1.58,-7.8045,-0.077885,0.009163,0.19028,9.36,11.88,29.52
6.9055,-2.1112,-8.9349,-0.082161,0.092852,0.27886,9.06,12.12,29.82
8.2403,-2.2474,-9.3163,-0.27825,-0.18295,0.055894,9.06,12.24,29.76
6.3198,-3.1872,-7.6683,-0.22694,-0.23824,0.15272,8.82,12.12,29.64
6.3198,-1.6072,-7.3141,-0.24496,-0.11668,-0.023518,8.64,12.06,29.76
7.7364,-2.438,-8.5263,-0.26634,-0.26786,0.0042761,8.7,11.94,29.7
6.8374,-3.0646,-7.3822,-0.20556,-0.43677,-0.060476,8.7,11.94,29.82
5.7886,-1.2803,-8.8941,-0.18234,-0.32162,0.01405,8.7,11.88,30.0
7.1234,-2.5742,-8.1313,-0.27519,-0.35277,-0.19426,8.7,11.76,30.0
6.2654,-2.6423,-7.7364,-0.24038,-0.43035,-0.15638,8.82,11.58,30.12
5.1485,-1.5527,-7.6546,-0.18509,-0.22266,-0.24221,9.12,11.52,30.3
8.5263,-4.1133,-7.7227,-0.32467,-0.42028,-0.48167,9.3,11.4,30.3
5.598,-3.5413,-6.6467,-0.19487,-0.44135,-0.33078,9.42,11.22,30.24
5.1485,-2.7513,-5.993,-0.2587,-0.19395,-0.40897,9.96,10.8,30.24
4.9033,-3.0918,-6.7421,-0.16096,-0.061697,-0.29627,10.08,10.68,30.36
7.0826,-1.757,-8.6353,-0.23976,-0.10446,-0.53084,10.32,10.56,30.48
5.9793,-2.438,-7.0281,-0.12675,-0.17807,-0.44074,10.44,10.38,30.66
4.6037,-4.4402,-6.8919,-0.10843,-0.12431,-0.34941,10.98,10.08,30.96
5.4481,-4.8761,-7.2188,-0.1237,-0.17257,-0.46548,11.16,9.9,31.02
4.2087,-3.7047,-6.7285,0.016493,0.010996,-0.38118,11.34,9.72,31.2
5.8567,-2.3018,-8.4719,-0.15882,0.087048,-0.5116,11.58,9.72,31.32
5.0259,-3.5685,-7.1371,-0.014661,-0.058032,-0.32315,11.58,9.66,31.26
4.4811,-3.8546,-7.7636,-0.086437,-0.046731,-0.34514,11.52,9.66,31.14
3.732,-3.2008,-6.8919,-0.086743,0.069028,-0.41783,11.7,9.54,31.44
4.127,-2.5061,-7.2869,-0.15882,0.16799,-0.39034,11.7,9.42,31.62
4.9169,-2.4925,-7.6274,-0.16524,0.19395,-0.39156,11.64,9.18,31.8
5.3119,-2.833,-7.5457,-0.19731,0.041539,-0.39095,11.46,8.88,31.92
3.7456,-0.84446,-8.0769,-0.07025,0.18937,-0.32101,11.4,8.82,32.1
5.0531,-1.362,-8.2676,-0.15608,0.08491,-0.25443,11.34,8.82,32.04
7.2733,-4.6445,-8.6081,-0.12339,-0.19609,-0.20647,11.1,8.82,31.98
4.3858,-2.7649,-8.2539,-0.024129,-0.16524,-0.29016,10.98,8.7,32.34
2.833,-1.5663,-7.5729,0.039095,0.1408,-0.20159,10.92,8.7,32.34
3.9499,-0.35413,-9.3436,0.000611,0.17501,-0.051007,10.86,8.64,32.34
6.851,-2.3427,-8.9894,0.038485,0.071471,-0.024129,10.74,8.4,32.52
4.7399,-1.4574,-7.7364,0.17135,0.097128,-0.056505,10.74,8.1,32.58
4.2904,-1.3076,-7.8862,0.14325,0.0048869,0.084605,10.68,8.04,32.58
6.6467,-3.7728,-7.9543,0.092852,-0.16982,0.081245,10.5,8.22,32.7
3.7865,-1.7298,-8.0224,0.22541,0.000305,0.044899,10.56,8.34,32.52
3.0918,0.068102,-8.3084,0.22663,0.22327,0.099266,10.56,8.58,32.4
7.75,-2.4789,-8.1995,0.17623,-0.135,0.14569,10.38,8.94,32.22
5.8431,-1.8524,-7.8862,0.35125,-0.14233,0.16768,10.38,9.12,32.16
5.0259,-1.4165,-8.2812,0.23579,-0.14416,0.24771,10.38,9.42,32.1
4.2495,-1.3484,-8.717,0.29566,-0.19242,0.27519,10.32,9.48,31.8
5.1213,-1.2258,-9.0439,0.22022,-0.19639,0.26176,10.26,9.54,31.68
3.3778,-1.8251,-7.9543,0.26512,-0.087659,0.38882,10.2,9.84,31.5
5.1213,-1.5119,-9.0575,0.15852,-0.036957,0.30849,10.44,10.08,31.38
5.6661,-2.0294,-8.6762,0.17349,-0.12614,0.40836,10.56,10.5,31.08
3.0237,-3.051,-7.5184,0.21838,-0.041844,0.51435,10.62,10.68,30.96
5.094,-4.3313,-8.1586,0.048869,0.030543,0.3989,10.74,10.98,30.66
5.0668,-4.5356,-8.7443,0.052229,-0.065973,0.45387,10.86,11.04,30.6
4.808,-4.8216,-7.4095,0.11698,-0.05681,0.41172,11.22,11.22,30.6
4.6718,-2.7649,-8.9622,0.1237,0.15211,0.35705,11.34,11.34,30.6
5.8295,-4.2632,-7.8862,0.098044,0.11729,0.24801,11.58,11.34,30.6
4.8761,-4.0589,-7.4503,0.32101,0.16768,0.35339,11.76,11.52,30.42
4.2768,-3.2689,-7.641,0.26206,0.044899,0.30604,11.7,11.7,30.36
4.808,-3.7592,-8.2267,0.30238,-0.0085521,0.34819,12.0,12.06,30.42
5.5026,-2.7649,-8.4174,0.23457,0.058643,0.3146,12.06,12.06,30.36
4.4947,-2.4244,-7.6683,0.2364,0.19884,0.40073,12.3,12.42,30.3
6.17,-2.9011,-8.3901,0.059559,0.13164,0.32132,12.24,12.54,30.54
7.1098,-4.9578,-8.2676,-0.12462,-0.12004,0.23732,12.24,12.54,30.54
4.4402,-5.3392,-7.1507,-0.065363,-0.13073,0.25107,12.42,12.66,30.42
3.3506,-2.8058,-7.1098,-0.086743,0.20861,0.11912,12.3,12.78,30.54
5.8704,-3.5413,-8.036,-0.19578,0.22877,0.16249,12.24,12.9,30.36
5.6388,-2.8058,-8.4719,-0.17868,0.10599,0.054062,12.24,12.9,30.36
5.5162,-4.2223,-7.1915,-0.31093,-0.021075,-0.014355,11.94,12.9,30.54
4.0044,-2.4108,-8.036,-0.11576,0.029627,0.013744,11.94,13.02,30.54
5.0531,-0.6674,-8.322,-0.26481,0.09163,-0.13378,11.88,12.9,30.6
4.7944,-6.0883,-7.355,-0.33323,-0.27886,-0.14478,11.82,12.96,30.6
1.8387,-1.3484,-7.9407,-0.057727,-0.067806,0.0082467,11.7,13.02,30.66
6.4424,-2.0022,-7.7091,-0.19456,0.32193,-0.19914,11.46,13.08,30.54
6.674,-3.228,-8.145,-0.18784,0.016799,-0.13897,11.46,12.96,30.42
4.6445,-2.3018,-7.6955,-0.13836,-0.092852,-0.13286,11.52,12.96,30.6
4.127,-3.3778,-7.4095,-0.16371,-0.16157,-0.07025,11.4,12.84,30.72
4.7671,-2.8603,-7.4367,-0.069944,0.11637,-0.15119,11.34,12.72,30.66
6.3062,-2.7513,-7.927,-0.13195,0.14264,-0.10201,11.28,12.6,30.9
6.4288,-4.6037,-7.7364,-0.2025,-0.03146,-0.15333,11.16,12.54,30.9
4.9033,-2.4925,-7.5321,-0.18662,0.11484,-0.17776,11.16,12.48,30.84
5.5299,-3.6366,-7.1915,-0.25443,0.13378,-0.14416,11.16,12.36,30.9
5.6116,-5.0395,-6.96,-0.21564,0.25809,-0.13256,11.28,12.36,30.9
5.0531,-3.1327,-8.0769,-0.25717,0.43402,-0.25687,11.04,12.24,30.96
4.6854,-3.3778,-7.355,-0.19823,0.36682,-0.064141,10.8,11.94,31.02
5.8567,-3.7865,-8.4446,-0.24923,0.33506,-0.17898,10.8,11.76,31.14
4.3585,-4.2223,-7.3141,-0.20067,0.10537,-0.21075,10.56,11.22,31.44
3.8001,-3.8001,-7.0962,-0.15394,0.11301,-0.10812,10.38,11.04,31.32
5.38,-3.4323,-7.8181,-0.14997,0.32406,-0.17868,10.2,10.86,31.44
5.9249,-4.0589,-7.3141,-0.071777,0.17959,-0.11881,10.14,10.8,31.32
4.8352,-4.7671,-6.7012,-0.0018326,0.25748,-0.091019,9.9,10.62,31.32
6.674,-3.4051,-7.6546,-0.12126,0.13683,-0.25992,9.78,10.38,31.38
4.3721,-3.8954,-7.1234,0.035736,0.084605,-0.048869,9.78,10.26,31.32
5.9657,-2.5061,-8.3629,-0.062308,0.1741,-0.17654,9.6,9.9,31.2
5.7614,-3.8409,-8.1858,-0.096822,0.15821,-0.12614,9.36,9.66,31.14
5.9249,-3.514,-8.1177,-0.15272,0.087354,-0.26267,9.36,9.54,31.08
4.9306,-1.9613,-8.0088,-0.22816,0.067806,-0.18967,9.06,9.42,31.02
4.6445,-2.4517,-8.5127,-0.24648,0.10996,-0.080634,8.76,9.3,30.96
6.1292,-2.6015,-7.7636,-0.36133,0.034514,-0.19059,8.58,9.24,31.02
4.5356,-1.1577,-8.5127,-0.19242,0.031154,0.022907,8.22,9.3,31.02
6.2517,-1.5119,-8.8668,-0.19548,0.084299,0.013744,8.1,9.12,30.96
5.8704,-1.4574,-8.7987,-0.14844,-0.070555,0.12156,8.04,8.94,30.9
6.2517,-1.9886,-8.6217,-0.08094,-0.052229,0.12584,7.86,8.94,30.66
4.5628,-0.9398,-8.4719,-0.02474,-0.036652,0.23702,7.62,8.64,30.6
7.1779,-1.6889,-9.1801,-0.089186,-0.26053,0.17318,7.38,8.58,30.6
3.3778,-1.4574,-7.1915,0.040317,-0.30543,0.12889,7.08,8.46,30.66
5.0259,-1.2939,-8.9349,0.062308,-0.20739,0.24435,7.14,8.58,30.6
6.0611,-2.7104,-7.7091,-0.040623,-0.27336,0.14142,7.14,8.58,30.6
4.4947,-1.2803,-8.4174,0.10049,-0.1124,0.25656,7.26,8.52,30.6
6.5105,-3.3506,-7.7091,-0.013439,-0.17074,0.27367,7.44,8.46,30.66
5.0668,-2.8058,-7.6819,0.099266,-0.25534,0.2022,7.56,8.52,30.72
4.3449,-1.1032,-8.1586,0.13744,-0.16188,0.22174,7.98,8.46,30.48
4.5083,-1.6889,-8.1041,0.22358,0.015882,0.25229,8.22,8.58,30.48
5.993,-3.623,-8.1313,0.18173,-0.094379,0.25931,8.34,8.82,30.66
4.6854,-2.9284,-7.9134,0.19639,-0.19945,0.22022,8.88,9.3,30.66
4.9987,-4.018,-7.8317,0.16249,-0.24465,0.29963,9.0,9.54,30.78
5.6388,-4.3177,-7.4367,0.088575,-0.070555,0.10965,9.48,9.84,30.9
4.9714,-2.7104,-7.5593,0.11851,-0.0036652,0.15119,9.78,9.84,30.84
5.8023,-4.4402,-7.0553,-0.022602,-0.28588,0.17715,9.9,9.9,30.78
3.8273,-3.3915,-7.5457,0.067806,-0.28375,0.23396,10.14,9.9,30.72
5.3256,-2.3972,-8.6489,-0.19334,-0.1295,0.10385,10.32,10.02,30.72
2.3972,-2.9284,-7.0281,0.066584,-0.094379,0.37751,10.5,10.5,30.66
5.775,-1.362,-8.7715,-0.146,0.047037,0.043982,10.68,10.5,30.66
3.7592,-3.9908,-7.1915,-0.12431,-0.16341,0.34331,11.04,10.8,30.72
5.1757,-2.2882,-8.9622,-0.18754,0.063835,0.12981,11.1,10.92,30.72
5.3119,-3.6366,-7.8045,-0.21044,0.042455,0.11729,11.22,10.74,30.66
5.094,-3.3778,-8.2403,-0.11026,0.034208,0.19212,11.28,10.74,30.66
5.775,-3.2689,-7.75,-0.21594,0.018937,0.15638,11.64,10.56,30.66
3.5822,-3.3915,-7.4912,-0.02138,0.034208,0.33567,11.82,10.5,30.54
6.1973,-3.8682,-8.0224,-0.13103,-0.096822,0.045204,11.82,10.68,30.66
4.3177,-2.1929,-8.0496,0.023824,-0.019548,0.15669,11.88,10.68,30.78
5.3664,-1.8796,-8.431,-0.054367,0.035125,0.031154,12.0,10.62,30.9
5.0668,-2.0703,-8.1858,0.023518,-0.10324,0.067501,12.18,10.44,31.08
6.456,-3.4459,-8.4446,-0.17074,-0.25351,-0.043066,12.24,10.26,31.02
3.4459,-2.1929,-7.3414,0.051618,-0.18265,0.076053,12.36,10.32,30.96
7.9951,-3.1191,-8.8532,-0.24435,-0.24526,-0.17226,12.42,10.2,30.96
5.1076,-2.8467,-7.2596,0.0061087,-0.27153,-0.053756,12.3,10.14,30.96
5.0531,-0.64016,-8.1995,-0.11515,-0.099266,-0.26481,12.24,10.2,30.96
7.1098,-3.1463,-8.2131,-0.17104,-0.46395,-0.18967,12.42,9.9,31.14
4.5356,-1.8251,-8.1041,-0.066279,-0.42058,-0.17746,12.42,9.78,31.14
5.6933,0.054481,-8.0905,-0.15302,-0.13317,-0.40867,12.36,9.72,31.2
6.4424,-3.9227,-7.3822,-0.1854,-0.40348,-0.28802,12.6,9.48,31.32
5.9657,-3.0237,-7.8045,-0.19975,-0.44349,-0.35155,12.78,9.36,31.26
5.1076,-2.3155,-7.4367,-0.16402,-0.39828,-0.44166,12.66,9.3,31.26
5.6661,-1.7162,-7.8181,-0.13195,-0.11759,-0.35186,12.96,9.18,31.2
6.674,-0.65378,-7.8589,-0.072082,-0.0045815,-0.46517,13.08,9.06,31.32
6.5105,-2.5742,-7.1643,-0.057116,-0.27306,-0.32284,13.26,9.0,31.38
5.8295,-4.3721,-7.4231,-0.13561,-0.43035,-0.50244,13.32,9.0,31.56
4.6037,-4.0316,-7.0009,-0.076358,-0.27947,-0.36408,13.56,9.0,31.74
3.5413,-2.8194,-7.0553,-0.096211,0.069333,-0.42822,13.8,8.94,31.8
6.2517,-3.3506,-8.2539,-0.13011,-0.098044,-0.44654,14.1,8.94,31.98
4.413,-2.8739,-7.4776,0.0281,-0.082772,-0.40623,14.22,9.0,32.04
5.0395,-3.4732,-7.5593,-0.043982,-0.11729,-0.41936,14.52,8.94,32.16
4.4266,-1.866,-8.1586,0.0042761,0.11759,-0.29047,14.52,9.12,32.28
6.3471,-2.833,-8.5127,-0.078191,0.030849,-0.42791,14.58,9.18,32.4
6.3198,-3.3778,-8.036,-0.086132,-0.079718,-0.38087,14.76,9.3,32.52
4.9033,-2.9284,-7.3822,-0.030543,-0.083994,-0.39492,14.64,9.36,32.76
5.7205,-2.2201,-7.9543,-0.16646,-0.069028,-0.50702,14.64,9.36,33.0
4.9033,-2.4789,-7.75,-0.11393,-0.26145,-0.44288,14.52,9.3,33.12
3.8137,-1.3484,-8.7715,-0.11332,-0.16188,-0.40623,14.64,9.24,33.18
5.4481,-2.547,-7.2188,-0.23152,-0.15455,-0.37538,14.7,9.18,33.12
1.9068,0.64016,-6.0883,0.097128,0.041844,-0.29719,14.64,9.18,33.3
1.0079,1.9613,-10.733,0.42486,0.50427,-0.13408,14.52,9.12,33.3
16.126,-9.0439,-17.584,-0.83963,-2.2956,-1.1154,14.52,9.24,33.24
-0.81722,-5.1621,-3.2416,0.97738,-0.30665,-0.0073304,14.58,9.48,33.18
-9.7522,11.482,-3.4732,0.19059,1.0046,-0.78863,14.7,9.66,33.24
14.451,-3.9635,-13.675,-0.6463,0.30971,0.8604,14.76,9.78,33.54
15.459,-6.674,-11.918,0.17837,-0.60201,-0.80451,14.82,9.6,33.36
4.5083,-1.2258,-5.9521,0.54428,-0.18845,-0.57208,15.0,9.6,33.18
-2.4653,1.076,-4.3721,0.31826,-0.27978,-0.038179,15.0,9.66,33.12
9.9156,-3.5822,-10.556,-0.080023,-0.64813,0.07086,15.24,10.02,33.0
4.7399,-3.0237,-9.6977,0.32865,-0.26634,-0.10232,15.18,10.2,33.06
5.7069,-0.12258,-8.1995,-0.073609,0.35308,-0.27642,15.42,10.5,33.0
6.3062,-2.2882,-7.246,0.19792,-0.4444,-0.049175,15.48,10.68,32.88
3.7047,-1.8115,-8.4991,0.25045,-0.57146,0.030238,15.72,10.8,32.94
5.2575,-0.85808,-9.3163,0.15455,-0.11698,-0.000305,15.84,10.98,32.94
3.7728,-0.85808,-8.145,0.32498,0.037568,0.16921,15.72,11.22,32.94
5.0259,-1.0488,-8.5127,0.23854,-0.0073304,0.03543,15.78,11.16,32.82
3.9499,-1.0896,-8.0769,0.49266,-0.33964,0.12859,16.02,11.4,32.28
5.5299,-0.36775,-9.9292,0.40164,-0.22633,0.081551,16.14,11.7,32.28
7.927,-2.656,-9.2891,0.19273,-0.39859,-0.065363,16.2,11.94,32.34
3.0918,-4.2632,-7.0826,0.25656,-0.46578,0.20128,16.62,12.24,32.04
3.8001,-2.4789,-8.9349,0.20189,-0.13958,0.15913,16.62,12.3,31.98
6.8374,-3.4732,-8.0905,0.039706,-0.22755,-0.041844,16.86,12.48,31.62
3.514,-2.152,-8.0769,0.30757,-0.43433,0.13378,17.1,12.54,31.5
5.8023,-3.0373,-7.7636,0.2251,-0.36469,-0.032987,17.4,12.72,31.38
5.2166,-3.2416,-7.0009,0.35033,-0.39859,0.034819,17.58,12.96,31.2
5.9112,-3.4323,-8.2676,0.21655,-0.35766,-0.15669,17.94,13.5,31.08
5.1213,-2.8603,-8.4446,0.17715,-0.52473,-0.041233,18.18,13.5,30.9
4.018,-2.7377,-8.5536,0.054672,-0.4386,-0.080634,18.48,13.74,30.78
4.1814,-0.5993,-8.8532,0.0039706,-0.0956,0.048258,18.84,14.1,30.96
6.3198,-1.0215,-9.0303,-0.089797,-0.077885,-0.13653,19.2,14.34,30.78
7.5048,-4.1133,-8.2812,-0.10232,-0.2416,-0.094379,19.38,14.4,30.72
5.6661,-3.4323,-8.9213,0.0048869,-0.46456,-0.19028,19.8,14.76,30.78
4.9306,-3.6094,-7.246,0.15394,-0.38637,-0.2306,19.98,14.88,30.72
3.3778,0.39499,-8.4174,0.31765,-0.088575,-0.09499,20.16,14.94,30.66
6.9872,-4.1133,-8.3901,-0.062614,-0.17013,-0.25779,20.52,15.18,30.96
3.9635,-3.0373,-6.9872,0.29199,-0.45876,-0.029932,20.58,15.24,30.84
4.3994,0.054481,-8.9077,0.10476,-0.32865,-0.21472,20.58,15.18,30.72
5.3119,-3.8682,-9.6023,0.039706,-0.55405,-0.045509,21.06,15.3,30.84
5.3664,-2.833,-9.9565,-0.074831,-0.45998,-0.39004,21.24,15.48,30.84
5.5843,-3.2008,-9.6977,-0.14783,-0.48533,-0.43005,21.36,15.54,31.02
3.4187,-2.7241,-6.674,0.13744,-0.097128,-0.2361,21.48,15.54,31.08
9.4934,-3.8001,-7.927,-0.16799,0.15913,-0.60262,21.6,15.72,31.14
4.9306,-3.7047,-6.7012,0.14539,-0.63286,-0.24221,21.72,15.84,31.14
4.7399,-2.0431,-7.8589,-0.12004,-0.51618,-0.7422,21.84,15.78,31.14
5.9521,-4.2359,-7.6546,-0.065057,-0.72601,-0.61667,22.2,16.14,31.26
4.8488,-1.4982,-8.7443,0.037568,-0.62919,-0.6185,22.74,16.32,31.14
5.6524,-2.0022,-8.0496,-0.11332,-0.37965,-1.0256,23.1,16.56,31.32
5.5162,-2.3836,-8.826,0.06017,-0.53115,-0.78588,23.22,16.86,31.5
6.2517,-2.2474,-9.5479,-0.18051,-0.36072,-1.0776,23.34,16.68,31.5
9.6704,-7.6138,-11.673,-0.42028,-1.1979,-1.2541,23.34,16.68,31.5
-0.58567,-7.2188,-1.7979,0.3488,-0.34117,-0.52687,23.58,16.74,31.32
3.2961,3.4868,-8.7443,-0.32926,0.83291,-1.4823,23.94,16.92,31.32
7.7227,-2.656,-9.221,-0.11545,0.075136,-0.93768,23.58,17.1,31.44
6.0611,-3.5413,-9.6023,0.067806,-0.40623,-0.5736,23.34,17.1,31.38
3.2144,-2.9965,-6.0338,0.27642,0.44471,-0.67592,23.1,17.28,31.44
3.0101,-3.8001,-7.0417,0.057727,0.27581,-0.60018,22.86,17.34,31.5
6.1564,-6.674,-8.1858,-0.042761,0.051924,-1.025,22.56,17.34,31.68
1.9205,-1.8115,-8.0905,0.30849,0.084605,-0.87079,22.38,17.64,31.62
4.7399,-1.4846,-9.7658,0.097433,0.30452,-1.0599,21.78,17.94,31.8
5.9521,-4.1951,-8.1858,0.017715,0.015577,-1.0235,21.24,17.94,32.16
4.4266,-2.4925,-8.0632,0.16707,0.2022,-1.2398,20.82,18.06,32.22
6.1019,-0.50395,-7.9407,-0.11515,0.071471,-1.1661,20.52,18.36,31.98
6.5378,-2.9965,-8.3765,-0.083994,-0.31857,-0.96517,20.22,18.42,31.98
4.9987,0.14982,-8.2948,-0.13989,-0.18692,-1.1851,19.5,18.66,32.04
4.3858,0.47671,-8.4038,-0.063225,-0.054978,-0.97616,19.26,18.78,32.04
6.1564,0.76274,-10.011,-0.31062,-0.04948,-1.0684,18.96,18.78,31.98
9.0167,-4.6854,-7.1098,-0.27306,-0.23579,-1.0544,18.12,19.08,31.62
1.8251,-2.4789,-7.246,0.21533,-0.71746,-0.98716,17.64,19.2,31.62
0.83084,-0.83084,-8.7851,0.15302,-0.23366,-0.81917,17.4,19.44,31.56
2.4925,-0.83084,-9.7249,0.12889,0.32101,-0.77794,17.22,19.56,31.5
6.1836,-0.99429,-8.1041,0.21075,0.26389,-0.88301,16.68,19.86,31.62
4.5083,-2.0703,-7.4912,0.45937,-0.59132,-0.62675,16.38,20.22,31.44
3.6094,-2.4789,-7.7772,0.38882,-0.56719,-0.64538,16.32,20.4,31.44
3.3915,-2.1248,-8.322,0.30971,-0.21869,-0.59529,15.96,20.64,31.32
7.5321,-3.514,-10.338,-0.036041,-0.26909,-0.69242,15.96,20.76,31.26
9.0167,-5.6661,-8.4855,0.16096,-0.36194,-0.82039,15.9,21.0,31.14
-5.2166,4.808,-5.1213,0.63958,0.10049,-0.59987,15.54,21.36,30.96
2.2065,6.4424,-11.509,0.37446,0.4444,0.20159,15.36,21.42,30.9
13.675,-9.6704,-12.585,-0.053756,-0.18418,0.16127,15.3,21.84,30.78
-2.5879,-2.1793,-5.6661,0.84666,-0.44776,0.17959,15.36,22.14,30.54
-3.4732,0.23155,-7.7364,0.31368,-0.0012217,-0.27367,15.36,22.32,30.48
2.4517,-2.6423,-9.4117,0.35736,0.091935,0.10324,15.3,22.56,30.18
8.1858,0.25879,-11.046,0.56566,-0.068111,-0.2981,15.36,22.62,29.64
6.5922,-1.1305,-8.3493,0.46517,-0.19731,0.084299,15.3,22.8,29.46
1.5936,-1.757,-7.246,0.70799,-0.18723,0.25809,15.18,22.98,29.04
9.1529,-4.6854,-9.5479,0.11209,-0.17746,-0.41081,15.12,23.16,28.86
6.7557,-4.6445,-7.1643,0.51893,-0.27367,0.027489,14.94,23.34,28.56
4.3994,0.081722,-8.6081,0.21044,-0.0082467,-0.40409,15.18,23.52,28.38
6.5922,-2.833,-9.2346,0.035736,-0.14813,-0.27794,15.12,23.7,28.08
5.38,-4.6445,-8.7715,0.040317,-0.44074,-0.23488,15.12,23.88,27.96
2.4789,-0.54481,-7.9543,0.092241,0.21686,-0.24709,15.18,24.06,27.6
3.7592,-1.4165,-9.1529,0.11973,0.3259,-0.018631,15.24,24.12,27.6
6.4833,-2.9965,-11.046,-0.081245,0.015882,-0.29535,15.18,24.18,27.3
2.6287,-4.5083,-5.2983,0.42364,-0.16493,-0.12034,15.06,24.36,27.18
0.095342,-1.7843,-5.6797,0.63988,0.068111,-0.12278,14.88,24.48,27.18
4.2904,-1.4982,-9.8884,0.44838,0.094684,-0.29841,14.88,24.48,27.24
5.6661,0.96704,-9.9837,0.4667,0.25168,-0.3821,14.64,24.78,27.18
5.4345,-1.9205,-5.5026,0.30574,0.41539,-0.42944,14.4,25.02,27.12
4.1406,-5.3119,-5.5162,0.22113,0.053756,-0.17929,14.52,25.14,27.06
4.6445,-2.0294,-8.9486,0.048564,-0.26603,-0.40745,14.28,25.44,26.94
2.8875,-2.2746,-7.6683,0.135,0.16432,-0.16127,14.1,25.5,26.94
5.5162,-3.9227,-8.6353,-0.17318,0.29505,-0.46273,13.86,25.74,26.64
3.9227,-5.0531,-7.4367,0.10568,0.0076358,-0.26206,13.74,25.56,26.64
3.8546,-1.7979,-8.2948,0.22877,0.12889,-0.33078,13.38,25.68,26.52
5.8567,-0.91256,-9.5751,0.17532,0.34758,-0.4725,13.26,25.68,26.52
5.8567,-0.91256,-9.5751,0.23182,0.087048,-0.3207,13.26,25.68,26.52
5.8567,-0.91256,-9.5751,0.18112,0.4331,-0.46823,13.26,25.68,26.52
5.884,-0.74912,-7.3141,0.13806,0.39554,-0.38057,13.08,25.68,26.28
5.6116,-2.9965,-8.0224,0.19945,0.28191,-0.32681,12.54,25.92,25.98
6.7148,-3.051,-8.7034,-0.017104,0.28741,-0.53359,12.18,26.04,25.68
3.1327,-4.5764,-6.6467,0.089797,0.079107,-0.32773,11.52,25.86,25.14
2.9965,-2.261,-7.641,0.081856,0.45601,-0.32865,11.34,25.86,24.96
4.6037,-2.8603,-8.1041,0.029322,0.70433,-0.33475,10.44,25.92,24.72
7.069,-5.094,-9.0848,-0.13317,0.46426,-0.20525,9.6,25.74,24.6
3.4459,-5.5435,-5.9657,-0.040623,0.26359,-0.33445,9.0,25.86,24.42
2.9556,-2.7241,-7.5593,0.061392,0.49541,-0.21991,8.4,25.98,24.18
5.2711,-3.6775,-8.3493,-0.032376,0.46151,-0.22938,7.56,25.92,24.0
5.5435,-3.8682,-8.2812,0.090103,0.25809,-0.20006,7.08,25.92,23.88
4.7671,-4.0316,-7.2188,0.036957,0.29688,-0.3937,6.48,25.98,23.94
5.1894,-3.7728,-7.7364,0.04948,0.18295,-0.3427,6.06,26.1,23.94
5.6933,-4.1133,-7.3822,-0.10476,0.035125,-0.40623,5.94,26.1,23.88
3.337,-2.6151,-8.1586,0.067501,0.11606,-0.45907,5.64,26.22,23.58
4.1542,-1.7298,-8.7987,-0.09499,0.30788,-0.40348,5.16,26.34,23.16
4.5083,-0.99429,-9.6977,-0.10049,0.30788,-0.36927,4.5,26.58,22.98
6.8919,-2.7513,-8.3765,-0.16921,0.30696,-0.39431,4.02,26.82,22.68
4.9442,-1.7298,-8.2131,-0.058643,0.035736,-0.3882,3.42,26.88,22.68
5.8704,-2.8058,-8.322,-0.053756,0.082772,-0.30574,2.88,26.94,22.38
6.1836,-2.9011,-8.7034,-0.12828,0.26176,-0.16402,2.64,27.06,22.38
6.4833,-1.2122,-8.1995,-0.078802,0.41356,-0.13897,2.16,27.3,22.2
7.5321,-2.3972,-7.5729,-0.14508,0.3879,-0.0281,1.8,27.24,22.2
4.985,-1.757,-7.1643,-0.010996,0.20495,-0.040317,1.26,27.24,22.32
3.9635,-0.53119,-8.1041,-0.007025,0.33628,0.051313,0.9,27.06,22.14
6.6331,-2.7241,-8.2403,-0.028711,0.28558,0.19426,0.42,26.88,22.26
6.279,-2.1656,-7.8998,-0.028405,0.37782,0.10018,0.3,26.82,22.26
3.3915,0.12258,-8.1995,0.1967,0.17257,0.090713,0.18,26.88,22.2
6.7966,-2.7649,-8.7579,0.053145,-0.066279,0.22388,-0.3,26.76,21.96
5.0668,-1.185,-8.7306,0.28069,-0.21075,0.077274,-0.24,26.7,22.08
4.0316,-0.7355,-7.7364,0.22113,-0.099266,0.17287,-0.36,26.58,22.02
7.75,-2.3836,-10.202,0.14661,-0.11942,0.26328,-0.3,26.64,21.84
10.065,-2.9965,-9.0848,0.010996,-0.613,-0.08491,-0.3,26.7,21.54
0.47671,0.17706,-6.7421,0.39126,-0.3149,0.40745,-0.12,26.76,21.6
3.6094,0.27241,-9.2891,-0.036957,-0.082161,0.49602,0.24,26.82,21.42
11.06,-4.7671,-7.069,-0.16707,-0.094684,0.31154,0.6,26.88,21.24
5.5435,-3.1599,-6.7148,0.12065,-0.53542,0.71654,0.78,26.88,21.24
5.7614,-3.4596,-6.3607,0.037263,-0.5058,0.46456,1.02,27.0,21.12
3.5549,-4.8625,-7.246,0.036346,-0.74862,0.49908,1.56,27.24,21.24
2.6015,-3.8954,-8.54,0.09163,-0.33842,0.37507,1.8,27.3,21.24
4.0589,-2.833,-7.8998,0.17532,0.002138,0.30727,2.58,27.42,21.3
6.2654,-3.3097,-8.3493,0.10201,0.10537,0.2868,3.06,27.6,21.42
6.7966,-3.2144,-7.355,0.18876,-0.067195,0.033292,3.3,27.66,21.42
2.2882,-2.0567,-7.2188,0.36316,-0.068111,0.27794,3.6,27.78,21.48
5.9112,-1.9341,-7.5321,0.16799,0.52382,0.28344,3.9,28.14,21.78
5.0668,-3.2416,-7.7772,0.20922,1.0941,0.046426,3.96,28.2,21.84
9.793,-4.7807,-8.0224,-0.064446,0.70616,-0.12828,4.14,28.5,21.72
4.1542,-4.9306,-6.96,-0.094379,1.2214,0.024435,3.96,28.5,21.9
3.3778,-2.8875,-7.0826,-0.16127,1.3082,0.31551,3.78,28.44,21.9
5.8567,-3.3097,-6.8374,-0.29841,2.2101,0.22999,3.42,28.44,21.84
8.6489,-3.6094,-4.6037,-0.10049,1.9163,-0.072388,2.58,28.44,21.78
8.2131,-2.656,-5.6116,0.15424,0.99082,-0.18143,1.56,28.44,21.54
8.322,-3.514,-5.4481,0.45815,-0.61117,-0.10782,0.78,28.5,21.24
6.3062,-3.8001,-5.7614,0.46304,-1.3295,-0.076053,0.42,28.44,20.94
4.3177,-2.7649,-6.4697,0.34544,-1.2547,-0.03207,-0.06,28.74,20.7
5.0804,-3.6503,-7.5048,0.1573,-1.0993,-0.13256,-0.54,28.74,20.58
5.489,-4.1542,-7.0553,-0.029627,-1.3509,-0.15272,-0.72,28.92,20.46
3.2008,-3.7728,-6.8238,0.023824,-1.0547,-0.22846,-0.78,29.16,20.22
5.7205,-2.7649,-8.1858,-0.067806,-0.89339,-0.22449,-0.78,29.28,20.04
11.986,-3.4187,-7.6002,-0.24862,-0.45479,-0.47617,-0.36,29.46,19.74
2.5742,-2.0567,-6.2517,0.26206,-0.34331,-0.51038,0.06,29.4,19.8
12.885,-4.1542,-7.355,-0.10629,-0.67317,-0.40684,0.36,29.4,19.86
9.5479,-5.884,-6.7012,-0.1799,-0.36805,-0.87018,0.54,29.34,19.86
7.5865,-3.7728,-6.1973,-0.064752,-1.6991,-0.46395,0.72,29.04,19.74
2.2746,-2.5742,-7.5048,-0.048869,-0.94165,-0.84819,0.96,28.86,19.68
7.1507,-4.7535,-12.49,-0.25229,-1.033,-0.62186,0.96,28.8,19.74
6.6467,-5.8567,-10.869,-0.31826,-0.50671,-0.81489,1.14,28.62,19.86
-2.1384,-0.50395,-5.1485,0.013744,-0.03207,-0.58521,1.44,28.38,19.98
3.8682,-0.69464,-8.4174,-0.065057,0.61636,-0.46701,1.62,28.02,20.04
7.1371,-3.7184,-9.0439,-0.12737,0.60537,-0.416,1.8,27.9,20.1
4.5356,-3.2553,-8.0632,0.052229,0.31612,-0.27947,1.74,27.84,20.1
4.4539,-2.152,-9.3708,0.12614,0.65118,-0.31276,1.68,27.84,20.28
7.7091,-3.2553,-10.501,-0.23457,0.49419,-0.31673,1.62,27.78,20.4
7.1643,-4.2904,-6.6876,0.044593,0.3824,-0.61514,1.38,27.6,20.46
3.6503,-3.3097,-7.7908,0.094379,0.34544,-0.40225,1.2,27.36,20.4
6.0338,-3.4187,-7.1915,-0.17165,0.80512,-0.33689,0.96,27.36,20.28
7.1915,-2.3836,-7.8589,-0.069639,0.24832,-0.44318,0.3,27.54,20.28
8.322,-2.1384,-7.4095,0.033598,-0.031154,-0.49022,-0.42,27.6,20.4
3.514,-1.9613,-7.8181,0.19273,-0.26114,-0.29963,-1.02,27.66,20.16
5.2575,-2.2882,-8.1177,0.0097738,-0.14905,-0.079107,-1.26,27.66,20.1
6.5105,-3.1872,-7.8726,0.12217,-0.033598,-0.018937,-1.74,27.6,19.86
6.851,-3.0918,-8.3357,0.11393,-0.13714,0.025962,-2.1,27.66,19.68
4.2087,-3.7184,-6.6331,0.31734,0.18662,-0.04215,-2.28,27.78,19.56
2.9965,-2.6968,-7.9543,0.1967,0.053451,0.14783,-2.4,27.84,19.5
6.2109,-2.6287,-6.5241,0.13897,0.33262,-0.12339,-2.52,28.02,19.2
5.1485,-0.7355,-7.6274,0.31948,-0.041233,-0.087659,-2.76,27.96,18.84
8.7987,-0.83084,-8.4446,0.14539,-0.51924,-0.20769,-2.94,28.02,18.6
3.1327,-2.0431,-7.7091,0.25748,-0.67317,-0.14264,-2.88,28.2,18.42
4.8216,-1.8387,-8.7443,-0.089186,-0.64599,-0.07086,-2.82,28.38,18.24
5.5026,-2.7513,-8.3493,-0.20892,-0.37996,-0.048869,-2.7,28.5,18.24
5.6388,-2.1112,-9.3436,-0.24038,-0.62308,0.13347,-2.64,28.62,18.3
5.0395,-3.5277,-7.8862,-0.16218,-0.40836,0.20525,-2.4,28.86,18.24
6.0202,-2.3836,-9.8066,0.094073,-0.71044,0.26389,-2.28,28.68,18.06
6.5514,-3.1599,-9.6704,0.092546,-0.54947,0.18754,-2.22,28.68,18.24
2.9965,-0.95342,-8.1858,0.40012,-0.40256,0.29169,-1.86,28.62,18.3
6.5378,-3.6094,-8.5263,0.29871,-0.078802,0.15852,-1.26,28.62,18.48
5.094,-3.6503,-7.0962,0.38668,-0.11942,0.24099,-0.96,28.56,18.48
5.3528,-3.9635,-7.3277,0.2135,-0.14752,0.090713,-0.42,28.8,18.48
4.8625,-3.0782,-6.6604,0.18234,-0.21105,0.091324,0.18,28.8,18.36
5.5571,-2.547,-8.0224,0.071471,-0.33811,0.025045,0.6,28.98,18.12
6.0474,-3.7456,-7.7364,0.058032,-0.3711,0.072998,0.84,28.92,18.06
4.1406,-1.866,-9.0848,-0.071166,-0.30879,0.078496,1.14,28.92,17.88
5.1757,-4.413,-7.4776,-0.10018,-0.088575,0.033292,1.68,29.16,17.76
5.7342,-2.2065,-8.8532,-0.097738,-0.15485,0.07758,1.98,29.22,17.7
6.0611,-3.1191,-8.5263,-0.13867,-0.013134,-0.12553,2.1,29.16,17.7
4.8216,-3.4051,-6.7557,0.06689,-0.15119,0.075136,2.28,29.4,17.7
6.3471,-3.8546,-8.2539,-0.11087,-0.026878,-0.21441,2.4,29.16,17.76
3.6503,-4.5764,-5.2166,0.012523,-0.14752,-0.15333,2.34,29.1,17.7
3.6775,-3.5413,-6.7012,-0.091935,-0.036652,-0.32132,2.34,29.04,17.76
5.9249,-3.1599,-8.8668,-0.0018326,-0.054672,-0.31276,2.4,29.04,17.82
4.4402,-2.0294,-8.54,0.068722,-0.12065,-0.21228,2.52,29.1,17.94
4.9442,-1.9613,-8.8941,-0.037874,0.12767,-0.39706,2.58,29.1,17.94
4.0861,-3.1872,-7.4503,0.035125,-0.05284,-0.18631,2.4,29.16,18.0
5.8704,-1.4438,-8.6489,0.0036652,0.16157,-0.24862,2.4,29.34,18.18
5.6661,-2.3018,-7.9134,-0.011912,0.12614,-0.33598,2.22,29.4,18.0
6.7829,-2.547,-9.3163,-0.057727,-0.021075,-0.26786,1.86,29.4,18.0
5.5299,-3.3778,-7.355,-0.021686,0.094684,-0.27703,1.74,29.28,17.94
4.6445,-1.9886,-8.0088,0.025351,0.037568,-0.25259,1.62,29.22,17.82
5.7342,-3.5277,-6.6331,-0.045204,0.11973,-0.30421,1.44,29.16,17.88
5.8704,-2.5742,-7.7636,-0.11576,-0.04215,-0.46976,1.2,29.16,17.82
6.7148,-3.2825,-8.7987,-0.21686,-0.13836,-0.45448,0.9,29.28,17.76
4.7126,-3.3506,-7.1234,-0.14691,-0.14783,-0.43952,0.3,29.04,17.64
5.2438,-2.2337,-7.3686,-0.28588,0.073609,-0.57513,0.06,28.98,17.52
4.413,-3.2825,-6.6195,-0.23824,0.097128,-0.4331,-0.12,28.86,17.58
6.7966,-3.8682,-8.6898,-0.21838,-0.10415,-0.31398,-0.42,28.62,17.58
4.6445,-3.8273,-6.2517,-0.31093,-0.12401,-0.45907,-0.6,28.44,17.52
3.4459,-2.3699,-7.4912,-0.09499,-0.19334,-0.26206,-0.72,28.26,17.46
5.0668,-4.1406,-6.9055,0.0033598,-0.61056,-0.46762,-0.96,27.9,17.64
2.0567,-2.2882,-8.2403,0.13317,-0.81031,-0.36285,-1.14,27.78,17.7
4.7944,-3.9908,-9.2482,-0.093768,-0.12156,-0.57818,-1.5,27.42,17.88
2.0567,-2.2065,-8.4174,-0.035125,0.17318,-0.58429,-1.74,27.3,17.94
5.0395,-1.0896,-8.0496,-0.1347,0.3708,-0.5681,-1.86,27.12,18.12
6.0338,-2.3155,-7.2188,-0.0061087,0.4383,-0.43921,-2.04,26.94,18.3
8.1586,-1.2803,-8.8941,-0.054978,0.013439,-0.41661,-2.58,26.82,18.66
6.8374,-1.8387,-7.5457,0.10507,-0.20769,-0.40409,-2.82,26.64,18.78
5.4209,-0.6674,-9.2891,0.14111,-0.36346,-0.20464,-3.12,26.52,18.9
7.6002,-1.8932,-8.6353,0.025045,0.13225,-0.32467,-3.84,26.28,18.96
4.4402,-1.5527,-7.7364,0.16157,-0.093768,-0.23763,-4.08,26.16,18.9
3.9635,-0.23155,-8.1722,0.082772,-0.058338,-0.26603,-4.38,25.98,19.02
6.6059,-2.4653,-7.8453,0.039095,-0.13378,-0.21991,-4.86,25.92,19.02
4.1814,-1.8251,-8.3357,0.090713,-0.13286,-0.13744,-4.92,26.04,19.02
6.0066,-1.0488,-8.1722,0.012523,0.0085521,-0.21838,-5.1,25.92,18.9
3.6094,-0.28603,-9.793,0.095295,-0.15852,0.037568,-5.34,25.98,18.78
5.7614,-0.81722,-10.351,-0.01741,0.0097738,-0.051924,-5.46,25.98,18.72
5.0531,-0.95342,-8.7851,0.13195,0.018631,0.01741,-5.34,25.8,18.66
4.0861,-1.6753,-7.4367,0.22449,0.059559,0.11423,-5.22,25.68,18.6
3.4459,-0.61292,-8.5808,0.28436,-0.071471,0.21105,-5.16,25.62,18.54
6.96,-4.1542,-9.616,0.1686,-0.25595,0.18051,-4.98,25.56,18.48
2.6696,-2.6151,-7.2869,0.35858,-0.17654,0.13653,-4.56,25.56,18.36
4.127,-2.8058,-8.2676,0.29627,-0.065363,0.12645,-4.5,25.5,18.3
5.598,-4.127,-8.4174,0.24282,-0.1689,0.14905,-4.2,25.62,18.24
5.5026,-4.5356,-7.927,0.23213,-0.20678,0.042455,-4.02,25.56,17.94
2.3155,-2.8739,-6.0883,0.3375,-0.055894,0.12004,-3.78,25.56,18.0
5.4618,-2.3427,-9.902,0.10934,-0.074831,0.021686,-3.9,25.56,18.0
3.1463,-2.3291,-6.4016,0.34758,-0.14875,0.078496,-3.6,25.62,17.76
3.8682,-2.0022,-8.1586,0.063225,-0.034208,-0.026878,-3.48,25.74,17.64
4.9306,-4.304,-7.8589,-0.0058032,-0.037874,-0.040928,-3.42,25.92,17.64
3.6911,-3.1872,-8.6217,0.11912,-0.11606,0.1408,-3.3,26.04,17.52
4.3994,-2.833,-7.8181,0.017104,0.046731,0.075136,-3.12,26.22,17.22
4.3313,-3.4732,-8.7306,0.1182,0.077885,0.22816,-3.0,26.34,17.16
6.2245,-3.8273,-9.2074,0.010385,0.12675,0.022907,-2.82,26.46,17.1
3.5685,-2.2065,-7.8589,0.29596,0.029322,0.19761,-2.88,26.76,16.92
6.3743,-3.1872,-9.4934,0.087048,0.17318,-0.032376,-2.88,26.88,16.92
4.3994,-3.514,-7.3958,0.32101,0.078191,0.17746,-2.94,26.94,16.86
4.9578,-1.8387,-9.1937,0.16524,0.23427,-0.028405,-2.94,27.18,16.62
5.1213,-2.3155,-8.54,0.25076,0.097433,0.03879,-2.82,27.24,16.44
5.1894,-1.9886,-8.1041,0.18418,0.062003,0.012523,-3.0,27.24,16.38
5.2983,-2.9829,-7.3822,0.11912,0.12248,-0.053145,-2.94,27.36,16.38
4.8625,-3.1191,-7.0553,0.15394,0.12706,-0.03879,-3.06,27.48,16.2
5.5707,-2.9011,-8.4446,-0.0027489,0.0030543,-0.16707,-3.06,27.54,16.02
5.1213,-2.8875,-7.3141,0.16341,-0.11332,-0.080023,-3.3,27.84,15.9
5.2302,-2.2882,-7.1234,0.12981,0.06353,-0.10873,-3.42,27.9,15.72
5.1485,-2.9011,-6.9328,0.18845,0.24404,-0.019242,-3.6,27.9,15.72
6.5514,-3.5004,-8.9349,0.06689,0.25748,-0.11148,-3.9,27.9,15.6
6.565,-4.3858,-8.4446,0.012523,0.10873,-0.13958,-3.96,27.84,15.48
4.1951,-4.5083,-6.0066,0.13897,0.22816,-0.1179,-3.96,27.96,15.54
5.0668,-4.3313,-7.4231,-0.023518,0.52168,-0.21014,-4.2,28.02,15.3
4.4539,-5.5843,-6.8919,-0.026267,0.42944,-0.10293,-4.32,28.02,15.24
5.094,-4.2223,-7.3005,-0.10843,0.53359,-0.21197,-4.5,27.78,15.06
3.732,-4.0044,-6.8783,0.0042761,0.47678,-0.20922,-4.68,27.84,14.82
6.1155,-4.6718,-7.1915,-0.15608,0.45448,-0.27642,-4.68,27.78,14.64
4.1542,-4.6173,-6.5378,-0.013439,0.3207,-0.31001,-4.92,27.6,14.64
4.7126,-4.127,-7.5729,-0.14691,0.37782,-0.43158,-5.34,27.36,14.34
5.8976,-5.1894,-7.6274,-0.19945,0.35033,-0.47281,-5.7,27.36,14.28
5.1485,-4.6582,-7.8317,-0.1295,0.405,-0.5339,-6.12,27.18,13.98
4.6718,-3.8001,-7.4231,-0.12187,0.79504,-0.50824,-6.6,27.0,13.74
4.2904,-2.8603,-8.4719,-0.067501,0.73487,-0.37507,-6.96,26.88,13.62
5.4481,-2.5061,-8.4719,-0.012523,0.71929,-0.27031,-7.38,26.64,13.56
4.8897,-1.7843,-9.5751,-0.0039706,0.54459,-0.043371,-8.34,26.16,13.32
6.3743,-1.8524,-9.0575,-0.044899,0.53542,-0.030238,-8.82,26.16,13.2
6.4969,-2.547,-7.9679,-0.095295,0.13653,0.033292,-10.02,25.92,12.84
6.4969,-2.547,-7.9679,-0.095295,0.13653,0.033292,-10.02,25.92,12.84
6.2245,-2.5334,-7.927,-0.099876,0.099876,0.045509,-10.44,25.92,12.66
4.8761,-1.6753,-7.9679,-0.064752,0.094379,0.078496,-10.68,25.98,12.42
7.7364,-2.656,-7.5048,-0.21533,0.20617,0.097128,-11.52,25.92,12.18
5.9657,-2.4925,-7.6546,-0.067501,-0.10599,0.12981,-11.7,25.74,12.0
6.4152,-2.2474,-8.431,-0.14142,-0.31185,0.10324,-12.18,25.74,11.76
4.7671,-1.6617,-7.927,-0.099876,-0.23091,0.1576,-12.24,25.8,11.58
3.3778,-0.62654,-7.6683,-0.030238,-0.038179,0.25076,-12.48,25.86,11.4
5.9657,-1.6753,-9.1801,-0.078496,-0.012828,0.40989,-12.54,25.98,11.1
6.1836,-3.0918,-8.2403,-0.053451,-0.23121,0.33048,-12.36,25.98,10.62
2.4789,-1.5663,-6.7829,0.042761,-0.047953,0.42944,-12.18,26.04,10.68
5.9249,-3.3506,-8.3765,-0.022602,0.15058,0.64202,-11.82,26.4,10.5
7.4776,-4.1951,-8.2539,-0.026267,-0.11698,0.53909,-11.76,26.52,10.32
4.5356,-4.127,-7.0826,0.037874,-0.23182,0.61942,-11.64,26.52,10.26
3.0101,-3.4187,-6.7966,0.031154,0.0045815,0.6408,-11.28,26.7,10.2
7.5729,-5.5435,-8.0905,0.023213,-0.048869,0.62217,-10.86,26.88,10.32
7.8862,-7.5048,-6.9464,0.062003,-0.24312,0.47464,-10.5,27.06,10.2
2.9829,-1.2531,-7.8317,0.0562,-0.14233,0.33628,-9.84,27.48,10.2
7.4367,-2.833,-8.0088,-0.097738,0.025045,0.31001,-9.42,27.48,10.26
6.4424,-3.5413,-8.0769,-0.037263,-0.1912,0.38668,-8.7,27.6,10.26
5.4618,-3.5413,-7.3414,-0.096822,-0.15363,0.28069,-8.4,27.84,10.44
4.2768,-2.4789,-7.4231,-0.10996,-0.10537,0.34941,-8.16,28.2,10.62
6.7148,-3.2008,-9.0031,-0.22266,-0.14203,0.34514,-7.8,28.32,10.5
4.2223,-2.2201,-7.4095,-0.12431,-0.11148,0.37141,-7.62,28.32,10.5
3.9908,-1.4165,-8.8396,-0.18784,-0.07422,0.37874,-7.2,28.44,10.68
5.2575,-5.5435,-7.3005,-0.18326,-0.24526,0.35766,-6.72,28.74,10.86
4.0725,-1.7843,-7.4095,-0.077885,-0.13317,0.11973,-6.6,28.8,10.92
4.6445,-1.185,-7.6546,-0.16249,0.016799,0.18143,-6.36,28.8,11.1
6.0338,-3.1191,-8.1586,-0.076664,-0.21197,0.19639,-6.0,28.86,11.34
7.1098,-2.6015,-9.0575,-0.16616,-0.28955,-0.000611,-5.76,28.98,11.46
5.3119,-2.8603,-7.4095,-0.07422,-0.24954,0.07422,-5.64,28.98,11.52
6.9736,-1.6889,-7.2188,-0.1909,0.014355,-0.13836,-5.58,29.22,11.7
6.2245,-3.8273,-7.1915,-0.13714,-0.18051,0.050702,-5.22,29.04,12.0
7.7636,-4.3721,-7.5184,-0.17379,-0.24984,-0.26848,-5.16,28.86,12.06
4.5628,-1.7979,-6.9736,-0.0039706,-0.24832,-0.063225,-5.04,28.86,12.48
7.2596,-3.732,-8.3765,-0.14691,-0.13011,-0.36713,-4.86,28.8,12.66
7.2188,-6.1973,-6.9872,-0.17654,-0.28436,-0.34941,-4.86,28.8,12.96
3.337,-3.3097,-6.2381,-0.033903,-0.011912,-0.41936,-4.8,28.8,13.32
3.9908,-3.051,-7.246,-0.12187,0.095295,-0.30757,-4.62,28.8,13.56
5.2847,-3.3915,-9.0848,-0.25656,-0.13011,-0.31796,-4.62,28.74,13.5
2.6015,-3.5413,-6.9872,0.01741,-0.085521,-0.19364,-4.56,28.5,13.86
3.0918,-1.8932,-8.6762,-0.045815,0.15363,-0.16035,-4.62,28.32,14.04
7.3141,-3.7456,-8.5536,-0.17349,0.24465,-0.34331,-4.8,28.32,14.16
4.2495,-2.8058,-8.322,-0.078191,0.026573,-0.208,-4.8,27.78,14.28
6.1836,-3.1054,-8.0632,-0.1014,0.15547,-0.3653,-5.04,27.78,14.22
4.4947,-3.6775,-6.9328,0.009163,0.25748,-0.2868,-5.1,27.66,14.28
7.6274,-4.0316,-7.1507,-0.38973,0.55711,-0.59987,-5.34,27.42,14.46
6.565,-4.2495,-6.2381,-0.34972,0.67195,-0.53787,-5.52,27.42,14.4
5.6116,-3.0237,-6.5922,-0.47495,0.86407,-0.58613,-5.7,27.3,14.28
6.4152,-2.4108,-7.1234,-0.52962,0.82375,-0.48717,-6.3,27.0,14.34
6.0883,-2.6015,-7.7364,-0.40134,0.043371,-0.36163,-6.48,26.7,14.34
5.4618,-2.5606,-7.9543,-0.22938,-0.071471,-0.3091,-6.78,26.58,14.4
4.5764,-2.3018,-8.322,-0.15516,-0.044899,-0.23488,-7.32,26.1,14.58
6.1836,-2.942,-8.4719,-0.15302,-0.051924,-0.197,-7.68,25.98,14.64
5.8295,-3.6094,-8.2812,0.10171,-0.10751,-0.14875,-7.8,25.74,14.7
5.3256,-1.7162,-8.1858,0.11912,-0.11729,-0.096822,-8.22,25.74,14.88
4.2495,-1.362,-7.8317,0.29322,-0.069639,-0.038179,-8.28,25.68,15.0
4.4675,-0.54481,-8.4446,0.11729,-0.17868,0.069639,-8.4,25.62,14.82
7.3822,-2.7241,-7.8726,0.18479,-0.19242,0.18937,-8.52,25.56,14.82
4.5764,-1.4438,-7.5593,0.25168,-0.39126,0.1295,-8.64,25.26,14.64
3.7184,-0.96704,-7.9543,0.18173,-0.28741,0.35033,-8.76,25.2,14.58
6.1292,-1.9477,-9.3708,0.097433,-0.33231,0.39279,-8.58,24.96,14.58
4.8352,-2.6015,-8.2403,0.20006,-0.075442,0.33475,-8.52,25.26,14.34
2.8467,-1.5255,-8.8396,0.24771,-0.048564,0.38057,-8.34,25.26,14.22
4.5083,-2.8875,-9.4253,0.15791,-0.18418,0.50244,-8.28,25.5,13.92
3.9635,-1.4165,-9.1529,0.20861,-0.035125,0.55986,-8.04,25.86,13.68
6.2654,-3.5413,-8.2539,0.091324,0.052229,0.50946,-7.86,25.98,13.44
4.9578,-2.8603,-8.2812,0.04215,-0.13531,0.45296,-7.62,26.28,13.2
3.3097,-3.8001,-5.5435,0.22235,-0.059559,0.49663,-7.56,26.34,13.02
4.7944,-2.2337,-7.8317,0.20495,-0.016188,0.49052,-7.26,26.52,13.14
7.641,-4.3585,-8.4038,-0.069944,-0.13622,0.19181,-7.08,26.7,13.08
4.6718,-3.337,-6.8919,-0.0085521,-0.23885,0.23946,-6.72,27.12,13.2
4.7399,-2.1384,-7.464,-0.11545,-0.053145,0.22327,-6.36,27.3,13.26
6.17,-3.4868,-7.8317,-0.17104,-0.13989,0.23488,-6.0,27.72,13.14
5.1349,-2.547,-8.4174,-0.14447,-0.13042,0.24893,-5.76,27.72,13.08
4.3449,-1.8524,-8.1858,-0.11087,-0.09163,0.34086,-5.7,27.9,13.38
4.413,-1.6208,-8.5127,-0.089186,-0.065057,0.36744,-5.46,28.02,13.5
5.8159,-3.1872,-7.8317,-0.10385,-0.11881,0.25259,-5.1,28.26,13.56
5.2166,-3.8001,-6.9191,-0.048258,-0.19487,0.25717,-4.92,28.26,13.74
5.1213,-4.3721,-7.3141,-0.055283,-0.18051,0.14264,-4.8,28.32,13.86
5.3664,-2.4517,-8.4174,-0.030238,-0.22419,0.068722,-4.38,28.56,14.04
5.7478,-2.6015,-7.7908,-0.043982,-0.1576,-0.083689,-4.44,28.56,14.16
4.9714,-2.5198,-7.2869,-0.0027489,-0.10324,-0.009163,-4.32,28.68,14.22
5.7886,-2.5742,-8.1313,-0.14386,-0.11118,-0.14386,-4.14,28.74,14.34
6.4424,-2.2882,-7.7091,-0.0039706,-0.12645,-0.091324,-3.9,28.62,14.34
5.8295,-2.438,-6.96,-0.075136,-0.1069,-0.208,-3.78,28.5,14.46
5.3119,-1.7298,-8.3357,-0.087048,-0.067195,-0.15944,-3.84,28.5,14.64
7.5048,-4.8216,-7.5048,-0.20128,-0.12339,-0.31582,-3.9,28.38,14.64
4.127,-4.3585,-6.0202,0.020769,-0.11423,-0.12095,-3.96,28.38,14.76
4.0997,-3.1054,-6.8783,-0.073304,0.050091,-0.41233,-3.78,28.26,14.88
6.0611,-2.7786,-8.3629,-0.02138,-0.076969,-0.27672,-3.84,28.38,14.94
5.9249,-3.4459,-8.5127,-0.038179,-0.24465,-0.30513,-3.9,28.32,14.94
4.4811,-3.5413,-7.927,-0.026267,0.000611,-0.27061,-4.02,28.26,15.06
6.3471,-4.9033,-7.3005,-0.135,0.17562,-0.39218,-4.14,28.08,15.06
3.5822,-4.2495,-5.8976,0.029322,0.12462,-0.29291,-4.08,27.96,15.06
4.2495,-2.9284,-8.0632,-0.28497,0.098655,-0.45693,-4.08,27.9,14.94
6.5378,-4.0725,-7.2596,-0.12737,0.11087,-0.3934,-4.14,27.72,15.06
5.7205,-3.1054,-8.4719,-0.37477,0.18082,-0.39126,-4.56,27.6,15.18
6.2245,-4.3449,-6.7829,-0.25015,0.091935,-0.40989,-4.8,27.54,15.18
4.7399,-2.4108,-7.6683,-0.32803,0.20892,-0.51374,-5.04,27.3,15.36
5.7342,-3.4187,-7.7636,-0.32101,0.20678,-0.48655,-5.16,27.06,15.42
6.0338,-3.6503,-8.2948,-0.31368,0.075136,-0.49511,-5.52,26.94,15.42
4.6718,-1.9068,-7.7091,-0.22877,0.14661,-0.5397,-5.94,26.52,15.54
4.2223,-2.1112,-8.0496,-0.13225,0.085216,-0.32773,-6.12,26.4,15.48
6.0883,-3.0918,-8.5127,-0.16707,-0.025656,-0.37477,-6.6,26.1,15.54
4.2359,-2.1248,-7.8862,-0.043066,-0.019242,-0.40531,-6.84,25.92,15.6
3.3506,-1.1577,-8.3493,0.073304,0.032681,-0.28802,-7.14,25.74,15.78
6.2109,-2.1929,-8.7306,-0.025351,0.15608,-0.19975,-7.5,25.5,15.78
5.775,-2.2474,-8.6353,0.029932,0.065973,-0.18295,-7.92,25.2,15.78
5.8431,-3.1463,-7.3414,0.027794,0.032987,-0.19823,-8.22,24.9,15.78
2.9965,-1.1305,-7.8317,0.05681,0.1069,-0.03207,-8.58,24.66,15.72
5.7614,0.24517,-8.9077,0.029627,0.1854,0.086437,-8.58,24.54,15.6
7.8589,-1.4438,-9.6432,0.025656,-0.055283,0.24801,-8.76,24.54,15.3
9.3163,-2.9692,-9.1529,0.097433,-0.30543,0.1011,-8.82,24.3,15.24
-0.99429,0.31327,-7.8045,0.32865,-0.19975,0.36805,-8.76,24.24,14.94
3.8682,-0.95342,-10.801,0.097738,-0.20097,0.50671,-8.82,24.12,14.82
6.96,-3.5277,-10.706,0.17868,-0.15394,0.48319,-8.76,24.06,14.64
2.3972,-1.866,-6.9464,0.26512,0.01405,0.51099,-8.76,24.24,14.28
3.7456,-2.2882,-8.4446,0.30391,0.29688,0.48228,-8.76,24.24,14.04
7.2188,-4.9714,-8.4446,0.29658,-0.1912,0.416,-8.64,24.36,13.92
3.9908,-2.3972,-8.5944,0.24862,-0.15638,0.40317,-8.46,24.6,13.62
5.2166,-3.623,-6.5922,0.15119,-0.10904,0.35064,-8.22,24.9,13.56
4.3177,-1.8115,-8.322,0.20617,-0.032681,0.47067,-8.1,24.9,13.38
5.0531,-5.2166,-5.7069,0.17074,-0.20281,0.39004,-7.62,25.44,13.02
2.3427,-2.4517,-6.5105,0.27794,-0.09163,0.38607,-7.32,25.74,12.96
4.8761,-1.6753,-7.9543,0.087048,0.030238,0.13531,-7.08,26.04,12.96
5.1076,-2.2882,-8.8668,0.15241,-0.17746,0.48319,-6.96,26.4,12.96
5.38,-2.8194,-8.9622,0.03207,-0.033598,0.32009,-6.78,26.82,12.9
3.514,-3.623,-7.5457,0.095906,-0.028711,0.50488,-6.54,27.0,12.84
5.8295,-4.1542,-7.8589,-0.030238,0.11393,0.23763,-6.18,27.24,12.84
5.9249,-4.0997,-7.0962,0.078802,0.10415,0.23946,-5.94,27.42,12.78
4.9033,-3.2008,-7.4095,0.088575,0.044288,0.33262,-5.64,27.66,12.72
5.3392,-4.6582,-6.7966,-0.05681,0.065057,0.15608,-5.4,27.96,12.78
4.4947,-2.3836,-8.0496,0.013744,0.13134,0.23243,-5.46,27.96,12.84
5.6388,-3.514,-7.8862,-0.14752,0.19059,0.074831,-5.46,28.08,12.96
5.5162,-1.9886,-8.5808,0.0048869,0.24007,0.21808,-5.46,28.02,13.08
5.5707,-2.2065,-7.7908,-0.079718,0.29322,0.07422,-5.58,27.84,13.14
4.9578,-2.3427,-8.0632,-0.10415,0.24771,0.17807,-5.7,27.96,13.08
6.8102,-2.942,-8.6353,-0.26389,0.15791,-0.0015272,-5.58,28.02,13.08
4.6582,-4.1951,-6.2381,-0.16432,0.057116,0.067195,-5.52,27.9,13.02
5.1894,-1.4574,-7.2869,-0.14905,0.38668,-0.057421,-5.7,27.9,12.96
7.8317,-3.0646,-8.1858,-0.27489,0.19975,-0.13042,-5.76,27.84,12.96
6.1836,-3.8273,-7.5865,-0.16371,0.12126,-0.17043,-5.88,27.84,13.08
4.8352,-3.5685,-6.2517,-0.17654,0.23549,-0.36163,-6.12,27.72,13.08
6.2654,-4.1542,-7.6002,-0.10934,0.13775,-0.22266,-6.18,27.72,13.08
5.7886,-4.1814,-7.0962,-0.10904,0.1182,-0.37629,-6.24,27.6,13.02
5.7069,-3.6094,-7.6819,-0.25076,0.14294,-0.39737,-6.36,27.42,12.9
4.9578,-3.9227,-7.927,-0.24404,0.10629,-0.36835,-6.54,27.42,12.96
4.9578,-3.8273,-7.7636,-0.32284,-0.024435,-0.35033,-6.84,27.3,12.78
4.5764,-4.0589,-6.4016,-0.19548,0.26664,-0.26389,-7.02,27.12,12.9
4.8897,-2.8603,-6.7148,-0.17013,0.39859,-0.28497,-7.14,26.94,12.96
7.0962,-4.7807,-7.4095,-0.2587,0.084299,-0.35736,-7.38,26.64,12.96
4.9169,-2.4789,-7.5048,-0.16249,-0.034208,-0.28466,-7.56,26.4,13.08
7.0962,-4.3449,-8.7443,-0.28894,0.039095,-0.36927,-7.74,26.1,12.96
5.6116,-4.4947,-8.0224,-0.31826,-0.12981,-0.37324,-8.04,26.04,13.08
3.4732,-1.7298,-7.5321,-0.29871,0.12278,-0.50855,-8.22,25.86,13.2
3.3778,-0.01362,-6.5105,-0.20464,0.22205,-0.26206,-8.46,25.74,13.2
8.9213,-3.514,-10.27,-0.39309,-0.13134,-0.10293,-8.64,25.44,13.2
6.674,-2.9284,-8.5808,-0.2865,-0.208,-0.16921,-8.82,25.44,13.14
2.8875,-1.0488,-7.0145,-0.15455,0.022907,-0.066279,-9.06,25.32,13.38
7.3822,-3.8001,-7.8317,-0.15791,0.045815,0.022602,-9.42,25.14,13.38
6.6876,-3.0782,-7.9134,-0.15944,-0.10018,0.026267,-9.42,25.08,13.56
4.9714,-2.2201,-6.7012,-0.15333,-0.069333,-0.014966,-9.6,25.08,13.62
7.0009,-3.1191,-9.7113,-0.25137,-0.31796,0.14233,-9.9,24.96,13.62
3.7047,-2.1112,-8.5672,-0.081551,-0.56872,0.080634,-9.96,24.96,13.56
-0.51757,1.8387,-9.4389,-0.019853,-0.37813,0.26053,-10.02,24.96,13.68
5.9112,-0.72188,-10.964,-0.088575,-0.11423,0.38393,-9.9,24.78,13.74
5.2983,-0.25879,-10.283,-0.077885,-0.062919,0.45387,-9.72,24.84,13.74
5.489,-0.8036,-8.7715,0.076358,0.11973,0.49205,-9.6,24.78,13.74
7.4503,-2.9011,-9.6977,0.11057,-0.14569,0.63316,-9.42,24.96,13.8
6.4016,-2.7241,-7.5729,0.19823,-0.25107,0.40714,-9.3,24.9,13.74
3.3506,-0.21793,-7.6002,0.27855,-0.29322,0.51679,-9.06,24.96,13.56
6.5105,-3.3506,-8.1586,0.19273,-0.3653,0.49327,-8.52,25.02,13.62
5.1485,-2.656,-7.7091,0.20006,-0.32009,0.54428,-8.28,25.14,13.56
5.884,-3.2008,-7.1098,0.089797,-0.23305,0.37996,-8.1,25.14,13.5
5.0259,-3.1599,-6.1019,0.19181,-0.22633,0.49694,-7.86,25.14,13.56
6.7012,-2.6423,-7.1234,0.067195,-0.08491,0.18937,-7.62,25.32,13.74
6.1292,-4.3721,-7.0962,0.097433,-0.37782,0.2755,-7.08,25.68,13.98
4.7807,-5.9112,-7.5457,0.0061087,-0.47373,0.13347,-6.9,25.92,14.04
2.833,-2.5742,-6.565,0.069333,0.000611,0.13134,-6.42,26.04,14.22
4.9442,-3.5004,-7.7091,-0.051924,-0.0024435,0.034514,-6.18,26.1,14.4
4.8488,-4.8352,-7.3958,-0.014966,-0.071166,0.092241,-5.94,26.16,14.64
3.4596,-1.9477,-7.6955,-0.03879,0.040317,-0.030543,-5.4,26.34,14.88
5.3528,-3.8954,-8.5672,-0.14539,-0.096517,0.043677,-5.16,26.46,15.12
4.2223,-3.732,-7.6955,-0.11301,0.056505,0.083383,-4.86,26.52,15.48
4.0861,-2.7922,-7.3958,-0.032681,0.1463,0.0012217,-4.86,26.7,15.36
5.2166,-2.1112,-8.6217,-0.026878,0.20739,0.093462,-4.74,26.76,15.48
5.8159,-1.6344,-8.9349,0.0024435,0.14752,0.0058032,-4.62,26.88,15.6
5.2302,-2.7513,-8.9894,0.018326,0.025351,0.11393,-4.38,27.06,15.6
6.0883,-3.4596,-8.8941,-0.016799,0.024129,-0.039706,-4.5,27.06,15.6
4.0452,-1.2939,-9.0848,0.12859,0.1967,0.013439,-4.74,27.06,15.54
7.2733,-1.2803,-8.8532,0.033292,0.2697,-0.10721,-4.92,27.12,15.48
7.246,-3.0918,-8.6353,-0.045509,-0.010079,-0.025962,-4.92,27.18,15.42
7.0145,-3.5685,-7.9543,-0.10385,-0.10324,-0.25351,-4.98,27.3,15.18
4.522,-2.4517,-6.4969,0.024129,-0.027184,-0.16707,-5.1,27.3,14.88
8.6489,-3.7456,-8.1995,-0.19181,-0.090408,-0.52198,-5.28,27.3,14.82
5.3256,-3.4187,-7.8589,-0.033903,-0.30543,-0.26084,-5.22,27.3,14.64
5.4345,-2.3563,-7.8045,-0.21991,-0.029016,-0.54672,-5.34,27.06,14.7
4.699,-3.1599,-7.8862,-0.20556,-0.18265,-0.32956,-5.4,27.06,14.58
4.9578,-3.6094,-8.4174,-0.32406,-0.10599,-0.42302,-5.46,26.94,14.46
4.2223,-3.3915,-6.7421,-0.21228,0.075442,-0.32834,-5.52,26.76,14.46
5.4073,-2.438,-8.0496,-0.37018,0.069944,-0.28619,-5.88,26.52,14.46
5.2438,-3.6775,-6.9872,-0.28161,0.026267,-0.1857,-5.82,26.46,14.4
4.9442,-3.8273,-7.3686,-0.17654,0.12737,-0.28375,-5.88,26.16,14.64
5.7614,-4.4402,-6.674,-0.073609,0.088881,-0.28283,-6.06,26.16,14.76
5.4754,-4.2223,-6.4288,-0.032376,0.083689,-0.343,-6.18,25.98,15.0
5.7342,-2.942,-7.8453,-0.083689,-0.014966,-0.41233,-6.54,25.68,15.36
5.4209,-3.1463,-7.7772,-0.01069,-0.12675,-0.30238,-6.54,25.56,15.3
4.4539,-3.2144,-7.8589,-0.036346,0.12553,-0.18876,-6.9,25.14,15.6
4.2495,-3.0101,-7.9679,-0.04948,0.2025,-0.020159,-6.96,25.08,15.6
4.5901,-2.8058,-8.5127,-0.021686,0.17349,0.023213,-7.08,24.9,15.6
4.2359,-2.0975,-8.6898,0.044899,0.14813,0.064141,-7.08,24.9,15.72
5.1757,-1.6208,-8.7034,0.11637,0.21197,0.080329,-7.32,24.72,15.66
5.5026,-2.5334,-8.7715,0.13561,0.081551,0.15027,-7.32,24.6,15.66
5.4345,-3.051,-7.9679,0.16616,0.043066,0.068722,-7.38,24.66,15.9
3.8273,-1.5391,-7.1507,0.2868,0.10293,0.12859,-7.56,24.66,15.66
5.2438,-0.36775,-8.5127,0.208,0.078496,0.13164,-7.5,24.6,15.48
6.7557,-1.4438,-9.6841,0.16341,-0.11973,0.2303,-7.44,24.54,15.3
6.2245,-2.3699,-9.5479,0.2584,-0.1741,0.27855,-7.44,24.54,15.12
2.7377,-1.076,-7.8045,0.26176,0.043066,0.3149,-7.56,24.72,15.0
5.2575,-1.1305,-10.093,0.17257,-0.012523,0.33781,-7.56,25.02,14.7
3.5822,-2.2337,-7.9679,0.14813,-0.093462,0.35277,-7.44,25.2,14.64
4.4539,-2.4789,-8.4174,0.16616,-0.0015272,0.37629,-7.44,25.44,14.4
5.5026,-3.4051,-8.036,0.087354,-0.15424,0.29902,-7.38,25.56,14.28
4.7944,-3.8546,-8.4446,0.026878,-0.29474,0.31521,-7.26,25.5,14.1
3.732,-3.1872,-6.5105,0.075442,-0.11301,0.22846,-7.14,25.92,13.74
5.5435,-1.076,-8.9349,0.053756,-0.03543,0.27794,-7.2,25.92,13.38
5.5162,-5.2983,-7.0145,-0.012217,-0.19028,0.23946,-7.26,26.16,13.44
4.018,-2.7649,-6.7829,0.18326,-0.21564,0.32193,-6.9,26.46,13.44
4.0452,-2.5198,-6.7966,0.15913,-0.000916,0.13011,-6.72,26.7,13.38
5.0259,-3.5277,-7.8589,0.12981,-0.15852,0.32926,-6.66,26.88,13.32
4.6718,-3.2553,-7.7227,0.086743,-0.087354,0.13928,-6.3,27.18,13.08
2.942,-1.5936,-7.1915,0.1689,-0.041844,0.25015,-6.0,27.12,13.26
4.304,-1.4165,-9.0303,0.099266,0.021075,0.23305,-5.64,27.54,13.32
4.6445,-4.6854,-7.4095,-0.014661,-0.12889,0.25168,-5.46,27.72,13.44
4.5628,-2.833,-8.0088,0.050091,-0.064141,0.26114,-5.34,27.9,13.32
3.9227,-3.2689,-6.5378,-0.023824,0.076664,0.1405,-5.1,28.14,13.38
6.565,-3.5277,-8.1995,-0.1127,0.15974,0.09163,-4.74,28.38,13.44
4.5901,-3.9499,-6.96,0.016493,0.089186,0.15333,-4.56,28.44,13.68
4.1133,-5.2438,-7.4095,-0.10049,0.11942,0.044593,-4.38,28.38,13.5
4.7671,-4.4811,-7.7772,-0.13958,0.23427,-0.016188,-4.38,28.5,13.38
5.2847,-1.3484,-7.8589,-0.087659,0.31612,-0.038179,-4.38,28.44,13.5
4.9306,-1.8796,-7.2596,-0.064141,0.18906,0.074831,-4.26,28.44,13.38
5.8295,-4.6037,-8.9349,-0.094379,0.15577,-0.069944,-4.14,28.68,13.5
5.2166,-3.6911,-7.6683,-0.12584,0.0033598,-0.11515,-4.32,28.74,13.44
3.3915,-1.2803,-6.2381,0.08491,0.2697,-0.027489,-4.32,28.68,13.5
7.8726,-5.7614,-7.9679,-0.2755,0.13836,-0.24068,-4.56,28.56,13.14
3.9908,-4.7126,-7.355,-0.097128,-0.069028,0.097433,-4.68,28.44,13.2
4.9442,-2.0022,-8.6489,-0.17135,0.14142,-0.25473,-4.8,28.26,13.26
5.203,-4.1542,-7.4776,-0.12675,0.038179,0.015272,-4.92,28.26,13.14
6.7012,-4.9714,-8.6625,-0.29444,0.11484,-0.29444,-5.04,28.26,13.08
3.8273,-3.1327,-7.0962,-0.080023,0.23457,-0.11423,-5.16,28.2,13.14
6.6059,-3.3097,-8.2676,-0.29963,0.32132,-0.30207,-5.34,28.02,13.14
5.2438,-3.8682,-7.0962,-0.23366,0.24923,-0.3146,-5.46,27.96,13.32
4.7399,-3.6775,-7.3958,-0.14539,0.12156,-0.11118,-5.7,27.9,13.26
5.4209,-4.413,-6.7693,-0.21625,0.1967,-0.30391,-6.24,27.48,13.44
5.38,-3.5685,-7.1507,-0.21655,0.11484,-0.27825,-6.42,27.3,13.5
5.9657,-3.4732,-7.5321,-0.28375,0.08827,-0.40806,-6.48,27.06,13.44
5.0395,-3.3778,-7.3822,-0.28069,0.097433,-0.32926,-6.66,26.82,13.44
5.5162,-2.9556,-7.6683,-0.33903,0.092241,-0.27978,-7.02,26.52,13.56
4.9442,-2.0567,-8.1586,-0.26267,0.09499,-0.22877,-7.14,26.4,13.56
5.3119,-2.0567,-8.8805,-0.33811,-0.020159,-0.1744,-7.44,26.1,13.74
4.9306,-3.4732,-7.7091,-0.24343,-0.10873,-0.14661,-7.8,25.68,13.74
3.8273,-1.4982,-7.2869,-0.10965,0.062308,-0.17471,-7.98,25.5,13.74
3.9771,-1.076,-8.2267,-0.015882,0.091019,0.1069,-8.28,25.14,13.8
7.3686,-3.9771,-9.9156,-0.050702,-0.047647,0.13989,-8.46,25.08,13.56
4.8352,-2.152,-8.3765,-0.07086,-0.24343,0.019853,-8.64,25.14,13.56
2.9692,-0.78998,-7.0009,0.089797,-0.063835,0.000916,-8.58,25.08,13.5
3.909,-1.1713,-7.0826,0.029016,-0.031765,0.17715,-8.7,24.96,13.44
7.069,-2.3427,-10.052,0.06353,-0.28924,0.14325,-8.88,24.96,13.44
5.3119,-1.7298,-8.7715,0.24679,-0.17379,0.14416,-9.06,25.08,13.44
6.3198,-0.1362,-10.025,0.21105,-0.15333,0.21075,-8.76,25.14,13.5
5.1076,-2.7104,-8.4991,0.23243,-0.22602,0.33292,-8.76,25.26,13.44
4.2087,-1.7298,-9.2755,0.28924,-0.2135,0.41783,-8.64,25.56,13.38
5.9793,-2.4244,-8.5672,0.18173,-0.058948,0.35247,-8.64,25.74,13.32
3.6775,-2.3291,-7.7636,0.21869,-0.12584,0.49908,-8.52,25.8,13.38
6.8102,-4.699,-8.2948,0.010079,-0.21777,0.40653,-8.34,26.16,13.32
3.5413,-2.5061,-8.0224,0.087354,-0.19242,0.49388,-8.04,26.4,13.32
5.9521,-4.0725,-7.75,0.013439,-0.086437,0.35613,-7.68,26.46,13.38
4.1814,-3.1872,-7.2596,0.12278,-0.24587,0.49052,-7.56,26.52,13.26
6.4288,-3.7047,-8.0905,-0.000916,-0.13042,0.2697,-6.96,26.88,13.38
4.522,-4.6854,-6.4016,0.1741,-0.23732,0.37751,-6.78,26.94,13.38
5.6933,-3.2144,-8.7034,0.0039706,-0.090408,0.079718,-6.3,27.18,13.32
5.3528,-3.2553,-8.3084,-0.0015272,-0.26176,0.19578,-6.06,27.42,13.38
4.9033,-3.6366,-8.6081,-0.10599,-0.24007,0.19487,-5.76,27.54,13.56
4.9033,-3.9499,-7.6138,-0.13134,-0.15577,0.15608,-5.46,27.6,13.44
3.8682,-2.0022,-8.1041,-0.11423,0.027794,0.21838,-5.1,27.66,13.68
4.7126,-3.228,-7.5729,-0.10934,-0.036041,0.22877,-4.62,27.96,13.62
4.3721,-2.4789,-8.322,-0.081551,0.0097738,0.28375,-4.38,27.9,13.74
4.6718,-3.2825,-7.0281,-0.014966,-0.014966,0.24923,-3.9,28.02,13.98
4.9169,-3.9908,-7.5048,-0.055283,0.039706,0.17165,-3.84,28.2,14.04
5.2711,-4.2223,-8.1586,-0.12523,-0.0067195,0.041844,-3.66,28.26,14.22
3.6639,-2.6423,-7.2733,-0.01069,-0.039095,0.10965,-3.54,28.38,14.46
5.1894,-2.3155,-8.2267,-0.11576,0.15547,-0.086743,-3.48,28.32,14.64
5.8431,-4.5764,-7.3005,-0.19028,0.0281,-0.12859,-3.48,28.26,14.7
5.0804,-2.6287,-6.8647,-0.14936,0.24129,-0.30329,-3.36,28.32,14.82
5.9112,-1.6072,-8.0632,-0.10507,0.17929,-0.22144,-3.42,28.14,14.82
8.0632,-2.9829,-8.826,-0.22907,0.01069,-0.23518,-3.54,28.14,15.0
4.7671,-3.2961,-8.6081,-0.13103,-0.062614,-0.21411,-3.72,28.2,15.06
5.4754,-3.0918,-7.7227,-0.27336,0.16707,-0.42425,-3.66,27.96,15.18
4.2904,-3.3642,-6.3607,-0.057116,0.16402,-0.24709,-3.84,27.78,15.18
6.0474,-3.5413,-8.4855,-0.27,0.021686,-0.47861,-4.14,27.54,15.36
3.1872,-2.7377,-7.246,-0.045204,-0.039706,-0.15547,-4.26,27.24,15.3
3.6911,-1.7706,-8.6217,-0.22083,0.21961,-0.39065,-4.32,27.0,15.3
4.413,-4.5628,-7.0145,-0.086132,0.051313,-0.19517,-4.38,26.64,15.36
4.5764,-3.9227,-7.8181,-0.17807,0.094073,-0.26664,-4.44,26.52,15.36
5.2302,-3.1872,-6.96,-0.18601,0.16554,-0.38576,-4.68,26.52,15.42
5.9249,-3.4459,-8.0769,-0.17654,0.0027489,-0.38026,-4.92,26.16,15.54
6.6876,-3.5413,-8.0632,-0.31857,-0.015272,-0.52015,-5.1,26.04,15.54
5.775,-3.2144,-7.0553,-0.28222,-0.066279,-0.48197,-5.22,25.8,15.42
5.9385,-3.0237,-7.7636,-0.32773,-0.070555,-0.43952,-5.4,25.38,15.36
5.4073,-2.8603,-8.3493,-0.26084,-0.075747,-0.42761,-5.76,25.32,15.42
4.9033,-2.1248,-8.7715,-0.30177,-0.080023,-0.27275,-5.88,25.26,15.48
5.1213,-1.2531,-8.3493,-0.23915,0.15333,-0.17776,-6.18,25.08,15.42
4.9987,-0.91256,-8.0632,-0.086437,0.12309,-0.083994,-6.42,25.02,15.54
5.1213,-0.89894,-7.7636,0.092546,0.0061087,0.032681,-6.66,24.96,15.48
5.9521,-2.2474,-8.6625,0.1295,-0.17776,0.033903,-6.9,24.9,15.54
4.9306,-2.3018,-7.7772,0.1405,-0.28924,-0.035125,-7.32,24.66,15.42
3.0237,-0.92618,-7.355,0.27275,-0.034208,-0.088575,-7.26,24.54,15.48
6.1564,-3.9227,-7.4503,0.20372,-0.25626,-0.061087,-7.62,24.42,15.48
4.9987,-2.7377,-8.4991,0.24221,-0.36805,-0.043066,-7.62,24.36,15.42
5.3119,-2.0294,-7.927,0.13256,-0.28222,-0.12828,-7.68,24.36,15.54
3.337,-1.2667,-7.7636,0.12706,-0.21044,0.073915,-7.8,24.48,15.42
5.6116,-1.8932,-8.6898,0.13531,-0.24893,-0.035736,-7.8,24.48,15.48
2.3972,-0.65378,-9.1256,0.2645,-0.15638,0.3091,-7.74,24.54,15.3
3.4323,-2.152,-8.0224,0.10996,-0.043982,0.18265,-7.86,24.66,15.12
3.6775,-1.6481,-9.1393,0.27306,0.019853,0.40409,-7.68,24.66,15.0
5.7478,-2.6015,-9.2891,0.32865,0.0048869,0.35064,-7.56,24.78,15.06
2.833,-2.4517,-7.3822,0.36805,0.040623,0.52443,-7.26,24.96,15.0
4.7399,-2.9556,-8.4855,0.26573,-0.0027489,0.41722,-7.14,25.02,14.94
3.8409,-4.0452,-7.1098,0.27672,0.017104,0.50091,-7.02,25.5,14.76
5.1757,-4.0997,-7.8726,0.12828,0.03146,0.34972,-6.84,25.68,14.58
3.7865,-4.2087,-6.3471,0.15669,-0.097128,0.30849,-6.54,26.16,14.46
5.1621,-2.6151,-8.3357,0.017715,0.032376,0.10354,-6.3,26.4,14.4
6.279,-2.6423,-8.3357,0.0027489,-0.090713,0.19548,-6.12,26.46,14.28
4.3449,-3.732,-8.0769,-0.034208,-0.06017,0.20097,-5.7,26.7,14.22
4.6718,-2.833,-7.8998,-0.088881,0.10873,0.10568,-5.58,26.7,14.1
4.9033,-2.5879,-9.4661,-0.044899,0.08491,0.27794,-5.22,26.88,14.16
4.8352,-3.2553,-8.6217,-0.059865,0.1069,0.25137,-5.1,27.0,14.1
3.9771,-2.5334,-8.1858,-0.010385,0.14386,0.26848,-4.98,27.12,14.04
4.2495,-2.5061,-7.1915,-0.0015272,0.1066,0.25107,-5.1,27.24,14.1
5.38,-2.9011,-8.3629,0.094684,0.13653,0.31124,-4.86,27.24,13.92
6.1428,-4.5492,-8.3765,-0.02474,0.051007,0.19456,-4.8,27.24,13.74
3.7592,-3.732,-7.4095,0.040928,0.043066,0.19975,-4.8,27.3,13.8
5.1621,-2.4108,-7.7772,-0.045815,0.14783,0.096517,-4.68,27.3,13.68
6.4969,-3.9227,-7.1915,-0.013134,0.11301,0.11393,-4.62,27.24,13.62
6.4288,-4.0997,-8.4719,-0.11973,0.08491,0.10537,-4.56,27.3,13.68
3.9227,-2.5061,-6.7966,-0.013744,0.14325,0.034819,-4.44,27.36,13.44
7.4776,-2.4517,-9.0031,-0.17593,0.14722,-0.20128,-4.5,27.6,13.56
5.7205,-3.732,-7.3005,0.015882,-0.047647,-0.06017,-4.5,27.6,13.44
7.3005,-3.0782,-8.7851,-0.18998,0.15944,-0.27825,-4.68,27.54,13.26
5.8295,-4.4402,-6.8783,0.062308,0.075747,0.021686,-4.74,27.54,13.14
5.1213,-2.6015,-8.4719,0.021075,0.1011,-0.0085521,-4.86,27.66,13.02
4.6445,-3.514,-6.8374,-0.030238,0.075747,-0.047342,-5.04,27.66,13.08
4.3177,-3.2144,-7.3958,-0.06017,0.24679,-0.076664,-4.98,27.72,13.2
5.6797,-3.2553,-8.0905,-0.1628,0.20403,-0.21289,-5.1,27.54,13.14
4.522,-4.3858,-7.069,-0.11393,0.2022,-0.14416,-5.4,27.48,13.14
6.2517,-4.5356,-7.7091,-0.17257,0.14172,-0.29841,-5.58,27.48,13.26
3.7865,-5.0259,-5.7342,0.013744,0.081551,-0.16432,-5.64,27.36,13.32
7.069,-3.4459,-8.6353,-0.22571,0.20311,-0.42455,-5.94,27.18,13.32
5.0531,-4.7399,-6.7421,-0.025045,0.010996,-0.20769,-6.12,27.06,13.14
4.4402,-4.6854,-6.9328,-0.096822,0.31551,-0.27947,-6.12,27.18,13.32
4.8625,-3.6503,-7.3414,-0.15882,0.41386,-0.3488,-6.06,27.36,13.38
4.6718,-3.5549,-8.3765,-0.18051,0.099266,-0.21533,-6.06,27.24,13.44
5.6116,-2.8739,-8.2131,-0.044899,0.14844,-0.2642,-6.18,27.12,13.44
4.0725,-2.4789,-8.0905,-0.035736,0.13775,-0.13225,-6.42,26.94,13.38
4.3994,-3.0782,-8.4038,-0.048258,0.21228,-0.039706,-6.66,26.82,13.32
5.094,-3.1191,-9.2482,-0.051313,0.14508,0.042455,-6.78,26.88,13.26
6.1973,-2.438,-8.431,-0.049786,0.075442,-0.015882,-6.96,26.82,13.26
4.9306,-2.0022,-7.7091,0.071471,0.10476,-0.11393,-7.08,26.76,13.14
4.9714,-1.5527,-7.4231,0.050702,0.04612,-0.045509,-7.26,26.88,13.08
5.1485,-2.2882,-8.1041,0.027184,0.030543,0.007025,-7.5,27.0,13.02
8.2131,-3.0918,-9.0575,-0.19242,-0.18021,-0.079107,-7.86,27.0,13.08
3.7047,-1.3757,-6.9328,-0.044288,-0.16738,-0.065057,-8.1,26.88,12.9
5.2847,-1.5527,-8.0632,-0.29016,-0.19364,0.11698,-8.34,26.7,12.84
4.6037,-1.6481,-8.4855,-0.13928,-0.2868,0.22724,-8.76,26.64,12.54
5.1894,-1.4165,-9.4389,-0.23915,-0.23885,0.24404,-8.76,26.52,12.54
5.5162,-1.6208,-8.5808,-0.12889,-0.27214,0.32681,-8.88,26.58,12.54
5.7614,-2.152,-9.7522,-0.018326,-0.34331,0.41722,-8.82,26.7,12.54
3.5685,-1.9613,-7.1098,0.23518,-0.14966,0.40897,-8.82,26.7,12.54
3.5413,-2.0158,-8.2267,0.089797,-0.14478,0.34392,-8.58,26.76,12.54
3.6911,-4.1678,-5.7886,0.35369,-0.14447,0.4945,-8.46,26.82,12.6
3.0101,-2.6151,-7.6955,0.31429,-0.023824,0.5003,-8.34,26.82,12.48
7.0553,-5.5571,-7.927,0.043677,-0.23335,0.34239,-8.22,27.0,12.48
3.9227,-3.7865,-8.2812,0.06017,-0.24251,0.43768,-7.68,27.06,12.36
4.5083,-4.0589,-6.9328,0.014966,-0.069028,0.26542,-7.5,27.18,12.42
3.7592,-3.7728,-6.8647,0.077274,-0.040317,0.39859,-7.14,27.36,12.42
5.0531,-4.5901,-7.6274,-0.026878,-0.12828,0.19731,-6.54,27.78,12.6
3.4187,-2.7922,-7.7091,0.022297,-0.14905,0.27794,-6.3,27.9,12.66
4.6582,-2.3699,-8.0905,-0.081551,0.026573,0.18967,-5.94,28.02,12.66
4.4947,-3.2008,-7.8453,-0.013744,-0.055589,0.37629,-5.7,28.26,12.72
4.8625,-3.3097,-8.0905,-0.023824,-0.020464,0.31093,-5.34,28.56,12.6
4.0589,-2.6287,-8.5808,0.04948,0.019853,0.4215,-5.16,28.68,12.6
5.1621,-4.6445,-8.8668,-0.09499,-0.076969,0.30604,-4.98,28.8,12.78
4.3858,-2.9284,-7.1507,-0.051007,-0.090408,0.14752,-4.92,28.92,12.9
4.5356,-2.2882,-6.3062,-0.043371,0.089797,0.13195,-4.56,28.92,12.9
4.7671,-3.1735,-6.7421,-0.17135,0.031154,0.16952,-4.5,28.92,12.96
5.598,-3.8001,-8.2676,-0.20739,0.068722,0.05681,-4.14,28.86,13.02
4.7126,-2.1929,-7.4367,-0.19823,0.052534,0.030849,-4.08,28.92,13.08
6.8238,-2.8058,-9.0575,-0.25626,0.0030543,-0.054367,-4.08,28.74,13.38
5.6388,-2.7513,-8.1995,-0.27184,-0.058032,-0.1347,-3.96,28.68,13.38
5.3392,-2.547,-7.9543,-0.17868,-0.01741,-0.074526,-3.9,28.74,13.44
6.565,-2.4789,-7.5457,-0.22571,0.12034,-0.19548,-3.78,28.68,13.56
5.7069,-2.9284,-7.4776,-0.16402,-0.063835,-0.13195,-3.66,28.56,13.62
7.1371,-3.8954,-7.8589,-0.21472,-0.15638,-0.26176,-3.66,28.38,13.92
5.3664,-3.5822,-6.8374,-0.11881,-0.014355,-0.28466,-3.72,28.38,13.98
5.0668,-3.6775,-6.7966,-0.16249,0.054062,-0.39095,-3.72,28.02,14.16
5.0531,-3.7047,-7.464,-0.12401,-0.024435,-0.26359,-3.78,27.9,14.34
5.8704,-4.0316,-8.3084,-0.25259,-0.0067195,-0.3543,-3.78,27.84,14.52
3.6911,-4.1406,-7.0962,-0.16005,0.043677,-0.2306,-4.08,27.6,14.82
5.203,-3.337,-7.6819,-0.3317,0.34086,-0.4667,-4.2,27.6,14.88
4.5083,-4.0861,-7.1779,-0.26603,0.20678,-0.38454,-4.32,27.42,14.82
4.6718,-3.8546,-7.9679,-0.22388,0.24099,-0.43005,-4.44,27.06,15.12
5.2575,-4.0589,-7.927,-0.27122,0.096517,-0.39951,-4.68,26.82,15.3
4.5492,-3.2144,-7.5321,-0.146,0.26909,-0.44227,-4.92,26.76,15.36
5.9657,-3.5004,-7.4367,-0.19975,0.28039,-0.51618,-5.28,26.52,15.42
4.5356,-3.7865,-7.6683,-0.066584,0.08094,-0.46578,-5.4,26.4,15.48
4.413,-2.1384,-7.8998,-0.031765,0.027794,-0.52931,-5.58,26.28,15.6
4.304,-1.3757,-7.7908,-0.0088575,0.081856,-0.36316,-5.76,26.1,15.54
6.1973,-2.3836,-8.4038,-0.15058,-0.13439,-0.27703,-6.3,25.8,15.6
4.4811,-1.6753,-7.1234,0.045509,-0.17929,-0.3146,-6.54,25.68,15.54
3.9363,-1.4982,-7.6002,0.01405,-0.19517,-0.15363,-6.72,25.74,15.54
6.3198,-2.0567,-9.8203,-0.0027489,-0.17776,-0.13134,-6.96,25.32,15.42
6.456,-2.0839,-9.221,0.0079412,-0.30268,-0.18601,-6.96,25.26,15.48
4.4675,-1.6344,-6.96,0.16799,-0.097738,-0.16738,-7.08,25.2,15.48
8.4855,-3.0373,-8.9349,-0.021991,-0.16005,-0.066584,-7.44,25.08,15.18
5.2575,-2.8194,-7.4776,0.16738,-0.29596,0.021686,-7.5,24.96,15.18
3.5413,0.61292,-9.0712,0.030543,-0.19578,-0.024435,-7.62,25.02,14.94
7.2596,-2.0975,-8.8124,-0.029016,-0.091935,0.18021,-7.56,25.02,15.06
2.9284,-0.31327,-9.902,0.14813,-0.32895,0.17013,-7.62,24.9,15.0
5.5843,-2.261,-7.641,0.20433,-0.12339,0.34453,-7.68,25.08,14.88
2.9556,-1.4438,-8.6353,0.14142,-0.23854,0.37293,-7.44,25.08,14.88
4.7944,-2.9148,-8.3493,0.14966,-0.1686,0.34361,-6.96,25.32,14.82
2.5061,-2.3563,-7.3414,0.25534,-0.077274,0.48045,-6.78,25.32,14.82
5.2847,-3.0237,-9.3027,0.0094684,-0.03146,0.38729,-6.42,25.62,14.82
3.6503,-3.0237,-7.9679,0.11729,-0.077274,0.45693,-6.24,25.86,14.76
4.4947,-3.2553,-7.6138,0.087048,0.0067195,0.44654,-6.0,26.04,14.7
4.4947,-3.2553,-7.6138,0.1066,0.035736,0.3879,-5.7,26.22,14.76
5.6797,-5.8976,-8.2676,0.051313,-0.19578,0.35552,-4.92,26.46,14.58
3.7047,-2.8194,-7.0145,0.14569,-0.069639,0.21166,-4.38,26.64,14.76
4.9442,-2.5606,-7.246,0.12431,0.060476,0.20372,-4.32,26.88,14.88
5.0804,-2.4789,-7.6683,0.20128,-0.058643,0.21777,-4.26,27.12,14.88
4.9306,-2.5742,-8.1858,0.15852,-0.1182,0.22816,-4.08,27.24,14.94
3.9227,-1.7979,-9.4798,0.14661,-0.020159,0.37568,-3.9,27.48,14.88
6.0611,-3.1191,-9.9292,-0.038485,-0.014661,0.22663,-3.66,27.48,14.88
4.2768,-2.833,-7.4095,0.051313,-0.084299,0.22907,-3.78,27.6,14.76
4.4675,-2.4244,-7.5321,0.016799,0.074526,0.20708,-3.84,27.72,14.82
5.8159,-4.3858,-8.1858,-0.022907,0.014966,0.18234,-4.02,28.02,14.64
4.9987,-3.9908,-8.3629,-0.0094684,-0.068111,0.1127,-3.84,27.96,14.34
3.4323,-3.4187,-6.0202,-0.091324,0.040012,0.10171,-3.78,28.02,14.22
3.9908,-2.4517,-7.4095,0.053451,0.21533,0.19364,-3.72,28.02,14.16
6.4152,-3.4868,-8.6081,-0.040623,0.07025,0.099266,-3.78,27.96,14.28
4.3177,-2.4925,-8.145,0.0045815,0.12828,0.17349,-3.9,27.96,14.16
5.6524,-3.5822,-7.1234,-0.097738,0.16127,-0.051007,-3.96,28.08,14.1
4.1406,-3.2008,-6.6331,0.078496,0.073915,0.135,-4.2,28.08,14.1
5.993,-4.018,-7.927,-0.11087,0.12798,-0.15669,-4.2,28.14,14.28
5.0531,-3.3234,-7.0281,-0.0094684,0.093768,-0.0048869,-4.14,28.14,14.34
7.6683,-2.9692,-7.8998,-0.24709,0.21625,-0.36896,-4.26,28.08,14.7
4.5356,-3.8546,-7.5184,-0.027794,-0.015577,-0.051924,-4.38,27.96,14.7
5.884,-2.5742,-8.1586,-0.1967,0.16157,-0.40989,-4.56,27.9,14.76
5.3119,-3.7047,-8.4719,-0.14844,0.071777,-0.21044,-4.68,27.84,15.0
5.1894,-4.6037,-7.5457,-0.26878,0.1066,-0.34544,-4.68,27.72,15.0
4.2768,-4.3585,-6.674,-0.19273,0.18234,-0.35491,-4.62,27.66,15.12
5.38,-4.2359,-8.0632,-0.29199,0.13836,-0.42486,-4.74,27.54,15.18
5.5435,-4.0997,-7.927,-0.20739,0.051924,-0.44776,-4.74,27.48,15.18
4.3721,-3.1463,-7.7636,-0.197,0.18204,-0.405,-4.74,27.42,15.06
4.6582,-3.337,-6.7966,-0.25687,0.25687,-0.48197,-5.04,27.12,15.06
4.4947,-3.1191,-7.4912,-0.17349,0.29047,-0.40592,-5.28,26.82,15.18
5.2302,-3.4459,-7.6002,-0.208,0.16585,-0.41325,-5.4,26.76,15.3
5.4209,-2.3836,-8.5127,-0.20769,0.10934,-0.39462,-5.7,26.7,15.24
6.851,-2.833,-8.826,-0.31429,-0.011301,-0.45937,-5.88,26.58,15.24
4.7944,-2.8603,-7.1915,-0.11087,-0.15944,-0.39798,-6.48,26.4,15.36
