Ax,Ay,Az,Gx,Gy,Gz,Mx,My,Mz
8.3629,-1.3757,-3.4732,0.018937,0.45601,0.007025,-35.52,-22.44,20.88
9.9973,-2.8739,-3.0782,0.042455,0.54184,-0.030849,-35.46,-22.44,20.52
8.7987,-3.3778,-2.9965,0.045815,0.39676,0.025351,-35.52,-22.38,20.4
7.927,-2.7241,-2.7649,0.092241,0.40684,-0.024129,-35.4,-22.32,20.04
9.4253,-3.8137,-2.6832,0.14355,0.36255,-0.051924,-35.34,-22.2,19.74
10.161,-5.2983,-3.0646,0.14691,0.25717,-0.17471,-35.16,-22.2,19.74
6.0338,-3.2825,-2.8194,0.1518,0.32529,-0.058948,-35.22,-22.2,19.56
4.9033,-1.9886,-2.3427,0.22633,0.61117,-0.13408,-35.22,-22.08,19.2
4.9033,-1.9886,-2.3427,0.19761,0.26237,-0.12737,-35.22,-22.08,19.2
8.145,-3.7047,-3.5822,0.08827,0.29749,-0.15791,-35.22,-21.96,18.96
8.1177,-3.6094,-3.7047,0.013744,0.49114,-0.096822,-35.1,-21.78,18.6
8.6353,-3.6639,-3.3097,-0.029016,0.64171,-0.1014,-34.92,-21.78,18.42
11.196,-5.775,-3.5685,-0.050091,0.48167,-0.12706,-34.62,-21.6,18.18
7.0417,-2.0567,-4.699,-0.13225,0.26573,-0.069639,-34.32,-21.54,17.58
7.7908,-1.6072,-2.9556,-0.14508,0.39004,0.05284,-34.32,-21.18,17.1
11.346,-3.3506,-2.833,0.0051924,0.85185,-0.025351,-34.44,-21.18,16.5
9.3708,-2.7241,-3.514,-0.036346,0.56505,-0.034819,-34.5,-21.06,15.96
7.8045,-1.7298,-3.5413,-0.097433,0.57941,0.11057,-34.44,-20.94,15.72
11.754,-5.2847,-1.5119,-0.035125,0.74556,0.032376,-34.8,-20.88,15.06
8.0088,-2.4244,-3.8137,-0.076664,0.5006,-0.11118,-34.98,-20.7,14.34
6.7421,-2.9284,-2.3155,-0.1576,0.48167,0.28986,-35.16,-20.64,13.68
11.795,-3.8818,-3.1327,-0.095295,0.72113,0.019242,-35.4,-20.46,12.78
8.0769,0.12258,-4.2495,-0.35858,0.28955,0.219,-35.76,-20.28,12.36
8.4038,-1.5119,-2.1384,-0.2251,0.88148,0.29169,-35.76,-20.34,12.12
11.319,-5.3528,-2.942,-0.28833,0.55558,0.13286,-35.94,-20.1,11.46
7.7227,-2.6696,-2.4789,-0.28924,0.48289,0.1857,-36.12,-19.98,10.74
7.0009,-1.185,-2.3972,-0.26481,0.80054,0.43219,-36.18,-19.8,10.08
15.704,-7.355,-1.5663,-0.18295,0.63713,0.26176,-36.12,-19.5,9.36
11.182,-7.0417,-3.8546,-0.40959,0.029627,0.37477,-36.18,-19.38,8.94
5.884,0.040861,-2.8467,-0.47403,0.57269,0.40959,-36.3,-19.2,8.22
11.959,-3.1463,-0.58567,-0.34422,0.75228,-0.043677,-36.18,-19.14,7.86
9.6704,-4.413,-2.9965,-0.48258,0.18357,0.4835,-36.3,-18.72,7.38
8.9622,-3.7047,-2.0567,-0.54459,0.46242,0.42791,-36.12,-18.48,6.18
10.488,-3.909,-1.9477,-0.52748,0.53267,0.34911,-36.12,-18.42,5.94
9.5887,-1.6617,-3.0237,-0.63866,0.23213,0.37293,-35.94,-18.18,5.22
9.507,-3.3778,-1.7298,-0.60659,0.38882,0.35797,-35.82,-18.0,4.86
8.9622,-4.0861,-3.1872,-0.67745,0.18845,0.27336,-35.82,-17.76,4.08
8.3493,-2.6423,-3.732,-0.73823,0.27245,0.17776,-35.76,-17.64,3.48
11.291,-4.6854,-2.4108,-0.73426,0.50885,0.26145,-35.82,-17.28,2.94
10.379,-4.7671,-3.1735,-0.83414,0.19975,0.1573,-35.76,-17.22,2.64
8.3357,-2.7241,-3.228,-0.91966,0.31398,0.23702,-35.82,-17.22,1.98
12.054,-4.8352,-2.4517,-0.9444,0.4386,0.040012,-35.94,-17.16,1.32
8.54,-3.2825,-3.3778,-1.1051,0.15363,0.046426,-35.94,-16.98,0.9
10.569,-2.2337,-3.0918,-1.2074,0.24557,-0.095906,-36.06,-16.92,0.72
9.7658,-3.3778,-1.3484,-1.1026,0.27306,0.12095,-36.06,-16.74,0.12
9.4117,-5.1894,-2.7649,-1.0562,-0.094684,-0.0030543,-35.88,-16.5,-0.24
7.2052,-3.2008,-3.0646,-1.0553,-0.11423,0.19975,-35.94,-16.38,-0.42
10.215,-2.4108,-1.1577,-0.97616,0.34086,0.33659,-35.88,-16.26,-0.66
10.692,-5.5435,-1.7434,-0.77763,-0.0562,0.12737,-35.88,-16.08,-0.96
7.1915,-3.0101,-1.9613,-0.74556,-0.16677,0.11668,-36.0,-15.6,-1.32
8.3084,-2.4789,-1.6072,-0.71288,0.067501,0.12309,-36.06,-15.42,-1.38
10.515,-4.3994,-1.866,-0.63499,-0.069639,0.04948,-36.18,-15.48,-1.62
9.2755,-2.438,-3.1463,-0.69975,-0.25137,0.036957,-36.36,-15.24,-1.86
9.0848,-2.3427,-2.3427,-0.67073,-0.17593,0.012217,-36.54,-15.18,-1.8
8.6762,-1.6753,-2.7241,-0.64813,-0.20433,0.09896,-36.66,-15.12,-1.74
10.706,-4.0452,-3.0646,-0.61758,-0.343,-0.03146,-36.72,-15.24,-1.68
8.6353,-1.9886,-2.7104,-0.65973,-0.32834,0.093462,-36.96,-15.12,-1.5
11.141,-5.2302,-1.6889,-0.50916,-0.11606,0.0058032,-37.02,-15.12,-1.32
8.036,-1.2803,-2.8603,-0.55772,-0.34575,0.084605,-37.08,-15.12,-0.9
11.427,-4.4539,-3.0237,-0.51985,-0.18631,0.044288,-37.26,-15.18,-0.54
8.2539,-1.8932,-3.3506,-0.55314,-0.31062,0.12065,-37.32,-15.06,-0.24
10.515,-2.3018,-2.5742,-0.49236,-0.091935,0.066584,-37.5,-14.76,0.12
11.019,-3.6366,-2.5198,-0.44654,-0.22083,0.059865,-37.38,-14.64,0.3
7.5457,-1.3212,-3.0646,-0.47464,-0.24435,0.13714,-37.62,-14.58,0.6
11.673,-5.8295,-3.1463,-0.40195,-0.13867,0.036957,-37.92,-14.46,1.02
6.0202,-1.1577,-3.6775,-0.48778,-0.43463,-0.040317,-38.04,-14.16,0.84
6.9464,-0.89894,-2.9011,-0.44043,0.041539,0.065973,-38.1,-14.22,0.9
8.54,-3.1599,-1.7979,-0.38546,-0.047953,0.078496,-38.1,-14.16,0.96
10.161,-3.732,-2.9011,-0.42577,-0.2865,-0.002138,-38.34,-14.04,0.9
9.0848,-5.3937,-2.6015,-0.40164,-0.22846,-0.058338,-38.28,-14.1,1.02
4.018,-1.1577,-2.8058,-0.42883,-0.076053,0.17562,-38.46,-13.92,1.14
14.615,-6.7693,-1.9477,-0.33934,0.19578,0.015577,-38.46,-14.1,1.26
13.334,-8.4174,-2.9284,-0.32742,-0.29016,-0.37904,-38.52,-14.1,1.32
3.2553,0.20431,-3.0237,-0.38454,0.0015272,0.022907,-38.58,-14.1,1.32
10.256,-2.152,-1.6617,-0.20525,0.49724,-0.09163,-38.7,-14.16,1.44
14.601,-5.9249,-3.8001,-0.30329,-0.42944,-0.41172,-38.76,-14.28,1.62
3.9635,-0.32689,-4.0725,-0.41294,-0.63713,-0.079718,-38.94,-14.22,1.86
4.7535,0.46309,-3.0782,-0.38943,0.14783,-0.0051924,-39.12,-14.22,1.92
14.901,-4.4539,-2.5198,-0.36346,0.25381,-0.20831,-39.24,-14.22,2.04
9.6568,-3.4187,-3.8954,-0.42272,-0.71257,-0.068111,-39.18,-14.52,2.04
7.2596,-2.8739,-3.4459,-0.40592,-0.42394,-0.12278,-39.6,-14.58,2.1
9.1256,-1.1441,-2.6696,-0.38179,0.056505,-0.07025,-39.54,-14.58,2.16
12.245,-3.337,-2.3836,-0.31948,-0.11606,-0.30513,-39.54,-14.76,2.4
5.9249,-0.44947,-3.3097,-0.28711,-0.51588,-0.10385,-39.54,-14.88,2.64
7.3141,-0.47671,-2.9965,-0.26664,-0.11423,-0.040317,-39.66,-14.94,2.76
11.659,-2.5742,-2.8603,-0.18143,-0.26573,-0.075747,-40.08,-15.06,3.06
7.8045,-1.0896,-3.4596,-0.17287,-0.50732,0.03146,-40.02,-15.36,3.42
8.2539,-1.2258,-3.4051,-0.11759,-0.29291,0.043066,-40.2,-15.36,3.9
10.542,-3.1735,-3.0101,-0.074831,-0.2981,-0.0281,-40.38,-15.42,4.26
9.2891,-2.9965,-3.7456,-0.096211,-0.61758,-0.10537,-40.2,-15.54,4.38
5.7069,-0.91256,-3.1463,0.017104,-0.19059,0.22144,-40.14,-15.54,4.74
13.579,-5.1349,-4.2632,-0.017715,-0.49175,-0.16799,-40.2,-15.36,5.28
9.7522,-2.2882,-4.9578,-0.078802,-0.75228,-0.20769,-40.32,-15.54,5.58
8.4038,-2.5742,-2.8058,-0.0097738,-0.35919,-0.041844,-40.32,-15.6,6.06
10.311,-3.0646,-3.5685,0.028405,-0.27794,0.19303,-40.08,-15.72,6.6
14.356,-4.6445,-3.9635,0.024129,-0.51588,-0.18967,-40.02,-15.78,6.84
4.3449,-0.14982,-3.623,0.013134,-0.71166,0.022907,-39.72,-15.84,7.38
11.073,-3.4732,-3.5958,0.047647,-0.27367,-0.042761,-39.72,-15.72,7.8
12.136,-4.5083,-3.8546,0.07025,-0.40134,-0.029932,-39.72,-15.78,8.1
4.2223,-0.19068,-3.0237,0.14294,-0.36591,0.24496,-39.72,-15.84,8.76
7.9679,-1.4438,-3.2961,0.24068,-0.049175,0.17074,-39.78,-15.84,9.3
11.155,-5.4481,-4.4675,0.23396,-0.27855,-0.0039706,-39.66,-15.78,9.54
5.6933,-0.36775,-3.8137,0.21655,-0.32865,0.10965,-39.42,-15.6,9.96
8.3629,-4.1814,-3.6094,0.24587,0.043982,0.0033598,-39.36,-15.6,10.2
7.3822,-3.5685,-3.2825,0.16799,-0.14294,-0.17746,-39.42,-15.54,10.5
10.134,-3.7047,-4.2087,0.07422,-0.35461,-0.42394,-39.42,-15.36,10.62
5.1213,-1.9068,-3.5413,0.077274,-0.26023,-0.12095,-39.42,-15.48,10.92
10.896,-2.0839,-5.2302,-0.0054978,-0.29841,-0.37874,-39.54,-15.42,11.28
8.3765,-1.6344,-5.1213,-0.062308,-0.32376,-0.072388,-39.48,-15.6,11.28
9.7249,-3.623,-4.5764,-0.099571,-0.16738,-0.18448,-39.42,-15.54,11.4
7.2188,-2.547,-4.4539,-0.072388,-0.16188,0.0036652,-39.48,-15.9,11.52
11.019,-3.5277,-5.2575,-0.06017,-0.065973,-0.039706,-39.6,-16.02,11.58
9.398,-3.3506,-5.0259,-0.022602,-0.10721,0.096517,-39.48,-16.02,11.88
7.2869,-1.1986,-4.6037,-0.029322,0.000916,0.21961,-39.42,-15.96,11.94
14.942,-8.9349,-5.9112,-0.057421,-0.29993,-0.33445,-39.48,-16.26,12.06
1.0079,-1.2531,-3.4187,-0.10049,-0.1295,0.2868,-39.48,-16.44,12.24
3.3506,2.2201,-2.8739,0.011301,0.38851,0.16982,-39.36,-16.5,12.3
13.416,-2.6423,-3.8001,0.15516,0.40195,-0.22907,-39.42,-16.44,12.3
8.8941,-1.5119,-4.7535,0.040928,-0.34728,-0.16524,-39.48,-16.62,12.36
6.3607,-0.76274,-4.1133,0.000305,-0.22174,-0.088881,-39.54,-16.38,12.54
8.8941,-2.0022,-3.6094,-0.03146,0.12981,-0.16371,-39.42,-16.32,12.72
10.093,-2.5061,-4.018,-0.013134,-0.0281,-0.2138,-39.54,-16.44,12.72
9.112,-2.3427,-4.4266,-0.019548,-0.1347,-0.2025,-39.66,-16.44,12.66
10.065,-2.1248,-4.699,-0.072388,0.022602,-0.1066,-39.9,-16.68,12.78
13.239,-4.3449,-4.4539,-0.071166,0.057421,-0.35675,-40.08,-16.68,12.84
7.8726,-2.1656,-4.2768,-0.053756,0.076664,-0.21716,-39.96,-16.5,13.02
7.8453,-1.7025,-3.9635,0.0067195,0.67195,0.036346,-40.14,-16.2,13.08
7.8453,-1.7025,-3.9635,-0.037568,1.1958,-0.075747,-40.14,-16.2,13.08
11.387,-4.6037,-4.7399,-0.095906,0.26053,-0.11484,-40.2,-16.32,12.78
10.011,-4.5764,-3.514,-0.078191,0.032376,-0.43891,-40.2,-16.26,12.78
9.507,-5.6116,-0.57205,-0.081245,0.026573,-0.69364,-40.44,-15.96,12.78
8.2539,-3.8954,-0.61292,0.20036,0.47098,-0.75961,-40.56,-15.96,12.48
10.256,-3.909,-1.5391,0.30452,0.20281,-1.0938,-40.74,-15.78,12.36
11.032,-2.7104,-1.866,0.40164,-0.30085,-1.2291,-40.68,-15.54,12.18
10.406,-2.0703,-1.8932,0.52993,-0.50213,-1.4169,-40.68,-15.48,12.06
10.093,-1.6344,-1.8524,0.68081,-0.38454,-1.5828,-40.68,-15.24,11.88
10.12,-0.8717,-1.2122,0.88911,-0.23885,-1.7449,-40.62,-15.12,11.76
10.052,-0.69464,-1.1305,1.1448,-0.19487,-1.8787,-40.68,-15.06,11.76
9.7113,-0.35413,-1.7843,1.3686,-0.15669,-1.9994,-40.74,-15.3,11.76
9.3844,-0.39499,-2.0703,1.5498,-0.085521,-2.0889,-40.8,-15.36,12.0
9.2482,-0.47671,-2.0022,1.7749,0.096822,-2.1044,-40.74,-15.42,12.06
8.7443,-0.62654,-2.2337,1.9041,0.23305,-2.0159,-40.68,-15.78,12.18
8.5808,-0.62654,-2.0294,2.033,0.44104,-1.8925,-40.68,-16.14,12.3
8.4174,-0.58567,-2.0431,2.1573,0.66523,-1.7266,-40.62,-16.38,12.6
7.8453,-0.57205,-3.2553,2.2969,0.83353,-1.5153,-40.62,-17.34,12.84
7.7227,-0.47671,-3.9635,2.2495,0.76175,-1.3607,-40.44,-17.88,12.96
7.5865,-0.40861,-4.3858,2.1936,0.65851,-1.2877,-40.38,-18.54,12.96
7.5865,-0.40861,-4.3858,2.1936,0.65851,-1.2877,-40.38,-18.54,12.96
7.5865,-0.40861,-4.3858,2.1936,0.65851,-1.2877,-40.38,-18.54,12.96
7.246,-2.2201,-9.8748,0.8433,0.31276,-0.61453,-39.78,-20.88,13.02
6.456,-2.1929,-11.237,0.085216,0.22846,-0.4386,-39.48,-21.9,12.9
5.38,-2.1384,-12.898,-0.68783,-0.08094,-0.28008,-39.3,-22.32,12.78
2.0839,-1.0896,-15.895,-1.5788,-0.3934,-0.060781,-39.0,-23.22,12.6
-0.31327,0.24517,-16.957,-2.616,-0.40867,0.40592,-39.0,-23.7,12.36
-1.7025,2.2882,-16.031,-3.8368,-0.44379,1.686,-38.76,-24.36,11.88
-1.0896,2.3291,-14.778,-4.3717,-0.45387,2.6502,-38.58,-24.54,11.46
6.5105,1.6753,-9.3572,-4.6811,-0.18998,3.3201,-38.82,-24.6,10.98
10.637,1.4438,-6.1428,-4.5934,-0.40897,3.6661,-38.82,-24.42,10.8
12.626,0.57205,0.27241,-3.8872,-1.5043,3.9926,-39.06,-23.64,10.14
12.517,-1.6753,2.4108,-2.6435,-2.1231,4.3973,-39.42,-23.16,9.96
13.184,-5.7614,4.0044,-0.67256,-1.4502,4.3148,-39.78,-22.56,9.84
14.247,-12.926,6.851,0.27092,-0.50824,3.5189,-40.26,-21.0,9.84
13.988,-14.642,8.9758,1.025,0.016188,2.4346,-40.5,-20.04,9.84
8.6489,-9.7385,13.266,1.6835,-0.15547,1.5681,-41.04,-17.88,9.96
4.3177,-10.283,7.5729,2.5666,-0.97341,1.1246,-41.28,-16.5,10.2
2.152,-10.488,-2.1248,1.8115,0.58246,0.69761,-41.64,-15.12,10.2
12.64,-3.8682,-7.1507,0.56261,3.2067,-0.045815,-42.36,-12.84,10.5
13.92,-0.54481,-5.8704,0.15119,2.6771,-0.032681,-42.48,-11.64,10.38
8.4446,-6.565,-9.1937,0.14966,1.1551,-0.027794,-42.54,-10.5,10.26
8.0224,-7.4912,-11.223,0.015882,0.39798,-0.30727,-43.2,-8.58,9.9
8.0224,0.95342,-7.3822,0.22816,0.18295,0.15211,-43.44,-7.86,9.66
7.9951,-0.10896,-6.7421,0.21105,0.055283,0.24557,-43.5,-7.08,9.3
11.468,-3.8818,-4.9987,-0.071777,0.49572,-0.066584,-43.68,-5.82,8.22
10.011,-2.6968,-3.3506,-0.31551,0.64324,0.25198,-43.8,-5.4,7.74
10.229,-4.5083,-2.8603,-0.44043,0.72204,0.11545,-43.86,-5.16,7.14
8.7851,-7.1915,-2.8467,-0.57727,0.92271,0.067806,-44.22,-4.86,5.88
8.9894,-3.514,-2.9692,-0.4383,0.72968,0.1686,-44.22,-4.86,5.16
8.1858,-1.1169,-4.1814,-0.42822,0.77152,0.3036,-44.22,-4.86,4.38
10.27,-1.58,-5.884,-0.50274,0.77336,0.077885,-44.4,-4.74,3.06
8.1722,-2.0158,-6.0611,-0.6408,0.58399,0.31857,-44.52,-4.8,2.58
9.9565,-5.8295,-4.3858,-0.63805,0.40561,0.19487,-44.64,-4.86,1.74
9.8339,1.4438,-3.6911,-0.6014,0.41539,0.28436,-44.52,-4.74,1.26
10.215,-4.9033,-4.8352,-0.64232,0.53145,0.18051,-44.46,-4.68,0.9
9.8748,-6.3607,-4.7944,-0.78069,0.31062,0.040317,-44.46,-4.74,0.42
9.8066,-0.027241,-2.2201,-0.6466,0.0281,0.15455,-44.4,-4.62,-0.06
10.229,-7.0962,-2.0294,-0.64446,0.26542,-0.037874,-44.34,-4.56,-0.36
9.9156,-5.1894,-2.4108,-0.65118,0.18143,-0.083383,-44.46,-4.56,-0.66
7.7636,-4.6173,-1.2939,-0.5058,0.20433,0.20556,-44.28,-4.5,-1.14
9.5479,-6.8238,-2.152,-0.5058,0.28253,0.033598,-44.28,-4.5,-1.38
8.826,-1.5391,-3.5277,-0.53451,0.22297,0.12187,-44.34,-4.44,-1.44
9.0303,-5.9249,-3.3778,-0.59651,0.50641,0.21044,-44.16,-4.32,-1.8
10.052,-6.8238,-3.3097,-0.57513,0.42333,0.022602,-43.92,-4.2,-1.92
7.9679,0.44947,-3.6775,-0.46548,0.15394,0.36011,-43.86,-4.08,-1.98
10.188,-8.3629,-4.127,-0.49083,0.61484,0.1237,-43.56,-3.96,-2.16
9.4389,-1.3212,-4.127,-0.47281,0.28344,0.20892,-43.5,-3.9,-2.16
7.1234,1.5119,-3.5004,-0.42944,0.17471,0.37751,-43.5,-3.72,-2.22
9.3436,-8.5127,-3.0646,-0.51007,0.43463,-0.06353,-43.44,-3.78,-2.46
7.8726,0.68102,-2.4517,-0.40012,0.088575,-0.037568,-43.32,-3.72,-2.64
7.4095,-2.9965,-1.6072,-0.31032,0.10873,0.13775,-43.14,-3.6,-2.76
8.6353,-6.0202,-3.514,-0.40867,0.30329,-0.17104,-42.96,-3.18,-3.06
8.6762,-2.9148,-2.833,-0.50305,0.18509,-0.1127,-42.96,-2.94,-3.12
8.3629,-2.7513,-1.8524,-0.46365,0.28711,-0.0064141,-42.84,-2.88,-3.3
9.4117,-5.7886,-2.7241,-0.48411,0.56077,-0.067501,-42.54,-2.7,-3.48
9.5342,-5.4754,-3.0782,-0.55497,0.51771,-0.036041,-42.48,-2.76,-3.6
9.2891,-5.8023,-3.3097,-0.56566,0.38546,-0.0054978,-42.36,-2.82,-3.84
8.6489,-2.0703,-3.0782,-0.49541,0.38057,0.0088575,-42.24,-2.46,-4.08
7.6002,-3.4732,-3.3778,-0.31185,0.33537,0.25504,-42.18,-2.28,-4.26
8.7579,-5.5026,-3.7184,-0.29566,0.47922,0.0085521,-42.06,-2.34,-4.32
9.6432,-2.9965,-3.6775,-0.29841,0.15394,-0.079718,-41.88,-2.04,-4.56
6.5378,-2.8058,-2.6696,-0.21564,-0.0956,0.12187,-41.94,-1.8,-4.56
7.4095,-4.6037,-2.438,-0.10812,0.24007,0.03146,-41.82,-1.74,-4.8
8.826,-3.9635,-2.9284,-0.16616,0.44104,-0.066279,-41.88,-1.8,-4.92
8.0632,-2.7786,-3.3097,-0.31093,0.25901,0.1631,-41.58,-1.62,-5.34
9.112,-4.2632,-3.2553,-0.43005,0.5287,-0.032987,-41.52,-1.5,-5.4
9.8611,-3.5958,-3.5549,-0.54123,0.42547,-0.0054978,-41.34,-1.32,-5.88
8.826,-4.5083,-3.2144,-0.59743,0.32742,0.12798,-41.34,-1.08,-6.06
9.616,-3.3778,-2.9965,-0.55925,0.4218,0.14936,-41.28,-0.96,-6.3
9.2482,-2.0158,-3.4459,-0.49938,0.43005,0.29688,-41.16,-0.78,-6.72
10.406,-4.9169,-3.3778,-0.48564,0.50855,0.016799,-41.04,-0.78,-7.14
9.4934,-2.6015,-3.8682,-0.50946,0.13958,0.11301,-40.92,-0.24,-7.56
6.7966,-3.8409,-2.4244,-0.40775,-0.052534,0.45907,-40.74,-0.18,-7.92
8.2812,-4.7263,-2.4244,-0.29383,0.17593,0.2193,-40.44,-0.18,-8.22
9.3844,-0.88532,-3.3506,-0.32223,0.11454,0.1799,-40.32,0.3,-8.4
7.3686,0.83084,-2.6968,-0.32559,-0.1741,0.52351,-40.02,0.42,-8.52
6.3062,-1.9068,-2.7649,-0.33292,0.32773,0.43371,-39.96,0.54,-8.64
12.585,-12.912,-3.7592,-0.43371,0.41111,0.015272,-39.9,0.9,-8.88
6.9872,-3.2553,-3.6366,-0.63835,-0.067195,-0.035125,-39.96,1.14,-8.88
3.5413,1.8115,-1.6753,-0.36744,-0.16829,0.83902,-39.9,1.38,-8.88
10.978,-6.8647,-2.2337,-0.35308,0.91233,0.11057,-39.84,1.74,-8.94
9.7794,-6.5922,-4.6854,-0.50946,0.72754,0.33445,-39.66,1.92,-8.82
8.8941,-4.4947,-3.228,-0.62033,0.07422,0.41081,-39.36,2.28,-9.0
9.4253,-6.1292,-3.4459,-0.63774,0.13134,0.18234,-39.24,2.46,-9.0
7.4503,-2.1929,-3.4596,-0.60292,0.18723,0.33353,-39.18,2.76,-8.88
9.2891,-6.8647,-3.4323,-0.60018,0.38301,0.1408,-39.18,3.24,-9.12
8.8941,-3.6366,-4.6309,-0.7477,0.30391,0.22663,-39.06,3.48,-9.18
8.7987,-5.3528,-2.9148,-0.76144,0.13653,0.1799,-39.12,3.78,-9.24
8.036,0.99429,-2.7377,-0.68661,0.48228,0.36805,-38.7,4.44,-9.54
8.6081,-1.9886,-2.1656,-0.69089,0.65699,0.25595,-38.64,4.68,-9.66
9.398,-11.809,-2.7377,-0.71319,0.51893,0.10201,-38.46,4.92,-9.72
6.9872,-0.31327,-3.6775,-0.7028,0.031154,0.34025,-38.04,5.46,-9.9
7.7364,-1.4301,-2.0975,-0.6408,0.26664,0.34025,-37.92,5.76,-9.9
9.0303,-6.9872,-2.4108,-0.67287,0.5623,0.11729,-37.8,6.0,-10.08
8.9894,-3.8409,-2.9965,-0.64935,0.22846,0.15516,-37.56,6.6,-10.02
8.9758,-5.9385,-2.4789,-0.58551,0.18784,0.16921,-37.5,6.96,-10.02
8.8941,-4.0589,-2.2882,-0.55558,0.29871,0.12767,-37.5,7.26,-9.96
8.5127,-5.7069,-3.3506,-0.58551,0.36255,0.18234,-37.2,7.74,-10.02
9.3027,-4.6173,-3.1599,-0.61239,0.31948,0.087659,-37.08,7.92,-10.02
8.6353,-1.866,-2.4789,-0.52962,0.32834,0.30085,-36.96,8.1,-10.14
9.9429,-7.355,-3.3915,-0.48533,0.4215,0.20739,-37.02,8.46,-10.08
7.9951,-4.2495,-4.1406,-0.60109,0.28222,0.219,-36.9,8.76,-10.02
7.246,-1.9886,-3.1191,-0.51465,0.22785,0.28405,-36.78,9.0,-10.08
9.4934,-2.9965,-3.5277,-0.44838,0.38546,0.13683,-36.66,9.48,-10.14
9.0848,-2.7649,-4.0861,-0.54703,0.4218,0.087659,-36.6,9.72,-10.2
8.6217,-6.5241,-3.2553,-0.63866,0.18448,-0.0018326,-36.42,10.14,-10.2
8.1177,-3.4323,-3.2144,-0.66829,0.19914,0.036346,-36.36,10.44,-10.26
8.6625,-7.7636,-2.5879,-0.69547,0.15882,-0.17623,-36.36,10.62,-10.5
8.7306,-4.6718,-3.0918,-0.70524,0.16829,-0.14111,-36.18,10.86,-10.74
9.4117,-3.4868,-2.0703,-0.6973,0.39828,0.0054978,-36.0,11.04,-10.68
10.488,-9.4798,-1.757,-0.65363,0.42241,-0.18754,-35.76,11.16,-10.68
10.215,-5.7614,-2.8603,-0.67165,0.16585,-0.19639,-35.7,11.28,-10.56
9.616,-6.2109,-2.0703,-0.65668,0.22785,-0.17226,-35.46,11.52,-10.74
9.4117,-6.5378,-2.4789,-0.67104,0.37874,-0.22816,-35.4,11.52,-10.74
8.8668,-2.7649,-2.2474,-0.56139,0.40134,-0.18295,-35.52,11.58,-10.62
8.7306,-2.3291,-1.7843,-0.5226,0.34575,-0.16402,-35.58,11.7,-10.68
8.8941,-5.7205,-3.0101,-0.55192,0.18082,-0.23457,-35.4,11.46,-10.44
7.2869,-1.8524,-3.3097,-0.53817,0.023824,-0.022297,-35.52,11.4,-10.38
7.0826,-2.2882,-2.7922,-0.50641,0.2532,-0.011301,-35.58,11.34,-10.32
9.5479,-3.2825,-3.3506,-0.55131,0.42608,-0.21991,-35.34,11.4,-10.02
8.0224,-1.4846,-3.2825,-0.57971,0.3317,-0.095906,-35.4,11.4,-9.9
8.9894,-5.8159,-2.7922,-0.64446,0.33995,-0.34422,-35.4,11.4,-9.84
9.2482,-3.7865,-3.0918,-0.68386,0.21533,-0.25381,-35.64,11.52,-9.78
7.5865,-2.8875,-2.2065,-0.67073,0.11454,0.0036652,-35.64,11.64,-9.9
8.2539,-1.2122,-1.7434,-0.54336,0.29658,0.11545,-35.64,11.46,-9.72
13.062,-4.3177,-3.6503,-0.55253,0.4554,-0.2303,-35.64,11.58,-9.66
10.569,-1.9068,-3.8954,-0.64049,-0.10324,0.076969,-35.4,11.7,-9.72
8.7443,-0.53119,-3.7047,-0.65149,-0.066584,0.11515,-35.34,11.76,-9.6
11.25,-5.9657,-2.547,-0.60506,0.28894,-0.13622,-35.52,11.94,-9.72
9.3708,-2.3155,-3.0237,-0.56047,-0.01069,0.067501,-35.58,12.0,-9.72
7.9951,-1.2258,-2.8875,-0.5174,-0.12523,0.17807,-35.58,12.12,-9.72
11.645,-6.1292,-1.8932,-0.42638,0.10171,-0.049786,-35.52,12.36,-9.54
10.787,-4.6718,-2.152,-0.32865,-0.33445,-0.02474,-35.34,12.36,-9.42
8.036,-3.4732,-2.2474,-0.26512,-0.42974,-0.036652,-35.4,12.48,-9.3
7.6138,-1.9205,-2.547,-0.21533,-0.38301,0.063835,-35.34,12.78,-9.18
6.8783,-2.4244,-2.9965,-0.19212,-0.24587,0.21716,-35.46,12.78,-9.06
9.0984,-3.6366,-3.4732,-0.25992,-0.02138,0.093157,-35.4,13.02,-9.0
7.6683,-2.6968,-3.3915,-0.40653,-0.31337,0.22022,-35.28,13.02,-8.64
6.1292,-3.623,-2.5198,-0.33964,-0.19487,0.36805,-35.4,13.08,-8.64
8.4038,-4.9033,-2.2337,-0.32315,0.15119,0.099571,-35.46,13.08,-8.46
11.019,-3.514,-4.0452,-0.46456,0.020159,0.01405,-35.22,13.44,-8.04
8.0496,-1.7706,-3.4459,-0.57085,-0.18295,0.19303,-35.1,13.5,-7.8
8.8532,-2.0294,-2.5198,-0.52993,0.047953,-0.031154,-35.1,13.62,-7.5
11.727,-6.4833,-2.7513,-0.57849,-0.049786,-0.24343,-35.16,13.74,-7.26
6.674,-4.1542,-3.0237,-0.58643,-0.17104,0.32895,-35.28,14.04,-7.08
10.651,-7.0009,-1.7162,-0.51343,0.11118,-0.39187,-35.28,14.16,-6.96
11.482,-6.4152,-3.2553,-0.48381,-0.044288,-0.17929,-35.28,14.16,-6.66
7.641,-1.1441,-3.7184,-0.47373,-0.58399,0.12553,-35.1,14.4,-5.94
10.515,-3.2553,-3.3506,-0.35491,-0.27061,-0.036957,-35.1,14.46,-5.58
8.5944,-0.96704,-4.0861,-0.36805,-0.45876,0.12065,-35.04,15.0,-4.98
10.665,-4.9578,-3.7728,-0.34514,-0.33445,-0.012523,-35.04,15.18,-4.56
11.482,-5.9249,-3.8001,-0.37018,-0.56169,-0.10782,-34.98,15.36,-4.26
7.1371,-0.61292,-4.0452,-0.43005,-0.80207,0.046731,-34.98,15.36,-3.66
8.3493,-2.438,-3.0782,-0.40806,-0.46365,-0.03207,-35.04,15.36,-3.42
10.569,-3.514,-2.8603,-0.4441,-0.29291,-0.32742,-35.04,15.36,-3.12
10.665,-3.5822,-3.2416,-0.50885,-0.62308,-0.34361,-35.16,15.42,-2.64
10.488,-3.6775,-2.1248,-0.5116,-0.87995,-0.38668,-35.16,15.18,-2.28
9.507,1.0079,-2.0158,-0.45357,-1.1185,-0.27428,-35.22,15.12,-1.86
8.9894,-3.2416,-2.7786,-0.35827,-1.0073,-0.23488,-35.4,15.12,-1.08
9.0848,-3.0918,-3.0646,-0.29993,-0.905,-0.35339,-35.58,15.06,-0.54
7.9815,-3.2553,-2.3836,-0.27794,-0.97525,-0.27519,-35.88,14.82,0.36
8.6762,-2.7241,-1.4438,-0.058032,-0.93065,-0.35308,-36.0,14.64,0.78
8.9213,-1.6753,-1.5527,0.34392,-1.0938,-0.37141,-36.06,14.4,1.32
8.5944,-1.0079,-3.4187,0.80237,-1.1637,-0.50519,-36.18,14.16,2.4
7.2188,-1.3076,-5.4481,0.78863,-0.72265,-0.60598,-36.36,13.92,2.94
6.0883,-1.6208,-6.674,0.51404,-0.23702,-0.59865,-36.36,13.62,3.48
6.279,-0.89894,-4.9987,0.32895,-0.21594,-0.38026,-36.3,13.08,4.5
1.8932,-2.8058,-6.2109,0.15913,0.38515,0.16035,-36.24,12.78,4.92
5.6797,-6.8102,-7.4095,-0.21747,1.967,0.30971,-35.94,12.18,5.7
8.9622,-7.3141,-6.96,-0.57513,1.9022,0.31032,-35.64,11.76,5.94
10.42,-7.0826,-5.4754,-0.71929,1.2016,0.16768,-35.4,11.4,6.06
11.032,-6.3335,-2.5879,-0.51435,0.5904,-0.039706,-34.86,10.68,6.18
8.0224,-3.2961,-3.6094,-0.31368,0.054062,0.069028,-34.68,10.38,6.18
8.0632,-2.6968,-3.7728,-0.054672,-0.035125,0.13164,-34.62,9.96,6.18
10.433,-4.413,-4.5764,0.11454,-0.31643,-0.047342,-34.32,9.42,5.82
7.4095,-1.3757,-5.3528,0.052229,-0.197,-0.015882,-34.2,9.36,5.7
5.5162,1.2803,-5.1213,0.01069,0.21014,0.27306,-33.9,9.12,5.58
11.768,-4.4947,-2.2337,0.045815,0.32376,0.11148,-33.48,9.0,5.04
9.5751,-2.7377,-4.9306,-0.083383,-0.14539,-0.15363,-33.42,8.94,4.86
6.8919,-1.1441,-4.3313,-0.23885,-0.15302,-0.015577,-33.3,8.88,4.62
7.0009,-0.65378,-4.1133,-0.19914,0.31582,0.062614,-33.48,8.76,4.08
12.395,-1.3893,-3.9635,-0.28405,-0.046426,-0.13225,-33.6,8.88,3.9
13.498,-2.9965,-3.0646,-0.29047,-0.34911,-0.10201,-33.66,8.82,3.66
6.1564,0.61292,-5.0395,-0.36316,-0.41814,0.054367,-33.72,8.94,3.3
12.286,-2.6287,-3.0237,-0.37202,0.10873,-0.045509,-33.84,8.94,3.06
10.637,-3.2825,-4.3449,-0.35613,-0.18601,0.18723,-33.9,9.06,2.76
10.406,-3.1735,-3.8682,-0.27947,-0.26328,0.14294,-34.14,9.12,2.58
8.6353,-3.4187,-3.4596,-0.065363,0.044288,0.38729,-34.26,9.0,2.4
7.5184,-1.5255,-3.8954,-0.030543,0.037263,0.40134,-34.5,9.0,2.28
11.809,-5.3119,-2.5198,0.20892,-0.30788,0.18601,-34.74,8.82,2.22
3.7184,-3.2961,-3.4323,0.34392,-0.43768,0.50488,-34.8,8.82,2.1
6.5922,-2.9556,-3.0373,0.36713,-0.45662,0.40836,-34.86,8.7,2.22
6.4016,-0.51757,-4.1542,0.34819,-0.5565,0.38698,-34.68,8.7,2.22
10.392,-2.6968,-2.9011,0.2923,-0.478,0.12065,-34.74,8.58,2.28
10.896,-5.7478,-2.9556,0.20281,-0.57085,0.19212,-34.74,8.64,2.46
5.9793,-3.0646,-4.6854,0.023518,-0.62919,0.34728,-34.74,8.4,2.88
7.9134,-4.3449,-4.4402,-0.12492,-0.16585,-0.16371,-34.68,8.34,3.18
5.9112,-1.6344,-6.1155,-0.27794,-0.27886,-0.058948,-34.5,8.16,3.6
7.4367,-1.6753,-4.9578,-0.34514,0.052534,-0.20342,-34.32,7.8,4.2
8.3765,-2.9284,-4.522,-0.32101,0.083078,0.11698,-34.14,7.74,4.44
11.795,-6.1155,-4.0861,-0.30788,-0.17074,-0.13653,-33.96,7.8,4.74
5.6933,-2.1248,-4.9578,-0.35461,0.31124,0.41661,-33.84,7.56,5.46
10.992,-4.7944,-4.2495,-0.23976,0.40256,0.099876,-33.66,7.56,5.7
9.3844,-3.2144,-6.0883,-0.2251,0.099876,0.32101,-33.6,7.62,5.94
9.0712,-3.2825,-5.1485,-0.14172,0.17807,0.17654,-33.54,7.74,6.66
8.4038,-3.8273,-5.1485,-0.071777,0.21075,0.18234,-33.48,8.04,6.78
8.5263,-3.9635,-3.9635,0.04215,0.42455,0.13256,-33.18,8.04,7.26
9.5479,-4.5083,-3.9908,0.058948,0.11851,0.02138,-32.94,8.16,7.38
7.1779,-3.2008,-5.3256,-0.053756,0.052534,-0.011301,-32.82,8.22,7.38
7.2324,-1.4165,-3.7047,-0.074526,0.41997,-0.050396,-32.64,8.46,7.44
7.8453,-1.4846,-3.1191,-0.065668,0.76144,0.04948,-32.52,8.7,7.38
11.768,-4.6445,-3.0782,0.010079,0.40928,-0.12431,-32.4,8.88,7.38
7.5457,-4.018,-4.3858,-0.089186,-0.013744,0.24526,-32.34,8.88,7.44
5.4618,-2.2201,-4.5356,-0.11606,0.16066,0.25565,-32.16,9.06,7.2
11.55,-3.9227,-4.1678,-0.11362,0.49694,0.036041,-32.22,9.06,6.9
10.243,-4.1951,-3.9499,-0.043371,0.27275,-0.022907,-32.1,9.0,6.48
6.4152,-0.1362,-4.5083,-0.11118,0.46395,0.39859,-32.28,8.88,6.12
12.408,-4.4675,-2.9284,0.028711,0.65546,0.021075,-32.28,9.0,5.88
10.992,-5.38,-5.2847,-0.0036652,0.074526,-0.019853,-32.34,9.0,5.58
5.5026,-1.1169,-3.337,-0.12767,0.34361,0.081856,-32.64,9.06,5.34
10.474,-3.5685,-3.3097,-0.041844,0.6689,-0.045815,-32.64,9.0,5.1
11.21,-3.7047,-3.9908,-0.11454,0.040317,-0.05284,-32.7,9.0,4.8
9.4798,-4.6718,-3.4732,-0.17135,0.092241,-0.10721,-32.88,8.82,4.26
5.9793,-2.8194,-3.5413,-0.15913,0.35186,0.088881,-32.76,8.88,4.08
10.256,-2.5742,-2.1248,-0.098044,0.47525,0.025962,-32.7,8.88,3.96
11.25,-4.8352,-3.3097,-0.037568,-0.020159,0.042455,-32.52,8.88,3.72
9.0575,-3.3642,-4.0589,-0.15485,-0.23488,0.0042761,-32.64,8.88,3.66
7.6002,-3.5413,-2.7649,-0.15608,0.24984,0.082772,-32.52,8.88,3.48
8.5127,-3.5685,-3.228,-0.17532,0.1179,-0.0024435,-32.52,9.06,3.48
10.229,-4.808,-3.5822,-0.17532,-0.2248,-0.11729,-32.46,8.82,3.48
6.6059,-1.9477,-4.2632,-0.18906,-0.24618,-0.04948,-32.34,8.82,3.3
9.0167,-2.4789,-4.0316,-0.20097,-0.028711,-0.097433,-32.22,8.82,3.18
11.291,-3.5685,-4.5356,-0.26603,0.034208,-0.2251,-32.22,8.94,3.24
7.6546,-2.4653,-4.808,-0.34392,0.036346,-0.19456,-32.16,8.88,3.42
5.6661,0.027241,-4.5492,-0.3882,0.33506,-0.011606,-32.1,8.82,3.48
9.507,-1.6753,-3.1054,-0.23213,0.63774,0.017715,-32.1,8.82,3.42
9.3027,-1.3484,-4.4675,-0.26939,0.24526,-0.12614,-32.22,8.82,3.06
9.2346,-2.7377,-3.9908,-0.26512,0.12095,-0.1011,-32.16,8.7,3.12
6.5786,-0.72188,-4.0861,-0.24984,0.17685,0.0088575,-32.04,8.7,3.12
11.645,-2.4789,-2.9148,-0.15058,0.13347,-0.080634,-32.1,8.4,3.12
9.5479,-2.7922,-3.3778,-0.12248,-0.095295,0.025351,-31.98,8.1,3.06
8.6762,-1.9068,-3.2416,-0.14569,-0.25229,-0.017715,-31.86,8.04,3.06
8.3629,-1.471,-2.833,-0.092852,-0.12859,0.067501,-31.98,7.8,3.24
10.311,-3.1191,-3.5413,-0.043982,-0.24771,0.14691,-31.98,7.8,3.24
9.9429,-3.7592,-3.7865,-0.069333,-0.26817,0.17471,-31.86,7.74,3.06
11.605,-4.0316,-2.5198,-0.071777,-0.18112,0.063835,-31.56,7.8,2.94
8.6898,-4.5356,-3.8954,-0.03879,-0.15058,0.075136,-31.56,7.8,2.94
6.8374,-0.92618,-3.5549,0.0064141,-0.22449,0.05284,-31.56,7.8,3.06
6.9328,-2.7922,-3.5549,0.061392,-0.20403,0.27458,-31.5,7.62,3.18
11.128,-4.7399,-3.6911,0.0281,-0.44532,-0.10751,-31.5,7.62,3.3
8.6217,-2.8058,-4.985,-0.030238,-0.50519,-0.036041,-31.5,7.5,3.42
8.0224,-0.1362,-3.3915,-0.023213,0.094684,0.19609,-31.32,7.86,3.6
10.801,-4.0861,-4.2904,-0.026267,-0.16524,0.16035,-31.26,7.98,3.78
7.5729,-2.1929,-4.6445,-0.058338,-0.35644,0.24557,-31.32,8.04,3.96
7.1779,-2.2882,-4.5356,-0.10385,-0.073609,0.32284,-31.14,8.28,4.02
7.355,-0.50395,-4.0589,-0.1124,0.087354,0.39279,-31.02,8.4,4.08
11.25,-3.7592,-3.4732,-0.11973,-0.11515,0.038485,-31.14,8.46,4.26
4.6037,-3.3097,-4.522,-0.14875,-0.29566,0.33201,-30.96,8.58,4.56
6.0883,-1.1305,-3.0918,-0.097128,0.08827,0.18204,-30.84,8.7,4.74
10.61,-3.7592,-3.1327,-0.044288,0.1127,0.099876,-30.72,8.82,4.8
10.134,-5.6388,-4.4947,-0.13592,-0.3317,-0.068111,-30.48,9.24,5.1
5.2983,-3.4732,-4.0589,-0.14966,-0.045509,0.12828,-30.36,9.3,5.1
5.5299,-0.8036,-2.6832,-0.11454,0.10354,0.1292,-30.3,9.54,5.1
12.054,-3.623,-3.7592,-0.023824,-0.12248,-0.07086,-29.94,9.48,5.34
6.0611,-0.54481,-4.0861,-0.10812,-0.22266,0.062308,-29.76,9.42,5.4
8.3765,-0.44947,-3.2144,-0.044593,0.20281,0.13408,-29.7,9.42,5.4
10.569,-6.565,-5.0531,-0.025656,-0.49022,-0.081245,-29.28,9.3,5.52
4.304,0.24517,-5.0531,-0.11881,-0.1011,0.059254,-29.16,9.24,5.58
8.54,-0.17706,-3.4323,-0.023518,0.25565,-0.077274,-28.92,9.18,5.76
8.0632,-3.4187,-5.2575,-0.12492,-0.33689,-0.026878,-28.86,9.06,6.06
6.4424,0.6674,-4.9169,-0.11637,-0.051007,0.0015272,-28.8,8.82,6.24
11.223,-3.6366,-3.2553,-0.010079,0.21625,-0.081856,-28.62,8.7,6.3
7.6683,-2.5334,-3.9227,-0.022602,-0.098349,0.13073,-28.56,8.28,6.6
12.967,-5.5026,-3.8682,-0.03879,-0.055589,-0.22052,-28.44,8.34,6.6
7.8181,-6.3471,-4.7671,-0.15791,-0.26237,0.054672,-28.26,8.22,6.78
8.5944,-2.3972,-3.1599,-0.12156,0.12187,-0.22235,-28.26,8.1,6.96
7.927,-2.9829,-3.3778,-0.071166,0.044899,-0.1127,-28.14,8.04,7.14
7.2052,-0.72188,-3.8273,-0.057727,0.0039706,0.055894,-28.02,7.86,7.26
10.651,-5.9657,-4.127,-0.025351,-0.010079,-0.032681,-27.84,7.68,7.56
3.7865,0.36775,-4.4402,-0.10385,0.076053,0.19823,-27.72,7.44,7.8
11.332,-1.0624,-3.228,-0.000916,0.18601,-0.37263,-27.6,7.32,7.86
2.2337,-1.2531,-4.8625,-0.083383,0.0039706,0.35461,-27.42,7.02,8.04
9.7385,-2.1929,-3.2689,-0.080634,-0.040928,-0.18784,-27.3,6.9,7.98
13.348,-7.2188,-3.8273,0.017104,0.086437,-0.23427,-27.24,6.78,8.22
8.8668,-2.0839,-3.7184,-0.082161,-0.25962,0.078191,-26.7,6.6,8.28
8.8668,-2.0839,-3.7184,0.033598,0.24893,0.1854,-26.7,6.6,8.28
9.8339,-2.2201,-3.8001,0.018021,0.17013,0.24648,-26.22,6.36,8.58
9.0848,-1.185,-5.0395,-0.024129,-0.16066,-0.049175,-25.68,6.3,8.7
8.1041,-1.6617,-3.4596,-0.012828,0.009163,-0.013439,-25.38,6.12,8.88
11.141,-4.5356,-2.7377,0.007025,-0.25168,-0.219,-25.14,6.12,9.0
5.0668,-1.6072,-4.0316,-0.088881,-0.33567,0.014355,-24.42,6.0,9.24
8.54,-1.0624,-3.5822,-0.054978,-0.066279,-0.11362,-24.0,6.0,9.36
10.719,-3.7047,-5.1213,-0.040928,-0.63591,-0.2584,-23.28,6.0,9.54
5.0531,0.54481,-5.3937,-0.10934,-0.38485,0.063225,-22.86,6.06,9.72
7.2188,0.20431,-4.2223,-0.013744,0.1237,-0.045204,-22.44,6.18,9.9
11.073,-3.0782,-4.7944,-0.0015272,-0.31551,0.044593,-21.36,6.3,10.14
10.379,-3.0646,-4.9169,-0.0015272,-0.49908,-0.13073,-21.0,6.42,10.26
4.699,-0.65378,-3.337,0.03543,-0.0085521,0.25198,-20.16,6.66,10.86
13.416,-4.7807,-3.1327,0.1631,-0.19945,0.016799,-19.86,6.84,11.04
6.3062,-4.0316,-5.4481,0.08491,-0.67745,0.067501,-19.68,7.02,11.22
3.2825,-0.7355,-5.1621,0.074831,-0.17471,0.14752,-19.32,7.38,11.34
12.817,-3.909,-3.6094,0.1741,-0.032376,0.012523,-18.9,8.04,11.52
11.046,-4.1542,-3.7184,0.1857,-0.63011,-0.20831,-18.72,8.46,11.64
8.4174,-3.3506,-3.8954,0.14111,-0.4047,-0.38485,-18.72,8.82,11.64
5.6797,0.91256,-3.1599,0.16402,-0.1686,-0.17257,-18.6,9.36,11.7
13.934,-2.4789,-4.6309,0.0956,-0.478,-0.38912,-18.66,9.54,11.58
14.342,-4.9306,-5.094,-0.023518,-0.71135,-0.19212,-18.72,9.84,11.58
2.3018,-1.7298,-4.8216,-0.14478,-0.43127,0.012217,-18.96,10.44,11.52
7.1915,-1.7298,-4.4266,-0.08094,0.2138,0.048869,-19.2,10.68,11.4
14.206,-5.8295,-5.5843,-0.0030543,-0.36133,0.061392,-19.74,11.16,11.04
4.9033,-3.4868,-4.8352,0.0097738,-0.21228,0.015882,-20.04,11.4,10.86
5.4481,-0.27241,-4.5628,0.1408,0.35522,0.19487,-20.34,11.52,10.92
9.398,-1.9886,-4.127,0.20097,0.18204,0.075747,-20.82,11.52,10.74
7.1507,-6.5105,-5.094,0.12309,-0.33689,-0.19487,-21.36,11.58,10.56
-0.095342,1.4301,-4.3585,0.1124,0.14294,0.14691,-21.9,11.52,10.44
16.481,-5.3119,-2.5879,0.17746,0.20922,-0.56077,-22.74,11.58,10.32
6.2926,-1.6753,-5.8431,0.045509,-0.39095,0.077885,-23.1,11.4,10.26
5.9521,-2.6423,-3.623,-0.0036652,0.024435,-0.18906,-23.4,11.46,10.32
8.3901,-4.1951,-3.3915,0.030238,0.12737,0.0064141,-23.82,11.34,10.32
11.741,-1.6344,-5.4073,0.0045815,-0.02474,0.0030543,-24.9,11.16,10.32
12.19,-4.0044,-5.3392,0.027794,-0.11912,-0.2364,-25.26,11.1,10.32
3.5549,-0.62654,-3.9363,0.033903,0.38668,0.061697,-26.04,10.68,10.2
13.035,-5.8023,-4.6173,0.048869,0.040623,-0.27061,-26.4,10.56,10.2
4.9714,-2.4517,-4.7944,0.054672,0.0085521,0.16493,-26.7,10.44,9.96
7.0281,-1.3348,-3.8001,0.16005,0.44471,-0.1686,-27.0,10.38,9.9
8.3084,-3.7728,-4.3994,0.15547,0.054062,0.041844,-27.72,9.96,10.08
8.54,-1.5391,-4.9578,0.091324,0.068111,-0.10751,-28.02,9.84,10.08
9.7113,-3.5685,-4.0589,0.11026,0.26053,-0.018937,-28.26,9.78,10.14
7.6274,-3.6639,-4.5628,0.069944,0.094073,-0.025351,-28.74,9.6,10.26
9.5887,-3.6094,-4.8488,0.042761,0.051313,-0.16218,-28.92,9.6,10.2
5.6252,-1.1032,-4.7671,0.071166,0.33078,0.16829,-29.16,9.54,10.2
9.8203,-1.6072,-3.7865,0.16066,0.56352,0.12614,-29.52,9.3,10.44
11.264,-3.4732,-4.1406,0.16096,0.28283,0.079412,-29.64,9.24,10.56
8.8124,-3.9908,-3.8409,0.14569,0.087965,0.10873,-29.88,9.3,10.62
7.9815,-2.4108,-3.1191,0.081551,0.4163,0.02138,-30.18,9.42,10.68
9.9565,-3.5685,-2.9011,0.094379,0.27764,0.012217,-30.48,9.36,10.8
12.463,-5.8295,-3.6503,0.0073304,-0.32895,-0.40409,-30.72,9.36,10.92
4.699,-7.6002,-5.7342,-0.16463,-0.84666,-0.62736,-30.96,9.36,10.8
5.4481,0.027241,-3.4868,-0.19517,0.076664,-0.11729,-31.08,9.3,10.92
14.873,-5.3392,-2.438,0.039095,0.15699,-1.1799,-31.2,9.0,10.86
9.507,1.0896,-4.4811,-0.082772,0.03146,-0.14691,-31.62,8.82,11.1
14.955,-3.8137,-3.514,0.14539,0.28375,-0.4215,-31.92,8.7,11.22
11.196,-5.2847,-5.2575,0.0015272,-0.36072,-0.068417,-32.22,8.7,11.22
7.4503,-5.1621,-3.7047,-0.016188,-0.30268,-0.6014,-32.58,8.28,11.4
2.1656,-2.0294,-3.4323,0.11026,0.32559,-0.033292,-32.88,8.04,11.52
6.0747,1.4438,-4.3449,0.077885,0.30543,-0.12095,-33.0,7.86,11.7
10.787,-0.68102,-5.2166,0.082467,0.075136,-0.30757,-33.48,7.14,12.06
7.1915,-0.38137,-5.2847,0.035125,0.086437,0.15333,-33.6,6.78,12.3
10.624,-3.1191,-3.9363,0.015272,-0.13683,-0.26878,-33.84,6.42,12.36
10.992,-4.9714,-4.8761,-0.076358,-0.51374,-0.34422,-34.02,5.88,12.72
5.993,-1.1441,-4.9033,-0.17929,-0.36713,-0.44807,-34.26,5.58,12.84
3.7728,2.3427,-4.4947,-0.22999,0.19334,-0.2135,-34.32,5.34,13.02
17.952,-8.0905,-2.7649,-0.07758,-0.45754,-0.43219,-34.44,4.68,13.2
12.844,-9.4798,-6.2654,-0.18479,-0.75533,0.07025,-34.32,4.26,13.32
3.0646,-2.5879,-4.7944,-0.019548,0.33414,0.3262,-34.2,3.66,13.5
10.093,-0.91256,-4.9578,0.20403,0.54031,0.42669,-34.26,3.18,13.74
10.665,0.20431,-6.2654,0.21441,0.12156,0.34575,-34.14,2.88,13.74
7.6274,0.054481,-6.0883,0.14997,0.41081,0.44074,-34.02,2.7,13.8
8.5808,-7.1371,-5.5571,0.12278,0.15821,0.083078,-33.6,2.4,13.98
4.0589,-1.6208,-4.4947,-0.099876,-0.17379,-0.092852,-33.42,2.22,13.92
4.3313,1.1305,-4.3585,-0.11026,0.20525,0.1405,-33.18,2.16,13.98
6.3471,1.3484,-4.6582,-0.12523,0.18815,0.25443,-32.94,2.1,13.98
9.6704,-3.6775,-7.5457,-0.44807,-0.75961,-0.11698,-32.58,1.62,13.98
7.8726,-2.1248,-5.3256,-0.5904,-0.15333,-0.0024435,-32.52,1.5,14.04
7.9407,-4.2495,-1.9341,-0.27733,0.20525,0.31948,-32.28,1.44,14.1
9.0303,-1.8115,-3.1054,-0.098349,0.28375,0.28222,-32.1,1.5,13.98
16.072,-6.9055,-5.6388,-0.15852,-0.49633,-0.21105,-31.92,1.68,13.86
9.9565,-4.7807,-6.4969,-0.30665,-0.20067,0.06017,-31.74,1.68,13.8
6.1564,-0.095342,-2.9556,-0.20556,0.38149,0.015577,-31.32,1.74,13.86
7.7772,0.40861,-2.9148,0.009163,0.38668,0.36102,-31.26,1.62,13.68
12.217,-3.2008,-4.1542,0.026878,-0.016493,0.19823,-31.02,1.5,13.68
7.7227,-4.0725,-7.9134,-0.26878,-0.50427,0.18815,-30.72,1.62,13.56
4.9987,0.44947,-5.7205,-0.22113,0.23885,0.039706,-30.54,1.62,13.5
6.7557,0.95342,-3.2416,-0.076664,0.47678,0.15516,-30.54,1.68,13.56
4.5764,1.3757,-4.7944,0.197,0.24068,0.50671,-30.24,2.16,13.56
7.6274,1.7843,-4.8216,0.13073,0.51191,0.94134,-30.06,2.46,13.38
13.879,-11.7,-5.775,0.22907,-0.56169,-0.61025,-29.82,2.82,13.14
-1.1305,1.1032,-7.2052,-0.21197,-0.56322,0.86712,-29.76,2.88,13.14
-0.23155,3.6094,0.57205,-0.030543,0.22877,0.53695,-29.64,3.12,13.08
15.99,-11.877,-2.833,0.16738,-0.32559,-0.17868,-29.52,3.78,12.78
8.54,-2.1248,-7.8317,-0.25779,-1.3656,-0.019548,-29.4,3.96,12.66
4.5764,-0.081722,-4.127,-0.23885,0.49633,0.047037,-29.34,4.2,12.78
12.381,-4.0725,-2.0158,-0.12126,0.66584,0.15852,-29.28,4.74,12.78
14.778,-8.2267,-2.9011,-0.076664,-0.63072,-0.079412,-29.22,4.86,12.78
2.8467,-3.5549,-7.7636,-0.32498,-0.5681,0.27611,-29.16,5.1,12.96
4.8761,2.0294,-7.5184,-0.32803,0.22235,-0.15241,-29.1,5.22,12.84
9.8475,-1.4982,-2.5061,-0.010996,0.54398,0.22724,-29.1,5.46,13.2
11.141,-10.052,-4.0316,0.13011,-0.036957,0.060476,-28.68,5.52,13.32
0.40861,-10.338,-4.7807,0.051618,-0.28344,0.09163,-28.5,5.52,13.62
3.3097,7.0145,-7.0281,0.058948,0.079107,0.42394,-28.32,5.4,13.98
14.356,6.0338,-4.2359,-0.039401,0.25656,0.039095,-28.38,5.4,14.1
18.483,-3.9635,-0.20431,0.33414,0.16127,-0.44227,-28.56,5.46,13.98
2.7649,-6.3879,-5.2847,0.20861,-0.74526,-0.2416,-28.56,5.22,13.86
2.3155,1.7979,-5.203,-0.18937,-0.5904,-0.2642,-28.26,5.22,13.62
13.702,-2.4925,-2.1656,-0.21808,0.055894,-0.41111,-28.08,5.1,13.38
15.963,-8.0224,-4.2359,-0.18418,-0.59223,-0.54123,-28.08,4.74,13.38
-0.5993,1.2258,-5.9249,-0.4218,-0.6857,0.074831,-28.2,4.44,13.62
-0.54481,4.8488,-5.5162,-0.33995,0.31398,0.3934,-28.26,4.44,13.5
17.42,-2.2474,-4.985,-0.15027,-0.19456,-0.1011,-28.2,4.26,13.38
13.92,-7.8998,-6.5105,-0.05284,-1.2669,-0.31979,-28.14,4.08,13.74
-5.4073,2.5198,-4.9987,-0.050702,-0.62919,0.58307,-27.84,3.84,14.28
6.2245,1.4301,-4.2904,0.24404,0.68539,0.60659,-27.78,3.6,14.76
18.51,-6.1428,-4.4266,0.36774,-0.7645,-0.22938,-27.84,3.66,15.06
7.5048,-5.4481,-4.1951,0.36652,-1.0183,0.096517,-27.84,3.78,15.36
1.362,-5.203,-2.7241,0.32467,-0.50763,-0.053145,-27.84,3.84,15.54
-3.5822,3.7728,-1.9613,0.54947,0.46578,0.63652,-27.84,4.2,15.54
9.6023,4.9987,-3.514,0.41783,0.78069,0.64782,-27.9,4.68,15.84
17.189,-8.4719,-1.757,0.81703,0.22969,0.13134,-27.78,5.22,15.84
5.5162,-4.6854,-6.5105,0.47831,-1.2905,0.26389,-27.6,5.46,15.84
-3.5822,-4.5628,-2.6423,0.22113,-0.95784,0.40164,-27.78,5.94,15.72
12.027,-6.1155,-5.1076,0.18937,-0.077274,-0.025656,-27.66,6.6,15.72
14.86,-4.9306,-7.0553,0.082772,-0.96639,-0.5681,-27.66,6.84,15.78
1.9068,0.57205,-4.6445,0.15363,-0.098349,0.3262,-27.66,7.26,15.84
14.928,-6.0883,-5.489,0.18784,-0.028711,-0.37813,-27.54,7.5,15.84
4.6037,-4.0316,-5.1621,0.14752,-0.58857,-0.15333,-27.6,7.68,15.9
4.4811,-2.3155,-5.3392,0.20586,-0.09163,0.023213,-27.54,7.68,15.84
9.8611,-4.3177,-5.094,0.31765,0.024435,0.15516,-27.48,7.56,15.9
7.1234,-2.5334,-5.1485,0.32498,-0.0079412,0.31429,-27.36,7.5,15.96
10.188,-3.228,-4.7944,0.40287,0.30452,0.16616,-27.3,7.56,16.02
1.866,-7.75,-2.8058,0.38912,-0.0073304,0.17379,-27.24,7.44,15.84
-1.3484,-5.0804,-2.3427,0.40409,0.15821,0.4499,-27.24,7.38,15.72
12.721,-0.83084,-5.6116,0.3769,0.23763,-0.15333,-27.24,7.38,15.66
6.4697,-2.2882,-5.3528,0.12492,-0.35064,-0.31643,-27.36,7.38,15.3
-0.85808,2.3427,-3.6639,0.084299,0.27581,0.036957,-27.42,7.44,15.18
10.733,-2.3018,-1.7298,0.18876,0.60934,-0.41081,-27.42,7.38,14.94
12.449,-11.387,-5.9793,0.12156,-0.42241,-0.53145,-27.18,7.2,14.46
4.8625,-8.7034,-7.0281,-0.20495,-1.1707,-0.61545,-27.18,7.14,14.28
5.598,1.4574,-4.4266,-0.23427,0.12614,-0.49297,-27.54,6.84,13.98
11.087,-0.31327,-4.808,0.054672,0.78924,-0.19273,-27.72,6.66,13.68
17.311,-5.884,-6.2245,0.024129,-0.12523,-0.55528,-27.78,6.54,13.68
7.9951,-11.346,-9.5479,-0.23121,-0.87506,-0.49388,-27.84,6.18,13.62
12.217,-7.4503,-5.8431,-0.23702,0.17868,-0.28863,-27.9,5.82,13.68
6.6195,-7.1371,-6.5378,-0.25107,-0.24404,-1.3314,-28.26,5.46,13.62
0.8036,0.5993,-5.7342,-0.076969,0.47861,-0.18998,-28.26,5.16,13.56
5.9521,7.2733,-3.5004,0.33109,1.5574,-0.061087,-28.5,5.04,13.32
10.052,2.5879,-2.5742,0.57208,1.2892,0.21961,-28.86,5.04,13.2
10.297,-2.2474,-7.1234,0.29841,-0.031154,0.21961,-29.22,4.8,12.78
5.094,-3.0101,-4.5628,0.090408,0.41936,0.28466,-29.34,4.86,12.42
5.0259,-6.3743,-2.7241,0.10812,1.1619,0.26848,-29.46,4.74,11.76
7.8726,-9.3572,-2.152,0.1127,0.83261,-0.32651,-29.46,4.74,11.28
7.4776,-3.732,-4.522,0.12523,0.54,-0.57635,-29.7,4.8,10.32
8.4719,-0.32689,-3.4323,0.028711,0.42425,-0.72479,-30.0,4.98,9.48
10.665,-1.185,-3.4459,0.018631,0.84299,-0.47159,-29.88,4.86,9.06
12.326,-3.1872,-4.1542,-0.055283,0.76541,-0.39248,-30.36,5.1,8.16
14.56,-4.5901,-4.6309,-0.24343,0.35339,-0.5846,-30.6,5.04,7.2
9.4389,-5.7205,-2.4789,-0.28924,0.39645,-0.58338,-30.96,5.1,6.42
4.7944,-5.6388,-4.2359,0.016188,1.277,-0.17929,-31.14,4.86,5.58
4.6718,-5.4073,-4.7126,-0.042455,1.8369,0.32987,-31.2,4.86,5.1
7.927,-3.4051,-4.5356,-0.016188,1.4255,0.43555,-31.32,4.98,4.56
8.1177,-1.0624,-4.0861,0.03879,0.9389,0.51404,-31.44,5.04,3.54
6.9191,0.1362,-2.6968,0.15882,0.65027,0.55955,-31.38,5.1,2.46
8.6217,-0.14982,-2.6015,0.18601,0.40623,0.30299,-31.5,5.34,1.98
8.5536,-0.28603,-2.6696,0.12462,0.25962,0.146,-31.26,5.58,1.14
6.9736,-0.24517,-2.7649,0.0015272,0.16616,0.036041,-30.96,5.7,0.66
6.1836,-2.2201,-2.0839,-0.099571,0.33384,0.077274,-30.72,6.0,-0.12
6.6604,-3.5004,-2.0294,-0.10018,0.49297,0.18967,-30.6,6.0,-0.54
9.902,-4.7126,-3.051,-0.18479,0.35033,0.23152,-30.66,6.36,-1.14
14.506,-5.2166,-4.1133,-0.31612,-0.50977,-0.22297,-30.84,6.24,-1.68
9.6977,-3.9635,-4.5764,-0.45723,-0.86499,-0.18754,-30.84,5.88,-1.68
10.188,-4.4402,-3.0782,-0.43433,-0.30727,-0.12401,-30.84,5.7,-1.74
8.9758,-4.6037,-3.5822,-0.38179,0.0051924,0.06689,-30.78,5.4,-1.62
9.3299,-4.0861,-2.8739,-0.18021,-0.018326,0.044288,-30.78,5.16,-1.62
8.5127,-1.7298,-4.3585,-0.051007,-0.22266,0.27184,-30.78,4.98,-1.38
9.9429,-2.1248,-4.522,0.068417,-0.35766,0.31215,-30.84,4.86,-1.32
8.5263,-3.4732,-5.993,-0.083994,-0.28619,0.34086,-30.84,4.56,-0.84
8.4174,-3.6094,-4.8352,-0.15333,-0.021991,0.18784,-30.6,4.2,-0.48
7.641,-1.7162,-5.0804,-0.24496,0.057421,0.20769,-30.3,3.84,-0.24
8.9486,-1.4438,-4.8216,-0.30116,0.026878,0.1405,-30.42,3.9,-0.24
10.406,-2.7786,-4.6718,-0.34361,-0.019853,0.02138,-30.36,3.96,0.12
8.1041,-3.2553,-4.127,-0.45051,0.0027489,0.04215,-30.48,3.96,0.36
8.1313,-5.8023,-2.6832,-0.46701,0.12278,0.04215,-30.54,3.72,0.66
7.7091,-5.1894,-3.1872,-0.47617,0.058643,-0.017715,-30.66,3.54,0.72
8.7443,-4.4947,-3.051,-0.53939,0.14661,-0.061392,-30.48,3.54,0.84
8.1586,-3.2144,-2.9148,-0.55161,0.24465,0.011606,-30.6,3.6,1.02
9.8475,-3.7728,-2.9556,-0.55192,0.16157,-0.039401,-30.96,3.54,1.14
9.9973,-4.304,-3.2553,-0.55405,0.066279,-0.022297,-31.02,3.6,1.32
8.8805,-1.8387,-4.4266,-0.52015,0.10873,0.032376,-31.2,3.78,1.56
11.713,-2.0294,-5.094,-0.46731,-0.059559,-0.015577,-31.14,3.48,1.68
10.46,-2.4653,-6.0611,-0.53756,-0.13836,0.047647,-31.08,3.48,1.74
9.1256,-1.6344,-5.6388,-0.60964,-0.002138,0.0058032,-31.08,3.48,1.92
10.065,-1.4846,-4.699,-0.54459,-0.068722,0.021686,-31.14,3.36,2.04
9.8611,-0.68102,-4.9987,-0.50366,-0.13256,0.040928,-31.2,3.18,2.34
9.0575,0.40861,-4.699,-0.50519,-0.11209,0.079718,-31.2,3.18,2.34
12.027,-3.6639,-3.6366,-0.49052,-0.43799,-0.14691,-31.14,3.24,2.52
7.1507,-1.6753,-3.5004,-0.54184,-0.43707,-0.034819,-31.14,3.12,2.82
11.414,-1.866,-2.6696,-0.46914,-0.21777,-0.025656,-31.08,2.94,3.0
9.3844,-1.9068,-3.9635,-0.40164,-0.66493,-0.18082,-31.14,3.06,3.54
8.7034,-0.095342,-4.2359,-0.47189,-0.60812,-0.20097,-31.26,3.0,3.72
9.8611,-2.0158,-2.5198,-0.37843,-0.42577,-0.23976,-31.38,2.88,4.14
9.5615,-2.7649,-3.4732,-0.30391,-0.7138,-0.21197,-31.62,3.0,4.8
10.011,-2.9556,-3.7184,-0.31734,-0.73365,-0.24801,-31.74,2.88,4.98
7.0962,-0.57205,-3.6775,-0.281,-0.51404,0.0045815,-31.86,2.82,5.7
11.155,-2.942,-4.1814,-0.23549,-0.56077,-0.020159,-32.04,2.64,6.42
8.8668,-2.9965,-4.7671,-0.20067,-0.79993,-0.027794,-32.04,2.4,6.96
7.6546,-0.92618,-4.127,-0.16616,-0.5342,0.083689,-32.04,2.34,7.92
9.9429,-2.6968,-3.9635,-0.071777,-0.5174,0.069639,-32.1,2.4,8.58
8.5127,-2.0431,-4.0861,-0.0039706,-0.55314,0.14539,-32.22,2.34,9.0
8.1858,-0.83084,-3.5413,0.025045,-0.49969,0.083383,-32.34,2.4,9.72
7.1234,0.8036,-3.1872,0.083383,-0.37935,0.089186,-32.04,2.34,10.56
7.0281,0.5993,-2.9829,0.17471,-0.22694,0.28375,-32.1,2.34,10.74
12.572,-4.8216,-2.3427,0.23366,-0.72082,-0.036652,-32.16,2.52,11.16
8.2539,-1.9613,-4.5083,0.11729,-0.85765,0.029932,-32.04,2.76,11.88
11.155,-3.8001,-4.7535,0.13286,-0.81276,-0.33445,-31.98,2.88,12.12
4.3449,-0.054481,-4.9987,0.21411,-0.45693,0.014355,-31.92,2.94,12.42
14.547,-1.6072,-4.3449,0.25748,-0.16127,-0.044593,-31.8,3.36,12.84
8.7987,-4.1542,-6.3743,0.21777,-0.81703,0.000305,-31.98,3.42,13.08
6.0747,-0.36775,-5.2575,0.16066,-0.5116,0.090103,-31.92,3.36,13.38
6.5786,-2.6968,-4.4539,0.17287,-0.44715,-0.046426,-31.8,3.54,13.92
10.052,-4.5356,-3.8273,0.21625,-0.54734,-0.095906,-31.68,3.66,14.04
11.441,-3.5958,-4.4402,0.24862,-0.56963,-0.14172,-31.68,3.9,14.34
6.7421,-1.1032,-2.9829,0.33872,-0.20097,0.20708,-31.74,4.32,14.7
11.21,-6.4424,-4.4402,0.31398,-0.49877,-0.12034,-31.62,4.44,14.94
10.025,-3.2416,-4.1542,0.32132,-0.42944,0.016799,-31.38,4.68,15.3
9.0575,-6.4016,-4.522,0.35613,-0.63163,-0.26786,-31.44,4.62,15.48
5.094,-4.7535,-4.304,0.3262,-0.28405,-0.23152,-31.44,4.74,15.54
10.011,1.1305,-3.3778,0.44471,0.089797,-0.009163,-31.5,5.04,15.72
12.0,-8.1586,-5.6797,0.40745,-0.42486,-0.19823,-31.44,4.92,15.84
8.1041,-8.4855,-6.1836,0.096211,-0.73273,-0.52107,-31.38,5.22,16.08
2.9556,2.261,-4.2087,0.092546,-0.078802,-0.4667,-31.56,5.46,16.14
7.4095,0.01362,-3.9363,0.27611,-0.051924,-0.23366,-31.74,5.28,16.2
8.431,-5.1213,-6.4424,0.15974,-0.14294,-0.029627,-31.8,5.34,16.44
6.6195,2.5198,-4.4266,0.22174,0.52993,0.22999,-31.98,5.1,16.44
13.253,-6.3198,-5.203,0.24954,0.22022,0.2587,-32.04,5.04,16.56
13.702,-12.735,-7.6683,-0.12523,-0.83933,-0.42699,-32.04,4.92,16.5
-1.8524,-1.4846,-4.127,-0.26878,-0.17715,-0.57085,-32.16,4.62,16.68
-2.5061,6.4969,-4.1406,0.22541,0.19395,-0.22449,-32.22,4.5,16.68
10.529,6.0338,-4.9442,0.37538,1.047,0.062308,-32.28,4.32,16.8
17.625,-12.149,-7.0145,0.37018,-0.17287,-0.55253,-32.52,3.96,16.92
-0.35413,-1.2122,-8.2539,-0.047037,-0.67898,0.16738,-32.7,3.84,16.98
-1.3757,10.106,-4.7671,0.25504,0.60812,0.44746,-32.76,3.66,16.86
9.221,-8.2539,-7.3686,0.45968,0.14539,-0.42119,-32.76,3.42,16.86
0.081722,4.9033,-5.5707,0.23671,0.085216,0.090713,-32.64,3.48,16.86
9.4934,-2.6696,-1.2531,0.52626,0.59865,-0.19456,-32.7,3.18,16.8
9.0439,-2.2337,-4.0589,0.48411,0.10232,0.068111,-32.76,2.94,16.56
9.0439,-2.2337,-4.0589,0.27245,-0.30757,-0.67531,-32.76,2.94,16.56
-0.27241,0.31327,-3.5413,0.27642,0.29932,0.28772,-33.06,2.64,16.5
11.414,-0.040861,-3.8273,0.25656,0.35491,-0.46334,-33.12,2.58,16.38
10.392,-7.5184,-5.2438,0.21533,-0.4163,-0.75778,-33.3,2.52,16.02
0.17706,-1.3757,-3.8546,0.041233,0.023824,-0.27306,-33.48,2.4,15.54
4.2495,-0.98067,-3.0646,0.32223,0.66706,-0.19364,-33.48,2.22,15.24
11.863,-4.2495,-6.5514,0.16554,-0.35949,-0.19609,-33.54,2.16,15.24
9.4253,-4.6582,-7.5729,0.13592,-0.016799,-0.24007,-33.54,1.98,15.06
-0.35413,-1.6753,-4.9033,0.27397,0.70585,0.49969,-33.66,1.86,14.94
14.751,-1.7979,-4.0725,0.37599,0.58093,-0.26023,-33.96,1.74,14.58
12.476,-4.3177,-4.3858,0.50702,0.45937,-0.27367,-34.08,1.68,14.46
5.6116,-3.2008,-4.1542,0.46395,0.12645,0.12889,-34.08,1.62,14.28
10.678,-4.5628,-2.2337,0.31796,0.55986,-0.31612,-34.08,1.56,13.68
11.101,-7.3005,-2.3291,0.20067,-0.20647,-0.5565,-34.14,1.38,13.5
2.8603,-2.261,-3.8818,0.04215,0.024435,-0.17837,-34.2,1.26,13.26
12.898,-2.4108,-3.2553,0.072693,0.29535,-0.32376,-34.38,1.38,13.14
12.245,-2.8603,-4.7263,-0.011301,-0.28405,-0.086743,-34.38,1.2,13.02
8.145,-1.0215,-6.5378,-0.076053,0.040012,-0.12706,-34.62,1.2,12.84
7.4095,-2.4108,-5.4481,0.012828,0.29138,0.043677,-34.92,0.78,12.48
9.9565,-2.5061,-5.4754,0.085827,0.2361,-0.011912,-35.04,0.78,12.36
9.6977,-3.5413,-5.5299,0.17043,0.11973,-0.058338,-34.86,0.72,12.24
7.3686,-1.2395,-5.3392,0.19426,0.32895,0.0042761,-34.86,0.3,11.88
9.7658,-2.9965,-3.4323,0.35888,0.34514,0.026878,-34.92,0.18,11.58
8.7306,-2.3427,-5.6661,0.22633,-0.0036652,0.081245,-34.92,0.06,11.7
10.243,-3.1599,-4.0589,0.22846,0.35736,0.1408,-35.04,-0.12,11.34
11.278,-4.304,-4.5492,0.2587,-0.069639,-0.041539,-35.16,-0.18,11.22
4.018,-2.2065,-3.3915,0.29932,0.3259,0.37935,-35.1,-0.12,11.16
11.891,-4.3585,-4.3858,0.3653,0.20769,0.15882,-35.1,-0.3,10.86
10.556,-6.3743,-4.7399,0.23457,-0.24893,0.30788,-35.22,-0.36,10.56
6.7966,-3.7456,-6.7421,0.082467,-0.12675,0.22083,-35.04,-0.42,10.5
8.2676,-4.5764,-3.0237,0.24648,0.45418,0.16066,-34.92,-0.3,9.96
8.7306,-2.833,-4.7535,0.2978,0.10507,0.075136,-34.74,-0.3,9.78
9.5751,-2.152,-5.38,0.22174,0.10843,-0.059254,-34.8,-0.36,9.42
5.1349,-2.6015,-5.1076,0.1347,0.17196,0.12981,-34.74,-0.24,9.12
8.4719,-1.7706,-5.8431,0.055283,-0.038485,-0.19609,-34.62,-0.24,9.0
9.1937,-4.2768,-5.6388,-0.13164,0.14264,0.16005,-34.62,-0.36,8.64
8.8941,-0.58567,-4.808,-0.17287,0.5849,0.16616,-34.5,-0.3,8.76
9.8339,-3.2553,-4.1542,-0.12645,0.42302,0.18234,-34.5,-0.24,8.52
8.2539,-4.1951,-4.699,-0.1857,0.17685,0.18631,-34.5,-0.24,8.28
6.4697,-4.7263,-4.0997,-0.22022,0.21166,0.043066,-34.32,-0.3,7.98
6.2245,-2.9148,-3.3778,-0.17471,0.5006,0.03146,-34.08,-0.24,8.1
8.9622,-2.833,-2.2746,-0.038179,0.51893,-0.045815,-34.14,-0.24,7.8
7.7636,-4.304,-4.0725,-0.076969,0.27,0.022602,-34.2,-0.24,7.74
7.3141,-3.1463,-4.3858,-0.11759,0.41233,-0.032987,-34.38,-0.12,7.44
9.8066,-3.4732,-4.7807,-0.12645,0.3708,-0.069944,-34.26,-0.06,7.32
6.8374,-1.471,-5.3528,-0.2022,0.32742,-0.020464,-34.2,0.24,6.96
8.0224,-2.4789,-4.1542,-0.18387,0.48289,-0.098655,-34.2,0.24,6.9
9.2618,-2.8739,-4.7399,-0.21197,0.21869,-0.052534,-34.26,0.42,6.84
7.8998,-2.0703,-4.7944,-0.27947,0.36988,0.010385,-34.26,0.42,6.18
9.3708,-3.3778,-3.6639,-0.19181,0.54123,0.052534,-34.26,0.42,6.06
9.4389,-3.8273,-4.2359,-0.16585,0.26786,0.083078,-34.38,0.24,5.88
8.1858,-2.833,-4.5492,-0.20831,0.21044,-0.014966,-34.44,0.18,5.4
8.7987,-2.8603,-3.4596,-0.14355,0.48258,0.031154,-34.56,0.18,5.04
8.0632,-2.0431,-4.2904,-0.17349,0.44807,0.12034,-34.5,0.12,4.92
10.025,-4.4811,-3.7047,-0.15913,0.38912,0.088881,-34.2,0.18,4.38
10.406,-5.6388,-4.1542,-0.21319,0.084299,-0.046731,-34.14,0.12,4.32
3.7047,-0.83084,-5.6661,-0.23854,0.2303,0.063835,-34.38,0.12,4.08
7.5457,1.185,-4.0725,-0.31887,0.72876,0.11545,-34.32,-0.18,4.08
11.482,-4.9306,-4.4402,-0.23793,0.15852,0.064446,-34.32,-0.18,3.66
5.6661,-2.9965,-5.3119,-0.41814,0.072998,0.17532,-34.5,-0.3,3.42
8.9894,-3.0646,-3.8409,-0.44899,0.46731,0.16585,-34.38,-0.24,3.54
10.106,-3.4868,-3.0237,-0.3766,0.34514,0.13744,-34.26,-0.24,3.42
8.6762,-3.6639,-3.4732,-0.45112,0.28008,0.086132,-34.2,-0.18,3.0
9.4389,-3.4051,-4.0589,-0.50274,0.21777,0.015577,-34.14,-0.24,2.94
10.992,-2.6015,-3.4187,-0.53206,0.19487,-0.010385,-34.26,-0.12,2.88
9.2346,-3.6775,-3.6094,-0.48839,0.049786,0.12706,-34.26,-0.24,2.76
7.5729,-3.3097,-3.8954,-0.54153,-0.0094684,0.22235,-34.38,-0.24,2.76
9.6023,-2.4789,-4.8352,-0.5507,-0.10263,0.12065,-34.14,-0.06,2.46
10.147,-2.1929,-4.3721,-0.50244,0.047647,0.13989,-34.14,-0.06,2.28
10.025,-2.0294,-4.3177,-0.49083,-0.0064141,0.13011,-34.08,-0.12,2.28
8.4582,-3.8001,-3.5685,-0.3485,-0.079107,0.31093,-33.9,-0.12,2.16
8.7715,-2.3155,-4.2904,-0.31918,-0.13928,0.2584,-33.72,0.18,2.16
9.4934,-0.61292,-4.7263,-0.36163,-0.029016,0.20556,-33.78,0.24,2.1
9.2482,-3.051,-3.8818,-0.30421,-0.16768,0.28711,-33.72,0.36,2.4
7.7364,-1.7434,-5.0259,-0.41447,-0.36255,0.20372,-33.6,0.6,2.58
8.2812,-1.7298,-3.3097,-0.36377,-0.046426,0.22633,-33.54,0.9,2.52
9.2074,-3.5822,-4.0316,-0.27794,-0.30177,0.30116,-33.36,1.2,2.76
9.6023,-2.9556,-4.7535,-0.34331,-0.58918,0.18173,-33.3,1.44,2.82
9.507,-2.6968,-4.2223,-0.37141,-0.3766,0.16157,-33.06,1.44,3.06
8.2948,-2.2746,-3.6366,-0.27214,-0.37538,0.22907,-32.94,1.68,3.54
10.91,-2.4789,-3.9227,-0.21166,-0.47495,0.094073,-32.82,1.86,3.84
8.7034,-3.0237,-4.0861,-0.1854,-0.51068,0.17135,-32.7,2.34,4.26
9.221,-3.2961,-4.0997,-0.17379,-0.4554,0.13378,-32.64,2.52,4.62
8.7443,-3.2689,-4.0316,-0.098044,-0.4667,0.13714,-32.58,2.64,4.92
11.713,-3.1872,-3.623,-0.059559,-0.21044,0.29871,-32.16,2.88,5.4
11.863,-5.8023,-3.4868,-0.050396,-0.6127,0.058032,-32.1,3.0,5.7
4.6173,-0.40861,-4.9578,-0.135,-0.28772,0.20708,-31.98,3.06,6.06
10.692,-2.3972,-2.9829,-0.011301,-0.13042,0.19334,-31.68,3.3,6.6
9.5751,-4.2495,-4.5628,-0.11118,-0.70005,0.21625,-31.62,3.42,7.08
7.8589,-2.9829,-3.5822,-0.26817,-0.34697,0.032376,-31.5,3.78,7.8
7.5593,-4.2904,-3.514,-0.23243,-0.52565,0.07086,-31.44,3.96,8.22
7.7091,-2.8603,-4.5901,-0.2978,-0.56322,-0.028711,-31.26,4.08,8.4
9.1937,-5.4754,-3.9908,-0.24251,-0.5733,-0.063835,-30.9,4.38,8.88
5.1349,-3.2689,-4.3994,-0.20189,-0.49052,0.024435,-30.96,4.5,9.18
9.8066,-0.31327,-4.1133,-0.12614,-0.10965,0.010079,-30.96,4.5,9.42
6.3471,-3.8137,-5.3664,-0.12339,-0.68295,0.17623,-30.78,4.68,10.08
5.9112,-0.21793,-4.7944,-0.13256,-0.36957,0.15791,-30.96,4.8,10.32
10.515,-2.8739,-3.9908,-0.045204,-0.13042,-0.17929,-30.9,4.86,10.62
9.0848,-0.96704,-5.5435,-0.09499,-0.25137,0.024435,-30.96,5.04,11.1
9.8748,-3.6366,-3.9499,-0.028405,-0.1628,-0.14294,-31.02,5.1,11.4
4.6309,-1.5391,-4.0861,-0.03543,-0.06689,0.16524,-31.02,5.04,11.52
10.188,-4.1814,-4.5628,0.046426,-0.28588,-0.12492,-31.14,5.34,11.94
6.4288,-2.438,-5.0531,0.014661,-0.32162,0.0073304,-31.2,5.34,12.06
6.8919,-1.185,-4.5901,-0.02138,-0.041844,-0.073609,-31.2,5.4,12.36
8.8941,-2.0703,-3.8409,-0.009163,0.060781,-0.14752,-31.2,5.4,12.48
6.4969,-3.4868,-4.1814,0.098655,-0.13744,-0.29138,-31.08,5.46,12.78
6.4969,-3.4868,-4.1814,0.098655,-0.13744,-0.29138,-31.08,5.46,12.78
8.6217,-2.0975,-4.4402,0.12645,-0.16646,-0.34697,-31.14,5.58,13.08
9.8203,-3.3506,-5.5435,0.10812,-0.34911,-0.24129,-31.2,5.64,13.08
8.4174,-2.7513,-5.3392,0.061087,-0.20036,-0.1967,-31.2,5.7,13.32
7.6138,-3.0237,-4.8352,0.049786,0.025656,-0.0030543,-31.26,5.7,13.5
7.1507,-2.5879,-4.8216,0.079412,0.097433,0.010385,-31.38,5.64,13.5
9.8611,-3.5685,-4.6718,0.12767,0.11576,-0.014966,-31.5,5.64,13.62
7.7227,-4.8352,-4.2632,0.13714,-0.083383,0.0051924,-31.68,5.46,13.68
9.0439,-1.6208,-4.2223,0.10232,0.19334,0.03146,-31.8,5.52,13.68
9.4525,-3.7456,-3.4732,0.14997,0.35125,-0.066279,-31.92,5.58,13.68
7.9134,-4.0997,-3.8954,0.15058,-0.017715,0.0054978,-32.16,5.52,13.68
7.3822,-3.5685,-4.0589,0.11179,0.099876,-0.16738,-32.28,5.46,13.74
6.2517,-2.7513,-3.7047,0.19426,0.013134,-0.12248,-32.82,5.76,13.74
7.8045,-2.3836,-4.127,0.21105,0.10293,-0.1912,-32.94,5.7,13.68
6.6331,-2.5742,-5.2847,0.2419,-0.38576,-0.45112,-33.36,5.94,13.56
6.9328,-1.2395,-4.7126,0.16188,0.034208,-0.3824,-33.48,6.0,13.68
10.569,-3.5413,-3.5004,0.25504,0.091019,-0.39615,-33.66,6.0,13.44
7.355,-0.42223,-6.8374,0.097433,-0.15211,-0.065973,-33.96,5.94,13.2
11.032,-2.9556,-4.7399,0.20983,0.15852,-0.18784,-34.14,6.0,13.2
5.6661,-0.32689,-6.279,0.13134,-0.071777,0.18967,-34.26,6.12,13.2
10.025,-4.9442,-5.4481,0.18295,0.069639,-0.12492,-34.74,6.12,12.9
4.4947,-2.5742,-5.775,0.19578,-0.20586,0.17837,-34.86,6.12,12.66
5.6116,-0.38137,-5.2575,0.19853,0.26481,-0.051313,-34.98,6.12,12.54
8.54,-3.6775,-3.9499,0.36102,0.064141,0.14142,-35.28,6.18,12.36
7.5457,-2.4108,-4.7671,0.29932,-0.081551,0.14936,-35.28,6.12,12.12
10.583,-3.8954,-4.9306,0.29627,-0.10782,-0.021991,-35.4,6.18,11.94
7.5048,-2.2882,-4.6718,0.29016,0.073609,0.12248,-35.64,6.12,11.64
9.793,-3.6775,-4.2359,0.34086,0.049786,0.048258,-35.76,6.12,11.46
8.3084,-5.2166,-4.3177,0.31368,-0.081245,0.086437,-35.94,6.3,11.34
6.8374,-4.8897,-3.7047,0.27367,-0.0082467,-0.057727,-36.3,6.6,10.86
6.4833,-2.942,-4.0044,0.26909,-0.002138,-0.075747,-36.36,6.6,10.56
9.5751,-3.2008,-5.6388,0.24954,0.030849,0.03879,-36.48,6.72,10.26
9.0439,-4.5492,-5.7342,0.010996,-0.12798,0.03543,-36.66,6.6,9.84
7.7091,-5.6116,-5.3937,-0.053145,-0.13195,-0.036957,-36.78,6.54,9.78
5.8976,-3.7456,-5.5435,-0.087659,0.19517,-0.014661,-36.84,6.42,9.6
5.8295,-0.72188,-4.127,0.022907,0.4722,0.03207,-37.26,6.3,9.12
8.6489,-3.1191,-4.5356,0.10446,0.46426,0.10018,-37.56,6.06,8.82
9.6841,-5.2983,-5.489,0.037568,0.12492,0.036957,-37.68,5.94,8.52
7.5184,-5.3256,-4.2359,-0.10263,0.35827,-0.032987,-38.1,5.52,7.98
5.3256,-3.4459,-4.0044,-0.1011,0.36866,0.044899,-38.16,5.34,7.74
7.8862,-2.3155,-4.6445,-0.13286,0.45509,0.0079412,-38.28,5.1,7.5
9.1937,-2.6015,-5.0259,-0.1628,0.13989,-0.075747,-38.7,4.32,7.08
8.1586,-2.6287,-4.7671,-0.19426,0.23488,-0.013744,-38.88,4.08,6.9
8.9758,-3.1599,-4.8488,-0.18876,0.10049,-0.023518,-39.06,3.72,6.6
10.46,-3.3915,-4.5901,-0.18723,0.19456,-0.035125,-39.42,3.18,6.12
7.641,-1.3484,-5.38,-0.22663,0.11484,0.056505,-39.72,2.88,5.88
8.6762,-0.8717,-5.4345,-0.25381,0.21686,0.048258,-39.84,2.64,5.64
6.8238,-2.5879,-4.0316,-0.20281,0.043371,0.066584,-40.08,2.04,5.22
8.1177,-3.7728,-3.5958,-0.15882,0.15699,0.022297,-40.08,1.98,5.16
9.4525,-5.0531,-4.0589,-0.09896,-0.065363,-0.044899,-40.26,1.68,5.04
10.433,-0.7355,-4.6173,-0.091935,0.2306,-0.13958,-40.32,1.26,4.8
9.3163,-3.5004,-3.4732,0.0085521,0.044593,-0.022297,-40.5,0.96,4.62
5.9249,-1.8115,-4.8352,-0.05681,0.07422,-0.023518,-40.56,0.6,4.56
11.278,-7.2188,-3.5685,-0.077885,-0.12004,-0.30116,-40.38,0.18,4.5
5.5162,-5.6797,-4.2632,-0.11606,-0.23885,-0.16005,-40.32,-0.06,4.56
6.456,0.43585,-3.8954,-0.11148,0.38393,-0.2532,-40.2,-0.3,4.56
11.4,-4.413,-3.1735,-0.0079412,0.11362,-0.053756,-40.2,-0.72,4.56
8.5536,-4.8352,-5.6661,-0.17654,-0.25687,-0.076053,-39.9,-0.84,4.44
8.4855,-5.0668,-5.1485,-0.21808,-0.11026,-0.197,-39.9,-1.02,4.44
7.464,-1.8251,-4.3177,-0.15302,0.343,0.016493,-39.9,-1.38,4.56
11.605,-4.2768,-3.9908,-0.057727,0.2193,-0.13195,-40.14,-1.74,4.56
8.1177,-3.8954,-5.2847,-0.062919,-0.069333,0.034514,-40.14,-1.8,4.68
8.7034,-1.5663,-4.7399,-0.11332,0.17685,-0.069944,-40.26,-2.16,4.86
8.7034,-2.7241,-3.9635,-0.033903,0.31185,0.11484,-40.26,-2.16,4.8
8.6898,-4.3449,-3.5958,0.020769,0.024129,0.079412,-40.14,-2.16,4.86
7.927,-3.5004,-4.9306,-0.06017,-0.2419,-0.14508,-40.32,-2.1,5.16
7.0826,0.54481,-5.1757,-0.12889,0.14936,-0.10904,-40.32,-2.1,5.22
13.906,-3.2008,-2.2065,0.040623,0.20953,-0.25351,-40.32,-2.04,5.4
3.9363,-2.1248,-6.1973,0.045815,-0.52626,0.22999,-40.32,-2.04,5.76
9.0303,-2.1929,-4.6037,-0.10415,0.28314,-0.022907,-40.38,-1.98,5.88
11.645,-3.0646,-5.1076,-0.087659,0.12431,-0.032681,-40.38,-1.92,6.12
9.0984,-2.3291,-6.1836,-0.1463,-0.21869,0.14875,-40.44,-1.86,6.06
6.7148,-1.975,-4.3858,-0.07086,0.16585,0.19731,-40.14,-1.62,6.54
6.3471,-1.9341,-4.3313,0.011301,0.20036,0.32651,-39.96,-1.56,6.6
8.8668,-2.7649,-4.7671,-0.0036652,-0.024129,0.13897,-39.66,-1.44,6.72
7.6819,-3.3097,-3.9499,0.052534,0.12034,0.343,-39.42,-1.44,7.02
7.6546,-3.9635,-4.1814,0.09499,0.061087,0.32345,-39.36,-1.32,7.2
9.5615,-3.051,-4.3449,0.042761,0.025045,0.219,-39.24,-1.2,7.2
12.231,-7.4776,-3.2825,0.094073,-0.40317,-0.058338,-39.12,-1.02,7.32
4.7807,-1.1986,-4.3585,-0.05284,-0.13256,0.16188,-38.82,-0.72,7.38
8.3357,0.027241,-3.4187,-0.023213,0.2361,-0.076053,-38.7,-0.6,7.44
9.5479,-2.0294,-4.6037,-0.049786,-0.16707,0.20525,-38.58,-0.6,7.56
7.6138,-4.9306,-6.1836,-0.20311,-0.45845,0.017715,-38.22,-0.24,7.56
4.0861,1.5255,-5.4754,-0.23518,-0.17318,0.14783,-38.04,-0.24,7.74
8.9077,0.5993,-4.3994,-0.12278,0.16157,0.12859,-37.86,-0.06,7.68
7.069,-4.4811,-5.993,-0.16188,-0.28711,0.31154,-37.56,0.42,7.92
5.7342,-1.6072,-5.3119,-0.19578,0.083994,0.23366,-37.32,0.66,8.1
9.0167,-3.3506,-4.3721,-0.034208,0.055894,0.31704,-37.08,1.14,8.16
8.8396,-4.3994,-4.7263,-0.059865,-0.19517,0.090103,-36.9,1.32,8.22
6.9872,-3.337,-4.5764,-0.10476,-0.13775,0.061697,-36.78,1.56,8.34
9.2482,-2.9148,-3.8001,-0.10324,-0.1014,-0.087659,-36.6,1.86,8.4
9.6977,-2.3563,-4.1133,-0.18021,-0.11332,-0.13103,-36.6,1.98,8.52
10.106,-5.8567,-2.9148,-0.19914,-0.25015,-0.23946,-36.48,2.28,8.58
6.7829,-1.0488,-4.1406,-0.27825,0.16585,0.068722,-36.42,2.64,8.64
12.231,-2.6696,-5.1213,-0.26512,-0.21594,-0.11484,-36.24,2.94,8.82
11.21,-2.9284,-6.3335,-0.37904,-0.25992,0.13744,-36.3,3.12,8.82
9.8066,-2.9011,-4.9714,-0.354,0.098044,0.054367,-36.3,3.48,8.64
6.6604,-2.6015,-4.522,-0.2135,-0.026878,0.2135,-36.42,3.6,8.82
9.5479,0.081722,-4.9033,-0.15455,0.087659,0.045204,-36.6,3.78,8.88
7.9951,-4.2223,-4.2495,-0.039095,-0.25656,0.092241,-36.84,4.26,8.94
6.2926,-2.4517,-4.6037,-0.1069,-0.12431,-0.14264,-36.84,4.44,8.94
9.6841,-2.5334,-3.9635,-0.072998,-0.058643,-0.18204,-37.08,4.62,8.82
7.8998,-3.5413,-3.5685,-0.13531,-0.23213,-0.15119,-37.5,4.92,8.76
8.2267,-4.127,-3.4732,-0.14172,-0.13195,-0.16829,-37.62,5.1,8.58
7.75,-2.7513,-3.9227,-0.14447,-0.021686,-0.092241,-37.92,5.1,8.52
9.793,-1.2531,-4.808,-0.12523,0.13653,0.0048869,-38.4,5.22,8.4
11.564,-4.4402,-4.699,-0.12248,-0.16249,-0.053451,-38.64,5.1,8.16
8.4719,-5.203,-5.2302,-0.19853,-0.16646,-0.01405,-38.94,5.16,7.98
9.398,-1.4574,-4.3449,-0.16493,0.1689,0.040012,-39.6,5.16,7.98
9.398,-3.051,-3.8137,0.0088575,0.098349,0.10263,-39.96,5.16,7.62
8.5536,-3.3642,-5.0804,0.010996,-0.054062,0.08827,-40.14,5.04,7.56
7.1915,-4.3177,-4.1678,0.042761,-0.041539,0.058338,-40.68,4.8,7.38
8.0769,-2.4789,-4.7671,0.033903,-0.050396,-0.031765,-41.04,4.56,7.32
9.0848,-2.1656,-4.6173,0.025962,0.023824,-0.10599,-41.16,4.26,7.32
7.7636,-2.4108,-4.018,0.078496,0.034819,0.033903,-41.46,3.96,7.2
10.774,-4.5764,-3.9363,0.020464,-0.20342,-0.16646,-41.7,3.72,7.26
8.5672,-4.699,-4.2495,-0.043066,-0.42089,-0.21991,-41.76,3.54,7.26
8.0769,-0.83084,-3.732,-0.069639,-0.029627,-0.14478,-42.0,3.24,7.2
10.283,-2.0294,-4.6445,-0.000611,-0.28558,0.020464,-42.18,3.0,7.38
9.4117,-2.438,-5.4618,-0.010079,-0.35094,0.0097738,-42.3,2.94,7.44
9.2891,-2.0839,-5.3937,-0.037874,-0.18967,-0.082161,-42.24,2.76,7.38
6.3198,-1.3893,-4.7807,0.046731,-0.10599,0.11026,-42.42,2.28,7.68
9.7113,-2.7786,-4.9987,0.042761,-0.23518,-0.12675,-42.42,2.16,7.68
8.5944,-1.1032,-4.4811,0.037568,-0.17959,-0.050396,-42.42,1.74,7.8
9.1529,-2.4517,-4.2223,-0.0073304,-0.27184,-0.097128,-42.42,1.68,7.86
9.3708,-3.3097,-3.9635,-0.064141,-0.38026,-0.2135,-42.36,1.62,8.04
7.8045,-2.3427,-4.2223,-0.067806,-0.33659,-0.19639,-42.36,1.44,8.16
6.8647,-1.7298,-3.8954,0.026573,-0.081551,-0.0061087,-42.3,1.2,8.4
7.8589,-2.4789,-5.4073,0.0097738,-0.28894,-0.075747,-42.42,1.14,8.88
9.7794,-3.5413,-5.3392,0.000916,-0.27611,-0.17593,-42.3,1.02,9.0
5.094,-2.656,-4.8488,0.043982,-0.24771,-0.0082467,-42.12,0.84,9.48
10.42,-4.3177,-4.9442,0.15669,-0.13653,-0.089797,-41.88,0.78,9.84
8.8668,-4.4811,-5.2166,0.18998,-0.26298,0.072998,-41.76,0.78,10.14
9.2891,-0.99429,-5.6661,0.18876,-0.05284,-0.04215,-41.46,0.6,10.62
8.826,-2.1248,-5.4073,0.20739,-0.018326,0.085216,-41.46,0.48,10.98
8.8805,-2.3699,-5.884,0.1295,-0.13775,0.0054978,-41.16,0.42,11.4
7.246,-0.8036,-5.2983,0.069944,-0.049175,0.054367,-40.74,0.24,11.7
8.5672,-1.7706,-4.9033,0.030849,-0.051313,0.10537,-40.56,0.24,11.88
8.7034,-4.1133,-5.203,-0.044593,-0.24618,0.089186,-40.5,0.24,12.18
7.1234,-3.2144,-4.5083,-0.026573,-0.041233,0.093462,-40.26,0.12,12.54
7.6138,-2.6696,-4.0861,0.037568,0.013134,0.12737,-39.84,-0.06,12.54
9.4253,-3.6094,-4.4947,0.055894,-0.17074,-0.030849,-39.6,0.06,12.72
5.5435,-1.7162,-4.1951,0.074526,0.028711,0.098044,-39.12,0.12,13.14
7.3005,-2.0567,-3.8273,0.1182,0.062614,-0.016493,-39.06,0.12,13.2
6.5786,-2.0567,-4.7671,0.064141,-0.087965,-0.010996,-38.94,0.12,13.38
8.0905,-1.866,-4.5492,0.03207,0.20067,-0.013744,-38.7,0.12,13.44
9.9292,-4.2904,-4.2632,0.015577,0.051924,-0.037568,-38.58,0.3,13.38
9.2891,-2.547,-4.9714,-0.040623,0.23152,-0.043066,-38.04,0.54,13.5
10.052,-4.0316,-4.4675,0.033598,0.25229,-0.11209,-38.04,0.66,13.68
6.279,-2.3291,-5.6524,-0.0015272,0.30665,-0.025351,-37.86,0.9,13.98
9.3572,-3.4187,-5.5162,-0.015882,0.31948,-0.11362,-37.74,1.02,13.8
6.7693,-3.2961,-5.4209,-0.014355,0.16096,0.059254,-37.56,1.2,14.1
7.9951,-2.5742,-5.884,-0.044899,0.31887,-0.012828,-37.38,1.26,14.04
7.641,-2.2746,-4.9442,-0.020769,0.44166,0.1347,-37.38,1.44,13.92
10.651,-5.3392,-5.0804,-0.029016,0.3094,0.066584,-37.26,1.38,13.86
3.514,-1.1441,-4.7263,-0.099266,0.15547,0.032681,-37.02,1.62,13.56
11.645,-2.833,-2.2201,-0.16677,0.7364,0.1741,-36.9,1.8,13.38
14.07,-8.4174,-2.3427,0.02138,0.81031,-0.34483,-36.78,1.92,13.38
6.3471,-4.6037,-5.203,-0.16768,-0.1182,0.12339,-36.6,1.98,13.26
12.939,-4.1542,-2.942,-0.080023,0.76541,-0.23946,-36.6,2.28,12.84
12.64,-5.2166,-3.623,-0.0045815,0.35339,-0.1689,-36.48,2.16,12.54
6.0202,-1.1169,-5.8023,-0.08827,0.31032,-0.048869,-36.36,2.1,12.24
8.4855,-2.0567,-4.018,-0.0054978,0.58093,-0.13744,-36.24,2.1,12.18
10.447,-2.0975,-5.2302,-0.08094,0.15272,-0.019548,-36.12,2.1,11.94
12.871,-4.1678,-3.7865,0.048869,0.09896,-0.24221,-36.12,2.1,11.88
6.6059,-3.2825,-4.3721,-0.029932,0.034819,0.22999,-36.18,2.16,11.7
12.354,-3.228,-3.8273,-0.052229,0.16463,-0.2306,-36.12,2.4,11.4
8.4719,-2.0975,-5.2438,-0.014966,-0.019242,0.29871,-36.06,2.52,11.1
10.379,-2.2474,-3.5958,-0.051618,0.002138,-0.21411,-36.18,2.4,10.98
7.4095,-2.5742,-3.5958,0.073915,-0.10446,0.054672,-36.24,2.4,10.92
4.304,0.8036,-5.5707,-0.013439,-0.089186,0.1631,-36.24,2.34,10.92
12.544,-3.6366,-3.3915,0.13714,-0.023824,-0.13683,-36.3,2.28,10.74
6.674,-2.6696,-5.9657,0.012523,-0.51465,0.20586,-36.24,2.4,10.8
9.1256,-2.2337,-4.5083,-0.059865,0.037568,-0.072082,-36.18,2.64,10.8
6.96,-1.2531,-4.018,-0.0067195,-0.036652,0.18387,-35.94,2.76,10.68
7.927,-0.96704,-4.522,0.018021,0.013439,0.27367,-35.88,2.82,10.62
6.6876,-3.1735,-5.38,0.068417,-0.40531,0.10873,-35.58,2.88,10.86
3.9227,0.57205,-4.9306,0.033903,0.014966,0.48106,-35.64,2.94,10.86
11.387,-1.8387,-2.6832,0.23854,0.30757,0.085521,-35.64,3.0,10.92
7.9134,-3.8546,-4.4811,0.27275,-0.28619,0.4725,-35.46,3.12,10.98
9.7658,-4.7126,-4.4266,0.19945,-0.29108,0.069333,-35.16,3.24,11.04
8.6353,-6.1836,-4.3858,0.13928,-0.27703,0.25717,-34.92,3.42,10.86
8.6625,-2.1384,-3.623,0.1857,0.12187,0.10018,-34.68,3.72,10.86
10.392,-4.2904,-4.2359,0.21869,-0.14966,0.030543,-34.56,3.9,10.74
6.2245,0.10896,-5.7069,0.058643,-0.096822,0.17318,-34.56,4.02,10.8
8.9622,-2.0567,-4.5356,-0.020159,-0.01069,0.062919,-34.32,4.2,10.68
8.0905,-3.3506,-4.7807,-0.062919,0.034208,0.12889,-34.26,4.38,10.8
9.9292,-5.4345,-4.985,-0.12737,-0.18784,-0.01741,-34.14,4.68,10.92
6.2109,-2.7786,-5.4754,-0.18021,-0.018631,0.078802,-33.84,5.1,10.56
6.279,-1.5255,-4.3449,-0.16616,0.4273,0.15302,-33.72,5.16,10.5
9.7658,-5.4209,-3.3642,-0.037874,0.41936,0.19151,-33.54,5.16,10.38
4.4539,-2.3563,-5.5435,-0.02474,-0.27672,0.21441,-33.6,5.34,10.26
5.6661,-0.47671,-5.0531,0.015272,0.4218,0.035125,-33.6,5.52,10.2
9.9565,-2.8058,-2.3699,0.16921,0.25168,0.044593,-33.72,5.7,10.14
8.322,-3.4459,-4.7535,0.088575,-0.26114,-0.067501,-33.84,5.94,9.84
6.5514,-1.58,-4.3585,0.023213,0.083689,-0.083078,-33.78,5.94,9.9
8.145,-1.9205,-3.2144,0.038179,0.2135,-0.084299,-33.54,6.06,9.84
8.54,-3.8137,-4.9714,-0.0061087,-0.32406,-0.36316,-33.72,6.12,9.36
4.2632,-0.28603,-5.775,-0.16768,0.15333,-0.050396,-33.84,6.18,9.06
10.937,-3.2961,-3.8546,-0.080634,0.12706,-0.33689,-33.96,6.06,8.82
7.0145,-1.4574,-6.3743,-0.1912,-0.23366,0.033292,-34.14,5.88,8.7
7.8589,-3.1327,-4.5083,-0.099571,0.33445,0.034208,-34.26,5.94,8.7
8.8805,-3.5958,-4.5083,-0.0051924,0.21411,0.083078,-34.32,6.0,8.76
10.896,-2.8603,-4.1133,0.010079,0.23243,0.092852,-34.38,6.12,8.58
10.025,-5.5435,-3.8546,0.090408,0.0562,0.12034,-34.5,6.06,8.52
6.1564,-3.9499,-4.8488,0.04215,0.028405,0.17929,-34.56,5.88,8.52
9.3436,-2.942,-3.4187,0.038179,0.35827,-0.036346,-34.44,5.52,8.58
9.4934,-2.9965,-3.909,0.01069,0.081245,-0.012523,-34.68,5.46,8.46
8.6081,-2.5879,-4.304,-0.054672,0.083994,-0.076053,-34.86,5.28,8.34
7.6819,-1.471,-3.7728,-0.089492,0.14875,-0.039706,-34.98,5.22,8.34
11.414,-3.9908,-3.1191,-0.057727,-0.057727,-0.30207,-35.04,5.1,8.4
9.9837,-2.9148,-4.9033,-0.062614,-0.56169,-0.01741,-22.38,16.92,23.04
6.7012,0.16344,-4.1678,-0.043371,-0.65485,0.073609,-22.14,16.8,23.34
10.951,-2.3699,-4.0589,-0.019853,-0.62614,-0.023213,-21.96,16.92,23.82
8.4582,-2.7513,-3.5685,-0.016799,-0.60292,-0.10476,-21.78,16.86,24.18
7.0417,-0.081722,-3.4868,0.047953,-0.57727,-0.016799,-21.66,16.8,24.6
7.8045,-1.58,-2.9284,0.065973,-0.56658,0.02138,-21.18,16.98,25.38
9.7658,-1.3893,-2.7649,0.12126,-0.55283,-0.026878,-21.0,16.98,25.62
8.145,-4.6582,-3.0646,0.054672,-0.65363,-0.25595,-20.88,16.98,26.16
6.9328,-3.5413,-2.2746,0.08491,-0.58307,-0.25504,-20.7,17.04,26.28
8.54,-3.4868,-2.8739,0.13622,-0.489,-0.3317,-20.46,17.16,26.58
7.75,-2.4108,-3.9635,0.20922,-0.50152,-0.14783,-20.46,17.28,27.0
12.0,-4.5083,-5.1894,0.20097,-0.53084,-0.30788,-20.28,17.16,27.18
7.0553,-3.0237,-4.6854,0.2025,-0.47739,-0.19395,-20.1,17.16,27.3
9.4253,-2.8058,-4.4811,0.26817,-0.27306,-0.1463,-19.8,17.52,27.78
7.246,-1.4438,-4.3313,0.35888,-0.26328,0.041844,-19.68,17.46,27.9
13.498,-5.1213,-4.808,0.3769,-0.26481,-0.1069,-19.68,17.52,28.02
5.7478,-2.8194,-3.4459,0.33903,-0.39431,-0.37599,-19.5,17.7,28.14
7.1915,-0.74912,-2.4789,0.45204,-0.24099,-0.34025,-19.56,17.7,28.26
11.959,-3.3778,-3.4732,0.54886,-0.27642,-0.10568,-19.62,17.88,28.5
13.171,-5.0123,-4.3858,0.48411,-0.5174,-0.57971,-19.62,17.88,28.56
5.6933,-0.91256,-3.3642,0.43219,-0.60659,-0.49541,-19.56,17.94,28.68
8.5263,-0.6674,-3.2825,0.47922,-0.41661,-0.44685,-19.62,17.94,28.68
7.6683,-3.1054,-4.127,0.49938,-0.53909,-0.48319,-19.44,17.94,28.8
9.5206,-3.5413,-4.3858,0.49999,-0.39615,-0.58643,-19.44,18.0,28.8
7.6683,-3.4459,-4.5083,0.5006,-0.36041,-0.47861,-19.5,18.0,28.86
7.3141,-2.5742,-4.985,0.44166,-0.3656,-0.67134,-19.86,17.94,28.8
6.1564,-1.8932,-4.413,0.56413,-0.12828,-0.39065,-19.92,17.88,28.8
7.9407,-4.1406,-5.3528,0.57299,-0.14416,-0.3992,-19.92,17.88,28.68
7.9543,-3.6366,-5.3119,0.51679,-0.13622,-0.28436,-20.16,17.88,28.56
8.8941,-3.514,-5.1213,0.54734,-0.014966,-0.37415,-20.16,17.88,28.38
8.8805,-3.0373,-4.3994,0.63499,0.092852,-0.11209,-20.16,17.82,28.02
10.501,-4.8761,-5.0531,0.6408,0.15974,-0.31246,-20.22,18.12,27.78
6.6059,-4.9033,-4.3585,0.63072,0.072082,-0.25748,-20.46,18.0,27.24
6.9328,-4.4947,-4.4947,0.61148,0.25656,-0.3036,-20.58,17.94,27.06
6.2517,-4.1133,-4.522,0.61514,0.27367,-0.24465,-20.7,18.0,26.76
9.1529,-3.8546,-5.9249,0.56688,0.14019,-0.39645,-21.0,18.12,26.16
6.4833,-1.3484,-5.1894,0.51221,0.16402,-0.26145,-21.12,17.94,25.68
8.4719,-1.3076,-5.5299,0.40317,0.24374,-0.30727,-21.42,17.82,24.9
8.4174,-2.4517,-5.38,0.36805,0.26695,-0.22419,-21.6,17.82,24.66
7.7636,-2.6968,-4.985,0.20281,0.30665,-0.16463,-21.72,17.88,24.24
7.4095,-2.7513,-4.699,0.13897,0.35461,-0.12737,-21.84,17.76,23.88
7.4503,-3.2825,-3.5822,0.16371,0.38179,-0.12553,-22.14,17.82,23.22
8.036,-4.3449,-3.2144,0.22358,0.37843,-0.086132,-22.32,17.76,22.86
8.6217,-5.3937,-3.4732,0.23243,0.3149,-0.21564,-22.56,17.52,22.8
6.0883,-3.9771,-3.8001,0.23182,0.35888,-0.23366,-22.86,17.58,22.14
6.6331,-3.6775,-3.9635,0.25656,0.46304,-0.24343,-22.98,17.64,21.9
7.0826,-3.3778,-4.127,0.26328,0.5174,-0.16982,-23.16,17.52,21.6
9.1256,-4.2768,-4.5356,0.23518,0.49358,-0.24587,-23.46,17.28,20.94
6.565,-2.3972,-5.0395,0.20281,0.58093,-0.11759,-23.7,17.28,20.82
7.4912,-2.4789,-4.7807,0.18601,0.64874,-0.081245,-23.82,17.4,20.58
7.1915,-2.6015,-4.7944,0.15149,0.68478,-0.030849,-24.36,17.4,19.98
8.2812,-2.9829,-4.6718,0.16249,0.70402,-0.13622,-24.6,17.4,19.68
7.1507,-3.514,-4.3449,0.17685,0.76053,-0.027184,-25.14,17.22,18.96
8.54,-2.4789,-4.1133,0.16799,0.80023,-0.0051924,-25.32,17.1,18.48
9.8611,-4.127,-3.5958,0.2251,0.7871,-0.11118,-25.62,17.1,18.12
8.8668,-2.9556,-3.5413,0.18418,0.73151,0.079412,-26.04,17.16,17.1
10.529,-4.6718,-2.9692,0.18021,0.70311,-0.089797,-26.28,17.1,16.74
6.4016,-3.2144,-4.1406,0.13531,0.69975,0.047342,-26.28,16.98,16.2
9.9292,-5.0259,-3.9908,0.074526,0.759,-0.081856,-26.52,16.92,15.3
6.7148,-3.0646,-4.522,0.000611,0.82956,0.1295,-26.76,16.98,14.82
8.431,-2.2746,-4.4402,-0.05681,0.77244,-0.096517,-26.94,17.04,14.34
8.1586,-4.1133,-3.6639,-0.067195,0.82131,-0.062003,-27.12,16.86,13.2
8.6081,-2.8058,-3.2416,-0.10385,0.74556,-0.13592,-27.18,16.74,12.78
9.3163,-3.228,-2.9692,-0.12523,0.73457,-0.044899,-27.36,16.5,11.88
10.692,-4.3449,-3.1327,-0.14875,0.62339,-0.095906,-27.48,16.62,11.4
9.0575,-3.4732,-3.8682,-0.21075,0.45387,-0.16066,-27.72,16.5,10.98
9.2346,-2.7104,-3.3778,-0.35125,0.52382,-0.11698,-27.9,16.14,10.26
9.9429,-3.4187,-3.2144,-0.40623,0.57971,-0.067195,-28.02,15.9,9.96
10.311,-3.9908,-3.2553,-0.41661,0.37141,-0.082772,-28.08,15.78,9.6
8.6081,-1.7979,-4.2904,-0.54642,0.29322,-0.040928,-28.5,15.66,9.0
10.801,-2.6015,-3.4187,-0.54489,0.36011,-0.036957,-28.68,15.6,8.88
12.19,-4.0316,-2.6968,-0.48442,0.34178,-0.14691,-28.74,15.54,8.7
8.6353,-1.4846,-3.2144,-0.47342,0.13042,-0.025962,-28.86,15.24,8.4
8.9894,-1.2258,-2.8058,-0.3372,0.30299,0.077274,-28.92,15.0,8.22
11.25,-1.9068,-3.6911,-0.35888,-0.0085521,0.046731,-28.98,14.94,8.16
8.3084,-0.89894,-4.3721,-0.42944,-0.14416,0.12706,-28.98,14.64,8.04
7.9815,-0.51757,-3.3915,-0.416,0.037263,0.13347,-28.98,14.58,8.22
10.706,-1.4574,-3.4187,-0.42638,-0.21411,0.13256,-28.98,14.7,8.1
10.379,-2.5334,-3.8682,-0.47403,-0.40561,0.15547,-28.86,14.76,8.34
7.464,-0.95342,-3.4596,-0.45754,-0.22969,0.23335,-28.8,14.94,8.52
10.161,-2.7786,-2.0294,-0.30879,-0.0054978,0.21075,-28.74,14.94,8.64
8.4174,-4.2495,-2.6832,-0.17135,-0.29596,0.20647,-28.56,14.88,9.0
7.4776,-3.8954,-2.6287,-0.12645,-0.10843,0.27397,-28.62,14.76,9.06
7.6546,-3.909,-2.8467,-0.13653,-0.015882,0.37415,-28.44,14.82,9.36
9.9292,-3.7456,-4.0589,-0.17593,-0.11576,0.27,-28.38,14.82,9.54
9.6704,-4.8761,-4.7807,-0.2416,-0.055894,0.21625,-28.38,14.94,9.72
8.3084,-2.9011,-3.9499,-0.2923,0.13011,0.36346,-28.2,15.06,10.02
10.597,-4.1951,-4.3858,-0.33139,-0.073304,0.17318,-28.08,15.06,10.14
7.8589,-1.9477,-4.2223,-0.39767,-0.099571,0.17623,-28.02,15.12,10.32
7.641,-1.58,-3.8954,-0.45051,0.022297,0.23702,-27.72,15.18,10.74
8.6762,0.12258,-3.8273,-0.5452,-0.11179,0.31001,-27.48,15.24,10.74
11.605,-1.8796,-3.3506,-0.5507,-0.21594,0.1179,-27.36,15.3,10.98
7.1098,-2.6832,-3.6366,-0.59682,-0.27978,0.25565,-27.24,15.36,11.22
9.4934,-3.9227,-3.3778,-0.5962,-0.23702,0.037263,-27.18,15.42,11.46
7.0417,-3.051,-3.0646,-0.53603,-0.23854,0.14111,-26.76,15.66,11.76
7.9543,-2.0839,-2.5742,-0.43524,-0.073304,0.097433,-26.82,15.66,11.94
10.665,-4.0316,-2.5198,-0.33109,-0.24099,0.053145,-26.82,15.72,12.12
8.5944,-2.7241,-3.623,-0.33903,-0.42761,0.063835,-26.58,15.72,12.66
9.2482,-1.9886,-3.7047,-0.33231,-0.18601,0.11454,-26.7,15.84,13.02
9.1256,-2.3563,-3.9363,-0.3207,-0.26878,0.10324,-26.64,16.08,13.62
8.8124,-1.866,-4.1951,-0.33903,-0.21411,0.096517,-26.58,16.14,13.92
8.9894,-1.4165,-4.0861,-0.33048,-0.16677,0.10721,-26.58,16.2,14.16
10.365,-2.4108,-4.3449,-0.29108,-0.29719,0.079412,-26.7,16.2,14.58
9.112,-1.8932,-4.4266,-0.34606,-0.3317,0.055894,-26.52,16.14,14.94
7.9679,-0.77636,-4.1406,-0.31612,-0.22907,0.10934,-26.52,16.2,15.12
10.597,-1.975,-4.5083,-0.26328,-0.37049,0.027184,-26.64,16.08,15.66
10.46,-2.6151,-4.4402,-0.21655,-0.42761,-0.021075,-26.52,16.02,15.96
8.5127,-1.6344,-4.2768,-0.15088,-0.31551,0.067806,-26.22,16.14,16.32
10.379,-2.7649,-3.1191,-0.087659,-0.25565,-0.002138,-25.8,16.08,16.62
9.7385,-3.0782,-3.2144,-0.039095,-0.33598,-0.086437,-25.74,16.2,16.86
8.3765,-1.6072,-2.7786,-0.014966,-0.33903,-0.045204,-25.62,16.14,17.04
9.9156,-4.0725,-2.1929,0.07758,-0.25137,-0.099571,-25.32,16.26,17.64
7.9951,-2.9556,-2.4653,0.066584,-0.37415,-0.076358,-25.26,16.08,17.7
7.9679,-2.2474,-2.6015,0.085521,-0.30482,-0.072082,-25.14,15.96,18.0
7.4912,-2.9011,-3.4459,0.010385,-0.29047,0.065363,-25.02,15.84,18.54
10.324,-3.7456,-3.732,-0.033598,-0.32467,-0.14783,-24.96,15.78,18.66
7.355,-3.1191,-4.2495,-0.035125,-0.20495,0.07025,-24.84,15.78,18.78
9.2346,-3.6775,-4.2223,-0.016493,0.076358,-0.057421,-24.6,16.2,18.84
9.3708,-3.6094,-4.3858,-0.035125,-0.028405,-0.10996,-24.78,16.2,19.14
8.322,-2.2882,-3.7047,0.0061087,-0.087354,-0.079107,-24.9,16.14,19.2
8.826,-2.7513,-2.2746,0.24038,-0.17043,-0.13439,-24.96,16.02,19.5
8.826,-3.0918,-2.833,0.30299,-0.46334,-0.16524,-24.96,16.08,19.8
8.1041,-1.7706,-3.6639,0.3091,-0.45479,-0.16341,-24.78,16.08,19.92
10.964,-3.1191,-3.5958,0.30299,-0.29535,-0.14844,-24.84,16.08,19.8
8.2539,-1.9886,-4.4675,0.21838,-0.42302,-0.20586,-24.96,16.14,19.86
7.5865,-1.4165,-3.732,0.20556,-0.20861,-0.1854,-25.02,16.26,19.86
6.9191,-1.0896,-4.4402,0.19028,-0.16157,0.0015272,-24.9,16.08,19.98
10.733,-2.6015,-4.2223,0.18265,-0.1408,-0.087354,-25.02,16.2,20.04
7.7227,-2.9556,-5.1485,0.18509,-0.16524,-0.011606,-25.14,16.2,20.04
8.54,-2.0567,-3.6775,0.22694,-0.029627,0.197,-25.02,15.96,20.22
10.556,-4.1406,-4.4402,0.35491,-0.0562,0.2025,-24.9,15.84,20.04
8.9077,-4.4947,-5.0531,0.31887,-0.2135,0.17654,-24.72,15.96,20.04
7.6546,-3.1191,-4.7399,0.32956,0.074526,0.25687,-24.66,15.96,19.86
8.3493,-3.3097,-4.0589,0.34911,0.1631,0.14416,-24.66,15.9,19.8
7.2869,-3.7184,-4.4539,0.24679,0.021991,0.11301,-24.66,15.96,19.68
7.927,-3.1599,-4.0725,0.22571,0.088881,0.11362,-24.6,15.84,19.68
6.456,-1.7979,-3.7592,0.12339,0.15058,0.12278,-24.48,15.66,19.56
10.12,-2.0567,-4.1951,0.089492,0.08094,0.04612,-24.12,15.66,19.56
10.134,-2.1929,-4.3313,0.030849,-0.076969,-0.12431,-24.06,15.66,19.38
8.7443,-2.4108,-3.5549,-0.047342,-0.04612,-0.081856,-24.06,15.84,19.32
8.7443,-3.3915,-3.1599,-0.057727,0.0042761,0.056505,-23.76,15.78,19.2
8.2539,-3.8954,-3.4732,-0.1014,-0.07086,0.06689,-23.7,15.84,18.9
8.3357,-3.6639,-4.127,-0.11087,-0.025045,0.0067195,-23.76,15.84,18.54
7.8453,-4.127,-4.3585,-0.097738,0.0048869,-0.024435,-23.52,15.84,18.48
7.8181,-4.3858,-4.1542,-0.0030543,0.1182,-0.078191,-23.58,15.84,18.54
7.641,-4.0589,-4.4811,0.071166,0.087354,-0.097128,-23.28,15.9,18.42
7.4776,-1.4165,-4.7807,0.11881,0.044899,-0.065363,-23.4,15.84,18.48
10.46,-3.2689,-4.4947,0.12584,0.10415,-0.20983,-23.34,15.84,18.42
7.0826,-0.6674,-4.7399,0.011606,0.1124,-0.095295,-23.28,15.9,18.48
10.093,-2.833,-4.0997,0.036346,0.24099,-0.13683,-23.34,16.02,18.6
9.4798,-2.9965,-4.1814,-0.014355,0.081856,-0.069639,-23.34,16.08,18.6
9.1665,-2.8875,-3.8409,-0.01405,0.091019,-0.22083,-23.4,15.78,18.48
6.6876,-1.4982,-3.732,0.020464,0.19181,-0.054672,-23.4,15.72,18.42
9.3436,-2.5879,-3.5822,0.052229,0.23488,-0.11637,-23.46,15.48,18.72
7.2188,-2.5606,-4.2495,0.050702,0.074526,-0.065668,-23.58,15.36,18.72
8.54,-2.9556,-4.3721,0.057421,0.17959,-0.14111,-23.82,15.12,18.66
9.2482,-4.6718,-4.0589,0.04215,0.15455,-0.15272,-23.82,14.94,18.48
8.4446,-2.9011,-4.0452,0.076053,0.21808,-0.2193,-24.24,14.7,18.18
9.0575,-3.5413,-4.2223,0.13134,0.25748,-0.15302,-24.24,14.52,17.88
9.0303,-2.8603,-4.2904,0.12828,0.1909,-0.19426,-24.24,14.28,17.76
8.4855,-0.27241,-3.8954,0.13775,0.31887,-0.13225,-24.48,14.16,17.58
11.482,-2.8739,-3.8273,0.11973,0.20678,-0.16616,-24.54,13.86,17.28
9.2074,-2.833,-4.3858,0.076664,0.12645,-0.08827,-24.6,13.68,17.04
7.7364,-1.6344,-3.9363,-0.033292,0.23885,-0.048564,-24.6,13.26,16.92
8.826,-3.0918,-3.228,-0.03207,0.33048,0.087965,-24.78,13.08,16.68
10.665,-4.3449,-3.4732,-0.092852,0.090713,-0.092852,-24.84,13.02,16.44
7.0281,-4.1678,-2.8603,-0.062003,0.18357,-0.043371,-24.96,12.66,16.26
7.5729,-4.127,-2.4653,-0.051313,0.34361,-0.10934,-24.96,12.6,16.26
8.8941,-4.127,-2.4925,-0.045204,0.20861,-0.14294,-25.02,12.54,16.2
9.3436,-2.8194,-3.2416,0.01741,0.039095,-0.13011,-25.2,12.24,16.02
9.507,-3.0101,-3.4051,0.02138,0.089797,-0.079107,-25.2,12.3,15.96
9.3027,-3.0918,-3.7728,0.019242,0.06353,-0.060781,-25.32,12.36,15.96
10.188,-2.3836,-3.8137,0.044593,0.1182,0.047342,-25.38,12.06,15.72
8.6762,-2.4244,-4.9987,0.0097738,-0.021991,0.07086,-25.44,11.94,15.48
9.3844,1.0215,-5.0668,0.0045815,0.092241,-0.016493,-25.44,11.88,15.54
6.5786,-1.8387,-4.8761,0.042761,0.018631,0.098655,-25.5,11.94,15.42
8.5808,-0.28603,-3.8273,-0.023213,-0.030849,0.20525,-25.56,12.0,15.54
11.25,-3.2689,-3.3778,0.039095,0.058643,0.17685,-25.5,12.18,15.42
8.7851,-1.757,-3.623,0.018937,-0.18143,0.30024,-25.32,12.36,15.42
9.1256,-2.3155,-3.5413,0.070555,0.027184,0.28558,-25.2,12.3,15.42
7.8317,-3.1327,-3.1735,0.13867,0.060781,0.34728,-25.02,12.3,15.36
8.9486,-4.0316,-3.5685,0.13439,0.021075,0.30635,-24.78,12.36,15.48
7.3686,-3.0373,-4.4811,0.079718,-0.015577,0.43433,-24.48,12.42,15.6
8.8805,-4.2768,-4.1542,0.080329,0.15149,0.18967,-24.3,12.36,15.6
8.1586,-4.0725,-4.2359,0.022907,0.089186,0.23732,-24.0,12.48,15.78
6.9872,-2.9556,-3.3506,-0.025351,0.18021,0.30329,-23.58,12.9,16.02
8.3357,-2.7377,-3.0918,-0.086743,0.12614,0.11057,-23.46,13.08,16.08
7.9407,-1.0624,-3.514,-0.17868,0.053756,0.25381,-23.22,13.14,15.96
10.529,-3.4732,-3.8546,-0.29688,-0.015577,0.13653,-22.74,13.26,16.14
8.2676,-3.2144,-3.8954,-0.33781,-0.11729,0.135,-22.5,13.2,16.2
7.1643,-3.3778,-3.3778,-0.29535,-0.0039706,0.24007,-22.2,13.32,16.2
7.8726,-6.0338,-3.2825,-0.13561,0.15852,0.13164,-21.9,13.56,16.2
7.8862,-4.5492,-3.9635,-0.072388,0.14691,0.096211,-21.78,13.68,16.32
8.8805,-3.7456,-3.6503,-0.012217,0.40225,0.063835,-21.72,13.8,16.32
7.3414,-3.4187,-3.337,0.07758,0.48991,0.075747,-21.36,13.92,16.38
8.7034,-2.4789,-4.4402,0.03879,0.32406,0.058032,-21.3,14.22,16.32
9.6977,-3.3097,-4.4402,0.013134,0.34086,-0.0042761,-21.36,14.22,16.2
8.6081,-0.17706,-5.1485,-0.077885,0.27703,-0.0088575,-21.12,14.34,16.26
9.1801,-0.42223,-5.1213,-0.11057,0.30543,-0.0042761,-21.06,14.34,16.14
10.038,-1.1986,-4.8352,-0.13408,0.23732,-0.055283,-21.06,14.4,16.32
8.7987,-1.3893,-4.5356,-0.17379,0.15699,-0.029322,-21.0,14.82,16.26
9.5887,-0.21793,-4.0452,-0.23274,0.03879,-0.040317,-21.0,15.06,16.38
10.338,-3.1463,-3.7047,-0.23182,-0.021686,-0.07758,-21.0,15.12,16.32
9.7658,-3.2825,-2.9011,-0.22144,-0.10049,-0.083383,-21.0,15.12,16.2
8.9349,-5.4754,-1.9205,-0.030849,0.042761,-0.11332,-20.94,15.06,16.14
7.8045,-4.8761,-2.1929,-0.021075,0.019853,-0.1686,-21.06,15.0,16.08
8.1586,-4.3177,-2.0294,0.16371,0.20189,-0.20281,-21.12,15.12,16.08
9.9973,-3.9363,-2.0158,0.20556,0.24099,-0.20464,-21.06,15.0,16.26
9.1801,-3.3915,-2.2882,0.19731,0.39859,-0.04215,-21.0,15.12,16.14
7.8045,-2.7513,-4.127,0.14019,0.48106,0.029322,-21.18,15.18,16.02
7.1234,-1.5391,-4.9306,-0.092546,0.49144,0.12401,-21.3,15.18,15.96
11.046,-5.1485,-5.3119,-0.1686,0.40012,-0.097738,-21.3,15.18,15.66
6.5378,-3.2553,-4.3721,-0.29352,0.37202,0.083383,-21.36,15.18,15.66
6.6604,-3.3778,-2.656,-0.31948,0.57238,0.15577,-21.3,15.12,15.42
8.7987,-3.1327,-2.3563,-0.33903,0.40714,0.21319,-21.3,15.18,15.42
9.7522,-2.4653,-1.4029,-0.37568,0.42302,0.13653,-21.3,15.36,15.24
9.2891,-2.8603,-0.5993,-0.18723,0.3937,0.09163,-21.36,15.6,15.24
8.9622,-3.2825,-1.4165,-0.13408,0.27489,0.043066,-21.18,15.84,15.24
10.733,-2.2065,-2.5334,-0.10568,0.25168,-0.15577,-21.24,16.14,14.88
9.6296,-2.4925,-2.8875,-0.14019,0.26695,-0.17196,-21.36,16.2,14.64
9.2891,-2.6151,-3.4051,-0.17165,0.15638,-0.17776,-21.36,16.38,14.58
9.3572,-0.61292,-4.2359,-0.17043,0.27,-0.015577,-21.36,16.56,14.04
9.7522,-1.1169,-4.6037,-0.17532,0.091019,0.052229,-21.36,16.74,14.04
10.665,-1.9068,-4.9033,-0.20647,0.066279,0.047342,-21.42,16.74,13.86
7.7091,-2.6968,-3.9227,-0.16646,0.066584,0.21105,-21.18,17.04,13.62
8.3765,-2.5061,-3.5004,-0.090713,0.079412,0.208,-21.24,17.04,13.68
9.616,-2.4108,-2.9965,-0.020159,0.052229,0.20739,-21.3,16.98,13.62
9.9973,-3.9635,-2.1656,0.048869,-0.022602,0.17929,-21.3,17.16,13.5
10.42,-4.5764,-2.656,0.018937,-0.29932,0.02474,-21.24,17.16,13.32
7.1234,-3.5413,-2.6287,-0.11545,-0.19853,0.07025,-21.12,16.92,13.26
8.1858,-1.7025,-3.1054,-0.24923,-0.12462,-0.0015272,-21.06,17.04,13.2
9.7385,-1.0488,-3.4596,-0.43616,-0.23396,-0.10934,-20.94,17.16,13.2
10.828,-2.152,-3.4051,-0.52687,-0.26817,-0.020464,-20.88,17.1,13.62
9.2755,-2.5879,-3.6094,-0.61881,-0.36285,0.044593,-20.76,17.1,13.74
8.4719,-3.4732,-3.0918,-0.56291,-0.25717,0.1576,-20.58,17.22,13.98
8.4174,-3.5685,-3.9635,-0.44532,-0.11301,0.31215,-20.46,17.28,14.16
9.2482,-3.7047,-4.3585,-0.32956,-0.026878,0.20892,-20.46,17.28,14.52
8.0088,-2.6696,-3.7047,-0.18662,0.13225,0.24526,-20.34,17.46,14.58
8.7306,-3.4323,-2.6968,-0.13897,0.13347,0.18876,-20.1,17.64,14.76
9.0303,-3.6366,-2.8603,-0.15791,-0.13836,0.081856,-20.04,17.82,14.82
7.8045,-4.0316,-2.0431,-0.14233,0.091019,0.076053,-19.92,17.94,15.12
8.5127,-3.5549,-2.9829,-0.14813,0.039401,-0.029016,-19.98,18.18,15.18
8.6081,-0.8036,-3.0373,-0.12309,0.13653,-0.0094684,-19.86,18.06,15.24
9.5751,-1.5391,-3.4187,-0.12798,0.22174,0.013134,-19.74,18.12,15.48
10.515,-2.0022,-4.4266,-0.18937,0.027184,-0.13928,-19.56,18.3,15.66
9.4661,-2.261,-4.1542,-0.16035,0.035125,-0.15027,-19.56,18.48,15.78
8.3765,-1.5119,-4.0861,-0.063835,0.091019,-0.12248,-19.5,18.66,15.78
9.0575,0.23155,-4.0725,0.0058032,0.10629,-0.012523,-19.62,18.72,15.84
10.733,-2.8603,-3.7047,0.03543,0.043982,-0.034819,-19.68,18.6,15.72
8.3765,-3.2008,-2.6287,0.043677,0.070555,0.037263,-19.86,18.6,15.72
8.7715,-3.7047,-1.9477,0.093768,0.26512,-0.0085521,-19.8,18.54,15.72
9.0167,-3.1191,-1.9341,0.069333,0.18692,-0.030849,-19.8,18.42,15.72
11.455,-6.565,-1.9613,0.026878,0.19456,-0.21808,-20.1,18.6,15.78
8.5536,-7.0009,-2.5334,-0.17562,0.12339,-0.11454,-20.1,18.48,15.84
5.0668,-3.1191,-2.9284,-0.31398,0.43127,-0.3036,-20.22,18.48,15.96
11.441,-3.4459,-2.0703,-0.35094,0.50121,-0.37202,-20.58,18.48,15.66
9.0439,-3.6366,-2.9965,-0.38271,0.12767,-0.1069,-20.82,18.48,15.48
9.0303,-5.0123,-2.3155,-0.36011,0.35216,0.033598,-20.88,18.42,15.36
7.4776,-2.5061,-3.3778,-0.33109,0.42944,0.10934,-21.18,18.24,15.06
11.169,-1.7843,-2.9556,-0.21472,0.53206,-0.020464,-21.3,18.06,14.88
10.706,-1.0896,-2.8058,-0.19548,0.46304,0.025045,-21.54,18.24,14.64
10.42,-3.5685,-2.9284,-0.075136,0.22022,-0.0015272,-21.66,18.24,14.46
9.2482,-2.1248,-3.3778,-0.071166,0.083994,0.020159,-21.9,18.3,14.46
8.9486,0.89894,-3.9908,-0.13256,0.14661,0.01405,-22.14,18.3,13.98
10.256,-0.17706,-3.4051,-0.20189,0.13134,0.068417,-22.32,18.48,13.68
9.8066,-1.6344,-3.6503,-0.22663,-0.11393,0.16982,-22.38,18.48,13.56
9.3708,-4.0997,-4.7535,-0.21564,-0.15119,0.077274,-22.44,18.54,13.44
6.2109,-1.3076,-4.5356,-0.2135,0.0042761,0.24679,-22.44,18.6,13.38
10.569,-2.833,-2.7649,-0.11576,0.080023,0.19303,-22.44,18.6,13.5
9.4661,-5.7342,-3.051,-0.047647,-0.27794,0.1628,-22.56,18.72,13.68
6.565,-5.2847,-2.9965,-0.048258,-0.36041,0.083689,-22.68,18.6,13.74
7.1234,-1.9068,-2.547,-0.17623,-0.21228,0.087354,-22.56,18.6,13.68
12.83,-4.6718,-2.9556,-0.32345,-0.27214,-0.18967,-22.38,18.66,13.92
6.4152,-2.2882,-3.2961,-0.48808,-0.38515,0.043371,-22.26,18.72,14.16
6.3062,-0.027241,-2.6287,-0.50885,0.0073304,0.23579,-22.2,18.84,14.28
12.408,-1.5119,-3.0782,-0.47189,-0.020769,0.16005,-22.2,18.84,14.46
7.1234,-1.6344,-5.1485,-0.46426,-0.31673,0.16493,-22.2,18.66,14.64
8.7443,-4.2768,-3.6775,-0.32834,0.036957,0.25229,-22.32,18.54,14.88
7.9951,-4.413,-4.2904,-0.21136,0.19273,0.23243,-22.2,18.78,14.76
9.9565,-3.2144,-4.2768,-0.26939,0.0061087,-0.032376,-22.08,18.78,15.0
7.5048,-2.8739,-2.6696,-0.27672,0.19884,0.11423,-22.08,18.78,15.06
7.4231,-2.9556,-1.9613,-0.26481,0.24038,0.06353,-22.02,18.72,15.12
11.087,-2.2065,-2.9965,-0.28161,0.027794,-0.078496,-22.26,18.6,15.3
10.202,-1.5527,-2.6696,-0.32834,0.092546,-0.039706,-22.2,18.66,15.42
10.637,-3.4596,-2.6832,-0.27245,0.21136,-0.10049,-22.26,18.6,15.6
9.8339,-1.185,-3.9635,-0.25076,0.043371,-0.17196,-22.5,18.6,15.48
9.0712,0.96704,-4.1542,-0.20556,0.14233,-0.024435,-22.5,18.54,15.72
11.455,-2.5742,-4.0316,-0.14172,-0.021686,-0.084299,-22.62,18.6,15.72
8.6762,-3.0782,-4.2495,-0.10599,-0.13561,-0.034514,-22.8,18.42,15.9
7.8317,-3.0918,-3.2553,-0.10049,-0.013744,-0.011912,-23.04,18.3,16.32
8.717,-3.2553,-2.4244,-0.15211,-0.021686,-0.037568,-23.28,18.18,16.44
9.9973,-3.6911,-1.5391,-0.17623,-0.0030543,-0.083078,-23.34,18.06,16.5
8.322,-2.6423,-1.9613,-0.13439,-0.010385,-0.10537,-23.52,17.94,16.38
11.387,-4.018,-2.6968,-0.16554,-0.055589,-0.051007,-23.7,17.94,16.44
12.572,-5.094,-3.5549,-0.23793,-0.2532,-0.24465,-23.88,17.94,16.68
5.0395,-0.76274,-3.0646,-0.29413,-0.08827,0.051924,-24.0,17.82,16.74
10.992,-3.8682,-1.7298,-0.25045,0.27367,0.076664,-24.0,17.64,16.74
10.569,-2.3836,-2.7377,-0.17562,-0.20647,0.24557,-24.18,17.52,16.74
10.597,-3.3642,-3.1872,-0.10201,-0.135,0.07086,-24.3,17.64,16.74
7.3822,-2.3291,-1.9886,0.000305,0.068111,0.27764,-24.18,17.64,16.62
9.6704,-2.0839,-2.3836,0.065973,0.15455,0.062919,-24.42,17.7,16.68
10.842,-3.1872,-2.0839,0.10904,-0.20097,0.098655,-24.6,17.7,16.86
8.0632,0.35413,-3.0101,0.087354,-0.20403,-0.022907,-24.66,17.58,16.86
9.2346,-1.1169,-3.514,0.071471,-0.1014,0.0048869,-24.66,17.52,16.86
11.822,-3.9908,-3.228,-0.058948,-0.34972,0.037263,-24.54,17.82,17.04
7.5457,-3.6639,-5.3256,-0.27672,-0.4777,0.18112,-24.54,17.64,16.98
6.0202,-1.1441,-4.5901,-0.35155,-0.1799,0.32376,-24.6,17.76,17.04
10.311,-6.2517,-4.2087,-0.19517,-0.12248,-0.01741,-24.72,17.64,17.34
7.0281,1.1986,-5.0531,-0.28924,-0.30024,0.63286,-24.6,17.58,17.64
11.278,-2.6151,-2.9965,-0.035736,-0.12828,0.10568,-24.48,17.52,17.76
7.5048,-1.866,-3.3097,0.097738,-0.14691,0.37568,-24.36,17.7,17.76
10.12,-6.9872,-3.2825,0.073915,-0.23854,0.083078,-24.36,17.64,18.24
2.7513,-3.5413,-3.1463,-0.035125,-0.12737,0.36499,-24.24,17.52,18.36
9.398,-3.3778,-3.051,-0.045204,0.013744,-0.046731,-24.18,17.7,18.6
6.2245,1.5119,-4.0044,-0.17226,-0.21411,0.22083,-23.94,17.82,18.66
11.237,-0.89894,-3.9771,-0.24312,-0.072998,0.24251,-23.76,17.94,18.78
14.315,-6.7012,-4.413,-0.30299,-0.36377,0.047647,-23.64,18.06,18.84
6.3198,-5.4618,-5.5843,-0.46731,-0.63866,0.057116,-23.46,18.36,18.84
5.7069,-3.5413,-2.0839,-0.33842,0.1518,0.37263,-23.28,18.36,19.08
7.8998,-3.7184,-1.9477,-0.0956,0.46059,0.13103,-23.28,18.36,19.2
14.274,-4.3858,-3.3506,-0.057421,0.078191,0.36713,-23.1,18.48,19.14
7.7091,-4.3858,-4.7671,-0.054672,-0.27122,-0.19517,-23.04,18.72,19.26
5.1485,1.2531,-2.9148,-0.19242,-0.053756,0.46517,-22.86,18.9,19.32
12.762,-4.5083,-2.152,-0.0048869,0.45235,-0.17593,-22.92,18.96,19.38
9.0303,-3.732,-2.8739,-0.069639,-0.11881,0.018326,-22.92,18.84,19.5
8.322,-3.1872,-2.8194,-0.032376,0.10385,0.021686,-22.98,19.02,19.68
7.9134,-1.5936,-4.2087,0.0048869,0.19426,0.022297,-22.8,19.2,19.74
9.902,-0.81722,-4.4947,-0.14233,-0.091935,-0.14416,-22.8,19.14,19.74
7.7636,-3.8954,-3.2825,-0.13256,0.044593,-0.086743,-23.04,19.08,19.68
6.4969,-4.2768,-2.3563,-0.11118,0.22724,0.0085521,-23.16,18.9,19.74
10.311,-6.1973,-2.3291,-0.12339,0.080329,-0.32529,-23.4,18.9,19.8
5.4481,-1.4165,-4.1542,-0.20006,-0.066584,0.0073304,-23.46,18.66,19.98
13.28,-4.3177,-2.5606,-0.18906,0.12584,-0.27061,-23.88,18.36,19.86
7.1098,-3.6366,-3.1872,-0.10385,0.13195,-0.1405,-23.94,18.18,19.98
5.8159,-1.8524,-3.2416,-0.15241,0.031765,-0.052534,-24.0,18.0,19.92
10.842,-3.3506,-3.1599,-0.092241,0.24648,-0.11301,-24.3,17.88,19.98
10.706,-4.3177,-3.1599,-0.043371,-0.087048,-0.19059,-24.48,17.58,20.1
8.0224,-2.9284,-3.6094,-0.065973,-0.17379,-0.14875,-24.66,17.52,20.1
8.2403,-1.9205,-3.3506,-0.048258,0.067195,-0.097433,-24.9,17.46,20.34
11.005,-2.5061,-3.6639,-0.064752,0.019548,-0.045204,-25.2,17.28,20.4
10.542,-2.8875,-3.6639,-0.085521,-0.18204,-0.15241,-25.14,17.16,20.28
9.3436,-2.7786,-3.228,-0.0018326,-0.13897,-0.1124,-25.14,17.16,20.4
9.1393,-1.4438,-4.0861,0.0030543,-0.22205,-0.10018,-25.32,16.98,20.46
9.4117,-2.0294,-4.8625,0.017104,-0.33078,-0.24709,-25.38,17.22,20.46
8.0088,-2.3155,-4.6445,-0.037568,-0.28314,0.01741,-25.26,17.04,20.46
7.7364,-0.98067,-4.6173,-0.098655,-0.091324,0.066584,-25.44,16.98,20.52
10.297,-1.185,-4.6445,-0.14722,-0.015577,0.32376,-25.44,16.92,20.52
11.155,-3.2144,-3.9771,-0.082467,-0.087048,0.28039,-25.32,16.98,20.4
7.641,-4.2359,-3.8273,-0.054978,-0.075136,0.3821,-25.26,16.92,20.4
8.0224,-5.1076,-3.623,-0.035736,-0.025045,0.23702,-25.14,16.92,20.52
6.1428,-2.4653,-3.7456,-0.076358,-0.058338,0.26756,-25.02,16.98,20.58
9.7249,-3.5549,-3.5413,-0.086437,0.016799,0.1573,-24.9,16.86,20.64
8.3493,-2.5606,-3.9908,-0.17501,-0.13622,0.23366,-24.72,16.8,20.76
10.392,-3.228,-3.9499,-0.25779,-0.16616,0.037263,-24.72,16.8,20.88
6.4833,-1.7979,-3.5549,-0.27642,-0.018326,0.31643,-24.54,16.62,21.0
8.6762,-4.0589,-3.6094,-0.25779,0.020769,0.18051,-24.18,16.86,21.18
6.9055,-3.623,-3.9227,-0.20983,0.011606,0.3598,-24.0,17.04,21.3
7.8998,-2.942,-4.7399,-0.19578,0.027184,0.28344,-23.94,17.1,21.6
9.3436,-3.7184,-4.1542,-0.18692,0.081551,0.2645,-23.88,17.28,21.78
7.246,-3.051,-3.8001,-0.1854,0.10965,0.18692,-23.88,17.4,22.02
8.7579,-4.1406,-2.9829,-0.13378,0.22235,0.088881,-23.64,17.52,22.26
8.7987,-2.9284,-3.1463,-0.15272,0.090103,0.014966,-23.58,17.58,22.38
9.8611,-1.4301,-3.7456,-0.22663,-0.039706,-0.11057,-23.4,17.94,22.44
9.7249,-2.1112,-2.8194,-0.16799,0.10293,-0.078191,-23.28,18.0,22.56
9.4798,-2.261,-3.7456,-0.1628,0.023213,0.038485,-23.4,18.24,22.56
10.692,-2.7104,-4.4539,-0.22388,-0.062919,-0.0058032,-23.4,18.12,22.5
9.4525,-2.9011,-4.413,-0.25626,-0.080023,-0.022297,-23.58,18.12,22.62
8.1041,-3.4459,-3.7184,-0.20036,0.11301,0.10843,-23.46,18.12,22.8
7.9815,-2.9829,-4.0861,-0.17196,0.050702,-0.014355,-23.28,18.06,22.8
8.0224,-2.6287,-3.7592,-0.18692,-0.068417,0.0027489,-23.46,17.88,22.68
9.7385,-4.9033,-3.0646,-0.1518,-0.02474,-0.033598,-23.58,17.7,22.8
6.5786,-2.0022,-2.6832,-0.12828,0.062919,0.023824,-23.7,17.4,23.04
9.6568,-2.0294,-2.2201,-0.1127,0.066584,-0.071471,-23.76,17.4,22.98
9.8339,-3.514,-2.4108,-0.040317,-0.22602,-0.10934,-23.76,17.22,23.16
6.9872,-1.7298,-3.2825,-0.084605,-0.39279,-0.37965,-23.82,17.22,23.28
6.9328,-1.471,-3.0237,-0.10446,-0.23793,-0.20922,-23.82,17.04,23.28
9.0848,-1.2803,-3.3097,-0.093768,-0.19273,-0.23763,-23.82,16.92,23.28
12.258,-4.6718,-3.5549,-0.11881,-0.44746,-0.25809,-23.94,16.74,23.34
11.278,-6.1292,-3.7865,-0.12309,-0.57941,-0.38882,-24.0,16.62,23.46
10.637,-6.851,-3.5685,-0.15699,-0.50457,-0.68203,-24.0,16.62,23.58
4.985,2.9556,-3.2553,-0.076664,-0.26298,-0.39584,-24.06,16.5,23.76
10.869,2.8603,-3.7728,0.057727,-0.20495,-0.27061,-24.06,16.44,23.76
15.445,-1.5119,-5.1485,-0.092241,-0.76511,-0.068417,-24.18,16.26,24.0
7.8862,1.3212,-6.8238,-0.17257,-0.63835,0.055283,-24.18,16.14,24.12
9.6432,-2.4517,-4.4402,-0.13989,-0.20922,0.090103,-24.24,16.08,24.42
7.2188,-2.9556,-4.6037,-0.084299,-0.36988,0.27733,-24.3,15.96,24.66
9.2891,-3.6775,-4.2768,0.034514,-0.29077,0.12492,-24.18,15.9,25.32
7.9134,-1.757,-4.2495,0.11637,-0.30635,0.096822,-24.18,15.9,25.68
12.0,-1.7434,-3.8001,0.18784,-0.48747,-0.38882,-24.12,15.84,25.92
5.38,-4.6854,-3.0646,0.17135,-0.45509,-0.23579,-24.0,15.78,26.16
4.8897,-1.9613,-1.7706,0.23946,-0.052229,0.10385,-23.76,15.9,26.4
10.12,-3.1327,-3.7456,0.22846,-0.36346,-0.0054978,-23.7,15.96,26.7
7.8181,-2.3018,-4.413,0.1857,-0.38179,0.19487,-23.64,16.02,26.76
6.6059,-0.83084,-5.0531,0.15149,-0.11973,0.28466,-23.4,16.26,27.12
7.6955,-2.1793,-4.4811,0.093157,-0.022907,0.26695,-23.22,16.26,27.24
10.896,-7.0962,-5.5435,0.047647,-0.13256,0.22327,-23.1,16.38,27.42
3.2144,-3.732,-3.9227,-0.031765,-0.053145,-0.16341,-22.8,16.5,27.54
0.19068,1.8524,-2.5061,0.092241,0.095906,0.3769,-22.62,16.56,27.42
3.8273,2.4108,-2.833,0.23793,0.56047,0.51465,-22.56,16.56,27.42
18.796,-13.212,-4.0997,0.22144,-0.4331,-1.0947,-22.32,16.86,27.42
2.2201,-4.0997,-5.6524,0.020769,-0.2755,0.55589,-22.32,16.86,27.54
8.3493,-0.054481,-2.5742,0.24709,0.63316,-0.096822,-22.2,17.28,27.48
15.759,-3.8682,-5.1485,0.18021,0.59437,-0.10201,-22.2,17.22,27.54
14.41,-2.9011,-5.6933,0.075747,-0.19578,0.13103,-22.38,17.22,27.3
5.0395,0.55843,-3.8954,0.12187,0.4722,0.54031,-22.5,17.4,27.12
14.519,-3.0918,-4.7807,0.062308,0.31612,0.073609,-22.5,17.64,27.0
3.8818,-4.0316,-4.4539,0.028711,-0.22144,0.30146,-22.56,17.76,26.7
0.65378,-3.6639,-2.8058,0.12614,0.44807,0.56597,-22.5,17.94,26.52
4.0589,-4.0589,-2.4244,0.14539,0.74526,0.40836,-22.56,18.06,26.46
10.692,-1.6344,-3.228,0.13011,-0.030849,-0.011301,-22.56,18.36,26.34
10.338,-3.9227,-3.1191,0.19426,-0.45418,-0.18815,-22.74,18.48,25.86
4.4266,-3.9771,-2.3291,0.18418,0.018326,0.14752,-22.8,18.6,25.74
8.8668,-3.5685,-2.2337,0.037263,-0.066584,-0.3094,-22.74,18.96,25.32
8.0632,-3.4187,-2.0975,0.092546,-0.24496,-0.25229,-22.8,18.96,25.26
6.5922,-1.7434,-2.833,0.12584,-0.25565,-0.14752,-22.86,19.08,25.26
11.223,-3.514,-4.6309,0.049175,-0.39767,-0.4331,-22.86,19.38,25.32
9.1256,-4.1814,-4.4811,0.043677,-0.20678,-0.18631,-22.86,19.32,25.32
14.424,-10.351,-4.6445,-0.0042761,-0.15974,-1.0259,-22.92,19.38,25.32
-2.3291,7.75,-3.2416,0.10079,0.26909,0.23579,-23.1,19.68,25.44
12.653,2.4517,-2.0567,0.42669,0.24007,-0.25626,-23.28,19.62,25.56
18.673,-9.7522,-4.8352,0.38668,-0.25168,-0.48289,-23.4,19.62,25.56
3.8818,4.5764,-3.6639,-0.034819,-0.73976,0.84788,-23.58,19.8,25.86
12.612,-7.6138,-4.0316,0.22541,0.22663,-0.63286,-23.7,19.86,25.86
7.1915,-1.471,-3.8001,0.054367,0.1799,1.3137,-23.7,20.1,26.16
17.924,-14.247,-6.9191,0.097128,-0.51588,-1.0305,-23.7,20.16,26.16
-10.229,3.8273,-0.50395,-0.21472,0.6802,-0.076358,-23.7,20.16,26.16
5.6252,12.939,0.21793,0.28741,-0.7929,-0.32681,-23.58,20.28,26.16
17.747,-4.5356,-2.547,0.6072,-0.26145,-0.97647,-23.58,20.4,26.1
12.49,-7.0962,-7.2733,0.022602,-0.58765,0.3708,-23.64,20.58,26.16
3.9227,-3.623,-3.732,0.0061087,0.13317,-0.15333,-23.76,20.7,26.1
0.51757,-1.2667,-1.6208,0.25473,0.66157,1.4261,-23.64,20.88,25.92
13.988,-6.0066,-7.5729,-0.058948,-0.53665,-0.79321,-23.4,21.18,25.92
0.14982,2.8467,-4.0725,0.059865,-0.26909,0.019853,-23.34,21.3,25.98
9.2891,0.54481,-4.522,0.10629,0.092852,0.13408,-23.34,21.36,26.04
16.126,-3.7047,-5.775,-0.097738,-0.41997,-0.62827,-23.22,21.48,26.04
7.3686,-8.036,-3.6775,-0.16707,-0.39645,-0.13958,-23.58,21.42,26.04
3.6366,-8.9622,-2.9148,-0.19853,0.24893,-0.13592,-23.7,21.42,26.16
10.447,-0.38137,-4.4402,0.12462,0.053145,0.026573,-23.88,21.66,26.4
14.601,-1.9477,-5.8295,0.087659,-0.12248,-0.1799,-23.94,21.66,26.52
10.338,-1.6072,-5.0123,0.046426,0.36346,0.2138,-24.06,21.66,26.52
11.21,-0.01362,-4.3721,-0.059559,0.23274,-0.089492,-24.18,21.66,26.76
11.237,-3.8818,-3.732,-0.053756,0.016493,-0.18601,-24.24,21.66,26.88
6.5241,-4.2904,-3.732,-0.10965,-0.078191,-0.10782,-24.42,21.54,26.94
9.4661,-3.9363,-3.5685,-0.084605,-0.064446,-0.3094,-24.9,21.24,26.88
10.065,-3.0237,-4.5492,-0.053451,-0.18784,-0.32101,-25.08,21.24,26.82
12.503,-5.5026,-5.0395,-0.10354,-0.31001,-0.44074,-25.32,21.0,26.64
0.85808,4.8352,-3.7728,-0.0042761,0.26267,0.31429,-25.68,20.7,26.94
17.475,-6.674,-3.8273,0.067195,-0.13836,-0.56108,-25.92,20.58,27.0
8.431,-7.6002,-6.0747,-0.11118,-0.16493,-0.026878,-26.04,20.4,27.0
12.068,-3.9635,-3.8137,-0.10079,-0.13103,-0.58338,-26.4,20.1,26.94
6.3743,-3.7865,-3.7592,0.05681,0.091935,0.085521,-26.7,19.8,26.94
5.2711,1.4029,-2.7649,0.068417,-0.29444,-0.25259,-26.7,19.68,27.12
11.632,-1.7434,-4.3449,0.11301,-0.20739,0.033292,-27.18,19.14,27.0
9.2346,-3.2008,-4.2904,0.055589,-0.29993,0.07086,-27.24,18.84,27.06
10.065,-3.1872,-4.3177,-0.043982,-0.40775,-0.15058,-27.54,18.72,27.24
6.8238,-3.1054,-2.261,-0.014661,-0.23976,-0.1179,-27.72,18.48,27.54
9.2074,-2.2474,-2.4108,0.10385,-0.33414,-0.34972,-27.84,18.24,27.72
10.515,-1.7025,-3.2144,0.15088,-0.53451,-0.3204,-27.9,18.0,27.78
8.0769,-0.21793,-4.4266,0.11362,-0.43799,-0.19609,-27.96,17.4,27.96
13.443,-1.5527,-5.094,0.014355,-0.46578,-0.34697,-28.08,17.22,27.96
11.768,-4.2904,-5.0259,-0.017104,-0.62339,-0.27336,-28.26,17.04,28.14
5.3937,-4.2904,-5.094,0.0039706,-0.22755,0.43371,-28.26,16.8,28.26
5.3937,-4.2904,-5.094,0.073304,-0.025656,0.46151,-28.26,16.8,28.26
15.2,-6.2517,-7.2188,0.1463,-0.36255,-0.0039706,-28.08,16.56,28.32
6.0202,-2.5198,-4.7263,0.27153,-0.000611,0.018631,-27.84,16.38,28.44
5.6661,-1.5663,-3.0918,0.40164,0.18234,0.15608,-27.6,16.02,28.74
14.873,-6.0883,-4.522,0.48319,-0.0033598,-0.058338,-27.18,15.84,28.86
5.7614,-3.0646,-2.9284,0.35705,-0.35461,-0.29749,-26.58,15.54,28.8
4.127,-0.20431,-2.2746,0.37843,0.027794,-0.22571,-26.34,15.24,28.68
13.13,-2.3155,-4.8488,0.20617,-0.42791,-0.43677,-25.92,15.0,28.74
9.7522,-2.1248,-5.6524,-0.010079,-0.44593,-0.25779,-25.62,15.12,28.5
6.0066,-1.3484,-4.7944,-0.057421,-0.13011,-0.13256,-25.02,14.94,28.14
7.8317,-4.1133,-5.3119,-0.054672,-0.15608,-0.054367,-24.9,15.0,28.08
7.927,-2.942,-5.9249,-0.055894,-0.22633,-0.1237,-24.9,15.06,27.72
10.365,-4.4402,-5.2166,-0.022602,0.029016,-0.22785,-24.72,15.18,27.54
8.9349,-9.1529,-4.2223,0.009163,0.089492,-0.37904,-24.78,15.06,27.12
4.6445,-4.5764,-3.1463,0.13836,0.18937,-0.17868,-24.84,14.94,27.3
6.3879,4.4811,-4.2223,0.20708,0.069639,0.047953,-24.9,15.06,27.12
15.377,-5.9249,-4.6854,0.23396,0.2474,-0.18051,-25.02,14.82,26.64
5.5707,-1.0896,-4.5901,0.14142,0.17807,0.07086,-24.84,14.94,26.64
7.5457,-0.76274,-4.4402,0.13897,0.46029,0.13653,-24.72,14.94,26.4
7.9407,-2.2882,-4.522,0.16799,0.26817,0.048564,-24.72,15.0,25.98
7.5865,1.58,-5.1485,0.13622,0.24587,0.093768,-24.66,14.94,25.44
9.1665,-1.6481,-4.2223,0.23243,0.56047,0.39828,-24.66,14.88,25.14
18.238,-13.539,-6.4697,-0.069944,-0.21258,-0.95081,-24.78,15.06,25.02
-6.7557,6.7148,-3.6503,0.054978,0.58093,0.93646,-24.9,15.42,24.48
11.101,-1.6617,0.31327,0.18021,0.59834,0.45845,-24.78,15.66,24.18
15.895,-12.626,-6.6059,0.096822,-0.12798,-0.44196,-24.66,15.96,23.94
5.4073,-1.0215,-5.5843,0.045509,-0.7199,0.47189,-24.78,16.08,23.82
4.8625,-2.547,-2.6423,0.23518,0.49694,0.39615,-24.9,16.5,23.52
5.7342,-3.3506,-2.9692,0.2303,0.6918,0.67867,-24.96,16.62,23.34
13.198,-5.7478,-4.2223,0.18265,0.037263,0.091935,-25.2,16.92,22.68
2.9829,-3.1191,-3.5277,0.36102,0.12217,0.63194,-25.02,17.46,22.74
9.1937,-3.4732,-3.1191,0.24832,0.34941,0.45968,-24.96,17.76,22.62
12.217,-2.4789,-4.127,0.2361,0.053451,-0.056505,-24.6,18.24,22.32
4.3585,-4.985,-2.6015,0.35247,0.12034,0.12706,-24.54,18.6,21.84
-0.19068,-3.1327,-2.9965,0.49144,0.67867,0.49999,-24.24,18.9,21.48
6.1292,1.471,-5.3528,0.12828,0.079412,0.19456,-24.24,19.2,21.18
18.742,-5.2166,-2.9011,0.11179,-0.41478,-0.36805,-24.06,19.56,20.7
1.1305,-0.34051,-5.5707,0.041844,0.027489,0.33109,-23.94,19.68,20.34
2.9556,-2.4517,-3.2961,0.011912,0.15547,0.69761,-23.7,19.86,20.4
13.797,-7.8045,-6.4152,-0.22083,-0.055894,-0.54856,-23.7,19.86,20.04
9.112,-5.993,-5.7478,-0.24771,-0.23885,0.031765,-23.76,19.92,19.8
9.8884,-2.6696,-5.2166,-0.22449,-0.013439,-0.35308,-23.7,19.86,19.68
7.4231,-4.9442,-4.5356,-0.13867,0.15149,-0.24954,-23.64,19.62,19.38
9.3163,-3.514,-4.0861,0.018631,0.36805,0.16952,-23.94,19.56,19.2
9.4661,-1.8387,-4.6173,0.067501,0.1854,0.038179,-24.06,19.26,19.14
10.093,-2.0022,-4.4811,0.076053,0.18295,-0.040928,-24.06,19.08,19.08
7.5593,-2.0294,-4.1542,0.062308,0.23366,0.05284,-24.36,19.08,19.02
7.069,-2.2746,-4.127,0.05681,0.2419,-0.073304,-24.6,18.9,18.96
8.3901,-2.6423,-4.7671,-0.0042761,0.047037,-0.11576,-24.84,18.9,18.96
8.9622,-3.514,-5.0259,-0.15394,-0.085827,-0.22022,-24.9,18.72,18.9
7.2052,-3.7865,-4.9306,-0.29108,-0.16554,-0.23946,-25.2,18.66,18.78
8.3901,-4.9169,-4.5901,-0.36988,-0.027794,-0.18845,-25.32,18.72,18.66
8.5536,-3.5685,-4.0044,-0.30177,0.14294,-0.071777,-25.5,18.66,18.78
11.673,-5.7614,-4.1133,-0.19456,0.17471,-0.18845,-25.56,18.66,18.84
8.6081,-3.6366,-3.0918,-0.058948,0.35675,0.083383,-25.68,18.66,18.9
6.96,0.027241,-4.0997,-0.0024435,0.45815,0.28955,-25.86,18.36,18.9
16.794,-7.75,-4.3313,0.1237,0.73151,0.11851,-26.04,18.42,18.78
16.794,-7.75,-4.3313,0.087354,0.48961,-0.36102,-26.04,18.42,18.78
2.6287,1.7434,-3.7184,0.012828,0.56108,0.20586,-25.86,18.06,18.72
12.503,-3.6366,-2.7786,0.10721,0.65424,-0.29932,-25.86,17.94,18.66
10.474,-6.6059,-5.6388,-0.10843,-0.16432,-0.52718,-26.16,17.76,18.3
2.9011,0.27241,-4.3994,-0.17776,0.02138,-0.23213,-26.4,17.46,18.0
11.332,-0.40861,-4.2495,-0.20036,0.2926,-0.41233,-26.58,17.22,17.58
12.653,-0.99429,-4.4811,-0.26756,-0.22113,-0.35064,-26.64,17.22,17.52
9.9701,-3.9227,-3.9771,-0.25717,-0.12462,-0.27489,-26.94,17.1,17.28
6.0338,-1.6208,-3.9363,-0.33384,-0.15149,-0.33659,-27.12,16.8,17.16
6.7693,0.12258,-4.0044,-0.39828,-0.10537,-0.17623,-27.6,16.44,17.16
12.367,-2.6696,-2.4517,-0.29566,-0.0042761,-0.30452,-27.66,16.26,17.22
8.5808,-2.8467,-3.514,-0.17501,-0.32437,-0.010996,-27.9,15.96,17.16
9.2891,-1.8932,-4.1814,-0.17868,-0.23182,0.07758,-28.14,15.72,17.46
12.258,-3.5413,-3.6639,-0.17654,-0.24129,0.018631,-28.26,15.66,17.76
10.896,-4.5901,-3.7728,-0.1069,-0.43158,-0.027794,-28.26,15.42,18.18
3.8137,-0.54481,-3.2553,0.0097738,-0.38087,0.044288,-28.14,14.94,18.36
10.869,-1.4982,-3.8409,0.16799,-0.028711,0.44868,-28.14,14.76,18.66
16.344,-4.808,-4.6445,0.28405,-0.24221,0.014966,-28.02,14.82,18.84
5.3664,-2.2474,-5.9657,0.23671,-0.44104,0.0048869,-27.96,14.7,19.02
7.3277,-0.44947,-3.8273,0.27367,0.24404,0.25595,-27.72,15.0,19.2
6.9055,-6.7012,-5.0531,0.23121,-0.0097738,0.31582,-27.36,15.12,19.38
4.4811,-0.32689,-5.2166,0.065057,-0.23335,0.27855,-27.0,15.18,19.44
6.9191,-1.0896,-3.9227,0.086743,-0.18295,0.090713,-26.7,15.18,19.32
5.8431,2.152,-3.9363,0.062919,-0.040623,0.4945,-26.34,15.54,19.44
11.741,1.6753,-4.5764,-0.013134,-0.20739,0.29505,-26.28,15.72,19.62
16.998,-15.486,-5.2302,-0.15455,-0.6408,-0.62308,-25.98,15.96,19.26
4.3721,-13.116,-5.3256,-0.41783,-0.31093,0.31826,-25.86,16.02,19.32
6.5241,1.5255,-1.9341,-0.33995,-0.34239,-0.56291,-25.44,16.02,19.38
10.474,-4.2495,-3.9908,-0.24129,-0.36896,-0.12492,-25.38,16.02,19.74
11.795,-2.0431,-5.884,-0.32284,-0.54917,-0.21655,-25.14,16.08,19.98
6.4424,-0.98067,-5.38,-0.23732,-0.22755,0.14416,-25.2,16.14,20.16
7.9543,-1.5663,-5.6524,-0.12431,0.058948,0.33903,-25.08,16.02,20.64
9.5751,-4.1406,-5.598,-0.070555,0.01741,0.26664,-25.08,16.2,20.82
4.0589,-4.5083,-4.2359,0.018326,0.36194,0.56841,-25.14,16.02,21.12
3.3778,-4.2904,-3.3506,0.21777,0.613,0.5003,-25.08,16.08,21.36
12.476,3.0237,-5.4754,0.055894,-0.096211,0.17898,-24.84,16.32,21.54
13.062,-7.246,-4.9306,0.051313,-0.41997,-0.44654,-24.96,16.56,21.6
-0.47671,-0.17706,-2.6696,-0.17165,0.14386,0.21075,-24.84,16.74,21.72
9.2482,-2.1384,-1.4574,-0.021075,0.30574,-0.20311,-24.72,16.8,21.54
17.134,-7.1779,-4.3449,-0.058338,-0.45876,-0.75289,-24.72,16.92,21.48
6.1836,-1.4846,-4.5083,-0.11545,-0.34911,0.018021,-24.72,16.92,21.24
8.6081,-0.61292,-3.9908,-0.10751,0.034208,-0.24862,-24.72,17.1,21.12
10.746,-2.3291,-4.9306,-0.058032,0.17043,0.020769,-24.72,16.98,21.06
7.8998,-2.4108,-4.8897,-0.10232,-0.037568,0.037568,-24.84,16.92,21.06
7.6546,-2.3427,-4.1133,-0.081245,0.28924,0.13286,-24.96,16.56,21.06
9.4798,-3.8137,-3.732,-0.054062,0.23976,0.093462,-24.96,16.5,21.24
6.5786,-3.228,-3.8682,-0.047342,0.14752,0.089492,-25.26,16.32,21.18
9.9837,-5.7886,-3.3915,-0.0073304,0.16432,0.031154,-25.2,16.32,21.12
8.322,-4.018,-3.1599,0.050396,0.17654,0.0045815,-25.32,16.2,21.36
9.3708,-3.909,-3.7865,0.11759,-0.10018,-0.23732,-25.38,16.14,21.42
7.6138,-2.5198,-3.4459,0.17074,0.030543,-0.092852,-25.5,16.02,21.36
9.6977,-2.9829,-3.5277,0.219,0.089186,-0.12584,-25.56,15.96,21.3
9.1529,-3.6094,-3.7865,0.24038,0.009163,-0.019242,-25.26,16.08,21.12
8.2131,-2.6968,-4.9306,0.14142,0.018326,0.010385,-25.44,16.2,21.06
7.246,-0.84446,-5.1621,0.045815,0.070555,0.097128,-25.5,16.26,20.94
10.515,-2.1929,-5.2302,0.0042761,0.14355,0.072998,-25.44,16.2,20.82
6.674,-1.0215,-6.279,-0.18601,-0.031765,0.24893,-25.5,16.2,20.76
9.5206,-2.0839,-5.9521,-0.24099,-0.047342,0.059254,-25.62,16.32,20.7
7.7091,-0.85808,-4.9714,-0.20433,0.034514,0.31246,-25.62,16.38,20.46
11.182,-3.4051,-4.8625,-0.12645,0.040928,0.29566,-25.56,16.62,20.34
9.9156,-5.5162,-4.413,-0.05284,-0.073304,0.22327,-25.56,16.68,20.4
9.6432,-4.3313,-3.8682,0.0085521,0.071777,0.25931,-25.5,16.8,20.28
8.0088,-3.4051,-3.5004,0.11637,0.11637,0.20617,-25.32,16.8,20.28
9.6568,-3.3778,-3.5685,0.10812,0.080634,-0.027489,-25.38,16.92,20.28
5.3664,-1.7706,-3.0373,0.10293,0.049786,0.10476,-25.38,17.1,20.4
6.1973,-0.77636,-3.9771,0.092241,0.14569,0.22785,-25.38,17.1,20.22
10.542,-4.1951,-5.1485,0.042455,-0.098044,-0.094379,-25.26,17.22,20.34
7.3958,-3.1872,-4.6173,-0.056505,-0.020769,0.14416,-25.2,17.4,20.28
6.4833,-2.0022,-4.7126,-0.072082,0.054062,0.096517,-25.02,17.58,20.22
8.4855,-2.3018,-5.4073,-0.12737,-0.020464,-0.04612,-24.84,17.58,20.34
7.9134,-2.3291,-5.1757,-0.14294,-0.015272,0.038485,-24.84,17.64,20.4
6.9328,-3.1327,-4.3858,-0.14264,0.050702,0.078191,-24.6,17.58,20.4
6.8647,-1.8387,-4.0589,-0.10873,0.16768,0.047953,-24.6,17.7,20.34
10.379,-3.6639,-3.4323,-0.027184,0.13134,-0.061392,-24.66,17.76,20.34
7.5865,-2.6015,-3.5413,-0.04948,0.075136,-0.020769,-24.9,17.94,20.46
8.5808,-1.471,-3.7047,-0.050702,0.19334,-0.092852,-24.9,17.82,20.4
9.9837,-1.6072,-3.1599,-0.0027489,0.28161,-0.095295,-24.9,17.82,20.28
8.4446,-2.0294,-4.1814,-0.069639,0.10446,-0.12553,-24.84,17.76,20.34
7.8045,-1.7979,-4.0044,-0.1909,0.21838,-0.09163,-25.02,17.7,20.22
8.6489,-2.4517,-3.909,-0.21441,0.15149,-0.072082,-25.08,17.64,20.28
7.7636,-2.547,-4.5901,-0.27275,0.044288,-0.042761,-25.26,17.46,20.1
9.3163,-4.2768,-4.0589,-0.23396,0.1686,-0.061697,-25.38,17.46,20.1
8.7034,-4.3177,-4.3449,-0.24496,0.095906,-0.097738,-25.62,17.4,20.1
6.674,-1.9477,-3.9499,-0.18021,0.15944,-0.013744,-25.92,17.28,20.1
9.5887,-3.228,-3.8273,-0.033292,0.19334,-0.014355,-25.92,17.28,20.04
10.951,-4.8352,-3.7456,-0.020159,0.030543,-0.099876,-25.98,17.28,20.1
5.9521,-1.5663,-3.8546,-0.020159,-0.038485,-0.16799,-26.04,17.04,19.92
8.1722,-1.7706,-3.3915,0.026878,0.19853,-0.053145,-26.28,16.92,20.04
10.515,-3.3097,-3.3778,0.08827,0.1295,-0.050702,-26.28,16.86,20.1
7.4095,-3.6094,-3.6775,0.043677,-0.074526,-0.088881,-26.52,16.68,19.92
6.9328,-2.547,-3.909,-0.044288,0.10049,-0.048258,-26.58,16.68,19.86
8.2539,-1.1169,-4.522,-0.054978,0.08094,-0.068722,-26.82,16.56,19.8
10.379,-2.9556,-4.1542,-0.02474,-0.13286,-0.14142,-26.94,16.56,19.86
6.3743,-0.70826,-4.7671,-0.054367,-0.16005,-0.01741,-27.12,16.5,19.8
8.717,-0.39499,-4.8216,-0.024435,0.048564,0.034208,-27.18,16.5,19.74
10.964,-2.2746,-5.4345,-0.040928,-0.18357,0.058338,-27.12,16.5,19.68
7.9679,-1.5663,-4.9714,-0.044288,-0.12553,0.20189,-27.3,16.32,19.74
8.145,-2.6968,-4.3721,-0.048564,-0.097433,0.1689,-27.36,16.26,19.74
7.75,-2.6696,-4.5901,-0.009163,-0.1182,0.30024,-27.66,16.2,19.62
7.9407,-2.2474,-5.1894,-0.03879,-0.087048,0.25076,-27.48,16.2,19.74
7.5457,-2.8467,-4.6718,-0.051924,0.056505,0.28191,-27.3,16.26,19.74
9.1529,-3.7865,-4.0589,-0.051007,-0.035125,0.281,-27.24,16.26,19.86
9.9156,-4.127,-2.5061,-0.020464,-0.50457,0.097738,-27.12,16.32,19.98
9.7385,-3.6094,-3.2008,0.12584,-0.80237,0.2022,-26.82,16.44,20.16
10.992,-2.6696,-4.2495,0.43616,-1.223,0.29871,-26.58,16.56,20.28
10.256,-2.0294,-5.6388,0.45235,-1.1961,0.3656,-26.4,16.74,20.46
8.8396,-2.5198,-6.3198,0.3543,-1.1597,0.27,-25.86,17.1,20.58
5.3119,-0.8036,-6.2517,0.22358,-0.45509,0.28833,-25.74,17.34,20.7
6.0474,-1.4301,-5.3664,0.054672,0.10324,0.25107,-25.14,17.94,20.94
7.069,-2.2882,-5.3119,-0.10568,-0.07422,0.21197,-24.78,18.36,21.0
7.1507,-2.261,-4.5492,-0.20189,0.48717,0.030543,-24.3,18.66,21.3
7.6819,-2.8058,-4.5356,-0.25748,0.78038,0.011606,-24.0,18.96,21.24
7.7364,-3.4459,-5.5162,-0.49114,0.85277,0.0054978,-23.94,19.32,21.36
8.1586,-2.9692,-3.732,-0.44502,1.1909,-0.1014,-23.28,19.86,21.66
7.8589,-2.5198,-3.9363,-0.34636,1.3558,-0.1011,-23.16,20.1,21.72
8.5808,-3.1599,-3.9363,-0.24343,1.332,-0.15852,-22.8,20.58,21.84
9.6568,-4.1814,-4.5901,-0.21075,1.0101,0.10965,-22.8,20.64,21.84
8.1722,-2.6696,-4.6173,-0.16616,0.85063,0.15608,-22.62,20.7,21.66
8.3765,-2.0839,-4.8761,-0.13531,0.41478,0.13989,-22.56,20.7,21.54
8.2812,-4.8625,-4.1406,-0.07422,0.6634,0.20159,-22.38,20.64,21.36
9.3163,-3.9635,-3.9499,-0.07025,0.50946,0.042455,-22.5,20.52,21.18
9.0303,-4.9306,-3.7456,-0.083078,0.39859,-0.012217,-22.5,20.46,21.06
8.3765,-3.2008,-3.3234,-0.07025,0.20097,-0.043371,-22.68,20.4,20.7
8.7715,-3.3506,-3.1599,-0.052229,0.2416,0.036346,-22.86,20.46,20.58
7.9815,-3.2144,-3.3097,-0.036957,0.39492,-0.0079412,-22.92,20.22,20.16
8.826,-2.7377,-3.732,-0.047037,0.75167,-0.037263,-23.28,20.16,19.74
9.3163,-3.1735,-4.1542,-0.17959,0.82039,-0.13836,-23.4,19.98,19.08
7.1643,-4.4811,-2.8058,-0.20495,1.128,-0.26298,-23.58,19.92,18.78
6.0066,-2.6968,-0.58567,-0.15669,1.1903,-0.29902,-23.58,19.74,18.3
5.7478,0.12258,1.3484,0.10476,0.42974,0.11668,-23.7,19.68,17.94
12.313,-8.0905,-0.31327,0.078496,0.76969,-0.49694,-23.82,19.32,17.46
9.6296,-0.29965,-1.0624,0.20433,-0.21289,-0.39034,-24.06,19.08,17.04
14.083,-7.2869,-4.8625,0.011606,-0.096822,-0.67714,-24.18,18.78,16.74
7.0826,3.0646,-1.8387,-0.062308,0.022602,-0.35155,-24.36,18.24,15.72
11.727,1.7434,-4.5901,-0.18662,-0.49511,-0.18631,-24.42,17.82,15.42
9.2755,2.0022,-5.4073,-0.32926,-1.0602,0.46426,-24.48,17.4,15.0
16.413,-2.9965,-4.699,-0.31001,-0.65699,-0.44104,-24.78,16.8,14.34
9.0712,1.6344,-2.4108,-0.077274,-0.44838,0.049786,-24.72,16.32,14.28
6.7148,-0.51757,-3.3642,-0.037874,-0.73915,0.19975,-24.84,16.02,14.22
7.8589,-2.2337,-2.5879,-0.099571,-0.60109,0.14905,-24.78,15.3,14.4
10.637,-4.8488,-4.1406,-0.24832,-1.0128,0.15088,-24.9,15.18,14.64
8.6353,-5.7205,-3.3642,-0.27611,-0.29658,0.13073,-24.96,14.76,14.88
9.1665,-3.0646,-1.5119,-0.20586,-0.40256,0.18692,-25.14,14.52,15.18
13.021,-10.311,-3.7865,-0.26939,-0.19609,-0.3543,-25.02,14.52,15.48
2.9556,-4.6309,-1.2939,-0.10812,-0.18967,-0.12126,-24.96,14.58,15.66
9.3708,-1.2122,-4.3994,-0.014661,-0.57635,-0.074831,-24.96,14.34,16.26
11.196,-1.4438,-5.2575,0.085827,-0.59468,-0.0073304,-24.96,14.46,16.68
8.9622,0.57205,-4.8352,0.077274,-0.87537,0.10934,-24.9,14.52,17.1
11.741,-3.5958,-4.5764,0.069333,-0.33109,0.12156,-24.72,14.52,17.88
7.1643,-0.76274,-3.8409,0.084605,0.073915,0.11851,-24.78,14.7,18.18
11.536,-2.4108,-3.1054,0.034208,0.10537,-0.013134,-24.6,14.76,18.42
10.556,-3.4051,-2.7786,0.10201,0.16616,0.028405,-24.6,14.82,18.36
7.4503,-1.0079,-2.7649,0.082467,0.20678,-0.022907,-24.6,14.88,18.42
11.673,-2.547,-2.833,0.032681,0.20067,-0.072082,-24.54,14.88,18.54
10.42,-2.8058,-3.3778,-0.076664,0.18784,-0.14936,-24.54,14.94,18.48
8.7034,-2.3155,-3.3234,-0.13103,0.31796,-0.017715,-24.54,15.0,18.6
8.9894,-2.4517,-2.6968,-0.087965,0.54123,0.026573,-24.54,14.94,18.72
9.7385,-2.2474,-2.9829,0.018021,-0.064752,0.042761,-24.3,14.94,18.9
8.6762,-2.1929,-2.5742,0.17776,-0.27184,0.019853,-24.36,14.94,18.9
8.7034,-3.6911,-2.4517,0.39676,-0.28588,0.037263,-24.3,15.0,18.84
9.1529,-4.5492,-1.9341,0.48136,-0.17043,-0.16952,-24.3,14.94,18.78
7.246,-2.4244,-0.27241,0.60537,-0.37049,-0.33872,-24.3,15.18,18.6
7.6002,-3.3234,-1.2258,0.65363,-0.85582,-0.18387,-24.48,15.12,18.42
6.4152,-2.1112,-2.1384,0.59895,-0.9951,-0.22541,-24.54,15.12,18.54
7.9679,-1.8251,-3.6366,0.43249,-1.4917,-0.024129,-24.3,15.12,18.6
8.7851,-2.3291,-5.7069,0.33201,-1.5415,-0.031154,-24.18,15.18,18.66
6.2926,-0.7355,-5.5707,0.23182,-1.4044,0.13561,-24.0,15.18,18.78
10.106,-5.2711,-9.112,-0.075747,-1.3616,0.12675,-23.7,15.3,19.02
5.489,-2.547,-6.9872,-0.08827,-0.73854,0.41753,-23.34,15.36,19.14
6.0883,-1.7706,-5.7614,0.040317,-0.50763,0.46487,-22.92,15.54,19.62
6.9872,-5.6524,-4.4675,0.096211,-0.22571,0.51374,-22.68,15.6,19.68
7.355,-4.522,-3.8001,0.27917,-0.13897,0.39615,-22.44,15.72,19.92
9.3163,-5.4754,-4.2632,0.32132,-0.10965,0.19059,-22.08,15.9,20.22
7.1915,-4.0316,-4.0316,0.33659,-0.05284,0.20372,-21.3,16.08,20.76
8.5127,-3.6911,-4.9033,0.19242,-0.096517,-0.044288,-20.82,16.26,21.06
7.7908,-3.8273,-5.3664,0.03146,-0.2865,-0.020769,-20.52,16.38,21.24
6.5105,-1.3484,-6.7829,-0.086743,-0.80298,0.16982,-19.98,16.56,21.6
6.9191,-3.2553,-7.6546,-0.22724,-0.62858,0.10232,-19.74,16.62,21.84
5.9112,-3.5413,-7.1234,-0.22938,-0.52412,0.13622,-19.38,16.86,22.08
6.2517,-2.4789,-5.2575,-0.23182,-0.31643,-0.059865,-19.08,17.1,22.38
7.6002,-1.4982,-5.2711,-0.14752,-0.15608,-0.013134,-18.9,17.28,22.68
10.106,-3.7592,-5.5571,-0.15455,-0.3656,-0.064752,-18.6,17.34,22.8
8.2267,-4.0589,-5.3664,-0.076969,-0.33567,-0.14294,-18.06,17.34,23.16
9.4389,-3.2144,-5.598,-0.10782,0.027184,-0.38576,-17.88,17.34,23.22
8.8941,-2.5879,-5.9249,-0.11881,0.029322,-0.31979,-17.82,17.34,23.28
7.0417,-2.7104,-7.1507,-0.20983,0.05681,0.056505,-17.52,17.04,23.64
7.9951,-5.4345,-8.54,-0.33842,-0.26298,-0.11881,-17.4,16.98,23.82
5.2166,-1.5119,-8.1858,-0.41722,-0.19884,0.079107,-17.22,16.92,24.06
7.3822,-4.9306,-7.1915,-0.35125,-0.40287,0.0027489,-16.86,16.92,24.48
6.8238,-3.0646,-8.1995,-0.36682,-0.51679,0.048564,-16.62,16.86,24.66
8.0905,-1.8524,-7.7364,-0.31948,-0.51771,-0.049786,-16.56,16.62,24.84
8.2267,-0.50395,-8.0224,-0.3653,-0.36041,0.016799,-16.08,16.32,25.32
8.0224,-1.3348,-6.9736,-0.42058,-0.39828,-0.020464,-16.02,16.02,25.32
7.5729,-4.4266,-5.1894,-0.37324,0.059865,0.040928,-15.96,15.78,25.8
7.069,-3.8001,-6.6604,-0.3711,0.0039706,0.017715,-15.96,15.54,26.1
7.4095,-3.2689,-5.5843,-0.40775,0.14691,-0.019853,-15.96,15.36,26.34
5.7342,-3.4732,-6.1836,-0.27642,0.17776,0.02474,-15.72,15.18,27.06
7.8862,-2.7241,-8.3493,-0.22816,0.52901,-0.0058032,-15.78,15.12,27.3
8.2812,-3.2144,-8.0496,-0.19426,0.89828,-0.12217,-15.78,14.94,27.66
6.7829,-2.7377,-8.2539,-0.21502,1.3671,-0.17532,-15.84,14.58,28.2
7.2733,-2.5742,-6.9328,-0.19273,1.7645,-0.21319,-15.9,14.52,28.32
8.2539,-0.43585,-7.3686,-0.16005,1.2862,-0.048869,-16.32,14.34,28.32
9.2482,-1.2395,-6.4424,-0.10476,1.368,-0.044899,-16.68,14.28,28.26
9.0848,-1.2939,-5.4618,-0.053451,1.4801,0.03879,-16.98,14.28,28.14
8.1858,-1.58,-5.0395,0.02138,1.7892,0.027489,-17.7,14.16,27.6
8.717,-3.1872,-3.8001,0.0012217,2.1041,-0.0097738,-18.12,14.16,27.18
5.2575,-1.8387,-3.6094,-0.058032,2.0088,0.10385,-18.48,14.4,26.7
9.221,-3.2416,-3.7047,-0.10507,2.0143,0.3488,-19.56,14.52,25.44
9.8884,-3.0918,-3.8409,-0.2868,1.8751,0.0030543,-19.92,14.52,24.72
9.221,-2.4789,-3.8682,-0.40806,1.887,0.070555,-20.34,14.52,23.94
7.1507,0.027241,-3.0782,-0.57238,1.6518,0.098044,-21.36,14.28,22.32
11.523,-0.68102,-1.8932,-0.62644,1.7724,-0.17868,-21.84,14.28,21.48
13.021,-1.2531,-2.2065,-0.6521,1.3836,-0.22205,-22.26,14.22,20.52
7.8045,1.2803,-0.95342,-0.58338,0.55375,0.2697,-22.8,14.04,18.72
12.422,-1.9341,-1.1441,-0.52046,0.36072,0.17287,-23.16,13.98,17.76
11.169,-2.9284,-2.0839,-0.50244,-0.076664,0.089492,-23.34,13.8,16.98
7.1507,-1.4165,-1.4438,-0.43219,-0.24526,0.22144,-23.76,13.5,15.48
8.8805,-1.8524,-0.72188,-0.36224,-0.1069,0.26603,-23.76,13.44,14.82
12.544,-3.8001,-0.83084,-0.23243,-0.32834,-0.014966,-23.76,13.08,13.62
6.7421,-0.83084,-0.25879,-0.13134,-0.58093,-0.017715,-23.7,12.84,13.2
7.246,-0.81722,0.040861,-0.062614,-0.7419,0.22235,-23.76,12.66,13.02
10.202,-1.9886,-0.20431,0.049786,-0.6747,-0.029932,-23.7,12.48,12.84
9.5479,-1.362,-0.36775,0.16157,-1.1817,-0.015577,-23.76,12.36,12.9
8.4991,-1.4438,-1.2258,0.25687,-1.4517,0.17257,-23.64,12.24,12.78
8.7987,-2.2337,-2.0703,0.26634,-1.1423,0.05284,-23.52,12.06,12.96
8.9077,-3.7047,-3.514,0.27245,-1.0974,0.09896,-23.34,12.06,13.68
7.927,-5.2711,-4.4675,0.22724,-0.77122,-0.0036652,-23.04,12.06,14.1
5.6116,-2.2746,-1.362,0.26664,-0.24679,-0.03879,-22.92,12.18,14.46
9.1256,-3.7728,-3.1463,0.42547,-0.78954,0.065668,-22.56,12.66,15.42
7.5184,-2.9829,-2.0975,0.49236,-0.76602,0.054672,-22.5,12.9,15.9
8.5808,-3.6094,-3.4187,0.45265,-0.73945,0.081245,-22.38,13.02,16.56
7.3141,-2.7377,-2.438,0.38301,-0.38179,0.19212,-22.32,13.32,17.58
9.1256,-3.2961,-3.2416,0.33506,-0.44104,0.10812,-22.26,13.68,17.82
10.787,-4.699,-3.9227,0.30849,-0.41356,-0.0018326,-22.2,13.92,18.3
7.0553,-3.0646,-1.975,0.41661,-0.45418,0.16921,-22.02,14.16,18.48
9.6568,-4.3449,-3.4459,0.36377,-0.24771,-0.049786,-21.96,14.94,19.2
9.6296,-3.8954,-3.4596,0.28619,-0.20128,-0.22052,-21.9,15.24,19.32
6.6059,-1.866,-2.833,0.25748,-0.32193,-0.20281,-21.78,15.78,19.5
6.1836,0.99429,-4.3721,0.23946,-0.59529,0.10385,-21.84,16.08,19.5
13.729,-6.674,-7.7364,-0.12614,-0.65699,-0.23976,-21.72,16.14,19.5
10.474,-4.2223,-6.2517,-0.03879,-0.99907,0.059865,-21.6,16.14,19.62
9.4798,0.98067,-6.96,-0.026267,-1.0088,0.26603,-21.78,16.32,19.74
10.842,-4.6582,-6.674,-0.10263,-0.96822,0.28283,-21.72,16.44,19.62
8.4719,-0.92618,-6.4152,0.013744,-1.1551,0.19945,-21.54,16.56,19.68
7.355,-3.8682,-4.5083,0.12889,-1.1591,0.44227,-21.42,16.68,19.68
6.565,-2.8603,-5.2575,0.19242,-0.98777,0.35369,-21.24,16.68,19.68
11.305,-4.0316,-5.2166,0.11087,-0.83108,0.055589,-21.06,16.62,19.74
3.0918,-2.1656,-3.2689,0.14783,-0.86132,0.23732,-20.52,16.32,19.86
9.8066,-2.5606,-5.3256,0.11179,-0.25748,-0.10018,-20.4,16.14,20.1
9.7385,-4.4402,-5.884,-0.062614,-0.23488,-0.086743,-20.22,15.9,20.46
7.7091,-2.1929,-7.8317,-0.33201,0.10263,-0.15852,-19.86,15.36,21.12
6.0202,-2.2882,-6.6331,-0.3207,0.38485,0.058032,-19.68,15.3,21.48
5.2847,-1.5936,-6.9464,-0.31124,0.51099,0.10171,-19.44,15.12,21.78
8.3765,-3.5549,-7.641,-0.32742,0.56688,-0.033903,-19.14,14.82,22.2
5.8976,-2.0839,-5.8704,-0.29199,0.70158,0.02138,-18.78,14.34,22.8
8.6762,-3.3642,-4.4402,-0.22052,0.82589,-0.1014,-18.66,14.22,23.1
8.145,-2.547,-3.6639,-0.032987,0.67256,-0.18479,-18.3,13.86,23.52
8.1858,-2.3699,-3.5822,0.021991,0.4499,-0.17959,-18.3,13.86,23.76
8.9894,-3.051,-3.3234,0.067195,0.31124,-0.16982,-18.42,13.68,23.94
9.4389,-2.8058,-3.6366,0.069333,0.21228,-0.22419,-18.6,13.62,24.12
9.6704,-2.1929,-4.3585,0.024129,0.1295,-0.20586,-18.78,13.56,24.12
10.093,-3.2416,-4.8352,-0.055283,0.060781,-0.29291,-18.96,13.68,24.0
7.4367,-0.62654,-4.9306,-0.1405,0.088881,-0.25045,-19.38,13.74,24.0
8.7034,-1.471,-4.7944,-0.12614,0.14019,-0.19731,-19.5,13.8,23.94
7.464,-1.0896,-4.9033,-0.11118,0.18998,-0.12248,-19.86,13.62,23.94
12.926,-5.6524,-4.8761,-0.17165,0.17471,-0.46853,-20.16,13.38,23.7
4.1951,-0.55843,-4.6445,-0.080023,0.33353,-0.14997,-20.4,13.44,23.58
7.0553,-3.4323,-4.413,-0.015577,0.65027,-0.29719,-20.58,13.32,23.4
9.1529,-3.5958,-5.8159,-0.067501,0.38026,-0.44166,-21.0,13.38,23.22
7.8998,-3.1191,-5.5707,-0.13378,0.30727,-0.48717,-21.24,13.08,23.16
7.0962,-2.8194,-4.6718,-0.21258,0.58551,-0.35675,-21.24,13.14,23.22
8.2403,-2.3018,-4.5628,-0.26695,0.58399,-0.33353,-21.78,13.02,23.1
10.188,-1.9886,-4.0725,-0.30085,0.33445,-0.28191,-22.08,12.84,23.16
11.427,-2.9011,-3.2008,-0.15424,0.32559,-0.25779,-22.5,12.66,23.1
7.927,-0.28603,-4.3313,-0.14844,0.15424,0.0088575,-22.92,12.42,22.92
