Ax,Ay,Az,Gx,Gy,Gz,Mx,My,Mz
6.6059,-4.6037,-5.7886,-0.45907,0.041539,0.39615,-16.8,15.3,-19.62
5.6116,-4.9033,-6.279,-0.37599,0.35766,0.56169,-16.86,15.66,-19.08
6.1155,-4.522,-5.2575,-0.4105,0.54611,0.63102,-16.86,15.9,-18.84
6.8374,-3.8273,-4.9033,-0.41233,0.50121,0.60751,-16.8,16.08,-18.6
7.7772,-4.8897,-4.9578,-0.33537,0.35858,0.40775,-16.74,16.32,-18.12
7.9951,-4.7535,-4.6037,-0.43402,0.1967,0.35613,-16.68,16.44,-17.76
7.3141,-4.0725,-3.0918,-0.4444,-0.007025,0.33567,-16.56,16.44,-17.58
9.0303,-4.3858,-3.1054,-0.45845,-0.34911,0.29596,-16.26,16.68,-17.34
8.0905,-6.3335,-4.304,-0.65821,-1.1808,0.22388,-16.02,16.74,-16.86
5.1757,-5.3119,-2.4789,-0.79626,-1.5684,0.17318,-15.84,17.16,-15.84
4.4402,-5.0259,-5.2166,-0.72937,-1.4346,0.30757,-15.66,17.28,-15.24
5.1076,-4.9169,-4.5901,-0.67806,-1.055,0.18387,-15.54,17.52,-13.8
5.203,-4.3177,-4.9033,-0.65454,-0.75045,0.1912,-15.3,17.52,-13.02
5.5435,-5.4618,-5.6116,-0.51465,-0.84269,0.13653,-15.18,17.52,-12.36
3.8273,-2.8058,-5.4754,-0.40134,-0.76144,0.2022,-14.82,17.52,-10.92
4.7126,-2.6015,-6.96,-0.1127,-0.42455,0.28802,-14.64,17.64,-10.08
5.6388,-7.2733,-6.9872,-0.28253,-0.8207,0.14997,-14.22,17.76,-9.24
4.6582,-5.7614,-8.0905,-0.6072,-0.9893,0.05681,-13.44,17.7,-7.74
3.6094,-1.866,-8.3357,-0.74159,-0.89492,0.16799,-13.02,17.58,-6.9
5.7342,-0.6674,-7.7908,-0.49358,0.21411,0.11729,-12.66,17.4,-6.06
6.2245,-5.8976,-6.851,-0.54367,-0.64507,0.29016,-12.12,16.98,-4.62
3.9635,-4.0861,-7.3277,-0.59743,-1.2556,0.3989,-11.58,16.92,-3.9
3.6094,-3.0918,-10.106,-0.6298,-0.59895,0.54428,-11.22,16.86,-3.18
5.4481,-4.0725,-10.311,-0.56902,0.14661,0.45296,-10.38,16.8,-2.04
5.2847,-2.5334,-9.9156,-0.4945,0.24251,0.36652,-9.9,16.74,-1.62
4.4811,-1.9341,-9.7385,-0.32712,0.61789,0.24648,-9.54,16.74,-1.2
4.5628,-2.9965,-10.324,-0.22969,0.41814,0.1011,-8.82,16.86,-0.36
4.5764,-3.7592,-9.6023,-0.18937,0.49694,-0.17013,-8.46,16.98,-0.18
3.4868,-3.5822,-8.7306,-0.099876,0.69578,-0.24648,-8.22,16.92,0.24
5.4481,-3.5549,-8.1858,-0.030238,0.89797,-0.48839,-7.98,17.04,0.72
6.7421,-4.3858,-8.1995,-0.073304,0.89034,-0.59712,-7.92,17.22,0.78
6.5105,-4.7671,-8.431,-0.085216,0.83902,-0.5846,-7.92,17.22,0.72
5.993,-4.127,-7.8726,0.025045,0.93829,-0.66676,-7.68,17.46,0.54
6.1836,-2.8603,-7.2596,-0.020769,0.80329,-0.76725,-7.8,17.52,0.36
6.1564,-2.547,-7.1643,0.025962,0.5568,-0.81398,-7.74,17.64,-0.06
4.4266,-1.8796,-7.2188,0.17532,0.56749,-0.54153,-7.8,17.64,-0.9
6.6059,-3.0237,-7.6002,0.27,0.82711,-0.57421,-8.04,17.58,-1.38
7.8045,-3.9908,-7.355,0.25901,0.89644,-0.54459,-8.22,17.58,-1.92
7.927,-3.6094,-7.3141,0.32803,0.66187,-0.54703,-8.4,17.52,-2.46
4.8761,-2.2474,-6.4152,0.43463,0.54672,-0.51252,-9.12,17.16,-3.6
4.699,-2.152,-6.8647,0.56872,0.57299,-0.35247,-9.54,17.04,-4.26
3.8546,-2.0703,-7.5457,0.5904,0.79351,0.0058032,-10.38,16.86,-5.64
5.4618,-1.6481,-6.3198,0.61178,0.82039,0.28314,-10.98,16.86,-6.12
8.2812,-2.9284,-5.598,0.58399,0.45051,0.3204,-11.58,16.92,-6.54
13.498,-5.7342,-6.3335,0.22877,-0.36835,-0.051313,-12.24,16.92,-7.08
12.98,-7.3141,-6.0611,0.14478,-0.57941,-0.34697,-12.9,16.92,-7.62
3.0782,-2.3018,-3.9227,0.047953,-0.8995,-0.50396,-14.1,16.98,-8.7
2.0567,-0.85808,-4.3858,-0.14233,-1.0284,-0.14264,-14.82,16.98,-8.94
9.1665,-3.7456,-6.3062,-0.3372,-0.93401,-0.0281,-16.14,17.1,-9.36
11.06,-2.8467,-5.6252,-0.51404,-0.71166,-0.10934,-16.62,17.1,-9.48
9.507,-2.0431,-5.2847,-0.4725,-0.69822,-0.12737,-17.16,16.98,-9.6
7.8998,-4.2632,-6.1019,-0.78374,-0.97616,0.087659,-18.12,16.8,-9.78
2.547,-0.38137,-7.2733,-0.64782,-1.0369,0.25443,-18.48,16.74,-9.96
2.5061,-0.77636,-9.9565,-0.47709,-1.3289,0.45968,-18.66,16.74,-9.84
10.161,-8.5944,-10.256,-0.73609,-1.1289,0.019548,-18.72,16.5,-9.6
2.4517,-4.1406,-6.851,-0.55283,-1.0241,0.042455,-18.54,16.5,-9.48
-1.6617,-0.95342,-6.2654,-0.026573,-0.74862,0.27978,-18.3,16.44,-9.24
6.7285,-0.027241,-11.346,0.20525,-0.53665,0.071166,-17.82,16.26,-8.64
9.8611,-3.0237,-10.842,0.29902,-0.52565,0.27978,-17.76,16.14,-8.28
3.8273,-4.3313,-5.5162,0.48442,-0.057421,0.56108,-17.52,16.14,-8.04
4.0316,-1.6753,-7.0962,0.54336,-0.28253,0.49663,-16.68,16.02,-7.5
6.7012,-3.8682,-7.9543,0.43005,-0.42211,0.45968,-16.5,16.14,-7.26
5.1213,-4.1814,-6.4152,0.42699,-0.40317,0.56963,-16.2,16.26,-7.08
3.1327,-2.1929,-4.9987,0.43768,-0.19975,0.60292,-15.36,16.8,-6.12
5.5707,0.76274,-10.46,0.19212,-0.33139,0.43646,-15.0,17.04,-5.64
8.8124,1.0488,-13.021,-0.25931,-0.8827,0.21441,-14.82,17.16,-5.46
2.7786,-11.319,-2.2474,-0.72998,-0.19914,0.30849,-14.7,17.4,-4.92
-3.0782,-4.5764,-4.6445,-0.47342,-0.70585,0.41783,-14.58,17.52,-4.62
6.4152,-4.6445,-9.4389,-0.59254,-0.42425,-0.24832,-14.4,17.64,-4.26
4.4402,-3.2825,-9.3163,-0.2025,-0.79351,0.56047,-14.1,17.94,-3.48
4.3994,-0.83084,-10.256,0.34789,-0.61667,0.76541,-13.8,18.06,-3.06
4.7399,-3.3097,-9.6023,0.97708,0.010385,0.91966,-13.56,18.24,-2.7
5.0259,-5.4618,-10.774,1.4447,0.078496,0.77152,-13.38,18.72,-2.1
4.3177,-8.0632,-10.052,1.0623,-0.26664,0.62797,-13.14,19.14,-1.74
5.1621,-8.0905,-11.087,0.4441,-1.204,0.31948,-12.96,19.62,-1.14
3.5685,-2.3563,-4.5083,-0.10812,-2.3418,0.13561,-12.96,20.58,-0.06
0.51757,-0.29965,-1.5119,0.037874,-1.4841,0.2022,-12.9,21.18,0.72
-0.61292,-2.6015,-2.1656,0.062308,-0.071166,0.55039,-12.9,21.9,1.62
-0.7355,-5.2983,-0.95342,-0.074526,0.96242,0.73182,-12.48,23.4,3.12
0.69464,-5.0531,-1.8115,-0.1912,1.3662,0.64355,-12.36,24.06,3.72
3.2961,-4.6718,-3.2416,-0.31062,1.5916,0.48564,-12.42,24.66,4.2
9.8884,-7.2869,-13.866,-1.2819,0.51588,0.14478,-12.3,25.02,4.62
7.2324,-3.4051,-12.313,-1.2581,-1.0608,0.38087,-12.3,25.2,4.8
3.2553,-4.699,-10.787,-1.1212,-0.34972,0.34483,-12.06,25.5,5.16
1.7706,-3.3234,-8.7443,-0.65057,0.21136,0.16005,-11.46,25.62,5.64
2.8058,-4.0861,-9.8611,-0.51343,0.35186,-0.10629,-11.34,25.32,5.7
5.4618,-3.8273,-10.106,-0.45815,0.21716,-0.24282,-10.92,24.72,5.82
4.8625,-2.1793,-9.9292,-0.40623,-0.12004,-0.40775,-10.68,24.3,5.64
5.3392,-1.8524,-10.202,-0.32498,-0.2303,-0.42547,-10.26,23.28,5.04
4.9987,-2.0839,-9.1256,-0.27,-0.0281,-0.25565,-10.02,22.02,4.5
5.7342,-2.6423,-9.4253,-0.24679,0.17165,-0.23579,-9.84,20.82,4.26
5.0804,-2.0431,-7.464,-0.10079,0.13531,-0.076664,-9.66,20.1,4.5
4.8352,-0.92618,-8.2403,0.0094684,0.039401,-0.080634,-9.96,19.68,4.56
6.851,-2.7513,-8.7306,-0.018021,-0.08491,-0.14997,-10.38,19.26,4.74
6.565,-2.9829,-8.6489,-0.015577,-0.37874,-0.064752,-10.68,18.9,4.92
3.2825,-2.4517,-7.1779,0.14752,-0.44074,0.19792,-10.74,18.54,5.22
6.1428,-3.9635,-8.9622,0.22358,-0.13592,0.074526,-10.86,18.24,5.28
4.5628,-3.5685,-8.2948,0.12126,-0.23305,0.010385,-10.8,18.18,5.28
4.6037,-3.5277,-6.8374,0.14752,-0.23671,-0.014355,-10.68,18.0,5.52
6.5378,-3.8682,-7.7636,0.14233,-0.1967,-0.27397,-10.92,17.88,5.64
6.6331,-4.2904,-7.4503,0.13683,-0.45296,-0.35919,-10.8,17.88,5.64
4.7263,-3.8409,-7.464,0.14355,-0.64782,-0.36194,-10.62,17.7,5.82
4.3449,-3.6775,-7.4776,0.18937,-0.54734,-0.37874,-10.38,17.7,6.0
4.3177,-3.1735,-7.1915,0.13561,-0.37874,-0.51435,-10.32,17.76,6.12
6.0202,-4.8761,-7.927,0.1182,-0.32529,-0.54245,-10.26,17.82,6.3
4.2087,-3.7047,-7.4095,0.10934,-0.42974,-0.52504,-10.32,17.88,6.3
4.6037,-2.6151,-7.6002,0.14478,-0.22999,-0.59376,-10.32,17.76,6.54
6.6876,-4.6173,-7.2052,0.16218,-0.12828,-0.76694,-10.62,17.58,6.42
5.4209,-5.2847,-8.322,0.18021,-0.37141,-0.61545,-10.62,17.46,6.48
3.7865,-5.4209,-7.9951,0.24435,-0.19242,-0.58246,-10.74,17.4,6.42
3.7184,-5.8295,-6.8783,0.063835,-0.015882,-0.90378,-11.1,17.28,6.54
1.4438,-4.0725,-5.8159,0.17685,0.084299,-0.85674,-11.52,17.16,6.3
3.4459,-4.3177,-7.1779,0.26359,0.35186,-0.87262,-11.7,16.86,6.48
4.413,-5.5435,-6.0883,0.3427,0.22327,-0.87812,-12.24,16.5,6.3
4.2904,-4.0861,-8.7443,0.32132,0.14661,-1.004,-12.72,16.02,6.42
4.6309,-4.3858,-8.6353,0.27733,0.4945,-1.014,-12.96,15.6,6.36
3.7865,-5.8295,-7.4503,0.048869,0.66829,-1.2233,-13.38,15.3,6.54
2.9284,-4.5901,-6.9191,-0.082467,1.003,-1.4392,-13.98,14.94,6.42
3.4732,-2.7377,-7.1234,-0.025351,1.0635,-1.2504,-14.34,14.7,6.36
6.674,-2.8739,-8.0088,0.072998,0.94776,-1.0125,-15.06,14.22,5.82
5.3528,-4.985,-7.355,0.065363,0.91111,-1.0794,-15.78,13.62,5.52
4.8625,-3.9771,-7.1779,0.038485,0.7648,-1.0269,-16.14,13.2,5.28
6.674,-2.6423,-8.9486,0.16249,0.66187,-0.86773,-16.8,12.66,4.56
5.0123,-2.4789,-7.8998,0.25443,0.28863,-0.72815,-17.7,12.06,3.9
4.6037,-1.9886,-8.0224,0.28986,0.32895,-0.62644,-17.94,11.88,3.42
5.2575,-1.7162,-7.6002,0.35461,0.34789,-0.39645,-18.96,11.28,2.58
6.7012,-2.3836,-7.2324,0.38057,0.46853,-0.29841,-19.44,11.04,2.22
7.4776,-4.3449,-6.674,0.37141,0.47159,-0.34392,-20.34,10.62,1.56
4.8352,-2.4517,-5.8295,0.3317,0.39492,-0.42302,-20.94,10.14,1.02
5.9657,-2.8194,-6.6876,0.46365,0.35705,-0.34667,-21.48,10.02,0.54
8.4719,-4.127,-7.641,0.43158,0.10263,-0.50732,-21.84,9.9,0.36
6.1428,-4.6445,-5.2166,0.4444,0.047647,-0.64996,-22.44,9.78,-0.12
2.438,-3.0101,-3.1599,0.55497,0.12492,-0.52443,-22.74,9.66,-0.24
4.6445,-2.3018,-3.1191,0.55192,-0.03207,-0.23457,-23.22,9.66,-0.78
10.065,-6.6604,-6.4697,0.68967,-0.72907,-0.12065,-23.52,9.54,-1.44
7.1643,-5.4754,-10.011,0.18143,-1.6438,0.017715,-23.52,9.36,-2.28
1.7979,-1.185,-10.719,0.4163,-1.4591,0.16738,-23.34,9.24,-2.46
3.228,-2.3836,-9.8066,0.41844,-0.075747,0.25168,-23.34,9.06,-2.88
3.2008,-2.942,-8.54,0.41325,0.46823,0.36285,-23.22,8.88,-3.18
5.9249,-5.38,-8.3357,0.44838,0.51038,0.42119,-22.98,8.64,-3.72
5.38,-4.5628,-8.1177,0.35064,0.4496,0.40531,-22.62,8.46,-4.2
3.514,-1.8387,-6.565,0.34514,0.38271,0.39187,-22.38,8.64,-4.74
4.3449,-1.4165,-7.6955,0.49358,0.19853,0.76022,-22.2,8.64,-4.92
8.826,-5.5299,-8.7987,0.20861,0.23152,0.67592,-21.66,8.52,-5.22
5.9521,-5.0668,-6.7557,0.23946,0.2419,0.57971,-21.54,8.76,-5.1
4.1678,-2.3699,-7.0553,0.31796,0.15852,0.70066,-21.24,9.18,-5.34
7.8045,-3.5685,-8.9622,0.2361,0.17562,0.74037,-21.06,9.66,-5.64
8.0224,-6.1564,-8.1313,0.068417,0.11209,0.69791,-21.0,10.2,-6.0
4.9578,-5.4481,-5.9657,0.1124,-0.05284,0.5568,-20.94,10.38,-6.0
6.2517,-3.5413,-7.3141,0.10721,0.037568,0.37202,-20.94,11.04,-6.3
6.7693,-3.8001,-7.8589,-0.0281,0.065668,0.30879,-20.94,11.28,-6.6
7.6274,-4.3177,-7.1779,-0.12156,-0.12675,0.27672,-20.88,11.58,-6.54
4.5764,-4.985,-6.5786,-0.1909,-0.30788,0.42791,-21.06,12.12,-6.48
6.7966,-4.6854,-7.3822,-0.1405,-0.15638,0.37446,-21.12,12.72,-6.54
6.4697,-4.8352,-7.3822,-0.32315,-0.35705,0.38301,-21.18,13.2,-6.3
5.094,-3.6094,-6.5378,-0.30238,-0.48045,0.50946,-21.06,13.5,-6.12
6.5241,-4.2223,-6.3198,-0.27794,-0.34239,0.37965,-21.12,13.56,-5.76
5.1485,-5.4754,-6.1836,-0.34025,-0.49022,0.3094,-21.12,13.86,-5.22
5.4754,-3.1735,-6.7693,-0.18295,-0.5791,0.44807,-21.06,14.1,-4.56
5.8704,-3.6775,-6.8374,-0.2022,-0.53878,0.31368,-21.06,14.28,-4.14
6.5105,-4.7399,-6.7966,-0.30299,-0.5006,0.13653,-20.82,14.58,-3.24
5.1621,-6.1019,-6.6059,-0.28008,-0.51282,0.096211,-20.64,14.64,-2.82
4.7263,-4.9987,-6.3198,-0.35461,-0.58124,0.030543,-20.28,14.82,-2.28
5.38,-3.4459,-6.6059,-0.27947,-0.489,0.000611,-20.16,14.88,-1.8
4.6582,-4.0589,-6.7829,-0.31337,-0.58063,-0.023518,-19.92,14.7,-1.02
4.6582,-5.2983,-7.9407,-0.23427,-0.46273,0.007025,-19.68,14.76,-0.3
3.1599,-4.5356,-6.8374,-0.1628,-0.38607,0.06689,-19.38,14.76,0.42
3.514,-4.304,-7.5048,-0.10996,-0.28741,0.085216,-19.2,14.88,0.9
4.0997,-4.4539,-7.069,-0.092546,-0.21686,0.020769,-18.66,14.7,1.62
4.7671,-5.7342,-7.7364,-0.022602,-0.1347,0.034514,-18.36,14.52,2.22
3.8818,-5.1349,-6.6331,-0.020159,-0.050702,-0.03543,-18.18,14.4,2.4
3.9771,-3.5958,-7.0281,0.037568,-0.087048,-0.01069,-18.0,14.22,3.0
4.6037,-4.9578,-8.1722,0.0039706,-0.045509,-0.047342,-17.76,13.8,3.3
4.1542,-4.3177,-7.8181,-0.0012217,-0.028711,-0.064141,-17.58,13.68,3.66
3.0918,-5.0531,-6.7693,0.09163,0.12217,-0.051313,-17.22,13.8,3.84
4.0861,-4.9306,-7.5593,0.053756,0.20678,-0.16402,-17.16,13.74,4.08
4.522,-4.0044,-7.927,0.085827,0.056505,-0.21533,-17.04,13.5,4.26
4.9442,-4.8216,-7.0281,0.062614,0.18143,-0.34208,-16.98,13.2,4.14
3.7592,-4.6445,-6.4424,0.029016,0.13042,-0.42272,-17.04,13.14,4.14
4.8897,-4.5901,-7.7636,-0.065668,0.15669,-0.41936,-16.92,13.08,3.66
5.2166,-4.2087,-7.5048,-0.13011,0.13042,-0.4612,-16.98,12.9,3.54
5.38,-3.8682,-8.0769,-0.18692,0.053145,-0.40531,-17.16,12.66,3.12
4.5628,-5.7205,-7.2188,-0.18967,0.15241,-0.46731,-17.22,12.54,2.94
3.4459,-3.9771,-6.2109,-0.1686,0.20433,-0.40195,-17.4,12.18,2.58
6.6604,-4.7671,-9.0167,-0.21655,0.16005,-0.52412,-17.58,11.7,1.92
4.8761,-4.8352,-7.0962,-0.099266,0.092546,-0.51496,-17.64,11.52,1.68
4.2087,-3.8137,-7.5865,-0.066279,0.20617,-0.39095,-17.7,11.1,1.38
5.2166,-4.7399,-7.7908,-0.032681,0.35216,-0.48258,-17.76,10.98,1.2
4.1814,-5.3256,-6.5378,-0.039706,0.32529,-0.40256,-17.94,10.62,0.96
4.6445,-3.4051,-7.0553,-0.013744,0.36072,-0.38362,-18.06,10.26,0.6
4.7671,-3.8682,-6.6331,0.01405,0.3824,-0.39859,-17.88,10.02,0.48
6.0066,-5.2847,-8.036,-0.10721,0.34636,-0.44593,-18.0,9.96,0.36
1.9341,-2.8058,-5.4754,0.0054978,0.38729,-0.38332,-18.0,9.54,-0.12
6.17,-3.1327,-8.4719,-0.18479,0.22419,-0.63866,-18.24,9.42,-0.6
7.5865,-4.0861,-9.9973,-0.31032,-0.0027489,-0.58277,-18.3,9.3,-0.84
2.833,-3.4868,-5.4073,-0.19181,0.28405,-0.60689,-18.6,8.94,-1.14
3.9227,-2.6015,-6.6876,-0.15088,0.15974,-0.63622,-18.78,8.88,-1.38
6.5922,-3.0646,-8.9894,-0.22388,-0.0058032,-0.61667,-19.02,8.64,-1.62
6.6195,-3.0918,-8.2539,-0.096517,0.0024435,-0.47342,-19.5,8.22,-2.28
6.0202,-2.8603,-7.6002,-0.086437,0.054672,-0.37599,-19.74,8.04,-2.58
5.4209,-3.1191,-7.4912,-0.06353,0.15211,-0.27947,-19.86,7.8,-2.82
5.0531,-1.4982,-7.8181,-0.073609,-0.0036652,-0.19487,-20.34,7.56,-3.24
7.8862,-4.7399,-9.1937,-0.15058,-0.13347,-0.077274,-20.58,7.44,-3.36
8.3901,-5.2166,-8.6898,-0.17135,0.032987,-0.17104,-20.82,7.08,-3.78
3.623,-1.3212,-7.9407,-0.024129,-0.20831,-0.07758,-21.3,6.9,-3.96
6.3607,-2.6968,-9.3299,-0.14416,-0.27397,-0.000916,-21.3,6.78,-3.84
8.2812,-3.732,-9.2891,-0.096517,-0.15455,-0.080329,-21.42,6.78,-3.78
4.5492,-2.0294,-6.4969,0.050396,-0.12828,0.036346,-21.66,6.6,-3.96
5.5299,-2.7649,-7.3414,0.11148,-0.1182,0.060476,-21.72,6.48,-4.02
7.2869,-2.7377,-7.8317,0.14936,-0.25229,0.0012217,-21.66,6.6,-4.14
4.985,-1.9205,-7.7091,0.208,-0.31673,0.11057,-21.72,6.9,-4.02
6.3062,-2.9284,-8.2539,0.13714,-0.20403,0.12737,-21.6,6.9,-4.08
6.6195,-3.3642,-7.9407,0.10232,-0.16768,0.054062,-21.66,6.9,-4.2
4.8625,-2.5742,-7.1507,0.095295,-0.26206,0.063835,-21.42,7.02,-4.02
5.1485,-2.3427,-7.7364,0.007025,-0.4273,0.062308,-21.48,7.2,-4.08
6.5786,-2.3155,-8.7034,-0.029932,-0.51526,0.073304,-21.3,7.62,-3.96
5.3119,-2.9829,-7.4912,0.065973,-0.36896,0.22205,-21.06,7.8,-3.78
5.6116,-2.9965,-8.3629,0.082161,-0.47464,0.24709,-21.12,7.86,-3.72
4.8761,-2.3018,-7.7636,0.1124,-0.52412,0.24435,-21.18,7.98,-3.66
4.6854,-2.3427,-8.0224,0.15333,-0.54642,0.29993,-21.0,8.52,-3.18
3.8546,-3.1599,-7.0145,0.23243,-0.39034,0.39095,-20.88,8.76,-3.12
4.7807,-2.8739,-7.6819,0.21564,-0.44746,0.39462,-20.82,8.94,-2.82
5.7069,-4.1951,-8.1858,0.18692,-0.30665,0.41203,-20.64,9.12,-2.64
3.2825,-3.8409,-5.6661,0.22663,-0.26664,0.42883,-20.34,9.42,-1.98
4.2223,-3.0373,-6.851,0.2193,-0.22785,0.50519,-20.16,9.72,-1.56
6.7966,-4.6854,-9.0712,0.1011,-0.32009,0.36316,-19.86,10.02,-1.2
3.3915,-3.4868,-6.1836,0.29658,-0.28466,0.42791,-19.62,10.44,-0.9
4.2495,-3.6911,-8.1177,0.27336,-0.27794,0.41661,-19.5,10.56,-0.36
5.993,-5.3937,-8.1858,0.20464,-0.29169,0.34178,-19.38,10.68,-0.36
3.909,-3.1599,-7.1098,0.28191,-0.38087,0.30513,-18.9,11.28,0.48
3.5685,-3.7728,-7.4503,0.29596,-0.28222,0.36866,-18.54,11.4,0.78
5.1213,-5.1485,-8.0224,0.1182,-0.30543,0.26909,-18.3,11.58,1.02
4.0316,-5.489,-6.7012,0.073304,-0.21319,0.18631,-18.06,11.88,1.56
3.1872,-3.4459,-6.5922,0.067806,-0.40561,0.29322,-17.88,12.18,1.8
3.5685,-4.0316,-8.0088,-0.1573,-0.3598,0.26267,-17.82,12.36,2.1
3.5277,-3.7865,-7.9815,-0.083994,-0.3882,0.37446,-17.7,12.84,2.46
4.0316,-4.2223,-8.4446,-0.1347,-0.29841,0.42974,-17.64,12.96,2.64
3.623,-4.9987,-8.1586,-0.18967,-0.27245,0.33872,-17.58,13.02,2.82
4.3177,-5.1894,-8.5808,-0.12187,-0.2697,0.32895,-17.28,13.26,3.66
4.7535,-5.993,-8.5536,-0.18418,-0.38698,0.20311,-16.92,13.44,3.96
4.7535,-5.993,-8.5536,-0.06017,-0.44685,0.29199,-16.92,13.44,3.96
5.0259,-3.4732,-8.3493,-0.013439,-0.30635,0.12339,-16.62,13.74,4.44
3.623,-4.6718,-8.1995,0.04612,-0.28833,0.25779,-16.62,13.8,4.74
3.8001,-6.2245,-8.8668,-0.016188,-0.19426,0.1295,-16.68,14.16,5.4
2.2746,-5.2166,-6.5241,0.018021,-0.21869,0.25962,-16.5,14.22,5.82
3.228,-4.0316,-6.7693,0.17776,-0.099571,0.1518,-16.38,14.4,6.12
4.2768,-1.6208,-6.5378,0.30696,-0.03543,0.24709,-16.26,14.4,6.54
5.8976,-6.7421,-9.398,0.23091,0.12553,0.14325,-16.08,14.58,6.96
4.2904,-7.3686,-8.3357,0.043066,-0.08827,0.11576,-15.9,14.52,7.32
3.514,-2.3836,-6.0611,0.13806,-0.15547,-0.06017,-15.6,14.46,7.98
4.1814,-3.3915,-8.1858,0.12187,-0.1405,-0.18998,-15.54,14.64,8.22
5.4481,-4.7944,-8.9622,0.061087,-0.08491,-0.22235,-15.3,14.82,8.4
3.0918,-4.9714,-7.2188,0.025962,-0.20311,-0.31337,-15.36,14.88,8.4
2.2201,-4.3858,-5.8976,0.13958,-0.15119,-0.33292,-15.36,14.88,8.58
5.6797,-4.9033,-9.3844,0.019242,-0.14997,-0.52993,-15.36,14.88,8.82
4.7807,-3.8273,-7.5321,-0.04612,-0.38943,-0.54611,-15.24,14.88,8.88
4.3313,-1.9886,-7.3141,-0.01741,-0.28924,-0.54123,-15.12,14.64,8.94
7.0281,-4.6173,-8.4991,-0.068111,-0.28008,-0.70983,-15.12,14.64,8.94
4.7944,-5.0804,-7.8589,-0.15638,-0.53176,-0.56169,-15.18,14.46,8.88
3.8137,-5.094,-7.9134,-0.22816,-0.42699,-0.58429,-15.18,14.22,8.76
4.2223,-2.6696,-6.4833,-0.098655,-0.3259,-0.60628,-15.36,13.98,9.0
6.279,-1.5391,-7.5048,-0.024435,-0.25992,-0.57971,-15.36,13.68,9.0
6.8102,-5.094,-8.0224,0.020464,-0.43921,-0.53939,-15.3,13.38,9.06
2.3427,-5.4209,-6.2245,0.080634,-0.53237,-0.35369,-15.3,12.78,9.42
4.7126,-5.0259,-7.75,-0.0012217,-0.34208,-0.52993,-15.3,12.36,9.66
5.9657,-7.2052,-9.2618,-0.07025,-0.25931,-0.72479,-15.24,12.0,9.84
3.228,-4.8352,-6.456,-0.10018,-0.40134,-0.86926,-15.18,11.4,10.2
4.8488,-2.1248,-7.3822,-0.21441,-0.16921,-1.1832,-15.06,10.92,10.44
4.6445,-4.2904,-7.4367,-0.044899,-0.27336,-0.93921,-15.12,10.08,10.74
5.0804,-4.9987,-8.3493,-0.20189,-0.12462,-0.96822,-15.12,9.72,11.04
5.0259,-4.7126,-8.036,-0.15241,-0.15638,-0.9108,-15.06,9.24,11.16
3.3097,-6.6467,-7.1915,-0.16127,-0.14569,-0.80359,-15.0,8.88,11.4
2.8603,-4.8216,-6.5105,-0.14294,0.084299,-0.90042,-14.88,8.7,11.4
6.3198,-3.2689,-6.9191,-0.19028,0.097433,-1.0409,-15.06,7.92,11.7
3.8682,-4.3177,-6.2245,0.081245,-0.013439,-0.86651,-15.12,7.56,11.82
3.5413,-4.985,-9.9292,0.018937,0.11087,-0.81673,-15.18,6.9,11.94
4.0861,-6.7421,-7.9815,-0.098655,0.067501,-0.94806,-15.24,6.54,11.88
3.9635,-4.5628,-7.3414,-0.059559,0.062614,-1.0684,-15.24,6.3,11.82
1.7706,-1.7298,-7.3141,0.041844,-0.000916,-1.0098,-15.3,5.94,11.82
5.4481,-4.2495,-9.8066,-0.043677,-0.12126,-0.87568,-15.6,4.86,11.76
2.7922,-1.7162,-6.6059,0.24618,0.11209,-0.71166,-15.54,4.62,11.76
4.985,-1.9341,-9.3163,0.22449,-0.21228,-0.57849,-15.54,4.26,11.64
5.2711,-3.3778,-8.7034,0.25931,-0.096822,-0.35369,-15.84,3.6,11.46
5.2983,-2.3155,-8.4855,0.18387,-0.21564,-0.44776,-15.96,3.18,11.34
6.3471,-4.1542,-10.065,0.12065,-0.27,-0.43921,-15.96,2.7,11.16
3.8273,-6.0883,-7.4503,-0.0094684,-0.022297,-0.42302,-15.9,2.52,11.1
6.8919,-3.1735,-10.256,0.022907,-0.44318,-0.51496,-15.9,2.04,11.04
4.413,-2.2882,-8.2539,0.22449,-0.33323,-0.30238,-15.9,1.8,10.86
6.17,-2.6151,-10.815,0.1857,-0.32773,-0.35186,-15.84,1.5,10.86
1.8932,-2.4108,-5.9657,0.24374,-0.12584,-0.36011,-15.96,0.96,10.68
3.6503,-1.8115,-7.5048,0.45509,-0.22785,-0.21747,-15.96,0.72,10.62
5.1894,-1.9886,-8.9349,0.37477,-0.39248,-0.23579,-15.9,0.78,10.5
4.7671,-3.2689,-7.9951,0.47128,-0.24068,-0.10385,-15.96,0.54,10.56
5.0804,-5.9793,-9.0031,0.22174,-0.24832,-0.077274,-15.96,0.48,10.56
3.1191,-2.7377,-6.5378,0.06353,-0.2419,-0.23457,-15.66,0.3,10.86
4.4266,-2.4653,-8.7306,0.15027,-0.45968,-0.25259,-15.6,0.3,10.92
4.6718,-2.547,-8.9758,0.061697,-0.58277,-0.19761,-15.54,0.36,11.04
3.3915,-2.3836,-8.2403,0.27428,-0.28191,0.027489,-15.36,0.3,11.1
4.1542,-3.732,-7.4776,0.25076,-0.21564,0.092241,-15.24,0.3,11.28
4.127,-3.5413,-8.0496,0.42577,-0.18631,0.18204,-15.12,0.24,11.4
5.7069,-3.4187,-8.54,0.25901,-0.30421,0.1066,-15.24,0.18,11.52
4.1406,-7.8045,-8.2539,0.25443,-0.15791,0.14478,-15.18,0.3,11.88
2.547,-5.993,-6.2245,0.208,-0.15272,-0.043982,-15.06,0.48,12.0
2.4925,-3.4596,-6.4016,0.31948,-0.44502,0.040317,-15.0,0.48,12.18
4.7263,-4.3585,-9.4525,0.28894,-0.53054,0.027489,-14.7,0.72,12.54
3.732,-6.2926,-9.1937,0.26939,-0.21075,0.17593,-14.52,0.78,12.72
3.0101,-7.5593,-5.9793,0.21961,-0.084299,-0.068722,-14.46,0.96,12.84
2.0839,-1.6753,-5.9249,0.36896,-0.47373,0.020159,-14.34,1.26,13.2
5.0531,-1.9341,-9.7385,0.22969,-0.3882,-0.084299,-14.22,1.32,13.56
6.8374,-5.7205,-9.6432,0.065668,-0.20495,-0.20036,-14.22,1.38,13.8
2.5879,-5.5299,-5.8704,0.035736,-0.29596,-0.15669,-14.1,1.56,14.1
3.4732,-2.7377,-7.1915,0.091324,-0.37874,-0.15852,-14.1,1.86,14.28
5.1621,-4.9578,-8.431,-0.0094684,-0.32101,-0.23946,-14.04,2.04,14.64
4.1951,-6.0747,-7.8317,-0.14539,-0.19639,-0.27947,-13.74,2.22,15.06
2.5061,-4.8761,-6.5105,-0.039401,-0.23671,-0.23243,-13.56,2.22,15.36
2.833,-4.1814,-7.355,-0.010385,-0.20036,-0.25229,-13.5,2.34,15.72
3.3097,-4.9169,-8.0496,-0.016188,-0.23488,-0.25992,-13.5,2.34,16.02
1.4574,-3.4459,-6.2517,0.1967,-0.22419,-0.15455,-13.5,2.34,16.2
3.0918,-2.3836,-8.3357,0.18143,-0.000916,-0.1744,-13.38,2.22,16.44
4.9306,-4.8625,-8.2948,0.10965,0.031765,-0.23182,-13.26,2.16,16.74
4.2904,-5.2302,-7.7364,-0.08491,-0.0079412,-0.30971,-13.2,2.04,16.86
3.0237,-5.598,-7.0962,-0.14172,-0.036346,-0.34392,-13.08,2.04,16.86
2.2882,-4.5764,-7.2869,-0.16371,-0.059559,-0.43738,-13.08,2.04,16.98
4.5356,-4.0861,-8.8941,-0.12981,-0.10843,-0.46731,-13.14,1.5,17.4
3.4732,-3.3642,-7.8045,0.0281,0.030543,-0.42455,-13.02,1.32,17.22
3.9227,-3.2144,-7.1643,-0.049786,0.12859,-0.49755,-13.08,0.9,17.52
4.413,-2.7377,-7.4231,0.090408,0.07025,-0.45968,-13.14,0.72,17.4
4.5764,-4.0589,-8.6625,-0.0018326,0.072998,-0.47709,-13.08,0.6,17.28
3.2553,-6.9328,-7.8317,-0.075442,0.15608,-0.5171,-13.02,0.42,17.4
4.3585,-2.6832,-7.8317,-0.18234,0.1124,-0.759,-13.2,0.12,17.52
4.7399,-5.3528,-9.8611,-0.14478,0.039095,-0.63988,-13.32,-0.12,17.34
3.4323,-1.6344,-6.5378,-0.024129,0.1631,-0.54734,-13.38,-0.6,17.28
5.5162,-3.3506,-9.4389,0.054672,0.25779,-0.53451,-13.56,-0.84,17.16
4.8897,-6.3743,-9.7385,0.033598,0.14875,-0.50824,-13.56,-1.32,17.22
2.1248,-5.5843,-6.1564,0.11576,0.33506,-0.44257,-13.62,-1.56,17.22
4.0452,-3.909,-7.7636,0.089797,0.14722,-0.49908,-13.62,-1.98,16.92
5.3937,-4.6037,-9.2755,-0.0045815,0.16768,-0.66004,-13.62,-2.34,17.1
2.4925,-3.5413,-5.5435,0.091935,0.20769,-0.59193,-13.86,-2.88,16.68
2.4925,-3.5413,-5.5435,0.20953,0.2584,-0.43799,-13.86,-2.88,16.68
4.2495,-3.8273,-7.5865,-0.019548,0.19792,-0.53023,-13.8,-3.54,16.74
4.2495,-3.8273,-7.5865,-0.053451,0.22266,-0.57788,-13.8,-3.54,16.74
3.7047,-4.9033,-6.8919,-0.17715,0.21533,-0.69394,-13.86,-4.26,16.26
3.6366,-3.8273,-7.1915,-0.12462,0.2923,-0.53817,-13.92,-4.62,16.02
6.456,-4.9169,-9.7113,-0.13042,0.3204,-0.60812,-14.1,-5.4,15.6
2.3291,-2.0431,-6.3743,-0.15485,0.28008,-0.61881,-14.04,-5.64,15.42
6.8647,-4.0452,-9.8066,-0.059254,0.13592,-0.40561,-13.98,-6.0,15.24
2.8194,-2.4925,-6.4152,0.043677,0.16005,-0.30299,-14.04,-6.18,14.94
5.6116,-4.9987,-7.8453,-0.037263,0.30329,-0.48289,-14.16,-6.9,14.52
4.413,-3.4459,-6.8919,0.025351,0.16249,-0.46181,-14.16,-7.26,14.22
3.8001,-3.0101,-7.5321,-0.032987,-0.057727,-0.48839,-14.22,-7.5,13.62
6.0611,-3.6775,-9.5342,0.13134,0.0012217,-0.27275,-14.16,-7.74,13.38
4.7671,-3.2961,-8.2948,0.073304,0.0067195,-0.34789,-14.22,-8.04,13.2
3.0782,-1.4165,-6.8919,0.24068,0.030543,-0.2135,-14.46,-8.22,12.96
6.9872,-4.0316,-9.9837,0.045815,-0.12339,-0.21961,-14.4,-8.52,12.6
5.0531,-4.8352,-6.8647,0.058338,0.10568,-0.24893,-14.4,-8.52,12.36
4.0044,-2.2882,-7.3822,0.16768,-0.023518,-0.21197,-14.46,-8.7,12.3
6.7966,-4.3858,-9.4117,0.076969,-0.18692,-0.14478,-14.22,-8.94,12.06
6.1836,-3.8954,-8.2812,0.073915,-0.098044,-0.25168,-14.22,-8.94,12.06
3.9227,-2.438,-6.5378,0.1741,-0.13683,-0.13164,-14.22,-9.06,12.06
3.7047,-3.0918,-7.7364,0.21594,-0.09896,-0.0051924,-13.92,-8.94,11.82
6.5105,-4.6582,-9.5479,0.19395,-0.094073,-0.040623,-13.74,-9.06,11.82
2.7104,-4.8897,-6.7012,0.3769,-0.051924,0.09163,-13.44,-9.12,11.94
2.7649,-2.3018,-7.3414,0.54031,-0.16188,-0.0036652,-13.38,-9.0,11.88
3.0646,-1.9068,-8.2539,0.57941,-0.18845,0.22755,-13.14,-8.94,11.76
6.6195,-5.4073,-8.5808,0.5116,0.14722,0.23335,-12.96,-8.64,11.64
3.514,-4.7944,-6.3062,0.52565,0.33231,0.27428,-12.96,-8.46,11.76
2.2746,-3.4732,-6.9872,0.55344,0.019853,0.29688,-12.9,-8.28,11.88
5.3119,-4.0861,-7.7636,0.33689,-0.043677,0.21747,-12.78,-7.68,12.0
4.3721,-4.2223,-8.2267,0.27978,-0.076969,0.32254,-12.84,-7.38,12.06
4.3177,-5.203,-7.3414,0.21808,-0.081551,0.3204,-12.72,-7.02,12.0
3.337,-4.8488,-7.5321,0.23579,-0.0048869,0.15791,-12.78,-6.72,12.06
5.1485,-3.7728,-8.5672,0.21014,-0.11209,0.28986,-12.9,-6.06,12.3
3.4868,-3.5413,-7.6683,0.24129,-0.038179,0.40439,-12.9,-5.64,12.36
4.7671,-6.5786,-8.2948,0.026267,0.058338,0.33903,-12.9,-5.16,12.36
2.6015,-1.6208,-7.0281,0.20739,-0.21808,0.25168,-12.72,-4.56,12.3
4.6582,-2.0022,-9.7522,-0.013439,-0.17226,0.28283,-12.9,-4.08,12.48
6.7966,-8.3765,-9.0848,-0.2868,0.10843,0.16402,-12.78,-3.72,12.48
2.1112,-2.9011,-7.4095,-0.019548,-0.09163,0.053451,-12.84,-3.18,12.6
4.5356,-1.7298,-8.1586,-0.091019,-0.25351,0.019853,-12.72,-3.06,12.6
4.7399,-3.6366,-9.6704,-0.20281,-0.074526,0.21136,-12.66,-2.82,12.78
3.0237,-5.2166,-6.674,-0.25351,0.0036652,0.27092,-12.6,-2.28,12.84
3.9908,-3.4187,-6.8647,-0.1408,-0.13928,0.22602,-12.54,-2.16,12.84
5.203,-4.413,-8.4174,-0.24648,-0.068722,0.12034,-12.48,-1.98,12.96
3.0782,-3.3778,-5.8431,-0.13806,-0.32895,0.18906,-12.3,-1.8,13.32
3.4459,-1.975,-6.8238,0.051618,-0.28222,0.27367,-12.36,-1.74,13.5
4.8761,-5.884,-7.5048,-0.073609,0.048258,0.11484,-12.42,-1.62,13.62
4.0725,-4.7399,-7.0281,-0.13134,-0.19395,0.051924,-12.72,-1.5,14.04
2.9965,-3.1327,-5.8567,-0.028405,-0.28039,0.11637,-12.66,-1.44,14.04
4.1133,-5.094,-7.8862,-0.044593,-0.018937,0.064752,-12.72,-1.32,14.22
3.0237,-5.1213,-6.9191,-0.086743,0.014966,0.095295,-12.48,-1.2,14.46
4.1951,-4.0452,-7.7364,0.0076358,0.040623,0.062308,-12.6,-1.14,14.64
4.6037,-5.6524,-8.1586,-0.021991,0.069333,0.027184,-12.6,-1.02,14.7
3.2553,-3.7728,-6.674,0.002138,0.11912,0.03207,-12.6,-0.96,14.94
3.5413,-3.7592,-7.0145,0.073609,0.13439,0.078802,-12.72,-0.78,15.12
4.4675,-4.7399,-7.6274,0.060781,0.28161,0.014355,-12.84,-0.66,15.06
3.9227,-5.9793,-7.9951,-0.087354,0.21014,-0.025656,-13.14,-0.6,14.88
2.5334,-6.7693,-6.674,-0.093157,0.34636,-0.034208,-13.2,-0.54,14.82
3.2553,-4.3858,-8.0632,0.013744,0.25473,-0.10507,-13.32,-0.6,14.7
4.0452,-4.7944,-7.5048,0.03879,0.37782,-0.040928,-13.32,-0.36,14.58
5.7614,-4.985,-8.6762,-0.039401,0.54092,-0.18784,-13.5,-0.36,14.52
4.4675,-5.0259,-7.4912,-0.0030543,0.32865,-0.082161,-13.74,-0.36,14.34
3.0918,-3.2008,-6.8647,0.10354,0.4496,0.05284,-14.28,-0.36,14.04
5.9249,-6.7693,-7.8589,-0.13256,0.74342,-0.18906,-14.52,-0.24,13.86
4.5628,-5.1076,-6.851,-0.15455,0.46792,-0.13714,-14.76,-0.42,13.56
4.1814,-4.2904,-6.4424,-0.13439,0.55741,-0.14875,-15.3,-0.54,13.02
5.3119,-4.413,-8.0769,-0.12859,0.60873,-0.16127,-15.48,-0.6,12.66
5.6388,-4.8352,-8.431,-0.18845,0.51588,-0.13073,-15.6,-0.72,12.54
3.9499,-3.8954,-7.246,-0.14539,0.47342,-0.067195,-15.78,-0.6,12.18
4.8625,-5.2983,-8.4719,-0.20433,0.47312,-0.11851,-16.32,-0.78,11.76
4.4675,-4.8216,-8.3629,-0.27886,0.44227,-0.066584,-16.56,-0.96,11.46
3.7047,-2.5879,-7.4231,-0.16982,0.52809,-0.10018,-17.04,-1.08,11.28
5.5707,-5.4345,-7.6002,-0.30238,0.51129,-0.1744,-17.7,-1.44,10.8
5.1757,-3.514,-7.1234,-0.27367,0.39034,-0.2813,-18.0,-1.68,10.44
5.0668,-3.9227,-6.96,-0.20556,0.43555,-0.27,-18.24,-1.86,10.14
5.3119,-4.1133,-7.2188,-0.3149,0.36438,-0.4047,-18.66,-2.4,9.6
5.5707,-3.732,-7.1507,-0.25351,0.41447,-0.44593,-18.96,-2.7,9.24
5.8295,-5.1757,-6.279,-0.20036,0.50641,-0.45509,-19.14,-2.94,9.0
6.1019,-3.6911,-7.1507,-0.31857,0.20892,-0.50885,-19.68,-3.6,8.46
6.2517,-3.8682,-6.7693,-0.25107,0.20708,-0.42425,-19.8,-3.9,7.92
5.1349,-2.7649,-6.5786,-0.2645,0.22388,-0.38485,-20.04,-4.2,7.68
7.3141,-3.8409,-7.6955,-0.28588,0.3146,-0.23518,-20.34,-4.74,6.96
6.1836,-3.2144,-7.3141,-0.30635,0.25015,-0.17929,-20.52,-5.04,6.6
5.4345,-2.7649,-7.355,-0.27153,0.10599,-0.15516,-20.52,-5.28,6.12
6.4969,-4.0316,-8.1995,-0.13897,0.17043,-0.029932,-20.52,-5.94,5.16
9.0303,-5.5435,-9.0167,-0.34361,-0.1292,-0.17807,-20.46,-6.36,4.74
5.2438,-1.975,-6.565,-0.19334,-0.10965,-0.197,-20.52,-6.6,4.32
4.304,-0.69464,-7.1234,0.13073,0.0076358,0.069639,-20.64,-6.9,4.02
8.1995,-3.9771,-9.0167,-0.055894,-0.015577,-0.029322,-20.94,-7.26,3.54
5.6388,-2.9284,-7.246,-0.15821,-0.24709,-0.044593,-21.18,-7.44,3.36
4.3721,-1.4165,-6.6876,-0.07422,-0.22846,0.04612,-21.12,-7.56,3.06
8.5944,-5.2575,-9.0984,-0.0051924,-0.19792,0.14478,-21.24,-7.62,3.06
7.9134,-5.3937,-8.4038,-0.21625,-0.30024,0.0045815,-21.24,-7.68,3.0
3.3097,-1.7434,-6.5105,-0.03879,-0.41783,0.0281,-21.18,-7.68,2.88
6.9191,-3.1735,-8.0905,0.17104,-0.22113,0.14905,-21.0,-7.8,2.88
9.1665,-5.3664,-8.7443,0.058032,-0.21502,0.13744,-21.06,-7.8,3.0
2.7377,-0.96704,-5.489,-0.012523,-0.41539,0.10018,-20.94,-7.68,3.18
4.5083,-2.7104,-6.7966,0.20983,-0.2416,0.39492,-21.0,-7.44,3.6
8.5672,-4.8897,-8.9622,-0.026878,-0.30665,0.23854,-20.88,-7.38,3.84
6.2926,-3.514,-7.8317,0.0045815,-0.44471,0.2529,-20.76,-7.26,3.96
3.9908,-2.7104,-7.4776,0.10476,-0.39615,0.36866,-20.28,-7.14,4.38
6.3743,-4.2495,-8.5808,0.11881,-0.33109,0.3656,-20.1,-7.08,4.62
4.9578,-3.3234,-7.0009,0.047953,-0.39095,0.22052,-19.86,-6.78,5.1
3.8954,-3.1735,-6.9055,0.09163,-0.45693,0.25381,-19.86,-6.66,5.34
4.1678,-2.833,-6.6331,0.20892,-0.36438,0.24038,-19.8,-6.6,5.46
6.96,-5.1621,-8.6081,0.025962,-0.42302,0.11759,-19.62,-6.48,5.76
3.514,-3.1599,-6.6876,-0.079718,-0.60598,0.0024435,-19.44,-6.06,6.06
4.4539,-2.7649,-6.9191,0.073304,-0.50457,0.085827,-19.26,-6.0,6.42
6.7148,-6.1019,-8.4038,-0.074526,-0.35675,0.15394,-19.2,-6.0,6.72
3.9908,-2.833,-6.1836,-0.11179,-0.44166,0.11698,-18.9,-5.7,7.44
5.598,-2.5061,-7.1915,0.1689,-0.26359,0.14844,-18.84,-5.64,7.74
6.0611,-5.38,-7.8589,0.026573,-0.29749,0.086743,-18.54,-5.58,7.98
4.2087,-3.732,-6.2245,0.1069,-0.44166,0.086437,-18.36,-5.46,8.22
5.4345,-5.7478,-8.6353,0.014355,-0.45784,0.038485,-18.3,-5.16,8.76
3.1191,-4.2359,-6.3743,0.13286,-0.37935,0.12706,-18.18,-5.1,9.0
5.38,-3.6366,-6.1292,0.23305,-0.18876,0.13164,-17.82,-5.04,9.72
5.5571,-5.884,-8.0769,0.31368,-0.052229,0.040012,-17.64,-4.8,10.2
5.8976,-5.6252,-8.2539,0.059559,-0.34117,-0.094684,-17.46,-4.74,10.44
2.9011,-3.1599,-5.2847,0.15821,-0.23732,-0.009163,-17.4,-4.74,11.1
3.5413,-3.4187,-7.2324,0.14233,-0.14386,0.10965,-17.34,-4.56,11.28
5.9249,-5.9249,-8.4174,-0.13439,-0.0079412,-0.15088,-17.22,-4.5,11.34
2.9692,-3.2825,-6.9464,-0.087354,-0.098044,-0.011301,-17.22,-4.32,11.7
4.4675,-4.127,-8.0088,-0.091935,0.10293,0.036041,-17.22,-4.32,11.94
4.808,-4.8897,-8.3357,-0.11851,0.12034,-0.0036652,-17.16,-4.2,12.18
4.6718,-3.8273,-7.1507,-0.095906,0.16707,-0.073609,-17.22,-4.14,12.54
4.2223,-4.1678,-7.1779,0.012523,0.24068,-0.082161,-17.22,-4.08,12.72
3.9227,-4.4402,-8.7306,-0.0061087,0.15821,0.012217,-17.28,-3.96,12.78
4.4675,-5.1894,-8.2539,-0.017104,0.24343,-0.086132,-17.28,-4.14,12.72
3.1191,-3.2416,-6.8919,0.015577,0.24526,-0.052229,-17.34,-4.38,12.6
4.0861,-3.2553,-8.2539,0.13958,0.33078,-0.050091,-17.34,-4.38,12.66
4.9306,-4.6173,-8.3629,0.040623,0.26878,-0.11668,-17.46,-4.5,12.54
4.9578,-3.7592,-8.7306,-0.060476,0.16524,-0.21014,-17.46,-4.5,12.48
4.127,-3.3097,-7.9407,0.041539,0.26267,-0.14752,-17.64,-4.56,12.36
5.0259,-3.8001,-7.8998,-0.062308,0.20678,-0.13195,-17.76,-4.68,12.36
4.9306,-3.5685,-8.1858,-0.073304,0.19364,-0.11637,-17.82,-4.74,12.24
4.8761,-3.5958,-7.5729,-0.09499,0.24221,-0.12645,-17.88,-4.74,12.06
4.2495,-2.8467,-6.0202,0.011606,0.37935,-0.087659,-17.88,-4.92,11.64
4.0044,-3.0237,-5.8159,0.093768,0.44288,-0.065057,-17.88,-5.04,11.58
6.4424,-5.8295,-7.3005,-0.046731,0.45082,-0.093462,-18.06,-5.22,11.52
5.3119,-4.5764,-7.3141,-0.17929,0.20433,-0.11209,-18.36,-5.16,11.22
3.3778,-3.732,-6.4152,-0.057116,0.3036,-0.014966,-18.48,-5.28,11.1
3.3506,-4.2768,-6.5786,-0.0562,0.48319,-0.015577,-18.72,-5.4,10.98
5.6388,-5.2983,-7.5048,-0.11515,0.49847,-0.13561,-18.96,-5.58,10.68
5.2575,-5.4073,-8.4174,-0.16157,0.37874,-0.11209,-19.26,-5.7,10.44
3.8682,-3.6503,-7.5048,-0.091935,0.28283,-0.10996,-19.2,-5.76,10.38
6.2109,-4.3585,-7.7364,0.045509,0.3598,-0.14416,-19.38,-5.82,10.08
6.2517,-4.5356,-8.0769,0.061392,0.3146,-0.12431,-19.56,-5.94,9.96
4.9169,-3.337,-8.1722,0.11179,0.19914,-0.12126,-19.68,-6.12,9.84
6.0611,-3.5958,-7.4776,0.17257,0.26634,-0.17135,-19.92,-6.36,9.18
5.8159,-3.514,-7.4776,0.25443,0.18418,-0.12217,-20.04,-6.54,8.76
6.6604,-4.5356,-7.3686,0.20311,0.14478,-0.07025,-20.04,-6.42,8.4
5.993,-4.3858,-7.2188,0.10324,0.092241,-0.070555,-20.1,-6.48,8.1
6.8647,-4.9987,-8.0088,-0.064752,0.01069,-0.15424,-20.22,-6.54,7.92
6.8647,-4.9987,-8.0088,0.15821,0.12309,-0.0076358,-20.22,-6.54,7.92
3.0373,-1.3757,-5.6252,0.11637,0.26114,0.12614,-20.22,-6.42,7.62
7.8862,-5.5707,-8.2948,-0.06353,0.029016,0.010079,-20.16,-6.42,7.26
3.8001,-1.5936,-6.4152,-0.071471,-0.21197,-0.057727,-20.1,-6.42,6.9
4.6445,-4.2087,-6.96,0.07086,0.044593,0.1295,-19.98,-6.6,6.48
7.069,-4.0316,-7.6546,-0.19823,0.028711,-0.050091,-19.86,-6.78,6.06
4.7944,-4.2768,-6.674,-0.16157,-0.10904,-0.010385,-19.92,-6.66,5.82
4.4266,-3.6775,-7.641,-0.26481,-0.22785,0.028711,-19.98,-6.6,5.88
6.4288,-5.2575,-8.2539,-0.39279,-0.19395,-0.054062,-19.98,-6.42,5.94
6.2381,-4.3858,-7.2324,-0.31246,-0.21625,-0.03146,-20.1,-6.66,5.94
3.8137,-2.2201,-6.5105,-0.037263,-0.14752,0.10507,-20.22,-6.78,5.94
5.5299,-4.6173,-7.6683,-0.079718,0.028405,0.197,-20.4,-6.9,6.0
5.8023,-4.9442,-7.7364,-0.025962,0.12034,0.32987,-20.64,-6.9,5.88
4.9987,-4.9306,-7.464,-0.034208,-0.0024435,0.39645,-20.64,-6.9,5.94
3.8954,-3.4868,-7.6683,0.046731,-0.009163,0.43891,-20.76,-6.78,6.0
4.4811,-2.9148,-7.927,-0.034819,0.010079,0.40256,-20.76,-6.84,6.06
6.4424,-4.8761,-8.4038,-0.069333,0.15272,0.44868,-20.94,-6.66,6.0
5.7342,-4.0044,-8.3765,-0.15058,0.047647,0.3598,-21.0,-6.54,6.06
4.9987,-3.8818,-6.9736,-0.19761,0.051007,0.29719,-21.18,-6.48,6.12
4.8625,-3.051,-8.1041,-0.095295,0.038485,0.35339,-21.18,-6.36,6.24
7.1507,-4.1542,-8.3357,-0.050396,0.045509,0.25443,-20.94,-6.12,6.12
5.4618,-3.4868,-7.5729,-0.000305,-0.066279,0.27031,-20.94,-5.94,6.12
6.5786,-4.2768,-8.0224,-0.078802,-0.11454,0.11362,-20.88,-5.46,6.24
5.6388,-3.8954,-7.6138,-0.16952,-0.26328,0.085216,-21.06,-5.28,6.36
5.7886,-2.7241,-7.6002,-0.18234,-0.2981,0.012523,-21.12,-5.04,6.36
6.4833,-3.8137,-7.4367,-0.25015,-0.27642,-0.081245,-21.18,-4.8,6.24
4.8488,-3.228,-6.7421,-0.4609,-0.53573,-0.18357,-21.12,-4.5,6.24
4.1542,-3.3234,-6.3471,-0.27764,-0.37629,-0.05284,-21.18,-4.44,6.24
6.0066,-5.3119,-8.6353,-0.30635,-0.32376,-0.014966,-21.0,-4.32,6.3
3.5685,-3.4868,-7.0281,-0.22205,-0.54825,0.1124,-21.0,-4.44,6.3
3.7728,-1.7025,-6.9328,-0.024129,-0.39034,0.13897,-20.88,-4.44,6.42
4.1542,-2.0022,-6.6059,0.090713,-0.2529,0.083383,-20.88,-4.38,6.54
4.3177,-3.8682,-6.4833,0.014355,-0.33445,0.12187,-21.0,-4.38,7.02
2.8058,-3.2553,-6.1019,0.10324,-0.36133,0.24801,-21.0,-4.5,7.26
6.565,-6.3607,-8.9349,-0.16127,-0.37629,0.050702,-20.94,-4.56,7.5
3.3778,-3.8546,-6.5514,-0.099876,-0.42241,0.036346,-20.58,-4.68,7.86
4.6037,-3.0237,-6.9328,-0.021991,-0.19548,0.0088575,-20.52,-4.8,8.16
5.4481,-4.0997,-7.7908,-0.043677,-0.16463,-0.020464,-20.46,-4.86,8.52
3.5413,-3.1191,-6.5105,-0.077885,-0.16982,0.045815,-20.28,-4.98,9.18
4.0589,-3.3915,-7.3958,0.047037,-0.029016,0.20433,-20.16,-4.92,9.42
5.3119,-4.4811,-8.2131,-0.014661,0.031154,0.14844,-20.04,-5.04,9.78
3.6366,-2.7377,-6.0611,-0.029016,0.0012217,0.14294,-19.74,-4.8,10.44
4.1542,-2.6832,-6.7557,0.16066,0.079107,0.16249,-19.68,-4.86,10.68
6.7148,-6.279,-10.46,-0.12798,0.019853,-0.044899,-19.44,-4.86,10.74
5.7205,-4.7399,-8.2812,-0.052534,-0.16524,-0.066279,-19.38,-4.8,11.04
6.1836,-4.0725,-9.5479,0.011912,-0.0036652,-0.044899,-19.14,-4.86,11.16
6.7421,-6.2109,-10.447,-0.18448,-0.051924,-0.19517,-19.08,-4.92,11.34
4.1406,-2.7513,-6.0338,-0.041233,-0.12217,-0.14264,-18.96,-5.04,11.7
6.4833,-5.1076,-8.3765,0.071777,0.11729,-0.12309,-18.84,-5.1,11.7
6.279,-6.2245,-9.2891,-0.15333,-0.093462,-0.15333,-18.78,-5.22,11.7
4.2632,-2.5606,-6.1292,0.097128,-0.020769,-0.097433,-18.78,-5.04,11.88
4.3994,-0.85808,-5.4073,0.29138,0.071166,-0.026878,-18.66,-5.04,11.88
8.2403,-6.1836,-9.9429,0.13561,0.14386,-0.12431,-18.48,-5.04,11.88
4.3449,-4.8216,-6.5786,-0.026573,-0.14997,-0.13103,-18.54,-5.1,11.88
6.8374,-1.4574,-7.8317,0.069944,-0.091324,-0.18082,-18.54,-5.1,11.82
7.3822,-6.9872,-9.1937,0.017104,-0.016493,-0.34056,-18.72,-5.04,11.94
4.9306,-5.3664,-7.7364,-0.13439,-0.28161,-0.30329,-18.66,-5.28,11.88
4.985,-4.7126,-8.036,0.18357,0.043982,-0.29169,-18.66,-5.16,11.94
6.0202,-6.1564,-8.9894,-0.067501,0.02138,-0.35613,-18.66,-5.16,11.88
3.4732,-2.547,-8.2403,0.12217,0.028711,-0.26512,-18.66,-5.22,12.06
5.7478,-5.993,-8.5808,0.016188,0.067806,-0.30696,-18.72,-5.22,12.06
5.7886,-6.1019,-8.9894,-0.099571,0.0097738,-0.35552,-18.72,-5.28,12.12
1.8387,-2.5742,-4.5764,-0.14172,0.07086,-0.5226,-18.84,-5.46,11.76
4.9714,-2.5606,-8.3493,0.22755,0.52901,-0.23518,-19.02,-5.82,11.7
12.286,-8.54,-10.828,-0.33017,0.088881,-0.52779,-19.2,-6.0,11.64
2.5606,-2.5742,-6.5105,-0.30757,-0.34667,-0.34636,-19.14,-6.18,11.52
4.8625,-2.2882,-8.3765,0.04215,0.13011,-0.32773,-19.2,-6.42,11.52
7.5593,-4.9578,-8.7987,-0.15821,0.16188,-0.3427,-19.14,-6.78,11.34
6.8647,-3.2961,-7.0553,-0.14233,0.18173,-0.54489,-19.2,-6.84,11.1
4.7944,-4.4266,-7.1507,0.0097738,0.063835,-0.31521,-19.2,-7.14,10.74
5.7342,-3.5549,-7.9951,-0.041844,-0.036652,-0.27214,-19.32,-7.32,10.5
7.2188,-3.6094,-6.6331,-0.026573,0.03543,-0.3598,-19.38,-7.44,10.14
5.6388,-4.018,-8.6353,0.037874,-0.11668,-0.25076,-19.26,-7.92,9.84
5.8704,-4.8216,-8.2539,-0.17837,0.054978,-0.37751,-19.32,-8.22,9.78
2.7922,-2.9148,-5.3528,-0.097738,0.14233,-0.29596,-19.08,-8.4,9.9
3.051,-2.6968,-6.4288,-0.05284,0.14203,-0.062003,-18.9,-8.58,9.84
6.3607,-4.1678,-7.9407,-0.034514,0.02138,-0.042455,-18.72,-9.06,9.48
4.7535,-2.9965,-6.9872,0.1295,0.060781,-0.054672,-18.6,-9.3,9.48
4.5492,-4.2632,-8.3493,0.28833,0.13897,0.058643,-18.42,-9.78,9.18
3.7047,-3.4187,-5.9385,0.3427,0.21197,0.020159,-18.36,-9.72,9.18
5.8023,-5.1757,-9.0712,0.32009,0.13103,0.11912,-18.3,-9.72,9.12
4.2223,-4.0316,-7.4503,0.23335,-0.017715,0.18448,-18.24,-9.84,8.94
2.7786,-0.89894,-7.1507,0.39859,0.044288,0.15821,-18.3,-9.78,9.0
7.1507,-5.0259,-8.8668,0.30665,0.06689,0.38301,-18.3,-9.84,9.0
4.6173,-2.5198,-8.6081,0.1292,-0.1014,0.24923,-18.3,-9.72,8.94
2.6015,-1.9341,-7.1371,0.33659,-0.036041,0.36652,-18.36,-9.66,8.94
5.9385,-3.8273,-9.507,0.12706,0.16066,0.38118,-18.6,-9.6,8.94
6.4697,-3.4732,-8.9349,0.15669,0.12981,0.37629,-18.78,-9.6,8.82
4.5356,-1.9613,-7.5321,0.16799,0.054672,0.45418,-18.84,-9.3,8.7
6.3062,-5.5571,-9.3844,0.076053,0.12675,0.6072,-19.2,-8.7,8.64
5.4073,-2.5742,-7.9815,0.049175,-0.051313,0.47434,-19.44,-8.22,8.58
6.1292,-6.3743,-9.3844,0.20159,0.0051924,0.57666,-19.62,-8.04,8.46
4.2495,-4.4266,-7.9815,-0.043677,-0.046426,0.53756,-19.8,-7.56,8.46
3.0782,-1.58,-6.8647,0.13775,-0.18448,0.45845,-19.74,-7.32,8.76
5.2711,-3.4596,-7.1234,0.080329,0.14447,0.37324,-19.92,-7.08,8.64
5.3119,-4.5764,-6.565,-0.065057,-0.13806,0.31796,-19.98,-6.6,8.7
4.6445,-4.1951,-5.3392,0.054672,-0.17135,0.21319,-19.92,-6.36,8.76
4.3994,-4.9578,-8.3084,-0.1347,-0.35186,0.17776,-19.98,-5.76,8.94
4.699,-4.5628,-7.1371,-0.2025,-0.36041,0.090408,-20.04,-5.52,8.88
4.1951,-4.2632,-7.0281,-0.11332,-0.22907,0.17226,-20.04,-5.16,8.88
4.8488,-5.4073,-8.8941,-0.036652,-0.15119,0.30299,-19.92,-4.68,9.24
5.2575,-5.2575,-7.8045,-0.11698,-0.069639,0.20403,-19.92,-4.56,9.3
3.2144,-3.7047,-7.0826,0.037874,-0.15699,0.33201,-19.68,-4.14,9.6
5.094,-4.7535,-7.7772,-0.013439,0.049175,0.32345,-19.74,-3.96,9.72
3.7184,-3.7047,-6.7829,-0.010385,-0.0012217,0.34972,-19.62,-3.9,9.78
3.8682,-3.623,-7.246,0.082467,-0.016799,0.44807,-19.62,-3.72,9.78
4.6718,-5.8159,-7.6683,-0.0088575,0.13164,0.3708,-19.44,-3.3,10.08
5.5571,-5.8159,-8.7715,-0.25015,0.020769,0.197,-19.38,-3.0,10.14
3.7456,-3.7047,-6.7012,-0.18479,-0.10171,0.19639,-19.38,-2.88,10.32
4.9306,-2.3836,-7.8045,-0.12584,0.058643,0.23824,-19.44,-2.58,10.5
5.7886,-5.9657,-8.8124,-0.073304,0.14203,0.18509,-19.44,-2.4,10.56
5.5299,-6.6331,-9.0848,-0.27153,0.10599,0.23335,-19.38,-2.28,10.62
6.1292,-2.942,-8.7034,-0.06017,-0.068722,0.1518,-19.26,-2.22,10.92
5.598,-5.0531,-7.7364,-0.032376,0.098349,0.19395,-19.32,-2.16,11.04
4.7126,-3.7728,-8.1313,-0.072082,-0.04215,0.17074,-19.32,-2.16,11.16
4.9033,-5.094,-7.4503,-0.09163,-0.036041,0.034208,-19.2,-2.1,11.34
5.2847,-5.0531,-8.322,-0.33506,-0.15974,-0.079718,-19.08,-2.1,11.46
4.4811,-3.8682,-7.8181,-0.27855,-0.13042,-0.03207,-18.96,-2.04,11.46
6.7421,-4.5356,-8.1041,-0.1576,-0.062614,-0.22113,-18.9,-2.16,11.52
4.0861,-4.9714,-7.4231,-0.18051,-0.23732,-0.021991,-18.96,-2.4,11.52
5.2847,-4.1406,-7.8181,-0.29871,-0.21441,-0.25351,-18.84,-2.46,11.52
5.8023,-1.9068,-6.4016,0.021991,-0.051618,-0.18479,-18.78,-2.82,11.58
7.1643,-5.3528,-8.2403,-0.13347,-0.039095,-0.25107,-18.72,-2.88,11.76
5.1485,-4.7535,-7.0281,-0.13256,-0.1573,-0.25412,-18.72,-2.94,11.88
4.9306,-2.2746,-7.0281,-0.17074,-0.23549,-0.29993,-18.72,-3.06,12.0
6.6059,-4.2087,-7.2733,-0.14019,-0.051313,-0.39798,-18.48,-3.18,12.06
5.1621,-5.8295,-7.1643,-0.28436,-0.11637,-0.35888,-18.6,-3.24,12.12
4.127,-3.4051,-7.1643,-0.2364,-0.11362,-0.4102,-18.42,-3.6,12.18
5.884,-5.0531,-7.5457,-0.29535,-0.081245,-0.48442,-18.42,-3.72,12.36
5.6388,-4.0589,-6.7012,-0.21838,-0.0281,-0.42822,-18.48,-3.96,12.48
4.6445,-4.2904,-7.0417,-0.10721,0.0024435,-0.35003,-18.54,-4.26,12.48
3.4732,-4.304,-7.1915,-0.18051,-0.031154,-0.38882,-18.3,-4.74,12.84
5.2302,-4.1678,-7.8998,-0.13775,0.073609,-0.5171,-18.3,-4.8,12.78
4.9306,-4.2495,-6.9872,0.010079,0.078496,-0.46731,-18.06,-5.16,12.84
5.1485,-3.4187,-7.75,0.059559,0.17226,-0.48411,-18.06,-5.46,12.84
4.7399,-3.7184,-7.246,0.073915,0.087048,-0.3711,-17.94,-5.64,12.96
5.6116,-4.522,-8.4582,-0.018326,0.012828,-0.38576,-17.82,-6.0,12.78
4.3585,-2.7922,-6.1155,0.0064141,0.050396,-0.45784,-17.82,-6.48,12.6
4.7263,-3.2825,-6.6467,0.081551,-0.0064141,-0.44196,-17.82,-6.66,12.42
6.565,-3.3642,-6.9464,0.13836,-0.014661,-0.42761,-17.82,-6.96,12.72
5.9521,-4.2904,-7.6002,0.12706,0.0048869,-0.45112,-17.88,-7.32,12.42
4.3858,-4.0861,-7.75,-0.024435,-0.096822,-0.46242,-17.7,-7.56,12.36
4.4947,-2.9011,-7.1507,-0.12614,-0.10721,-0.44715,-17.7,-7.68,12.36
6.9191,-5.3392,-8.6489,-0.095906,-0.029627,-0.2813,-17.58,-8.04,12.24
5.094,-4.2223,-7.4367,-0.16035,-0.092546,-0.31062,-17.52,-8.22,12.3
3.7865,-1.2531,-7.2733,0.13225,0.020464,-0.25045,-17.52,-8.52,12.18
5.1213,-3.3642,-7.2733,0.22785,-0.066279,-0.10537,-17.52,-8.7,12.12
5.1213,-3.3642,-7.2733,0.14203,-0.17318,-0.26359,-17.52,-8.7,12.12
4.6582,-2.5198,-6.7557,0.29169,-0.1967,-0.18601,-17.52,-8.82,12.06
4.8761,-4.7807,-8.8668,0.2248,-0.012828,-0.19151,-17.4,-9.18,12.0
4.5356,-3.7728,-7.2596,0.22297,-0.028711,-0.26573,-17.4,-9.18,12.0
3.2144,-3.1735,-6.8102,0.28772,-0.15149,-0.11301,-17.04,-9.36,11.88
4.7671,-2.9965,-7.3141,0.20647,-0.11454,-0.077274,-16.74,-9.48,11.94
5.0531,-3.6366,-7.4776,0.28741,-0.090103,-0.019242,-16.44,-9.6,11.7
4.6718,-2.7649,-7.2188,0.35339,-0.1014,0.007025,-15.96,-9.78,11.7
3.8409,-3.2144,-7.0553,0.35003,-0.064752,0.16585,-15.6,-9.84,11.76
4.1814,-3.9771,-7.8726,0.15791,-0.061697,0.017104,-15.12,-9.84,11.7
5.1349,-5.6661,-8.5263,0.0281,-0.18295,0.1069,-15.0,-9.6,11.52
2.8467,-0.88532,-6.851,0.14386,-0.135,-0.0036652,-14.7,-9.18,11.52
5.1485,-3.8001,-7.7636,0.39095,0.018937,0.24251,-14.7,-8.94,11.7
6.4833,-4.9578,-9.2891,0.20647,0.13378,0.24251,-14.94,-8.58,12.0
5.0259,-4.9306,-7.5457,0.062614,-0.040623,0.12492,-15.3,-8.34,12.0
3.4187,-4.4402,-7.6274,-0.05681,-0.1014,0.094684,-15.36,-7.98,12.18
5.2575,-4.1678,-8.6489,-0.11606,-0.15272,0.081245,-15.72,-7.62,12.3
4.9987,-3.1599,-7.8181,-0.081551,-0.053145,-0.010385,-15.96,-7.38,12.42
4.6037,-3.6366,-7.6683,0.055894,0.034819,0.12767,-16.32,-7.2,12.36
5.7614,-4.8625,-7.641,0.050091,-0.012217,0.06017,-16.32,-7.14,12.42
3.9635,-4.018,-7.3277,0.07422,-0.13714,0.13622,-16.26,-7.08,12.24
4.6718,-4.0316,-7.4503,0.048869,-0.10018,0.10446,-16.2,-7.08,12.3
3.6366,-3.9499,-7.0009,0.0064141,-0.17623,0.036957,-16.26,-7.08,12.24
3.8546,-2.3836,-7.0145,0.082161,-0.026573,0.022907,-16.14,-6.9,12.24
4.2768,-4.7944,-7.7364,0.012523,-0.015272,0.055894,-16.08,-6.84,12.3
3.1735,-1.7025,-6.8783,0.025351,-0.15272,0.12095,-16.08,-6.78,12.36
4.9987,-2.8058,-7.4095,0.0073304,0.041844,0.037263,-16.2,-6.6,12.36
5.8976,-5.3528,-8.4174,-0.17807,0.0033598,0.036957,-16.2,-6.72,12.48
4.9033,-4.2904,-7.0417,-0.18234,-0.025656,-0.045815,-16.2,-6.6,12.54
4.7671,-6.0202,-7.6002,-0.24862,0.031765,-0.030849,-16.2,-6.72,12.6
4.018,-3.7728,-6.3743,-0.25779,0.13103,-0.080329,-16.38,-6.66,13.14
4.522,-2.2201,-5.6116,-0.069028,0.27672,-0.055589,-16.5,-6.66,13.32
6.5786,-4.2223,-8.1858,-0.053756,0.25259,-0.030238,-16.44,-6.54,13.44
4.6718,-4.4539,-9.112,-0.11026,-0.039401,0.019548,-16.74,-6.66,13.5
2.6696,-3.0918,-8.0224,0.007025,0.075747,0.038179,-16.56,-6.66,13.62
4.7126,-4.0725,-8.8668,-0.046731,0.23457,0.020769,-16.68,-6.78,13.68
4.7944,-3.1872,-6.3743,0.12523,0.32315,0.016799,-16.86,-7.02,13.68
5.5571,-3.2144,-7.1371,0.18937,0.33872,0.018631,-16.86,-7.08,13.74
5.8295,-4.0452,-8.1041,0.20892,0.23152,0.000611,-16.86,-7.2,13.68
3.3097,-2.9556,-7.0009,-0.023518,-0.012523,-0.064141,-17.1,-7.26,13.5
2.7104,-0.69464,-6.1564,0.14661,0.15577,0.043066,-17.16,-7.32,13.32
5.9385,-3.5413,-7.8317,0.056505,0.41478,0.014355,-17.28,-7.26,13.26
5.2302,-4.5764,-8.0632,-0.21655,0.098655,-0.12278,-17.4,-7.38,12.78
3.1191,-3.3642,-6.5514,-0.17685,0.14447,-0.10201,-17.58,-7.5,12.54
4.6445,-3.1191,-7.2869,-0.197,0.19761,-0.20159,-17.82,-7.5,12.42
6.9328,-4.1133,-8.4446,-0.15974,0.21961,-0.19334,-17.88,-7.44,12.12
5.1621,-3.9908,-7.4776,-0.20769,0.12645,-0.24954,-18.0,-7.5,11.94
3.8682,-2.2201,-6.96,-0.13347,0.25259,-0.208,-18.18,-7.68,11.82
6.4288,-5.2166,-7.7908,-0.16616,0.18692,-0.2584,-18.42,-7.86,11.64
4.7671,-3.1054,-6.6195,-0.15455,0.12431,-0.22083,-18.72,-7.86,11.4
6.1155,-2.7786,-7.1779,-0.048869,0.23213,-0.31215,-18.78,-7.86,11.28
5.489,-3.8682,-7.6138,-0.067195,0.049175,-0.29749,-18.84,-8.1,10.98
4.8216,-3.0782,-7.7091,-0.041539,0.12339,-0.27489,-18.9,-8.34,10.86
5.5843,-4.8216,-7.4776,-0.093462,0.1741,-0.29016,-18.78,-8.4,10.74
3.514,-1.7979,-6.279,-0.072693,0.29719,-0.27092,-18.78,-8.76,10.5
5.7342,-3.7047,-6.9328,-0.018021,0.31979,-0.2025,-18.78,-8.94,10.44
6.3471,-5.6116,-7.1234,-0.15455,0.20617,-0.3317,-18.9,-9.18,10.26
5.0259,-3.514,-6.4288,-0.012828,0.16799,-0.33506,-19.02,-9.54,10.02
4.8352,-4.4402,-7.3005,-0.057116,0.028711,-0.34392,-19.02,-9.66,9.84
4.4811,-2.2337,-7.5729,-0.05284,0.034819,-0.40959,-19.14,-9.78,9.66
5.7069,-3.3097,-7.3822,0.033598,0.16707,-0.27703,-19.08,-9.96,9.36
6.3743,-4.5356,-8.6217,-0.13408,0.071471,-0.23763,-18.9,-10.2,9.24
6.8783,-4.8625,-8.7034,-0.23152,0.060476,-0.2978,-19.08,-10.44,9.06
3.5822,-1.8115,-6.2109,-0.03879,0.20647,-0.16585,-19.08,-10.86,8.82
6.9872,-4.0997,-8.2676,0.0079412,0.20464,0.021991,-19.32,-10.86,8.76
7.3141,-4.2768,-7.6683,0.019242,0.15913,0.000305,-19.32,-11.16,8.58
3.8954,-3.6639,-6.8919,0.083383,-0.0076358,0.14416,-19.38,-11.58,8.34
4.699,-3.8954,-7.4912,0.083383,0.046426,0.15547,-19.32,-11.64,8.16
5.2575,-4.0589,-6.9872,0.15577,0.097433,0.13531,-19.32,-11.7,8.16
5.2575,-4.1542,-7.3277,0.1408,0.066279,0.16616,-19.38,-11.82,7.98
4.8897,-4.6718,-7.8045,0.13531,0.11759,0.28497,-19.38,-11.82,8.04
3.1191,-1.6481,-6.4288,0.2248,0.20892,0.26023,-19.32,-11.94,7.92
7.1507,-5.8976,-8.6762,0.2193,0.33414,0.41814,-19.32,-11.94,7.68
6.3198,-3.3642,-8.54,0.090713,0.11026,0.32834,-19.38,-11.94,7.56
4.018,-1.7843,-7.9679,0.16432,0.21747,0.41233,-19.5,-11.88,7.62
6.4152,-3.9227,-8.1858,0.077885,0.38026,0.43066,-19.8,-11.46,7.38
6.2381,-3.3506,-8.4446,-0.062308,0.20708,0.27245,-19.92,-11.4,7.2
5.8295,-4.4947,-7.5729,-0.062308,0.14661,0.39431,-19.98,-11.28,7.14
5.1757,-2.0567,-7.8998,-0.082161,0.09163,0.33414,-20.4,-10.62,6.9
6.7012,-4.0725,-8.0088,-0.03146,0.23702,0.46059,-20.58,-10.38,6.78
6.7693,-4.0044,-7.8862,-0.10324,0.19945,0.42486,-20.58,-10.26,6.6
4.8625,-3.0237,-8.7443,-0.12553,0.014355,0.51771,-20.76,-9.9,6.42
5.4618,-3.0373,-8.2539,-0.20495,-0.089186,0.32956,-21.18,-9.42,6.06
4.6309,-1.8796,-7.9951,-0.11393,-0.10782,0.40653,-21.48,-9.06,5.94
6.9191,-3.514,-8.717,-0.13653,-0.12645,0.32712,-21.54,-8.76,5.88
6.1292,-3.2825,-8.717,-0.13225,-0.36682,0.30788,-21.84,-8.16,5.64
4.9578,-2.0294,-7.8726,-0.11851,-0.47434,0.2923,-21.78,-7.86,5.46
5.4481,-2.7649,-7.7364,-0.025351,-0.46487,0.23976,-21.72,-7.62,5.34
7.6683,-4.2495,-8.2812,-0.082467,-0.58063,0.18418,-21.72,-7.44,5.52
4.7399,-3.1599,-5.7886,-0.088575,-0.63805,0.13958,-21.6,-6.84,5.82
4.1678,-2.6015,-6.4833,0.052229,-0.56261,0.31826,-21.54,-6.54,6.0
6.9328,-4.0316,-7.0962,0.011606,-0.30696,0.22571,-21.54,-6.12,6.3
6.17,-5.3528,-6.4424,-0.28161,-0.43402,0.25381,-21.12,-5.88,6.78
3.6775,-4.0725,-5.8704,-0.22083,-0.59132,0.41936,-20.94,-5.76,7.14
6.3198,-5.094,-6.96,-0.19426,-0.28955,0.28344,-20.7,-5.4,7.92
5.9657,-5.2438,-7.5729,-0.26359,-0.32712,0.18631,-20.4,-5.46,8.64
4.2087,-4.4811,-6.2245,-0.23274,-0.51221,0.13225,-20.34,-5.46,9.0
2.833,-4.1951,-7.0281,-0.14936,-0.37874,0.19242,-20.1,-5.4,9.66
4.699,-3.2961,-7.0281,0.000611,-0.12706,0.064141,-19.74,-5.34,10.2
5.884,-5.2575,-7.4776,-0.0281,-0.22388,0.000611,-19.62,-5.34,10.62
3.4732,-4.1814,-7.5457,-0.059865,-0.37538,0.080634,-19.44,-5.4,11.22
3.228,-3.5277,-7.3141,-0.029016,-0.22724,0.084605,-19.56,-5.4,11.4
5.4754,-4.127,-7.6546,0.088881,-0.03146,0.15363,-19.38,-5.34,11.7
7.3141,-6.4424,-9.3844,-0.057727,0.12095,-0.086132,-19.2,-5.46,11.88
4.413,-5.7069,-5.9793,-0.16768,-0.16677,0.022297,-19.2,-5.58,12.06
4.8352,-3.6366,-7.6683,-0.071166,-0.06017,0.074526,-18.96,-5.34,12.24
6.1292,-5.9657,-9.0439,-0.20281,0.029016,-0.087354,-18.84,-5.28,12.3
4.8352,-4.1542,-8.4582,-0.14722,-0.11179,-0.015272,-18.96,-5.28,12.42
3.5958,-2.2474,-6.2517,0.03879,0.24282,0.034208,-18.78,-5.28,12.42
3.8546,-1.9886,-7.0553,0.048869,-0.025962,0.091935,-19.08,-5.52,12.54
4.0589,-3.3097,-7.4503,0.10201,0.27947,0.099571,-19.08,-5.58,12.66
5.6524,-5.8295,-8.2676,-0.050702,0.089492,-0.014661,-18.96,-5.58,12.84
4.8625,-4.0316,-7.6002,-0.048869,0.11026,-0.075442,-19.08,-5.82,12.84
4.8216,-4.699,-7.6274,-0.075136,0.1576,-0.15913,-18.96,-5.82,12.9
3.0373,-1.7298,-6.7421,-0.043982,0.02138,-0.12889,-18.9,-6.06,12.84
7.3686,-5.7342,-8.0905,-0.11179,0.3485,-0.32254,-18.96,-6.18,12.72
3.3915,-3.4187,-6.0338,-0.055589,0.076358,-0.14203,-18.9,-6.3,12.84
3.3506,-2.8058,-7.2869,-0.054978,0.093462,-0.11698,-19.02,-6.36,12.84
7.1371,-5.2711,-8.54,-0.1631,0.23182,-0.2813,-19.14,-6.42,12.6
3.2553,-1.6753,-7.1098,-0.0073304,0.15455,-0.082772,-19.32,-6.6,12.66
6.3879,-4.2087,-7.6002,0.043982,0.47617,-0.16982,-19.38,-6.6,12.6
5.6661,-4.9033,-7.8726,-0.12401,0.16677,-0.22052,-19.32,-6.72,12.54
4.1951,-4.0589,-6.279,-0.052534,0.18173,-0.22571,-19.44,-6.72,12.24
5.2711,-4.8625,-7.355,-0.072388,0.069028,-0.27458,-19.5,-6.78,12.06
5.4209,-4.9578,-8.6353,-0.086132,-0.002138,-0.27855,-19.5,-6.78,11.82
4.0861,-4.7263,-6.96,-0.07758,0.021686,-0.41844,-19.68,-7.14,11.4
3.3506,-2.152,-6.3471,-0.0058032,0.072693,-0.47189,-19.68,-7.08,11.28
2.4108,0.27241,-5.7069,0.31979,0.31398,-0.24496,-19.74,-7.32,11.28
10.025,-6.565,-9.1665,-0.1741,0.0956,-0.45601,-19.98,-7.56,10.68
3.2008,-1.185,-5.7069,-0.0042761,-0.15272,-0.30604,-19.98,-7.68,10.38
3.2961,-2.3155,-6.5786,-0.066279,0.15119,-0.28619,-20.04,-7.86,10.26
5.884,-4.7671,-6.6331,-0.16157,0.15027,-0.24099,-19.98,-8.04,10.08
4.9578,-3.4732,-6.4833,-0.27733,0.033292,-0.4328,-20.04,-8.52,9.66
5.5162,-4.304,-7.7227,-0.26053,-0.035736,-0.24251,-20.04,-8.7,9.54
4.2087,-1.2395,-7.8453,-0.12248,-0.13439,-0.22144,-20.1,-8.82,9.42
5.38,-3.7592,-7.8998,-0.053145,-0.038485,-0.1573,-19.92,-9.24,8.88
5.7069,-3.0373,-8.8532,0.027184,-0.069944,-0.044288,-19.92,-9.54,9.0
4.9987,-2.4789,-7.7636,0.14416,-0.020464,-0.016493,-19.8,-9.6,8.88
4.7535,-3.4323,-6.5105,0.26176,0.12767,0.073609,-19.8,-9.66,8.82
6.5786,-4.2904,-8.3901,0.12798,-0.17898,0.029016,-19.92,-9.9,8.46
4.6445,-2.3427,-7.3141,0.13897,-0.21258,-0.033903,-19.8,-9.9,8.34
6.8919,-3.8137,-9.3436,0.20769,-0.096211,0.093462,-19.8,-9.78,8.4
8.1041,-5.1485,-9.6432,-0.067806,-0.13195,0.0094684,-19.62,-10.02,8.58
3.8954,-3.2144,-6.2245,-0.20617,-0.219,-0.072998,-19.62,-9.96,8.52
1.4982,-0.5993,-5.1894,0.069639,-0.22541,0.0956,-19.44,-9.84,8.52
10.665,-6.6331,-9.5342,-0.0033598,-0.035125,0.11576,-19.5,-9.66,8.34
5.8704,-2.7377,-6.7421,0.16799,-0.28253,0.10079,-19.44,-9.66,8.34
2.9829,-1.7434,-7.3277,0.30055,-0.33262,0.18265,-19.32,-9.48,8.46
9.2482,-5.8704,-9.8884,0.17868,0.086437,0.31093,-19.26,-9.24,8.64
7.5321,-4.4402,-8.2403,-0.04948,-0.24068,0.17379,-19.26,-9.18,8.76
2.3427,-1.8932,-5.9657,0.020769,-0.38973,0.34239,-19.26,-9.12,8.82
6.3062,-5.3664,-9.0848,-0.15333,-0.32193,0.3146,-19.2,-8.7,9.0
7.641,-4.9714,-9.3572,-0.25412,-0.34025,0.062003,-18.96,-8.58,9.06
1.1577,-1.2803,-6.565,-0.084299,-0.40378,0.18692,-18.78,-8.64,9.12
4.7671,-2.8603,-8.0632,0.055589,-0.18662,0.31185,-18.6,-8.52,9.3
7.3822,-4.4402,-7.0962,0.1295,0.075747,0.19884,-18.6,-8.46,9.36
6.3335,-4.8897,-6.8102,0.10568,-0.20159,0.31185,-18.54,-8.22,9.48
4.2223,-3.7592,-8.145,0.059559,-0.35827,0.31582,-18.18,-8.16,9.84
4.9033,-4.2632,-8.0088,-0.065363,-0.36957,0.15119,-18.06,-8.1,10.2
3.6366,-3.1054,-7.4367,-0.12431,-0.33659,0.081551,-18.0,-8.04,10.2
4.9306,-4.9987,-8.6217,-0.04215,-0.29352,0.091324,-17.76,-7.74,10.44
6.3879,-7.1507,-9.2074,-0.19395,-0.12065,-0.000916,-17.64,-7.32,10.68
2.261,-5.1757,-6.8783,-0.13011,-0.46365,0.044899,-17.34,-7.14,10.86
5.4073,-2.2746,-7.927,0.0956,-0.15852,0.097433,-16.98,-6.9,11.58
6.9872,-5.8567,-8.8668,0.12187,-0.27794,0.17318,-16.92,-6.84,11.88
3.4323,-2.3155,-7.5729,0.11057,-0.43066,0.17654,-16.8,-6.36,12.42
3.7456,-3.7865,-8.1177,0.17868,-0.3094,0.11362,-16.56,-6.18,12.54
3.7728,-4.0997,-8.5808,-0.03543,-0.28772,0.018021,-16.26,-5.94,12.96
4.1133,-2.3427,-5.8159,-0.0094684,-0.17287,-0.097433,-16.02,-5.64,13.56
5.2983,-3.514,-7.2869,-0.0281,-0.15669,-0.06017,-15.9,-5.58,13.8
7.4503,-6.5378,-7.0145,-0.33781,-0.48747,-0.092546,-15.6,-5.4,14.1
1.8932,-1.866,-5.993,-0.03207,-0.38362,0.1127,-15.54,-5.34,14.4
5.4754,-3.3097,-8.7034,0.002138,-0.23671,0.064446,-15.42,-5.46,14.7
5.7342,-4.7671,-8.8668,0.064446,-0.097433,0.052534,-15.3,-5.64,14.82
2.7649,-4.2223,-7.8181,0.15394,-0.15272,0.049175,-14.94,-5.76,15.18
3.6911,-4.8216,-8.4446,0.11912,-0.057727,0.043371,-14.88,-5.76,15.24
4.127,-4.0452,-8.6489,-0.043982,-0.21105,-0.085216,-14.82,-5.46,15.48
4.6173,-2.438,-6.9736,0.18723,0.078802,-0.0076358,-14.58,-5.52,15.84
5.5299,-5.4345,-8.9894,0.12523,0.041844,0.02474,-14.58,-5.46,16.26
4.4811,-5.094,-8.145,0.043982,-0.044593,0.016799,-14.52,-5.58,16.26
4.8625,-5.1349,-8.2267,0.10721,0.10812,0.016188,-14.4,-5.64,16.68
5.8295,-6.6331,-9.3572,-0.066279,0.11026,-0.13164,-14.28,-5.58,16.86
4.1951,-3.1463,-6.4152,-0.067195,-0.061392,-0.1909,-14.16,-5.52,16.92
5.9249,-5.4345,-7.9951,0.075442,0.22419,-0.26573,-14.22,-5.46,17.1
5.4754,-4.3313,-8.5808,-0.10293,0.032987,-0.27947,-14.16,-5.52,17.22
4.7126,-3.337,-6.5514,0.029016,0.15852,-0.26939,-14.1,-5.58,17.28
5.38,-3.8546,-8.6353,0.03543,0.099876,-0.14752,-14.52,-5.76,17.34
5.4209,-5.7069,-9.0439,-0.090713,0.17532,-0.15852,-14.46,-5.88,17.4
3.1463,-3.4732,-5.993,-0.000916,0.24343,-0.17501,-14.46,-6.12,17.4
6.7012,-6.3062,-10.542,-0.0024435,0.2865,-0.22633,-14.64,-6.42,17.22
4.9578,-5.0259,-8.717,-0.08094,0.24984,-0.25595,-14.76,-6.48,17.1
3.7728,-2.6696,-6.4152,0.033292,0.40897,-0.33262,-14.94,-6.66,17.04
4.6445,-4.4675,-7.0962,0.064141,0.42638,-0.27794,-15.24,-6.84,16.8
6.0883,-6.674,-8.717,-0.046426,0.47678,-0.28863,-15.54,-6.96,16.56
4.9987,-5.7614,-7.3686,-0.16646,0.26878,-0.34911,-15.66,-7.2,16.56
6.0611,-5.8976,-9.616,-0.13408,0.13561,-0.40928,-15.9,-7.62,16.26
6.1428,-5.5435,-8.8396,-0.069333,0.15577,-0.41203,-16.2,-7.56,15.9
2.7786,-0.92618,-5.7478,0.23732,0.4945,-0.40989,-16.44,-7.62,15.84
6.4152,-5.8159,-8.0632,0.1628,0.41111,-0.34117,-16.68,-7.86,15.54
3.514,-2.3155,-7.5593,0.013439,0.27519,-0.3259,-16.98,-8.1,15.3
4.6445,-3.1463,-6.9464,0.022907,0.31368,-0.36896,-17.22,-8.34,15.12
4.9578,-3.3097,-8.7306,-0.040317,0.051618,-0.25565,-17.58,-8.7,14.76
6.9191,-5.1213,-10.202,-0.26573,-0.048258,-0.34178,-17.7,-9.06,14.4
5.7342,-4.699,-7.2188,-0.1069,0.097433,-0.078496,-17.88,-9.36,14.1
6.7693,-3.9499,-9.902,-0.16096,0.15516,-0.23946,-18.06,-9.66,13.5
6.0202,-3.4187,-8.3493,0.039095,0.36316,-0.11026,-18.0,-9.9,13.2
4.2223,-0.36775,-7.3141,0.071166,0.18509,-0.16005,-18.12,-10.08,12.9
7.7364,-5.2711,-7.4367,0.093462,0.2251,0.03879,-18.3,-10.26,12.48
6.1564,-3.4187,-7.5865,0.094073,-0.10079,0.081856,-18.48,-10.44,12.24
3.8273,-1.0624,-6.6195,0.17562,-0.18448,0.062919,-18.54,-10.68,11.88
5.6388,-4.0589,-8.6898,0.084605,-0.26481,0.12248,-18.6,-10.86,11.28
4.4402,-1.2258,-8.2948,0.081245,-0.36163,0.010996,-18.54,-10.86,11.04
5.4209,-4.2223,-7.8862,0.1967,-0.13928,0.16035,-18.54,-10.68,10.68
5.5707,-4.0316,-8.4174,0.12737,-0.146,0.25381,-18.48,-10.68,10.68
5.094,-2.7241,-7.8317,0.099571,-0.47525,0.21961,-18.36,-10.26,10.86
4.3721,-3.3097,-7.6002,0.12126,-0.46517,0.24954,-18.24,-10.2,10.8
5.0804,-2.1248,-8.9894,0.12706,-0.60598,0.22907,-18.12,-10.02,10.68
5.0531,-3.6639,-7.5457,0.22907,-0.39859,0.3543,-18.12,-9.78,10.8
4.8352,-2.1384,-7.3141,0.17471,-0.35216,0.26725,-18.0,-9.3,11.1
6.9872,-4.5764,-8.4446,-0.022297,-0.35247,0.18723,-17.76,-9.0,11.22
5.4073,-4.522,-8.0632,-0.089186,-0.41936,0.19761,-17.46,-8.4,11.4
4.5628,-3.9499,-7.246,-0.22419,-0.48472,0.081551,-17.28,-8.04,11.64
3.2689,0.1362,-8.1722,-0.087354,-0.60781,0.16157,-17.04,-7.86,11.94
5.8023,-2.9284,-8.9349,-0.12187,-0.3317,0.2642,-16.8,-7.68,12.12
5.0259,-3.8682,-7.2596,-0.15363,-0.56077,0.17562,-16.26,-7.38,12.48
2.6696,-2.0975,-6.0202,0.1066,-0.60628,0.19578,-16.02,-7.14,12.72
6.5922,-3.0646,-10.215,0.30971,-0.54275,0.24923,-15.54,-6.84,13.08
5.6797,-7.1507,-7.7772,-0.20403,-0.38607,0.015882,-15.36,-6.72,13.5
0.8036,-2.6696,-4.6718,-0.053145,-0.49144,0.08491,-15.24,-6.6,13.98
4.7671,-0.5993,-7.4095,-0.091935,-0.5003,0.057421,-14.94,-6.54,14.22
4.1814,-5.0123,-7.0281,-0.4218,-0.67317,0.085521,-14.58,-6.48,14.64
6.279,-3.0918,-9.4389,-0.41478,-0.75411,-0.090713,-14.4,-6.54,15.0
1.7025,-1.9613,-5.5435,-0.25504,-0.66859,0.094379,-13.74,-6.78,15.96
8.6081,-4.3994,-11.032,-0.21625,-0.25809,-0.26206,-13.56,-6.9,16.44
3.0782,-7.9815,-4.7399,-0.40714,-0.36805,-0.50213,-13.14,-6.96,16.68
-0.35413,-3.6775,-2.4789,0.1066,-0.40531,0.029932,-12.9,-6.9,17.1
9.3163,-7.5048,-11.319,-0.0097738,-0.19884,-0.33598,-12.54,-6.84,17.94
3.6366,-7.8045,-8.3084,-0.11668,-0.34086,-0.25779,-12.42,-7.02,18.3
0.84446,-1.6889,-6.0611,0.11668,-0.41692,-0.12706,-11.64,-7.38,19.02
3.2553,-4.7126,-9.6432,0.34025,-0.16066,-0.022907,-11.4,-7.68,19.26
6.1292,-6.1428,-11.046,0.02474,0.10354,-0.28436,-11.34,-7.86,19.56
2.7104,-3.3915,-6.2517,0.20159,-0.10171,-0.10201,-11.16,-8.04,19.8
2.1793,-2.9692,-8.0224,0.26939,0.0030543,-0.11576,-10.56,-8.1,20.52
4.8488,-4.6037,-9.6841,0.097433,0.11057,-0.20678,-10.44,-8.16,20.76
4.6445,-5.38,-7.9407,0.0024435,0.17532,-0.32803,-10.38,-8.28,21.0
2.2474,-2.4653,-7.0826,0.10232,0.044899,-0.26267,-10.14,-8.1,21.0
6.0066,-4.6445,-9.8748,0.018937,0.17623,-0.35888,-10.14,-8.16,21.12
5.3119,-5.0395,-9.0575,0.072998,0.15272,-0.32865,-10.14,-8.28,21.18
3.2144,-3.732,-7.0553,0.1127,0.13134,-0.33872,-10.02,-8.28,21.24
5.203,-2.6015,-9.2482,0.10263,0.11301,-0.3598,-9.96,-8.46,21.18
5.203,-2.6015,-9.2482,0.002138,0.20678,-0.36927,-9.96,-8.46,21.18
2.9284,-3.7865,-6.2245,0.0045815,0.24893,-0.30116,-10.26,-8.34,21.0
3.1054,-3.051,-6.674,-0.061087,0.18784,-0.3094,-10.14,-8.34,21.0
5.993,-5.1213,-8.2403,-0.17135,0.12767,-0.50152,-10.02,-8.28,20.94
3.909,-4.4675,-7.3686,-0.091935,0.12798,-0.3989,-10.26,-8.46,20.64
4.1678,-3.5277,-8.1041,-0.081245,0.22266,-0.48289,-10.38,-8.7,20.34
6.0883,-4.5901,-10.311,-0.012828,0.25137,-0.41783,-10.38,-8.94,20.04
3.0918,-5.0804,-6.565,-0.25198,0.11881,-0.59804,-10.44,-9.36,19.92
2.2201,-2.9011,-7.0553,-0.014661,0.2642,-0.33781,-10.38,-9.6,19.92
5.7069,-3.3915,-8.0905,0.067806,0.33903,-0.3543,-10.44,-9.84,19.74
6.0066,-4.3449,-8.8668,0.10171,0.31551,-0.27886,-10.44,-10.08,19.68
4.9033,-5.0259,-7.7772,0.0088575,0.30543,-0.38332,-10.62,-10.26,19.38
3.7728,-3.8954,-6.7966,0.038485,0.30391,-0.3769,-10.74,-10.68,19.08
5.1894,-3.4868,-7.3005,0.052534,0.29108,-0.45357,-10.74,-10.98,18.84
6.3879,-4.2087,-8.9894,0.038179,0.24221,-0.46548,-11.16,-11.22,18.54
5.7478,-5.7069,-7.5729,0.073915,0.26848,-0.42791,-11.34,-11.64,18.3
3.0101,-3.0373,-6.6604,0.22785,0.18998,-0.30879,-11.28,-11.7,18.06
5.2438,-2.9011,-10.243,0.33384,0.047647,-0.18723,-11.64,-11.76,17.64
4.9578,-2.9011,-8.8941,0.32345,0.16829,-0.08491,-11.76,-11.94,17.46
4.5901,-2.4789,-9.3436,0.4331,0.29169,0.03879,-12.06,-11.88,17.34
4.2632,-4.522,-7.1779,0.55192,0.6127,0.23549,-12.06,-11.88,17.16
4.2223,-3.8001,-7.8317,0.54947,0.67409,-0.016799,-12.36,-11.76,17.16
6.3335,-4.1406,-7.641,0.58368,0.66096,0.022602,-12.84,-11.52,16.74
5.5707,-4.1406,-7.6274,0.52534,0.5733,0.047647,-13.08,-11.34,16.56
4.5764,-3.1463,-6.7557,0.53726,0.40775,0.087659,-13.26,-11.22,16.5
4.9714,-4.7399,-6.4833,0.38485,0.23366,0.096517,-13.56,-10.44,16.44
5.3119,-3.9499,-7.1507,0.30421,-0.017104,0.085827,-13.68,-10.14,16.38
7.3141,-5.5571,-7.6274,0.16707,-0.18845,-0.010385,-13.92,-9.6,16.14
4.6445,-5.094,-5.7886,0.063225,-0.49999,0.076358,-14.16,-9.3,16.08
5.6388,-4.9033,-7.3414,-0.16096,-0.72113,-0.016799,-14.28,-8.82,15.72
5.3528,-3.2825,-6.96,-0.17868,-0.7981,0.083689,-14.34,-8.46,15.6
3.3778,-1.3076,-10.433,-0.069333,-1.0205,0.2813,-14.4,-8.22,15.54
2.1929,-3.5685,-6.2517,0.000916,-0.46762,0.48655,-14.52,-7.74,15.54
2.3836,-2.2882,-8.7306,0.0094684,-0.3485,0.2926,-14.46,-7.56,15.48
5.0531,-4.9714,-8.0224,0.083078,-0.0094684,0.4496,-14.22,-7.38,15.54
4.5083,-3.6366,-8.9349,0.21625,-0.088881,0.45173,-14.04,-6.72,16.08
6.2245,-6.4152,-8.0905,0.051007,-0.050396,0.38454,-13.86,-6.48,16.02
2.0839,-1.9068,-9.1393,0.28069,-0.080634,0.48686,-13.8,-6.36,16.2
6.1155,-7.2596,-7.1371,-0.027794,0.080634,0.31337,-13.44,-6.18,16.44
2.9965,-4.5083,-6.8102,0.03543,-0.19761,0.23763,-13.26,-6.06,16.74
3.2144,-4.0997,-7.6002,-0.079718,-0.15241,0.18357,-13.2,-5.82,16.98
3.623,-5.094,-8.2539,-0.12675,-0.18448,0.14142,-13.14,-5.58,17.28
4.304,-4.1678,-8.1041,-0.28283,-0.19884,0.033292,-12.96,-5.4,17.46
4.3994,-3.7456,-8.2948,-0.23427,-0.20495,0.052534,-12.84,-5.28,17.64
4.0044,-4.8352,-7.3822,-0.2306,-0.15272,0.1182,-12.6,-5.04,18.0
3.3097,-3.0237,-6.0202,-0.1628,-0.19487,0.13622,-12.54,-4.92,18.3
4.9987,-4.4811,-7.4095,-0.050091,-0.000305,0.17685,-12.6,-4.74,18.54
4.5083,-7.246,-7.2596,-0.16371,-0.095295,0.21686,-12.42,-4.86,18.54
4.2904,-3.8682,-8.0905,-0.14997,-0.20831,0.078191,-12.42,-4.98,18.6
3.5685,-6.1155,-7.1915,-0.18876,-0.022297,0.12095,-12.42,-4.92,18.9
4.0589,-4.0316,-7.6955,-0.18815,-0.12889,0.000611,-12.36,-4.8,19.2
3.2144,-3.8954,-7.2733,-0.081551,-0.069944,0.036346,-12.24,-4.92,19.2
3.4732,-4.0044,-7.7227,-0.0088575,0.053145,0.0956,-12.18,-4.98,19.38
4.0316,-5.1213,-8.3493,-0.11515,0.036041,0.081245,-12.0,-5.1,19.74
2.3018,-2.8739,-6.0474,0.027184,-0.023518,0.19578,-11.94,-5.4,19.8
4.6037,-4.0044,-9.0303,-0.071166,0.16402,0.072693,-11.94,-5.34,20.1
3.4051,-3.2416,-6.4152,0.043371,0.135,0.10568,-11.94,-5.34,20.4
3.7728,-3.3506,-7.6683,0.014355,0.10751,0.071166,-11.94,-5.4,20.22
4.5628,-4.808,-8.1995,0.046426,0.29596,0.054672,-12.0,-5.34,20.16
3.3915,-5.7069,-7.5729,-0.067806,0.10537,-0.089492,-12.0,-5.22,20.4
2.6696,-3.8682,-7.3141,-0.047342,0.11576,-0.13958,-11.88,-5.28,20.52
3.4596,-4.0452,-7.4503,0.049175,0.32529,-0.044593,-11.88,-5.34,20.4
5.8023,-4.5628,-8.1586,-0.070555,0.32437,-0.24221,-12.12,-5.4,20.22
2.6832,-4.5083,-7.1507,-0.0048869,0.31704,-0.017715,-12.36,-5.4,20.22
5.1485,-4.4539,-8.0632,-0.051313,0.43646,-0.15119,-12.48,-5.4,20.1
3.3915,-4.018,-7.246,-0.047953,0.32284,0.030238,-12.48,-5.4,19.86
5.1485,-4.6445,-7.7227,-0.069944,0.52931,-0.068111,-12.66,-5.28,19.86
5.3528,-4.6854,-7.9543,-0.21289,0.37935,-0.20342,-12.78,-5.4,19.5
4.1678,-4.8625,-7.7636,-0.15791,0.36682,-0.1799,-13.02,-5.64,18.78
4.1951,-4.4947,-7.3277,-0.21105,0.29963,-0.30299,-13.2,-5.64,18.78
3.732,-5.6797,-6.6331,-0.18204,0.41478,-0.25931,-13.32,-5.88,18.54
5.7069,-6.5241,-8.826,-0.28069,0.34178,-0.38637,-13.74,-6.12,18.06
4.0316,-6.5105,-6.6876,-0.20189,0.38759,-0.21808,-13.92,-6.18,17.76
3.3234,-2.9692,-6.5241,-0.14875,0.32559,-0.44043,-14.04,-6.42,17.46
5.6388,-5.2575,-8.2676,-0.25381,0.40256,-0.31948,-14.04,-6.84,16.92
4.7807,-3.9908,-7.6819,-0.29169,0.34544,-0.26359,-14.22,-7.08,16.5
4.127,-3.0646,-7.0281,-0.26634,0.36744,-0.26237,-14.4,-7.38,16.2
5.6388,-4.8352,-7.6002,-0.28039,0.50946,-0.25015,-14.64,-7.56,16.02
6.0611,-4.1951,-7.7908,-0.4499,0.22877,-0.25717,-15.06,-8.16,15.18
4.2495,-1.5391,-8.1177,-0.35522,0.12126,-0.15455,-15.24,-8.4,14.94
8.4174,-5.8159,-8.9349,-0.50457,0.044593,-0.21808,-15.72,-8.82,14.34
2.8603,-0.40861,-7.246,-0.35491,-0.078191,-0.2248,-15.96,-9.12,13.86
5.0531,-2.4517,-8.6081,-0.29413,-0.055283,-0.11698,-16.02,-9.36,13.62
7.1234,-2.9284,-9.6704,-0.2697,0.087965,-0.015272,-16.08,-9.6,13.2
4.5083,-1.185,-7.7908,-0.13011,-0.031765,0.042455,-16.44,-10.14,12.66
7.1507,-4.4402,-9.6841,-0.11393,-0.077885,0.17532,-16.56,-10.38,12.48
7.0281,-2.7649,-7.7091,-0.197,-0.22785,0.048869,-16.86,-10.62,12.18
4.3994,-1.7298,-6.9872,-0.07086,-0.35186,-0.12339,-16.86,-10.86,12.0
3.8546,-1.1169,-7.7364,0.023213,-0.35552,0.057727,-16.8,-11.1,11.88
6.7148,-1.5255,-10.025,-0.019548,-0.44104,0.029322,-16.74,-11.16,11.7
4.7671,-2.4653,-8.0632,0.040928,-0.36835,0.19853,-16.74,-11.28,11.82
5.1213,-2.4789,-8.4719,0.039095,-0.4105,0.16829,-16.62,-11.22,11.64
3.9499,-1.9341,-7.3686,0.1744,-0.47342,0.25045,-16.44,-11.22,11.76
3.9499,-1.9341,-7.3686,0.1744,-0.47342,0.25045,-16.44,-11.22,11.76
7.5048,-7.4095,-10.937,-0.087048,-0.51985,0.12065,-16.2,-11.22,12.0
5.4481,-8.322,-6.1973,0.27031,-0.22755,0.26176,-16.02,-11.04,12.06
-1.6344,7.3141,-4.9306,0.65271,-0.42211,0.20892,-15.84,-10.8,12.6
6.1564,0.96704,-13.838,0.49572,-0.21625,0.64507,-15.72,-10.74,12.9
17.679,-14.764,-14.111,-0.31185,-0.33017,-0.33537,-15.54,-10.56,13.08
-7.1915,1.6889,-3.9771,0.3708,0.034514,1.0589,-14.94,-10.02,13.56
3.5958,-8.8805,-7.927,0.42119,-0.43891,0.67623,-14.88,-9.78,13.8
4.7807,-4.413,-7.641,0.22694,0.25076,0.37263,-14.7,-9.54,14.1
9.0167,-1.471,-12.449,0.27733,-0.46212,0.2587,-14.52,-9.36,14.52
8.4855,-4.413,-9.2891,0.47373,0.18418,0.79718,-14.22,-9.06,14.82
5.6116,-5.8976,-10.351,0.3992,0.33964,0.35797,-13.8,-8.46,15.48
5.8295,-7.4776,-6.3607,0.1967,0.21655,-0.029932,-13.62,-8.16,15.66
3.7592,-4.2223,-8.6489,0.45479,0.017715,0.60231,-13.32,-7.5,16.2
4.2359,-3.1735,-6.4152,0.30177,0.073915,0.34575,-13.14,-7.2,16.56
3.1054,-2.1248,-6.7693,0.51282,0.10537,0.66493,-12.9,-6.9,16.8
5.4618,-7.641,-8.826,0.21777,0.46701,0.32773,-12.84,-6.48,16.8
2.4789,-4.6037,-5.0123,0.094684,0.094684,0.25779,-12.66,-5.7,17.1
3.4459,-3.1463,-6.8374,0.37599,0.13531,0.44654,-12.66,-5.28,17.28
4.0044,-5.884,-7.4776,0.17746,0.023824,0.38087,-12.66,-4.92,17.4
5.3119,-4.3585,-6.2517,0.18143,0.025656,0.09163,-12.66,-4.26,17.82
5.2575,-2.6287,-6.3743,0.21105,-0.000611,0.29749,-12.6,-3.78,18.06
4.4811,-4.9033,-8.2812,-0.15974,-0.083689,0.095295,-12.78,-3.42,18.18
3.5004,-3.9908,-5.6933,-0.1686,-0.20311,0.059559,-12.84,-3.0,18.66
2.6151,-4.1406,-6.6331,-0.088881,-0.30329,0.22724,-12.9,-2.76,18.96
2.547,-5.9112,-8.0905,-0.23152,-0.10507,0.20556,-12.78,-2.7,19.2
2.3836,-5.0531,-6.6604,-0.33842,-0.069333,0.011912,-12.78,-2.22,19.62
2.1929,-3.3778,-6.4152,-0.21228,-0.15027,0.15577,-12.78,-2.16,19.74
4.127,-3.9908,-8.717,-0.20006,0.16616,-0.058032,-12.78,-2.04,20.04
3.9227,-5.5162,-7.927,-0.21655,0.1237,0.099876,-12.54,-2.1,20.28
4.2632,-5.1757,-7.5729,-0.22694,0.06689,-0.08491,-12.54,-2.1,20.52
5.8295,-4.7944,-8.431,-0.09896,0.12767,-0.03146,-12.54,-2.28,20.52
4.7671,-4.1951,-8.0088,-0.077274,0.12034,-0.068417,-12.42,-2.4,20.4
4.018,-3.514,-7.2596,-0.098044,0.095295,-0.077885,-12.48,-2.58,20.28
4.2904,-1.7025,-7.5321,0.036041,0.19761,-0.074526,-12.42,-2.7,20.16
5.8023,-6.4969,-8.0905,-0.36255,0.18021,-0.27855,-12.48,-3.12,19.8
4.3721,-3.5685,-6.9872,-0.12339,-0.013439,-0.13286,-12.54,-3.24,19.56
4.2087,-5.6661,-6.674,-0.21625,0.076358,-0.28527,-12.78,-3.48,19.08
5.0668,-2.9011,-8.6081,-0.18112,0.0045815,-0.25076,-12.84,-3.72,18.9
5.8976,-4.4402,-7.927,-0.21228,0.13561,-0.29902,-12.9,-3.9,18.6
3.6775,-4.7944,-7.6683,-0.17593,-0.007025,-0.31154,-13.2,-4.2,18.36
5.6252,-5.598,-8.9622,-0.24557,-0.072693,-0.4496,-13.32,-4.5,18.06
1.757,-2.7104,-6.0202,0.04215,-0.068111,-0.13958,-13.44,-4.74,17.82
7.1915,-3.6639,-8.6762,-0.02138,0.35094,-0.38485,-13.62,-5.22,17.58
5.9657,-8.5944,-7.3141,-0.21991,0.43555,-0.23305,-13.74,-5.34,17.4
3.4323,-6.4152,-6.6876,-0.15211,0.22388,-0.2303,-13.74,-5.52,17.22
4.699,-3.7456,-7.5048,0.015272,0.33292,-0.27489,-13.98,-6.12,16.98
6.7421,-4.7671,-8.0224,-0.05681,0.37354,-0.49297,-13.98,-6.3,16.8
5.8295,-5.2847,-7.75,-0.043371,0.44013,-0.4331,-13.98,-6.6,16.8
4.6037,-4.2632,-7.464,0.17959,0.53267,-0.36285,-14.04,-7.02,16.38
7.1507,-4.5356,-7.5865,0.10171,0.3149,-0.45876,-14.1,-7.14,16.08
4.6445,-3.0918,-6.5378,0.33323,0.1179,-0.16463,-14.22,-7.2,16.02
7.6002,-4.0589,-8.3765,0.29138,0.24435,-0.23213,-14.4,-7.44,15.72
4.9578,-5.5435,-7.464,0.10049,0.35888,-0.29841,-14.58,-7.5,15.48
4.304,-5.203,-6.4152,0.19914,0.31276,-0.30879,-14.82,-7.5,15.48
6.3879,-3.2553,-7.0962,0.14997,0.14386,-0.2193,-15.0,-7.44,15.06
7.7227,-4.6309,-7.7772,0.035125,0.11912,-0.29627,-15.06,-7.56,14.88
6.4833,-5.2438,-6.6331,0.058338,0.16554,-0.20556,-15.24,-7.44,14.64
3.3778,-3.6094,-5.5843,0.19395,0.025045,0.049786,-15.36,-7.44,14.4
6.3198,-5.2847,-6.96,0.10812,0.072693,0.02138,-15.84,-7.26,13.98
5.094,-2.9965,-6.8374,0.18692,-0.21869,0.099571,-16.02,-7.26,13.74
7.0962,-4.7671,-7.0553,-0.0064141,-0.27825,0.014355,-16.26,-7.2,13.68
3.7592,-5.8704,-5.8976,-0.21105,-0.58521,0.13378,-16.32,-7.14,13.56
4.7126,-5.1757,-7.2324,-0.21411,-0.9166,-0.0085521,-16.38,-7.08,13.5
4.7535,-3.9227,-7.0145,-0.23763,-0.97922,0.11912,-16.38,-7.08,13.38
6.8783,-4.304,-9.8066,-0.38362,-1.0336,0.0073304,-16.14,-7.14,13.44
4.0452,-5.1485,-7.3822,-0.21472,-0.62889,0.26695,-15.96,-7.2,13.38
1.0896,-2.7922,-7.2324,0.077885,-0.40928,0.30452,-15.96,-7.32,13.44
4.6037,-3.1735,-9.1393,0.044593,-0.18479,0.18754,-15.6,-7.44,13.68
4.5901,-3.1191,-8.826,0.1689,-0.20128,0.40775,-15.36,-7.5,13.92
5.2575,-5.5435,-8.1177,0.15699,0.0039706,0.4163,-15.18,-7.26,14.16
2.547,-3.8682,-6.4152,0.29322,0.044593,0.46181,-14.58,-7.02,14.58
6.5378,-5.6252,-8.4991,0.0097738,-0.016493,0.25962,-14.4,-6.9,14.7
4.0725,-4.0589,-8.2812,0.037568,-0.29688,0.36041,-14.04,-6.72,15.18
4.7399,-6.1428,-8.1586,-0.029016,-0.0039706,0.34147,-13.92,-6.48,15.42
2.2065,-3.8954,-6.1564,-0.073609,-0.037874,0.3149,-13.68,-6.48,15.48
3.1599,-3.6094,-8.4855,0.021991,-0.13256,0.32467,-13.68,-6.36,15.78
3.2416,-5.0123,-5.7069,-0.22755,-0.1292,0.14233,-13.44,-6.06,16.02
0.68102,-0.40861,-7.1234,0.062003,-0.38087,0.36346,-13.38,-5.82,16.14
4.2087,-3.0918,-7.927,-0.097433,0.13378,0.31643,-13.26,-5.64,16.32
4.7399,-8.7851,-7.246,-0.32681,-0.12584,0.30727,-13.08,-5.34,16.8
3.2144,-7.0281,-7.8998,-0.37813,-0.33506,0.23702,-13.02,-5.16,16.8
1.8932,-1.9068,-7.0962,-0.21594,-0.38485,0.23213,-12.96,-5.16,17.04
5.0395,-4.0316,-9.1937,-0.1408,0.10293,0.33109,-12.96,-5.1,17.28
4.8625,-5.2847,-7.1779,-0.074831,0.40592,0.36682,-12.78,-4.98,17.4
2.6968,-3.6094,-6.7421,0.0097738,0.028711,0.51404,-12.78,-4.92,17.58
4.8488,-6.7148,-7.5729,-0.073915,0.32651,0.36713,-12.66,-5.04,17.88
4.7399,-5.775,-7.1371,-0.084605,0.095906,0.27458,-12.66,-4.92,18.24
3.623,-3.4323,-6.674,-0.051313,-0.018021,0.27733,-12.54,-4.92,18.3
4.9033,-4.5356,-7.9407,-0.13744,0.31032,0.089492,-12.54,-4.68,18.6
4.8625,-4.6445,-7.8862,-0.12187,0.11881,0.13744,-12.48,-4.74,18.78
4.2904,-5.489,-7.355,-0.082467,0.18051,0.17501,-12.48,-4.8,18.9
5.4481,-4.3858,-9.5206,-0.14203,0.021686,0.07758,-12.66,-4.62,19.02
3.2553,-4.8625,-5.5162,0.051618,0.071471,0.085521,-12.72,-4.62,19.14
3.2416,-4.2087,-7.9134,-0.12737,0.12553,-0.000611,-12.78,-4.62,19.02
4.5083,-5.4618,-7.5729,0.045509,0.22052,0.11545,-12.72,-4.8,19.02
5.2983,-2.3427,-8.0905,-0.12675,-0.0281,-0.046731,-12.78,-4.8,19.02
4.6854,-4.5083,-7.6955,-0.059865,0.16493,0.051924,-12.72,-4.86,19.02
5.1894,-5.6797,-7.8589,-0.25412,0.054367,-0.1689,-12.72,-4.62,18.96
3.7728,-6.3743,-7.2324,-0.24709,0.061697,-0.19853,-12.72,-4.8,18.84
2.3563,-5.8295,-6.8783,-0.29047,0.03543,-0.11454,-12.66,-4.86,18.78
3.8546,-1.58,-7.6274,-0.075136,0.16585,-0.088881,-12.78,-5.1,18.66
6.8919,-4.4539,-9.1801,-0.094073,0.30452,-0.11179,-12.78,-5.4,18.6
3.5685,-5.4754,-7.0553,-0.12675,0.17868,-0.099266,-12.72,-5.46,18.48
3.0918,-3.7047,-6.9328,-0.028711,0.10507,-0.12004,-12.6,-5.82,18.48
6.2109,-6.851,-8.54,-0.05284,0.16371,-0.13653,-12.72,-6.06,18.3
3.9771,-5.5435,-7.355,-0.22052,-0.081856,-0.24496,-12.42,-6.12,18.36
3.7456,-3.8682,-7.2052,-0.21411,-0.070555,-0.27672,-12.3,-6.24,18.42
5.2438,-3.4732,-7.7772,-0.1967,0.037263,-0.31796,-12.18,-6.54,18.12
6.3607,-5.5843,-7.8998,-0.1799,0.1347,-0.3317,-11.94,-6.78,17.94
5.0123,-6.0883,-6.8102,-0.16768,0.037568,-0.2865,-11.82,-7.02,17.94
5.1621,-2.7786,-7.9679,-0.10049,-0.077885,-0.32742,-11.4,-7.38,17.52
6.9736,-4.4402,-7.927,-0.10507,-0.028405,-0.33659,-11.28,-7.62,17.52
4.8761,-4.413,-6.4697,0.051007,0.010996,-0.22022,-10.98,-7.74,17.4
4.9987,-3.4187,-7.4503,-0.014966,-0.026573,-0.3204,-10.74,-8.04,17.34
5.5162,-5.3392,-7.3686,-0.072998,-0.06689,-0.343,-10.38,-8.1,17.04
4.3858,-2.8467,-7.5729,-0.038179,-0.19731,-0.39706,-10.2,-8.22,16.74
4.7263,-4.5083,-7.641,-0.027489,-0.13744,-0.33414,-10.02,-8.1,16.5
4.7399,-4.9714,-7.6683,-0.095295,-0.16493,-0.25168,-9.66,-8.04,16.26
3.732,-1.4846,-7.6955,-0.028711,-0.30391,-0.23182,-9.54,-8.04,16.26
4.6718,-2.7377,-8.7306,-0.042455,-0.30329,-0.079107,-9.3,-7.86,16.32
4.3177,-2.6015,-7.5457,-0.036346,-0.22144,-0.096517,-9.06,-7.92,16.26
4.3721,-2.3291,-7.5048,0.0097738,-0.29016,-0.17715,-8.88,-7.8,16.08
5.3256,-4.8352,-8.4446,-0.018937,-0.2135,-0.12859,-8.76,-7.68,16.02
5.4209,-3.4459,-7.8317,0.026573,-0.21655,-0.18357,-8.64,-7.56,15.9
5.38,-4.3177,-7.6683,0.036652,-0.36163,-0.15974,-8.58,-7.38,15.96
4.4402,-4.522,-7.641,0.051924,-0.32651,-0.094073,-8.34,-7.14,15.96
3.4732,-1.4165,-6.6059,0.16738,-0.33078,0.0027489,-8.1,-7.08,16.02
5.1894,-4.7944,-7.4503,0.16157,-0.15302,0.04948,-7.92,-7.02,16.2
4.3994,-5.5707,-7.4776,0.20464,-0.12126,0.031154,-7.74,-6.96,16.26
2.7513,-3.5413,-6.6467,0.23121,-0.34117,-0.037568,-7.44,-6.96,16.44
3.8954,-2.6696,-8.54,0.23946,-0.29841,0.0033598,-7.44,-6.9,16.5
4.7671,-3.0918,-8.6762,0.17776,-0.25687,0.087659,-7.44,-6.72,16.5
3.5277,-5.5435,-7.7227,0.13653,-0.13683,0.16677,-7.44,-6.24,16.5
2.7922,-4.1542,-8.4174,0.17562,-0.24954,0.16677,-7.26,-6.06,16.5
3.9635,-3.1327,-7.7227,0.17562,-0.23702,0.146,-7.2,-5.58,16.92
4.808,-3.1599,-8.9486,0.24374,-0.12584,0.33262,-7.14,-5.46,17.04
5.6116,-5.6933,-8.1177,0.146,0.072082,0.26786,-7.08,-5.28,17.04
3.0646,-5.8159,-6.3879,0.18295,-0.031765,0.32101,-7.2,-5.16,17.1
4.699,-6.0747,-7.5048,0.0042761,-0.10171,0.13408,-7.2,-4.68,17.22
2.833,-3.3506,-6.7829,0.096517,-0.1741,0.25107,-7.2,-4.56,17.46
5.4073,-4.8625,-8.3493,-0.026573,0.0027489,0.15455,-7.32,-4.32,17.64
3.1735,-4.6309,-7.1098,-0.094073,0.0073304,0.26114,-7.26,-3.9,17.82
3.9908,-6.1292,-7.7636,-0.05284,-0.062308,0.21044,-7.26,-3.66,17.88
3.7592,-5.775,-7.2324,0.0018326,-0.064752,0.15027,-7.26,-3.6,18.0
3.8001,-2.4789,-7.9951,0.015272,-0.10629,0.14355,-7.44,-3.42,18.3
4.6854,-5.094,-8.1586,-0.025351,0.11515,0.10354,-7.62,-3.48,18.6
3.2144,-4.8352,-7.3822,-0.051007,-0.0094684,0.17837,-7.62,-3.48,18.6
4.3313,-4.9578,-7.8998,-0.13897,-0.0015272,0.10599,-7.56,-3.24,18.78
4.2904,-4.9033,-7.3822,-0.18662,0.018631,0.096822,-7.5,-3.18,18.96
4.2904,-5.0259,-7.464,-0.16249,-0.067195,0.075442,-7.56,-3.0,19.02
4.1542,-4.6173,-8.1858,-0.20067,-0.11851,-0.031765,-7.8,-2.82,19.26
3.8682,-4.3858,-8.5672,-0.18326,-0.10782,-0.0054978,-7.92,-2.94,19.2
3.2961,-3.1599,-8.1313,-0.080634,-0.1182,0.10293,-7.8,-2.88,19.32
5.1485,-5.7614,-9.1256,-0.063835,0.036957,0.17807,-8.04,-2.94,19.32
4.4811,-3.9635,-7.464,-0.047037,-0.052229,0.079412,-8.16,-3.0,19.38
3.4187,-4.0861,-7.3141,-0.037874,-0.11148,0.057727,-8.34,-3.06,19.44
3.8682,-4.3177,-7.75,0.035736,0.049786,0.063225,-8.28,-2.94,19.56
5.38,-4.4539,-8.4038,-0.086743,0.06353,-0.11729,-8.34,-2.94,19.62
3.514,-3.1191,-8.3901,0.014966,-0.090408,-0.044593,-8.52,-2.94,19.68
4.6445,-5.4345,-7.7364,-0.10232,0.025351,-0.1912,-8.58,-3.18,19.86
3.0782,-3.0646,-6.96,-0.028711,-0.12675,-0.15211,-8.76,-3.12,19.8
4.7535,-3.8818,-8.2267,-0.017104,0.095295,-0.2865,-8.82,-3.36,19.8
5.2711,-4.9987,-8.1586,-0.076053,0.0012217,-0.3036,-8.76,-3.48,19.74
4.3313,-3.7728,-7.6683,-0.066584,-0.075747,-0.3317,-8.7,-3.48,19.74
3.1599,-1.4438,-6.6059,0.036957,-0.049786,-0.27458,-8.82,-3.54,19.62
5.1621,-4.5356,-7.9951,-0.17501,0.044593,-0.29444,-8.94,-3.96,19.74
4.3449,-4.2223,-6.96,-0.17593,0.046731,-0.30513,-8.88,-4.08,19.68
2.8603,-4.3994,-6.4152,-0.19273,0.050396,-0.27153,-8.64,-4.2,19.62
5.6116,-7.5321,-8.7306,-0.3036,0.062919,-0.44288,-8.7,-4.56,19.44
3.1191,-4.1542,-5.9112,-0.19639,-0.13958,-0.45693,-8.64,-4.68,19.32
2.9829,-0.31327,-7.8317,0.033292,-0.14875,-0.34514,-8.58,-4.86,19.32
5.9112,-5.9657,-9.507,-0.0024435,0.31796,-0.3766,-8.64,-4.98,19.14
3.8273,-4.7671,-6.5378,0.025656,0.20128,-0.27122,-8.7,-5.22,19.08
2.9965,-3.7728,-6.1564,0.064446,0.12431,-0.22907,-8.7,-5.46,19.14
5.4073,-6.1973,-7.7227,-0.10385,0.14539,-0.41203,-8.88,-6.0,19.2
4.8897,-4.7399,-7.0417,-0.14783,0.086437,-0.47434,-9.06,-6.18,19.14
4.4402,-2.9829,-6.8919,-0.10629,0.092241,-0.46914,-9.06,-6.36,19.14
4.5764,-4.3858,-7.6683,-0.18143,0.14661,-0.43127,-9.06,-6.66,19.08
4.7944,-3.5277,-7.6683,-0.17104,0.10873,-0.38882,-9.12,-6.78,18.9
5.1076,-3.4187,-7.3414,-0.093462,0.096822,-0.30665,-9.36,-6.9,18.84
5.38,-4.7944,-8.2676,-0.0079412,0.058643,-0.22969,-9.48,-7.44,18.72
3.5822,-2.5606,-7.4503,0.054062,0.045204,-0.18448,-9.66,-7.68,18.6
4.1406,-3.732,-8.2812,0.1124,0.088575,-0.15424,-9.78,-7.8,18.6
4.5083,-3.623,-7.5593,0.054367,0.015272,-0.21136,-9.78,-8.22,18.42
3.4596,-2.6151,-8.54,-0.053451,-0.13531,-0.2416,-9.78,-8.34,18.3
5.4481,-4.1406,-8.6081,-0.036652,0.020769,-0.23976,-9.72,-8.28,18.18
4.6037,-2.7649,-7.246,0.0051924,0.018326,-0.16554,-9.66,-8.58,17.94
5.7205,-3.1872,-8.1586,-0.030543,-0.11545,-0.12523,-9.6,-8.76,17.88
5.489,-2.6696,-8.3629,0.09163,-0.15577,-0.034208,-9.72,-9.0,17.82
4.9169,-3.7184,-7.4776,0.047342,-0.18723,-0.042455,-9.72,-9.06,17.58
3.4732,-2.1248,-7.8317,0.24862,-0.14325,-0.022297,-9.72,-9.06,17.64
4.7944,-3.5822,-8.5127,0.17898,-0.18509,-0.072388,-9.54,-9.0,17.58
5.8567,-4.3177,-8.6625,0.1179,-0.15699,-0.06689,-9.66,-9.0,17.52
2.8603,-2.2746,-6.4697,0.19639,-0.2022,-0.096211,-9.36,-8.94,17.52
3.3097,-3.4868,-7.6002,0.21075,-0.2025,0.097433,-9.3,-8.94,17.52
6.5105,-4.4539,-9.4934,0.14355,-0.16677,0.040928,-9.3,-9.0,17.4
4.2359,-4.4266,-7.3277,0.12981,-0.39218,0.0033598,-9.12,-8.88,17.28
1.6481,-2.3427,-6.9736,0.27,-0.23518,0.12553,-9.06,-8.82,17.46
3.2553,-1.3076,-8.0088,0.281,-0.23427,0.13592,-8.88,-8.7,17.4
6.1292,-5.6524,-8.5808,0.15211,-0.13836,0.2306,-8.82,-8.28,17.64
3.8273,-5.5162,-7.4367,0.17318,-0.036652,0.30207,-8.58,-8.1,17.64
3.9908,-5.38,-7.2869,0.14752,-0.21991,0.16616,-8.58,-7.98,17.7
4.3177,-2.4789,-8.4582,0.20495,-0.32406,0.13134,-8.58,-7.62,17.88
6.3743,-4.3177,-9.6023,0.13867,-0.2416,0.0281,-8.58,-7.5,18.12
3.6094,-4.3858,-6.9191,0.20159,-0.1689,0.20159,-8.52,-7.32,18.3
3.8137,-4.5356,-7.9815,0.093157,-0.075747,0.15149,-8.28,-6.9,18.78
4.8488,-5.2847,-8.2676,0.047953,-0.11545,0.13592,-8.16,-6.72,18.78
5.0259,-5.2302,-7.1915,-0.040928,-0.23579,0.046426,-8.16,-6.48,18.84
3.0101,-4.2768,-7.2869,-0.058338,-0.10018,0.036652,-8.1,-6.3,19.32
4.0316,-4.127,-7.5729,-0.09896,-0.052534,0.016188,-8.04,-6.3,19.5
4.5492,-3.3915,-7.7636,-0.075136,-0.14508,-0.0097738,-7.92,-6.18,19.74
2.2882,-4.304,-7.8589,-0.014661,-0.10507,0.15119,-7.86,-6.0,20.1
4.2223,-5.2847,-8.2267,-0.096517,-0.036041,0.059254,-7.92,-5.94,20.28
4.2904,-4.7399,-7.9951,-0.078496,-0.135,0.037263,-7.74,-5.82,20.46
3.1735,-4.3177,-7.7636,0.041233,-0.015882,0.11668,-7.5,-5.76,20.94
4.2904,-4.8897,-8.4582,0.014355,0.078191,0.12706,-7.38,-5.7,21.0
4.7944,-4.9714,-8.5127,0.0024435,0.10018,0.078496,-7.32,-5.76,21.12
2.833,-2.9965,-6.4697,0.1014,0.04612,0.15638,-7.38,-5.7,21.3
3.4459,-3.2553,-8.1041,0.12034,0.13928,0.24068,-7.56,-5.58,21.42
4.8352,-6.1564,-8.1177,0.017104,0.31398,0.18265,-7.5,-5.58,21.66
1.8387,-4.1542,-6.279,0.10476,0.045509,0.29108,-7.44,-5.28,21.78
4.0725,-4.8488,-7.7364,0.054062,0.25809,0.20281,-7.5,-5.22,21.78
4.7671,-6.279,-8.8668,0.094684,0.32467,0.17226,-7.74,-5.1,21.78
2.3018,-1.9613,-6.0611,-0.030543,0.24038,0.018937,-7.8,-4.74,21.84
2.9556,-3.1872,-7.8317,0.18021,0.25473,0.039401,-7.86,-4.56,21.78
4.5356,-5.4618,-8.1177,0.090103,0.45235,0.029016,-8.16,-4.56,21.66
5.3119,-6.0611,-8.7306,-0.01069,0.28619,0.085827,-8.4,-4.44,21.54
3.1191,-4.3313,-6.565,-0.0018326,0.1292,-0.054672,-8.52,-4.44,21.6
2.9965,-2.6968,-8.1722,-0.06353,0.21472,-0.10996,-8.7,-4.38,21.48
5.1076,-4.0861,-8.5263,-0.04612,0.3766,-0.15211,-8.88,-4.26,21.48
4.9987,-5.094,-7.927,-0.093157,0.2587,-0.21808,-9.12,-4.26,21.3
3.909,-3.6366,-7.1915,-0.087048,0.13561,-0.23335,-9.3,-4.14,21.18
4.6718,-3.337,-7.9407,-0.11698,0.1576,-0.25779,-9.78,-4.2,21.0
5.3664,-5.2438,-7.5593,-0.18448,0.21838,-0.23243,-9.9,-4.2,20.82
3.3097,-4.8352,-7.0417,-0.10507,0.16066,-0.08827,-9.96,-4.32,20.7
4.3858,-4.0316,-7.6274,-0.10904,0.25259,-0.23305,-10.02,-4.56,20.52
3.5958,-4.7535,-6.96,-0.10629,0.22816,-0.17562,-10.38,-4.92,20.34
3.5549,-4.7671,-6.6876,-0.027184,0.3317,-0.18418,-10.38,-4.92,20.16
5.3256,-5.7069,-7.6683,-0.085827,0.37415,-0.3317,-10.68,-5.16,19.8
3.623,-4.6037,-6.279,-0.074526,0.24435,-0.43646,-10.92,-5.22,19.38
4.0589,-5.6116,-8.3629,-0.13011,0.17837,-0.41111,-11.04,-5.34,19.2
5.6661,-6.96,-8.6489,-0.30727,0.27031,-0.5061,-11.16,-5.46,19.02
3.2416,-2.6423,-8.0088,-0.2364,0.17929,-0.47312,-11.46,-5.76,18.72
5.0395,-3.7865,-7.927,-0.33506,0.19151,-0.41722,-11.7,-6.06,18.48
5.7614,-3.3097,-7.0281,-0.28191,0.37935,-0.35369,-11.82,-6.3,18.24
6.4969,-5.6661,-7.8589,-0.20036,0.22358,-0.17746,-12.0,-6.78,17.82
5.9793,-5.2575,-8.2676,-0.20097,0.12309,-0.13378,-12.18,-6.96,17.52
3.4868,-2.4244,-8.036,-0.25229,-0.12828,-0.12706,-12.36,-7.14,17.34
2.9011,-1.4029,-8.3765,-0.09499,-0.033903,0.030849,-12.6,-7.32,17.1
6.0066,-3.1735,-9.7113,-0.025045,0.16768,0.047342,-12.84,-7.56,16.5
5.4618,-4.1406,-8.1177,-0.088575,0.054062,0.0076358,-12.96,-7.74,16.2
3.3234,-2.6696,-8.1177,0.11118,0.10385,0.20647,-13.08,-8.04,15.96
7.1098,-4.0725,-9.1393,-0.0024435,-0.037263,0.029932,-13.08,-8.16,15.66
5.1485,-2.4517,-7.8998,0.089186,-0.14447,0.20006,-13.14,-8.22,15.42
5.4481,-3.4051,-9.0031,0.051313,-0.030238,0.15913,-13.2,-8.28,15.36
3.4051,-2.0567,-7.0962,0.1014,-0.049786,0.25259,-13.08,-8.4,15.18
6.17,-3.2416,-8.8805,0.067806,-0.0085521,0.29749,-13.14,-8.4,15.12
6.0611,-3.4459,-8.5944,0.056505,-0.076053,0.27061,-13.26,-8.34,15.0
4.7671,-3.4051,-8.0905,0.014661,-0.21075,0.27581,-13.26,-8.34,15.0
3.9635,-3.2961,-8.0905,0.10354,-0.18387,0.34544,-13.26,-8.1,15.0
5.9657,-4.8352,-9.221,0.018937,-0.2138,0.29413,-13.02,-8.04,15.0
3.228,-2.3155,-7.5457,0.089492,-0.37599,0.28344,-13.08,-8.1,15.3
3.9908,-1.8387,-8.431,0.12248,-0.33506,0.3146,-13.08,-7.98,15.48
6.0202,-3.051,-9.2891,0.073609,-0.30146,0.33659,-12.9,-7.98,15.6
4.5764,-5.2575,-7.6683,0.078802,-0.2978,0.43921,-12.6,-7.62,15.9
3.8682,-4.1133,-6.8647,0.12126,-0.31246,0.3543,-12.48,-7.38,16.2
2.7922,-0.83084,-7.1779,0.17532,-0.38912,0.33109,-12.48,-7.2,16.26
7.8453,-6.9328,-8.9758,-0.080023,-0.25351,0.18448,-12.3,-6.9,16.62
2.3291,-4.5901,-6.2109,0.095906,-0.44135,0.35705,-12.18,-6.84,16.86
5.1894,-4.6173,-7.7364,0.0012217,-0.28863,0.07422,-11.64,-6.3,17.34
4.4947,-5.4073,-7.8589,-0.2025,-0.43035,0.047953,-11.46,-6.06,17.64
2.5061,-4.6037,-6.6059,-0.12798,-0.39126,0.11576,-11.28,-6.0,17.94
1.7298,-3.9635,-6.0883,-0.030543,-0.2138,0.21289,-11.16,-5.76,18.3
5.2575,-4.9033,-9.4117,-0.23732,-0.19059,-0.046426,-10.92,-5.7,18.48
2.9148,-4.2904,-6.7285,-0.16432,-0.35369,0.10415,-10.38,-5.4,18.84
2.1248,-3.228,-6.7421,0.012217,-0.06689,0.13775,-10.2,-5.16,19.26
4.2904,-5.0395,-7.6683,-0.11668,-0.042455,0.090103,-10.02,-5.1,19.8
2.7786,-2.7649,-7.5729,-0.022297,-0.27336,0.17257,-9.72,-5.34,20.04
3.623,-7.2324,-8.7034,-0.067195,0.060781,0.21105,-9.48,-5.28,20.22
1.8115,-2.8194,-6.6467,0.0085521,-0.11515,0.1741,-9.0,-5.16,20.52
3.6775,-4.3449,-8.6898,-0.01069,0.055589,0.11545,-8.76,-4.98,20.7
3.5958,-4.9442,-7.3686,-0.014355,0.0054978,0.17501,-8.52,-5.1,20.88
3.1735,-4.2495,-7.6274,-0.0048869,0.12156,0.19853,-8.4,-5.16,20.94
2.8058,-4.4402,-6.9736,0.085216,0.26909,0.27886,-8.16,-5.16,21.06
4.0861,-5.1076,-8.7715,-0.027489,0.24526,0.20311,-8.16,-5.16,21.06
2.9965,-4.7399,-6.5786,-0.042761,0.18967,0.14294,-8.34,-4.86,21.24
2.7649,-4.5492,-7.7091,-0.042455,0.24648,0.14783,-8.34,-4.86,21.48
3.1191,-4.5764,-8.2812,-0.012523,0.44532,0.16738,-8.28,-4.92,21.48
3.5958,-5.1076,-7.1779,0.020159,0.37018,0.19273,-8.4,-4.86,21.48
3.4732,-3.7865,-7.8998,-0.013134,0.33537,0.15821,-8.58,-4.68,21.54
3.4187,-4.4811,-8.3493,0.0051924,0.40745,0.18601,-8.76,-4.56,21.54
4.2223,-4.6582,-8.826,-0.040623,0.41661,0.10721,-8.88,-4.56,21.54
3.1735,-4.5628,-8.145,-0.069333,0.3656,0.13714,-9.06,-4.68,21.36
4.1814,-3.5685,-8.3493,-0.10782,0.34972,0.046731,-9.24,-4.5,21.36
4.7944,-4.9714,-7.9543,-0.20372,0.22144,-0.030543,-9.54,-4.74,21.24
3.732,-3.3234,-7.7364,-0.1292,0.19945,0.033292,-9.84,-4.68,21.12
4.8488,-2.9965,-8.1858,-0.15027,0.30299,-0.029627,-9.9,-4.8,21.12
5.6524,-5.1213,-7.9815,-0.19151,0.26878,-0.039706,-10.02,-4.8,21.12
3.7592,-2.4244,-7.7908,-0.20311,0.069028,-0.036957,-10.26,-4.86,20.94
5.8704,-5.4754,-8.5808,-0.19456,0.31612,-0.071166,-10.38,-4.8,20.76
3.5413,-2.7377,-7.8998,-0.18967,0.025962,-0.064141,-10.56,-4.74,20.4
5.8567,-4.5492,-9.0303,-0.22785,0.14355,-0.13256,-10.62,-4.86,20.34
4.5083,-5.0531,-7.2324,-0.15058,0.072082,-0.083383,-10.62,-5.04,20.28
2.9829,-2.7649,-7.246,-0.16677,0.04215,-0.10049,-10.8,-5.28,20.04
4.5628,-3.9908,-7.4503,-0.10751,0.20097,-0.10232,-10.86,-5.28,20.04
5.8704,-5.1485,-7.6274,-0.23702,0.14508,-0.22846,-11.1,-5.52,20.04
3.6775,-4.0725,-6.851,-0.15974,0.11606,-0.18631,-11.16,-5.52,19.92
4.8625,-5.0804,-7.5729,-0.19303,0.17593,-0.23305,-11.28,-5.7,19.8
5.9112,-5.6252,-8.1041,-0.25962,0.0097738,-0.2923,-11.28,-5.76,19.56
4.2904,-3.051,-7.3822,-0.20495,-0.058948,-0.25107,-11.34,-6.18,19.14
4.7263,-3.1599,-7.927,-0.13531,0.084299,-0.15638,-11.16,-6.3,18.96
6.2517,-3.6911,-8.9758,-0.17165,0.10568,-0.16738,-11.16,-6.54,18.78
4.985,-4.7399,-8.0496,-0.050702,0.051007,-0.078496,-11.34,-6.84,18.78
4.4947,-4.5083,-7.5321,-0.036652,-0.064141,-0.1124,-11.34,-7.02,18.72
3.623,-2.3018,-7.7636,-0.044899,-0.18326,-0.11729,-11.4,-7.14,18.6
5.2438,-3.9227,-9.0303,-0.0281,-0.13042,-0.0033598,-11.4,-7.5,18.54
5.4754,-3.0782,-8.6353,-0.037874,-0.15913,-0.036652,-11.4,-7.74,18.54
4.2495,-2.833,-8.036,0.0064141,-0.22113,0.01069,-11.22,-7.74,18.3
4.985,-3.0918,-7.4776,0.0051924,-0.23488,0.047037,-11.16,-8.04,18.12
5.6116,-3.1735,-7.8726,0.049175,-0.30849,0.025045,-10.92,-8.04,18.18
6.0611,-4.3449,-8.4174,-0.026267,-0.40531,0.0027489,-10.74,-8.1,18.3
2.8603,0.054481,-7.7091,0.14508,-0.39279,0.074831,-10.38,-8.34,18.54
7.1098,-4.2904,-9.9565,0.049175,-0.38515,0.086132,-10.44,-8.4,18.78
6.4424,-5.2575,-7.8045,0.04948,-0.3934,0.12278,-10.26,-8.4,18.84
3.8954,-3.8954,-7.5457,-0.013134,-0.55314,-0.013744,-9.96,-8.4,19.08
2.3427,-1.471,-6.5922,0.09163,-0.49388,0.036346,-9.72,-8.4,19.14
5.7342,-2.9556,-9.6023,0.016493,-0.53939,0.002138,-9.54,-8.46,19.2
4.0861,-3.9227,-6.96,0.03543,-0.48106,0.1518,-9.18,-8.22,19.5
2.8194,-4.2223,-7.8317,0.10507,-0.43463,0.22663,-9.0,-8.22,19.62
3.7456,-3.4187,-7.5457,0.13042,-0.40928,0.14661,-8.76,-8.22,19.98
4.7671,-3.2689,-8.8668,0.22907,-0.38271,0.17929,-7.98,-8.04,20.46
5.0531,-5.5843,-7.3141,0.20189,-0.19487,0.1573,-7.86,-7.98,20.64
2.2337,-3.5549,-5.9657,0.25229,-0.28741,0.17868,-7.62,-7.92,20.94
4.4811,-5.8023,-7.5048,0.12798,-0.27184,0.043066,-7.08,-7.74,21.24
2.438,-3.6911,-7.0281,0.15913,-0.36377,0.12217,-6.84,-7.62,21.48
2.438,-3.6911,-7.0281,0.058643,-0.26603,0.046426,-6.84,-7.62,21.48
2.4925,-4.2495,-6.6059,0.1967,-0.20983,0.16035,-6.48,-7.56,21.66
2.4925,-4.2495,-6.6059,0.097738,-0.16249,0.091019,-6.48,-7.56,21.66
2.4925,-4.8216,-6.3743,0.15424,-0.14844,0.11606,-6.0,-7.08,22.14
2.4517,-3.4187,-7.5048,0.1576,-0.25504,0.10843,-5.64,-7.02,22.38
3.3915,-4.8216,-8.3357,0.11026,-0.11912,0.11484,-5.34,-6.72,22.68
2.8603,-4.9306,-8.3629,0.10446,-0.11118,0.19273,-4.86,-6.42,23.16
2.4789,-6.1019,-7.75,0.062614,-0.062919,0.16066,-4.62,-6.12,23.4
2.261,-4.3585,-7.355,0.060476,0.049786,0.072082,-4.38,-5.7,23.7
3.7728,-4.2904,-8.826,0.099876,-0.092241,-0.027489,-4.32,-5.46,23.7
3.8546,-5.3256,-7.7908,0.014966,0.086743,-0.07025,-4.08,-5.28,23.94
2.6696,-4.3449,-6.4424,0.11393,0.089492,0.091324,-4.08,-5.22,24.06
3.732,-4.6037,-7.1234,0.037263,0.14203,0.10415,-4.2,-4.74,24.36
4.1678,-4.8897,-7.2052,0.10079,0.24099,0.067195,-4.14,-4.56,24.36
4.1406,-3.9908,-7.6546,0.035125,0.086132,-0.022297,-4.2,-4.56,24.48
3.732,-4.7671,-7.7636,0.03543,0.10507,-0.0085521,-4.26,-4.44,24.66
3.9908,-5.1894,-8.1041,-0.051618,0.16402,-0.093768,-4.38,-4.44,24.6
3.9635,-6.5922,-8.717,-0.18265,0.13775,-0.1631,-4.38,-4.38,24.72
3.3915,-2.7241,-8.7034,-0.067195,0.05681,-0.20342,-4.62,-4.32,24.66
4.3721,-2.9692,-7.5048,-0.092241,0.076053,-0.17318,-4.86,-4.5,24.6
5.9385,-5.3256,-9.2891,-0.11637,0.19517,-0.16341,-5.28,-4.68,24.66
2.9011,-3.5822,-8.2131,-0.057421,0.0058032,-0.07758,-5.46,-4.8,24.66
4.127,-2.8739,-7.8317,-0.097433,0.087048,-0.19609,-5.64,-4.8,24.6
4.1542,-3.7592,-7.641,-0.03207,0.18082,-0.14142,-5.82,-4.8,24.48
5.5026,-5.6661,-8.3901,-0.22785,0.19517,-0.30513,-5.94,-4.86,24.42
2.9011,-3.2689,-7.4367,-0.22938,-0.057727,-0.30818,-6.12,-5.1,24.36
3.8954,-4.699,-9.2618,-0.1295,0.14936,-0.20708,-6.18,-5.1,24.3
4.699,-4.2904,-8.2539,-0.17623,0.099571,-0.27703,-6.3,-5.46,24.18
4.4539,-4.6445,-7.5593,-0.055283,0.1463,-0.27336,-6.48,-5.58,24.18
2.2474,-3.1191,-6.1836,0.14844,0.17959,-0.12614,-6.6,-5.76,24.0
5.2983,-4.2904,-8.322,0.11332,0.24801,-0.22785,-6.84,-6.12,23.94
3.5958,-5.0395,-6.8919,0.017715,0.19609,-0.24648,-6.84,-6.24,23.94
2.5334,-3.6366,-7.3414,0.055283,0.11851,-0.15791,-6.96,-6.3,23.7
5.8295,-5.7069,-7.9951,-0.047037,0.25901,-0.39554,-7.08,-6.66,23.64
4.0725,-4.8216,-7.069,-0.14142,0.054062,-0.46731,-7.14,-6.9,23.52
3.8818,-4.0861,-6.8374,-0.16982,0.13653,-0.50183,-7.2,-7.08,23.4
4.0316,-5.1485,-7.2324,-0.2135,0.18204,-0.43249,-7.32,-7.56,23.04
4.699,-4.127,-8.1722,-0.14019,0.10079,-0.34086,-7.5,-7.68,22.74
4.5764,-3.0782,-8.5536,-0.035125,0.10446,-0.24587,-7.62,-7.98,22.62
4.413,-5.1894,-7.2188,0.029932,0.30024,-0.22694,-7.92,-8.46,22.26
3.051,-2.4517,-6.5922,0.062614,0.31307,-0.29016,-7.98,-8.64,22.2
4.9033,-4.2495,-7.7908,0.10568,0.30146,-0.24343,-7.98,-8.7,21.96
5.5435,-5.2983,-7.464,-0.022602,0.20861,-0.18418,-8.04,-8.88,21.6
4.5083,-3.8273,-7.1507,-0.045815,0.089492,-0.22969,-8.22,-9.06,21.3
3.3506,-3.5549,-7.3414,-0.0012217,0.12798,-0.097738,-8.28,-9.3,21.18
6.4424,-5.6116,-8.9349,-0.22816,-0.019853,-0.2251,-8.4,-9.54,20.94
5.2847,-5.1894,-8.7579,-0.25473,-0.10629,-0.22571,-8.34,-9.78,20.76
2.6151,-2.9965,-6.8238,-0.15944,-0.11942,-0.14294,-8.28,-9.9,20.64
1.5255,2.8603,-7.5865,0.3708,0.11026,0.24801,-8.52,-10.14,20.52
9.4798,-6.8238,-11.55,0.054367,0.39798,0.42791,-8.64,-10.44,20.52
13.702,-9.6432,-9.2482,-0.16952,0.17959,0.07422,-8.82,-10.44,20.28
-0.78998,-3.2144,-6.17,0.16952,-0.33567,0.40134,-8.94,-10.44,19.98
2.1384,-4.8897,-7.1234,0.044593,0.1014,0.21289,-9.06,-10.32,19.8
8.6762,-5.6116,-11.196,-0.19761,-0.34025,-0.11851,-9.18,-10.5,19.56
6.0611,-3.6094,-8.1177,0.095906,-0.18906,0.18601,-9.42,-10.74,19.44
6.8374,-4.6718,-10.447,0.1405,0.062614,0.26756,-9.48,-10.86,19.44
9.1256,-5.775,-10.256,-0.076358,-0.15149,0.068722,-9.54,-10.86,19.44
1.1577,-1.8387,-6.2517,0.22816,-0.23213,0.34819,-9.48,-10.86,19.2
5.9657,-2.8875,-9.5479,0.15608,-0.10079,0.2813,-9.3,-10.86,19.2
5.3392,-3.8137,-7.9407,0.16157,-0.135,0.38485,-9.18,-10.8,19.2
4.4539,-4.6718,-7.3822,0.12645,-0.1405,0.41203,-9.0,-10.56,19.2
3.7728,-3.9908,-7.4912,0.13134,-0.17807,0.37782,-9.0,-10.44,19.14
5.4073,-4.1814,-9.4798,-0.02138,-0.31765,0.23091,-8.88,-10.5,19.08
4.3177,-5.7614,-7.3686,-0.062919,-0.34941,0.26756,-8.7,-10.26,19.44
1.7025,-3.732,-5.5707,0.046426,-0.28344,0.32865,-8.58,-9.96,19.5
4.522,-1.6617,-8.2812,0.21869,-0.22174,0.30116,-8.46,-9.72,19.44
7.7636,-2.9284,-10.379,-0.000611,-0.41081,0.30665,-8.52,-9.54,19.62
4.6445,-4.9714,-7.1507,0.0030543,-0.31765,0.46029,-8.58,-9.36,19.74
3.2689,-5.38,-6.9872,-0.024435,-0.27245,0.41661,-8.4,-9.06,19.8
4.5492,-4.9987,-8.2948,-0.17043,-0.41356,0.13347,-8.4,-8.94,19.92
5.8704,-5.6933,-8.1586,-0.48319,-0.5565,0.084299,-8.28,-8.88,19.98
1.9341,-2.3427,-6.7829,-0.41325,-0.56566,0.17532,-7.98,-8.88,20.16
4.8488,-3.4459,-8.0905,-0.31062,-0.32376,0.14722,-7.8,-8.76,20.4
4.7671,-3.6366,-7.8453,-0.18723,-0.30177,0.18662,-7.68,-8.64,20.52
3.8546,-4.2904,-8.0905,-0.091019,-0.43646,0.27122,-7.32,-8.7,20.64
3.1191,-4.413,-7.2733,0.049175,-0.43494,0.38362,-7.2,-8.82,20.7
5.38,-4.3858,-9.0439,0.25626,-0.37935,0.40103,-6.72,-8.64,21.06
5.3119,-7.246,-8.2131,0.08827,-0.15149,0.069639,-6.6,-8.64,21.24
3.6911,-6.8919,-7.6274,-0.067195,-0.44715,0.070555,-6.42,-8.58,21.36
3.8954,-3.0373,-6.8647,-0.051618,-0.35522,-0.22052,-6.24,-8.46,21.6
4.7399,-3.0782,-6.8374,0.0039706,-0.21869,-0.24832,-6.06,-8.64,21.78
6.1019,-5.6661,-8.5263,-0.093462,-0.0956,-0.35583,-5.82,-8.58,22.02
1.1986,-1.5119,-5.7069,0.076969,-0.39615,-0.1518,-5.52,-8.52,22.5
4.127,-1.8387,-8.6762,0.078191,-0.14447,-0.24618,-5.34,-8.52,22.68
4.8625,-5.7342,-8.7443,-0.01405,-0.14019,-0.19761,-5.16,-8.58,22.74
2.0567,-5.7478,-7.7636,-0.135,-0.10599,-0.14783,-4.98,-8.7,22.92
2.8603,-3.3506,-7.1371,-0.15791,-0.10476,-0.33048,-4.8,-8.7,23.04
4.1951,-5.1757,-8.2812,-0.12706,0.08491,-0.42425,-4.56,-8.58,23.28
0.6674,-4.2495,-5.3937,-0.18234,0.053145,-0.50396,-4.5,-8.7,23.46
4.4675,-2.5334,-8.7715,-0.0073304,0.13439,-0.45876,-4.5,-8.58,23.52
6.7693,-3.0646,-9.3844,-0.040317,0.1295,-0.62675,-4.56,-8.64,23.46
4.4402,-5.0531,-8.8805,-0.029322,0.04612,-0.22999,-4.44,-8.76,23.58
1.3757,-6.1836,-5.4754,-0.078191,0.12828,-0.29596,-4.44,-8.82,23.76
4.127,-0.12258,-7.7364,0.10843,0.10079,-0.37018,-4.32,-9.06,23.7
8.145,-3.1191,-10.297,-0.12737,0.11515,-0.62889,-4.26,-9.12,23.52
2.8058,-5.598,-7.4231,-0.14416,0.08827,-0.36438,-4.14,-9.24,23.46
3.3778,-5.0531,-7.1234,-0.18784,0.067806,-0.51924,-4.2,-9.36,23.46
2.6287,-3.8818,-5.993,-0.10965,0.064141,-0.36682,-4.26,-9.36,23.34
6.4969,-4.5628,-9.902,-0.27092,-0.045509,-0.54642,-4.26,-9.36,23.34
2.4517,-3.0373,-6.7829,-0.025351,0.018631,-0.33781,-4.38,-9.54,22.92
4.0997,-3.1735,-8.1586,0.041844,0.1014,-0.49052,-4.56,-9.72,22.86
5.2575,-5.0259,-8.8668,0.06353,0.09896,-0.4612,-4.68,-10.02,22.62
3.2144,-4.8352,-7.0009,-0.013744,0.036346,-0.48747,-4.62,-10.26,22.62
3.0918,-4.7399,-7.5048,-0.10385,0.036957,-0.48289,-4.68,-10.26,22.5
4.522,-4.2223,-7.4231,-0.15821,-0.0039706,-0.50641,-4.92,-10.44,22.2
5.2575,-3.2144,-8.4855,-0.16768,-0.051924,-0.45448,-4.98,-10.5,22.02
5.1485,-3.0373,-8.0496,-0.12645,-0.17685,-0.32498,-5.34,-10.74,21.96
5.7886,-2.9284,-9.4117,-0.11729,-0.15699,-0.38729,-5.34,-10.86,21.9
4.9714,-3.4187,-7.6819,-0.015577,-0.021991,-0.37538,-5.34,-10.92,21.72
4.9306,-4.1678,-7.7772,-0.0094684,-0.013439,-0.37171,-5.4,-10.98,21.78
3.7047,-4.1542,-7.1507,0.057421,-0.13653,-0.2645,-5.46,-11.22,21.78
6.674,-3.8546,-10.025,0.02474,-0.28986,-0.34514,-5.82,-11.46,21.78
3.5549,-3.6639,-7.9951,0.083383,-0.32101,-0.21441,-5.64,-11.46,21.78
3.8273,-2.5061,-9.3163,0.17654,-0.17532,-0.20617,-5.52,-11.52,21.72
4.4539,-5.6388,-7.8317,0.082467,-0.17501,-0.30757,-5.52,-11.52,21.78
2.1656,-2.9556,-6.0474,0.19364,-0.15516,-0.17165,-5.52,-11.58,21.78
3.7728,-5.1894,-7.2869,0.10415,-0.23579,-0.24312,-5.4,-11.52,21.84
3.5549,-2.6151,-7.3005,0.24496,-0.18906,-0.12156,-5.46,-11.34,21.9
5.8704,-4.3449,-7.5457,0.17349,-0.1576,-0.15699,-5.16,-10.92,22.08
3.8273,-2.5606,-7.5457,0.25229,-0.12095,-0.089186,-5.16,-10.86,22.14
5.203,-4.0316,-10.27,0.12187,-0.23671,-0.058338,-5.1,-10.68,22.38
6.5105,-6.5786,-9.8339,0.12126,-0.12126,-0.028405,-4.92,-10.5,22.38
3.1191,-0.068102,-8.4446,0.34483,-0.14997,0.037874,-4.38,-9.9,22.68
6.674,-3.8273,-9.9292,0.17043,-0.17868,0.05681,-4.26,-9.72,22.68
5.0804,-6.5786,-8.3901,0.16005,0.0024435,0.18998,-4.26,-9.42,22.8
2.152,-5.4618,-6.7012,0.092546,-0.34025,-0.015882,-4.14,-8.82,23.22
1.0079,-2.8739,-6.2926,0.23671,-0.28497,0.044899,-4.08,-8.64,23.22
4.2495,-0.31327,-10.065,0.18357,-0.20189,-0.018021,-3.9,-8.22,23.4
4.7944,-5.4618,-6.4424,0.21564,0.19303,0.092852,-3.66,-7.68,23.46
2.5879,-4.3858,-8.1858,0.33231,0.12737,0.31521,-3.48,-7.5,23.58
5.9657,-7.2596,-9.1529,0.14416,-0.087048,0.10476,-3.48,-7.26,23.64
3.1327,-2.4517,-9.221,0.27519,-0.22907,0.0064141,-3.06,-6.6,23.88
3.5549,-2.2201,-8.1858,0.25504,-0.14691,-0.015577,-3.12,-6.3,24.0
3.2416,-2.833,-7.5048,0.25168,-0.034514,0.048564,-3.0,-6.06,24.06
4.5356,-6.6604,-9.3299,-0.0088575,-0.067195,-0.030849,-3.12,-5.7,24.18
2.1929,-3.7728,-6.674,-0.000916,-0.17135,-0.13103,-2.94,-5.1,24.3
4.4402,-1.866,-8.5672,-0.023518,-0.28222,-0.13073,-2.82,-4.86,24.42
5.5707,-2.7649,-7.9543,-0.11118,-0.18906,0.0030543,-2.46,-4.38,24.42
4.018,-5.0531,-8.0632,-0.15608,0.023518,0.089492,-2.28,-4.14,24.54
4.7807,-6.4424,-7.9543,-0.23671,-0.079107,-0.031154,-2.04,-4.02,24.54
3.6775,-5.1213,-7.1643,-0.19548,-0.30452,0.020464,-1.8,-3.96,24.66
4.8761,-3.732,-8.4038,-0.17654,-0.20372,-0.06689,-1.44,-3.72,24.66
4.6037,-6.1973,-8.1313,-0.22663,-0.044899,-0.044288,-1.38,-3.66,24.9
4.127,-2.6832,-6.9328,-0.12339,-0.23671,-0.16616,-0.96,-3.72,25.08
3.5277,-1.8251,-7.5729,0.086437,-0.13683,-0.075747,-0.72,-3.66,25.08
5.4481,-4.5083,-9.0303,0.026878,-0.10904,-0.12553,-0.54,-3.66,25.2
4.4402,-3.9227,-8.2948,0.1014,-0.18631,-0.098655,-0.3,-3.72,25.14
3.1054,-4.0589,-7.8862,0.13439,-0.17287,-0.1463,-0.3,-3.84,25.26
5.0531,-5.9249,-8.8941,-0.074831,-0.23305,-0.43768,0.42,-3.78,25.26
1.7025,-2.0567,-5.4481,-0.032376,-0.28711,-0.39706,0.66,-3.84,25.38
4.4402,1.1032,-11.55,0.18112,-0.15944,-0.38026,0.84,-3.9,25.5
4.8897,-7.069,-8.3629,-0.22083,-0.10232,-0.60659,1.02,-4.02,25.68
2.3563,-4.6445,-6.4152,-0.12523,-0.1967,-0.3821,1.2,-4.02,25.86
3.1463,-2.5606,-6.7829,-0.01405,-0.18601,-0.36591,1.5,-4.08,26.04
4.985,-6.0066,-9.3436,-0.1237,-0.15547,-0.48961,1.92,-4.14,25.98
2.1929,-3.9635,-7.2324,-0.020159,-0.10018,-0.40775,1.92,-4.32,26.04
4.4266,-3.1872,-8.2676,0.12278,-0.0015272,-0.50457,2.22,-4.5,26.16
-0.23155,1.185,-3.7456,0.19303,-0.14111,-0.27184,2.4,-4.56,26.22
5.9385,-1.4301,-9.1256,0.53451,0.44135,0.1179,2.52,-4.56,26.46
8.7851,-9.2618,-8.9894,0.0094684,0.37049,-0.3149,2.52,-4.74,26.4
2.5879,-4.0316,-7.1234,-0.22113,0.014661,-0.16799,2.7,-4.92,26.52
1.2258,0.47671,-6.3743,0.038179,-0.20953,-0.37996,2.7,-5.1,26.64
4.3177,-5.0531,-11.482,0.094379,0.33964,-0.28466,2.88,-5.4,26.76
2.9829,-4.3721,-7.4503,0.15608,0.26053,-0.14019,2.94,-5.4,26.7
4.9714,-8.3765,-10.474,-0.017715,0.31429,-0.15852,2.88,-5.4,26.82
4.7399,-6.3198,-7.5457,0.22816,0.10996,-0.34728,2.82,-5.46,26.7
5.094,-2.9284,-8.5263,0.24404,0.12767,-0.50488,2.76,-5.58,27.0
-0.92618,-1.6072,-6.5922,0.36927,-0.19303,-0.14844,2.7,-5.52,26.94
2.7649,-7.5457,-13.157,-0.13989,0.42699,0.20861,2.64,-5.52,26.76
5.0123,-3.909,-6.1155,0.091935,0.32987,-0.22602,2.4,-5.52,26.7
4.1814,-4.5901,-6.3879,0.15272,0.31796,-0.14722,2.4,-5.76,26.7
6.3471,-6.0747,-8.0088,-0.047342,0.17471,-0.45998,2.4,-5.7,26.76
3.8954,-5.6797,-5.094,-0.002138,0.2532,-0.35522,2.04,-5.82,26.58
7.4776,-4.7399,-9.4389,-0.11393,0.022297,-0.55741,1.92,-5.88,26.4
2.1929,1.0351,-8.0769,-0.016188,-0.35491,-0.2645,1.68,-5.82,26.28
2.1656,-2.2474,-8.4446,-0.2025,0.53787,-0.26817,1.56,-5.82,26.22
5.3392,-5.5299,-6.96,-0.2025,0.53787,-0.26817,1.5,-5.76,25.8
4.4811,-6.8647,-7.2324,-0.39859,-0.010079,-0.23549,1.2,-5.88,25.68
3.7728,-2.6696,-9.221,-0.37782,-0.30299,-0.49175,0.9,-6.06,25.26
3.8818,-1.8387,-8.8941,-0.39615,-0.41936,-0.37782,0.78,-6.24,25.08
5.8159,-1.8932,-9.8066,-0.41356,-0.11545,-0.1857,0.6,-6.42,24.9
5.6524,-7.8317,-6.7829,-0.30849,-0.0094684,-0.10629,0.48,-6.9,24.6
-2.0431,1.7025,-4.7807,0.19761,0.28711,0.14752,0.42,-7.02,24.48
4.1542,3.7047,-9.7385,0.38454,-0.091019,-0.14019,0.36,-7.26,24.36
11.237,-10.324,-11.7,-0.25534,-0.034208,0.0094684,0.36,-7.56,24.18
-0.84446,-3.6775,-2.0975,0.62614,0.37965,0.48136,0.3,-7.56,24.06
1.1986,0.040861,-6.2517,0.37171,-0.11973,-0.26725,0.3,-7.8,23.88
10.297,-6.3471,-11.795,0.11332,-0.33628,0.023213,0.12,-8.1,23.88
2.2474,-6.0611,-6.7966,0.18784,0.03879,0.27489,0.12,-8.16,23.94
3.7047,-5.9249,-8.3493,-0.18509,-0.25901,-0.27397,0.24,-8.04,23.88
2.1248,0.8036,-9.507,0.11118,-0.35888,0.071471,0.42,-8.1,23.94
11.605,-5.4754,-12.517,-0.35155,-0.52504,-0.45204,0.48,-7.98,24.0
2.5742,-3.1054,-5.3664,0.1631,-0.12217,0.55833,0.6,-7.8,24.0
6.4969,-6.5514,-8.8941,-0.15027,-0.2135,-0.070555,0.72,-7.68,24.12
2.3155,-2.4789,-7.4503,0.15302,-0.33872,0.31734,0.84,-7.62,24.06
4.7535,0.50395,-9.9973,0.18631,-0.49786,0.15821,0.96,-7.44,24.0
5.9521,-5.8567,-7.355,0.048869,0.043677,0.22846,1.26,-7.14,24.18
4.1542,-6.674,-7.464,0.054062,-0.13042,0.22266,1.44,-7.14,24.18
4.4811,-7.5457,-8.3629,-0.091324,-0.4102,0.010385,1.56,-7.08,24.3
5.2847,-4.6445,-10.556,0.076969,-0.62369,-0.019853,2.16,-6.96,24.36
3.337,-2.0975,-6.2245,-0.23457,-0.53573,-0.37049,2.28,-7.02,24.6
1.8387,-1.185,-6.7693,0.17898,-0.44899,-0.16707,2.64,-7.08,24.78
3.3097,-4.6854,-6.4969,0.031765,-0.39645,-0.25931,3.06,-6.96,25.02
5.1485,-4.1951,-8.1586,0.063225,-0.31154,-0.089797,3.36,-6.9,25.32
5.5299,-4.2768,-7.3005,0.032376,-0.41905,-0.052534,3.84,-6.84,25.62
3.8682,-4.0997,-8.322,-0.15516,-0.41875,-0.18662,4.02,-6.84,25.74
2.2882,-4.6037,-6.7012,-0.10049,-0.42516,-0.1463,4.26,-6.78,25.98
2.6151,-4.3449,-5.5843,-0.076969,-0.10354,-0.10171,4.5,-6.78,26.28
3.5413,-1.1169,-6.9191,0.034819,-0.031154,-0.12187,4.8,-6.78,26.46
4.0997,-10.093,-6.3471,-0.49052,-0.21686,-0.56322,5.4,-6.96,26.82
-0.1362,-3.514,-4.4811,0.093462,-0.23915,-0.17868,5.7,-6.96,27.06
3.7592,-0.24517,-8.5672,0.10385,-0.41203,-0.49114,6.36,-6.9,27.54
5.5707,-5.9657,-9.5615,-0.028405,0.21686,-0.32895,6.66,-6.96,27.54
5.6797,-5.6388,-9.9701,-0.08094,0.081551,-0.22022,6.84,-7.14,27.78
1.7979,-5.8023,-5.9385,0.10049,0.033598,-0.044593,6.84,-7.26,27.9
1.8251,-3.1599,-7.8181,0.11362,-0.11576,-0.21289,7.2,-7.26,28.08
5.5707,-4.7399,-9.902,0.13103,0.084605,-0.135,7.86,-7.38,28.14
3.7456,-1.9886,-8.3629,0.20678,0.068111,-0.29871,7.98,-7.5,28.32
4.0997,-5.6524,-8.4174,0.047342,0.12401,-0.43738,8.28,-7.32,28.38
1.3212,-2.0839,-6.7012,0.21014,-0.016799,-0.14416,8.4,-7.26,28.26
5.5299,-4.4811,-9.8884,-0.13195,0.13561,-0.49938,8.52,-7.26,28.2
4.6718,-1.0896,-7.2733,-0.021686,0.052534,-0.40103,8.58,-7.2,28.38
6.9736,-3.3778,-10.379,-0.1405,-0.10171,-0.63041,8.58,-7.2,28.26
2.0294,-3.1735,-7.0009,-0.14661,-0.064141,-0.24038,8.52,-7.38,28.2
6.565,-4.8625,-9.9701,-0.27978,-0.039095,-0.62339,8.46,-7.38,28.2
1.58,-2.833,-5.8704,0.010996,0.04612,-0.26267,8.52,-7.2,28.2
1.3484,-0.99429,-7.2188,0.061087,0.16707,-0.21716,8.58,-7.2,28.26
6.5378,-6.1564,-8.6898,-0.16127,0.13622,-0.51526,8.46,-7.44,28.2
2.8603,-6.8238,-6.7557,-0.039095,0.15944,-0.18876,8.46,-7.44,28.26
4.127,-5.3664,-7.1371,-0.051924,0.071777,-0.49999,8.46,-7.44,28.2
5.5435,-0.69464,-10.978,0.065363,0.018021,-0.405,8.4,-7.92,28.08
6.9055,-6.3335,-8.4446,-0.16738,0.092241,-0.71013,8.4,-8.16,28.02
-0.38137,-5.094,-3.0782,0.38301,0.55833,0.14875,8.34,-8.28,28.02
1.9205,-3.6639,-10.447,-0.29108,0.030543,-0.97402,8.28,-8.46,27.9
3.9363,-4.8352,-6.0883,-0.075136,-0.099876,-0.33872,8.22,-8.46,27.84
5.1349,-4.018,-9.0984,-0.16341,-0.13989,-0.56658,8.34,-8.4,27.84
6.8374,-0.89894,-11.06,0.219,-0.0033598,-0.31062,8.16,-8.52,27.78
6.4424,-4.2495,-9.3708,0.052229,0.12798,-0.33078,7.98,-8.58,27.66
5.3256,-4.9987,-7.8998,0.0051924,0.14416,-0.32834,8.04,-8.7,27.54
1.866,-1.7025,-5.2575,0.15821,0.10079,-0.31368,7.98,-8.76,27.24
3.623,-0.91256,-8.1586,0.074526,-0.0088575,-0.33048,7.92,-8.7,27.12
6.8102,-3.7456,-8.7715,-0.0015272,-0.089186,-0.40378,8.1,-8.58,27.06
4.9987,-3.909,-8.6762,-0.10201,-0.15272,-0.32803,8.16,-8.58,27.06
0.61292,-0.83084,-6.8238,0.071166,-0.10079,-0.19151,8.16,-8.52,27.18
3.5685,-2.5879,-8.4446,0.15852,0.090713,0.020769,8.16,-8.64,27.06
4.4402,-3.2825,-8.0632,0.098655,-0.14539,-0.06017,8.16,-8.7,27.12
3.514,-2.3018,-7.4095,0.29413,-0.078496,0.011301,8.22,-8.76,27.12
4.4811,-5.0123,-7.7364,0.3824,0.037263,-0.022297,8.22,-8.88,27.06
6.0747,-5.8976,-8.4855,0.32254,-0.14386,-0.22755,8.4,-8.76,27.12
2.1929,-3.3234,-8.0088,0.32284,-0.24312,-0.0088575,8.64,-8.82,27.24
-0.6674,-0.35413,-3.5004,0.81581,0.12126,0.18967,8.46,-8.58,27.42
8.6353,-4.7126,-10.038,0.30574,0.15149,-0.11148,8.52,-8.34,27.6
10.093,-9.0848,-10.529,0.11332,0.048564,0.058032,8.64,-8.22,27.78
-0.95342,-5.6797,-4.1133,0.38668,-0.045509,0.20006,8.64,-8.1,27.78
4.9169,-3.0782,-11.25,0.17257,-0.11087,0.0039706,8.76,-7.38,27.72
6.2654,-6.4697,-9.1256,0.16585,0.01741,0.079412,8.82,-7.08,27.6
3.5822,-5.3392,-8.4446,0.19212,0.098349,0.15638,8.82,-6.72,27.72
3.0646,-2.9965,-7.0417,0.25962,0.1127,0.052229,8.94,-5.94,27.9
3.4459,-2.152,-9.6432,0.33292,-0.040928,0.26267,8.88,-5.7,27.9
8.4991,-6.7012,-10.951,-0.11484,0.031154,0.03543,8.82,-5.52,27.84
3.1054,-4.5356,-7.6138,0.28436,0.19731,0.27397,8.64,-5.04,27.78
7.8998,-8.3629,-9.3163,-0.14019,0.061392,0.035125,8.58,-4.68,27.72
3.8818,-3.8954,-6.3062,0.18601,-0.14752,0.25473,8.64,-4.56,27.54
5.9249,-3.8682,-10.106,-0.058338,0.083078,0.29077,8.52,-4.14,27.72
3.732,-6.0611,-7.1507,-0.10354,0.38851,0.55375,8.28,-4.02,27.66
3.3778,-5.1757,-8.8805,-0.22113,0.11148,0.31001,8.28,-3.96,27.54
2.7649,-2.8058,-7.1915,-0.21594,-0.013134,0.47403,8.04,-4.08,27.54
4.7399,-2.3699,-8.7715,-0.21075,0.11118,0.19151,7.92,-4.02,27.54
4.7671,-3.1872,-8.6353,-0.2978,0.20464,0.46487,7.8,-4.08,27.42
2.3972,-6.7557,-7.3822,-0.19456,0.15211,0.4441,7.68,-4.32,27.3
2.1929,-4.2768,-6.4016,0.009163,-0.035125,0.30727,7.56,-4.38,27.24
4.9987,-2.9011,-9.5479,0.091324,-0.05284,0.29505,7.5,-4.32,27.36
4.7807,-2.0975,-8.6762,0.19578,-0.072388,0.45326,7.56,-4.44,27.42
5.7069,-4.1814,-9.2482,-0.027794,-0.020769,0.27397,7.32,-4.5,27.54
3.9635,-5.2983,-6.0202,0.083689,-0.014966,0.38423,7.2,-4.38,27.72
5.7342,-3.9499,-7.7636,-0.12309,-0.22266,0.016188,7.08,-4.5,27.72
6.456,-3.732,-9.3027,-0.23427,-0.28863,-0.039706,7.08,-4.56,27.78
3.6775,-3.5958,-8.2403,-0.15211,-0.16402,0.10385,6.96,-4.74,27.96
2.1656,-4.3313,-5.775,-0.30268,-0.24221,0.11851,6.96,-4.86,28.14
3.5822,-6.8374,-7.2869,-0.15027,0.21197,-0.063225,6.9,-4.86,28.38
5.9249,-3.0237,-8.2267,-0.1182,-0.10018,-0.19792,6.96,-4.86,28.56
3.9363,-3.1872,-7.5729,-0.0064141,0.08827,0.11148,6.96,-4.86,28.8
6.3743,-4.9578,-7.9951,0.1014,0.28924,-0.28711,6.96,-4.86,29.04
3.0646,-6.4424,-7.4095,-0.14966,0.018326,-0.043371,7.02,-4.74,29.28
4.2223,-3.3097,-7.4776,-0.20708,0.14813,-0.28619,6.96,-4.74,29.4
6.2109,-4.6854,-8.322,-0.22724,0.090103,-0.51404,7.14,-4.74,29.28
2.7786,-2.1793,-7.1371,-0.17226,-0.14905,-0.31429,7.26,-4.98,29.22
6.565,-5.6116,-10.964,-0.34972,0.10599,-0.45632,7.2,-5.16,29.28
6.4969,-11.223,-10.774,-0.71471,-0.12065,-0.60659,7.38,-5.16,29.34
0.50395,-4.1814,-3.5413,-0.39248,-0.37324,-0.58826,7.56,-5.16,29.34
0.1362,5.2302,-6.0611,0.1066,-0.24771,-0.42211,7.56,-5.34,29.34
6.2245,-2.5334,-6.456,-0.17898,0.40928,-0.30757,7.56,-5.4,29.28
5.6388,-2.4108,-8.4582,-0.055589,0.219,-0.10599,7.56,-5.4,29.28
5.8976,-3.8954,-7.1371,-0.12981,0.093157,-0.22388,7.62,-5.58,29.16
5.1894,-5.3937,-8.1722,-0.27275,-0.07025,-0.21533,7.56,-5.7,29.16
3.8409,-5.6661,-6.6195,-0.33323,-0.15852,-0.39462,7.68,-6.0,28.8
1.6617,-1.8524,-4.0861,-0.16524,-0.016188,-0.49572,7.56,-6.24,28.8
9.5887,-5.8023,-10.202,-0.23213,-0.1686,-0.4383,7.8,-6.42,28.68
3.7456,-4.7399,-7.8317,-0.20892,-0.16035,-0.38454,7.86,-6.78,28.44
1.6344,-1.9613,-6.7557,-0.24221,-0.18662,-0.31765,8.04,-6.9,28.44
2.9148,-1.0488,-7.1507,0.0015272,0.041844,-0.23518,8.16,-7.08,28.44
7.6002,-3.2553,-8.1177,-0.075747,0.038179,-0.36346,8.16,-7.2,28.26
7.2052,-5.4754,-7.9134,-0.1295,-0.07086,-0.52321,8.28,-7.26,28.26
2.0294,-0.10896,-6.1564,0.16188,-0.20739,-0.41508,8.46,-7.68,28.26
10.488,-3.2144,-10.91,-0.1011,-0.26389,-0.58704,8.52,-7.92,28.26
4.3858,-2.2882,-6.0338,0.029016,-0.069028,-0.43768,8.7,-8.1,28.14
3.1463,-0.96704,-7.6546,-0.071471,-0.30055,-0.46914,8.94,-8.16,28.14
5.5162,-6.2517,-6.5922,-0.36469,-0.20525,-0.7199,9.3,-8.28,28.08
-0.1362,-2.9011,-6.2245,-0.041844,-0.12309,-0.44532,9.6,-8.34,28.08
3.0918,-0.50395,-9.1529,0.34086,-0.38179,-0.28436,9.84,-8.34,28.2
5.7614,-2.8875,-9.1937,0.34086,-0.38179,-0.28436,9.84,-8.34,28.2
2.5606,-0.38137,-6.2926,0.44196,-0.15363,-0.26573,10.32,-8.52,28.62
4.7263,-3.051,-6.456,0.5623,0.045509,-0.2923,10.5,-8.52,28.62
7.1098,-4.8352,-7.5457,0.37049,-0.13867,-0.38423,10.8,-8.52,28.74
5.8431,-3.8954,-6.2654,0.25779,-0.27306,-0.43555,11.1,-8.52,28.8
6.279,-5.2438,-9.2618,0.24954,-0.46456,-0.25351,11.64,-8.16,28.68
3.0646,-4.3994,-5.5162,0.065363,-0.42791,-0.48014,12.0,-8.04,28.74
1.2803,0.54481,-8.1177,0.22022,-0.71563,-0.30177,12.24,-7.68,28.74
8.826,-4.9442,-10.76,0.021686,-0.45235,-0.48472,12.6,-7.38,29.16
5.9521,-6.7148,-7.4503,-0.062308,-0.1463,-0.5006,12.9,-7.2,29.4
0.47671,-3.2553,-7.6546,0.2755,-0.33506,0.0030543,13.44,-6.66,29.64
6.456,-4.6445,-10.433,0.12431,-0.56872,-0.30268,13.62,-6.42,29.58
6.0883,-1.6344,-9.8611,0.18357,-0.73395,-0.24557,13.8,-6.06,29.4
1.866,-0.65378,-7.8317,0.39462,-0.41844,-0.17593,14.4,-5.64,29.46
7.0417,-5.7886,-10.665,0.44502,-0.23946,-0.000916,14.7,-5.34,29.28
5.8704,-6.3607,-8.3765,0.20983,-0.17379,-0.068722,15.06,-5.22,29.22
1.8796,-2.9011,-7.6274,0.4383,-0.46212,0.066279,15.6,-4.86,29.52
5.1757,-4.7944,-10.869,0.25412,-0.5623,0.16707,15.96,-4.8,29.58
2.3155,-2.2474,-6.7966,0.35491,-0.38149,0.081551,16.68,-4.44,29.52
2.8875,-1.3348,-7.3958,0.5226,-0.42699,0.092546,17.04,-4.26,29.46
2.2201,-1.3757,-6.279,0.69303,-0.15547,0.14844,17.28,-3.9,29.46
5.5435,-3.7047,-9.1937,0.44318,0.023213,0.075747,17.52,-3.66,29.34
4.0725,-10.42,-5.2847,0.034208,-0.31062,-0.011301,17.88,-3.24,29.4
0.21793,-0.54481,-7.7364,0.29627,-0.50396,0.034514,18.18,-2.94,29.58
8.9077,-5.094,-13.389,-0.19151,-0.51924,-0.41997,18.36,-2.58,29.76
0.23155,-1.7298,-8.826,-0.072998,-0.42699,-0.11942,18.78,-1.92,29.76
1.6344,0.44947,-6.1973,-0.1292,-0.26267,-0.22846,19.02,-1.86,30.0
3.1599,0.64016,-7.7364,-0.15577,-0.058032,-0.062614,19.26,-1.62,30.24
2.2201,-4.6582,-6.3471,-0.41294,-0.096822,-0.11759,19.62,-1.32,30.3
3.3506,-3.732,-8.3493,-0.15608,-0.49419,0.17471,19.74,-1.2,30.42
1.5936,-3.228,-5.7478,0.20403,-0.28863,0.33445,19.86,-1.2,30.42
7.5729,-7.6683,-12.19,0.10507,-0.051924,0.13836,20.04,-1.08,30.66
2.152,-2.9965,-5.1894,0.24129,-0.36285,0.10446,20.22,-1.14,30.72
2.9284,-0.72188,-7.8317,0.23427,0.063835,-0.080634,20.4,-1.08,30.9
3.7728,-5.2575,-7.8589,0.14264,-0.0027489,-0.017715,20.76,-1.14,31.08
4.1678,-2.4108,-8.8668,0.12217,-0.22633,0.012217,20.88,-1.2,31.14
2.2746,-2.6968,-7.6683,0.25931,-0.23305,0.063225,20.94,-1.32,31.26
4.7535,-6.674,-10.379,0.07758,0.18234,-0.095906,21.18,-1.38,31.44
2.5198,-3.4323,-6.4152,0.07422,-0.19212,-0.11423,21.24,-1.26,31.62
3.8273,-2.8603,-8.4174,-0.010079,-0.18326,-0.25626,21.3,-1.14,31.62
4.3858,-1.9613,-8.5944,-0.040623,0.033903,-0.40959,21.48,-1.08,31.68
5.1485,-6.851,-8.717,-0.22785,0.26817,-0.45082,21.66,-0.96,31.98
2.152,-4.6445,-7.355,-0.18265,0.031154,-0.38087,21.66,-0.9,32.22
3.8137,-3.0918,-9.6977,0.041539,0.026267,-0.26267,22.02,-0.78,32.4
4.9306,-1.1577,-7.9679,0.060476,0.12798,-0.35339,22.02,-0.78,32.34
3.9227,-2.7649,-9.3708,0.26512,0.24038,-0.13989,22.08,-0.66,32.4
3.2825,-5.0531,-7.5457,0.12401,0.35766,-0.32865,22.08,-0.3,32.46
3.8409,-1.0215,-5.6933,0.16493,0.032681,-0.4331,22.02,-0.24,32.4
4.3313,-5.9249,-6.7829,0.32284,0.37141,-0.38301,22.02,-0.24,32.46
6.674,-1.5391,-8.4991,-0.13897,-0.044288,-0.59223,21.78,-0.18,32.52
8.1041,-5.38,-9.5751,-0.38637,-0.0097738,-0.94287,21.66,-0.18,32.4
6.1292,-8.036,-8.1041,-0.31062,-0.16157,-0.80237,21.6,-0.18,32.4
-0.51757,-6.5105,-4.6718,-0.12981,-0.0076358,-0.62369,21.54,-0.06,32.46
5.094,-1.4438,-8.0496,-0.1182,-0.043066,-0.84696,21.36,0.12,32.52
5.3528,-4.5356,-10.692,0.10934,0.025656,-0.64171,21.36,0.3,32.58
3.6775,-1.4574,-6.2517,0.3207,0.26817,-0.55803,21.0,0.48,32.34
5.7342,-6.4152,-8.826,0.29108,0.20311,-0.50946,20.88,0.54,32.22
2.5879,-7.1507,-6.1836,0.13714,0.22877,-0.63408,20.82,0.6,32.16
2.656,-4.9578,-6.3335,0.025045,0.049175,-0.78741,20.7,0.66,32.1
2.5879,-2.2337,-5.6661,0.093157,0.021991,-0.68936,20.52,0.6,31.92
3.9635,-2.9284,-9.2074,0.090408,0.11362,-0.56139,20.46,0.78,31.8
4.9306,-6.2245,-6.9464,-0.24312,0.068111,-0.8882,20.28,0.84,31.62
0.61292,-3.3234,-6.5514,-0.020464,0.060476,-0.48808,20.22,1.02,31.38
3.7592,-1.5119,-8.3084,-0.076358,-0.10721,-0.81581,20.16,1.14,31.32
7.4503,-3.4323,-9.221,-0.051924,-0.053756,-0.67256,20.04,1.08,31.26
5.4754,-1.757,-9.902,0.073609,-0.11301,-0.49969,19.8,1.32,30.9
5.598,-3.228,-7.2324,-0.088575,0.11179,-0.53298,19.68,1.38,30.84
2.547,-2.4789,-9.0439,0.18906,0.15944,-0.19731,19.5,1.68,30.78
5.8976,-4.9578,-7.246,-0.075747,-0.035125,-0.43005,19.32,1.68,30.78
5.2302,-3.8682,-8.0769,-0.011301,-0.17379,-0.39126,19.2,1.8,30.78
1.5391,-0.78998,-5.5162,0.31551,-0.22938,-0.20769,19.14,1.98,30.78
11.605,-7.5729,-12.04,-0.12706,-0.23213,-0.37446,19.02,2.22,30.66
2.9148,-1.362,-5.5435,0.23305,-0.039095,-0.354,19.02,2.28,30.54
0.83084,0.8036,-6.3743,0.51801,-0.18173,-0.029932,19.02,2.46,30.78
6.9191,-3.3778,-10.569,0.49786,0.04612,0.17837,18.96,2.64,30.72
11.182,-6.3198,-10.379,0.23213,-0.027184,-0.064141,18.9,2.76,30.72
4.7126,-3.4323,-6.3335,0.19181,-0.22602,-0.021991,18.9,2.88,30.54
1.0488,-3.514,-6.17,0.20983,-0.30788,0.20922,18.96,3.0,30.42
8.6081,-10.978,-10.215,-0.11881,-0.54245,-0.07025,18.96,3.3,30.3
0.53119,-4.3449,-5.1894,0.15394,-0.31673,0.010079,18.84,3.42,30.0
5.8704,-4.2223,-10.474,0.036346,-0.59956,-0.2364,18.84,3.48,29.94
2.0022,0.21793,-7.5048,0.06353,-0.37354,-0.13073,19.14,3.96,29.64
2.5334,1.076,-9.2755,0.56841,-0.20189,0.42608,19.26,4.08,29.64
5.4754,-1.6753,-9.2891,0.67928,0.27703,0.6353,19.5,4.44,29.52
3.5413,-3.3234,-7.069,0.73059,0.44257,0.7645,19.62,4.98,29.58
4.0861,-5.2575,-7.5048,0.5339,0.10537,0.52168,19.74,5.22,29.52
2.3972,-4.3313,-5.4073,0.3485,-0.15638,0.40928,19.86,5.64,29.34
4.6445,-4.0589,-11.046,-0.10537,-0.47709,0.14722,19.86,5.82,29.34
6.2517,-9.5887,-7.9134,-0.30421,-0.3882,0.26786,19.98,6.18,29.46
-0.23155,-4.2904,-6.279,-0.10415,-0.44318,0.11515,20.1,6.42,29.4
4.5764,-3.6503,-8.4855,-0.22907,-0.047342,0.10629,20.28,6.66,29.28
4.8625,-1.757,-8.9622,-0.063225,-0.22755,0.31001,20.46,6.78,29.52
5.775,-6.9464,-8.7034,-0.10324,-0.048564,0.2251,20.58,7.14,29.82
2.0567,-6.7012,-6.4697,-0.074526,-0.26298,0.3821,20.64,7.26,29.82
2.6696,-3.732,-8.322,-0.13592,-0.56047,0.099571,20.76,7.32,29.82
5.6388,-5.2438,-9.6568,-0.24801,-0.34453,0.0015272,21.06,7.14,30.0
3.337,-5.4481,-7.0553,-0.13103,-0.39309,0.10263,21.12,7.2,30.18
1.4301,-6.0611,-7.246,-0.030543,-0.20495,0.20311,21.24,7.14,30.3
7.069,-8.2131,-12.081,0.044899,0.18448,-0.065668,21.72,6.96,30.6
7.0417,-6.6876,-8.9349,-0.1408,-0.42638,-0.28772,21.96,6.96,30.66
0.50395,1.4438,-3.8954,0.41997,-0.56139,0.17379,22.14,6.84,30.78
5.5707,-3.8137,-9.4934,0.24771,0.19945,-0.093157,22.38,6.84,31.14
5.4209,-3.0646,-9.0303,0.27061,-0.016493,0.030849,22.5,7.02,31.32
4.4811,-4.7944,-5.094,-0.0058032,-0.21289,0.057116,22.86,7.08,31.44
1.757,-3.2689,-6.5786,-0.10446,-0.13195,-0.032681,23.04,7.14,31.56
4.3449,-5.6388,-8.2403,-0.23335,0.098349,-0.30024,23.22,6.96,31.68
3.5277,-7.2596,-6.8238,-0.22205,0.16402,-0.26725,23.22,6.84,31.74
3.4868,-2.0839,-7.3277,-0.23793,-0.0030543,-0.47892,23.34,6.9,31.86
4.3858,-4.522,-10.311,-0.19761,0.15669,-0.46609,23.58,6.72,31.86
3.3642,-5.9249,-8.5127,-0.1127,0.11148,-0.38729,23.58,6.72,31.86
2.7513,-2.3427,-6.565,0.061392,0.0562,-0.36011,23.4,6.9,32.04
2.833,-3.4868,-6.9464,0.17226,0.30665,-0.27458,23.34,6.9,32.16
5.2438,-5.884,-9.6977,0.092241,0.44166,-0.33872,23.28,6.78,32.22
3.9635,-4.6037,-8.1722,0.027794,0.22633,-0.39981,23.22,6.78,32.16
3.623,-3.8954,-7.5321,0.07758,0.24984,-0.51343,23.16,6.78,31.98
4.2223,-4.2768,-8.036,0.068722,0.28802,-0.55008,23.16,6.72,32.1
3.6775,-6.3062,-7.7636,-0.083078,0.19823,-0.55589,22.74,6.6,32.04
3.4187,-5.5026,-8.4174,-0.037263,0.21991,-0.52779,22.5,6.66,31.92
4.0589,-5.3119,-7.8998,-0.05681,0.075747,-0.54947,22.32,6.6,31.8
3.7047,-3.6094,-9.0575,-0.041844,0.19364,-0.52504,22.14,6.66,31.74
4.9306,-4.4539,-8.7987,-0.04215,0.28161,-0.56597,21.96,6.54,31.56
2.5606,-5.0531,-6.8238,-0.025962,0.38362,-0.47556,21.42,6.66,31.44
3.2961,-3.1599,-6.7693,-0.025351,0.37538,-0.68111,21.3,6.6,31.32
3.4323,-0.54481,-6.1564,0.019242,0.33781,-0.59498,21.0,6.6,31.08
7.8998,-6.9464,-9.5342,-0.18815,0.42211,-0.52565,20.7,6.54,30.66
5.0123,-6.7285,-7.1234,-0.34758,0.32529,-0.55436,20.4,6.48,30.6
2.2746,-2.9148,-5.7614,-0.26878,0.19884,-0.70647,20.1,6.48,30.48
4.8352,-1.0624,-8.2812,-0.19242,0.22235,-0.46304,19.38,6.48,30.24
7.8045,-4.4402,-10.733,-0.35003,0.1292,-0.43402,19.14,6.48,30.06
5.8567,-4.8761,-9.2482,-0.3372,0.092852,-0.4218,18.66,6.24,30.12
2.2065,-3.9499,-7.5457,-0.23396,0.15821,-0.29688,18.42,6.3,30.0
2.4789,-2.0158,-8.9622,-0.20983,-0.01069,-0.39767,18.24,6.06,29.94
4.5083,-1.4165,-7.3686,-0.10232,0.14294,-0.2645,17.76,6.18,29.7
3.8682,0.31327,-10.569,0.17898,0.14325,-0.039706,17.46,6.12,29.52
7.9951,-6.4016,-8.8532,0.075442,0.2868,0.1295,17.34,6.12,29.46
5.9793,-5.4618,-11.114,0.24526,-0.068417,0.25137,16.74,5.94,29.58
8.7987,-8.1177,-8.6353,0.14997,-0.069333,0.21166,16.5,5.94,29.52
2.8058,-2.0975,-5.3256,0.48839,0.0097738,0.26512,16.2,6.0,29.34
2.6968,-2.152,-9.3436,0.29902,-0.051618,0.025351,16.08,6.06,29.4
4.0589,-2.2474,-6.851,0.43891,0.2419,0.36469,15.96,6.18,29.34
7.1098,-3.7047,-9.902,0.2642,-0.16799,0.15302,15.9,6.3,29.28
3.5822,-4.5764,-7.1779,0.33109,-0.061392,0.343,15.72,6.54,28.92
4.0044,-5.775,-7.9815,0.2364,-0.053145,0.35125,15.72,6.72,28.92
3.6911,-5.3256,-6.1155,0.087354,-0.25443,0.13286,15.72,6.96,28.92
3.9363,-2.3427,-8.7579,0.21014,-0.36469,0.16585,15.78,7.02,28.74
5.9657,-2.1384,-9.6704,0.098044,-0.33231,0.146,15.72,7.2,28.68
4.7944,-3.9771,-8.1313,0.18692,-0.076358,0.3372,15.6,7.44,28.56
3.9635,-6.3471,-7.246,0.1182,0.069333,0.4163,15.84,7.98,28.26
3.9227,-4.9033,-7.6955,0.11881,-0.10904,0.33414,16.02,8.28,28.26
3.6094,-3.0237,-7.2324,0.19517,-0.23732,0.32559,16.2,8.46,28.32
5.4754,-4.6445,-9.1256,0.25992,-0.0061087,0.48319,16.38,8.46,28.32
4.1133,-5.6388,-6.5378,0.28863,0.14386,0.51252,16.32,8.7,28.32
3.0373,-4.413,-6.7693,0.26389,0.017715,0.40745,16.32,8.88,28.38
3.5413,-1.9205,-7.8181,0.14355,-0.13225,0.26878,16.62,9.36,28.56
3.8001,-4.5764,-8.0632,-0.024129,0.038179,0.36774,16.56,9.42,28.62
5.3119,-6.3198,-8.0088,-0.2923,0.002138,0.27855,16.56,9.6,28.56
3.2416,-5.6388,-10.025,-0.23305,-0.083689,0.24801,16.62,9.78,28.62
5.2847,-5.0259,-6.8102,-0.54703,-0.38485,-0.11729,16.8,9.78,28.62
0.21793,1.7025,-6.8238,-0.06353,-0.43707,0.27367,17.04,9.78,28.68
7.5048,-7.3822,-7.8181,-0.27642,0.4047,0.25626,17.22,9.84,28.92
4.127,-3.9908,-8.0905,-0.11209,-0.019853,0.48381,17.22,9.66,29.1
6.8102,-7.4912,-11.605,-0.41936,-0.24984,0.22174,17.4,9.54,29.1
0.72188,-6.7557,-3.8546,0.10843,-0.36072,0.57238,17.58,9.42,29.16
3.8682,-1.7979,-11.891,-0.22388,-0.19853,-0.38668,17.64,9.42,29.28
1.9341,-3.6911,-5.094,0.016493,-0.16554,0.06017,18.06,9.12,29.46
2.0431,0.61292,-7.9134,0.17593,-0.16463,-0.017715,18.12,9.0,29.7
6.7693,-5.6661,-7.2869,0.1011,0.23579,-0.015272,18.42,8.88,29.82
4.8897,-3.9227,-7.3141,-0.075747,-0.25198,0.20953,18.48,8.7,30.06
4.1406,-3.4596,-7.6683,-0.17257,-0.45907,0.22358,18.6,8.58,30.12
3.7047,-6.8374,-7.927,-0.32009,-0.047647,0.073915,18.9,8.58,30.36
2.6015,-3.7728,-7.2324,-0.29963,-0.33201,-0.096822,19.14,8.52,30.24
