Ax,Ay,Az,Gx,Gy,Gz,Mx,My,Mz
7.6138,-2.9556,-5.0531,-0.2419,0.24496,-0.048258,-36.72,-2.4,4.74
8.2131,-3.8546,-4.9578,-0.21166,0.18998,-0.065057,-36.78,-2.46,4.56
8.7034,-2.942,-5.3528,-0.32193,0.21136,-0.1912,-37.02,-2.7,4.2
8.0088,-3.4868,-5.9657,-0.30879,0.073304,-0.26664,-37.26,-2.82,4.08
7.4776,-3.4868,-5.6388,-0.31185,0.11973,-0.27,-37.26,-2.94,4.14
8.717,0.095342,-6.3471,-0.33506,0.14875,-0.19639,-37.44,-3.06,3.96
8.1586,-2.0839,-5.775,-0.38393,-0.33078,-0.11881,-37.38,-3.3,3.66
8.2948,-1.757,-6.7285,-0.45845,-0.32376,-0.11026,-37.5,-3.36,3.54
9.2891,-2.833,-6.0883,-0.54703,-0.39034,-0.21747,-37.5,-3.48,3.6
9.3844,-2.1384,-5.6933,-0.48014,-0.3598,-0.30421,-37.68,-3.6,3.54
9.3163,-2.1793,-5.2166,-0.40348,-0.43371,-0.27061,-37.74,-3.78,3.48
7.3822,0.10896,-3.7728,-0.33475,-0.40134,-0.17746,-37.74,-4.02,3.42
11.577,-2.2882,-6.17,-0.25565,-0.48717,-0.070555,-37.68,-4.5,3.48
10.324,-2.9965,-5.8976,-0.26909,-0.82009,-0.23976,-37.56,-4.62,3.48
5.8976,-1.5119,-4.413,-0.14294,-0.82406,-0.10812,-37.62,-4.56,3.78
7.5321,-1.8932,-5.2847,-0.07422,-0.56016,-0.14997,-37.56,-4.68,4.08
7.2869,-1.9613,-5.5707,-0.043066,-0.54856,-0.19151,-37.32,-4.86,4.68
8.2812,-2.6696,-5.7069,-0.05681,-0.48686,-0.1912,-37.38,-4.98,4.8
5.4754,-2.6832,-4.4947,0.013439,-0.66371,-0.17868,-37.32,-5.28,5.64
5.9657,-1.7706,-4.9306,0.086743,-0.36133,-0.036346,-37.32,-5.34,6.12
7.9815,-2.2337,-5.993,0.10049,-0.33995,-0.021991,-37.08,-5.52,6.66
6.8647,-3.4051,-6.3062,0.11698,-0.47953,-0.036346,-36.84,-5.7,7.32
6.0883,-2.7377,-5.993,0.11668,-0.41997,-0.049175,-36.54,-5.7,7.8
5.3256,-2.0839,-5.3937,0.13408,-0.34025,0.0018326,-36.42,-5.76,8.22
8.5127,-2.2882,-6.5241,0.10629,-0.043677,-0.0042761,-36.18,-5.7,9.06
7.7772,-2.3427,-5.6116,0.12401,-0.1628,0.026267,-36.24,-5.7,9.48
7.3958,-2.8467,-6.2109,0.092852,-0.20647,0.0039706,-36.18,-5.76,9.96
8.1586,-3.8954,-7.0962,0.044288,-0.13989,0.029627,-36.0,-6.0,10.32
5.8159,-1.6344,-5.4481,0.16493,-0.073915,0.076053,-35.94,-5.88,10.44
7.355,0.6674,-6.1292,0.20739,-0.012523,0.10415,-35.82,-5.94,10.74
9.2074,-2.942,-7.5321,0.19212,-0.4328,0.13989,-35.7,-6.0,11.1
7.9951,-2.3291,-6.5786,0.13347,-0.33811,-0.065057,-35.64,-6.06,11.22
7.4776,-2.0839,-5.6933,0.15119,-0.39309,-0.034514,-35.64,-5.94,11.28
6.9055,-2.8467,-5.5026,0.20769,-0.43707,-0.043371,-35.7,-5.82,11.46
8.0769,-1.6753,-5.884,0.19609,-0.25992,-0.15058,-35.76,-5.94,11.4
8.9349,-2.2882,-6.6876,0.20617,-0.41478,-0.14416,-35.76,-5.94,11.46
5.8295,-1.6889,-5.0804,0.26725,-0.36957,-0.035125,-35.46,-6.0,11.7
8.1586,-2.4653,-6.3743,0.21502,-0.33048,-0.051313,-35.34,-5.94,11.76
6.3335,-3.8001,-5.9249,0.28741,-0.51832,0.040012,-35.16,-5.94,11.82
7.5457,-3.6775,-7.1507,0.17043,-0.27061,-0.1179,-35.04,-5.88,12.36
4.9169,-2.1248,-5.5571,0.19639,-0.33995,-0.050091,-34.98,-5.94,12.54
4.7671,-1.3212,-5.6252,0.22113,-0.22602,0.076664,-34.86,-5.76,12.66
7.246,-1.1577,-6.8374,0.15577,-0.27825,0.16952,-34.74,-5.64,13.2
6.9055,-3.7865,-7.246,0.10049,-0.56841,0.24648,-34.62,-5.52,13.32
5.6252,-4.2087,-7.1098,0.015272,-0.51496,0.30482,-34.44,-5.52,13.62
5.775,-3.3097,-6.0883,-0.019548,-0.3989,0.31918,-34.08,-5.34,14.1
6.3335,-3.2144,-6.7012,0.068111,-0.41081,0.3485,-34.02,-5.16,14.52
6.9464,-3.0782,-7.0145,0.069639,-0.38057,0.30604,-33.72,-5.1,14.88
6.9191,-2.0839,-5.6661,0.061697,-0.29383,0.27367,-33.66,-4.98,15.48
7.1779,-4.5901,-6.6604,0.10568,-0.489,0.35491,-33.48,-4.8,15.84
7.0553,-6.0474,-7.3822,0.043371,-0.51374,0.26237,-33.3,-4.68,16.2
6.8783,-1.9068,-6.5241,0.015272,-0.15302,0.27428,-32.88,-4.2,16.5
7.7364,-3.1599,-7.7364,0.047037,-0.40959,0.19303,-32.76,-4.08,16.74
6.0883,-4.5628,-7.3822,-0.03207,-0.26848,0.042455,-32.7,-3.96,16.98
5.6933,-4.0316,-6.9872,0.000305,-0.14233,0.06017,-32.04,-3.54,17.4
4.9169,-3.1735,-6.0747,0.032376,-0.17562,0.033903,-31.86,-3.36,17.58
5.7614,-3.1735,-6.8102,0.12034,0.089797,0.098044,-31.68,-3.3,17.7
5.4618,-4.8352,-7.8045,0.12706,-0.002138,0.099571,-31.56,-3.12,18.06
5.38,-4.9442,-7.5865,0.090408,0.077274,0.010385,-31.44,-3.06,18.24
6.1564,-5.0123,-7.9951,0.038485,0.13378,-0.10904,-31.38,-2.88,18.24
4.8761,-3.732,-6.0883,0.079107,0.17257,-0.098349,-31.2,-2.7,18.48
6.5378,-3.9635,-6.9736,0.10873,0.40195,-0.16829,-31.08,-2.46,18.48
5.9249,-3.0918,-5.884,0.16157,0.36805,-0.1405,-31.26,-2.28,18.54
5.8704,-4.4947,-7.8317,0.13256,0.38515,-0.09499,-31.32,-2.4,18.78
5.8295,-5.6388,-6.8238,0.080329,0.28283,-0.1347,-31.2,-2.52,18.6
5.0395,-3.3097,-5.884,-0.009163,0.58887,-0.16799,-31.32,-2.58,18.48
6.3743,-0.96704,-5.9385,0.072388,0.50977,-0.16066,-31.56,-2.58,18.3
6.565,-3.5822,-7.1507,0.075747,0.37629,-0.14478,-31.8,-2.58,18.12
6.9055,-4.127,-7.6138,-0.041539,0.40928,-0.19151,-31.98,-2.58,18.06
6.0202,-3.2144,-6.1564,-0.05284,0.28283,-0.15577,-32.1,-2.52,18.0
7.355,-2.6696,-6.9191,-0.065668,0.41478,-0.19517,-32.4,-2.64,17.46
7.7227,-4.2087,-7.8862,-0.057421,0.22816,-0.25412,-32.52,-2.7,17.4
6.3062,-3.3506,-6.6467,-0.053756,0.22755,-0.27978,-32.7,-2.88,17.1
8.4855,-2.1656,-7.1507,-0.053756,0.37354,-0.29658,-33.12,-2.94,16.74
6.2926,-3.1599,-6.0611,0.098044,0.043982,-0.1631,-33.06,-3.0,16.5
7.1779,-3.6911,-6.9872,-0.0015272,0.29505,-0.21961,-33.18,-3.18,16.26
5.6797,-3.5549,-5.3256,0.094684,0.12584,-0.17104,-33.42,-3.12,15.84
6.8374,-2.6968,-5.38,0.083994,0.34117,-0.23488,-33.42,-3.3,15.72
7.2869,-3.2144,-6.4833,0.093768,0.27367,-0.22816,-33.48,-3.42,15.48
6.0747,-3.8273,-5.5843,0.12553,0.197,-0.26817,-33.78,-3.72,15.12
6.674,-4.0452,-6.4424,0.041844,0.40714,-0.27122,-33.9,-4.02,14.82
6.9055,-4.2768,-5.8704,0.030543,0.40317,-0.29719,-33.9,-4.2,14.7
7.0553,-3.8409,-6.2245,0.048564,0.48808,-0.34208,-34.14,-4.38,14.34
5.2575,-3.7047,-5.6388,0.13378,0.39676,-0.15088,-34.26,-4.5,13.92
5.489,-3.5958,-5.5707,0.11179,0.62827,-0.1741,-34.26,-4.56,13.8
8.1177,-4.3994,-7.3141,0.047037,0.57482,-0.20892,-34.44,-5.1,13.32
6.1155,-3.9771,-5.6252,0.093157,0.41356,-0.24435,-34.74,-5.4,12.96
4.9306,-1.8932,-4.699,0.20036,0.63744,-0.15852,-34.86,-5.52,12.78
8.4855,-5.0531,-6.8647,0.14997,0.70188,-0.1628,-35.28,-5.94,12.24
5.8295,-4.018,-4.7807,0.1463,0.47281,-0.13164,-35.4,-6.0,11.88
5.9112,-2.5334,-4.8216,0.014355,0.84452,-0.21044,-35.46,-6.12,11.76
8.7034,-3.6366,-5.884,-0.0064141,0.70891,-0.22327,-35.76,-6.24,11.4
7.2324,-3.5549,-6.2381,-0.059559,0.70799,-0.18295,-35.88,-6.42,10.68
10.256,-5.0259,-6.17,-0.17562,0.58246,-0.3824,-36.06,-6.54,10.2
5.6933,-1.2803,-6.1836,-0.14294,0.51282,-0.19975,-36.24,-6.9,9.48
10.733,-3.4732,-7.3822,-0.35613,0.70555,-0.20617,-36.42,-7.14,9.18
9.221,-4.018,-5.3937,-0.36927,0.43219,-0.21533,-36.48,-7.26,8.76
5.3664,-1.4301,-5.1213,-0.23824,0.36591,0.018326,-36.54,-7.38,8.28
9.112,-2.9011,-6.0474,-0.21441,0.4609,0.20708,-36.78,-7.5,7.38
9.3163,-3.514,-6.851,-0.22663,0.30696,0.13592,-36.84,-7.56,7.02
8.5672,-3.2144,-6.4697,-0.22999,0.23671,0.13317,-37.08,-7.74,6.66
7.9134,-2.6968,-4.699,-0.11393,0.47159,0.22846,-37.26,-7.92,6.06
8.8941,-3.2825,-4.8216,-0.085521,0.4331,0.23671,-37.32,-8.1,5.76
8.2812,-2.9829,-4.9033,-0.068417,0.38729,0.24954,-37.44,-8.22,5.34
8.322,-4.5083,-4.9987,-0.058338,0.39431,0.2584,-37.5,-8.34,4.86
6.6604,-2.3155,-4.522,-0.10293,0.39706,0.14508,-37.56,-8.34,4.62
6.9872,-1.9477,-5.0395,-0.092241,0.52779,0.25687,-37.68,-8.34,4.44
8.1858,-3.5685,-4.5356,-0.18387,0.47739,0.21869,-37.5,-8.04,4.02
7.6002,-2.6696,-4.9033,-0.19792,0.52809,0.2416,-37.68,-7.92,3.72
8.1177,-2.9692,-4.9033,-0.20617,0.49541,0.24221,-37.68,-7.8,3.6
8.9077,-4.1814,-5.1894,-0.2419,0.50335,0.22266,-37.56,-7.5,3.12
8.54,-3.4596,-5.0531,-0.27855,0.52473,0.16799,-37.56,-7.38,2.76
6.8374,-1.8387,-4.4402,-0.23885,0.42455,0.26756,-37.5,-7.26,2.58
9.9973,-2.5879,-6.2245,-0.40836,0.4722,0.1967,-37.56,-6.96,1.68
9.0439,-2.7786,-5.38,-0.3711,0.28802,0.33323,-37.56,-6.72,1.32
8.5263,-1.866,-5.4209,-0.45296,0.30299,0.33414,-37.56,-6.48,1.26
9.9973,-4.8352,-5.2711,-0.47312,0.048258,0.2981,-37.74,-6.12,0.84
7.9951,-3.5549,-5.1349,-0.52993,0.095295,0.31979,-37.74,-6.06,0.54
7.5321,-2.3836,-4.2632,-0.45326,0.16707,0.45876,-37.74,-5.88,0.24
10.311,-2.5742,-5.7614,-0.43463,0.047647,0.57574,-37.98,-5.58,-0.48
10.896,-5.3392,-5.5707,-0.44379,-0.24343,0.50305,-37.98,-5.58,-0.6
7.246,-4.1542,-4.5083,-0.35277,-0.17837,0.5901,-38.04,-5.52,-0.84
8.54,-2.1248,-5.1485,-0.34239,0.12584,0.61636,-38.16,-5.1,-0.96
11.237,-5.094,-5.1213,-0.34728,-0.14478,0.489,-38.28,-4.92,-0.9
7.8045,-4.0452,-5.0668,-0.38118,-0.35705,0.41875,-38.22,-4.62,-0.96
8.54,-2.9011,-4.2359,-0.49175,-0.079718,0.44715,-38.16,-4.08,-0.66
9.6704,-4.8625,-4.522,-0.44593,-0.39218,0.48381,-38.16,-3.9,-0.54
7.9951,-3.1599,-6.3198,-0.54367,-0.31673,0.41233,-38.1,-3.72,-0.66
7.7091,-2.4789,-4.7126,-0.49175,-0.40989,0.56566,-37.98,-3.18,-0.54
8.2812,-2.1248,-6.1564,-0.50916,-0.35858,0.61758,-37.74,-2.88,-0.3
8.3765,-4.127,-6.0338,-0.53176,-0.51649,0.62186,-37.74,-2.64,-0.06
6.5105,-2.4517,-5.4754,-0.5006,-0.65515,0.59743,-37.62,-2.4,0.24
8.3765,-4.0316,-5.6524,-0.53206,-0.44685,0.5959,-37.44,-1.74,0.72
6.8374,-3.7047,-4.0725,-0.54764,-0.51985,0.5006,-37.32,-1.32,1.14
7.8317,-3.0237,-5.7342,-0.5171,-0.31979,0.48717,-37.08,-1.08,1.86
7.9679,-4.8488,-4.808,-0.41539,-0.54062,0.53451,-36.54,-0.48,2.88
7.2052,-3.7728,-4.9442,-0.40745,-0.48869,0.43616,-36.3,-0.06,3.66
8.4038,-5.38,-6.0747,-0.45998,-0.41356,0.36652,-36.18,0.24,4.62
5.0531,-2.8603,-3.732,-0.33659,-0.54306,0.3992,-35.94,0.48,5.28
7.1507,-2.6015,-5.1485,-0.28222,-0.075442,0.52076,-35.64,0.9,5.94
7.8726,-6.3198,-6.279,-0.23854,-0.46426,0.43127,-35.22,1.02,6.78
4.3858,-2.8875,-4.3449,-0.26878,-0.41325,0.31551,-34.92,1.32,7.38
4.127,-0.98067,-3.7184,-0.25381,-0.009163,0.31826,-34.74,1.32,7.8
7.5457,-5.9793,-7.1234,-0.15669,-0.045204,0.4386,-34.62,1.68,8.28
6.8102,-7.8317,-6.9055,-0.32803,-0.12278,-0.041844,-34.26,1.74,8.7
4.2768,-2.4789,-4.7535,-0.38179,0.19212,-0.048564,-34.08,1.86,8.7
8.1586,-3.6775,-5.7886,-0.12187,0.18448,0.15241,-33.78,2.1,9.0
9.2891,-2.8603,-6.7693,-0.25779,0.26084,-0.013439,-33.54,2.1,9.18
9.0167,-5.7886,-7.6546,-0.24954,-0.13836,0.016799,-33.3,2.34,9.48
5.5026,-2.0294,-4.6173,-0.21747,-0.0033598,-0.011912,-33.3,2.34,9.84
7.4231,-1.7025,-6.1292,-0.21655,0.26023,0.0094684,-33.24,2.4,9.9
8.3357,-3.0237,-6.1564,-0.15149,0.091019,0.033292,-33.24,2.46,9.84
7.1234,-2.9965,-6.9872,-0.21747,0.021075,0.01405,-33.06,2.34,9.84
6.9872,-3.5277,-6.1564,-0.20708,-0.058032,0.030849,-33.06,2.46,9.66
7.7908,-4.9306,-7.3141,-0.32651,-0.11942,-0.1741,-32.82,2.28,9.42
5.9112,-2.3836,-5.2166,-0.32865,0.029932,-0.28253,-32.7,2.16,9.18
5.9249,1.58,-3.9227,-0.20617,0.25015,-0.083078,-32.76,2.1,9.0
9.9565,-4.8352,-7.355,-0.23488,0.026878,-0.20281,-32.58,1.98,8.82
6.5105,-3.9635,-5.3937,-0.34331,-0.31062,-0.25779,-32.46,1.8,8.76
5.2847,-1.1577,-4.2632,-0.34606,-0.0082467,-0.090713,-32.46,1.74,8.58
8.1041,-3.2825,-5.6388,-0.16677,-0.31826,-0.083689,-32.34,1.56,8.4
6.8374,-3.1191,-6.6467,-0.1295,-0.33109,-0.10996,-32.1,1.56,8.34
6.5105,-2.9692,-5.4481,-0.15791,-0.18479,-0.11301,-31.92,1.5,8.34
7.7908,-4.6037,-7.4503,-0.076969,-0.22907,-0.20617,-31.86,1.38,8.46
7.1098,-4.8352,-6.5786,-0.031154,-0.23518,-0.26267,-31.92,1.38,8.4
6.6195,-2.2882,-4.8625,0.0058032,0.18448,-0.26176,-31.92,1.32,8.58
7.9543,-4.8761,-5.5162,0.04215,0.035125,-0.30116,-31.86,1.2,8.7
6.5514,-5.9793,-5.5162,-0.0085521,0.033903,-0.35888,-31.92,1.26,8.82
7.5593,-3.6094,-6.279,-0.086437,0.35827,-0.30665,-31.8,1.14,8.82
7.4776,-3.3506,-6.2654,-0.06353,0.2248,-0.23366,-31.74,1.14,8.76
7.3277,-3.4323,-6.96,-0.076969,0.30207,-0.24099,-31.8,1.14,8.7
6.0747,-3.051,-5.7205,0.018021,0.29291,-0.1405,-31.98,0.9,8.64
6.6331,-4.0861,-5.7342,0.10568,0.2981,-0.10018,-32.04,0.72,8.58
6.6331,-2.833,-5.6252,0.092546,0.40745,-0.12339,-32.04,0.66,8.58
9.0712,-3.7865,-6.9872,0.094073,0.44013,-0.18631,-32.4,0.42,8.16
6.6331,-4.8897,-4.808,0.016799,0.22571,-0.2138,-32.4,0.3,7.92
6.0611,-4.4811,-5.1349,-0.014966,0.3824,-0.22816,-32.4,0.24,7.68
6.5786,-3.6503,-4.4811,-0.007025,0.42272,-0.17165,-32.46,0.24,7.38
7.3686,-2.547,-6.456,-0.050396,0.52198,-0.11515,-32.64,0.12,6.9
10.106,-3.1599,-7.4776,-0.14539,0.41356,-0.17807,-32.7,0.12,6.6
8.145,-3.1054,-7.2188,-0.047953,0.18937,0.022297,-33.0,0.06,5.94
7.355,-3.623,-7.3686,-0.18784,0.11912,-0.0058032,-33.18,-0.12,5.7
5.2438,-1.4438,-5.0259,-0.17776,0.27061,-0.025962,-33.24,-0.18,5.4
11.618,-4.3858,-7.8181,-0.17501,0.2416,0.055283,-33.3,-0.18,4.68
8.5808,-5.7478,-6.3879,-0.26176,-0.15699,-0.13561,-33.3,-0.24,4.44
5.5162,-3.0782,-5.3528,-0.29474,0.29993,-0.14233,-33.48,-0.24,4.2
7.0417,-0.7355,-4.0861,-0.15608,0.31582,-0.03146,-33.54,-0.3,3.66
7.2733,-0.8036,-4.8352,-0.071166,0.36744,0.13806,-33.48,-0.24,3.48
10.855,-4.8216,-5.775,-0.19212,0.30696,-0.064446,-33.78,-0.3,3.48
3.9635,-1.7298,-3.1872,0.13225,-0.036041,0.13347,-34.02,-0.3,3.0
6.8919,-0.25879,-6.1019,0.11118,0.35125,0.24526,-34.2,-0.36,2.76
9.0439,-3.1191,-7.3141,-0.04612,0.24801,0.31185,-34.32,-0.48,2.46
5.7342,-2.438,-4.6718,-0.074526,0.16738,0.021686,-34.44,-0.6,2.16
4.985,-0.65378,-4.4539,0.070555,0.23915,0.28863,-34.44,-0.6,1.92
5.4481,-1.9886,-4.9306,0.084605,0.30635,0.43494,-34.56,-0.54,1.8
9.6432,-2.5742,-6.4969,-0.17349,0.4386,0.19456,-34.86,-0.48,1.62
8.6081,-2.3291,-6.0883,-0.20067,0.10324,0.15821,-35.04,-0.36,1.38
5.7886,-2.3018,-4.4811,-0.10843,0.19273,0.36652,-35.22,-0.48,1.14
9.9156,-4.9578,-6.8102,-0.27642,0.36927,0.39218,-35.22,-0.3,0.9
9.9292,-5.5571,-4.9169,-0.35339,0.22755,0.20586,-35.4,-0.3,0.66
7.3141,-1.5391,-5.3392,-0.32712,0.22694,0.24404,-35.34,-0.12,0.42
8.1995,-3.1054,-4.8488,-0.32132,0.34606,0.3204,-35.46,0.12,0.18
7.5184,-2.4653,-4.7807,-0.24954,0.29016,0.45051,-35.46,0.24,0.12
9.0848,-3.4732,-5.993,-0.28833,0.30329,0.42822,-35.52,0.54,-0.12
6.8783,-5.1076,-3.9908,-0.24862,0.034208,0.32223,-35.64,0.84,-0.36
4.2904,-0.44947,-4.9714,-0.18448,0.47647,0.5229,-35.58,1.02,-0.6
10.215,-4.0861,-5.6388,-0.22785,0.50427,0.53206,-35.58,1.44,-1.02
7.3414,-3.5277,-6.1973,-0.15699,0.023824,0.63011,-35.52,1.62,-1.08
9.0848,-3.1463,-7.5593,-0.31154,0.058338,0.49786,-35.52,1.8,-1.2
5.8976,-3.9363,-4.9987,-0.18326,-0.37446,0.56505,-35.52,2.16,-1.62
6.674,0.31327,-6.3471,-0.33903,0.11881,0.49511,-35.46,2.4,-1.8
9.398,-0.21793,-6.4969,-0.33201,0.092852,0.60353,-35.46,2.76,-1.74
7.8453,-4.2904,-6.5786,-0.36285,-0.59315,0.52107,-35.34,3.18,-1.92
6.7421,-2.1248,-5.6116,-0.53726,-0.46456,0.42516,-35.34,3.6,-1.92
7.1779,-2.3836,-4.127,-0.40745,-0.3879,0.58399,-35.28,3.9,-1.98
7.641,-2.3699,-5.1621,-0.39859,-0.41264,0.48991,-35.16,4.38,-1.62
8.9486,-3.337,-5.9521,-0.40287,-0.34361,0.49022,-35.1,4.74,-1.38
5.6116,-2.833,-5.1485,-0.29291,-0.71105,0.5226,-35.1,5.1,-1.14
7.6955,-2.3972,-6.5786,-0.4328,-0.28588,0.37629,-34.86,5.64,-0.78
6.7012,-3.9227,-4.2768,-0.23335,-0.63988,0.49297,-34.8,6.0,-0.48
5.598,-3.7728,-4.522,-0.30299,-0.30604,0.40195,-34.56,6.24,-0.12
7.8045,-7.1371,-6.2381,-0.34117,-0.44318,0.27519,-34.32,6.84,0.66
4.7263,-4.5901,-4.2359,-0.2697,-0.40836,0.2022,-34.2,7.08,1.08
4.4402,-1.58,-4.2768,-0.20495,0.090103,0.25687,-34.08,7.2,1.2
8.9349,-7.9951,-7.8862,-0.16616,0.10599,0.28894,-33.96,7.68,1.98
5.7069,-5.1213,-4.8352,-0.15913,-0.040928,0.039095,-33.78,7.86,2.28
3.9635,-2.1384,-3.8954,-0.14416,0.18876,0.1182,-33.6,8.1,2.52
8.1995,-4.4402,-6.565,-0.027489,0.26298,0.31673,-33.24,8.46,3.0
8.9622,-6.2245,-7.8589,-0.17715,0.087659,0.13256,-33.06,8.52,3.12
4.2087,-2.9011,-4.2904,-0.32009,0.085521,0.04612,-33.06,8.58,3.24
6.96,-3.8546,-5.5299,-0.17471,0.45265,0.16066,-33.0,8.94,3.54
7.8453,-5.5162,-5.8023,-0.12126,0.35003,0.094379,-33.0,9.06,3.54
6.1019,-4.4402,-5.5707,-0.13958,0.48289,0.075747,-33.12,9.12,3.66
7.4503,-3.514,-6.8647,-0.24374,0.57024,0.040623,-33.0,9.36,3.6
5.5707,-4.5356,-4.699,-0.10843,0.35247,0.135,-33.12,9.36,3.66
6.7966,-3.8273,-6.1292,-0.20983,0.69394,0.10599,-33.24,9.42,3.66
7.5729,-2.0975,-5.5162,-0.21411,0.60873,0.14478,-33.3,9.54,3.42
9.9973,-5.4754,-8.6625,-0.28955,0.53634,0.17685,-33.3,9.6,3.12
9.1529,-6.851,-8.4719,-0.42638,0.10629,0.04948,-33.42,9.6,3.0
5.0259,0.43585,-4.5356,-0.41997,0.57421,0.16677,-33.6,9.72,2.52
10.992,-2.4108,-6.5105,-0.38882,0.55161,0.12706,-33.72,9.78,2.28
9.9292,-4.7126,-6.6059,-0.29963,-0.17715,0.096822,-33.72,9.9,2.16
7.5184,-2.8058,-5.5435,-0.47098,0.19487,0.035125,-33.84,9.78,1.74
8.0632,-3.1599,-4.3449,-0.32406,0.058948,-0.015577,-33.96,9.78,1.62
6.6331,-0.51757,-3.9908,-0.30971,0.28527,0.027489,-33.96,9.84,1.38
11.06,-7.641,-7.7636,-0.35613,-0.20678,-0.21472,-34.32,10.02,1.2
3.5958,-0.8036,-3.3234,-0.29444,-0.030238,-0.1854,-34.26,10.08,0.84
8.0496,-1.4301,-4.5764,-0.28436,0.38057,-0.15058,-34.2,10.08,0.54
7.6683,-3.1191,-4.9578,-0.10324,-0.046731,-0.16066,-34.32,9.84,0.54
7.5729,-2.5061,-6.7693,-0.25045,0.10507,-0.14813,-34.38,9.78,0.54
7.5457,-1.8796,-5.6116,-0.21014,0.056505,-0.085521,-34.32,9.78,0.6
8.3629,-5.5571,-7.355,-0.20159,-0.085521,-0.16432,-34.5,9.6,0.6
5.5162,-4.1542,-4.413,-0.25534,-0.051007,-0.26053,-34.62,9.6,0.66
4.9578,-2.3427,-3.6775,-0.15027,0.29535,-0.1628,-34.62,9.42,0.66
10.188,-5.3119,-6.3879,-0.22938,0.37171,-0.29627,-34.68,9.18,0.66
6.0883,-4.2904,-5.0531,-0.1295,0.000916,-0.24648,-34.74,9.12,0.54
5.8704,-1.58,-4.4811,-0.14569,0.39004,-0.19456,-34.8,8.82,0.48
10.597,-3.4187,-6.4152,-0.12737,0.33384,-0.15058,-34.8,8.46,0.48
11.509,-7.6955,-6.279,-0.20861,-0.14783,-0.43463,-34.92,8.28,0.48
3.228,-1.6753,-3.5549,-0.21808,0.10934,-0.41569,-34.92,7.98,0.6
9.6704,-3.2825,-5.7205,-0.22694,0.47312,-0.20372,-34.86,7.92,0.3
10.324,-4.9306,-6.6604,-0.27061,0.043066,-0.33445,-34.86,7.74,0.18
6.456,-0.61292,-5.489,-0.26848,0.20433,-0.21136,-35.1,7.5,0.18
7.355,-2.5606,-5.4481,-0.17959,-0.053451,0.06353,-35.52,7.08,-0.12
7.355,-2.5606,-5.4481,-0.2306,-0.07758,-0.034819,-35.52,7.08,-0.12
6.3879,-0.8036,-5.4754,-0.34422,-0.058948,-0.20556,-35.76,6.66,-0.18
6.0202,0.21793,-5.1213,-0.27336,0.020769,-0.07086,-36.0,6.48,-0.3
9.507,-1.5527,-5.6661,-0.28222,-0.028405,-0.058643,-36.24,6.12,-0.12
8.0905,-1.8115,-5.2166,-0.29108,-0.12339,-0.081856,-36.42,6.12,-0.12
9.2482,-1.9341,-5.8023,-0.23824,-0.093157,-0.044899,-36.48,5.94,-0.18
7.8181,-2.2746,-4.9987,-0.066279,-0.28314,0.076358,-36.48,5.76,-0.12
9.1937,-0.01362,-6.8919,-0.066584,0.026878,0.029932,-36.78,5.64,-0.12
9.8611,-3.1872,-6.8238,-0.12187,-0.32437,0.020159,-36.9,5.58,0.18
5.203,-0.054481,-4.1133,-0.15363,-0.36163,-0.075136,-37.02,5.4,0.42
9.2891,-1.0624,-6.1564,-0.08491,-0.13378,0.15119,-37.02,5.34,0.54
9.4934,-2.5742,-5.38,-0.13653,-0.30482,0.073915,-36.96,5.4,0.72
9.1529,-1.5527,-6.4424,-0.07086,-0.28466,0.027184,-36.78,5.46,1.02
7.8726,-3.1599,-4.9442,-0.054672,-0.46517,-0.03879,-36.66,5.4,1.2
6.1292,0.27241,-4.9714,0.058948,-0.36255,0.026573,-36.54,5.4,1.38
9.5479,-2.6015,-6.3743,-0.000305,-0.51465,0.032987,-36.42,5.46,1.8
4.9033,-1.3757,-3.6911,0.14722,-0.41356,0.19059,-36.18,5.4,1.92
6.5378,0.35413,-5.1213,0.14325,-0.24618,0.24374,-36.0,5.4,1.98
7.6138,-4.3449,-4.9442,0.098655,-0.57696,0.18601,-36.0,5.58,2.58
3.9635,-1.4574,-4.0997,0.1799,-0.49052,0.19945,-35.94,5.58,2.7
7.5865,-3.2144,-6.9736,0.086743,-0.10873,0.22449,-35.94,5.58,2.94
5.8976,-2.2474,-6.5105,0.15852,-0.2193,0.42425,-35.88,5.7,3.24
8.2676,-3.0918,-7.6683,0.055894,-0.19975,0.354,-35.76,5.82,3.48
9.4389,-5.203,-7.9679,0.1405,-0.60231,0.41447,-35.64,5.88,3.6
5.2711,-2.3972,-7.7772,0.037568,-0.061087,0.46884,-35.46,5.94,3.96
8.3357,-2.6151,-6.9191,-0.031154,-0.13958,0.52779,-35.34,6.24,4.14
4.7535,-1.3893,-5.993,0.081551,-0.38912,0.84788,-35.22,6.36,4.38
11.319,-3.9771,-8.9758,-0.17654,-0.33139,0.71746,-34.92,6.9,4.56
7.5048,-4.3994,-5.6933,-0.12859,-0.79687,0.85032,-34.8,7.14,4.68
3.3506,-0.58567,-3.2144,-0.17379,-0.21869,0.94867,-34.8,7.44,4.86
9.5479,-6.8102,-7.0553,-0.12767,-0.67348,0.71441,-34.32,8.1,5.34
4.7807,-2.5061,-4.1406,-0.11393,-0.7703,0.59743,-34.14,8.46,5.52
5.8976,0.43585,-4.8352,-0.18082,-0.19028,0.58979,-33.9,8.82,5.76
7.2188,-8.3765,-8.0224,-0.12584,-1.0629,0.49663,-33.42,9.72,6.18
4.127,-6.0883,-4.9306,-0.22785,-0.42425,0.29627,-33.3,10.32,6.36
5.2711,-0.83084,-3.1735,-0.013744,-0.06017,0.16005,-33.0,10.68,6.6
5.4073,-3.2689,-6.3471,0.25015,-0.35308,0.3989,-32.52,11.58,7.2
6.9328,-7.2869,-10.61,-0.07025,-0.28558,0.11729,-32.34,11.94,7.5
4.0452,-2.9692,-4.5764,-0.20586,-0.002138,-0.013439,-32.16,12.3,7.86
6.2517,-3.337,-6.4833,0.0024435,0.21625,0.13989,-31.74,12.72,8.4
6.279,-5.5435,-7.3822,-0.041233,-0.065057,0.088881,-31.44,13.08,8.64
4.9987,-5.1213,-6.0611,-0.10415,0.25076,0.013134,-31.14,13.32,8.94
5.5707,-4.699,-7.2733,-0.051313,0.14325,-0.042761,-30.84,13.62,9.18
5.7069,-5.4618,-7.6138,-0.06017,0.47373,-0.17623,-30.78,13.8,9.24
5.8704,-4.2495,-6.3879,0.026267,0.63561,-0.17379,-30.6,14.16,9.36
5.7342,-4.2223,-6.7285,0.13164,0.59712,-0.09896,-30.66,14.16,9.3
5.2302,-3.5685,-5.6661,0.11393,0.67867,-0.079107,-30.6,13.86,9.06
6.2517,-2.7513,-6.3335,0.15821,0.84086,0.014355,-30.66,13.92,8.82
6.1428,-3.228,-6.851,0.13408,0.79535,0.037263,-30.72,13.92,8.64
7.0553,-4.127,-8.2676,-0.076969,0.81886,-0.043066,-30.84,13.8,8.22
6.4424,-5.4754,-7.8453,-0.1014,0.44104,-0.040012,-31.02,13.8,7.74
5.9385,-1.8387,-4.9306,-0.064141,0.91874,0.0076358,-31.26,13.8,7.02
7.8726,-2.1248,-6.0202,-0.078496,0.80543,-0.012217,-31.56,13.62,6.6
9.2482,-5.4209,-8.9213,-0.17471,0.38118,-0.13347,-31.92,13.56,6.12
4.6718,-2.8194,-5.0259,-0.208,0.44685,-0.15058,-32.52,13.5,5.16
6.7693,-2.833,-5.3392,-0.062614,0.62797,0.077274,-32.76,13.44,4.68
7.355,-2.2201,-5.2983,-0.074831,0.56139,0.045204,-32.82,13.38,4.2
8.1858,-3.4732,-6.2926,-0.082772,0.5568,0.16005,-33.18,13.5,3.24
7.9407,-5.9793,-6.3471,-0.17746,0.048258,0.011301,-33.36,13.62,2.88
4.699,-3.9635,-4.9306,-0.33995,0.56536,-0.018326,-33.42,13.56,2.4
6.674,-2.9965,-4.8216,-0.32773,0.68111,-0.058032,-33.78,13.5,1.86
7.9951,-5.203,-5.6524,-0.13928,0.54306,-0.20617,-34.26,13.5,0.9
7.2188,-3.4323,-5.3528,-0.16982,0.7535,-0.29841,-34.44,13.56,0.48
8.0632,-5.1757,-5.775,-0.11606,0.6295,-0.22816,-34.68,13.44,0.06
8.0224,-2.9284,-6.3062,-0.058643,0.71929,-0.15027,-34.92,13.62,-0.72
10.351,-5.5435,-7.641,-0.18265,0.53176,-0.085521,-35.1,13.5,-1.08
7.927,-6.674,-5.2847,-0.10996,0.45326,-0.068417,-35.34,13.38,-1.56
7.7364,-1.6208,-6.5378,-0.18723,0.92118,-0.17349,-35.52,13.02,-2.34
7.3686,-2.5334,-5.2302,-0.012523,0.64385,0.054062,-35.82,12.78,-2.94
8.7306,-2.8058,-6.1292,-0.022297,0.74128,-0.035736,-36.0,12.66,-3.3
9.3708,-7.7091,-4.9306,-0.16371,0.48411,-0.2697,-36.3,12.06,-4.26
3.8954,-4.6445,-4.7671,-0.14355,0.68356,-0.27061,-36.54,11.76,-4.62
7.1234,-1.9886,-5.4345,-0.20281,0.87873,-0.20708,-36.66,11.52,-5.1
10.188,-3.1599,-6.279,-0.2697,0.65332,-0.039095,-36.84,11.04,-5.76
9.9837,-3.4187,-6.0202,-0.45998,0.45845,-0.079718,-36.84,10.68,-6.18
8.4582,-4.0044,-5.2575,-0.46823,0.18845,0.053145,-36.9,10.5,-6.66
9.9973,-3.1872,-5.5707,-0.551,0.2306,0.069639,-37.26,9.9,-7.32
8.8532,-4.3858,-5.993,-0.44104,0.002138,0.086437,-37.32,9.66,-7.62
5.4754,-1.3212,-4.8352,-0.39645,0.17623,0.14478,-37.26,9.36,-7.8
9.507,-1.7979,-5.4754,-0.41386,0.12339,0.19823,-37.26,9.12,-8.1
9.221,-3.5549,-5.8295,-0.47281,-0.073304,0.12889,-37.26,8.94,-8.1
9.2618,-4.8625,-5.2575,-0.54367,-0.068111,-0.0036652,-37.2,8.7,-8.16
7.8589,-1.6344,-2.8058,-0.53023,0.21594,0.1295,-37.08,8.52,-7.98
9.3572,-2.0975,-4.2904,-0.5226,0.099571,0.071166,-37.02,8.46,-7.92
11.618,-4.0044,-5.5162,-0.53023,-0.071777,-0.047953,-37.02,8.46,-7.8
8.0632,-2.0839,-4.699,-0.48442,-0.09163,-0.0024435,-37.08,8.34,-7.8
8.4855,-2.2337,-4.2904,-0.34728,-0.027184,0.11362,-36.9,8.4,-7.62
7.3141,-1.5391,-4.2223,-0.19426,-0.016188,0.25381,-36.9,8.28,-7.38
10.106,-2.5334,-6.4016,-0.23091,-0.0036652,0.22938,-36.6,8.52,-6.9
8.0632,-3.2416,-5.0668,-0.079718,-0.19731,0.35613,-36.42,8.64,-6.78
6.7557,-2.261,-4.6718,-0.044899,-0.064446,0.4328,-36.24,8.88,-6.48
9.0439,-3.4732,-5.2983,-0.088881,-0.019853,0.49908,-36.12,9.0,-6.24
7.6002,-2.9011,-4.6037,-0.10324,-0.15882,0.49755,-35.94,9.12,-6.06
6.2109,-1.7025,-4.5356,-0.14386,-0.10324,0.55192,-35.82,9.42,-6.0
9.8611,-5.5435,-5.5435,-0.29505,-0.24526,0.36072,-35.52,9.6,-5.76
5.38,-1.3484,-5.2166,-0.44013,-0.017715,0.36408,-35.4,9.84,-5.7
11.673,-5.8295,-5.7886,-0.46334,0.050396,0.46701,-35.1,10.14,-5.22
8.0769,-5.6116,-4.5083,-0.36835,-0.49572,0.32651,-34.98,10.44,-4.98
6.0066,-1.4029,-5.1076,-0.49083,-0.12034,0.36621,-34.86,10.68,-4.8
8.0769,-2.2882,-4.7263,-0.44135,-0.27122,0.44624,-34.44,11.1,-4.5
8.2403,-2.833,-5.5162,-0.38301,-0.42486,0.56872,-34.2,11.34,-4.2
9.4253,-3.5004,-5.489,-0.46365,-0.47983,0.49816,-33.96,11.7,-4.02
6.5378,-0.99429,-5.5435,-0.40348,-0.59559,0.58429,-33.54,12.42,-3.72
9.9156,-3.4187,-6.456,-0.46792,-0.58277,0.51129,-33.3,12.6,-3.36
8.2267,-6.0066,-5.1894,-0.34147,-0.90316,0.45479,-33.12,12.9,-3.0
7.1915,0.24517,-6.7148,-0.48106,-0.34331,0.54672,-33.0,13.38,-2.22
10.978,-4.3449,-5.9793,-0.44196,-0.88423,0.46426,-32.82,13.74,-1.8
7.1507,-0.50395,-6.4969,-0.35858,-0.85185,0.54795,-32.64,14.1,-1.38
8.826,-6.0338,-6.7421,-0.45265,-1.0165,0.54245,-32.16,14.7,-0.54
5.2575,-4.0997,-4.9033,-0.36072,-1.1442,0.39492,-31.8,14.88,-0.54
4.8352,-0.34051,-4.808,-0.51954,-0.32559,0.37904,-31.56,15.0,0.48
9.1256,-3.9771,-5.1349,-0.28955,-0.82039,0.46304,-31.08,15.66,1.5
7.2869,-6.4152,-6.17,-0.26267,-1.0632,0.27122,-30.9,16.02,2.04
5.9249,-2.6015,-3.8954,-0.34667,-0.54886,0.033903,-30.66,16.38,3.18
5.9112,-1.4438,-4.5492,-0.095906,-0.52137,0.18143,-30.36,16.62,3.96
6.0202,-2.3018,-5.4073,-0.021686,-0.49419,0.13347,-30.18,16.8,4.5
6.279,-6.4288,-6.4697,-0.072082,-0.58826,-0.088575,-29.64,17.22,5.94
4.6445,-2.9829,-4.7399,-0.026878,-0.28344,-0.23121,-29.34,17.28,6.42
6.1155,-2.8875,-5.9112,0.08491,-0.10354,-0.15882,-28.98,17.4,7.02
6.8783,-2.8739,-7.3141,0.15027,-0.069639,-0.12859,-28.56,17.4,7.92
7.2188,-4.7535,-8.1858,0.0058032,-0.19945,-0.21319,-28.38,17.4,8.28
4.9033,-4.9033,-6.3198,0.0058032,-0.19945,-0.21319,-28.26,17.52,8.58
5.0395,-1.866,-5.7205,0.0030543,-0.0088575,-0.22602,-28.26,17.52,8.58
5.9657,-1.3757,-6.0066,0.012828,0.025656,-0.13225,-27.96,17.52,9.06
6.8647,-1.757,-8.1313,-0.044593,-0.064752,-0.13347,-27.78,17.52,9.3
5.6388,-2.2201,-5.4209,-0.14325,-0.21319,-0.24374,-27.6,17.28,9.78
6.4152,-1.0896,-6.0338,-0.18754,0.050702,-0.22052,-27.6,17.28,10.02
7.069,-1.9886,-5.5435,-0.093157,-0.1857,-0.18815,-27.6,17.04,10.02
8.6762,-4.522,-7.5184,-0.12462,-0.18784,-0.36346,-27.72,16.74,10.02
7.1098,-4.0589,-5.598,-0.15302,-0.18295,-0.50427,-27.9,16.68,9.9
7.7636,-2.152,-6.8374,-0.024129,-0.071471,-0.4331,-28.26,16.5,9.96
8.322,-3.514,-7.355,-0.0030543,-0.10812,-0.49724,-28.32,16.32,9.96
6.2517,-2.4244,-5.6661,0.07086,-0.085521,-0.47831,-28.38,16.14,9.9
7.9679,-4.413,-7.3822,0.089797,-0.062614,-0.5003,-28.5,15.78,9.96
4.5628,-2.3699,-4.6173,0.13806,-0.19059,-0.489,-28.74,15.66,9.96
7.9951,-2.3972,-7.246,0.098044,0.062003,-0.51618,-28.92,15.54,10.14
4.9714,-3.732,-5.2575,0.23396,-0.14172,-0.33262,-29.28,15.12,10.32
5.4345,-0.89894,-5.3392,0.19303,0.18021,-0.27703,-29.4,14.94,10.14
10.637,-5.1349,-8.8668,0.04612,0.11026,-0.46976,-29.4,14.64,10.14
5.0804,-2.2201,-5.0259,0.044288,-0.058643,-0.49419,-29.52,14.28,9.84
6.7557,-3.2008,-5.5435,-0.0030543,0.354,-0.57513,-29.64,14.22,10.02
6.3198,-4.7399,-5.4754,0.07025,0.22388,-0.52809,-29.82,13.92,9.9
6.7693,-2.261,-5.3256,0.062614,0.48778,-0.61606,-30.0,13.26,9.84
9.8339,-3.4732,-7.8045,-0.017104,0.39065,-0.74281,-30.18,13.08,9.9
5.3528,-2.0294,-5.4481,0.083994,0.22052,-0.51618,-30.72,12.48,9.6
9.2482,-2.6015,-7.7364,-0.0061087,0.49266,-0.51068,-31.02,12.24,9.66
5.2166,-1.2803,-4.3177,0.022297,0.17074,-0.34331,-31.08,11.94,9.54
11.087,-3.3778,-9.1529,-0.035125,0.35827,-0.25901,-31.5,11.4,9.12
7.0145,-3.0237,-6.5105,-0.082467,-0.021075,-0.2532,-31.74,11.22,8.88
4.1542,-0.77636,-5.2847,0.040928,0.14264,-0.076664,-31.86,10.98,8.7
8.431,-4.1814,-7.5048,-0.1011,0.061697,-0.17807,-32.34,10.44,8.4
5.2575,-2.2065,-4.9714,0.065973,0.15547,-0.12553,-32.46,10.32,8.34
6.7285,-0.14982,-5.8295,0.097738,0.27764,-0.13561,-32.64,9.96,8.1
8.5536,-3.623,-6.9872,0.13256,0.0027489,-0.064752,-32.76,9.66,7.74
7.1915,-1.3076,-6.2245,0.10934,0.16371,-0.16707,-33.06,9.66,7.62
8.0769,-1.1305,-6.6467,0.12065,0.011912,-0.084299,-33.0,9.54,7.38
6.17,-0.99429,-5.8976,0.14355,0.073609,0.035736,-33.12,9.42,7.08
9.7794,-1.3212,-7.1643,0.03543,0.064446,-0.11454,-33.18,9.24,6.9
6.8919,-0.85808,-5.1894,0.13042,-0.058032,0.047342,-33.3,9.0,6.84
7.8045,-2.1112,-5.5162,0.051007,-0.037568,0.045204,-33.42,8.88,6.6
7.9951,-0.24517,-5.6116,-0.029932,-0.0088575,-0.01741,-33.36,8.64,6.66
8.3765,-2.152,-5.8295,0.016188,-0.10232,0.11851,-33.36,8.64,6.78
8.2403,-1.6617,-6.8238,-0.021686,-0.1347,0.093768,-33.42,8.64,6.6
8.3493,-3.0237,-6.8238,-0.011301,-0.23396,0.061392,-33.54,8.64,6.54
5.2438,-1.2258,-5.2711,0.10385,-0.11484,0.15088,-33.48,8.64,6.6
7.7636,-2.9829,-7.3822,0.065363,-0.14142,0.086132,-33.6,8.58,6.78
5.8567,-2.2882,-5.8295,0.13744,-0.075747,0.18906,-33.36,8.7,6.66
6.7148,-1.2803,-5.9249,0.1182,0.048564,0.18845,-33.36,8.7,6.78
8.5672,-4.1678,-6.9872,0.10232,0.013439,0.3149,-33.3,8.7,6.84
6.3879,-2.942,-5.4345,0.062003,0.026878,0.32803,-33.18,8.7,6.78
7.9134,-4.1542,-6.9736,0.040012,0.0045815,0.33934,-33.18,8.82,6.84
6.5922,-1.9341,-6.7285,0.1405,0.14019,0.4948,-32.82,9.0,7.02
10.815,-5.4481,-9.3844,0.058338,0.10996,0.3656,-32.76,9.18,6.96
6.1836,-3.9908,-6.0066,0.15485,-0.20495,0.3708,-32.7,9.3,6.96
6.5786,-1.0896,-7.5457,0.16524,0.21961,0.49052,-32.28,9.48,6.96
10.351,-4.6309,-7.9815,0.15333,-0.1689,0.37141,-32.04,9.66,7.14
7.1779,-3.8954,-5.6116,0.14936,-0.17226,0.3317,-31.86,9.72,7.02
9.0712,-3.051,-7.2869,0.035736,0.098349,0.38759,-31.62,10.14,6.72
6.9328,-5.3937,-5.884,0.095295,-0.53084,0.4441,-31.44,10.2,6.84
4.2495,-3.051,-5.0804,-0.10446,0.093768,0.34178,-31.26,10.44,6.72
6.4424,-3.228,-4.9987,-0.14875,-0.12706,0.29169,-30.66,10.98,6.84
4.8216,-3.4732,-5.0668,-0.12675,-0.13592,0.33323,-30.42,11.4,6.72
8.6898,-5.1757,-8.2948,-0.23824,-0.18173,0.22144,-30.24,11.7,6.72
4.3585,-1.5119,-3.5958,-0.061392,-0.135,0.35216,-29.94,12.0,6.84
8.5536,-5.8159,-8.7715,-0.11209,-0.075442,0.2755,-29.7,12.06,6.84
5.4073,-4.1678,-4.7263,-0.078802,-0.10568,0.18143,-29.52,12.24,6.84
7.0145,-2.438,-6.0611,-0.061392,0.22877,0.13592,-29.22,12.6,7.08
5.993,-2.4108,-4.9306,0.01741,0.094379,0.25137,-29.1,12.84,6.78
6.3062,-6.1836,-7.3277,0.043982,0.059865,0.21533,-28.86,13.08,6.9
5.9657,-3.1735,-5.4754,-0.25443,0.50671,-0.16218,-28.38,13.32,7.14
4.4402,-1.2803,-4.127,0.029932,0.45662,0.058338,-28.38,13.44,7.08
5.8976,-1.185,-5.2166,0.072388,0.55833,0.1573,-28.14,13.56,7.02
6.7693,-6.5378,-6.674,-0.097433,0.36194,-0.0012217,-28.08,13.86,6.84
4.4811,-1.5119,-3.514,-0.1127,0.75961,-0.080023,-28.08,13.92,6.9
5.5435,0.84446,-4.8625,0.062614,0.78588,0.17654,-27.96,13.98,6.66
8.0905,-7.0826,-8.0905,0.036652,0.49266,0.1179,-27.84,14.16,6.3
5.0804,-2.3291,-5.9249,-0.13408,0.71105,0.054062,-27.78,14.34,6.24
4.8625,0.40861,-4.4947,-0.015882,0.69883,0.34117,-27.84,14.34,5.88
9.6704,-7.6819,-9.2482,-0.033292,0.38179,0.22602,-27.72,14.46,5.16
5.6388,-3.7047,-6.3471,-0.24312,0.79138,-0.1066,-27.84,14.34,5.16
6.5105,-1.7843,-4.9306,-0.17959,0.74923,0.11362,-27.96,14.4,4.5
9.3436,-4.9033,-6.5514,-0.1689,0.55253,0.065363,-27.96,14.52,4.14
9.7522,-6.1019,-7.4095,-0.28955,0.40012,-0.12095,-27.96,14.58,3.78
6.96,-3.5277,-4.6582,-0.18692,0.6295,0.054367,-28.02,14.58,3.18
7.3414,-3.9227,-4.413,-0.027794,0.52626,0.13867,-28.02,14.58,2.94
8.8668,-1.8796,-5.3256,-0.11179,0.72265,0.029322,-28.08,14.58,2.22
9.0303,-2.6015,-6.0338,-0.18601,0.52565,0.029627,-28.08,14.64,1.8
8.5263,-8.322,-6.3743,-0.14752,0.29505,0.044899,-28.14,14.76,1.44
4.8625,-6.96,-4.808,-0.19151,0.50213,-0.021991,-28.14,14.76,0.96
9.7658,-2.0839,-5.8567,-0.28436,1.0699,-0.11637,-28.02,14.94,0.48
9.4117,-3.5004,-5.6116,-0.13408,0.54856,0.002138,-28.2,14.88,0.24
8.54,-5.3119,-6.17,-0.17562,0.29291,0.0082467,-28.2,14.94,-0.18
8.3765,-2.7786,-6.2245,-0.33537,0.58246,-0.058643,-28.32,14.94,-0.6
9.2755,-3.9499,-5.6116,-0.37935,0.49114,-0.079412,-28.38,15.0,-0.9
7.8998,-4.1542,-4.4539,-0.29352,0.32284,-0.076053,-28.44,15.0,-1.2
8.3901,-0.61292,-5.0123,-0.38882,0.51129,-0.069028,-28.68,14.82,-1.74
10.651,-1.7025,-5.3119,-0.52901,0.31734,-0.074526,-28.68,14.82,-2.1
8.9758,-5.6388,-5.5299,-0.50702,-0.20097,-0.050396,-28.62,14.88,-2.28
6.9736,-1.076,-6.4424,-0.76938,0.23732,-0.10171,-28.68,14.94,-2.34
9.9701,-0.70826,-5.0123,-0.77091,0.26542,-0.081856,-28.68,14.88,-2.34
9.6568,-1.5119,-5.3256,-0.60323,-0.06353,0.040012,-28.68,14.88,-2.34
7.6955,-3.0918,-5.5299,-0.60964,-0.27611,-0.01069,-28.92,14.94,-2.34
6.9872,-1.0079,-5.1894,-0.49419,-0.086743,0.14478,-28.98,15.06,-2.28
9.4798,-1.4438,-5.6661,-0.40836,-0.13225,0.18662,-28.98,15.12,-2.34
9.4117,-0.96704,-5.6661,-0.28008,-0.2416,0.31307,-28.98,15.12,-2.34
11.809,-3.6366,-6.8647,-0.26206,-0.24312,0.39828,-28.92,15.18,-1.92
10.12,-7.641,-5.2166,-0.29291,-0.7984,0.11881,-28.86,15.3,-1.68
4.1951,-2.9556,-3.1872,-0.27428,-0.37018,0.13867,-28.8,15.42,-1.44
10.828,-2.7649,-5.094,-0.25259,0.092546,0.20831,-28.68,15.66,-1.08
10.311,-4.0861,-6.0202,-0.19945,-0.53359,0.087354,-28.68,15.6,-0.9
7.9951,-2.152,-5.6388,-0.34819,-0.3769,-0.11942,-28.56,15.6,-0.42
6.4152,-2.7513,-4.2904,-0.23457,-0.4218,0.060781,-28.56,15.66,-0.12
7.355,-3.3506,-5.6388,-0.2361,-0.26573,0.032987,-28.68,15.78,0.18
6.9328,-0.54481,-4.6854,-0.15241,-0.1295,0.18967,-28.56,15.78,0.42
8.6762,-3.1872,-6.3879,-0.15088,-0.44746,0.15333,-28.44,15.96,1.2
6.6059,-1.7025,-5.3119,-0.13073,-0.2364,0.15821,-28.26,16.08,1.44
7.1915,-3.514,-5.4618,-0.035736,-0.31093,0.37965,-28.02,16.14,1.92
7.5729,-5.4618,-5.9112,-0.020769,-0.36652,0.25504,-28.08,16.26,2.04
7.0281,-3.4596,-5.993,-0.16493,0.014661,0.067806,-28.08,16.38,2.4
9.6704,-4.9578,-6.8374,-0.075136,-0.3989,0.12675,-28.02,16.44,2.82
4.5764,-2.6968,-4.6037,-0.050396,-0.32193,0.16371,-28.08,16.56,3.12
8.9349,-2.547,-6.7966,-0.17807,-0.10873,0.090408,-28.14,16.8,3.42
7.0962,-0.83084,-5.8431,-0.068111,-0.33323,0.13256,-28.2,17.1,3.72
8.8668,1.2531,-6.9872,-0.22205,-0.28436,0.15272,-28.14,17.34,3.9
9.4798,-1.866,-6.4833,-0.17501,-0.51038,0.23518,-27.9,17.52,4.02
5.203,-2.0975,-5.2302,-0.1573,-0.62492,0.24526,-27.66,17.7,4.56
10.052,-2.152,-6.8238,-0.31276,-0.41264,0.1686,-27.66,18.0,4.68
7.5593,-4.2223,-5.0804,-0.16799,-0.96089,0.2416,-27.66,18.12,4.86
8.717,-3.6911,-7.3005,-0.18387,-0.53512,0.25045,-27.66,18.54,5.4
9.0848,-6.6876,-6.3062,-0.10018,-0.93921,0.25595,-27.42,18.72,5.64
2.6423,-2.5742,-2.8603,0.047647,-0.41783,0.39828,-27.3,18.84,5.88
5.9657,-0.70826,-5.993,-0.055283,-0.31704,0.29719,-27.18,19.02,6.3
6.0747,-4.7535,-5.2575,0.10415,-0.67959,0.34728,-27.12,19.5,6.72
6.2245,-3.5685,-7.2188,-0.023518,-0.23152,0.27519,-26.76,19.8,7.5
5.884,-5.0259,-5.7342,-0.0051924,-0.42486,0.2697,-26.58,20.1,7.92
7.5184,-3.6639,-8.1177,0.013744,-0.15302,0.15272,-26.34,20.4,8.58
5.3392,-2.4108,-4.5764,-0.16768,-0.014966,-0.078802,-26.28,20.46,9.24
6.5105,-2.6015,-6.7012,-0.020159,0.14325,-0.012523,-26.1,20.64,9.48
8.4174,-1.9613,-7.0962,-0.083994,0.020464,-0.042455,-26.1,20.94,9.78
6.7693,-4.4675,-7.4776,-0.076358,-0.092241,-0.034208,-25.86,21.18,10.38
5.6116,-1.4165,-5.0395,-0.09896,0.11118,-0.033903,-25.68,21.36,10.86
8.5127,-1.7843,-6.9872,0.15302,0.091019,0.3091,-25.44,21.6,11.34
9.8611,-11.836,-12.027,0.069028,-0.23946,0.17776,-25.44,21.72,11.46
5.9112,-7.927,-6.674,-0.18631,-0.25412,-0.37354,-25.38,21.72,11.58
5.8976,2.7786,-4.4811,-0.071166,0.41264,-0.27122,-25.2,21.6,12.0
8.54,1.0896,-4.6445,0.25565,0.28283,0.075442,-25.2,21.66,12.06
9.8475,0.24517,-9.8066,0.0015272,-0.15882,0.032376,-25.32,21.54,12.48
5.3528,-7.2869,-5.1076,-0.19028,-0.73579,-0.25717,-25.38,21.6,12.78
5.1485,-4.4811,-6.6195,-0.14416,-0.29841,-0.1292,-25.5,21.6,12.84
10.311,-7.7227,-11.496,-0.38118,0.0562,-0.54214,-25.74,21.72,13.02
2.2882,3.5413,-2.8467,0.11301,0.60628,-0.40623,-25.86,21.42,13.74
11.046,4.6854,-6.7693,-0.020159,0.70647,-0.52718,-26.1,21.36,13.92
13.552,-5.0259,-11.223,-0.055894,-0.54306,-0.38759,-26.46,21.18,14.16
0.21793,-1.6753,-0.58567,-0.38485,0.10171,-0.57421,-27.0,21.0,14.76
4.3177,3.2689,-1.3757,-0.22846,0.44776,-0.38118,-27.24,20.7,15.06
6.4833,0.43585,-3.9771,0.059559,0.017715,-0.039095,-27.6,20.52,15.36
12.095,-8.7443,-11.25,-0.39309,-0.13714,-0.7926,-28.32,20.1,15.9
0.85808,-2.4108,-1.4438,-0.17562,-0.14783,-0.57208,-28.74,19.74,16.26
1.7979,1.6072,-1.3212,0.071777,0.44868,-0.28436,-29.1,19.5,16.44
13.484,0.21793,-10.311,0.09163,0.42302,-0.43005,-29.76,18.78,16.86
13.157,-5.5843,-11.087,-0.15302,0.10018,-0.57574,-30.06,18.48,17.04
9.1937,-9.1256,-7.8998,-0.33445,-0.16646,-0.95417,-30.3,17.88,17.16
1.7298,-1.1169,-0.70826,-0.12065,0.56322,-0.58674,-30.96,16.92,17.22
6.3607,2.7241,-5.0531,0.11423,0.80604,-0.33414,-31.26,16.32,17.28
15.255,-0.38137,-12.503,-0.0042761,0.37141,-0.4499,-31.5,15.84,17.16
4.0997,-1.2803,-4.3721,-0.30879,-0.1686,-0.75839,-32.28,14.82,17.1
3.8682,0.081722,-4.5083,-0.23915,0.25412,-0.41875,-32.64,14.16,17.16
7.5865,-1.1986,-5.0531,-0.072388,0.16493,-0.1292,-32.94,13.62,17.04
10.61,-4.5764,-8.7034,-0.0039706,0.050396,-0.19151,-33.48,12.6,16.86
7.2733,-0.50395,-7.355,0.0012217,-0.21228,-0.28711,-33.72,12.24,16.92
6.5378,2.3018,-6.6059,0.047342,-0.051007,-0.11179,-33.9,11.76,16.8
5.4618,-1.1169,-5.5707,0.24618,-0.20922,0.30604,-33.84,10.98,16.5
8.4719,-4.522,-8.5808,0.23946,-0.24435,0.15974,-33.96,10.56,16.56
7.7364,-3.3234,-7.8589,0.067195,-0.23121,-0.067195,-34.02,10.26,16.38
7.927,-0.88532,-5.2575,0.072082,-0.073915,-0.12431,-34.2,9.84,16.2
5.0395,-0.88532,-2.6696,0.27917,-0.16799,0.047037,-34.14,9.78,16.14
4.9987,-0.84446,-3.8273,0.30146,-0.047953,0.20159,-33.96,9.54,16.2
12.79,-2.4108,-10.025,0.13347,-0.16585,0.12095,-33.6,9.18,16.2
11.319,-1.9886,-8.3629,-0.10934,-0.43494,-0.12737,-33.36,9.24,16.14
6.4152,-2.7513,-3.909,0.11087,-0.25565,-0.14386,-33.18,9.24,16.26
5.094,1.7298,-4.3449,0.31948,-0.046731,0.18357,-32.82,9.0,16.32
11.536,-0.38137,-10.025,0.32895,-0.18173,0.3882,-32.58,9.06,16.2
12.095,-3.0782,-9.3844,0.11087,-0.45326,0.16371,-32.34,9.0,16.32
5.1621,-4.9033,-3.5822,0.25412,-0.67806,-0.023824,-32.16,9.12,16.44
2.2882,-2.5198,-3.8818,0.49236,-0.12889,0.14661,-32.04,9.18,16.44
5.6252,-1.5255,-6.456,0.49052,0.15058,0.091019,-31.8,9.3,16.68
9.1529,-1.8524,-7.1643,0.43188,-0.1182,-0.026573,-31.32,9.48,16.74
4.8216,-1.2531,-4.2768,0.48808,-0.29199,0.17532,-31.08,9.54,16.92
5.0123,-1.6344,-4.3858,0.38882,-0.14233,0.34117,-30.9,9.78,16.86
7.2733,-4.8352,-8.1313,0.32406,-0.40348,0.4444,-30.6,9.96,16.98
6.2517,0.068102,-7.246,0.058948,-0.28222,0.18631,-30.36,10.14,16.98
8.9486,-3.2689,-6.9872,-0.079107,-0.078191,0.21075,-30.0,10.56,16.8
6.8647,-5.6661,-4.6445,-0.099571,-0.41508,0.10782,-29.76,10.8,16.86
5.4345,-3.4868,-4.2904,-0.064141,-0.11759,0.12309,-29.58,10.98,16.86
8.9622,-2.4244,-7.1507,-0.000916,-0.27672,0.22174,-29.22,11.4,16.8
7.4231,-3.1872,-7.8589,0.053145,-0.53451,0.26023,-29.04,11.46,16.86
5.1894,1.6072,-3.6366,-0.082772,-0.28772,0.082467,-28.86,12.0,16.68
2.8058,5.7478,-0.53119,0.17685,-0.26573,0.59498,-28.68,12.12,16.74
11.863,-4.8352,-8.8941,0.024435,-0.58765,0.46976,-28.38,12.36,16.86
0.74912,-10.283,1.757,0.056505,-1.7657,-0.025656,-28.08,12.72,16.98
0.96704,4.3449,-4.6037,-0.20342,0.6072,0.097738,-27.78,12.96,17.1
10.569,-1.1713,-7.355,0.14386,0.000611,0.10568,-27.66,13.14,17.46
8.4446,-6.5378,-11.046,0.32529,0.055894,-0.29688,-27.24,13.44,17.7
9.221,-2.7241,-8.0632,-0.094684,-0.19456,-0.24984,-27.12,13.74,18.06
2.7786,-1.4029,-2.942,0.23946,-0.2529,0.13989,-26.94,13.92,18.18
11.686,-5.4073,-9.616,-0.063225,0.28588,-0.26756,-26.58,14.04,18.54
5.7342,-4.8625,-6.4424,0.1857,-0.30818,-0.13439,-26.4,14.1,18.72
3.9635,-2.9284,-6.4833,0.22571,0.16921,-0.097128,-26.22,14.34,18.84
6.279,-2.1929,-6.1292,0.35858,-0.11148,0.14569,-25.98,14.4,19.2
4.7535,-3.051,-6.3471,0.38515,0.015272,0.16768,-25.86,14.4,19.26
6.8919,-2.3155,-6.8647,0.22327,0.063835,0.098044,-25.8,14.4,19.32
4.413,-2.8603,-5.4618,0.22663,-0.20586,0.12065,-25.8,14.52,19.5
6.3198,-4.3449,-7.4776,0.096822,0.032681,-0.014661,-25.92,14.7,19.38
6.7829,-4.7671,-7.7636,-0.084605,0.022297,-0.25504,-25.98,14.82,19.32
6.1292,-3.9227,-6.7012,-0.10996,0.060781,-0.4948,-25.98,14.64,19.5
5.3119,-4.6854,-5.6116,0.17532,0.025962,-0.44196,-25.98,14.52,19.44
4.0861,-2.1929,-3.0918,0.26237,0.20922,-0.39981,-26.22,14.4,19.38
12.544,1.076,-8.5944,0.31887,0.35003,-0.13958,-26.46,14.4,19.26
12.517,-2.4789,-10.46,-0.031154,-0.26084,-0.3992,-26.52,14.4,19.14
3.0373,-7.9815,-5.7886,0.050702,-0.85613,-0.23457,-26.76,13.92,18.84
2.8875,-3.3506,-3.4323,-0.067501,0.0033598,-0.42241,-26.76,13.92,18.78
7.8453,-1.7162,-5.8567,0.1408,0.37446,-0.45265,-27.12,13.62,18.72
8.54,-1.2395,-7.2869,0.29138,0.16463,-0.40287,-27.24,13.38,18.72
8.0905,-5.2438,-9.6296,0.15944,-0.15577,-0.36285,-27.3,13.26,18.6
6.96,-5.3937,-7.9134,0.050702,-0.091935,-0.3204,-27.42,12.9,18.6
4.5356,-0.25879,-4.6718,0.15547,0.10812,-0.043066,-27.6,12.48,18.18
7.6819,-1.975,-6.8783,0.26573,0.12248,0.1347,-27.6,12.36,17.94
7.641,-8.8805,-9.4389,0.11118,-0.25137,-0.19975,-27.84,12.3,17.7
2.8467,-3.514,-3.1054,0.092546,-0.097433,-0.26695,-27.72,12.18,17.52
3.9771,-0.16344,-3.7047,0.15547,0.53176,-0.070555,-27.78,12.0,17.4
7.1234,-5.5571,-8.4174,0.43158,0.056505,0.19792,-27.9,11.94,17.04
6.8374,-7.5184,-7.9679,0.22052,0.1573,-0.18876,-27.96,12.18,16.86
3.1191,-0.57205,-2.8058,0.21136,0.57666,-0.13011,-28.08,12.18,16.68
10.474,-3.0646,-8.2131,0.18784,0.56872,-0.06353,-28.2,12.36,16.38
12.299,-11.836,-11.795,0.11698,0.21472,-0.21869,-28.26,12.42,16.02
6.8647,-11.618,-7.1098,-0.12065,-0.23213,-0.80115,-28.44,12.42,15.9
1.9613,3.3506,-0.29965,0.098044,1.3259,-0.39737,-28.68,12.6,15.42
7.7636,0.99429,-4.9987,0.45326,1.1322,0.2361,-28.8,12.66,15.24
3.2144,-5.6797,-2.7649,-0.27611,0.29627,-1.332,-29.16,12.48,14.7
-5.6661,9.0848,-1.362,0.14355,0.74831,-0.17532,-29.4,12.48,14.4
1.4982,9.3027,-4.4675,0.11545,1.0886,0.35033,-29.76,12.42,14.1
13.906,-5.9793,-8.7851,-0.25962,0.40287,0.10568,-30.12,12.42,13.74
4.6445,-4.1406,-6.1155,-0.46059,-0.36408,-0.32315,-30.72,12.3,13.32
1.8387,1.1305,-3.5685,-0.13744,0.39126,0.24954,-31.02,12.06,13.08
6.3471,-0.47671,-4.6037,0.066584,0.5058,0.47953,-31.38,12.0,12.72
12.217,-6.456,-10.392,-0.31673,0.44685,-0.090713,-31.92,11.58,12.12
1.3893,-1.2803,-4.5356,-0.023824,-0.14355,0.15882,-32.28,11.34,11.88
3.2144,-0.10896,-5.4073,0.013744,0.28772,0.2697,-32.52,11.22,11.46
11.632,-3.0101,-5.7886,-0.0033598,0.16738,0.20128,-32.88,10.98,11.1
5.8976,-1.0896,-5.7342,0.17654,-0.25656,0.26206,-33.24,10.92,10.92
9.7658,-0.61292,-7.7772,-0.000305,0.17898,0.15211,-33.3,10.86,10.68
5.4345,-2.3972,-4.304,0.066279,-0.27458,0.22449,-33.42,10.74,10.44
5.3664,-2.3427,-5.3937,-0.002138,0.013744,0.26389,-33.36,10.74,10.44
7.4095,-1.7298,-5.38,-0.025962,-0.000305,0.30452,-33.36,10.68,10.44
7.8317,-1.6072,-5.8976,0.043982,-0.1405,0.2923,-33.42,10.56,10.2
9.5206,-5.2847,-6.4424,0.035736,-0.23763,0.2022,-33.3,10.56,10.02
6.3743,-4.6718,-5.7069,0.054672,-0.41294,-0.013744,-33.0,10.32,10.08
8.7579,-2.5742,-7.3414,-0.033292,0.27611,0.062919,-32.82,10.38,9.9
11.441,-5.7205,-7.0281,-0.10904,-0.01405,-0.12126,-32.7,10.5,10.02
7.4095,-6.7148,-3.9908,0.1182,-0.343,-0.044288,-32.64,10.5,10.14
6.9736,-0.21793,-5.8431,0.066279,0.54642,-0.13164,-32.46,10.44,10.02
10.106,-0.14982,-6.9464,0.15363,0.27855,0.028711,-32.28,10.5,9.9
7.8317,-1.5936,-6.96,0.23274,-0.17379,0.15638,-32.28,10.44,9.96
5.5435,-2.2882,-4.0861,0.038179,0.094684,0.19028,-32.22,10.44,9.84
6.7557,-2.9556,-3.8682,-0.016188,0.058338,0.17471,-32.28,10.38,9.72
8.0905,-3.1872,-5.4209,-0.11118,0.0073304,0.068111,-31.98,10.62,9.6
7.5729,-3.5685,-6.8783,-0.31979,-0.092852,-0.15485,-31.86,10.74,9.48
7.5729,-2.6015,-6.0474,-0.3879,0.086132,-0.14203,-31.98,10.74,9.54
8.54,-3.7728,-6.7966,-0.41111,-0.065973,-0.10171,-32.1,10.92,9.42
7.2596,-3.6094,-6.8919,-0.29627,-0.13653,0.050702,-32.1,10.98,9.3
8.1313,-1.9613,-7.6683,-0.14691,-0.12767,0.1857,-32.04,10.98,9.12
6.8919,-1.5119,-6.9736,-0.0051924,-0.23457,0.31551,-32.04,10.92,9.0
6.5105,-1.1169,-5.7614,0.21655,-0.15241,0.43616,-31.92,10.8,8.88
5.6116,2.152,-3.8954,0.25443,-0.1405,0.54795,-31.86,10.8,8.94
8.1177,0.19068,-7.0009,-0.0094684,-0.34025,0.46823,-31.56,10.86,8.76
1.6753,-7.4912,-3.2689,-0.29474,-1.3803,-0.21014,-31.2,11.04,8.64
12.64,-8.717,-10.379,-0.63469,0.11606,-0.20372,-31.14,11.04,8.64
3.4187,-2.8058,-1.3484,-0.5565,-0.098044,-0.66218,-31.02,10.62,8.7
9.6568,2.1656,-5.8704,-0.2364,0.31124,-0.20617,-30.96,10.5,8.82
13.116,2.6696,-6.3743,-0.025045,-0.16188,0.092241,-30.6,10.5,8.76
5.5843,-2.2474,-4.4266,0.1857,-0.6524,0.37507,-30.3,10.56,8.88
6.8374,-1.471,-6.0883,-0.0051924,-0.20708,0.4105,-30.06,10.5,8.88
4.5628,-4.6445,-4.3449,0.079412,-0.67409,0.39798,-29.82,10.68,9.06
5.9793,-5.5707,-8.2131,0.035125,-0.44654,0.21411,-29.7,10.8,9.12
4.9714,-1.7979,-4.5628,-0.2532,0.14447,-0.093157,-29.52,10.92,9.3
7.1643,-4.1814,-6.9872,-0.21258,0.27245,0.018937,-29.34,11.04,9.36
6.456,-6.2517,-5.4481,-0.43952,-0.0079412,-0.28375,-29.28,10.92,9.6
6.8374,-3.0237,-5.2711,-0.45815,0.48564,-0.32651,-29.34,10.92,9.78
7.464,-1.9886,-5.8704,-0.13317,0.32498,-0.19059,-29.22,11.1,9.48
7.7364,-1.1577,-6.6331,0.022907,0.50549,-0.27,-29.16,11.16,9.54
8.2812,-0.74912,-7.5593,0.025656,0.33872,-0.18082,-29.22,11.22,9.54
5.0123,-3.0646,-7.1098,-0.12156,0.23763,-0.12553,-29.46,11.1,9.6
6.5922,-2.0294,-6.6059,-0.24099,0.65546,-0.086743,-29.64,10.92,9.66
8.8668,-1.0624,-6.7693,-0.32254,0.63591,-0.012828,-29.7,10.98,9.6
10.815,-6.6059,-9.0167,-0.37049,0.39645,-0.30513,-29.82,10.62,9.36
7.355,-5.7886,-6.8647,-0.23793,0.40592,0.023518,-30.06,10.56,9.24
4.7671,-4.8761,-5.7478,0.16554,0.52321,0.33475,-30.3,10.56,9.12
8.9894,-1.5663,-8.1586,0.40592,0.48411,0.42577,-30.66,10.2,8.7
6.3471,0.068102,-6.8919,0.65454,0.06689,0.67867,-30.84,10.14,8.4
5.6116,-1.0215,-6.3471,0.73457,-0.13744,0.76816,-30.96,10.14,8.16
6.674,-3.0101,-5.8295,0.48564,-0.062919,0.32865,-31.44,10.32,7.74
5.0395,-3.5958,-3.3642,0.18509,-0.15608,0.11362,-31.56,10.62,7.44
4.0316,-4.3449,-2.2201,0.11454,0.083689,-0.034514,-31.5,10.74,7.14
6.9736,-4.3313,-3.3778,-0.20831,0.51282,-0.43982,-31.5,11.1,6.3
7.7636,-1.5391,-4.0452,-0.40073,0.78557,-0.51679,-31.5,11.28,5.94
11.128,-1.8524,-5.0259,-0.48808,0.65851,-0.55711,-31.56,11.22,5.64
8.4174,-5.7342,-6.1836,-0.51954,0.28405,-0.59651,-31.5,11.4,5.1
6.6876,-3.5685,-6.1564,-0.45387,0.52412,-0.34789,-31.56,11.52,4.8
8.145,-1.2395,-6.279,-0.33017,0.50793,-0.22083,-31.5,11.4,4.38
9.7249,-1.8251,-8.9622,0.0012217,0.11209,0.16157,-31.8,11.64,3.84
6.4288,-3.4459,-5.7069,0.074831,-0.11668,0.17257,-31.86,11.7,3.72
4.0316,-2.0703,-4.4402,0.17104,0.044288,0.31612,-31.92,11.7,3.3
8.3084,-4.6309,-4.9033,0.10385,0.21014,0.14569,-31.92,11.64,3.06
5.5843,-3.9908,-4.2223,0.022297,0.20006,-0.07025,-31.98,11.4,2.94
6.9328,-3.2825,-5.1213,-0.14416,0.32315,-0.12523,-32.22,11.28,2.64
6.9736,-3.0918,-5.2302,-0.21686,0.30604,-0.10385,-32.34,10.98,2.52
8.1177,-3.0918,-6.1836,-0.34178,0.38423,-0.11698,-32.34,10.8,2.4
8.1041,-2.833,-5.884,-0.32498,0.29016,0.023213,-32.46,10.8,2.16
8.5672,-1.6344,-6.96,-0.25045,0.31796,0.23793,-32.7,10.8,1.86
9.9565,-3.6366,-7.9951,-0.29627,0.12187,0.31124,-32.58,10.74,1.68
8.1177,-3.5549,-7.0281,-0.24282,0.12401,0.31246,-32.64,10.8,1.74
7.5593,-3.2961,-6.1019,-0.18082,0.23396,0.35155,-32.58,10.8,1.62
6.5378,-2.8058,-4.699,-0.095295,0.23366,0.38362,-32.7,10.86,1.56
7.9543,-2.5879,-5.5026,-0.085827,0.35094,0.37843,-32.52,10.92,1.5
8.322,-3.3778,-4.9578,-0.12401,0.25595,0.31582,-32.7,10.98,1.14
7.3005,-2.1929,-4.8761,-0.18173,0.30635,0.27825,-32.7,10.98,1.02
9.5751,-4.3177,-5.1757,-0.21197,0.31734,0.21136,-32.58,11.28,0.96
6.0202,-2.0158,-4.5356,-0.25381,0.3149,0.22144,-32.52,11.34,0.78
10.188,-3.2825,-6.1973,-0.33659,0.4386,0.22327,-32.52,11.64,0.72
6.9464,-2.4244,-5.1485,-0.29047,0.1295,0.23946,-32.7,11.88,0.6
7.8045,-1.9205,-5.8704,-0.29108,0.31307,0.29596,-32.76,12.0,0.66
9.0439,-3.2008,-5.3392,-0.28253,0.20342,0.35461,-33.0,12.48,0.42
7.9815,-3.2689,-6.8102,-0.2022,0.1463,0.4163,-32.94,12.78,0.24
7.8726,-1.8932,-6.0202,-0.29413,0.27153,0.32773,-32.94,12.84,0.06
7.927,-3.0237,-6.0066,-0.26389,0.047037,0.48594,-32.88,12.9,-0.24
7.6683,-3.514,-5.9112,-0.30146,0.042761,0.43891,-32.88,13.14,-0.54
7.0145,-2.0431,-5.1894,-0.29658,0.037874,0.50885,-32.7,13.26,-0.42
8.6081,-2.8058,-6.1019,-0.3146,-0.047037,0.49052,-32.7,13.62,-0.48
7.641,-2.1793,-6.0883,-0.40348,-0.1573,0.4725,-32.64,13.86,-0.54
8.6489,-3.0646,-5.5707,-0.41447,-0.22877,0.46701,-32.52,14.1,-0.6
8.5808,-4.5356,-4.7671,-0.42974,-0.26328,0.4328,-32.4,14.16,-0.6
8.8805,-3.9363,-5.0804,-0.50396,-0.089797,0.34422,-32.1,14.76,-0.6
8.5808,-4.3721,-5.094,-0.43585,-0.17287,0.33139,-31.92,15.12,-0.48
8.036,-1.9613,-6.5786,-0.40348,-0.10263,0.27489,-31.5,15.48,-0.42
7.927,-3.514,-6.1019,-0.37446,-0.29016,0.25534,-31.32,15.72,-0.24
7.3822,-4.4947,-6.0747,-0.36469,-0.36377,0.22724,-31.2,15.9,-0.12
6.7693,-2.2201,-5.8976,-0.38026,-0.10873,0.27764,-30.84,16.26,0.42
7.5184,-2.6968,-5.8023,-0.36469,-0.18906,0.34819,-30.6,16.38,0.6
8.0088,-4.6854,-6.7693,-0.40256,-0.38271,0.31154,-30.54,16.5,0.84
6.4152,-2.6696,-5.094,-0.44868,-0.29352,0.28527,-30.24,16.74,1.44
7.0553,-2.7513,-4.7944,-0.37935,-0.21991,0.34575,-30.18,16.68,1.74
8.0905,-4.0044,-6.0202,-0.38057,-0.28436,0.29322,-29.82,17.1,2.28
7.246,-3.2689,-5.3119,-0.41417,-0.29932,0.21441,-29.7,17.22,2.46
6.851,-2.8603,-4.9306,-0.354,-0.15852,0.281,-29.52,17.22,2.7
7.3958,-4.9033,-4.8625,-0.34514,-0.18021,0.14386,-29.22,17.28,3.06
6.1292,-4.2223,-4.6173,-0.21777,-0.18112,0.13744,-29.04,17.46,3.42
7.0553,-2.8058,-5.6661,-0.25229,0.060781,0.077274,-28.8,17.58,3.66
7.6546,-3.3097,-6.5378,-0.17593,-0.015577,0.18876,-28.74,17.88,4.26
7.464,-3.6911,-6.5514,-0.27306,-0.082772,0.16524,-28.8,18.0,4.56
7.1234,-3.6094,-6.0611,-0.3543,-0.062003,0.13714,-28.74,18.18,4.86
7.3277,-4.2768,-6.8919,-0.36774,-0.058948,0.12248,-28.62,18.42,5.16
7.0826,-2.8603,-5.6252,-0.3488,0.05681,0.051924,-28.5,18.48,5.34
8.9622,-2.5198,-6.6604,-0.27855,0.026573,0.1011,-28.5,18.66,5.58
8.1177,-3.4187,-6.7421,-0.24587,-0.20464,0.089492,-28.5,18.54,5.7
7.5457,-1.6072,-6.2517,-0.28741,-0.069944,0.040317,-28.44,18.54,5.88
8.1313,-1.7843,-6.8374,-0.22877,-0.33353,0.11057,-28.26,18.54,5.94
7.9679,-2.4925,-7.1507,-0.27031,-0.32834,-0.031154,-28.38,18.48,6.48
8.4719,-0.88532,-6.7966,-0.37599,-0.2529,-0.13225,-28.32,18.42,6.72
8.5944,-2.4108,-5.2847,-0.32223,-0.48381,-0.13256,-28.32,18.24,7.2
8.6625,-2.9692,-5.3119,-0.38943,-0.49694,-0.20739,-28.26,18.36,7.5
7.5321,-1.7298,-4.3177,-0.42944,-0.51374,-0.25901,-28.02,18.3,7.62
7.927,-2.3972,-4.8488,-0.35033,-0.53573,-0.23732,-27.84,18.12,8.04
7.8589,-2.5879,-6.3743,-0.3598,-0.56688,-0.37049,-27.9,18.12,8.46
7.2869,-3.7728,-6.4969,-0.39248,-0.53939,-0.51129,-27.9,17.94,8.7
6.7421,-1.3212,-5.8023,-0.22327,-0.27519,-0.44899,-27.96,17.82,9.48
9.4253,-3.4732,-7.6955,-0.18662,-0.2926,-0.55558,-28.02,17.76,9.9
7.9815,-3.2553,-6.456,-0.0562,-0.36988,-0.49602,-27.96,17.58,10.26
8.322,-2.4244,-6.7966,-0.010996,-0.32987,-0.53237,-28.26,17.34,10.98
8.0088,-2.0022,-6.1564,0.023213,-0.33506,-0.52595,-28.2,17.28,11.28
8.036,-1.9477,-5.8295,0.14844,-0.33353,-0.49633,-28.2,17.1,11.64
8.2539,-1.6072,-5.8295,0.22266,-0.44471,-0.48717,-28.32,16.8,12.06
7.6546,-1.8524,-5.9793,0.29077,-0.45815,-0.49663,-28.38,16.38,12.3
7.1915,-2.1384,-5.8976,0.30146,-0.52321,-0.5058,-28.56,16.14,12.54
6.565,-1.9613,-5.5707,0.31673,-0.5006,-0.49541,-28.62,15.84,12.78
7.069,-3.2144,-5.9112,0.25595,-0.43341,-0.5568,-28.68,15.48,13.08
6.0338,-2.3427,-4.8352,0.24862,-0.36774,-0.55283,-28.68,15.36,13.38
6.1428,-2.6968,-5.5707,0.22694,-0.29383,-0.53909,-28.86,14.94,13.68
4.3313,-0.99429,-4.808,0.3259,-0.22633,-0.36072,-28.8,14.76,13.74
6.9328,-1.4438,-7.3277,0.1741,-0.16402,-0.4218,-28.98,14.52,13.86
6.0883,-3.8001,-7.6683,0.12584,-0.28955,-0.30116,-28.92,13.98,14.1
6.2381,-1.5936,-6.6331,0.10507,-0.093462,-0.31521,-29.04,13.74,14.16
6.3471,-1.1577,-6.7012,0.24251,-0.19884,-0.13561,-29.16,13.62,14.1
6.6059,-1.076,-6.8647,0.30421,-0.18906,-0.11942,-29.4,13.14,14.28
7.3005,-0.58567,-7.0826,0.44349,-0.1689,-0.093768,-29.52,13.02,14.34
8.7851,-1.3348,-7.8589,0.5116,-0.30818,-0.11912,-29.58,12.84,14.4
7.4095,-0.92618,-7.0553,0.52931,-0.14722,-0.18784,-29.58,12.72,14.64
7.8589,-1.9613,-6.3198,0.54031,-0.2138,-0.22205,-29.64,12.6,14.76
6.2381,-2.0567,-5.884,0.50977,-0.20831,-0.26023,-29.82,12.3,14.82
7.8998,-1.7843,-6.6331,0.43891,-0.055589,-0.43738,-29.76,12.24,14.88
6.4697,-1.6208,-5.8023,0.41875,-0.22052,-0.28497,-29.88,12.24,14.94
6.7012,-1.8932,-6.2654,0.3259,-0.1631,-0.32987,-29.88,12.18,14.94
7.8589,-4.0452,-6.8238,0.28527,-0.094684,-0.37935,-29.82,12.12,14.88
6.7693,-2.942,-5.2711,0.28405,-0.022602,-0.51496,-30.0,12.0,14.82
6.4833,-2.6287,-5.7342,0.35522,0.022602,-0.44104,-30.06,11.82,14.82
7.2324,-3.3506,-7.4367,0.35064,0.051924,-0.2926,-29.94,11.82,14.88
7.355,-3.4732,-7.0962,0.28924,0.088575,-0.26084,-29.94,11.7,14.82
5.8976,-2.5334,-6.7829,0.31857,0.04948,-0.065057,-30.0,11.7,14.7
6.279,-2.4244,-7.8998,0.29138,0.13683,0.12095,-30.06,11.52,14.46
7.6002,-3.4868,-8.2267,0.2306,0.058032,0.10599,-30.06,11.52,14.22
5.6661,-3.732,-7.3141,0.28253,-0.04948,0.18723,-30.06,11.64,14.1
5.3528,-2.5198,-6.6876,0.33903,0.073609,0.26634,-30.3,11.58,13.74
8.7715,-4.1542,-9.1529,0.25595,0.045204,0.2248,-30.24,11.46,13.44
8.1586,-4.0589,-8.0905,0.28741,-0.19731,0.2868,-30.18,11.46,13.32
8.8124,-0.47671,-8.4991,0.27336,-0.033292,0.46242,-30.42,11.58,13.26
8.036,-2.152,-7.246,0.23427,-0.42974,0.49908,-30.3,11.64,12.9
7.3822,-3.5004,-7.6002,0.13408,-0.48594,0.40592,-30.3,11.82,12.78
5.7886,-1.7298,-4.9033,0.0082467,-0.46426,0.30238,-30.24,12.06,12.54
5.9657,-1.471,-4.808,0.044288,-0.41172,0.35583,-30.06,12.36,12.54
6.9736,-4.2087,-6.0202,0.011301,-0.44532,0.28375,-30.06,12.48,12.6
5.6797,-2.6151,-4.5764,-0.027184,-0.41172,0.16157,-29.76,12.78,12.72
6.9736,-3.8137,-6.4697,-0.047037,-0.29077,0.1628,-29.76,12.9,12.72
4.4402,-3.5549,-4.5764,-0.042761,-0.40836,0.098655,-29.28,13.08,12.84
6.0202,-3.5685,-6.7966,-0.026573,-0.0064141,0.087965,-29.1,13.2,12.9
6.1019,-5.1621,-7.9134,0.0045815,-0.13592,0.12462,-28.98,13.38,13.08
6.279,-3.3506,-7.1371,-0.009163,0.21228,0.017104,-28.5,13.74,13.26
5.775,-2.4925,-6.0611,0.12798,0.091935,0.11148,-28.32,13.8,13.38
5.094,-2.3563,-5.8976,0.22083,0.12889,0.21258,-28.32,13.98,13.62
5.9657,-4.7126,-7.7364,0.14691,0.21197,0.11637,-27.9,14.22,13.74
4.7944,-3.732,-5.5435,0.14203,0.2697,0.094684,-27.9,14.16,13.8
6.2654,-3.337,-7.4367,0.11362,0.41997,-0.0030543,-27.78,14.1,13.8
5.7886,-4.9442,-6.9872,0.069639,0.49694,-0.10843,-27.72,14.16,13.92
5.7614,-4.699,-6.2109,0.04948,0.55558,-0.16646,-27.84,14.28,13.8
3.6775,-2.438,-3.8001,0.08827,0.6915,-0.27703,-28.02,14.22,13.5
7.5321,-1.757,-6.7693,0.15821,0.96639,-0.28344,-28.14,14.28,13.2
8.4038,-4.3994,-9.2482,0.1463,0.69516,-0.24129,-28.26,14.22,13.02
5.4073,-2.4244,-6.6059,0.22816,0.54398,-0.058032,-28.44,14.22,12.66
9.0439,-1.8932,-7.5048,0.079412,0.78771,-0.1405,-28.74,14.22,12.3
6.8102,-2.8194,-5.8704,0.23457,0.45326,-0.09163,-28.98,14.22,11.88
8.6762,-3.7456,-8.0905,0.061087,0.70066,-0.23182,-29.52,14.1,11.34
6.0066,-2.2065,-4.9169,0.050091,0.42822,-0.16096,-29.82,14.1,10.92
7.2324,-1.4574,-6.0202,0.02474,0.54153,-0.11362,-29.94,14.1,10.56
7.4912,-4.8488,-6.7693,-0.029016,0.27825,-0.12401,-30.42,13.92,9.9
5.5299,-2.1793,-5.0668,-0.082467,0.24312,-0.20647,-30.84,13.74,9.24
8.0632,-2.2746,-6.1564,-0.15516,0.61942,-0.22052,-30.9,13.62,8.88
6.6059,-5.8976,-6.0066,0.015272,0.15974,-0.21594,-31.02,13.56,8.46
6.8374,-2.3155,-4.7944,-0.077274,0.58979,-0.35675,-31.5,13.38,7.8
7.7091,-2.9284,-5.4618,-0.0018326,0.57024,-0.30757,-31.62,13.02,7.2
7.8862,-4.5764,-6.1019,0.063225,0.42822,-0.29047,-31.86,12.54,6.72
7.6002,-3.6911,-5.8704,-0.032681,0.53909,-0.37721,-32.1,12.12,6.48
7.0962,-3.5549,-4.8625,0.048258,0.49908,-0.37538,-32.28,12.0,6.36
7.4095,-4.4402,-5.4073,0.068111,0.58215,-0.54734,-32.4,11.82,5.7
6.4424,-4.0589,-5.5707,0.097433,0.64813,-0.63469,-32.82,11.34,5.1
6.8374,-3.1463,-5.6797,0.12187,0.7703,-0.56261,-33.0,10.86,4.5
7.8045,-3.7456,-5.5026,0.083994,0.65821,-0.63866,-33.42,10.44,3.9
6.4697,-1.2803,-5.8295,0.041539,0.64446,-0.49663,-33.78,9.96,3.42
9.2618,-3.7728,-7.0417,-0.031765,0.66615,-0.46701,-34.08,9.6,3.18
7.6955,-3.0918,-6.1836,-0.19609,0.48289,-0.46578,-34.38,9.18,2.64
6.7148,-0.91256,-6.0611,-0.26695,0.48411,-0.37385,-34.56,9.0,2.34
6.9872,-0.9398,-5.6797,-0.31246,0.47953,-0.10904,-34.68,8.76,1.8
12.177,-4.2223,-7.6546,-0.4386,0.44532,-0.1576,-35.1,8.16,1.08
7.5593,-1.8115,-4.7807,-0.31979,0.13042,-0.038485,-35.16,7.92,0.78
7.6683,0.01362,-5.598,-0.27855,0.24801,0.051924,-35.52,7.56,0.18
10.815,-2.5198,-6.6876,-0.33078,0.32009,0.197,-35.64,7.26,0.06
10.392,-2.4653,-6.1292,-0.36224,0.12645,0.056505,-35.88,7.08,0.06
7.7364,-1.1169,-5.1894,-0.25473,0.069639,0.1689,-35.94,6.9,-0.24
8.6081,-0.98067,-5.2847,-0.25656,0.2022,0.24404,-36.3,6.66,-0.72
10.12,-1.58,-5.6252,-0.24007,0.071777,0.18204,-36.3,6.66,-0.9
8.5944,-1.4165,-5.1621,-0.2248,-0.08094,0.12645,-36.24,6.6,-0.96
8.1858,-0.8717,-5.1213,-0.25901,-0.072388,0.16341,-36.24,6.54,-1.02
7.8181,-0.51757,-4.8216,-0.28711,-0.12248,0.2532,-36.24,6.6,-1.26
9.9565,-1.8796,-5.2847,-0.33201,-0.15882,0.17532,-36.12,6.54,-1.02
9.4253,-2.7241,-5.884,-0.31001,-0.30146,0.17501,-36.18,6.66,-0.9
7.1507,0.21793,-5.2166,-0.27336,-0.27733,0.21808,-36.24,6.84,-0.54
10.229,-1.4574,-6.8783,-0.25992,-0.30849,0.40806,-36.06,6.84,-0.42
9.2618,-1.9477,-5.6797,-0.1741,-0.45387,0.5174,-36.18,7.08,-0.42
9.8475,-2.0158,-6.2926,-0.14966,-0.41692,0.50977,-35.94,7.26,-0.24
8.4174,-1.9613,-4.8625,-0.072998,-0.52382,0.56352,-35.7,7.26,-0.06
7.1507,-1.0079,-4.985,0.014661,-0.46609,0.63835,-35.64,7.5,0.24
8.2131,-3.2553,-5.6661,0.023213,-0.62064,0.69486,-35.46,7.86,0.6
6.0474,-1.9477,-5.4481,0.021991,-0.64355,0.80817,-35.28,8.1,0.84
8.3901,-2.4789,-7.1779,-0.1292,-0.59101,0.73945,-35.04,8.4,0.9
6.5378,-2.8467,-5.9385,-0.11912,-0.87506,0.81306,-34.68,8.94,1.5
5.7205,-1.6344,-6.17,-0.20525,-0.71074,0.8546,-34.62,9.36,1.74
7.3686,-2.1929,-5.7342,-0.26176,-0.6521,0.87812,-34.32,9.66,1.98
7.4912,-3.2825,-6.1019,-0.3146,-0.82956,0.83444,-33.66,10.5,2.4
6.8919,-2.8875,-5.9112,-0.4105,-0.84971,0.82192,-33.36,10.8,2.82
6.2245,-3.4051,-4.9169,-0.36927,-0.87262,0.84177,-33.0,11.1,3.24
7.0009,-3.7592,-5.7069,-0.34422,-0.67684,0.7309,-32.28,12.0,4.08
7.5865,-3.9635,-5.4073,-0.34453,-0.65515,0.56261,-31.92,12.54,4.44
6.0202,-2.6015,-4.9578,-0.32987,-0.64446,0.43891,-31.14,13.32,5.46
7.0281,-3.0782,-6.0202,-0.32162,-0.44715,0.40867,-30.72,13.86,6.06
6.6059,-3.3234,-6.5378,-0.23518,-0.47709,0.34453,-30.18,14.52,7.02
7.1507,-4.7263,-6.7557,-0.21655,-0.44227,0.21044,-29.76,14.88,7.44
5.993,-3.8682,-5.993,-0.09499,-0.39431,0.18601,-29.4,15.06,8.04
6.5241,-3.8546,-6.8783,-0.047647,-0.31918,0.10324,-29.16,15.36,8.52
6.3335,-1.7706,-5.9249,0.076969,-0.10385,0.20708,-28.44,15.96,9.48
7.0962,-4.1814,-7.8045,0.036957,-0.29749,0.14539,-28.08,16.02,10.02
5.8567,-3.8818,-6.2245,-0.026267,-0.078191,0.0039706,-27.48,16.56,10.74
6.456,-2.6968,-5.7205,-0.055589,-0.018631,-0.08827,-27.36,16.74,10.98
6.2926,-3.4187,-6.3198,-0.000305,-0.10812,-0.091019,-27.12,16.92,11.22
6.96,-4.0997,-6.6876,-0.04215,0.04612,-0.28924,-26.76,17.04,11.76
6.3743,-2.6015,-6.0066,-0.01741,0.012828,-0.33384,-26.52,17.1,11.88
6.8783,-2.0975,-8.3629,-0.030238,0.027489,-0.29658,-26.46,16.98,12.18
7.2188,-3.6366,-7.2188,-0.090408,-0.08827,-0.36835,-26.22,17.04,12.42
7.3141,-2.0294,-6.17,-0.11148,0.002138,-0.45784,-26.28,17.1,12.54
6.674,-1.1577,-5.3528,-0.0067195,-0.065973,-0.4331,-26.22,17.28,12.54
8.3765,-3.7456,-7.9951,0.0024435,-0.13592,-0.48167,-26.28,17.1,12.78
6.5786,-1.9477,-5.9657,-0.0073304,-0.2025,-0.5003,-26.28,16.98,12.78
7.8317,-2.0567,-7.2052,0.030238,-0.17074,-0.49388,-26.34,16.86,12.66
5.7886,-2.9284,-5.6661,-0.036957,-0.40317,-0.52412,-26.7,16.62,12.84
6.3743,-0.35413,-4.7126,0.083078,-0.074526,-0.49327,-26.76,16.5,12.96
7.4776,-1.0624,-5.598,0.19792,-0.405,-0.34728,-26.82,16.26,13.02
6.7966,-5.8295,-7.0962,0.11179,-0.43585,-0.49969,-27.18,15.9,13.08
5.38,-4.8488,-5.8704,0.023824,-0.18418,-0.59743,-27.3,15.66,13.08
5.6524,-3.6775,-5.1621,0.036957,0.023824,-0.62186,-27.3,15.6,13.08
6.3198,-3.9635,-6.0474,0.11698,0.070555,-0.65668,-27.54,14.94,13.14
5.9249,-1.975,-4.985,0.13683,0.25076,-0.6411,-27.72,14.58,13.08
7.0281,-1.7979,-6.4969,0.1295,0.29169,-0.56719,-28.02,14.34,13.14
5.8159,-3.0101,-5.5707,0.090103,0.11881,-0.53115,-28.2,13.86,13.02
6.4833,-3.9635,-6.456,0.15821,0.19456,-0.40897,-28.38,13.5,13.02
6.0611,-3.732,-6.1973,0.16463,0.15058,-0.45418,-28.5,13.32,12.9
6.9736,-3.8818,-6.851,0.20128,0.33139,-0.6182,-28.86,12.84,12.6
6.8919,-3.3642,-6.3062,0.23457,0.37324,-0.61239,-29.16,12.36,12.42
5.3119,-2.7241,-5.2847,0.25137,0.47037,-0.49877,-29.46,12.12,12.24
7.7091,-3.4732,-7.2188,0.1295,0.47006,-0.39859,-29.88,11.64,11.88
7.8589,-2.9148,-6.4016,-0.026573,0.40714,-0.45082,-30.12,11.52,11.7
7.7364,-1.7706,-7.2733,-0.09163,0.33537,-0.3766,-30.54,11.22,11.4
5.6797,-2.9692,-5.9249,-0.15699,0.21747,-0.30513,-31.08,11.04,10.98
5.6252,-2.0567,-5.598,-0.0085521,0.37843,-0.11942,-31.26,10.8,10.92
8.5672,-1.2122,-7.5048,0.06353,0.19639,-0.058032,-31.44,10.38,10.56
7.5865,-1.2939,-7.7091,0.078191,0.076969,-0.06353,-31.86,9.78,10.2
8.7987,-2.5061,-7.7364,0.12675,0.1631,-0.012828,-32.28,9.84,10.02
6.4152,-0.64016,-4.9033,0.21197,0.025656,0.059559,-32.4,9.48,10.02
7.3005,-1.9341,-7.4231,0.32529,0.049786,0.2364,-32.64,8.94,9.54
10.188,-3.9499,-7.6002,0.10751,0.035125,-0.092852,-32.76,8.88,9.48
7.927,-2.9692,-5.7342,0.12339,-0.029932,-0.21289,-32.82,8.76,9.48
7.0553,-0.57205,-6.6467,0.15302,0.029932,-0.066584,-33.12,8.28,9.06
7.8045,0.054481,-6.1428,0.065973,0.14966,-0.07422,-33.18,8.1,8.94
11.605,-2.942,-7.8998,-0.045815,0.033903,-0.23854,-33.12,7.98,8.82
4.9987,-0.16344,-4.9169,0.030543,-0.21808,-0.19792,-33.12,7.68,8.64
6.8783,-0.16344,-6.1292,0.025351,0.013744,0.016188,-33.06,7.62,8.52
9.1529,-1.185,-7.0553,0.010079,-0.072998,0.071777,-33.24,7.62,8.4
10.597,-2.5742,-7.9134,0.024435,-0.19884,0.000611,-33.3,7.56,8.28
5.9249,-0.57205,-5.3119,0.11301,-0.36499,0.042455,-33.06,7.44,8.22
5.6116,-1.1441,-5.6661,0.26267,-0.23305,0.30635,-33.12,7.44,8.22
7.8045,-2.3836,-6.1973,0.17715,-0.27611,0.18601,-33.18,7.62,8.34
6.6876,-1.0624,-5.8023,0.23854,-0.44349,0.23366,-33.12,7.62,8.22
5.6933,-0.49033,-5.8976,0.18998,-0.40378,0.34911,-33.12,7.68,8.16
7.7091,-3.9771,-7.2324,0.13225,-0.51588,0.34208,-33.12,7.68,8.34
5.2983,-2.5061,-5.0123,0.051618,-0.53695,0.34392,-32.82,7.92,8.46
6.7829,-2.0294,-5.9521,-0.019853,-0.34819,0.36285,-32.7,7.98,8.64
8.2812,-4.2768,-7.641,-0.0067195,-0.53939,0.41753,-32.64,8.22,8.94
7.8181,-3.9499,-7.2596,-0.098044,-0.55344,0.26878,-32.52,8.4,9.18
5.4345,-1.1169,-4.9578,-0.061697,-0.50488,0.354,-32.28,8.7,9.42
7.2188,-2.1248,-6.0883,0.090103,-0.54764,0.57238,-31.86,9.0,9.72
8.5808,-4.2495,-7.75,0.02474,-0.63897,0.34697,-31.68,9.3,9.96
6.674,-4.7944,-7.3277,0.046731,-0.79321,0.30604,-31.56,9.66,10.02
3.7456,-0.027241,-3.5549,0.12217,-0.48808,0.39156,-31.14,9.96,10.5
8.3901,-4.0997,-8.7443,0.11454,-0.48075,0.2813,-30.9,10.26,10.8
4.4947,-4.1542,-5.7342,0.0018326,-0.65179,0.15944,-30.48,10.8,11.52
6.3471,-2.3427,-6.3607,-0.057727,-0.36927,0.002138,-30.42,10.98,11.94
5.7069,-2.261,-5.8704,0.097738,-0.56872,0.1014,-30.12,11.22,12.3
5.775,-4.4675,-7.2052,0.094379,-0.31001,0.002138,-29.76,11.64,12.9
6.8102,-4.7944,-7.927,0.032376,-0.22388,-0.15088,-29.4,12.0,13.08
5.8159,-4.8761,-7.9679,0.16799,-0.081856,-0.11332,-29.16,12.12,13.62
5.6661,-4.6309,-7.0962,0.10904,0.014966,-0.2364,-29.1,12.24,14.04
3.9908,-3.051,-4.6445,0.27184,0.22388,-0.11576,-29.04,12.3,14.28
6.7829,-3.337,-7.4912,0.1912,0.2135,-0.19517,-28.92,12.24,14.46
4.4266,-4.018,-5.4345,0.21166,0.22358,-0.13867,-28.8,12.36,14.76
5.6388,-3.6366,-6.5514,0.17165,0.48991,-0.18387,-28.86,12.48,14.76
5.2711,-5.2438,-6.9736,0.18815,0.4273,-0.18387,-28.5,12.48,14.76
5.1349,-3.6366,-6.565,0.1628,0.74556,-0.30421,-28.68,12.48,14.58
4.4402,-1.4165,-5.094,0.31704,0.7703,-0.17043,-28.86,12.48,14.52
6.4969,-3.4051,-8.2267,0.30574,0.80237,-0.10996,-28.98,12.66,14.22
6.1836,-3.732,-7.5593,0.14936,0.6747,-0.15608,-29.4,12.6,13.86
5.3256,-1.2258,-5.7069,0.11545,0.83536,-0.058338,-29.64,12.48,13.68
7.641,-2.7922,-7.4912,0.090103,0.50244,-0.025656,-30.06,12.42,12.96
6.5378,-4.522,-5.9249,-0.0067195,0.59498,-0.16768,-30.36,12.6,12.54
5.8431,-3.623,-5.5435,-0.02138,0.68539,-0.18631,-30.6,12.48,12.06
6.9055,-4.413,-6.5378,0.02138,0.71349,-0.13714,-30.84,12.48,11.52
8.0769,-3.3778,-7.355,0.02138,0.80512,-0.26267,-31.44,12.24,10.68
7.9951,-4.6718,-7.7772,0.034819,0.59468,-0.31398,-31.5,12.3,10.38
5.5162,-3.4596,-4.9987,0.13195,0.60323,-0.27764,-31.92,12.12,9.96
8.2539,-4.018,-7.2869,0.10232,0.83261,-0.21564,-32.52,11.94,9.06
6.3471,-4.127,-5.5435,0.094684,0.51007,-0.19395,-32.7,11.76,8.58
6.4152,-3.2825,-5.4754,0.081856,0.66157,-0.15699,-33.12,11.4,7.92
8.3629,-4.3449,-6.96,-0.0082467,0.48533,-0.18479,-33.48,11.28,7.44
6.2926,-5.3528,-5.7205,0.0281,0.49266,-0.1628,-33.84,10.92,6.3
7.927,-3.4732,-5.8976,-0.12462,0.8772,-0.36927,-34.08,10.62,5.88
5.5707,-2.2337,-5.5571,0.1066,0.65821,-0.15608,-34.68,10.2,4.74
8.8668,-2.8467,-6.279,0.020769,0.90866,-0.24038,-35.04,10.02,4.26
8.1722,-4.0725,-5.6388,0.010996,0.49083,-0.16035,-35.4,9.9,3.78
8.2131,-4.7944,-6.279,-0.10934,0.52962,-0.34117,-35.58,9.66,3.24
6.7557,-4.5764,-5.0804,-0.096211,0.51832,-0.35186,-36.18,9.06,2.1
5.5162,-2.2474,-4.8625,-0.068417,0.72174,-0.33842,-36.36,8.82,1.62
8.6762,-1.7979,-6.1292,-0.18295,0.78343,-0.36621,-36.96,8.52,0.48
9.5479,-2.2746,-6.6604,-0.28314,0.49511,-0.20892,-37.2,8.28,-0.06
9.8066,-3.2689,-6.8238,-0.37049,0.39095,-0.16646,-37.38,8.1,-0.3
7.1643,-3.0237,-5.3119,-0.30879,0.31673,0.028405,-37.5,7.44,-1.14
7.7091,-2.2337,-5.4209,-0.28314,0.43066,0.05284,-37.56,7.26,-1.44
8.1313,-1.7298,-6.0611,-0.26603,0.37507,0.17501,-37.86,6.9,-2.04
8.6081,-3.2689,-5.1757,-0.27825,0.20128,0.14569,-37.92,6.66,-2.52
6.1564,-1.2258,-4.4402,-0.19028,0.27489,0.31246,-37.92,6.6,-2.7
9.0848,-3.1327,-6.7148,-0.33384,0.35216,0.2416,-37.98,6.42,-2.94
6.6331,-0.5993,-4.1814,-0.3036,0.19487,0.0956,-38.1,6.06,-3.18
8.1586,-0.83084,-5.3937,-0.30513,0.32712,0.22785,-38.1,6.0,-3.24
9.6568,-3.5822,-4.7399,-0.3094,0.26909,0.31948,-38.16,5.94,-3.48
8.8668,-0.7355,-5.9385,-0.29505,0.16463,0.29169,-38.04,5.7,-3.78
8.7306,-1.471,-5.7614,-0.31734,-0.014966,0.33628,-38.04,5.7,-3.78
9.3708,-2.1384,-5.8704,-0.3598,-0.0562,0.23213,-38.16,5.76,-3.9
7.2052,-1.7843,-4.7399,-0.26909,-0.11576,0.35094,-38.34,6.18,-4.14
8.4174,-2.6696,-5.2711,-0.26878,-0.15944,0.42028,-38.46,6.36,-4.26
10.801,-4.1814,-6.279,-0.35797,-0.22907,0.24374,-38.34,6.48,-4.44
6.8238,-1.8115,-4.6718,-0.40531,-0.39645,0.18265,-38.34,6.78,-4.44
7.2188,-1.2531,-5.8295,-0.42455,-0.33139,0.34025,-38.22,6.96,-4.56
9.7249,-1.7298,-5.7614,-0.42852,-0.47861,0.42119,-38.22,7.02,-4.5
7.8045,0.095342,-5.6661,-0.47159,-0.66829,0.59712,-37.98,7.5,-4.56
9.4389,-3.2416,-6.5378,-0.49999,-0.80023,0.5733,-37.92,7.62,-4.44
8.1722,-3.2961,-5.4073,-0.44318,-0.93065,0.49205,-37.86,7.8,-4.2
9.507,-2.8467,-6.6604,-0.46304,-0.64813,0.49052,-37.68,8.1,-3.6
7.3822,-3.3097,-4.9987,-0.32651,-0.9221,0.47556,-37.38,8.28,-3.3
5.489,-1.0215,-4.9306,-0.36255,-0.59284,0.53176,-37.14,8.4,-2.94
7.6274,-2.8603,-4.9306,-0.34239,-0.8717,0.40836,-36.9,8.82,-2.1
6.3335,-1.8524,-5.0531,-0.25992,-0.77977,0.52993,-36.6,9.06,-1.62
8.4174,-3.3778,-5.7614,-0.27214,-0.80879,0.42577,-36.36,9.3,-1.14
5.7614,-3.1599,-5.0668,-0.19853,-0.87445,0.3882,-35.94,9.84,-0.12
7.1915,-3.8546,-6.5241,-0.18815,-0.65088,0.31979,-35.7,10.08,0.6
6.7557,-4.0316,-5.3664,-0.14111,-0.686,0.25901,-35.28,10.38,1.32
6.5241,-2.547,-6.1564,-0.15516,-0.38668,0.30971,-34.92,10.92,2.58
7.6546,-2.7241,-6.5105,-0.21258,-0.58582,0.26634,-34.74,11.22,3.12
6.3471,-3.5413,-6.6331,-0.23305,-0.55772,0.26786,-34.5,11.46,3.6
5.094,-3.6503,-4.985,-0.22877,-0.49908,0.2419,-33.9,11.82,4.74
5.489,-3.0101,-5.3937,0.039095,-0.20372,0.2865,-33.84,12.12,5.22
6.9464,-4.6445,-7.8998,0.069333,-0.38362,0.18051,-33.54,12.48,5.7
4.699,-3.1327,-5.3528,0.1179,-0.29932,0.15058,-33.3,12.48,6.12
7.1507,-3.4051,-7.4231,0.18692,-0.016799,0.14661,-32.94,12.84,7.08
5.8976,-5.9657,-7.4776,0.17868,-0.21075,0.098349,-32.82,13.08,7.38
6.3607,-4.413,-5.9112,0.022297,0.10537,-0.20617,-32.76,13.14,7.98
5.489,-3.3778,-5.9249,0.093768,0.015577,-0.083689,-32.52,13.32,8.4
5.6524,-3.7456,-5.9249,0.037263,0.24099,-0.14813,-32.52,13.44,8.52
7.9543,-4.0316,-7.6274,-0.068722,0.1741,-0.24465,-32.46,13.56,8.64
5.4618,-2.5061,-5.203,0.029016,0.23335,-0.18906,-32.34,13.44,8.76
7.6546,-3.3915,-7.2869,-0.025962,0.38515,-0.2135,-32.4,13.44,8.82
6.1155,-3.7592,-6.3471,0.075442,0.21961,-0.13408,-32.4,13.56,8.94
6.8919,-2.6968,-7.5457,0.021991,0.33781,-0.074831,-32.28,13.56,8.82
6.96,-4.3858,-7.9951,0.027184,0.21319,-0.12065,-32.4,13.44,8.88
5.4481,-3.4051,-6.0338,-0.040317,0.46456,-0.10996,-32.4,13.5,8.76
7.3141,-3.1191,-6.4833,-0.036346,0.36927,-0.11332,-32.64,13.32,8.58
6.5786,-3.2825,-5.993,-0.025656,0.34392,-0.093462,-32.82,13.14,8.58
6.96,-4.4811,-6.6604,-0.081551,0.33139,-0.12614,-32.82,13.26,8.22
6.565,-3.3915,-5.1213,-0.095906,0.55222,-0.18204,-33.06,13.08,7.86
7.6002,-2.942,-5.775,-0.096211,0.54214,-0.23549,-33.18,12.9,7.74
7.5729,-3.9227,-6.3607,-0.012828,0.32651,-0.2193,-33.36,12.84,7.5
6.3743,-3.2689,-5.993,-0.059865,0.62003,-0.25045,-33.54,12.66,7.44
8.7034,-2.8603,-6.6059,-0.15302,0.6747,-0.33567,-33.72,12.6,7.26
7.8862,-5.1076,-6.6059,-0.080329,0.33537,-0.32223,-33.96,12.42,6.96
6.7421,-2.7786,-5.3119,-0.086437,0.81215,-0.30757,-34.38,12.18,6.42
8.7579,-4.0452,-6.1564,-0.03543,0.61148,-0.36316,-34.44,12.06,6.06
6.674,-3.051,-4.5492,0.033598,0.66554,-0.36224,-34.62,11.82,5.76
9.1937,-4.0725,-5.884,-0.074526,0.68111,-0.57727,-34.92,11.34,4.98
5.6388,-2.6832,-4.6445,0.019242,0.50091,-0.47464,-35.04,11.04,4.56
7.8317,-1.6072,-6.4016,-0.091019,0.72296,-0.49388,-35.22,10.74,4.32
9.0575,-3.7592,-6.0747,-0.13714,0.49327,-0.55619,-35.7,10.26,3.48
7.9134,-3.0646,-6.7693,-0.15638,0.3821,-0.62461,-35.94,9.9,3.06
7.4776,-3.2961,-6.3198,-0.18815,0.38179,-0.45815,-36.06,9.6,2.64
9.0848,-1.4982,-7.0962,-0.25076,0.51007,-0.29352,-36.54,9.24,1.68
9.793,-0.85808,-7.0281,-0.34575,0.34483,-0.18784,-36.66,9.0,1.2
7.7772,0.054481,-6.279,-0.31154,0.12217,0.066584,-36.72,8.76,0.96
8.0224,-2.0567,-5.4073,-0.37935,0.071777,0.095906,-37.02,8.46,0.48
8.0632,-2.1248,-5.6933,-0.33323,0.087965,0.18815,-37.26,8.34,0.18
9.4253,-2.9965,-6.2245,-0.32009,0.080329,0.1405,-37.38,8.1,0.18
8.0905,-2.2337,-5.2575,-0.2923,0.030543,0.05681,-37.62,7.98,-0.24
7.9407,-0.39499,-5.489,-0.21014,0.10782,0.11362,-37.62,8.1,-0.42
7.8589,-0.12258,-5.775,-0.21564,0.045815,0.2981,-37.68,8.1,-0.48
8.54,-2.6015,-5.4618,-0.23335,-0.0085521,0.33842,-37.74,8.04,-0.42
6.1428,-0.98067,-4.8625,-0.13561,-0.055283,0.39156,-37.74,8.22,-0.54
7.7772,-1.5255,-5.7069,-0.16982,0.035736,0.31398,-37.74,8.28,-0.48
8.6353,-2.0022,-6.279,-0.17685,-0.042761,0.30116,-37.74,8.4,-0.48
8.1858,-0.74912,-6.4016,-0.14813,-0.11209,0.2532,-37.74,8.64,-0.12
8.0905,-1.5663,-6.17,-0.14936,-0.20495,0.38698,-37.68,8.88,-0.24
9.6704,-1.8387,-6.2517,-0.19761,-0.16249,0.29719,-37.44,9.18,-0.18
8.2812,-2.3155,-5.5571,-0.16982,-0.43677,0.41569,-37.26,9.24,-0.06
6.7693,-1.0215,-5.489,-0.16921,-0.37293,0.56108,-37.14,9.42,-0.06
8.2948,-1.6481,-6.3335,-0.19487,-0.35949,0.59804,-36.96,9.54,0.18
7.6002,-2.6832,-5.8023,-0.1741,-0.68814,0.58826,-36.84,9.84,0.3
6.1292,-2.1656,-5.9385,-0.15272,-0.63835,0.6521,-36.48,10.08,0.48
7.0145,-0.6674,-5.1621,-0.1967,-0.45418,0.61636,-36.18,10.44,0.9
8.1858,-1.7706,-5.5571,-0.16463,-0.54336,0.65332,-36.0,10.74,1.26
6.7693,-3.5958,-4.9987,-0.18418,-0.6857,0.60231,-35.76,11.46,1.8
6.7693,-2.6696,-5.2575,-0.24404,-0.52412,0.58979,-35.46,11.82,1.86
8.2403,-3.514,-5.6116,-0.24435,-0.46976,0.53329,-35.1,12.06,2.28
7.355,-3.2553,-5.598,-0.1631,-0.69822,0.44135,-35.04,12.42,2.82
7.4095,-2.5879,-5.7069,-0.17776,-0.45235,0.37507,-34.8,12.9,3.54
7.4095,-4.1814,-5.4209,-0.20556,-0.59437,0.33934,-34.68,13.32,4.02
7.1915,-4.0861,-5.8295,-0.22816,-0.3207,0.3543,-34.2,14.28,4.86
5.3119,-4.6718,-4.7126,-0.36957,-0.24251,0.18173,-33.96,14.58,5.4
6.3062,-4.8352,-7.0417,-0.33567,-0.061697,0.054367,-33.42,15.18,6.24
6.3062,-4.8352,-7.0417,-0.33567,-0.061697,0.054367,-33.42,15.18,6.24
4.3994,-3.8954,-5.2438,-0.18509,0.07758,0.16799,-33.18,15.36,6.54
6.0066,-3.9227,-7.0145,-0.17654,0.18418,0.13775,-32.82,15.9,7.26
6.1836,-3.337,-6.6059,-0.062614,0.23824,0.15821,-32.52,16.02,7.62
6.2245,-3.6366,-6.3471,0.0061087,0.29932,0.17501,-32.28,16.2,8.22
5.1894,-3.9227,-5.2438,0.07025,0.26114,0.2303,-32.1,16.38,8.52
5.5435,-4.6582,-5.7069,0.1179,0.4383,0.31124,-31.92,16.38,8.52
6.0066,-3.1599,-4.9987,0.043677,0.54214,0.13806,-31.74,16.68,8.64
6.7421,-2.4108,-6.2517,0.019242,0.58032,0.12584,-31.62,16.74,8.64
6.8647,-4.6582,-6.7285,-0.041844,0.58796,0.076358,-31.56,16.92,8.28
6.9191,-4.3721,-5.9112,-0.12095,0.61545,-0.025045,-31.62,16.98,8.1
6.9736,-3.514,-5.5299,-0.15119,0.70036,-0.063835,-31.74,17.04,7.86
7.0553,-5.3392,-6.1428,-0.13622,0.67165,-0.10049,-32.04,17.04,7.26
7.6683,-3.0237,-6.3607,-0.21686,0.91172,-0.19517,-32.1,17.16,6.9
7.5048,-1.866,-6.5105,-0.16371,0.80817,-0.040317,-32.16,17.22,6.66
8.5536,-2.3155,-6.9191,-0.19151,0.68722,0.013439,-32.28,17.1,5.82
9.8611,-2.7786,-7.4912,-0.30207,0.44379,-0.012828,-32.4,16.92,5.46
8.3765,-3.7865,-6.3743,-0.26328,0.27489,0.031154,-32.7,16.92,4.98
7.7227,-2.9011,-5.5435,-0.31551,0.46701,0.0030543,-33.0,17.1,4.2
8.8941,-2.7649,-6.1836,-0.3488,0.46242,-0.014966,-33.12,17.1,3.84
9.8066,-4.6037,-6.96,-0.36927,0.15302,-0.093157,-33.24,16.92,3.42
5.6252,0.24517,-4.018,-0.35277,0.18448,-0.074526,-33.54,16.62,3.12
10.815,-2.2746,-6.0338,-0.32132,0.26023,0.03207,-33.66,16.68,2.82
10.079,-3.0373,-6.0202,-0.36408,-0.10507,0.009163,-33.78,16.68,2.58
9.221,-2.547,-6.5922,-0.47922,0.011912,-0.058948,-33.9,16.74,2.4
8.0905,-3.3642,-4.8625,-0.42577,-0.18051,-0.14844,-34.02,16.62,2.22
7.8045,-2.6287,-5.489,-0.40714,-0.081856,-0.24068,-34.14,16.56,2.1
9.0303,-1.2395,-5.3392,-0.32681,-0.06353,-0.32132,-34.44,16.32,2.04
10.311,-1.1305,-6.1564,-0.31765,-0.11637,-0.36988,-34.44,16.32,2.04
9.902,-0.78998,-6.1564,-0.2923,-0.40684,-0.34941,-34.56,16.26,2.1
8.2812,-1.6753,-5.6524,-0.17562,-0.52748,-0.14172,-34.62,15.96,2.58
8.9894,-1.3348,-5.6252,-0.19028,-0.551,-0.28375,-34.74,15.9,2.88
7.8726,0.51757,-5.0531,-0.15608,-0.57452,-0.27122,-34.8,15.78,3.18
9.6432,-2.1384,-6.1155,-0.12889,-0.67317,-0.33567,-35.16,15.66,3.48
6.8374,-0.8036,-4.5628,-0.054672,-0.74067,-0.33995,-35.34,15.36,3.96
9.6704,-2.8058,-6.1973,-0.082161,-0.64355,-0.51252,-35.46,15.06,4.38
7.927,-1.58,-4.3449,0.049786,-0.73151,-0.354,-35.46,14.82,4.74
8.5808,-0.88532,-5.9112,0.03207,-0.60048,-0.44685,-35.7,14.34,5.52
7.9951,-1.4574,-6.4152,0.054672,-0.80329,-0.24557,-35.88,14.04,6.0
7.9951,0.20431,-6.3471,0.12339,-0.71838,-0.11637,-36.06,13.74,6.96
7.4912,1.2395,-5.8976,0.1799,-0.73518,0.028405,-36.18,13.5,7.32
7.1371,-0.16344,-6.1836,0.22999,-0.79382,0.19853,-36.06,13.26,7.74
7.7227,-2.3699,-6.3471,0.17868,-0.79077,0.025962,-36.0,12.9,8.64
5.6661,0.28603,-5.1485,0.27336,-0.81153,0.043677,-35.94,12.78,9.12
6.3198,-0.53119,-6.0883,0.32712,-0.72632,0.20159,-35.76,12.66,9.48
10.065,-2.9148,-7.3277,0.24771,-0.64355,0.097128,-35.34,12.36,10.38
8.3765,-1.2531,-5.489,0.32742,-0.76022,-0.061087,-35.1,12.36,10.62
5.7205,-1.2531,-4.8352,0.3656,-0.82314,-0.0073304,-34.92,12.24,11.04
8.3901,-3.4187,-6.8102,0.27489,-0.6802,-0.06017,-34.5,12.18,11.88
8.0496,-2.6015,-5.598,0.29963,-0.57635,-0.20189,-34.2,12.18,12.48
4.7263,-2.0158,-4.1542,0.38118,-0.73884,-0.19639,-33.66,12.36,13.08
5.8295,-1.0624,-5.5435,0.44135,-0.24587,-0.14997,-33.24,12.36,13.56
8.9622,-3.8409,-8.6353,0.34697,-0.54764,-0.16585,-33.12,12.48,13.92
5.3392,-2.6423,-5.4345,0.40745,-0.31826,0.03543,-32.88,12.48,14.16
7.5593,-3.1191,-7.5457,0.20556,-0.32773,-0.0051924,-32.4,12.54,14.7
3.3778,-1.3484,-4.8897,0.27917,-0.51985,0.29291,-32.1,12.48,15.0
6.0747,-2.6015,-8.322,0.11973,-0.2419,0.29169,-32.1,12.72,15.3
4.1951,-4.8216,-6.8374,0.017715,-0.5901,0.31032,-31.44,12.9,15.96
3.5004,-3.3506,-5.993,0.018326,-0.15516,0.22633,-31.08,12.96,16.26
6.9872,-2.6015,-7.4095,0.095295,-0.33811,0.20617,-30.78,13.14,16.5
5.7342,-3.4323,-6.7148,0.2025,-0.44563,0.32467,-30.24,13.38,16.92
7.3958,-2.833,-6.279,0.11332,-0.20006,0.17226,-30.06,13.62,16.86
6.3335,-3.2825,-5.9112,0.15669,-0.44166,0.22785,-29.64,13.8,17.04
6.3471,-4.127,-7.2733,0.16524,-0.38423,0.26512,-29.1,14.28,17.34
6.1019,-3.3097,-6.279,0.049786,-0.26176,0.10812,-28.74,14.46,17.64
5.884,-2.9284,-6.6059,0.051924,-0.31704,0.076969,-28.44,14.64,17.88
5.4073,-2.6015,-6.6331,0.041233,-0.26359,0.067501,-28.2,14.82,18.06
5.6797,-6.1155,-8.9349,-0.035736,-0.20159,-0.069028,-27.78,15.36,18.48
3.6503,-3.4187,-4.8897,0.065668,0.022602,-0.081245,-27.54,15.36,18.48
6.3743,-4.4266,-9.3708,0.17287,0.25045,-0.05284,-27.24,15.66,18.54
5.1621,-6.3471,-9.9429,0.15088,0.062308,-0.065668,-27.18,15.96,18.6
4.304,-3.9771,-5.9249,0.15669,0.40225,-0.10629,-26.94,16.14,18.6
5.38,-2.3427,-6.8374,0.25045,0.066584,-0.075747,-26.64,16.38,18.54
3.8546,-3.3642,-6.1564,0.29658,0.32193,-0.026573,-26.58,16.56,18.54
7.8317,-4.3858,-9.3163,0.021075,0.52351,-0.31062,-26.64,16.56,18.48
4.6582,-2.2882,-5.38,0.10996,0.219,-0.29719,-26.64,16.74,18.36
5.7342,-3.1191,-7.4095,0.011912,0.58613,-0.37538,-26.7,16.68,18.18
6.4833,-2.0294,-6.0202,0.12675,0.42516,-0.32132,-26.88,16.74,17.94
7.7772,-1.7298,-7.0145,0.13164,0.44257,-0.39767,-26.88,16.62,17.64
8.3357,-2.5879,-7.7908,0.12767,0.28711,-0.42669,-27.0,16.44,17.46
6.9191,-2.6423,-6.6059,0.16646,0.30116,-0.37232,-27.3,16.32,16.92
7.2188,-3.7728,-7.2869,0.14936,0.17562,-0.40561,-27.48,16.26,16.74
7.7091,-2.5334,-6.9736,0.14661,0.354,-0.42211,-27.9,15.96,16.38
7.5048,-2.6968,-6.3743,0.17471,0.10446,-0.42302,-28.14,15.78,16.14
6.1428,-3.5549,-6.5378,0.17104,0.12706,-0.40806,-28.38,15.72,15.9
5.9793,-2.3155,-5.5707,0.16432,0.3656,-0.41172,-28.56,15.42,15.6
6.6059,-3.4459,-6.6604,0.17226,0.21625,-0.34483,-28.8,15.24,15.3
6.2109,-3.6094,-6.7421,0.097128,0.30574,-0.37965,-28.98,14.94,15.06
5.884,-4.0861,-5.7205,0.01405,0.35919,-0.48075,-29.46,14.52,14.46
4.9306,-3.8682,-5.3119,0.14875,0.38698,-0.34758,-29.52,14.28,14.34
6.0611,-4.1814,-6.6059,0.13378,0.4945,-0.38301,-29.82,14.22,13.98
8.0905,-3.8682,-7.4095,0.14905,0.50916,-0.43066,-30.12,13.92,13.44
7.1915,-3.1191,-5.8976,0.19578,0.49144,-0.50396,-30.18,13.74,13.38
6.4424,-2.4925,-5.8976,0.23671,0.55955,-0.42913,-30.3,13.5,13.14
6.7693,-3.9908,-5.4754,0.23335,0.53237,-0.45968,-30.66,13.08,12.66
6.7421,-2.3836,-5.2711,0.19303,0.68631,-0.50793,-30.96,12.96,12.3
7.4912,-1.5527,-6.1292,0.09896,0.54795,-0.47495,-31.14,12.78,12.06
6.674,-3.4596,-5.8295,0.029627,0.39431,-0.44838,-31.68,12.36,11.28
7.4503,-2.8467,-6.4969,-0.094684,0.5397,-0.46762,-31.86,12.06,10.8
7.8453,-2.9148,-6.4152,-0.11362,0.36652,-0.39676,-32.16,11.94,10.32
7.8726,-1.4574,-6.6604,-0.08491,0.35919,-0.31215,-32.7,11.52,9.48
8.4446,-1.5391,-7.1507,-0.054978,0.27336,-0.22785,-33.12,11.46,9.0
7.8862,-1.8387,-6.8919,-0.0097738,0.20281,-0.15241,-33.42,11.16,8.7
9.3436,-0.89894,-7.5184,-0.0058032,0.28222,-0.037568,-33.72,10.98,8.1
9.1529,-2.2882,-6.9328,-0.002138,0.072693,0.0033598,-34.02,10.8,7.68
6.4697,-1.3757,-5.4209,0.03543,0.075747,0.076358,-34.32,10.74,7.38
9.4389,-1.6344,-6.2926,0.024129,0.12981,0.13775,-34.74,10.56,6.66
8.5127,-1.1986,-5.6388,0.033292,-0.066584,0.09499,-34.98,10.5,6.48
8.0088,-1.5527,-5.7614,0.065057,-0.029627,0.12187,-34.98,10.38,6.3
8.4446,-1.2258,-6.17,0.0061087,-0.1573,0.068722,-35.1,10.2,6.24
8.1177,-2.9148,-5.6661,-0.048869,-0.089797,-0.16524,-35.28,10.2,6.12
7.8045,-0.96704,-5.6116,-0.027184,0.035125,-0.11759,-35.22,10.14,6.0
7.5729,-1.9205,-5.5026,0.046426,-0.065973,0.059254,-35.16,10.02,5.82
10.052,-1.975,-7.5321,0.056505,0.044288,0.20097,-35.04,10.02,5.88
9.6704,-3.1872,-6.6876,-0.0061087,-0.16249,0.2193,-34.98,10.14,5.82
6.6331,-1.9613,-4.9306,0.10965,-0.10873,0.42974,-35.1,10.08,5.82
8.2131,-2.2746,-6.9055,0.033292,0.038179,0.45265,-35.1,9.96,5.76
7.5729,-2.6968,-6.3471,0.071471,-0.13806,0.58857,-35.04,9.9,5.76
6.7012,-1.8387,-5.9385,0.01069,-0.22083,0.52718,-34.86,9.84,5.76
4.9578,-0.20431,-5.0804,-0.019853,-0.28741,0.77488,-34.74,9.9,5.76
9.1937,-2.6696,-7.8998,-0.1518,-0.2981,0.66065,-34.62,10.02,5.76
9.5751,-4.9033,-7.8998,-0.17379,-0.54428,0.57391,-34.56,10.32,5.64
4.4266,-0.98067,-6.0202,-0.24129,-0.45448,0.58796,-34.38,10.74,5.52
9.1665,-2.7786,-6.8374,-0.29535,-0.34239,0.55955,-34.32,10.92,5.76
7.6274,-3.5413,-5.7478,-0.1854,-0.71746,0.5229,-34.26,11.34,5.82
8.1586,-1.8932,-5.4754,-0.19364,-0.43646,0.44227,-33.9,11.82,6.3
8.0088,-3.051,-4.9306,-0.135,-0.60201,0.43005,-33.72,12.0,6.42
7.4503,-4.4402,-5.3392,-0.19028,-0.52901,0.33292,-33.6,12.3,6.66
7.1234,-3.9635,-5.4481,-0.27764,-0.23091,0.22052,-33.18,13.02,7.08
5.489,-2.6287,-4.3449,-0.11729,-0.31826,0.31276,-32.88,13.32,7.32
5.8023,-2.6832,-5.7205,-0.10629,-0.15547,0.29199,-32.7,13.8,7.56
5.094,-4.2495,-6.2109,-0.059865,-0.41264,0.23488,-32.16,14.28,8.22
5.3119,-2.9011,-6.4016,0.000611,-0.058948,0.20861,-31.98,14.64,8.46
5.9385,-2.7513,-6.8919,0.053451,-0.13042,0.208,-31.8,14.76,8.76
6.4424,-4.0589,-7.1234,0.02138,0.029322,0.1295,-31.5,15.18,9.36
5.9521,-4.0452,-6.4833,-0.0097738,0.011606,0.066279,-31.32,15.42,9.54
5.2575,-3.2144,-4.5764,0.068722,0.12737,0.072693,-31.14,15.6,9.78
7.5729,-3.9908,-7.3141,0.0073304,0.20739,-0.0048869,-30.72,15.96,9.96
5.8976,-2.6696,-5.1076,0.023824,0.25351,-0.0018326,-30.66,16.02,10.08
7.355,-3.3097,-7.6955,-0.048564,0.1014,-0.014661,-30.54,16.08,10.2
5.5707,-2.5061,-4.699,-0.10965,0.072998,-0.11087,-30.48,16.26,10.32
8.3765,-3.4732,-7.4367,-0.13775,0.30329,-0.12798,-30.48,16.38,10.32
6.2654,-3.7184,-5.6116,-0.033903,0.05681,-0.057727,-30.54,16.32,10.26
8.826,-2.8603,-7.5048,-0.13286,0.40745,-0.12645,-30.84,16.32,10.08
6.7012,-3.4459,-6.2517,-0.016493,-0.020464,-0.058643,-30.96,16.26,10.02
6.279,-2.7786,-5.9249,-0.048564,0.3036,-0.11484,-31.02,16.32,9.9
6.8647,-2.8058,-6.5241,-0.029932,0.080023,-0.087659,-31.02,16.02,9.66
6.2245,-3.2008,-6.3062,-0.011912,0.12767,-0.12004,-31.14,15.84,9.54
7.246,-2.0567,-6.3743,-0.085216,0.24282,-0.14813,-31.32,15.66,9.54
6.1428,-2.833,-4.7807,-0.042455,0.082161,-0.15974,-31.86,15.3,9.3
7.7772,-3.1327,-6.4697,-0.080329,0.24312,-0.21716,-31.92,15.3,9.12
7.8998,-4.4402,-6.4424,-0.019853,0.022602,-0.2248,-32.04,15.24,9.12
7.7636,-3.1872,-6.5786,-0.081245,0.34972,-0.29627,-32.34,15.12,9.0
7.641,-3.4323,-6.4152,-0.073915,0.23243,-0.27519,-32.52,14.94,8.82
6.6331,-4.2223,-6.1292,0.000305,0.19334,-0.21228,-32.7,14.88,8.76
8.0905,-3.514,-6.7693,-0.026878,0.33323,-0.2251,-32.88,14.88,8.4
5.993,-2.6151,-4.522,0.071777,0.26603,-0.11087,-33.06,14.76,8.22
10.787,-5.9249,-7.8045,-0.019242,0.43921,-0.10476,-33.3,14.7,8.1
5.1894,-3.1599,-4.4811,0.028711,-0.040928,-0.23305,-33.72,14.64,7.92
5.7205,-1.1577,-5.5299,-0.021075,0.50824,-0.16707,-33.84,14.64,7.74
9.0575,-1.8796,-6.8374,-0.054978,0.23854,-0.23213,-34.02,14.52,7.5
6.5241,-3.909,-5.5435,-0.0051924,0.037263,-0.24007,-34.2,14.34,7.2
7.8998,-2.8603,-6.851,-0.16707,0.17074,-0.30727,-34.2,14.22,7.02
5.7614,-1.6072,-5.2166,-0.10873,0.039095,-0.27122,-34.44,13.86,6.36
7.0281,-0.19068,-6.4833,-0.13042,0.26634,-0.10721,-34.68,13.62,6.18
10.025,-1.757,-8.2403,-0.21869,-0.10843,-0.17165,-34.8,13.56,6.06
7.355,-1.5119,-6.5786,-0.17593,-0.13622,-0.12859,-35.1,13.14,5.64
7.3141,-0.65378,-5.7069,-0.18906,-0.013744,-0.1408,-35.28,12.9,5.58
7.641,-2.4517,-6.3743,-0.064752,-0.17593,-0.0036652,-35.4,12.72,5.58
7.7772,-2.3836,-6.5105,-0.083078,-0.1463,-0.031154,-35.64,12.3,5.4
7.641,-1.8387,-5.775,0.018631,-0.19517,-0.013439,-35.64,12.0,5.34
7.1234,-2.1929,-6.0611,0.04948,-0.13195,-0.0024435,-35.7,12.0,5.46
6.7557,-2.9011,-5.6388,0.07758,-0.099571,0.028711,-35.7,11.7,5.46
7.4367,-2.2337,-6.0883,0.07025,-0.022602,0.000916,-35.88,11.58,5.34
7.7091,-1.4438,-6.0611,0.093768,-0.03879,0.09896,-36.06,11.52,5.28
8.1041,-2.152,-6.4424,0.047647,-0.10934,0.15119,-36.06,11.4,5.4
8.2676,-4.1951,-6.9055,0.01741,-0.20372,0.066279,-36.12,11.4,5.4
5.5162,-1.0215,-5.1485,-0.013439,0.025656,-0.0045815,-36.12,11.28,5.58
7.0962,0.14982,-6.1428,0.002138,0.17349,0.12645,-36.06,11.34,5.64
9.6296,-3.9771,-7.3822,-0.031154,-0.25779,0.083994,-36.0,11.34,5.64
7.7091,-2.2474,-6.7966,-0.040928,-0.089492,0.15516,-35.94,11.34,5.76
8.0632,-1.5119,-4.5083,0.082467,-0.21991,0.35552,-35.82,11.34,5.88
5.8976,-1.1169,-5.4345,0.12584,-0.18204,0.47983,-35.88,11.34,5.76
9.8066,-3.3097,-7.927,-0.022602,-0.086132,0.23488,-35.76,11.22,5.82
4.2904,-2.6832,-4.5083,0.12706,-0.33598,0.18845,-35.76,11.16,6.0
7.2869,-2.1929,-6.3335,0.031765,0.045815,0.10201,-35.7,11.22,6.24
7.8998,-2.4244,-5.6116,0.037874,-0.11484,0.061087,-35.76,11.22,6.42
9.1937,-3.8001,-7.0553,0.037263,-0.15027,0.16218,-35.82,11.16,6.42
7.355,-3.5549,-5.4073,-0.029932,-0.24832,0.025656,-35.7,11.1,6.48
4.7399,-1.7979,-4.2632,0.076358,-0.18448,0.15821,-35.7,11.04,6.48
5.8159,-2.5606,-3.8682,-0.0018326,-0.42486,-0.11484,-35.76,10.92,6.6
4.2632,-1.0896,-5.7478,0.14111,-0.15974,0.17562,-35.7,10.98,6.72
9.1256,-3.1327,-7.464,-0.044899,0.011606,0.090713,-35.7,10.98,6.66
4.2087,-2.8194,-5.3937,0.04948,-0.47342,0.065973,-35.64,10.98,6.66
7.3277,-4.4266,-8.4446,-0.19609,-0.12339,-0.086132,-35.46,10.92,6.84
5.0531,-2.656,-4.7944,-0.10843,-0.30635,-0.074526,-35.52,10.98,6.9
7.6002,-2.0022,-8.0224,-0.076358,0.20769,0.12859,-35.58,10.98,7.14
8.5127,-3.5822,-7.355,-0.036957,-0.12278,0.12645,-35.64,10.92,7.02
5.9249,-2.0158,-5.3119,0.047647,-0.3824,0.093768,-35.64,10.98,7.14
7.6138,-2.9556,-7.3141,0.033292,0.15944,0.15974,-35.46,10.86,7.14
6.4152,-3.7865,-6.1292,0.09163,-0.11668,0.12431,-35.52,10.98,7.38
6.7966,-4.1542,-6.9736,-0.024129,0.16371,-0.02474,-35.46,11.04,7.5
4.2495,-2.2201,-4.3858,0.046426,0.048258,-0.0012217,-35.34,11.16,7.56
6.7557,-3.4459,-6.8374,0.054367,0.34453,0.033292,-35.34,11.04,7.5
8.3765,-4.8761,-7.5729,-0.14233,0.32132,-0.15394,-35.4,11.04,7.62
5.9793,-2.7649,-6.3607,-0.074831,0.46151,-0.11698,-35.46,10.98,7.62
7.4095,-2.9148,-6.2517,-0.12675,0.57391,-0.14478,-35.52,11.16,7.62
6.0611,-2.5742,-4.7944,-0.030238,0.4554,-0.076358,-35.58,11.16,7.38
8.8668,-4.018,-7.2188,-0.082772,0.43402,-0.038179,-35.58,11.22,7.02
6.5378,-3.6775,-5.6661,-0.11026,0.17043,-0.087048,-35.7,11.28,6.78
5.775,-1.6072,-5.993,-0.1628,0.43433,0.020159,-35.76,11.16,6.54
7.246,-3.8273,-5.8976,-0.15363,0.2865,0.13134,-35.94,11.22,6.3
7.8317,-4.0589,-7.9407,-0.28314,0.354,0.031154,-36.12,11.16,5.88
8.2267,-5.3119,-7.4503,-0.2361,0.32834,-0.039095,-36.24,11.04,5.7
5.8976,-1.0624,-5.6661,-0.054367,0.43524,0.19517,-36.42,10.98,5.28
9.0848,-3.1327,-6.6059,-0.053756,0.52473,0.29169,-36.42,11.04,5.1
8.7987,-4.4811,-6.1019,-0.036041,0.18357,0.20128,-36.48,10.98,4.8
7.8317,-3.7865,-6.5786,-0.13347,0.25809,0.11057,-36.66,10.98,4.56
5.9657,-2.1248,-4.9169,-0.11912,0.29016,0.1576,-36.72,10.86,4.44
6.1564,4.5901,6.6059,0.14539,-0.47037,0.21869,-16.26,9.3,-37.02
6.2381,4.7263,7.1507,0.081551,-0.092241,0.31185,-16.98,8.7,-36.96
6.4969,4.4539,6.7693,0.12614,0.35919,0.37568,-18.42,7.5,-36.9
6.7012,3.909,5.6116,0.13775,0.47037,0.41356,-19.26,6.96,-37.08
7.0826,3.6911,5.1076,0.11332,0.66706,0.49327,-19.92,6.54,-37.2
8.4446,3.0237,4.4402,0.073304,0.46151,0.5397,-21.42,5.58,-37.2
8.0769,2.8603,4.1678,0.045509,0.10812,0.49297,-21.96,4.98,-37.44
7.0962,3.4868,5.1485,-0.20983,0.24068,0.49847,-22.62,4.32,-37.68
7.1915,3.909,6.279,-0.30116,0.48686,0.51099,-22.98,4.26,-37.86
7.1507,4.0044,6.7557,-0.58735,0.75228,0.54398,-23.04,4.32,-38.1
7.2869,4.0725,7.3005,-0.69119,0.93096,0.5736,-23.1,4.32,-38.46
8.7715,3.8273,8.4582,-0.65454,0.86499,0.59926,-22.8,4.8,-38.82
9.8748,3.9635,8.6217,-0.41294,0.48839,0.53329,-22.74,5.04,-38.94
9.7113,4.1406,8.1177,-0.053756,-0.11942,0.43341,-22.5,5.34,-39.18
9.0439,4.2359,7.641,0.23305,-0.59804,0.38546,-22.44,5.46,-39.24
7.8181,4.1542,5.8023,0.36377,-0.7813,0.37782,-22.08,6.18,-39.36
8.2676,3.9908,5.3119,0.37629,-0.69944,0.36682,-22.02,6.48,-39.36
9.398,3.7592,5.2302,0.41661,-0.79474,0.27214,-21.9,6.66,-39.3
9.8339,3.7728,5.2438,0.43982,-0.96211,0.12767,-22.02,7.08,-39.12
9.8339,3.6094,5.3937,0.39554,-1.1151,0.007025,-22.2,7.08,-39.0
9.3027,3.1872,4.8488,0.37171,-1.2263,-0.090103,-22.62,7.44,-38.64
9.1801,2.9965,4.0589,0.36041,-1.42,-0.18387,-23.16,7.26,-38.4
9.3844,3.1463,3.4187,0.32529,-1.6707,-0.23427,-23.64,7.14,-37.92
8.717,3.7728,3.4459,0.27428,-1.8259,-0.25473,-24.84,6.66,-36.96
8.2676,3.8682,3.2961,0.11423,-2.1502,-0.20708,-25.8,6.36,-36.42
8.0905,3.6775,3.1327,0.0956,-2.3188,-0.1689,-26.64,6.0,-35.64
7.5593,2.9284,1.6617,0.11881,-2.4645,-0.13439,-28.5,5.22,-34.14
7.5729,2.8058,0.58567,0.11057,-2.4905,-0.13592,-29.58,4.74,-33.3
7.4367,2.9556,-0.89894,-0.067195,-2.6215,-0.10324,-30.78,4.2,-32.46
6.6059,2.8875,-1.2395,-0.35522,-2.6964,0.002138,-33.12,3.36,-30.42
6.0338,2.6968,-1.2531,-0.69669,-2.5882,0.18662,-34.26,3.06,-29.22
6.1292,2.6423,-1.1441,-1.0321,-2.3295,0.44227,-35.34,2.7,-28.08
7.8317,2.6015,-1.1713,-1.273,-2.0986,0.66615,-37.68,2.22,-25.38
8.6625,2.6696,-1.3212,-1.481,-2.2449,0.78374,-38.64,2.22,-23.94
9.2482,2.547,-1.471,-1.5666,-2.6909,0.8601,-39.66,2.4,-22.56
9.4389,1.866,-1.0215,-1.7065,-3.2745,0.97341,-41.88,2.7,-19.32
8.826,1.1441,-0.8717,-1.8195,-3.6337,1.091,-42.96,3.18,-17.64
8.9213,0.55843,-0.74912,-1.8641,-3.7012,1.1912,-43.8,3.72,-15.78
8.54,-0.21793,-1.076,-1.8607,-3.6059,1.2098,-45.3,4.8,-11.82
7.8589,-0.17706,-1.471,-1.898,-2.7978,1.3726,-45.72,5.52,-9.54
6.9328,-0.24517,-2.2337,-1.9349,-2.3253,1.4878,-46.08,6.3,-7.38
9.0303,0.21793,-2.3563,-1.9554,-1.1435,1.6393,-46.5,8.04,-3.0
10.188,0.50395,-2.261,-1.7159,-1.128,1.6167,-46.5,8.88,-0.78
10.011,1.0079,-2.2065,-1.3635,-1.6099,1.7168,-46.38,9.84,1.56
9.4798,1.0624,-2.1248,-0.99388,-2.2394,1.8876,-45.72,11.46,6.06
9.9701,0.16344,-1.8932,-0.48075,-2.3995,2.0491,-45.24,12.18,8.28
10.025,-0.12258,-2.1929,-0.30268,-2.2608,2.0253,-44.64,12.84,10.56
7.641,0.095342,-3.3778,0.025656,-1.4734,1.8738,-42.84,14.4,14.58
7.355,0.21793,-3.623,0.15852,-0.85491,1.7752,-41.64,15.06,16.62
7.9951,-0.027241,-3.7047,0.26023,-0.52534,1.6078,-40.56,15.66,18.18
11.673,-1.7298,-2.7786,0.44043,-0.56077,1.4013,-38.16,17.1,21.24
12.572,-1.8796,-5.0259,0.63408,-1.7083,0.42577,-37.14,17.7,22.38
12.095,0.40861,-7.3005,0.34789,-1.2605,0.11973,-35.94,18.36,23.46
9.3027,-2.9011,-8.322,-0.043982,-0.42028,0.22113,-33.36,19.38,25.32
9.4934,-1.7706,-8.7443,-0.30574,0.0067195,0.26145,-32.22,19.8,25.98
8.9349,-1.2531,-7.3277,-0.30696,0.32498,0.36805,-31.26,20.16,26.64
12.694,-3.4323,-5.4209,-0.0064141,0.097433,0.49908,-29.46,21.06,27.48
12.054,-6.4833,-11.591,0.2529,-1.7605,-0.35797,-28.5,21.36,27.9
-0.85808,1.471,-8.0224,-0.15974,-0.40684,-0.34514,-27.66,21.78,28.14
4.7671,0.88532,-2.942,-0.35461,1.4239,-0.146,-26.1,22.08,28.44
13.089,-5.8704,-8.826,0.061392,0.68173,-0.0058032,-25.62,22.2,28.44
11.101,-5.8704,-9.1937,-0.45662,0.28375,-0.61636,-25.08,22.32,28.56
3.4187,0.1362,-0.89894,-0.33078,0.62064,-0.48778,-24.18,22.08,28.2
6.2517,-4.127,-2.1793,-0.021686,0.18326,-0.39737,-23.7,22.08,28.2
5.8295,-2.4789,-6.1973,-0.26359,0.23274,-0.96853,-23.4,21.66,27.9
2.9284,0.57205,-4.2632,-0.071777,0.13958,-0.79077,-23.34,21.36,27.6
0.65378,1.076,-3.9227,0.20586,-0.45448,-0.12889,-23.22,21.12,27.36
13.525,-6.6331,-12.967,-0.1909,-0.24496,-0.38301,-22.98,20.82,26.7
7.4231,-1.0624,-8.5808,-0.73243,0.89431,-0.69822,-22.98,20.4,26.58
3.4596,3.5413,-5.9112,-0.31062,0.37599,-0.11576,-23.34,19.8,26.1
10.256,1.5391,-7.927,-0.20372,-0.065668,-0.073915,-23.52,19.68,25.92
10.951,1.9886,-7.5321,-0.20586,0.31612,0.15027,-23.82,19.26,25.68
11.169,2.3836,-7.0553,-0.19426,0.3824,0.28405,-23.94,18.96,25.5
14.519,-1.6889,-8.5672,-0.075442,0.18937,0.49816,-24.42,18.36,25.02
10.637,-1.2803,-7.8317,-0.0039706,-0.072388,0.55528,-24.66,18.36,24.96
3.1872,1.5119,-5.2166,0.3653,0.35766,1.1521,-24.96,18.12,24.78
9.902,-4.127,-9.902,0.58368,-0.33689,1.0605,-25.14,18.06,24.48
3.5549,-1.9205,-7.5457,0.38912,-0.44043,0.54031,-25.14,18.12,24.48
0.54481,0.91256,-4.4811,0.37538,0.41753,0.90622,-25.2,18.3,24.36
9.8748,-2.0567,-7.8045,0.4441,0.31612,0.6017,-25.26,18.6,24.06
12.122,-3.4459,-9.2346,0.20311,0.038485,0.1573,-25.2,18.9,24.06
4.5764,0.64016,-4.413,0.12737,0.16554,0.36041,-25.08,19.14,23.76
10.079,-2.5879,-8.7306,0.064752,0.15821,0.56077,-24.66,19.56,23.22
16.835,-7.7772,-9.6568,-0.26145,-0.13286,0.094073,-24.36,20.04,23.1
11.032,-4.6037,-4.5628,-0.53573,0.2868,-0.027489,-24.06,20.22,22.8
10.924,-1.5119,-7.464,-0.40959,0.31673,0.55589,-23.64,20.7,22.5
11.414,-2.0839,-8.4038,-0.36438,-0.000305,0.71899,-23.46,20.76,22.2
5.7886,3.5413,-7.4776,0.033903,-0.39431,1.0284,-22.92,21.12,21.9
7.6274,-0.068102,-7.9951,0.047342,-0.63041,1.0091,-22.56,21.36,21.84
7.5457,-1.0351,-8.1177,-0.084299,-0.91049,0.84758,-22.26,21.48,21.48
5.203,-1.6344,-7.0826,-0.17959,-0.91813,0.80023,-21.9,21.54,21.48
9.2482,-2.8058,-7.9815,-0.66126,-0.50641,0.49511,-21.0,21.6,21.54
7.7772,-1.2939,-6.4016,-0.94287,-0.29352,0.40348,-20.58,21.54,21.6
5.1894,0.51757,-4.0589,-1.0959,0.48869,0.57391,-20.28,21.66,21.84
14.152,-2.4925,-5.8567,-0.9163,0.12126,0.22724,-19.74,21.78,22.62
8.7034,-0.40861,-4.8352,-0.50366,-0.81795,0.31215,-19.44,21.72,22.8
5.8976,0.43585,-4.4811,-0.30604,-0.83017,0.46792,-19.2,21.78,23.1
8.7987,-2.6287,-8.2539,-0.17654,-0.80848,0.22297,-18.48,21.78,23.88
5.3528,1.4165,-8.5808,-0.37904,-0.23518,0.28222,-18.0,21.84,24.3
9.6023,-2.9556,-7.0826,-0.42944,-0.040317,0.25076,-17.64,21.96,24.6
5.8704,-2.9284,-4.7944,-0.12523,-0.45173,0.28069,-16.98,21.84,25.44
4.018,-0.6674,-4.5901,0.14233,-0.17776,0.42302,-16.62,21.84,25.98
6.8919,-1.1577,-5.5571,0.32101,-0.27825,0.48136,-16.38,21.9,26.4
6.6331,-2.4789,-6.7012,0.24832,-0.47464,0.24129,-16.02,22.08,27.12
6.3471,-3.6775,-6.8783,0.10782,-0.23671,0.080634,-15.72,22.32,27.54
4.2768,-2.2882,-4.018,0.009163,0.067195,-0.05284,-15.42,22.32,27.78
8.8396,-1.7706,-4.3313,0.058032,0.67134,-0.076053,-14.88,22.38,27.96
10.597,-3.8682,-5.1894,0.12889,-0.37446,-0.18082,-14.46,22.44,28.08
8.5127,-3.3915,-5.2302,0.09163,-0.45448,-0.31124,-14.1,22.62,28.38
6.6059,-3.0782,-6.0066,0.044899,-0.135,-0.1909,-13.62,22.8,28.44
7.8317,-3.2689,-6.7557,-0.051924,0.050702,-0.28375,-13.5,22.98,28.44
8.0496,-0.81722,-7.3141,-0.054367,0.045815,-0.4328,-13.32,23.1,28.62
7.2052,-0.7355,-7.0962,0.10263,-0.023824,-0.29169,-13.14,23.22,28.68
9.221,-2.6696,-9.0167,-0.032376,-0.072693,-0.47861,-13.14,23.1,28.62
7.641,-5.4754,-7.8045,-0.071166,0.22541,-0.52565,-13.2,22.98,28.56
7.9679,-1.7706,-5.7614,0.015577,0.67012,-0.41111,-13.26,22.74,28.56
10.774,-2.9692,-7.7364,0.022297,0.31215,-0.46701,-13.44,22.62,28.32
7.2733,-4.3449,-7.1234,0.11393,-0.0097738,-0.38851,-13.44,22.5,28.26
4.2223,0.98067,-4.6582,0.17074,0.61484,-0.22052,-13.92,22.38,28.08
7.4095,0.095342,-4.7399,0.30085,0.62827,0.010079,-14.28,22.14,28.08
9.2346,-2.9692,-6.2245,0.30574,0.42913,-0.017715,-14.58,22.14,27.9
5.2302,-9.4117,-8.0905,-0.23793,0.055894,-1.1814,-15.18,21.84,27.6
-8.0632,4.699,-1.5119,-0.23915,1.7736,-0.978,-15.48,21.72,27.42
11.128,-1.3076,-5.9657,-0.2306,2.576,-0.5452,-16.32,21.36,26.88
16.957,-4.8897,-6.7693,-0.21289,1.3405,-0.41661,-16.86,21.12,26.58
8.5127,0.040861,-2.2474,0.13958,0.49999,-0.74403,-17.88,20.76,25.68
2.8603,2.8194,-2.2474,0.23824,0.35369,-0.49022,-17.88,20.76,25.68
15.119,-6.2926,-6.6059,0.14661,-0.89034,-0.43219,-18.36,20.7,25.26
7.4776,-1.0079,-6.3743,0.1576,-1.0605,-0.81367,-19.02,20.52,24.72
3.2689,2.2065,-5.1213,0.30177,-0.63225,-0.54367,-19.8,20.04,24.24
11.291,-0.84446,-10.311,0.30879,-0.72693,0.039706,-20.52,19.56,23.82
16.739,-3.3778,-11.55,-0.26542,0.07025,-0.52931,-20.88,19.56,23.46
2.261,3.7456,-2.8739,0.10415,0.17562,-0.021075,-21.18,19.32,23.04
9.5479,0.89894,-6.2517,0.16768,0.088881,0.13775,-21.54,18.9,22.62
9.5751,1.2531,-6.2517,0.2865,-0.064752,0.33231,-21.84,18.42,22.38
9.7658,0.095342,-7.2324,0.34697,-0.31276,0.25687,-21.6,18.36,22.32
7.8453,0.49033,-5.6388,0.31612,-0.39034,0.12706,-21.18,18.18,22.44
6.8238,-0.9398,-4.4266,0.31368,-0.28008,-0.0024435,-20.88,18.42,22.62
6.7285,-2.6968,-4.2223,0.43249,-0.25381,0.19303,-20.76,18.66,22.74
8.6353,-2.3699,-4.9169,0.36285,-0.219,-0.010996,-20.7,18.66,22.68
8.4174,-2.5742,-4.4402,0.46762,-0.22907,0.062308,-20.64,18.54,22.68
7.1507,-1.7298,-4.8625,0.46731,-0.37354,-0.017104,-20.58,18.78,22.68
8.322,-0.92618,-7.5048,0.37599,-0.48747,-0.027184,-20.28,19.08,22.56
6.6331,-0.14982,-6.7557,0.19792,-0.22144,0.1237,-19.98,19.44,22.56
6.2245,-2.6423,-6.7829,0.096822,-0.058948,0.43188,-19.68,19.74,22.62
5.6252,-0.54481,-7.3822,-0.038485,0.023518,0.60842,-19.56,19.92,22.56
10.038,-0.27241,-9.4934,-0.19303,0.091935,0.54428,-19.5,20.1,22.56
11.645,-2.7377,-9.1665,-0.18937,-0.051618,0.69578,-19.26,20.1,22.5
5.2847,-3.1599,-6.8238,-0.0030543,0.03146,0.95112,-19.2,20.4,22.38
8.3357,-3.7047,-7.3686,-0.03879,0.18387,0.81153,-18.84,20.58,22.26
7.0145,-0.40861,-7.0281,0.027794,-0.012523,0.78099,-18.36,21.0,22.14
8.7987,-2.6151,-7.4095,-0.11759,-0.054672,0.59712,-18.0,21.12,22.2
5.9249,-1.866,-5.3119,-0.073609,-0.019853,0.71502,-17.7,21.36,22.2
8.3901,-2.6423,-5.5571,-0.10965,0.026878,0.49572,-17.1,21.96,22.02
9.6023,-5.0668,-6.9872,-0.19914,-0.25198,0.35736,-16.92,22.2,21.96
4.5901,-0.16344,-3.3642,-0.30024,-0.26267,0.057727,-16.74,22.5,22.08
9.3436,0.46309,-6.0611,-0.16524,0.015882,0.1295,-16.2,22.92,22.38
8.4446,-3.0646,-6.1292,-0.073609,-0.32437,0.23457,-15.96,23.04,22.38
8.9622,-3.4459,-8.0769,-0.20769,-0.18815,0.073609,-15.72,23.28,22.38
3.0101,-3.9635,-3.2825,-0.21014,-0.29505,-0.099571,-15.12,23.76,22.5
0.53119,3.732,-1.1032,0.15485,0.22602,0.26145,-14.82,23.88,22.5
8.9758,-6.5922,-9.4798,0.19426,-0.0097738,0.1408,-14.7,23.88,22.62
3.6503,-1.0896,-4.6037,0.0079412,0.41936,0.0956,-14.34,24.36,22.74
7.5457,-0.88532,-6.5514,0.056505,0.20983,0.039095,-14.28,24.36,22.68
6.7421,-4.0725,-6.1292,-0.028405,0.30757,0.12126,-13.98,24.3,22.68
9.5751,-1.471,-7.5457,-0.15485,0.55741,-0.19212,-13.98,24.18,22.86
6.3607,-1.4846,-6.0066,-0.14966,0.26909,-0.093768,-13.74,24.3,22.8
8.4582,-2.833,-6.9191,-0.32254,0.56352,-0.2022,-13.74,24.3,22.5
7.0281,-1.2803,-5.1349,-0.26389,0.53451,-0.080329,-13.74,24.18,22.32
7.8317,-0.61292,-5.2711,-0.20128,0.55375,-0.097433,-13.8,24.3,22.26
11.686,-0.31327,-6.96,-0.23243,0.53603,-0.23305,-13.92,24.24,22.26
8.1858,-4.5356,-7.6683,-0.22358,0.016188,-0.25107,-14.16,23.94,21.96
3.4596,-0.8036,-4.0589,-0.14905,0.37202,-0.051924,-14.34,23.82,21.84
8.7851,-3.7728,-6.2245,-0.016493,0.39279,0.023824,-14.7,23.46,21.48
7.4095,-2.7241,-5.5299,0.093157,0.3934,-0.045815,-14.88,23.34,21.42
8.7034,-0.92618,-6.0474,0.028405,0.42852,-0.20769,-14.94,23.34,21.3
7.3277,-1.7298,-5.094,0.055894,0.23335,-0.20647,-15.3,23.28,21.12
6.6059,-1.4438,-4.4675,0.081245,0.34636,-0.16005,-15.54,23.1,20.88
8.3084,-3.3778,-5.4345,-0.014661,0.24618,-0.23396,-15.84,22.92,20.7
4.9987,-3.3778,-3.1735,-0.020769,0.38485,-0.281,-16.14,22.86,20.58
11.509,-9.5887,-7.6683,-0.22663,-0.075442,-0.74434,-16.56,22.56,20.34
3.2144,-1.6481,-4.3449,-0.21716,0.31368,-0.66432,-16.68,22.32,20.16
6.0066,1.1032,-5.5026,-0.27581,0.51954,-0.87537,-16.86,22.14,19.92
11.414,-8.7306,-7.9679,-0.18295,0.1014,-0.70463,-17.28,21.78,19.56
1.4165,1.0624,-3.1463,-0.093157,0.46304,-0.78099,-17.52,21.66,19.32
3.7184,4.413,-4.4675,0.077274,0.37538,-0.42302,-17.82,21.48,19.26
9.6296,-2.1384,-7.5048,-0.059559,0.1518,-0.099876,-18.36,21.24,18.96
6.0338,0.85808,-5.9793,-0.12401,0.22235,-0.16829,-18.6,21.0,18.78
5.5707,1.2803,-4.2223,-0.0036652,0.23793,0.1909,-18.84,20.76,18.66
8.4582,-2.4517,-6.3335,0.023213,0.079107,0.56933,-19.38,20.28,18.48
11.373,-2.5198,-7.5865,-0.23213,0.04612,0.13683,-19.5,19.98,18.48
5.9657,-1.1169,-4.2768,-0.1182,-0.016493,0.22724,-19.62,19.8,18.42
12.027,-5.8704,-8.6353,-0.11148,0.11973,0.029016,-19.86,19.62,18.3
14.192,-7.0553,-7.9815,-0.38118,0.05284,-0.42761,-20.04,19.44,18.12
1.471,0.70826,-2.656,-0.074831,0.197,-0.17837,-20.22,19.44,18.0
11.019,2.5742,-7.9679,-0.060476,0.11148,0.076969,-20.4,19.44,18.12
16.29,-0.96704,-8.54,-0.28344,0.16249,0.056505,-20.52,19.26,18.3
11.032,-0.23155,-5.1076,-0.19364,0.028711,0.10263,-20.64,19.26,18.12
8.6081,-1.3212,-5.9521,0.056505,-0.17532,0.53634,-20.52,19.38,17.94
11.332,-1.5527,-6.9464,0.0048869,-0.087965,0.51588,-20.46,19.44,17.94
3.7728,2.833,-4.5083,0.20006,-0.055894,1.0473,-20.64,19.5,17.94
13.511,-4.6037,-8.2131,0.053145,-0.26389,0.85307,-20.52,19.8,17.7
4.2223,-0.35413,-5.7614,0.025656,-0.26725,0.81489,-20.4,20.04,17.7
3.7728,-1.0079,-4.8216,0.099571,-0.11668,0.96975,-20.34,20.22,17.64
16.344,-7.7364,-10.924,-0.036346,-0.17929,0.63072,-20.04,20.7,17.52
6.7012,-2.7377,-5.4481,-0.49786,-0.32132,0.047037,-19.68,21.0,17.76
-0.99429,3.5685,-1.9068,-0.31001,-0.12614,0.27489,-19.38,21.24,17.88
17.352,-1.7025,-8.4991,-0.68478,-0.13989,-0.14325,-18.9,21.66,17.88
10.951,-2.9556,-4.6854,-0.74464,-0.85582,-0.16188,-18.54,21.96,17.88
4.5764,1.1577,-2.9556,-0.64385,-0.52901,0.15424,-18.06,22.14,18.12
12.108,-3.4459,-6.0202,-0.49175,-0.38729,0.47861,-17.64,22.38,18.6
11.346,-3.1327,-7.2596,-0.10721,-0.9557,0.61942,-17.34,22.5,19.02
6.0883,-0.72188,-7.7636,0.17165,-1.0284,0.87109,-16.74,22.74,19.32
2.7104,-5.5162,-7.1507,0.097433,-0.89278,0.6915,-15.96,23.16,20.1
4.0044,-1.4165,-6.96,0.14416,-0.25595,0.5791,-15.66,23.28,20.4
6.17,-2.4517,-6.6059,0.083078,-0.31582,0.35949,-15.36,23.4,20.7
7.9543,-3.5413,-5.993,-0.069028,-0.35888,0.12462,-14.58,23.52,21.36
6.4424,-1.4982,-3.8682,-0.24465,-0.30757,-0.16585,-14.22,23.58,21.48
5.3119,-1.0488,-1.8932,-0.20159,-0.29322,-0.071471,-13.8,23.64,21.9
17.543,-9.7658,-13.729,-0.65179,-0.37629,-0.5397,-13.26,23.64,22.56
4.9714,-5.094,-2.438,-0.87323,-0.35186,-0.72693,-12.84,23.64,22.86
-3.1599,7.5729,3.9499,-0.066584,0.4047,0.1576,-12.66,23.82,23.16
16.181,-7.6819,-12.19,0.23274,-0.057727,0.21044,-12.12,24.0,23.58
9.5342,-5.0668,-10.079,-0.079718,-0.27,0.13561,-11.82,24.06,23.64
5.1349,-0.85808,-5.8567,0.12737,0.085521,0.25045,-11.76,24.06,23.82
7.9679,-7.9679,-10.515,0.16249,-0.34056,0.53206,-11.58,24.06,24.18
4.0861,-2.9692,-5.5435,-0.079107,0.51282,-0.011606,-11.52,24.12,24.36
5.6252,2.0294,-6.0747,0.023518,0.23182,-0.23243,-11.46,24.18,24.36
10.651,-4.1406,-8.7306,-0.16249,0.17837,-0.24282,-11.28,24.18,24.66
7.246,-0.9398,-4.3177,-0.25076,0.62094,-0.38851,-11.4,24.3,24.84
8.8532,-3.3234,-5.0804,-0.1295,0.48106,-0.24648,-11.76,24.24,24.72
10.297,-3.7184,-6.565,-0.11057,0.4163,-0.062003,-11.82,24.36,24.78
5.8159,-0.14982,-4.9987,0.048258,0.32712,0.28375,-11.94,24.36,24.72
9.5751,-3.6639,-6.9055,0.15211,0.13317,0.33201,-12.06,24.3,24.6
7.4503,-2.4108,-8.3493,0.038485,0.12431,0.12767,-12.3,24.42,24.66
5.5162,-3.337,-6.8783,0.061392,0.25076,0.22846,-12.42,24.42,24.54
4.7944,-6.2245,-5.38,0.15241,0.6411,0.070555,-12.66,24.66,24.42
5.9249,-1.7979,-4.4266,0.032987,0.91324,-0.37477,-12.84,24.6,24.3
8.6081,-0.42223,-4.4947,0.18784,0.43646,-0.44135,-13.08,24.66,24.12
2.8739,-3.3778,-2.8739,0.32651,0.32254,-0.2416,-13.8,24.6,23.88
6.8647,3.9499,-4.2904,-0.057421,1.0837,-0.75595,-14.1,24.42,23.64
14.138,-8.322,-6.3335,-0.12248,0.17013,-0.93401,-14.82,24.24,23.22
0.70826,-2.1248,-4.522,-0.29291,0.051618,-0.98166,-15.0,24.24,22.92
9.2346,-3.9363,-7.3414,-0.56016,0.44563,-1.1814,-15.42,24.06,22.86
7.5729,-4.2223,-4.9714,-0.3317,0.28191,-0.59834,-16.2,23.7,22.68
11.155,-0.20431,-8.2267,-0.23274,0.1179,-0.76816,-16.5,23.52,22.56
7.5321,1.4165,-7.2869,0.0036652,-0.1909,-0.36988,-16.92,23.28,22.38
3.3097,2.9148,-7.0962,0.21747,-0.039401,0.047037,-17.82,22.68,22.08
10.12,0.7355,-9.616,0.0045815,0.30696,0.087659,-18.12,22.38,21.84
7.5593,1.6617,-6.3607,0.013439,0.32498,0.17318,-18.48,22.14,21.78
8.8668,-3.4187,-4.5083,0.0036652,0.16127,0.18509,-19.08,21.54,21.72
7.9951,-3.9908,-4.0316,-0.093157,0.010385,0.054672,-19.44,21.36,21.78
8.9894,-1.8115,-3.9635,-0.21166,0.11332,-0.28772,-19.86,21.3,21.78
8.4719,-1.1577,-4.3585,-0.1857,-0.069639,-0.19975,-20.34,20.82,21.66
7.75,0.40861,-4.808,-0.19181,0.033292,-0.13561,-20.52,20.52,21.84
10.365,2.0839,-6.0883,-0.036957,-0.21105,0.090408,-20.58,20.46,21.66
13.362,-2.7922,-9.9565,-0.04948,-0.44654,0.17837,-20.88,20.46,21.72
4.9033,1.2258,-6.3198,-0.12095,-0.26664,-0.035736,-20.94,20.4,21.78
3.2416,2.152,-4.6037,0.12217,0.050396,0.34147,-21.0,20.4,21.78
13.144,-2.0703,-8.1858,0.1686,-0.062919,0.56352,-20.94,20.46,21.84
12.286,-2.0022,-6.9872,0.0015272,-0.43188,0.093157,-21.06,20.46,21.9
6.3607,-1.0079,-4.0861,0.1014,-0.49083,0.28772,-20.82,20.46,21.9
4.2904,-0.068102,-4.4402,0.1011,-0.14355,0.60903,-20.94,20.52,21.9
12.858,-2.942,-7.1507,0.057421,-0.45235,0.59284,-20.88,20.7,21.9
3.6775,1.362,-4.699,0.28894,-0.45021,0.88392,-20.46,20.82,21.9
9.6841,-1.0351,-7.4776,0.197,-0.40623,0.80726,-20.16,21.0,22.02
4.8625,-0.9398,-5.6661,0.12309,-0.67867,0.63377,-19.5,21.3,22.2
7.2596,-0.57205,-6.0338,0.059865,-0.5287,0.52962,-19.2,21.48,22.44
7.5593,-1.0896,-5.1213,-0.04215,-0.41233,0.43433,-18.9,21.78,22.56
8.1858,-3.0918,-5.6116,-0.086132,-0.60781,0.40561,-18.0,22.2,22.68
8.0224,-0.40861,-5.6797,-0.18906,-0.63286,0.30574,-17.58,22.5,22.74
6.9191,0.027241,-5.0259,-0.22663,-0.76236,0.22266,-16.74,22.98,23.28
5.7205,-2.1384,-3.1327,-0.066279,-0.73823,0.28497,-16.26,23.22,23.46
7.6002,-3.8137,-6.3198,0.059865,-0.77,0.26512,-15.84,23.52,23.82
8.322,-5.5162,-8.7987,-0.021991,-0.77794,0.13042,-15.18,23.64,24.0
6.2654,-0.58567,-6.1564,0.096517,-0.36469,0.10385,-14.22,23.94,24.48
9.2891,-9.0848,-14.41,0.0562,-0.75198,0.12767,-13.86,24.18,24.9
1.6617,-7.7364,-4.4947,-0.1689,-0.10934,-0.025351,-13.5,24.36,25.14
8.2131,3.6775,-4.1951,0.35094,0.42302,0.018326,-12.9,24.78,25.56
10.951,-4.4402,-7.2188,0.45968,-0.65699,0.3204,-12.66,24.96,25.8
4.7944,-2.0294,-4.5356,0.32467,-0.29841,0.25931,-12.24,25.08,26.04
12.204,-6.5922,-9.7385,0.10812,-0.14111,0.11301,-11.7,25.2,26.34
3.7728,-7.641,-3.623,-0.18051,-0.45143,-0.1463,-11.52,25.26,26.58
4.6445,-0.88532,-3.5685,-0.38423,0.59437,-0.52748,-11.34,25.2,26.76
0.9398,0.25879,-1.8387,-0.11942,0.14264,-0.054978,-10.98,25.38,26.88
11.754,-3.1872,-9.8475,-0.093768,0.52657,-0.58796,-10.98,25.38,26.88
12.313,-4.413,-9.5479,-0.14416,0.17837,-0.5229,-11.1,25.44,26.94
5.5707,1.8115,-3.8001,0.076969,0.51862,-0.45112,-11.34,25.26,27.06
12.19,0.65378,-8.2131,0.11209,0.38759,-0.3824,-11.34,25.08,26.94
11.673,-4.1678,-9.6432,-0.018326,-0.14661,-0.49388,-11.46,25.08,26.88
5.2575,-1.7979,-4.3721,0.01069,0.24648,-0.33781,-12.0,24.84,26.88
8.9894,-1.6072,-4.522,0.065668,0.40409,-0.42852,-12.18,24.66,26.82
9.1665,-3.4459,-5.6388,0.20556,0.071777,-0.51465,-12.54,24.54,26.64
3.4868,-2.1929,-5.203,0.19151,0.15547,-0.489,-13.14,24.18,26.4
5.7069,1.6208,-5.5435,0.21991,0.56383,-0.34483,-13.38,23.94,26.16
9.5206,-0.50395,-6.9736,0.31948,0.23579,-0.14203,-13.74,23.88,25.86
7.6002,-3.2689,-7.0281,0.27855,0.098655,-0.11973,-14.4,23.58,25.38
6.1155,-4.018,-5.3392,0.062308,0.2306,-0.40439,-14.76,23.58,25.2
4.9714,-3.7728,-4.1542,0.068722,0.41447,-0.47556,-15.12,23.46,24.9
4.8488,-5.0804,-3.4187,0.15149,0.42547,-0.47037,-15.24,23.46,24.72
8.6625,2.1793,-6.0066,0.080023,0.78771,-0.8042,-15.9,23.34,24.18
14.669,-2.5061,-8.145,0.0097738,0.30055,-0.9218,-16.32,23.1,23.94
9.7658,-4.8488,-6.6876,-0.088575,-0.12828,-0.97647,-16.8,22.74,23.34
4.808,-2.8194,-6.2109,-0.25229,0.49114,-0.61911,-17.16,22.56,22.98
8.3493,-1.4438,-7.1234,-0.34911,0.51924,-0.57849,-17.46,22.26,22.86
12.163,-1.3484,-7.8726,-0.28497,0.2138,-0.47709,-17.82,21.96,22.68
6.3062,1.7025,-6.1564,0.012828,0.19548,-0.15455,-18.42,21.78,22.32
8.7851,0.57205,-7.069,0.05681,0.30727,0.0061087,-18.9,21.48,22.14
8.3493,-0.77636,-6.6604,0.037263,0.25229,0.13958,-19.32,21.12,21.96
9.1393,-0.99429,-5.5707,-0.0054978,0.31551,0.019853,-20.16,20.58,21.72
7.069,-0.64016,-4.413,0.10446,0.22358,0.061392,-20.4,20.34,21.72
7.3958,0.25879,-4.6854,0.10446,0.23091,0.009163,-20.76,20.1,21.54
13.607,-2.6423,-7.8181,-0.021075,-0.087659,-0.19761,-21.48,19.74,21.36
4.9442,0.83084,-4.0997,-0.021075,-0.23854,-0.31612,-21.66,19.62,21.3
1.6344,3.732,-5.6388,0.18112,0.0064141,0.11729,-21.96,19.56,21.3
11.632,-1.8251,-6.8238,0.14752,-0.39798,0.27917,-22.14,19.44,21.12
8.2539,1.0624,-5.7069,0.14691,-0.32101,0.11454,-22.26,19.5,21.0
10.76,-0.65378,-6.3471,0.14172,-0.30879,0.11881,-22.32,19.68,20.94
4.4811,-1.7843,-4.9578,0.21594,-0.44776,0.37874,-22.44,19.62,20.82
8.7987,-1.4982,-7.0281,0.047342,-0.14416,0.14233,-22.32,19.8,20.76
6.5922,-1.4438,-5.8704,0.083689,-0.20464,0.44502,-22.14,20.04,20.82
9.8339,-1.2939,-7.8453,-0.081245,-0.038485,0.42058,-21.6,20.16,20.82
6.4969,-0.47671,-6.1428,0.01069,-0.21258,0.61728,-21.36,20.28,20.76
4.9578,-0.32689,-5.993,0.082772,-0.22174,0.80573,-21.3,20.28,20.82
12.708,-7.9951,-9.9292,-0.14875,-0.24251,0.46853,-20.58,20.58,20.88
-1.2531,0.44947,-2.1384,0.018021,-0.082772,0.75503,-20.22,20.82,20.82
6.674,2.2474,-6.4969,0.076358,0.14691,0.63041,-19.92,21.06,20.94
6.1155,-3.051,-4.2904,0.065363,-0.44318,0.73487,-19.26,21.54,21.18
3.9227,-1.1169,-3.732,0.027489,-0.13897,0.71044,-18.96,21.66,21.3
10.365,-3.9908,-6.17,-0.066584,-0.41783,0.66157,-18.6,21.96,21.42
6.3335,-0.8036,-6.279,-0.064141,-0.42547,0.63438,-17.94,22.44,21.66
9.5479,-2.5334,-7.7091,-0.29963,-0.40348,0.19792,-17.64,22.68,21.78
6.5105,-4.2495,-6.3062,-0.2755,-0.57605,0.21166,-17.28,22.98,21.78
5.3119,2.3291,-4.5356,-0.29963,-0.23396,0.084299,-16.68,23.34,22.14
8.8941,-0.40861,-5.1757,-0.11057,-0.27886,0.14752,-16.32,23.46,22.26
8.2948,-2.9011,-5.3528,-0.07025,-0.35247,0.14722,-15.78,23.82,22.38
5.1894,2.0294,-1.7025,0.10751,-0.17776,0.39645,-15.36,24.24,22.8
13.511,-7.9815,-10.91,0.13408,-0.56139,0.33109,-15.18,24.3,22.98
7.1234,-8.9349,-9.1937,-0.27122,-0.69578,0.039401,-14.88,24.3,23.1
7.5457,-0.68102,-6.4152,-0.24129,0.32895,-0.18448,-14.58,24.48,23.52
3.9908,-1.866,-4.3858,0.25626,-0.06353,0.47067,-14.28,24.6,23.7
8.6762,-5.203,-8.6489,-0.074526,0.18326,-0.13439,-14.1,24.54,24.12
2.6832,-1.9886,-3.6503,0.0085521,0.24435,0.0015272,-13.74,24.66,24.6
5.8704,1.3076,-5.38,0.24801,0.48869,0.041844,-13.44,24.54,24.72
8.7306,-1.3348,-7.3141,0.20159,0.35155,0.065057,-13.44,24.48,24.84
7.1234,-5.2847,-7.8726,-0.10751,0.20281,-0.17868,-13.38,24.54,24.78
4.127,-1.8524,-3.514,-0.29077,0.78527,-0.30177,-13.44,24.6,24.78
9.5206,-1.7162,-5.3119,-0.26359,0.44502,-0.34789,-13.56,24.42,24.72
5.3119,-4.699,-4.127,-0.13836,0.2645,-0.32681,-13.86,24.24,24.6
5.8295,1.7706,-4.4266,-0.03879,0.72174,-0.34636,-14.04,24.24,24.72
11.632,-0.47671,-6.8374,0.095906,0.40134,-0.2248,-14.22,24.36,24.6
3.1872,1.9613,-4.6854,0.24862,-0.0054978,-0.03879,-14.4,24.42,24.24
5.6252,5.5162,-5.6388,-0.061087,0.60323,-0.16066,-14.7,24.36,23.94
8.3493,-8.1313,-5.1621,-0.11209,0.14905,-0.28894,-15.06,24.36,23.46
8.3493,-3.9635,-3.2144,-0.14142,-0.069944,-0.3653,-15.6,24.12,23.04
5.9249,-1.2258,-4.4675,-0.45479,0.70524,-0.83291,-16.02,24.24,23.04
12.19,0.1362,-6.5105,-0.2697,0.78557,-0.46945,-16.68,23.82,22.86
18.619,-13.688,-13.947,-0.43768,-0.14752,-1.2953,-17.1,23.76,22.74
-1.4438,-5.5435,-2.3291,-0.37141,-0.23549,-0.84208,-17.76,23.4,22.56
11.496,-0.39499,-8.6081,-0.281,0.51801,-0.82406,-18.12,23.04,22.5
11.319,-3.3915,-8.3084,-0.15852,0.29627,-0.56413,-18.54,22.92,22.56
7.6683,-0.12258,-6.8102,-0.0076358,0.29535,-0.51282,-18.72,22.5,22.2
6.2654,-1.2803,-4.4539,0.1686,0.24587,-0.083383,-19.32,21.6,22.08
5.598,-2.5742,-4.8352,0.27122,0.22755,0.030543,-19.62,21.24,21.84
9.2074,-3.9499,-7.5321,0.18357,0.18234,-0.17898,-20.16,20.64,21.72
9.2074,-4.7944,-5.9793,-0.0054978,0.20372,-0.40348,-20.52,20.46,21.54
3.4051,-0.89894,-5.5026,0.000305,0.11423,-0.33506,-20.7,20.16,21.42
6.5922,0.32689,-7.1915,-0.24679,0.19823,-0.26237,-21.12,19.56,21.24
8.3765,-0.027241,-7.0009,-0.32376,0.26328,-0.13286,-21.36,19.44,21.06
8.1858,2.7649,-5.2711,-0.29963,0.41111,-0.197,-21.54,19.26,21.0
8.4174,-0.081722,-4.5628,-0.023213,0.1066,0.29383,-21.96,18.96,20.82
9.398,1.2258,-6.5922,-0.092852,-0.1405,0.12004,-22.14,18.9,20.7
9.0984,5.9657,-6.3743,-0.12462,-0.32498,0.29199,-22.26,18.66,20.4
17.407,-7.8317,-7.9951,-0.37415,-0.31093,0.034819,-22.62,18.78,20.34
1.2667,1.0896,-3.3642,-0.34667,-0.29016,-0.14569,-22.8,18.78,20.22
7.8045,-0.20431,-6.0202,-0.14478,-0.12095,0.25168,-23.04,18.6,20.4
6.3743,1.0624,-6.8783,0.027794,-0.32559,0.64874,-23.1,18.36,20.58
10.188,3.0373,-8.7987,0.17104,-0.065668,0.53451,-23.1,18.3,20.52
9.3027,0.46309,-7.1915,0.25381,-0.21869,0.74984,-23.16,18.3,20.46
4.0044,0.47671,-6.3062,0.2584,-0.091324,0.82864,-23.04,18.48,20.46
10.161,-1.0079,-7.0009,0.13683,0.037874,0.77763,-22.8,18.48,20.58
1.7298,-1.6753,-3.514,0.01405,-0.28741,0.63897,-22.5,18.78,20.52
5.3664,0.57205,-5.6388,-0.099571,-0.22419,0.50121,-22.2,18.96,20.46
5.1076,-2.1384,-3.3097,-0.19639,-0.33964,0.30055,-21.6,19.38,20.64
8.1995,-1.9205,-6.8647,0.047647,-0.63988,0.58765,-21.24,19.62,20.64
8.6353,0.65378,-6.1292,-0.13195,-0.43005,0.28314,-21.0,19.74,20.7
6.7421,0.17706,-4.3721,0.1408,-0.64904,0.67165,-20.76,19.92,20.7
6.4969,-1.3212,-6.0202,0.082467,-0.6579,0.63805,-19.8,20.64,20.7
7.3414,1.1169,-5.7342,-0.030543,-0.42913,0.55131,-19.44,20.94,20.88
4.6309,-4.3585,-4.9033,-0.06017,-0.78069,0.51832,-18.72,21.48,21.24
7.2188,-2.8467,-6.4697,-0.22907,-0.34422,0.30971,-18.3,21.78,21.42
8.1722,-4.5356,-8.0088,-0.21044,-0.42699,0.32926,-17.76,21.84,21.72
8.9622,-8.9349,-9.507,-0.28008,-0.48197,0.10324,-17.28,22.02,21.72
3.0237,2.438,-2.9556,-0.045815,0.12584,0.12278,-16.38,22.38,22.26
8.2948,-4.0452,-8.036,0.22297,-0.046731,0.2474,-15.78,22.74,23.16
7.0553,-3.228,-7.0009,0.019242,0.22969,0.2025,-14.94,23.22,23.64
9.6568,-2.0567,-7.246,-0.032376,-0.039706,0.069028,-14.64,23.4,23.82
3.8001,-2.547,-3.4732,0.086743,-0.088881,0.35522,-13.92,23.76,24.36
7.9407,-2.1384,-6.3471,0.011912,0.19792,0.13775,-13.5,23.94,24.78
8.0224,-3.7865,-6.7012,-0.071471,0.056505,0.077274,-13.2,24.24,24.9
6.0338,-3.7865,-6.0202,-0.075136,0.14416,0.09499,-13.08,24.42,24.84
6.0611,-1.6753,-5.8567,-0.15027,0.30024,-0.037568,-13.2,24.54,24.96
7.7227,-3.0782,-6.3198,-0.071471,0.25901,-0.062614,-13.2,24.42,24.96
5.4209,-0.64016,-4.9033,-0.046426,0.43035,-0.14264,-13.08,24.42,24.84
7.9679,-3.6094,-8.4174,-0.10018,0.32406,-0.25504,-13.38,24.24,24.72
5.489,-1.7706,-4.5764,-0.24801,0.46731,-0.29902,-13.38,24.06,24.72
7.9951,0.8036,-5.9793,-0.32315,0.78313,-0.51924,-13.62,24.06,24.54
9.4389,-3.4596,-5.6661,-0.31796,0.38759,-0.47678,-13.98,23.7,24.36
6.9872,-1.7298,-5.1349,-0.18509,0.44013,-0.29077,-14.4,23.4,24.12
9.0575,-2.9556,-6.8374,-0.17165,0.41966,-0.37446,-14.7,23.22,24.06
8.9622,-0.27241,-6.96,-0.14539,0.40867,-0.26725,-15.24,22.8,23.82
6.9328,-0.96704,-6.2381,-0.04215,0.2025,-0.098349,-15.72,22.68,23.52
6.9328,-1.9886,-5.6661,0.064446,0.28527,-0.087354,-15.96,22.44,23.52
7.5729,-2.2201,-6.2926,0.068417,0.23915,-0.27245,-16.38,22.26,23.28
5.8567,-2.5606,-4.7263,0.083078,0.17685,-0.33567,-17.1,21.96,23.04
8.5944,-2.1248,-5.4073,0.037568,0.42516,-0.61239,-17.4,21.84,22.62
8.9894,-3.2553,-5.2575,0.041233,0.26603,-0.65332,-17.82,21.66,22.56
5.9249,-2.2474,-5.3937,0.043371,0.19059,-0.64568,-18.12,21.42,22.32
8.1313,-1.6889,-6.3471,-0.065363,0.30421,-0.64202,-18.24,21.3,22.2
6.6059,-0.24517,-5.884,-0.14325,0.25931,-0.59987,-18.42,21.24,22.14
6.8374,0.5993,-6.3471,-0.057421,0.24221,-0.30818,-18.9,20.94,21.9
14.942,-6.1292,-8.5808,-0.14294,0.11637,-0.072693,-19.32,20.52,21.54
6.4833,-3.4596,-5.8295,-0.20097,-0.078496,-0.073915,-19.5,20.34,21.42
8.2131,0.70826,-6.851,-0.25656,0.18967,-0.22602,-20.04,19.92,21.12
7.1371,1.6344,-6.4833,-0.020464,0.18815,0.2251,-20.34,19.5,21.06
17.625,-4.6309,-8.9758,-0.092546,0.058032,0.034819,-20.58,19.38,21.0
8.4174,-2.1384,-4.4947,-0.1689,-0.14569,-0.33537,-20.7,19.38,20.76
6.2926,1.6344,-5.6933,0.13164,-0.03146,-0.0088575,-21.12,19.2,20.64
13.634,-3.3097,-7.1234,-0.07025,-0.048258,-0.061392,-21.18,19.02,20.58
8.7034,-0.27241,-4.9578,0.0018326,-0.17868,-0.15027,-21.3,18.96,20.64
8.6217,2.4789,-5.5571,0.097433,-0.24282,-0.0030543,-21.18,19.08,20.82
9.0439,-1.3484,-5.4073,0.12309,-0.37415,0.1628,-21.24,19.08,20.82
4.5764,3.6094,-5.2575,0.11057,-0.40775,0.076053,-21.18,19.26,20.82
16.739,-6.5378,-7.464,0.077885,-0.41539,0.2923,-21.3,19.5,20.76
5.3528,-2.1929,-3.5004,0.15669,-0.58093,0.012828,-21.3,19.5,20.82
2.4517,2.5606,-5.8159,0.31215,-0.53695,0.27458,-21.06,19.38,21.06
6.8374,0.54481,-6.96,0.26389,-0.10843,0.49083,-20.94,19.44,21.36
12.708,-3.4732,-9.2891,0.1295,-0.1912,0.59468,-20.76,19.44,21.36
3.5549,-3.3097,-3.1054,-0.13042,-0.24709,0.02138,-20.4,19.68,21.66
1.471,-1.1986,-5.9657,0.051313,-0.16524,0.8042,-19.86,19.98,21.66
16.208,-5.1894,-12.054,-0.41111,-0.13286,0.19212,-19.5,20.16,21.9
3.5413,-0.74912,-4.7944,-0.21472,-0.20861,0.68906,-18.96,20.52,21.96
9.8339,0.27241,-7.6138,-0.16005,-0.064752,0.75075,-18.36,20.88,22.38
9.9156,-3.8682,-6.3471,-0.18692,-0.04948,0.97066,-17.76,21.3,22.56
6.3471,-1.8524,-5.8023,-0.057116,-0.41997,0.95264,-17.64,21.48,22.74
8.6081,-1.58,-5.7069,-0.093462,-0.30238,0.956,-16.98,21.9,22.92
6.851,-2.1929,-5.3528,-0.036346,-0.58124,1.0629,-16.56,22.44,22.98
7.6683,-4.1814,-6.851,-0.15547,-0.63163,0.74006,-16.26,22.74,23.16
5.094,2.2474,-4.985,-0.27855,-0.44624,0.71441,-15.6,23.22,23.4
9.5615,-5.8704,-6.6604,-0.30604,-0.42791,0.53542,-15.0,23.4,23.58
4.699,-5.5162,-4.4675,-0.25595,-0.80634,0.45998,-14.52,23.58,23.82
4.2768,-0.78998,-4.0452,-0.10446,-0.12706,0.47037,-13.92,23.94,24.18
11.4,-2.2474,-7.246,-0.095906,-0.31765,0.21686,-13.08,24.3,24.54
8.0905,-3.6911,-6.4969,-0.058338,-0.52504,-0.046731,-12.36,24.66,24.9
4.8488,-2.1929,-4.522,0.059254,-0.25931,-0.05284,-12.0,24.84,25.02
6.9328,-4.0861,-6.3743,0.058338,-0.066584,-0.14142,-11.28,25.2,25.74
10.202,-7.1234,-10.025,0.0033598,0.061697,-0.29169,-10.74,25.26,26.1
0.78998,0.20431,-2.9556,-0.11637,0.07086,-0.51007,-10.56,25.32,26.58
-3.0918,5.6388,-1.0215,0.32437,0.69975,0.33567,-10.56,25.44,26.7
16.372,-3.0646,-9.3299,0.33017,0.45387,0.14661,-10.86,25.5,27.0
4.8488,0.027241,-5.7614,0.22388,-0.5846,0.075747,-10.98,25.68,27.06
7.2733,-1.58,-7.1643,0.0033598,-0.0051924,-0.15974,-10.98,25.74,26.94
6.8919,-4.0861,-5.1076,-0.18845,-0.33201,-0.20617,-11.16,25.68,27.06
8.5808,-3.1599,-6.8783,-0.065973,0.0281,-0.27611,-11.28,25.5,27.06
8.5127,-5.7069,-6.17,-0.17471,-0.10537,-0.64049,-11.58,25.32,26.94
7.8998,-5.3937,-7.0417,-0.23549,0.010079,-0.92729,-11.76,25.2,27.0
5.2575,3.2825,-3.051,-0.11393,0.5791,-0.69669,-12.0,25.14,26.88
11.414,0.92618,-5.1485,0.15272,0.28039,-0.44471,-12.24,24.96,26.94
10.215,-2.5742,-6.9872,0.21472,-0.29016,-0.43371,-12.3,24.66,26.76
5.3664,-2.5198,-6.0338,0.045204,-0.16188,-0.49083,-12.6,24.36,26.7
5.3392,-4.7399,-4.7126,0.12798,0.16554,-0.36072,-12.9,23.82,26.58
6.6195,-3.1735,-6.674,0.023824,0.074526,-0.62797,-13.08,23.7,26.52
3.5685,0.32689,-5.4754,0.15516,0.20464,-0.44899,-13.44,23.4,26.52
16.018,-13.77,-13.021,-0.072998,0.029627,-1.1002,-13.98,23.04,26.46
-4.5492,8.3493,-1.4574,0.197,0.68814,-0.72998,-14.52,22.68,26.1
7.1507,2.8467,-5.9521,0.208,0.95234,-0.90072,-14.7,22.62,25.92
5.9657,-1.0488,-5.3937,0.29199,0.13775,-0.57146,-15.18,22.14,25.5
10.542,-0.1362,-7.7636,-0.07025,0.38026,-0.7758,-15.72,21.96,25.2
14.928,-4.4811,-7.4776,-0.26603,0.18967,-0.73548,-15.78,21.84,25.14
-1.7706,-3.051,-2.1656,-0.036041,-0.12248,-0.17776,-16.38,21.48,24.9
14.86,-5.8431,-11.904,-0.53756,0.2645,-0.89706,-16.86,21.06,24.72
1.7979,0.16344,-3.4459,-0.33872,0.36652,-0.27367,-17.4,20.64,24.42
5.5707,1.7434,-5.9657,0.015577,0.43158,-0.15333,-17.7,20.22,24.24
10.147,0.6674,-8.9349,0.093462,0.058948,0.11515,-18.06,20.1,24.24
4.4811,2.1248,-7.7364,0.12798,0.2587,0.25901,-18.42,19.68,23.94
11.618,-3.5822,-9.0575,-0.1347,0.36408,0.15669,-18.66,19.32,23.88
7.0009,-2.942,-5.5162,-0.18265,0.37874,0.095295,-18.84,19.2,23.7
7.1643,0.28603,-5.8295,-0.065973,0.49602,0.11118,-19.14,19.02,23.4
10.379,0.43585,-6.4833,-0.17501,0.2025,-0.083689,-19.44,18.84,23.28
13.947,-3.4732,-7.0553,-0.16768,0.13744,-0.086132,-19.74,18.9,22.98
8.4719,-1.5391,-5.0531,-0.071471,-0.10782,-0.020464,-19.8,18.96,22.92
7.2052,1.5663,-6.8919,0.094379,0.034819,0.28069,-20.16,18.78,22.68
11.414,-0.19068,-8.4991,0.029932,-0.064446,0.28741,-20.34,18.9,22.38
8.3493,-1.4165,-7.069,0.06353,-0.13867,0.29871,-20.46,18.96,22.32
4.6309,0.24517,-5.993,0.10782,-0.061392,0.24771,-20.46,19.2,22.32
6.0747,0.6674,-7.3958,0.094379,0.030849,0.40684,-20.4,19.44,22.2
7.0962,0.8036,-6.7421,-0.029932,0.088881,0.47189,-20.52,19.5,22.32
10.651,-1.58,-7.8726,-0.16341,0.085521,0.46426,-20.4,19.5,22.2
4.9033,-2.1248,-4.6718,-0.21533,-0.012828,0.52657,-20.28,19.74,22.26
1.4301,6.7012,-2.547,-0.23885,0.11729,0.29841,-20.04,19.92,22.02
8.4174,3.3097,-5.489,-0.012523,-0.054062,0.88514,-19.74,20.1,21.96
8.7443,-10.924,-6.1836,-0.26389,-0.551,0.33689,-19.38,20.64,21.84
-2.4925,-2.547,-2.1656,-0.14386,-0.56566,0.65912,-19.2,20.64,21.9
14.451,-8.8124,-9.0303,-0.30055,-0.14691,0.055283,-19.02,20.82,22.02
1.3348,-2.8739,-4.3449,-0.12431,-0.044593,0.22174,-19.02,20.76,21.9
13.484,-1.1441,-6.9328,-0.23366,0.28772,-0.16616,-18.84,20.88,22.26
