Ax,Ay,Az,Gx,Gy,Gz,Mx,My,Mz
4.6718,-1.0488,-8.5808,-0.03543,-0.012523,0.021991,-24.96,-5.22,22.62
4.699,-1.0079,-8.6762,-0.026267,0.0061087,0.024435,-24.78,-5.34,22.62
4.6445,-1.076,-8.6898,-0.037874,0.0097738,0.015882,-24.9,-5.4,22.8
4.6037,-1.0351,-8.6489,-0.046426,0.025351,0.01741,-24.9,-5.22,22.86
4.6309,-1.0351,-8.5672,-0.043677,0.026573,0.01405,-25.02,-5.28,22.8
4.7399,-0.96704,-8.6353,-0.045204,0.017715,0.017104,-24.78,-5.1,22.74
4.7671,-0.99429,-8.6217,-0.036041,-0.0058032,0.012217,-24.78,-5.16,22.8
4.6854,-1.0215,-8.54,-0.036957,-0.0082467,0.0097738,-24.72,-5.22,22.8
4.7399,-1.0215,-8.6625,-0.036652,-0.0036652,0.0079412,-24.72,-5.1,22.74
4.6445,-1.1577,-8.6217,-0.038485,-0.000305,0.015882,-24.78,-5.1,22.74
4.6718,-1.0351,-8.5808,-0.039095,0.018326,0.025962,-24.96,-5.04,22.62
4.7263,-1.0215,-8.6353,-0.034514,0.011606,0.024129,-25.02,-5.1,22.68
4.7126,-1.0215,-8.6353,-0.037874,0.0085521,0.025045,-25.02,-5.28,22.62
4.6854,-1.0351,-8.6353,-0.036346,0.002138,0.026878,-25.08,-5.22,22.68
4.6582,-0.96704,-8.6489,-0.037568,-0.0094684,0.02138,-25.08,-5.34,22.56
4.6173,-1.0079,-8.5672,-0.033598,-0.0058032,0.013744,-25.08,-5.46,22.56
4.6037,-1.076,-8.6081,-0.04215,0.0064141,0.015272,-25.14,-5.4,22.68
4.6854,-1.0351,-8.5672,-0.041844,0.012523,0.022602,-25.26,-5.64,22.62
4.7399,-1.0215,-8.6353,-0.041844,0.0094684,0.015882,-25.32,-5.58,22.62
4.7126,-1.0215,-8.54,-0.043371,0.0039706,0.018326,-25.38,-5.46,22.68
4.6445,-0.99429,-8.5536,-0.03879,-0.0076358,0.020464,-25.5,-5.58,22.8
4.6309,-1.0215,-8.6898,-0.030543,0.0024435,0.029322,-25.5,-5.52,22.8
4.6582,-1.076,-8.6762,-0.034819,0.011606,0.028405,-25.44,-5.64,22.86
4.6718,-1.1032,-8.6081,-0.043066,0.01741,0.016799,-25.32,-5.58,22.68
4.699,-0.99429,-8.5808,-0.039706,0.014966,0.01405,-25.38,-5.4,22.8
4.7535,-0.92618,-8.6081,-0.042761,0.01741,0.011301,-25.26,-5.34,22.74
4.699,-1.0079,-8.6081,-0.03879,0.0048869,0.0061087,-25.32,-5.4,22.98
4.699,-1.0215,-8.6898,-0.033903,0.0073304,0.01405,-25.32,-5.34,22.86
4.7263,-0.99429,-8.5944,-0.041233,0.0015272,0.023824,-25.08,-5.46,22.86
4.7263,-0.98067,-8.6489,-0.037263,-0.0094684,0.024129,-24.9,-5.46,22.86
4.7126,-1.0624,-8.6353,-0.028405,-0.010079,0.030238,-24.84,-5.34,22.98
4.7399,-0.99429,-8.6081,-0.035736,-0.0015272,0.021991,-24.96,-5.46,22.86
4.699,-0.98067,-8.7034,-0.040317,0.0054978,0.019242,-25.08,-5.4,22.92
4.7263,-0.99429,-8.6217,-0.03543,0.01069,0.021075,-24.96,-5.34,22.8
4.7399,-0.9398,-8.6081,-0.043066,0.020159,0.018631,-24.9,-5.34,22.92
4.7535,-0.98067,-8.5263,-0.033903,0.018021,0.013439,-24.84,-5.4,22.98
4.7671,-0.98067,-8.54,-0.038485,0.0079412,0.014661,-24.72,-5.4,22.86
4.7807,-1.0215,-8.54,-0.031765,0.0039706,0.015577,-24.78,-5.52,22.86
4.7671,-1.0488,-8.5808,-0.039401,-0.01069,0.020464,-24.72,-5.46,22.68
4.7126,-0.98067,-8.5808,-0.034514,-0.011912,0.014355,-24.6,-5.4,22.62
4.699,-1.0351,-8.6081,-0.032987,-0.0067195,0.012828,-24.78,-5.28,22.62
4.6582,-1.0351,-8.5808,-0.032987,0.0097738,0.012523,-24.84,-5.34,22.62
4.7399,-1.076,-8.6217,-0.035736,0.010996,0.013134,-24.84,-5.46,22.74
4.7263,-1.1169,-8.54,-0.038485,0.000305,0.017715,-24.66,-5.4,22.8
4.7399,-0.96704,-8.6625,-0.046426,0.0048869,0.0097738,-24.54,-5.46,22.86
4.7399,-0.96704,-8.5944,-0.048869,0.010996,0.010385,-24.54,-5.64,22.74
4.7399,-0.95342,-8.6081,-0.041844,0.0058032,0.015882,-24.6,-5.58,22.74
4.699,-0.96704,-8.54,-0.033598,-0.0058032,0.007025,-24.72,-5.4,22.8
4.6718,-0.95342,-8.6762,-0.038485,-0.0097738,0.022297,-24.78,-5.46,22.74
4.6718,-0.92618,-8.6081,-0.036652,-0.002138,0.013134,-24.78,-5.4,22.74
4.7399,-0.98067,-8.54,-0.036346,0.0076358,0.018937,-24.9,-5.34,22.68
4.7944,-0.99429,-8.5127,-0.045815,0.0054978,0.023518,-24.96,-5.28,22.74
4.7399,-1.0079,-8.6353,-0.034514,-0.0082467,0.017104,-24.9,-5.28,22.8
4.6718,-1.0215,-8.6217,-0.036957,-0.0079412,0.018326,-24.96,-5.22,22.86
4.699,-1.0215,-8.6489,-0.038485,-0.0082467,0.015577,-24.96,-5.28,22.68
4.7535,-0.99429,-8.6353,-0.041233,-0.0033598,0.012828,-25.02,-5.22,22.68
4.6309,-1.0351,-8.5808,-0.036041,-0.0027489,0.018326,-25.02,-5.16,22.56
4.7263,-1.0215,-8.6081,-0.044288,-0.0048869,0.022297,-24.9,-4.8,22.62
4.7671,-1.0079,-8.5808,-0.035125,-0.013744,0.022297,-24.84,-4.86,22.68
4.7399,-1.1169,-8.6625,-0.029322,-0.032987,0.014966,-24.78,-4.98,22.62
4.6173,-0.98067,-8.6081,-0.031154,-0.039095,0.016188,-24.72,-5.1,22.74
4.5901,-0.96704,-8.5808,-0.031765,-0.023518,0.025656,-24.78,-5.16,22.86
4.6173,-1.0624,-8.6625,-0.026267,-0.0082467,0.021991,-24.66,-5.22,22.8
4.808,-1.076,-8.6898,-0.029627,-0.010996,0.022602,-24.6,-5.16,22.74
4.6718,-1.076,-8.7306,-0.03207,-0.0079412,0.014966,-24.54,-5.22,22.8
4.6445,-0.99429,-8.6762,-0.048258,-0.0067195,0.021686,-24.6,-5.4,22.68
4.6582,-0.99429,-8.6353,-0.042455,-0.013744,0.022602,-24.72,-5.34,22.62
4.6582,-0.96704,-8.6625,-0.042455,-0.0082467,0.02138,-24.54,-5.4,22.62
4.699,-1.0624,-8.6898,-0.036957,-0.019242,0.011912,-24.54,-5.4,22.62
4.6718,-1.0215,-8.6081,-0.040317,0.0015272,0.013439,-24.54,-5.46,22.62
4.6718,-1.1032,-8.6353,-0.043982,0.0012217,0.023213,-24.66,-5.46,22.56
4.7126,-1.0351,-8.5808,-0.036041,0.0027489,0.016799,-24.6,-5.4,22.68
4.7399,-0.99429,-8.6625,-0.040012,-0.014355,0.013439,-24.54,-5.4,22.56
4.6718,-0.99429,-8.6625,-0.033598,-0.029322,0.029322,-24.54,-5.34,22.44
4.5764,-1.0079,-8.6625,-0.036652,-0.021991,0.013439,-24.6,-5.34,22.56
4.6309,-0.99429,-8.6762,-0.037263,-0.0058032,0.021075,-24.6,-5.46,22.74
4.6718,-0.98067,-8.6625,-0.044288,-0.0036652,0.016493,-24.66,-5.58,22.68
4.6173,-1.0079,-8.5944,-0.041539,-0.0088575,0.021686,-24.54,-5.58,22.74
4.699,-0.98067,-8.6353,-0.031154,-0.014966,0.017104,-24.48,-5.4,22.92
4.6309,-1.0215,-8.6489,-0.028711,-0.014355,0.016493,-24.66,-5.34,22.92
4.6037,-0.9398,-8.6625,-0.043066,-0.012828,0.014966,-24.72,-5.34,23.04
4.5764,-1.076,-8.6762,-0.029932,-0.000916,0.0097738,-24.54,-5.4,23.04
4.5628,-1.0215,-8.6762,-0.036957,0.015577,0.0051924,-24.54,-5.28,22.86
4.6173,-1.076,-8.6898,-0.030849,0.019853,0.0088575,-24.54,-5.28,22.8
4.6718,-1.0351,-8.6489,-0.043066,0.0088575,0.020159,-24.66,-5.22,22.8
4.5901,-0.96704,-8.6081,-0.039706,0.0030543,0.010079,-24.6,-5.1,22.74
4.6173,-0.96704,-8.5944,-0.040317,0.0033598,0.024435,-24.6,-5.16,22.68
4.6445,-0.9398,-8.54,-0.038179,-0.018937,0.013439,-24.72,-5.04,22.8
4.6445,-1.0079,-8.6625,-0.036957,-0.012523,0.010996,-24.54,-4.86,22.92
4.6445,-1.0079,-8.7034,-0.039706,-0.0036652,0.012828,-24.54,-4.74,22.86
4.6718,-0.95342,-8.6353,-0.036346,0.013744,0.012523,-24.66,-4.74,22.86
4.6854,-0.98067,-8.54,-0.035125,0.011912,0.014966,-24.6,-4.8,22.92
4.6718,-1.0624,-8.5808,-0.025351,0.0042761,0.016493,-24.54,-4.92,22.86
4.699,-1.0488,-8.5808,-0.036041,-0.0082467,0.021991,-24.66,-4.8,22.92
4.6037,-1.1032,-8.7306,-0.032681,-0.01405,0.016188,-24.66,-4.98,22.98
4.6445,-1.0488,-8.6489,-0.031765,-0.01405,0.021075,-24.6,-5.04,23.04
4.6445,-1.0351,-8.6217,-0.039095,0.0048869,0.021686,-24.54,-5.04,23.04
4.6445,-0.98067,-8.54,-0.035736,0.0054978,0.025351,-24.48,-5.1,23.16
4.7126,-0.96704,-8.6081,-0.03879,0.0015272,0.027489,-24.42,-5.22,23.04
4.7399,-0.99429,-8.6625,-0.03207,-0.022907,0.031154,-24.36,-5.22,22.8
4.6718,-0.99429,-8.6625,-0.02474,-0.033292,0.02138,-24.54,-5.1,22.62
4.5901,-0.99429,-8.6353,-0.033292,-0.032681,0.019242,-24.48,-5.1,22.68
4.4675,-1.0624,-8.6217,-0.035125,-0.020464,0.022602,-24.42,-5.22,22.68
4.5492,-0.96704,-8.6762,-0.033903,-0.011301,0.023824,-24.36,-5.28,22.68
4.5901,-0.98067,-8.6898,-0.030238,0.0027489,0.032987,-24.42,-5.1,22.62
4.5901,-0.99429,-8.6762,-0.038179,0.0088575,0.029627,-24.42,-5.16,22.62
4.6854,-1.0215,-8.4582,-0.037874,0.016493,0.020464,-24.54,-5.1,22.56
4.7399,-1.0215,-8.4855,-0.044593,0.0076358,0.02138,-24.6,-5.04,22.68
4.6854,-1.0215,-8.5127,-0.035125,-0.040317,0.016799,-24.66,-4.98,22.56
4.6445,-1.076,-8.6762,-0.026573,-0.055589,0.016493,-24.48,-4.86,22.68
4.5083,-1.0215,-8.7715,-0.022297,-0.044899,0.01741,-24.54,-4.68,22.62
4.4947,-1.0624,-8.7987,-0.032681,-0.012217,0.016493,-24.54,-4.68,22.74
4.6037,-1.0215,-8.6762,-0.034819,0.011912,0.025656,-24.48,-4.92,22.8
4.6582,-1.0351,-8.6081,-0.043677,0.011606,0.029016,-24.54,-5.04,22.74
4.6445,-1.0624,-8.6762,-0.037568,0.0079412,0.026573,-24.54,-5.04,22.68
4.6582,-1.0079,-8.6625,-0.040928,-0.012828,0.023824,-24.66,-5.22,22.68
4.6037,-1.0215,-8.6762,-0.032376,0.0024435,0.019853,-24.72,-5.28,22.74
4.6037,-0.99429,-8.6489,-0.036346,0.011301,0.009163,-24.72,-5.34,22.86
4.6037,-0.99429,-8.6217,-0.037874,0.0061087,0.016799,-24.66,-5.28,23.16
4.6309,-1.0215,-8.6625,-0.032681,-0.0039706,0.020464,-24.72,-5.28,22.98
4.6445,-1.0624,-8.7034,-0.03543,-0.010385,0.020159,-24.78,-5.28,23.16
4.5764,-1.0624,-8.7715,-0.032681,-0.0061087,0.026573,-25.14,-5.28,23.1
4.522,-0.99429,-8.6898,-0.03879,-0.000611,0.014966,-25.14,-5.4,23.1
4.5764,-1.0488,-8.6081,-0.040317,0.01069,0.016188,-25.14,-5.4,22.98
4.6582,-1.0215,-8.7306,-0.033292,0.01069,0.018631,-25.32,-5.16,22.98
4.6718,-1.0079,-8.6489,-0.036652,0.015882,0.019548,-25.26,-5.16,23.04
4.7126,-1.0215,-8.7034,-0.038179,0.015577,0.01069,-25.08,-5.04,23.1
4.5764,-1.0215,-8.6353,-0.037568,0.028405,0.011606,-25.02,-4.98,22.98
4.699,-1.0624,-8.5944,-0.04948,0.03207,0.013134,-25.08,-4.86,22.98
4.7399,-1.0896,-8.7579,-0.041233,0.01741,0.0073304,-25.08,-4.86,22.92
4.6718,-0.99429,-8.6081,-0.034819,-0.010385,0.0088575,-24.84,-5.1,22.74
4.6173,-0.98067,-8.7034,-0.035736,-0.013439,0.018021,-24.78,-5.1,22.68
4.6309,-0.99429,-8.6898,-0.037874,-0.010385,0.020159,-24.66,-5.16,22.8
4.5901,-1.0215,-8.6625,-0.041233,0.020159,0.021686,-24.66,-5.34,22.68
4.6445,-1.0215,-8.6762,-0.04612,0.024435,0.019548,-24.6,-5.22,22.86
4.6173,-0.99429,-8.6489,-0.037874,0.027184,0.020464,-24.6,-5.34,22.92
4.7126,-1.0215,-8.6625,-0.037568,0.021075,0.015272,-24.3,-5.28,23.04
4.6854,-0.98067,-8.6353,-0.040317,0.016799,0.017715,-24.36,-5.28,22.92
4.7399,-1.0215,-8.6353,-0.030543,0.011912,0.010996,-24.6,-5.28,23.04
4.6037,-1.0079,-8.6762,-0.030543,0.000916,0.019242,-24.48,-5.4,23.28
4.6037,-1.0079,-8.5536,-0.039095,0.0030543,0.024435,-24.42,-5.46,23.16
4.6037,-1.0215,-8.6081,-0.043677,0.0042761,0.022602,-24.42,-5.52,23.16
4.6309,-0.99429,-8.6081,-0.037568,0.014966,0.026573,-24.6,-5.22,23.22
4.6582,-0.96704,-8.7034,-0.042455,0.0085521,0.025656,-24.72,-5.22,23.22
4.6718,-0.98067,-8.6489,-0.030238,-0.002138,0.026878,-24.66,-5.22,22.92
4.6582,-1.0215,-8.6762,-0.036652,-0.021075,0.032987,-24.42,-5.1,23.04
4.6445,-1.1169,-8.6353,-0.029322,-0.0058032,0.034819,-24.54,-5.16,22.86
4.6173,-1.1032,-8.6081,-0.044593,0.0085521,0.025351,-24.48,-5.04,22.92
4.5764,-1.0351,-8.6762,-0.03879,0.012523,0.015272,-24.54,-5.22,22.74
4.6718,-1.0488,-8.5536,-0.044899,0.01069,0.021991,-24.66,-5.22,22.74
4.699,-0.96704,-8.6081,-0.034514,0.0018326,0.013134,-24.6,-5.28,22.74
4.7126,-0.98067,-8.6353,-0.034514,-0.0018326,0.010079,-24.54,-5.22,22.68
4.6445,-0.96704,-8.6489,-0.036346,-0.0064141,0.016799,-24.6,-5.1,22.86
4.6445,-1.0624,-8.6353,-0.031765,-0.0039706,0.025962,-24.66,-5.04,22.92
4.6445,-1.185,-8.5808,-0.041233,-0.002138,0.027489,-24.6,-5.16,23.04
4.6582,-1.0351,-8.6081,-0.040928,-0.0061087,0.025351,-24.54,-5.16,23.1
4.6718,-1.0896,-8.6625,-0.043371,-0.0039706,0.030238,-24.6,-5.04,23.22
4.6718,-1.0896,-8.6353,-0.031765,-0.000305,0.022907,-24.72,-5.16,23.1
4.6037,-0.99429,-8.6217,-0.040012,0.0073304,0.020769,-24.54,-5.22,23.1
4.6718,-1.0079,-8.6762,-0.043066,0.015577,0.011912,-24.48,-5.16,23.1
4.6582,-1.0215,-8.6081,-0.036346,0.025351,0.010996,-24.54,-5.1,23.04
4.7263,-1.0215,-8.4855,-0.032987,0.024129,0.010385,-24.3,-5.22,23.1
4.7399,-1.076,-8.4991,-0.039401,0.021991,0.020159,-24.24,-5.16,23.04
4.7126,-1.0215,-8.5808,-0.040012,0.0051924,0.016493,-24.24,-5.16,23.04
4.6309,-1.0079,-8.5808,-0.041844,-0.0042761,0.012217,-24.36,-5.04,23.04
4.6718,-0.99429,-8.7306,-0.025045,-0.015272,0.020464,-24.3,-4.92,22.68
4.6309,-0.99429,-8.6489,-0.038179,-0.011606,0.023518,-24.24,-4.92,22.56
4.6037,-1.1577,-8.54,-0.041233,0.028405,0.029627,-24.24,-4.8,22.62
4.6582,-1.076,-8.6081,-0.043371,0.026878,0.02474,-24.24,-4.74,22.56
4.7263,-1.0488,-8.5944,-0.045204,0.019548,0.007025,-24.36,-4.8,22.56
4.7399,-1.0488,-8.5536,-0.037568,0.013134,0.01069,-24.42,-4.8,22.68
4.7399,-0.96704,-8.6625,-0.040928,-0.0088575,0.013439,-24.66,-4.74,22.86
4.6582,-0.96704,-8.6625,-0.026267,-0.015272,0.011301,-24.66,-4.68,22.92
4.6309,-0.99429,-8.6353,-0.039095,-0.0094684,0.016493,-24.9,-4.56,22.86
4.699,-1.0215,-8.6217,-0.037568,0.0054978,0.022297,-24.96,-4.74,22.92
4.6718,-0.99429,-8.5808,-0.037568,0.018021,0.025962,-24.96,-4.8,22.92
4.699,-0.99429,-8.6353,-0.043677,0.0085521,0.025962,-25.02,-5.1,22.92
4.699,-1.0079,-8.6625,-0.034208,0.0048869,0.021686,-24.96,-5.04,22.86
4.699,-1.0215,-8.5808,-0.032987,-0.0030543,0.016188,-25.02,-4.98,22.86
4.6309,-0.99429,-8.7306,-0.039095,0.0033598,0.011301,-25.02,-5.16,22.68
4.6718,-0.92618,-8.6217,-0.039401,0.01069,0.021075,-25.08,-5.22,22.8
4.6445,-0.99429,-8.6081,-0.036041,0.011912,0.010996,-25.08,-5.1,22.74
4.6445,-1.0215,-8.6081,-0.034514,0.022907,0.015272,-25.14,-5.04,22.62
4.6718,-1.0215,-8.5808,-0.036957,0.0088575,0.018326,-25.14,-4.98,22.56
4.7535,-1.0624,-8.6762,-0.026573,0.0015272,0.011912,-25.14,-5.04,22.5
4.699,-1.0624,-8.6625,-0.0281,-0.010385,0.021075,-25.26,-5.04,22.5
4.5628,-1.0624,-8.6762,-0.022602,-0.000611,0.015577,-25.08,-4.92,22.56
4.6037,-1.0488,-8.6353,-0.034819,0.0058032,0.016799,-25.14,-4.86,22.68
4.6173,-1.0896,-8.6217,-0.036041,0.0082467,0.010996,-25.08,-4.68,22.62
4.6718,-1.0215,-8.5808,-0.03879,0.012828,0.012828,-25.08,-4.8,22.62
4.6718,-0.96704,-8.6762,-0.039401,0.0094684,0.010996,-25.02,-4.8,22.62
4.7263,-0.92618,-8.5808,-0.040623,0.0076358,0.012523,-24.96,-4.8,22.56
4.7263,-0.99429,-8.6081,-0.032376,0.0076358,0.013744,-25.02,-4.8,22.5
4.7263,-1.0351,-8.6081,-0.033292,0.0027489,0.0088575,-25.02,-4.86,22.5
4.7263,-1.0624,-8.54,-0.040623,0.009163,0.013439,-24.96,-4.98,22.56
4.699,-1.0215,-8.54,-0.032987,-0.002138,0.013134,-24.9,-4.98,22.44
4.6718,-1.0079,-8.5808,-0.03879,-0.010996,0.018326,-24.9,-4.86,22.38
4.7126,-1.0488,-8.6762,-0.037263,-0.010079,0.018937,-24.72,-4.74,22.38
4.699,-1.0351,-8.5672,-0.03207,-0.01741,0.018937,-24.78,-4.8,22.38
4.6718,-0.99429,-8.431,-0.03543,-0.0058032,0.019853,-24.66,-4.98,22.32
4.6854,-1.0488,-8.6081,-0.033598,-0.0018326,0.019548,-24.72,-5.04,22.44
4.6854,-1.0215,-8.7034,-0.040623,-0.000916,0.020769,-24.66,-5.16,22.26
4.6854,-1.0351,-8.6081,-0.043066,0.007025,0.018326,-24.78,-5.22,22.2
4.6445,-0.99429,-8.5808,-0.041844,0.0094684,0.018021,-24.78,-5.34,22.26
4.7399,-0.95342,-8.54,-0.03146,0.0067195,0.023518,-24.66,-5.34,22.26
4.7399,-1.0079,-8.54,-0.037263,0.0036652,0.027794,-24.54,-5.46,22.32
4.699,-0.99429,-8.5808,-0.034514,-0.000611,0.010385,-24.6,-5.34,22.26
4.7263,-1.0079,-8.6353,-0.029322,-0.0033598,0.011606,-24.54,-5.4,22.32
4.6445,-1.0215,-8.6762,-0.027489,0.0027489,0.013744,-24.6,-5.4,22.32
4.699,-1.185,-8.6217,-0.036652,0.000305,0.01741,-24.66,-5.46,22.38
4.7671,-1.1169,-8.6081,-0.032987,-0.013134,0.024435,-24.72,-5.46,22.26
4.7126,-1.1032,-8.6762,-0.038485,-0.017104,0.020769,-24.9,-5.58,22.2
4.6854,-1.0624,-8.5808,-0.044899,-0.020769,0.025962,-25.02,-5.46,22.2
4.7399,-0.99429,-8.5672,-0.045509,-0.034819,0.025351,-24.9,-5.4,22.26
4.7399,-0.96704,-8.6217,-0.036041,-0.06017,0.025351,-25.02,-5.22,22.38
4.7126,-0.99429,-8.5944,-0.03207,-0.063835,0.02474,-24.96,-5.04,22.26
4.6037,-1.0079,-8.6081,-0.036652,-0.047647,0.018021,-25.14,-5.04,22.26
4.6582,-0.98067,-8.6898,-0.04215,-0.026267,0.031765,-25.14,-5.16,22.44
4.5764,-1.0624,-8.5536,-0.033292,-0.018937,0.032681,-25.08,-5.16,22.32
4.6582,-1.0896,-8.5808,-0.030543,-0.0281,0.03146,-24.96,-5.22,22.38
4.6173,-1.076,-8.7034,-0.030238,-0.038485,0.038179,-24.9,-5.28,22.5
4.6582,-1.076,-8.6353,-0.03207,-0.042455,0.030238,-24.84,-5.28,22.56
4.5764,-1.0079,-8.6489,-0.032376,-0.029627,0.023824,-24.84,-5.28,22.62
4.5492,-1.0624,-8.717,-0.033598,-0.027794,0.027489,-24.84,-5.22,22.74
4.5492,-1.0351,-8.6489,-0.038485,-0.021686,0.022907,-24.78,-5.16,22.8
4.6582,-1.0351,-8.5808,-0.040317,-0.022907,0.037568,-24.9,-5.22,22.86
4.6718,-1.0488,-8.6762,-0.031154,-0.026573,0.036346,-24.9,-5.28,22.74
4.6718,-1.0215,-8.6898,-0.029016,-0.044593,0.028711,-24.78,-5.34,22.92
4.5764,-1.0079,-8.7306,-0.0281,-0.046426,0.031765,-24.72,-5.4,22.92
4.5764,-1.0079,-8.6762,-0.033598,-0.049175,0.030849,-24.72,-5.34,22.86
4.5356,-1.1032,-8.7034,-0.032987,-0.035736,0.030238,-24.78,-5.28,22.92
4.5901,-1.0624,-8.7306,-0.03146,-0.021075,0.027489,-24.96,-5.28,23.04
4.5356,-1.0896,-8.7306,-0.033292,-0.010079,0.039401,-24.84,-5.28,22.92
4.6309,-1.0896,-8.6217,-0.039706,-0.0085521,0.043982,-24.9,-5.16,22.86
4.6173,-1.0624,-8.5808,-0.043371,-0.031765,0.04948,-24.9,-5.16,23.04
4.6718,-0.99429,-8.6489,-0.038179,-0.047342,0.050396,-24.84,-5.22,22.98
4.5901,-1.0215,-8.6353,-0.036652,-0.054672,0.051313,-24.9,-5.22,23.04
4.5083,-1.0351,-8.6762,-0.029932,-0.061087,0.038179,-24.72,-4.98,23.16
4.5083,-1.0896,-8.6762,-0.038179,-0.040012,0.033903,-24.66,-4.98,23.28
4.5083,-1.0624,-8.6625,-0.034514,-0.027489,0.038179,-24.72,-4.86,23.22
4.4811,-1.0896,-8.6762,-0.04612,-0.013439,0.027184,-24.72,-4.74,23.16
4.4675,-1.0896,-8.6762,-0.032987,-0.012523,0.036041,-24.66,-5.04,23.1
4.5083,-1.0896,-8.717,-0.036957,-0.016799,0.04215,-24.66,-4.98,23.22
4.5083,-1.0351,-8.7034,-0.039706,-0.018937,0.04948,-24.48,-4.98,23.34
4.5356,-1.0351,-8.7034,-0.030238,-0.030849,0.040012,-24.54,-4.92,23.46
4.4402,-1.0624,-8.7306,-0.045815,-0.022907,0.036957,-24.6,-4.86,23.64
4.522,-1.0896,-8.7306,-0.042455,-0.017715,0.028711,-24.72,-4.8,23.58
4.522,-1.0624,-8.5263,-0.039401,-0.011912,0.029932,-24.6,-4.68,23.52
4.5764,-1.0351,-8.6217,-0.045815,-0.0097738,0.028405,-24.6,-4.68,23.52
4.4675,-1.0624,-8.7034,-0.028405,-0.037874,0.033292,-24.54,-4.8,23.46
4.4675,-1.1305,-8.7306,-0.030849,-0.044288,0.041539,-24.54,-4.92,23.52
4.4947,-1.1305,-8.7306,-0.033903,-0.038179,0.032376,-24.6,-5.04,23.46
4.3858,-1.1441,-8.7715,-0.034819,-0.020464,0.036652,-24.54,-4.92,23.58
4.3721,-1.1305,-8.7987,-0.042761,-0.014661,0.030543,-24.48,-4.86,23.64
4.4675,-1.1305,-8.7306,-0.044288,-0.0073304,0.039401,-24.48,-4.8,23.64
4.5356,-1.1032,-8.7715,-0.040623,-0.013134,0.039401,-24.3,-4.86,23.52
4.5083,-1.0896,-8.7306,-0.047342,-0.0097738,0.029016,-24.18,-4.8,23.64
4.5083,-1.1169,-8.6762,-0.046426,-0.019548,0.033292,-24.12,-4.98,23.52
4.4675,-1.076,-8.717,-0.043982,-0.04948,0.036041,-23.58,-5.1,23.76
4.3177,-1.1169,-8.7443,-0.030849,-0.07422,0.030238,-23.7,-4.98,23.64
4.2495,-1.1577,-8.7851,-0.036346,-0.061697,0.026878,-23.58,-5.04,23.64
4.2495,-1.185,-8.7987,-0.03543,-0.025351,0.018937,-23.46,-5.1,23.7
4.3313,-1.0896,-8.826,-0.041539,0.0018326,0.02474,-23.46,-4.98,23.82
4.3858,-1.1577,-8.7443,-0.053451,0.018631,0.022297,-23.46,-5.16,23.7
4.4402,-1.0896,-8.6762,-0.034208,0.019242,0.018631,-23.64,-5.22,23.64
4.4402,-1.0488,-8.7987,-0.037568,0.014661,0.021686,-23.76,-5.16,23.64
4.5356,-1.0896,-8.8124,-0.040623,0.0015272,0.022297,-24.06,-5.22,23.4
4.413,-1.076,-8.7851,-0.03146,-0.0030543,0.016493,-24.18,-5.16,23.52
4.4402,-1.0351,-8.7443,-0.029627,-0.0067195,0.011912,-24.12,-5.28,23.64
4.413,-1.076,-8.7715,-0.036346,-0.0033598,0.018326,-24.18,-5.22,23.76
4.3858,-1.0624,-8.6762,-0.032987,-0.0030543,0.026267,-24.24,-5.04,23.76
4.413,-1.0896,-8.7306,-0.036041,0.0045815,0.015272,-24.24,-4.98,23.64
4.3994,-1.1305,-8.6898,-0.050091,0.0042761,0.029016,-24.3,-5.04,23.7
4.4811,-1.1169,-8.7306,-0.040928,0.0027489,0.013439,-24.42,-4.92,23.82
4.413,-1.1032,-8.7306,-0.035125,-0.0067195,0.021075,-24.42,-4.8,24.0
4.4811,-1.076,-8.7987,-0.030543,-0.020464,0.029627,-24.54,-4.62,23.82
4.413,-1.1032,-8.8941,-0.029627,-0.02138,0.031765,-24.48,-4.68,23.7
4.3585,-1.1577,-8.7579,-0.040012,-0.0082467,0.023518,-24.48,-4.68,23.7
4.2768,-1.2122,-8.6898,-0.043371,0.0061087,0.015882,-24.48,-4.62,23.88
4.3858,-1.1577,-8.8124,-0.050702,0.0088575,0.025962,-24.48,-4.56,23.88
4.4675,-1.0896,-8.6898,-0.049786,-0.0061087,0.020769,-24.54,-4.68,23.7
4.3858,-1.0896,-8.7579,-0.032681,-0.021686,0.017715,-24.6,-4.74,23.64
4.3449,-1.0896,-8.7443,-0.032681,-0.022602,0.013134,-24.6,-4.68,23.64
4.3449,-1.0896,-8.7034,-0.034819,-0.0033598,0.02474,-24.66,-4.56,23.58
4.3858,-1.1577,-8.6898,-0.044899,-0.000611,0.028711,-24.54,-4.74,23.52
4.3449,-1.1032,-8.7715,-0.040623,0.0033598,0.025656,-24.48,-4.8,23.46
4.3585,-1.0896,-8.6898,-0.045204,0.0018326,0.025656,-24.42,-4.74,23.46
4.3449,-1.0488,-8.7034,-0.035736,0.0012217,0.031154,-24.42,-4.86,23.64
4.4266,-1.0624,-8.7443,-0.032987,0.000611,0.027794,-24.42,-4.86,23.58
4.3994,-1.0896,-8.7851,-0.033598,0.0045815,0.016493,-24.36,-4.86,23.52
4.304,-1.0488,-8.7715,-0.036346,0.0082467,0.017715,-24.54,-4.68,23.46
4.3449,-1.0624,-8.8396,-0.037874,0.013439,0.01405,-24.48,-4.74,23.4
4.3449,-1.1169,-8.7715,-0.037263,0.019853,0.02138,-24.42,-4.68,23.46
4.4402,-1.1032,-8.7851,-0.045815,0.019548,0.016188,-24.36,-4.56,23.34
4.4402,-1.0896,-8.6898,-0.038485,0.018326,0.013744,-24.3,-4.74,23.52
4.4402,-1.1032,-8.7306,-0.043677,0.015882,0.017715,-24.36,-4.68,23.64
4.3858,-1.1169,-8.7034,-0.022297,0.011912,0.026878,-24.36,-4.44,23.7
4.4402,-1.1169,-8.7715,-0.029932,0.011912,0.027794,-24.42,-4.44,23.76
4.4402,-1.1169,-8.826,-0.025962,0.01405,0.013134,-24.3,-4.38,23.64
4.3994,-1.1441,-8.7306,-0.033598,0.0094684,0.018937,-24.3,-4.38,23.64
4.4266,-1.1169,-8.7715,-0.050702,0.010996,0.014661,-24.36,-4.38,23.52
4.522,-1.1986,-8.7579,-0.04612,0.0018326,0.018021,-24.36,-4.44,23.46
4.413,-1.0488,-8.7851,-0.045509,0.0064141,0.0064141,-24.24,-4.62,23.46
4.3585,-1.0351,-8.7034,-0.0281,0.012217,0.010079,-24.18,-4.56,23.34
4.413,-1.0351,-8.7443,-0.033292,0.022907,0.013439,-24.12,-4.5,23.46
4.4811,-1.1169,-8.7034,-0.030238,0.015577,0.015577,-24.12,-4.44,23.52
4.4266,-1.1169,-8.6217,-0.039401,0.009163,0.017715,-24.24,-4.38,23.28
4.3177,-1.0896,-8.7034,-0.031154,0.0058032,0.020464,-24.24,-4.44,23.22
4.3994,-1.1441,-8.7579,-0.04215,0.011912,0.022602,-24.18,-4.32,23.22
4.4675,-1.0351,-8.7987,-0.037263,0.012828,0.016188,-24.12,-4.32,23.22
4.4539,-1.1169,-8.8668,-0.026878,0.012217,0.0085521,-24.06,-4.44,23.28
4.3585,-1.076,-8.7034,-0.035736,0.014355,0.0079412,-24.06,-4.38,23.22
4.3449,-1.0215,-8.7443,-0.036652,0.015882,0.01405,-24.0,-4.38,23.28
4.4539,-1.0624,-8.6762,-0.03543,0.015272,0.016493,-24.06,-4.26,23.22
4.4402,-1.1169,-8.6762,-0.033292,0.014966,0.019242,-24.0,-4.2,23.22
4.4947,-1.1032,-8.6762,-0.03207,0.0097738,0.017715,-23.88,-4.32,23.22
4.5356,-1.1577,-8.7715,-0.030543,-0.0018326,0.018021,-24.06,-4.14,23.22
4.4266,-1.1032,-8.7987,-0.036652,0.0012217,0.014966,-23.88,-4.26,23.22
4.3994,-1.076,-8.7715,-0.03207,0.0079412,0.015577,-23.7,-4.14,23.16
4.4402,-1.076,-8.7034,-0.032376,0.020159,0.01405,-23.58,-4.2,23.28
4.4811,-1.0624,-8.8124,-0.033903,0.018326,0.013134,-23.64,-4.26,23.34
4.5083,-1.185,-8.6898,-0.034514,0.017104,0.016188,-23.58,-4.44,23.28
4.4811,-1.1169,-8.7715,-0.025962,0.012217,0.014661,-23.7,-4.38,23.22
4.4675,-1.1169,-8.7306,-0.040623,0.021991,0.0064141,-23.64,-4.32,23.28
4.4811,-1.076,-8.7443,-0.047342,0.021686,0.010996,-23.58,-4.32,23.4
4.4811,-1.0488,-8.717,-0.041539,0.0018326,0.0030543,-23.52,-4.38,23.4
4.4811,-1.0896,-8.7579,-0.040928,0.010079,0.0085521,-23.4,-4.38,23.4
4.4675,-1.0624,-8.6353,-0.039401,0.0036652,0.0018326,-23.7,-4.38,23.28
4.3994,-1.1032,-8.7034,-0.036957,0.0097738,0.000305,-23.64,-4.56,23.34
4.4402,-1.1169,-8.7034,-0.037568,0.023213,0.0097738,-23.76,-4.62,23.34
4.4402,-1.1305,-8.6762,-0.039401,0.019853,0.013744,-23.88,-4.5,23.28
4.5083,-1.0624,-8.6081,-0.032987,0.013134,0.014966,-24.0,-4.5,23.22
4.4811,-1.0215,-8.7443,-0.040623,0.0061087,0.018021,-23.88,-4.56,23.1
4.5083,-1.0896,-8.7306,-0.037568,0.0045815,0.013744,-24.0,-4.68,23.1
4.522,-1.0624,-8.7715,-0.032681,0.0088575,0.0048869,-24.0,-4.68,23.1
4.5083,-1.1305,-8.7579,-0.040623,0.014355,0.002138,-24.06,-4.74,22.92
4.5083,-1.0624,-8.6898,-0.040623,0.015272,0.0042761,-24.12,-4.8,22.86
4.5764,-1.0215,-8.7034,-0.042761,0.010385,0.0073304,-24.12,-4.74,23.04
4.5764,-1.0624,-8.7306,-0.038179,0.0036652,0.010385,-24.24,-4.92,23.16
4.4402,-1.0896,-8.826,-0.04612,0.0094684,0.0079412,-24.24,-4.86,23.16
4.4402,-1.0896,-8.6081,-0.035736,0.010385,0.0045815,-24.36,-4.92,23.04
4.4266,-1.1032,-8.6625,-0.034208,0.010079,0.0042761,-24.3,-4.8,23.04
4.522,-1.076,-8.6489,-0.038485,0.012523,0.0030543,-24.48,-4.98,23.22
4.5901,-1.1169,-8.6762,-0.038179,0.019242,0.018021,-24.48,-5.1,23.34
4.5764,-1.0896,-8.6353,-0.051007,0.011606,0.0085521,-24.54,-5.22,23.22
4.5764,-1.076,-8.7306,-0.046426,-0.0015272,0.01741,-24.54,-5.16,23.22
4.6309,-1.0215,-8.6353,-0.044593,-0.018937,0.025351,-24.6,-5.16,23.22
4.6037,-1.0624,-8.7034,-0.037263,-0.038485,0.014966,-24.54,-5.1,23.22
4.4811,-1.1169,-8.7715,-0.031765,-0.036041,0.018021,-24.54,-5.22,23.34
4.4402,-1.1169,-8.7715,-0.035125,-0.025045,0.011301,-24.78,-5.22,23.22
4.413,-1.0624,-8.6898,-0.036346,-0.0085521,0.013744,-24.84,-5.28,23.16
4.4811,-1.1032,-8.6898,-0.048258,0.0030543,0.019853,-24.84,-5.46,23.16
4.5628,-1.0896,-8.7034,-0.039401,-0.0067195,0.0281,-24.9,-5.4,23.1
4.5764,-1.0896,-8.6625,-0.03543,-0.021075,0.028711,-24.84,-5.46,23.04
4.5492,-1.076,-8.7306,-0.040012,-0.030543,0.035736,-24.84,-5.34,23.16
4.4947,-1.076,-8.7306,-0.034514,-0.04215,0.021075,-24.78,-5.16,22.92
4.4539,-1.0624,-8.7034,-0.030543,-0.036041,0.023213,-24.78,-5.1,22.98
4.4402,-1.0624,-8.7034,-0.032987,-0.02474,0.021075,-24.78,-5.1,23.1
4.4811,-1.0488,-8.6625,-0.043677,-0.016188,0.024129,-24.72,-5.04,23.1
4.4811,-1.0896,-8.6898,-0.034819,-0.016188,0.0281,-24.78,-5.1,23.16
4.522,-1.1577,-8.6625,-0.036652,-0.02474,0.022297,-24.78,-4.98,23.22
4.3858,-1.076,-8.6762,-0.030849,-0.033598,0.016188,-24.6,-4.92,23.16
4.3721,-1.0624,-8.7443,-0.040623,-0.026573,0.012523,-24.6,-4.92,23.16
4.3585,-1.1577,-8.7987,-0.029322,-0.0088575,0.016493,-24.54,-4.86,23.1
4.3585,-1.0215,-8.7987,-0.03879,0.019548,0.016188,-24.54,-4.8,23.1
4.4675,-1.0624,-8.7579,-0.037874,0.022907,0.033598,-24.54,-4.8,23.04
4.5628,-1.1441,-8.6353,-0.04215,0.0015272,0.020769,-24.54,-4.92,22.86
4.5083,-1.1577,-8.717,-0.038179,-0.025656,0.011912,-24.54,-5.1,22.98
4.4402,-1.1305,-8.7443,-0.035125,-0.029627,0.019853,-24.54,-4.98,22.98
4.3585,-1.1305,-8.6762,-0.040623,-0.030849,0.011912,-24.6,-4.98,22.92
4.2768,-1.1577,-8.7306,-0.041539,-0.012217,0.015272,-24.54,-4.92,22.92
4.3585,-1.1032,-8.7306,-0.039095,-0.0045815,0.018326,-24.54,-4.92,22.98
4.413,-1.0896,-8.7443,-0.037568,-0.0033598,0.01741,-24.48,-4.98,22.92
4.4675,-1.1032,-8.6353,-0.035736,-0.014661,0.019548,-24.42,-4.92,22.98
4.3858,-1.0624,-8.717,-0.026267,-0.03207,0.020159,-24.42,-4.8,22.92
4.4402,-1.0896,-8.8124,-0.036346,-0.040012,0.042761,-24.54,-4.86,22.92
4.3721,-1.0488,-8.7579,-0.027794,-0.043066,0.039095,-24.42,-4.74,22.98
4.3858,-1.0488,-8.7579,-0.036041,-0.031154,0.039095,-24.42,-4.74,23.22
4.413,-1.0488,-8.7715,-0.040928,-0.020159,0.026573,-24.42,-4.74,23.34
4.4266,-1.0215,-8.7579,-0.029627,-0.021686,0.029016,-24.36,-4.8,23.28
4.4402,-1.1032,-8.7715,-0.034514,-0.0281,0.037263,-24.24,-4.8,23.16
4.413,-1.1577,-8.7715,-0.029932,-0.034514,0.029932,-24.12,-4.86,23.22
4.413,-1.1169,-8.8805,-0.03207,-0.042761,0.040928,-24.18,-5.04,23.16
4.3858,-1.1169,-8.826,-0.037263,-0.045509,0.044899,-24.12,-5.1,23.16
4.2904,-1.1169,-8.826,-0.039401,-0.04215,0.042761,-24.06,-5.16,23.22
4.2904,-1.0624,-8.8124,-0.047647,-0.040012,0.03879,-23.94,-5.16,23.28
4.2904,-1.1032,-8.7987,-0.035736,-0.033598,0.038179,-23.94,-5.22,23.34
4.3994,-1.076,-8.8668,-0.040012,-0.049175,0.043982,-23.88,-5.28,23.4
4.2904,-1.1032,-8.8532,-0.034819,-0.041233,0.044288,-23.82,-5.22,23.58
4.3313,-1.0896,-8.7987,-0.033292,-0.031765,0.036346,-23.76,-5.16,23.46
4.2223,-1.1169,-8.7987,-0.039706,-0.021991,0.035125,-23.76,-5.1,23.4
4.304,-1.0896,-8.7306,-0.048258,-0.0094684,0.034208,-23.58,-4.92,23.28
4.2904,-1.0624,-8.6081,-0.04612,-0.019548,0.033292,-23.7,-5.04,23.46
4.1542,-1.1169,-8.8532,-0.034208,-0.0281,0.024435,-23.7,-4.98,23.46
4.2223,-1.1577,-8.8805,-0.036346,-0.030543,0.007025,-23.52,-4.68,23.64
4.1814,-1.1577,-8.826,-0.041539,-0.002138,0.014661,-23.46,-4.44,23.64
4.127,-1.1441,-8.7579,-0.041539,0.015577,0.018937,-23.4,-4.5,23.58
4.2632,-1.1169,-8.7715,-0.037263,0.027794,0.018631,-23.46,-4.44,23.64
4.3449,-1.0896,-8.7987,-0.043677,0.030849,0.019242,-23.52,-4.38,23.64
4.4402,-1.0624,-8.7715,-0.036652,0.02138,0.018631,-23.58,-4.2,23.76
4.3858,-1.0896,-8.8396,-0.033903,0.007025,0.012523,-23.4,-4.26,23.64
4.3585,-1.1169,-8.8668,-0.040317,0.0030543,0.0082467,-23.4,-4.38,23.58
4.2904,-1.0488,-8.7715,-0.036652,0.0033598,0.013134,-23.52,-4.38,23.46
4.2495,-1.1032,-8.7987,-0.037263,0.0094684,0.022297,-23.46,-4.26,23.46
4.3313,-1.1305,-8.7579,-0.032681,0.026878,0.019853,-23.4,-4.26,23.28
4.2904,-1.0624,-8.7987,-0.039706,0.031765,0.018021,-23.52,-4.32,23.16
4.3177,-1.0624,-8.6353,-0.036652,0.039706,0.012523,-23.7,-4.5,22.92
4.3177,-1.0488,-8.717,-0.04215,0.03879,0.012828,-23.64,-4.62,22.92
4.3313,-1.0624,-8.7306,-0.040317,0.041233,0.0048869,-23.76,-4.56,22.92
4.3585,-1.1577,-8.6898,-0.039401,0.029932,0.021991,-23.7,-4.62,22.92
4.3858,-1.1305,-8.8668,-0.0281,0.0045815,0.010079,-23.7,-4.8,22.98
4.3858,-1.2258,-8.7715,-0.037263,0.018937,0.018631,-23.64,-4.98,22.86
4.304,-1.1169,-8.7987,-0.047037,0.021686,0.0015272,-23.76,-5.1,22.86
4.304,-1.1577,-8.8396,-0.052229,0.033292,0.012523,-23.88,-5.04,22.92
4.413,-1.1032,-8.717,-0.045509,0.013134,0.011606,-23.64,-5.16,23.04
4.3721,-1.0624,-8.717,-0.039401,-0.0039706,0.0082467,-23.64,-5.22,23.04
4.2495,-1.1032,-8.7851,-0.036652,-0.0051924,0.0018326,-23.76,-5.22,23.4
4.304,-1.0896,-8.826,-0.036346,0.0094684,0.01069,-23.7,-5.22,23.58
4.3177,-0.96704,-8.7987,-0.043982,0.015272,0.013439,-23.76,-5.22,23.58
4.3585,-1.0896,-8.7034,-0.043982,0.026878,0.023824,-23.88,-5.34,23.58
4.4539,-1.0624,-8.7443,-0.044593,0.020769,0.019853,-23.88,-5.34,23.58
4.4675,-1.076,-8.717,-0.037874,0.012217,0.01405,-24.0,-5.46,23.4
4.4402,-1.0488,-8.8124,-0.040623,0.0088575,0.0082467,-24.0,-5.28,23.34
4.3449,-1.0624,-8.7851,-0.043066,0.016188,0.0054978,-24.0,-5.16,23.28
4.3313,-1.0488,-8.7987,-0.034819,0.026878,0.010385,-23.94,-5.16,23.34
4.4811,-1.0351,-8.7443,-0.039706,0.027184,0.010079,-24.0,-5.1,23.34
4.3994,-1.076,-8.7715,-0.037874,0.019242,0.01405,-24.18,-4.92,23.4
4.3994,-1.1441,-8.6217,-0.033903,0.016799,0.013744,-24.24,-5.04,23.52
4.4266,-1.0896,-8.7306,-0.033598,0.0085521,0.010385,-24.24,-5.22,23.58
4.3721,-1.1305,-8.6762,-0.03543,-0.000305,0.011912,-24.3,-5.28,23.52
4.3585,-1.0488,-8.717,-0.037263,0.0042761,0.019242,-24.24,-5.16,23.64
4.3994,-1.0896,-8.7715,-0.03146,0.0088575,0.025045,-24.24,-4.98,23.64
4.3858,-1.076,-8.7851,-0.034514,0.000611,0.016493,-24.3,-4.86,23.76
4.3858,-1.0896,-8.6353,-0.045204,0.020159,0.03207,-24.24,-4.8,23.76
4.4402,-1.1441,-8.6762,-0.044593,0.011606,0.016493,-24.24,-4.86,23.76
4.4675,-1.1305,-8.7306,-0.03543,0.0054978,0.012523,-24.3,-4.8,23.94
4.4266,-1.0896,-8.8805,-0.039095,-0.0045815,0.011301,-24.24,-4.86,23.94
4.3177,-1.0624,-8.826,-0.036652,-0.0051924,0.0076358,-24.18,-4.8,24.06
4.3585,-1.076,-8.8668,-0.034819,-0.0054978,0.010996,-24.06,-4.86,24.0
4.3858,-1.0624,-8.8532,-0.039706,0.0045815,0.018937,-23.88,-4.8,23.88
4.413,-1.1169,-8.7443,-0.036957,0.011912,0.016799,-23.88,-4.8,23.7
4.3858,-1.0624,-8.7715,-0.032987,0.012523,0.018021,-23.94,-4.68,23.94
4.5083,-1.1169,-8.6762,-0.032681,0.0061087,0.017715,-23.94,-4.62,23.88
4.4811,-1.0896,-8.7306,-0.032987,0.0054978,0.013439,-23.76,-4.62,23.82
4.3858,-1.0488,-8.6762,-0.031154,0.0064141,0.012217,-23.76,-4.68,23.7
4.4811,-1.1441,-8.7715,-0.037568,0.0064141,0.01741,-23.82,-4.62,23.7
4.4539,-1.1169,-8.7987,-0.035736,0.0094684,0.013439,-23.76,-4.68,23.7
4.3177,-1.1305,-8.7579,-0.037568,0.01405,0.0033598,-23.82,-4.68,23.64
4.3177,-1.0624,-8.7306,-0.033292,0.025045,0.007025,-23.88,-4.86,23.46
4.413,-1.0624,-8.7034,-0.041233,0.03146,0.0051924,-23.94,-4.98,23.28
4.3994,-1.0896,-8.7306,-0.040928,0.027184,0.0058032,-23.94,-5.04,23.22
4.4811,-1.1169,-8.6898,-0.041844,0.020159,0.013134,-24.3,-5.1,23.4
4.4947,-1.0351,-8.7715,-0.03146,-0.0015272,0.0048869,-24.3,-5.1,23.46
4.4266,-1.0624,-8.7579,-0.02474,0.002138,0.011912,-24.3,-5.04,23.4
4.3858,-1.1032,-8.7306,-0.031765,0.0097738,0.013134,-24.36,-5.04,23.04
4.4539,-1.0351,-8.7306,-0.035736,0.016799,0.015577,-24.3,-5.04,23.22
4.4402,-1.1305,-8.717,-0.030543,0.012523,0.016188,-24.48,-5.04,23.22
4.4402,-1.1441,-8.7443,-0.043982,0.021075,0.01405,-24.42,-4.98,23.34
4.4811,-1.0488,-8.7306,-0.047037,0.026878,0.013439,-24.42,-4.92,23.28
4.4402,-1.0488,-8.6762,-0.041539,0.014661,0.010385,-24.42,-4.98,23.34
4.4811,-0.9398,-8.6353,-0.045204,-0.0082467,0.011606,-24.18,-4.92,23.34
4.4947,-1.1032,-8.7034,-0.034819,-0.02138,0.014966,-24.24,-4.74,23.52
4.4947,-1.076,-8.7034,-0.031765,-0.018021,0.013744,-24.18,-4.74,23.58
4.413,-1.0624,-8.7034,-0.036957,-0.009163,0.018631,-24.24,-4.5,23.52
4.4811,-1.0624,-8.7034,-0.03146,-0.0088575,0.016493,-24.06,-4.38,23.34
4.4947,-1.0488,-8.7034,-0.04215,-0.019242,0.029322,-24.12,-4.5,23.4
4.4675,-1.0896,-8.7443,-0.033598,-0.030238,0.036652,-24.0,-4.44,23.4
4.522,-1.076,-8.7851,-0.036346,-0.040012,0.033598,-23.94,-4.5,23.46
4.4539,-1.0624,-8.7034,-0.035125,-0.039401,0.026267,-23.88,-4.5,23.34
4.4402,-1.0896,-8.7306,-0.039095,-0.036346,0.028405,-23.82,-4.62,23.34
4.3858,-0.98067,-8.717,-0.036652,-0.025656,0.016188,-23.82,-4.8,23.34
4.3858,-1.1305,-8.7987,-0.038179,-0.009163,0.017715,-23.76,-4.8,23.34
4.413,-1.0896,-8.7579,-0.032987,-0.0042761,0.022297,-24.06,-4.74,23.34
4.3858,-1.0896,-8.7715,-0.037874,-0.009163,0.015272,-24.06,-4.62,23.34
4.413,-1.0624,-8.7715,-0.040928,-0.010079,0.014966,-24.06,-4.62,23.28
4.3585,-0.99429,-8.7579,-0.037568,-0.0015272,0.013439,-24.0,-4.8,23.34
4.3449,-1.1169,-8.7715,-0.036346,0.007025,0.012828,-23.88,-4.8,23.46
4.3449,-1.1441,-8.7987,-0.038179,0.011606,0.011912,-23.82,-4.74,23.52
4.4675,-1.1169,-8.8124,-0.034514,0.015882,0.023213,-24.06,-4.62,23.52
4.413,-1.0896,-8.7579,-0.041539,0.0045815,0.012828,-24.12,-4.68,23.52
4.3858,-1.0215,-8.6898,-0.045204,-0.0030543,0.023824,-24.06,-4.74,23.64
4.4675,-1.0215,-8.6353,-0.045815,-0.015577,0.018326,-24.06,-4.68,23.76
4.4539,-1.0351,-8.7715,-0.050091,-0.016799,0.019548,-23.88,-4.74,23.64
4.413,-1.0896,-8.7306,-0.040317,-0.0073304,0.018937,-23.88,-4.74,23.82
4.3721,-1.0488,-8.7715,-0.041539,0.0042761,0.016799,-23.88,-4.86,23.7
4.3858,-1.0351,-8.7715,-0.037568,0.018937,0.0079412,-23.88,-5.04,23.64
4.4402,-1.0215,-8.6762,-0.044288,0.018631,0.015272,-23.88,-5.1,23.82
4.4811,-1.0488,-8.6489,-0.03543,0.012523,0.021991,-24.0,-5.04,23.7
4.4811,-1.0215,-8.7715,-0.030543,0.0018326,0.023518,-23.94,-5.04,23.64
4.4402,-1.0896,-8.826,-0.037874,-0.017104,0.024435,-24.06,-5.22,23.46
4.413,-1.0624,-8.826,-0.03207,-0.0088575,0.018937,-24.06,-5.22,23.34
4.3585,-1.076,-8.8124,-0.037568,-0.0027489,0.01741,-24.06,-5.28,23.46
4.3858,-1.0624,-8.6898,-0.03543,-0.0015272,0.019853,-24.0,-5.16,23.34
4.4811,-1.1305,-8.7306,-0.038485,-0.002138,0.020464,-24.3,-5.16,23.22
4.4811,-1.1032,-8.7579,-0.036652,-0.012523,0.020464,-24.48,-5.22,23.1
4.4539,-1.0896,-8.5808,-0.030849,-0.03207,0.02474,-24.6,-5.16,23.16
4.3858,-1.0896,-8.7306,-0.032681,-0.033903,0.03207,-24.66,-5.1,23.16
4.3585,-1.0215,-8.826,-0.035125,-0.030238,0.029932,-24.54,-5.1,23.16
4.3585,-1.0215,-8.717,-0.028711,-0.016799,0.026878,-24.48,-5.04,23.28
4.4266,-1.0896,-8.8124,-0.037874,-0.0042761,0.041233,-24.18,-5.1,23.22
4.4811,-1.076,-8.7987,-0.03543,-0.011301,0.031154,-24.3,-5.16,23.28
4.5492,-1.0896,-8.7443,-0.030849,-0.025962,0.043982,-24.3,-5.22,23.28
4.3721,-1.1169,-8.717,-0.033903,-0.039706,0.030238,-24.3,-5.16,23.34
4.3449,-1.0624,-8.8396,-0.032376,-0.036346,0.025045,-24.3,-5.1,23.28
4.2768,-1.0624,-8.8668,-0.031765,-0.0281,0.036957,-24.36,-5.1,23.58
4.2768,-1.0624,-8.7715,-0.031765,-0.022907,0.024435,-24.24,-5.04,23.7
4.3313,-1.1032,-8.7851,-0.034514,-0.014355,0.014661,-24.06,-5.1,23.76
4.413,-1.076,-8.8668,-0.040623,-0.0058032,0.011606,-24.0,-5.16,23.82
4.2904,-1.0351,-8.7987,-0.034208,-0.0033598,0.0079412,-24.0,-5.1,23.76
4.3177,-1.0896,-8.7306,-0.028405,0.0018326,0.0064141,-24.0,-4.98,23.52
4.3177,-1.0896,-8.7306,-0.028405,0.0018326,0.0064141,-24.0,-4.98,23.52
4.2495,-1.076,-8.9486,-0.038179,-0.0036652,0.012828,-24.06,-4.86,23.58
4.2495,-1.1169,-8.8532,-0.036652,0.0067195,0.0094684,-24.06,-4.8,23.52
4.2359,-1.1305,-8.8396,-0.037568,0.020159,0.0051924,-24.12,-4.74,23.58
4.3449,-1.1577,-8.7987,-0.045509,0.032681,0.000611,-24.0,-4.74,23.76
4.3721,-1.0896,-8.7443,-0.041844,0.033598,0.0045815,-24.0,-4.86,23.76
4.3721,-1.0215,-8.7306,-0.040928,0.03207,0.002138,-23.94,-4.86,23.7
4.413,-1.0215,-8.7443,-0.041844,0.022602,0.0018326,-24.0,-4.86,23.64
4.3858,-1.0488,-8.7306,-0.043982,0.0088575,0.0079412,-24.0,-4.74,23.58
4.3858,-1.1169,-8.7443,-0.033903,-0.0015272,0.0061087,-24.06,-4.62,23.52
4.3585,-1.0488,-8.7851,-0.034819,0.011301,0.009163,-24.06,-4.74,23.76
4.304,-1.0896,-8.7987,-0.043066,0.019853,0.009163,-24.06,-4.8,23.7
4.3858,-1.1169,-8.717,-0.039095,0.029627,0.020159,-24.24,-4.98,23.76
4.4947,-1.0351,-8.7851,-0.028711,0.018937,0.0088575,-24.12,-4.98,23.76
4.4675,-1.0624,-8.7034,-0.029016,0.019548,0.019548,-24.24,-4.98,23.82
4.4402,-1.0215,-8.5944,-0.041844,0.024129,0.0076358,-24.0,-5.04,23.94
4.4402,-1.0896,-8.6625,-0.047037,0.025045,0.012217,-24.06,-5.04,23.94
4.4811,-1.1032,-8.6762,-0.043371,0.016799,0.012828,-24.0,-5.04,23.82
4.5083,-1.0624,-8.7306,-0.032376,-0.009163,0.02138,-23.94,-5.04,23.76
4.4402,-1.0624,-8.7034,-0.03146,-0.036346,0.019242,-23.82,-5.1,23.82
4.2904,-1.0624,-8.826,-0.028711,-0.040623,0.015882,-23.94,-5.04,23.64
4.2359,-1.0624,-8.8124,-0.029627,-0.01741,0.026267,-23.94,-5.16,23.46
4.3177,-1.1032,-8.7715,-0.039706,0.0097738,0.034208,-23.82,-5.16,23.46
4.3994,-1.0351,-8.7715,-0.045509,0.011912,0.023824,-23.76,-5.16,23.58
4.4402,-1.1032,-8.7306,-0.039095,0.0064141,0.027794,-23.7,-4.8,23.52
4.4266,-1.076,-8.6762,-0.034514,-0.009163,0.019853,-23.76,-4.62,23.4
4.4811,-1.0215,-8.7443,-0.036346,-0.013134,0.023824,-23.76,-4.74,23.28
4.3858,-1.0488,-8.7715,-0.036346,-0.015272,0.014355,-23.82,-4.62,23.28
4.3858,-1.0351,-8.8124,-0.036346,-0.019853,0.020464,-23.82,-4.68,23.22
4.3994,-1.0624,-8.717,-0.034208,-0.011301,0.027184,-23.94,-4.56,23.22
4.4266,-1.076,-8.7851,-0.039095,-0.007025,0.027794,-23.94,-4.56,23.16
4.413,-1.1032,-8.7579,-0.039706,-0.0036652,0.021075,-24.0,-4.56,23.16
4.3449,-1.076,-8.7579,-0.042455,0.0079412,0.019548,-24.0,-4.56,23.28
4.3449,-1.0624,-8.6762,-0.043066,0.015272,0.017715,-23.82,-4.56,23.46
4.4811,-1.0624,-8.717,-0.043066,0.011301,0.02474,-23.82,-4.56,23.34
4.4947,-1.1441,-8.8532,-0.036346,-0.0094684,0.034514,-24.0,-4.44,23.22
4.3994,-1.0488,-8.8668,-0.028711,-0.023213,0.027184,-24.06,-4.62,23.4
4.3449,-1.0624,-8.8124,-0.039706,-0.0085521,0.027489,-24.12,-4.74,23.52
4.2632,-1.0896,-8.7306,-0.044899,0.014355,0.019853,-24.0,-4.62,23.34
4.3858,-1.1441,-8.7987,-0.049786,0.02138,0.025045,-24.06,-4.62,23.46
4.3994,-1.076,-8.7987,-0.050396,0.018631,0.020769,-24.0,-4.56,23.34
4.4675,-1.076,-8.7987,-0.036652,-0.002138,0.0036652,-23.94,-4.68,23.34
4.413,-1.076,-8.826,-0.035736,0.0030543,0.01069,-23.94,-4.74,23.28
4.3858,-1.1713,-8.7306,-0.029627,0.016493,0.010079,-23.76,-4.56,23.28
4.3177,-1.0896,-8.7715,-0.042455,0.025962,0.016188,-23.64,-4.62,22.98
4.4266,-1.1169,-8.7715,-0.045815,0.024129,0.020464,-23.82,-4.62,22.86
4.4402,-1.0488,-8.7987,-0.030543,0.019853,0.018937,-23.82,-4.56,22.92
4.4811,-1.0215,-8.826,-0.033292,0.0088575,0.01405,-23.82,-4.68,22.98
4.3858,-1.0488,-8.7715,-0.041844,0.0082467,0.013439,-23.82,-4.56,22.92
4.3585,-1.0351,-8.7443,-0.030543,0.018631,0.007025,-24.06,-4.56,23.1
4.3858,-1.0624,-8.7579,-0.038485,0.029016,0.009163,-24.0,-4.56,23.22
4.4811,-1.1032,-8.6625,-0.035736,0.022297,0.018021,-24.0,-4.68,23.16
4.4675,-1.0351,-8.7715,-0.039095,0.0088575,0.015577,-24.18,-4.62,23.22
4.4675,-1.0624,-8.7034,-0.036957,0.0018326,0.024435,-24.3,-4.56,23.28
4.4402,-1.0351,-8.7579,-0.03879,0.0027489,0.02138,-24.24,-4.62,23.28
4.3858,-1.0896,-8.7306,-0.040317,0.0073304,0.022602,-24.36,-4.8,23.22
4.413,-1.0215,-8.6081,-0.029932,0.0085521,0.018326,-24.54,-4.74,23.28
4.4675,-1.0624,-8.7034,-0.031154,0.0042761,0.021686,-24.48,-4.62,23.46
4.4811,-0.99429,-8.7987,-0.026267,-0.0067195,0.019242,-24.54,-4.68,23.46
4.4675,-1.076,-8.826,-0.028405,0.0036652,0.02474,-24.54,-4.68,23.58
4.3449,-1.1305,-8.7443,-0.044288,0.0076358,0.01405,-24.48,-4.74,23.52
4.3449,-1.1169,-8.7715,-0.04612,0.023213,0.0088575,-24.42,-4.74,23.52
4.4675,-1.076,-8.7034,-0.039706,0.030238,0.013134,-24.42,-4.8,23.28
4.4402,-1.0488,-8.6762,-0.039706,0.010079,0.0036652,-24.36,-4.74,23.28
4.4539,-1.0215,-8.7306,-0.035125,-0.0042761,0.011301,-24.3,-4.8,23.22
4.4402,-1.0896,-8.7579,-0.034819,-0.014966,0.010996,-24.3,-4.8,23.22
4.3994,-1.0215,-8.7715,-0.035125,-0.0045815,0.013134,-24.36,-4.68,23.28
4.4402,-1.0079,-8.7715,-0.034819,0.014355,0.015272,-24.3,-4.74,23.34
4.4402,-1.1441,-8.6762,-0.041844,0.028711,0.016493,-24.48,-4.62,23.28
4.5083,-1.1032,-8.7715,-0.03543,0.018937,0.0097738,-24.54,-4.8,23.28
4.5356,-1.0624,-8.717,-0.042761,0.0082467,0.0067195,-24.48,-4.86,23.28
4.4402,-1.0624,-8.717,-0.025962,-0.0048869,0.0033598,-24.54,-4.92,23.1
4.4539,-0.99429,-8.717,-0.030849,-0.0048869,0.0088575,-24.54,-4.86,23.04
4.3449,-1.0624,-8.7579,-0.036041,0.000305,0.0088575,-24.6,-4.92,22.98
4.5083,-1.0624,-8.6625,-0.029322,0.011912,0.02474,-24.78,-4.86,22.98
4.4947,-1.0624,-8.6625,-0.033598,0.01405,0.012217,-24.84,-4.8,22.86
4.4539,-1.0624,-8.6898,-0.043982,0.020464,0.013744,-24.9,-4.86,22.86
4.4811,-1.0624,-8.8668,-0.043066,0.026267,0.0033598,-24.96,-4.8,22.92
4.5083,-0.92618,-8.7306,-0.042761,0.020769,-0.000916,-24.96,-4.8,22.86
4.522,-0.99429,-8.7443,-0.033903,0.021991,0.002138,-24.96,-4.68,22.8
4.4402,-1.0624,-8.717,-0.030238,0.035125,-0.015272,-24.66,-4.62,22.92
4.4402,-1.1169,-8.7306,-0.034208,0.039401,-0.01741,-24.72,-4.68,22.86
4.3858,-1.1032,-8.7715,-0.036652,0.039095,-0.0082467,-24.78,-4.68,22.92
4.4675,-1.076,-8.6898,-0.044288,0.053451,-0.0076358,-24.72,-4.68,22.98
4.5628,-1.1032,-8.6898,-0.043677,0.041233,-0.0015272,-24.72,-4.68,23.16
4.6309,-1.0896,-8.6081,-0.04612,0.015882,0.0079412,-24.72,-4.68,23.22
4.6037,-1.0488,-8.5808,-0.04215,-0.037263,0.018631,-24.54,-4.74,23.22
4.5356,-1.076,-8.717,-0.034208,-0.094379,0.030849,-24.54,-4.68,23.28
4.5083,-1.0351,-8.6762,-0.032376,-0.092852,0.030849,-24.36,-4.8,23.4
4.3858,-1.0624,-8.6898,-0.034514,-0.069028,0.036346,-24.36,-4.92,23.34
4.3858,-1.1169,-8.6353,-0.036652,-0.041233,0.041844,-24.3,-4.92,23.4
4.413,-1.1169,-8.6489,-0.043677,-0.025045,0.056505,-24.3,-5.1,23.46
4.5492,-0.99429,-8.7306,-0.03879,-0.024435,0.053756,-24.48,-5.28,23.34
4.5901,-0.95342,-8.7579,-0.035736,-0.041539,0.048869,-24.42,-5.28,23.22
4.5764,-0.92618,-8.717,-0.034514,-0.039401,0.048258,-24.48,-5.28,23.34
4.5083,-0.89894,-8.7306,-0.039401,-0.054062,0.051924,-24.42,-5.22,23.22
4.4266,-0.9398,-8.717,-0.027184,-0.059254,0.050091,-24.36,-5.16,23.16
4.4539,-1.0215,-8.6898,-0.0281,-0.071471,0.057116,-24.3,-5.22,23.16
4.4539,-1.0896,-8.826,-0.026573,-0.081856,0.054978,-24.24,-5.28,23.22
4.4402,-1.185,-8.7715,-0.022907,-0.09499,0.051924,-24.18,-5.4,23.28
4.3177,-1.2258,-8.8668,-0.020464,-0.098349,0.040928,-24.12,-5.34,23.16
4.2223,-1.1986,-8.8668,-0.025656,-0.08094,0.041539,-24.18,-5.16,23.16
4.1542,-1.1577,-8.826,-0.032987,-0.051618,0.04215,-24.24,-5.22,23.16
4.1542,-1.1169,-8.8396,-0.039401,-0.027489,0.045815,-24.18,-5.04,23.22
4.3449,-1.0896,-8.7715,-0.035736,-0.013134,0.045815,-24.3,-4.86,23.52
4.3177,-1.1577,-8.7579,-0.043066,-0.02138,0.030543,-24.24,-4.8,23.52
4.2223,-1.185,-8.7715,-0.043066,-0.025962,0.035125,-24.24,-4.74,23.58
4.3313,-1.0488,-8.7034,-0.043677,-0.041233,0.03543,-24.24,-4.8,23.64
4.2904,-1.1032,-8.8396,-0.040623,-0.051007,0.036041,-24.24,-4.86,23.76
4.2768,-1.076,-8.826,-0.03543,-0.043677,0.033292,-24.3,-4.92,23.82
4.1814,-1.0488,-8.7851,-0.039401,-0.025045,0.014661,-24.36,-4.86,23.76
4.1814,-1.076,-8.7034,-0.036346,0.002138,0.014661,-24.42,-4.86,23.82
4.2495,-1.0624,-8.8124,-0.037568,0.018937,0.01741,-24.42,-4.86,23.82
4.3585,-1.0351,-8.8532,-0.032376,0.031765,0.013744,-24.42,-4.86,23.82
4.3858,-1.0896,-8.7987,-0.032376,0.017715,0.020464,-24.36,-4.8,23.94
4.413,-1.1032,-8.826,-0.028405,0.0045815,0.018631,-24.36,-4.86,23.82
4.3721,-1.1169,-8.8668,-0.034514,-0.0097738,0.020769,-24.06,-4.86,23.82
4.2904,-1.1441,-8.826,-0.038179,-0.012828,0.019853,-24.18,-4.8,23.76
4.2223,-1.076,-8.826,-0.033292,-0.0085521,0.016493,-24.06,-4.86,23.7
4.1951,-1.0896,-8.7306,-0.039401,-0.0085521,0.020159,-24.0,-4.86,23.7
4.3449,-1.1169,-8.7851,-0.028711,0.0036652,0.020769,-23.94,-4.8,23.58
4.3177,-1.0896,-8.7851,-0.038485,-0.0024435,0.025045,-24.12,-4.8,23.64
4.2768,-1.1577,-8.7987,-0.038485,-0.015882,0.025656,-24.12,-4.8,23.58
4.3177,-1.1305,-8.826,-0.036652,-0.017104,0.017104,-24.12,-4.68,23.4
4.3177,-1.1441,-8.8396,-0.031765,-0.0088575,0.018021,-24.06,-4.74,23.28
4.2495,-1.1305,-8.8668,-0.03207,-0.007025,0.020159,-24.12,-4.68,23.4
4.2495,-1.076,-8.8532,-0.033903,-0.0033598,0.01405,-24.12,-4.74,23.4
4.2768,-1.1713,-8.8532,-0.030543,-0.010385,0.019853,-24.18,-4.8,23.4
4.2495,-1.2258,-8.826,-0.040928,-0.0082467,0.014355,-24.18,-4.8,23.34
4.2495,-1.0488,-8.7306,-0.038179,-0.0067195,0.025045,-23.94,-4.8,23.46
4.3721,-1.1032,-8.8124,-0.035736,-0.014355,0.032376,-24.06,-4.74,23.52
4.3449,-1.0624,-8.8532,-0.034514,-0.018021,0.0281,-24.0,-4.62,23.58
4.2632,-1.0896,-8.7306,-0.038179,-0.013134,0.023213,-24.12,-4.62,23.64
4.2904,-1.076,-8.826,-0.039401,-0.013744,0.019853,-24.0,-4.62,23.58
4.2495,-1.1441,-8.826,-0.032987,-0.016188,0.015577,-23.82,-4.62,23.46
4.2359,-1.0624,-8.7306,-0.034514,-0.014966,0.024129,-23.82,-4.68,23.58
4.2904,-1.1577,-8.826,-0.032376,-0.0097738,0.025962,-23.76,-4.56,23.82
4.3721,-1.2258,-8.8941,-0.037568,-0.01741,0.027794,-23.7,-4.44,23.7
4.304,-1.185,-8.8668,-0.040317,-0.010996,0.035125,-23.7,-4.5,23.76
4.3449,-1.1169,-8.7715,-0.050396,-0.009163,0.029016,-23.7,-4.56,23.64
4.2495,-1.0624,-8.7443,-0.039401,-0.012828,0.03207,-23.82,-4.38,23.64
4.2632,-1.076,-8.8124,-0.032681,-0.010079,0.029016,-23.94,-4.5,23.58
4.3177,-1.1577,-8.826,-0.034514,-0.029627,0.031765,-24.0,-4.38,23.58
4.2904,-1.1305,-8.7987,-0.027184,-0.029016,0.027489,-24.0,-4.44,23.4
4.2632,-1.0624,-8.9213,-0.029016,-0.038485,0.034208,-24.0,-4.44,23.28
4.1542,-1.1577,-8.826,-0.027489,-0.032376,0.030238,-24.06,-4.56,23.58
4.0861,-1.185,-8.8124,-0.032681,-0.016799,0.031154,-24.12,-4.44,23.76
4.1406,-1.1713,-8.8941,-0.03543,-0.013744,0.022297,-24.0,-4.44,23.76
4.1542,-1.0896,-8.8668,-0.036346,-0.010079,0.025962,-24.06,-4.5,23.76
4.2359,-1.185,-8.9077,-0.033903,-0.02138,0.032681,-24.06,-4.62,23.88
4.2087,-1.1713,-8.9077,-0.038485,-0.016188,0.027489,-24.12,-4.5,23.76
4.1406,-1.0896,-8.8396,-0.043982,-0.0051924,0.022907,-24.06,-4.44,24.0
4.1542,-1.1169,-8.8532,-0.045509,0.0058032,0.016493,-24.0,-4.5,24.0
4.2495,-1.0624,-8.7715,-0.040928,0.0054978,0.020769,-24.0,-4.44,24.0
4.2495,-1.1032,-8.8668,-0.045204,-0.021686,0.018326,-23.58,-4.56,24.24
4.2632,-1.0624,-8.8124,-0.032376,-0.043066,0.023824,-23.58,-4.56,24.24
4.1814,-1.0896,-8.7851,-0.036041,-0.036652,0.019548,-23.64,-4.62,24.3
4.0725,-1.076,-8.9077,-0.034514,-0.011301,0.01405,-23.46,-4.44,24.3
4.0861,-1.1441,-8.826,-0.042761,0.0076358,0.025045,-23.4,-4.44,24.3
4.1814,-1.076,-8.7715,-0.03879,0.019242,0.021686,-23.34,-4.38,24.3
4.2223,-1.1169,-8.826,-0.050396,0.012828,0.023824,-23.28,-4.56,24.42
4.3449,-1.0896,-8.7987,-0.040012,-0.0036652,0.030238,-23.16,-4.62,24.3
4.3449,-1.1441,-8.826,-0.038485,-0.0079412,0.028405,-23.16,-4.68,24.36
4.1542,-1.1577,-8.826,-0.029627,-0.010385,0.02138,-23.16,-4.74,24.36
4.1678,-1.1305,-8.8124,-0.033598,-0.0054978,0.026878,-23.16,-4.74,24.36
4.0861,-1.0896,-8.9486,-0.032376,-0.009163,0.029627,-23.22,-4.74,24.42
4.1542,-1.1577,-8.9349,-0.040012,0.0073304,0.023518,-23.34,-4.68,24.18
4.1814,-1.185,-8.8805,-0.042761,0.002138,0.022297,-23.28,-4.62,24.18
4.1542,-1.1441,-8.8668,-0.044899,0.0067195,0.015577,-23.34,-4.68,24.12
4.1678,-1.2122,-8.8396,-0.038485,0.013439,0.016799,-23.46,-4.62,24.0
4.1951,-1.0351,-8.8532,-0.033598,0.0067195,0.009163,-23.46,-4.62,23.88
4.1951,-1.1305,-8.9486,-0.034208,0.010385,0.025962,-23.52,-4.62,23.88
4.2223,-1.1986,-8.9622,-0.036041,0.0024435,0.016799,-23.52,-4.62,23.88
4.2495,-1.2258,-8.8941,-0.038485,0.02138,0.02474,-23.76,-4.44,23.82
4.1542,-1.185,-8.7851,-0.050091,0.025045,0.014661,-23.58,-4.38,23.82
4.1542,-1.1577,-8.7987,-0.037263,0.018326,0.011606,-23.64,-4.26,23.7
4.1814,-1.076,-8.8124,-0.041539,0.0036652,0.0042761,-23.64,-4.38,23.58
4.1814,-1.1169,-8.7715,-0.037874,0.0027489,0.014661,-23.52,-4.44,23.46
4.1678,-1.1169,-8.7715,-0.038179,0.0094684,0.012828,-23.46,-4.5,23.58
4.2223,-1.1577,-8.8124,-0.038485,0.031765,0.0082467,-23.52,-4.62,23.52
4.3177,-1.076,-8.8668,-0.040928,0.027489,0.010385,-23.4,-4.56,23.64
4.2904,-1.1169,-8.7987,-0.042761,0.022297,0.020769,-23.34,-4.56,23.58
4.1951,-1.1169,-8.8668,-0.044288,0.0036652,0.012828,-23.4,-4.8,23.58
4.1406,-1.0624,-8.8805,-0.036346,-0.000916,0.013134,-23.28,-4.8,23.46
4.1814,-1.1032,-8.8941,-0.040623,0.0064141,0.016799,-23.22,-4.74,23.58
4.2087,-1.0896,-8.7579,-0.037263,0.017104,0.011606,-23.22,-4.68,23.58
4.1814,-1.0624,-8.826,-0.034819,0.02474,0.015577,-23.28,-4.68,23.52
4.2359,-1.0215,-8.7715,-0.034208,0.029627,0.010385,-23.28,-4.68,23.64
4.3313,-1.1441,-8.7579,-0.033598,0.022907,0.0079412,-23.34,-4.62,23.64
4.2495,-1.185,-8.7987,-0.02474,0.011301,0.0085521,-23.46,-4.5,23.64
4.2223,-1.185,-8.7851,-0.026267,-0.000916,0.011606,-23.46,-4.44,23.52
4.1814,-1.1169,-8.8532,-0.031154,-0.0045815,0.0088575,-23.46,-4.38,23.7
4.2495,-1.1169,-8.7987,-0.03879,-0.0015272,0.0027489,-23.52,-4.32,23.52
4.1951,-1.0896,-8.8124,-0.034819,0.000916,0.0048869,-23.58,-4.38,23.64
4.1814,-1.0624,-8.826,-0.043371,0.018937,0.01069,-23.52,-4.26,23.64
4.2087,-1.0624,-8.8532,-0.028405,0.030849,0.007025,-23.7,-4.38,23.82
4.3585,-1.076,-8.826,-0.03543,0.025045,0.011912,-23.64,-4.32,23.7
4.2495,-1.1169,-8.7715,-0.031154,0.022297,0.0024435,-23.52,-4.5,23.64
4.2223,-1.1577,-8.826,-0.03879,0.022907,0.0024435,-23.64,-4.56,23.58
4.304,-1.1169,-8.7987,-0.043371,0.019853,0.0082467,-23.64,-4.56,23.64
4.2768,-1.1169,-8.826,-0.03207,-0.000916,0.0051924,-23.58,-4.5,23.64
4.2495,-1.0896,-8.8532,-0.030238,0.0042761,0.0088575,-23.52,-4.56,23.76
4.2632,-1.1169,-8.7715,-0.03879,0.0097738,0.014661,-23.58,-4.44,23.82
4.2904,-1.1441,-8.8805,-0.029322,0.011912,0.0079412,-23.64,-4.62,23.58
4.2904,-1.1305,-8.7443,-0.038179,0.017104,0.016188,-23.52,-4.62,23.7
4.2359,-1.1577,-8.7987,-0.033292,0.012523,0.013744,-23.52,-4.5,23.7
4.1951,-1.1169,-8.8668,-0.037568,0.0088575,0.015882,-23.58,-4.5,23.7
4.3177,-1.1441,-8.7851,-0.03146,0.0051924,0.009163,-23.58,-4.44,23.58
4.2495,-1.1032,-8.7987,-0.038179,0.002138,0.01069,-23.58,-4.56,23.52
4.2632,-1.076,-8.8124,-0.035125,0.007025,0.013744,-23.7,-4.5,23.46
4.2632,-1.1441,-8.826,-0.033598,0.01069,0.013134,-23.64,-4.5,23.64
4.2632,-1.1169,-8.7851,-0.041233,0.014661,0.016799,-23.64,-4.44,23.4
4.3585,-1.0488,-8.8668,-0.03207,0.015577,0.0088575,-23.7,-4.56,23.52
4.3313,-1.0624,-8.7306,-0.038179,0.010996,0.0094684,-23.82,-4.62,23.4
4.3449,-1.1169,-8.8396,-0.035125,0.002138,0.0012217,-23.76,-4.62,23.46
4.2904,-1.1305,-8.7715,-0.036652,0.000916,0.0079412,-23.82,-4.5,23.52
4.2904,-1.1577,-8.8124,-0.034819,-0.000305,0.012523,-23.82,-4.44,23.52
4.2904,-1.1441,-8.826,-0.038179,0.000916,0.0015272,-23.94,-4.62,23.7
4.413,-1.1713,-8.7987,-0.032376,-0.0045815,0.014355,-24.0,-4.68,23.58
4.2768,-1.185,-8.7987,-0.038485,-0.0058032,0.017715,-24.0,-4.62,23.52
4.3449,-1.1986,-8.6625,-0.047342,-0.01069,0.015577,-24.06,-4.56,23.64
4.3177,-1.0624,-8.7715,-0.040928,-0.019548,0.018937,-23.94,-4.62,23.58
4.3858,-1.0624,-8.7306,-0.039401,-0.048564,0.025962,-23.88,-4.68,23.46
4.3449,-1.076,-8.826,-0.034514,-0.044593,0.018937,-23.94,-4.74,23.46
4.1814,-1.0215,-8.826,-0.036041,-0.022297,0.010385,-24.0,-4.74,23.34
4.2223,-1.0896,-8.7987,-0.044593,0.01069,0.0088575,-23.94,-4.68,23.64
4.2632,-1.1441,-8.7851,-0.041233,0.01069,0.015272,-24.06,-4.8,23.7
4.3858,-1.1713,-8.7034,-0.038485,0.000305,0.022602,-24.0,-4.8,23.76
4.3721,-1.1169,-8.7306,-0.03543,-0.025045,0.023213,-24.06,-4.92,23.7
4.304,-1.0624,-8.7987,-0.030849,-0.033598,0.019548,-24.0,-4.8,23.52
4.2495,-1.1032,-8.7715,-0.034514,-0.026878,0.025045,-23.76,-4.74,23.64
4.2087,-1.0488,-8.8396,-0.037568,-0.018937,0.025045,-23.7,-4.86,23.76
4.2495,-1.076,-8.7715,-0.036346,-0.010079,0.022907,-23.76,-4.98,23.58
4.2495,-0.91256,-8.8532,-0.042455,-0.020464,0.026878,-23.82,-4.92,23.82
4.3177,-1.1169,-8.8396,-0.028711,-0.027794,0.026267,-23.76,-4.98,23.94
4.2904,-1.0896,-8.8532,-0.037874,-0.033903,0.022907,-23.7,-4.92,24.18
4.2087,-1.1305,-8.7715,-0.030543,-0.036652,0.028711,-23.58,-4.98,24.24
4.1542,-1.076,-8.8941,-0.03207,-0.026878,0.023518,-23.58,-5.1,24.3
4.2495,-1.0896,-8.8941,-0.034514,-0.017104,0.023824,-23.4,-5.04,24.12
4.1678,-1.1032,-8.7715,-0.036041,-0.0033598,0.029627,-23.4,-4.98,24.0
4.1951,-1.1032,-8.8396,-0.033598,-0.0039706,0.027184,-23.46,-4.74,24.06
4.3585,-1.1713,-8.8396,-0.023518,-0.016493,0.033598,-23.58,-4.68,24.12
4.2768,-1.076,-8.7987,-0.036957,-0.021075,0.017715,-23.52,-4.62,24.36
4.1542,-1.0896,-8.826,-0.037263,-0.022907,0.025045,-23.52,-4.5,24.36
4.2495,-1.0488,-8.826,-0.044899,-0.018021,0.024435,-23.4,-4.44,24.42
4.1814,-1.0896,-8.9349,-0.037263,-0.019242,0.021075,-23.34,-4.44,24.18
4.1542,-1.1441,-8.9622,-0.033598,-0.017715,0.012523,-23.46,-4.5,24.24
4.1542,-0.99429,-8.8941,-0.039095,0.010385,0.0082467,-23.58,-4.44,24.0
4.1814,-1.1577,-8.7851,-0.041233,0.01741,0.015577,-23.58,-4.5,24.0
4.2904,-1.1032,-8.7443,-0.03146,0.019548,0.019242,-23.46,-4.44,23.88
4.3313,-1.1577,-8.826,-0.026878,-0.012217,0.021686,-23.58,-4.5,23.88
4.3177,-1.1713,-8.9077,-0.03543,-0.031765,0.030238,-23.58,-4.44,23.88
4.1542,-1.076,-8.9349,-0.031154,-0.021991,0.020769,-23.46,-4.68,23.82
4.1406,-1.1305,-8.8124,-0.03543,-0.0076358,0.021075,-23.4,-4.8,23.76
4.1678,-1.076,-8.8668,-0.04215,0.007025,0.015272,-23.58,-4.8,23.76
4.1406,-1.0488,-8.9213,-0.043066,0.011606,0.019242,-23.52,-4.74,23.82
4.2223,-0.99429,-8.7306,-0.038485,0.012217,0.013744,-23.64,-4.74,23.94
4.2495,-1.0488,-8.826,-0.034514,0.0085521,0.016493,-23.64,-4.74,24.06
4.2632,-1.1169,-8.7306,-0.031154,-0.0048869,0.019242,-23.52,-4.68,24.06
4.1406,-1.2258,-8.7443,-0.033292,-0.011606,0.019853,-23.4,-4.62,24.06
4.0861,-1.1169,-8.826,-0.030238,-0.0061087,0.019548,-23.46,-4.56,24.06
4.1678,-1.1441,-8.7851,-0.037568,0.0024435,0.021991,-23.58,-4.62,24.0
4.1814,-1.1577,-8.826,-0.032987,0.0030543,0.027184,-23.76,-4.62,24.0
4.1814,-1.1305,-8.7579,-0.03543,-0.0039706,0.025351,-23.58,-4.56,24.06
4.1542,-1.1169,-8.9349,-0.037874,0.0061087,0.026878,-23.64,-4.56,24.06
4.1814,-1.1441,-8.8124,-0.037263,0.01069,0.028711,-23.64,-4.44,24.12
4.2223,-1.1169,-8.8668,-0.04948,0.016493,0.019242,-23.58,-4.5,24.12
4.2223,-1.1305,-8.826,-0.053145,0.020769,0.016493,-23.58,-4.44,24.12
4.2495,-1.076,-8.7579,-0.045815,-0.009163,0.018937,-23.58,-4.38,24.06
4.2495,-1.0896,-8.7987,-0.039706,-0.027489,0.020769,-23.7,-4.38,23.94
4.1814,-1.1305,-8.9349,-0.032681,-0.0281,0.021991,-23.82,-4.44,23.94
4.0997,-1.185,-8.8532,-0.040317,-0.0015272,0.021991,-23.82,-4.44,24.06
4.127,-1.185,-8.8124,-0.046731,0.033292,0.026878,-23.7,-4.44,24.0
4.1951,-1.1169,-8.826,-0.055283,0.044288,0.022602,-23.7,-4.44,24.12
4.2359,-1.1305,-8.7715,-0.043066,0.035736,0.016799,-23.7,-4.5,24.12
4.304,-1.0215,-8.9622,-0.043066,0.025045,0.018937,-23.76,-4.56,24.3
4.3313,-1.0624,-8.826,-0.03543,0.010385,0.014966,-23.76,-4.56,24.3
4.2904,-1.0351,-8.8532,-0.037263,0.010385,0.012217,-23.64,-4.5,24.24
4.1814,-1.0079,-8.826,-0.039095,0.011912,0.015272,-23.52,-4.32,24.18
4.2087,-1.0896,-8.8668,-0.037568,0.021686,0.021075,-23.64,-4.38,24.24
4.2495,-1.076,-8.8941,-0.039095,0.022907,0.027794,-23.58,-4.5,24.12
4.2904,-1.1441,-8.7851,-0.051007,0.013744,0.030238,-23.52,-4.32,24.12
4.304,-1.1169,-8.8124,-0.040317,0.0079412,0.025351,-23.52,-4.32,23.94
4.2359,-1.1169,-8.7306,-0.033292,0.0015272,0.022297,-23.52,-4.38,23.82
4.2223,-0.92618,-8.9894,-0.047647,0.012217,0.020769,-23.64,-4.38,23.94
4.2632,-1.0896,-8.8805,-0.035736,0.015272,0.025656,-23.64,-4.32,23.94
4.2223,-1.1169,-8.8805,-0.040012,0.0094684,0.025045,-23.58,-4.38,23.82
4.2223,-1.1577,-8.8668,-0.03879,0.034208,0.014966,-23.64,-4.32,23.7
4.2632,-1.1441,-8.826,-0.049175,0.055283,0.014355,-23.64,-4.32,23.82
4.3177,-1.1169,-8.8668,-0.047647,0.042761,0.0030543,-23.88,-4.38,23.82
4.3177,-1.0624,-8.7987,-0.04612,0.0281,0.0042761,-24.06,-4.5,23.76
4.2495,-1.0488,-8.7715,-0.046731,0.018326,-0.0045815,-24.06,-4.5,23.76
4.2359,-1.0896,-8.826,-0.036652,0.016493,-0.0012217,-24.06,-4.38,23.82
4.2632,-1.0896,-8.826,-0.040928,0.033903,0.000611,-24.18,-4.5,23.88
4.2904,-1.1169,-8.7443,-0.040012,0.047647,0.007025,-24.12,-4.56,23.82
4.3177,-1.1577,-8.7443,-0.040317,0.047342,0.014355,-24.12,-4.56,23.88
4.3721,-1.1169,-8.717,-0.034514,0.043371,0.018021,-24.06,-4.62,23.88
4.3858,-1.0624,-8.7987,-0.03879,0.013439,0.0281,-24.06,-4.62,23.94
4.413,-1.0896,-8.7715,-0.03207,-0.0018326,0.023518,-24.0,-4.44,23.94
4.3177,-1.1032,-8.7987,-0.037874,-0.019548,0.024435,-24.06,-4.62,23.82
4.2904,-1.0215,-8.8396,-0.044593,-0.015882,0.015882,-24.06,-4.68,23.76
4.2223,-0.96704,-8.8532,-0.038485,-0.0039706,0.012523,-24.0,-4.8,23.7
4.304,-1.0215,-8.826,-0.037263,-0.0054978,0.015577,-23.94,-4.68,23.82
4.3177,-1.0488,-8.7443,-0.037874,-0.0048869,0.021991,-23.88,-4.74,23.7
4.2904,-1.0488,-8.7851,-0.031154,-0.0051924,0.020769,-23.82,-4.74,23.82
4.3177,-1.185,-8.7306,-0.03543,-0.0033598,0.022602,-23.82,-4.74,23.76
4.2904,-1.2395,-8.7851,-0.029322,-0.0051924,0.026573,-23.88,-4.8,23.64
4.304,-1.1305,-8.7579,-0.030543,-0.010079,0.019548,-23.94,-4.74,23.7
4.2768,-1.1577,-8.7034,-0.032681,-0.0082467,0.030849,-23.94,-4.44,23.52
4.2904,-1.0896,-8.7987,-0.036957,-0.012828,0.029016,-23.94,-4.56,23.4
4.3721,-1.1169,-8.8668,-0.034208,-0.013439,0.03146,-23.88,-4.62,23.52
4.304,-1.1169,-8.8396,-0.037874,-0.032376,0.017715,-23.88,-4.5,23.76
4.1678,-1.1169,-8.8532,-0.045509,-0.030238,0.014355,-24.0,-4.44,23.7
4.2223,-1.0488,-8.7306,-0.047647,-0.011912,0.020464,-24.06,-4.44,23.76
4.1951,-1.0351,-8.8941,-0.040623,-0.0027489,0.0027489,-23.88,-4.38,23.58
4.1814,-1.0896,-8.8124,-0.040623,0.0036652,0.0073304,-23.88,-4.44,23.64
4.2632,-1.0896,-8.7715,-0.041844,0.031154,0.012523,-24.0,-4.5,23.58
4.2768,-1.076,-8.826,-0.04215,0.020769,0.014355,-23.94,-4.56,23.88
4.2904,-1.0624,-8.7987,-0.032987,0.02474,0.016799,-23.82,-4.56,23.94
4.3177,-1.1441,-8.826,-0.043066,0.03146,0.015577,-23.76,-4.68,23.94
4.3721,-1.1169,-8.7034,-0.033292,0.023824,0.01405,-23.58,-4.92,23.94
4.3177,-1.0624,-8.717,-0.036346,0.0082467,0.012523,-23.7,-4.8,24.06
4.3177,-1.0624,-8.8668,-0.032376,0.0027489,0.011606,-23.7,-4.74,24.0
4.304,-1.1169,-8.7987,-0.036957,0.0033598,0.016188,-23.76,-4.74,23.7
4.304,-1.0488,-8.826,-0.043371,0.0073304,0.012217,-23.76,-4.68,23.64
4.3313,-1.0896,-8.7987,-0.041539,0.0054978,0.016188,-23.7,-4.62,23.7
4.3177,-1.0896,-8.7987,-0.038179,-0.0088575,0.022602,-23.88,-4.74,23.76
4.3721,-1.1169,-8.8668,-0.04215,-0.015577,0.018631,-24.0,-4.62,23.7
4.304,-1.0896,-8.7306,-0.039095,-0.01069,0.01069,-23.82,-4.44,23.7
4.2359,-1.1169,-8.7443,-0.038485,-0.0073304,0.016799,-23.82,-4.5,23.7
4.2632,-1.0488,-8.7987,-0.039095,0.0018326,0.015882,-23.88,-4.26,23.52
4.2904,-1.0215,-8.8396,-0.03207,0.017715,0.030543,-23.88,-4.2,23.46
4.3177,-1.0079,-8.7851,-0.029932,0.010385,0.01741,-24.12,-4.02,23.64
4.3994,-1.1032,-8.7306,-0.033292,0.0061087,0.02474,-24.12,-4.02,23.46
4.3449,-1.185,-8.8396,-0.034819,-0.000916,0.0045815,-24.18,-4.14,23.46
4.2495,-1.2258,-8.7306,-0.048258,-0.0039706,0.0088575,-24.06,-4.02,23.7
4.2632,-1.0896,-8.7034,-0.045815,0.0015272,0.014355,-23.76,-4.08,23.82
4.2223,-1.0215,-8.717,-0.035125,-0.022602,0.0079412,-23.76,-4.14,23.7
4.1678,-1.0215,-8.826,-0.034819,-0.020464,0.01405,-23.76,-4.14,23.64
4.2495,-0.9398,-8.7715,-0.036346,-0.007025,0.015882,-23.64,-4.2,23.7
4.3177,-1.0351,-8.8941,-0.038485,0.0036652,0.018326,-23.82,-4.32,23.64
4.3177,-1.0488,-8.7443,-0.043982,-0.000916,0.025351,-23.64,-4.2,23.64
4.4402,-1.076,-8.7443,-0.036652,-0.013134,0.018021,-23.58,-4.2,23.64
4.3858,-1.1441,-8.7987,-0.036346,-0.01741,0.022907,-23.64,-4.38,23.76
4.2359,-1.0624,-8.7851,-0.040928,-0.013744,0.018326,-23.34,-4.56,23.88
4.2495,-1.0624,-8.8668,-0.033292,0.000305,0.02138,-23.28,-4.74,23.82
4.3177,-1.0624,-8.7715,-0.035125,-0.000305,0.019548,-23.28,-4.8,24.0
4.2904,-1.0896,-8.7443,-0.036041,0.020464,0.016799,-23.28,-4.8,23.76
4.2632,-1.1169,-8.7715,-0.036652,0.020464,0.015882,-23.28,-4.92,23.76
4.3313,-1.0896,-8.8124,-0.036652,0.0064141,0.0064141,-23.28,-4.92,23.64
4.304,-1.0896,-8.7715,-0.039401,-0.0054978,0.015882,-23.34,-4.86,23.64
4.2495,-1.076,-8.826,-0.031765,-0.0039706,0.015577,-23.34,-4.74,23.64
4.2904,-1.1441,-8.826,-0.041233,0.0036652,0.019242,-23.4,-4.86,23.52
4.304,-1.1713,-8.8396,-0.03879,0.01069,0.010079,-23.46,-4.86,23.76
4.2632,-1.185,-8.7715,-0.034208,0.015272,0.01741,-23.52,-4.74,23.82
4.3449,-1.1169,-8.6625,-0.036346,0.0027489,0.015577,-23.76,-4.62,23.7
4.3449,-1.1577,-8.826,-0.028405,-0.000305,0.022602,-23.94,-4.56,23.64
4.304,-1.1986,-8.8668,-0.0281,-0.023824,0.020769,-24.0,-4.5,23.52
4.2632,-1.1305,-8.8941,-0.047953,-0.022602,0.017715,-24.0,-4.5,23.46
4.2495,-1.076,-8.8124,-0.050702,-0.021991,0.021991,-24.12,-4.56,23.64
4.304,-1.0215,-8.7851,-0.047953,-0.029016,0.020769,-24.18,-4.38,23.64
4.2495,-1.0351,-8.8124,-0.037263,-0.02474,0.016493,-24.0,-4.38,23.76
4.2223,-1.0624,-8.826,-0.038179,-0.0064141,0.014966,-24.06,-4.38,23.52
4.2223,-0.99429,-8.8396,-0.027184,0.01741,0.014966,-23.94,-4.44,23.58
4.3449,-1.0896,-8.7987,-0.036346,0.021075,0.0064141,-23.88,-4.5,23.58
4.304,-1.0624,-8.7579,-0.035736,0.016799,0.0033598,-23.82,-4.5,23.46
4.3313,-1.1032,-8.7715,-0.03146,0.0033598,0.0033598,-23.82,-4.56,23.4
4.1814,-1.1577,-8.8668,-0.029932,0.0082467,-0.000305,-23.64,-4.5,23.34
4.2495,-1.1577,-8.7443,-0.029932,0.016799,0.0045815,-23.64,-4.56,23.46
4.2768,-1.1169,-8.8124,-0.035125,0.0281,0.000305,-23.58,-4.5,23.58
4.2359,-1.1577,-8.826,-0.032987,0.022907,0.015577,-23.52,-4.5,23.64
4.3177,-1.1577,-8.7851,-0.032987,0.011912,0.015577,-23.34,-4.44,23.52
4.3313,-1.1305,-8.7987,-0.035125,0.0048869,0.018326,-23.34,-4.62,23.46
4.304,-1.1169,-8.826,-0.039401,-0.002138,0.01741,-23.34,-4.74,23.4
4.2904,-1.0896,-8.7579,-0.040012,-0.0048869,0.016799,-23.4,-4.8,23.58
4.2768,-0.99429,-8.7851,-0.036652,0.000916,0.020769,-23.4,-4.8,23.76
4.3449,-0.98067,-8.8532,-0.036957,-0.0058032,0.0067195,-23.4,-4.74,23.76
4.3177,-1.0624,-8.8396,-0.036346,-0.0058032,0.022297,-23.4,-4.8,23.82
4.2904,-1.0896,-8.8805,-0.036346,-0.0097738,0.0048869,-23.28,-4.8,23.82
4.3449,-1.0896,-8.826,-0.03207,-0.000916,0.014355,-23.28,-4.86,23.52
4.3449,-1.1169,-8.8396,-0.038179,0.0045815,0.019548,-23.22,-4.86,23.52
4.3585,-1.1032,-8.7306,-0.044593,0.011912,0.014661,-23.28,-4.86,23.64
4.2632,-1.1577,-8.7306,-0.032681,0.028405,0.0094684,-23.34,-4.86,23.82
4.2904,-1.2258,-8.6898,-0.044593,-0.0036652,0.043677,-23.34,-4.8,23.7
4.5083,-1.185,-8.717,-0.056505,-0.052534,0.067806,-23.34,-4.8,23.52
4.5356,-1.1169,-8.7987,-0.065668,-0.10049,0.076358,-23.34,-4.8,23.64
4.3313,-1.0896,-8.9077,-0.062614,-0.12187,0.085216,-23.52,-4.98,23.7
4.1678,-1.1169,-8.9622,-0.048869,-0.13836,0.068722,-23.46,-5.04,23.76
3.8001,-0.91256,-9.0575,-0.04215,-0.11759,0.03207,-23.34,-4.98,23.88
3.6775,-0.77636,-9.0848,-0.040623,0.039095,0.0097738,-23.46,-4.98,23.82
3.6639,-0.74912,-9.0712,-0.035125,0.10843,0.012828,-23.58,-5.04,23.82
4.1542,-1.1577,-8.8396,-0.046426,0.281,0.0094684,-23.64,-4.98,23.7
4.4811,-1.3212,-8.7851,-0.059254,0.30421,-0.027184,-23.64,-5.04,23.7
4.699,-1.2667,-8.6353,-0.062003,0.2135,-0.055283,-23.7,-5.16,23.82
4.699,-1.1032,-8.4855,-0.049786,0.11942,-0.060781,-23.76,-5.22,23.88
4.5764,-1.0624,-8.6762,-0.055894,0.07422,-0.057421,-23.88,-5.1,23.88
4.522,-0.96704,-8.7034,-0.038179,0.016188,-0.047037,-24.0,-5.16,23.7
4.2904,-0.95342,-8.7851,-0.046731,0.0048869,-0.02138,-24.06,-5.1,23.76
4.3177,-0.96704,-8.7306,-0.03543,0.018937,-0.0054978,-24.06,-5.1,23.7
4.304,-1.0624,-8.7715,-0.042761,0.036346,0.018937,-24.18,-5.04,23.7
4.4675,-1.076,-8.7034,-0.041233,0.025045,0.026267,-24.3,-5.16,23.82
4.4539,-1.1577,-8.6762,-0.040928,0.025656,0.025351,-24.42,-5.1,23.82
4.4811,-1.1305,-8.7034,-0.039706,0.017104,0.020769,-24.48,-5.1,23.94
4.5492,-1.1169,-8.7034,-0.042455,0.012828,0.021991,-24.54,-5.04,23.94
4.5083,-1.0624,-8.7034,-0.047037,-0.007025,0.018021,-24.48,-4.98,23.82
4.5083,-1.0079,-8.7306,-0.043371,-0.0073304,0.024435,-24.42,-4.92,23.82
4.4539,-0.96704,-8.7715,-0.043066,0.0039706,0.023824,-24.42,-4.98,23.7
4.5083,-0.92618,-8.7034,-0.049175,0.015882,0.02474,-24.48,-4.98,23.7
4.413,-0.89894,-8.7034,-0.034819,0.024435,0.019242,-24.48,-4.92,23.76
4.5356,-0.89894,-8.6762,-0.03207,0.027794,0.0054978,-24.48,-5.04,23.64
4.4811,-0.95342,-8.7034,-0.0281,0.025045,0.0045815,-24.42,-5.1,23.64
4.4675,-0.92618,-8.7034,-0.023824,0.021686,0.010079,-24.36,-5.22,23.52
4.5083,-0.99429,-8.7715,-0.025045,0.0097738,0.015882,-24.3,-5.28,23.46
4.4811,-0.99429,-8.7306,-0.021991,0.013439,0.019242,-24.06,-5.28,23.46
4.4539,-1.0215,-8.7034,-0.036652,0.012828,0.023213,-24.06,-5.4,23.46
4.5492,-1.1577,-8.717,-0.037568,0.012523,0.023213,-24.12,-5.34,23.46
4.522,-1.0896,-8.7306,-0.034819,0.0058032,0.020769,-24.24,-5.28,23.4
4.5083,-1.0896,-8.6898,-0.045815,-0.0024435,0.02138,-24.24,-5.28,23.4
4.4402,-1.0215,-8.7306,-0.033292,-0.016188,0.024435,-24.12,-5.34,23.22
4.3858,-1.0624,-8.7034,-0.036041,-0.01741,0.018937,-24.12,-5.34,23.22
4.3858,-1.0215,-8.7443,-0.041844,-0.01741,0.020769,-24.0,-5.34,23.1
4.413,-0.99429,-8.717,-0.043677,-0.0015272,0.028711,-24.0,-5.1,23.04
4.3994,-1.0079,-8.7306,-0.035125,0.012217,0.015882,-24.0,-5.04,22.98
4.4811,-1.0351,-8.6762,-0.036346,0.018631,0.01741,-24.06,-4.92,23.16
4.4266,-1.0215,-8.6489,-0.039401,0.026267,0.017715,-24.12,-4.74,23.22
4.522,-1.0079,-8.7306,-0.038485,0.032681,0.012217,-24.12,-4.62,23.22
4.5764,-0.96704,-8.7443,-0.030238,0.024129,0.023518,-24.06,-4.5,23.16
4.6037,-1.0215,-8.6489,-0.03146,0.01069,0.020464,-24.12,-4.5,23.04
4.4539,-1.0896,-8.7579,-0.023518,-0.002138,-0.0018326,-24.06,-4.62,23.16
4.4539,-1.1169,-8.717,-0.03879,0.013439,0.01741,-24.18,-4.56,23.1
4.5356,-1.1032,-8.6081,-0.050091,0.0067195,0.014661,-24.36,-4.68,23.04
4.4402,-1.0215,-8.6898,-0.037874,-0.013134,0.01741,-24.24,-4.68,23.16
4.413,-1.1032,-8.7715,-0.037263,-0.015577,0.013744,-24.36,-4.62,23.16
4.4811,-1.0351,-8.7306,-0.046426,-0.011301,0.018326,-24.36,-4.68,23.34
4.5083,-1.0624,-8.7034,-0.048869,0.0027489,0.025656,-24.36,-4.8,23.4
4.5083,-0.96704,-8.7443,-0.048258,0.0085521,0.026573,-24.3,-4.74,23.16
4.5764,-0.92618,-8.6081,-0.04215,-0.012523,0.029932,-24.42,-4.74,23.16
4.5356,-0.9398,-8.7715,-0.036957,-0.029932,0.027794,-24.6,-5.04,23.1
4.4811,-0.96704,-8.7715,-0.03543,-0.036957,0.019548,-24.54,-5.16,23.04
4.4402,-1.0351,-8.7443,-0.035125,-0.018937,0.019548,-24.42,-5.1,23.16
4.3585,-1.1032,-8.7306,-0.040012,0.000916,0.020464,-24.42,-5.1,23.22
4.5083,-1.0215,-8.7034,-0.044593,-0.0039706,0.018326,-24.3,-4.98,23.34
4.522,-1.0488,-8.7306,-0.039095,-0.023213,0.014966,-24.36,-4.74,23.46
4.5083,-0.9398,-8.7715,-0.034819,-0.033598,0.024129,-24.3,-4.68,23.4
4.3721,-0.96704,-8.717,-0.029627,-0.052229,0.020464,-24.24,-4.8,23.52
4.3449,-1.0079,-8.7715,-0.027794,-0.047647,0.026267,-24.24,-4.74,23.46
4.3177,-1.0215,-8.7306,-0.029627,-0.036041,0.031154,-24.36,-4.8,23.52
4.3585,-1.0215,-8.6625,-0.027184,-0.018937,0.033903,-24.3,-4.8,23.46
4.3585,-1.0215,-8.6625,-0.022297,-0.017715,0.027794,-24.3,-4.8,23.46
4.522,-1.076,-8.7306,-0.027794,-0.034208,0.029932,-24.18,-4.68,23.52
4.4675,-1.0624,-8.7715,-0.028711,-0.039706,0.016799,-24.06,-4.62,23.52
4.3994,-1.0624,-8.6898,-0.033292,-0.018021,0.031154,-24.06,-4.68,23.46
4.3858,-1.0624,-8.717,-0.036346,-0.0024435,0.029932,-24.12,-4.74,23.46
4.4811,-1.0896,-8.7306,-0.045815,-0.018326,0.042455,-24.12,-4.8,23.28
4.5083,-0.96704,-8.717,-0.035736,-0.051924,0.043982,-24.24,-4.98,23.28
4.2904,-0.98067,-8.826,-0.028711,-0.07422,0.039706,-24.06,-5.22,23.4
4.2768,-1.0624,-8.8941,-0.034208,-0.044899,0.033598,-24.0,-5.1,23.46
4.2359,-1.0488,-8.7987,-0.033598,-0.020159,0.032681,-24.0,-5.1,23.34
4.3449,-1.1169,-8.7715,-0.037874,0.027184,0.022297,-23.94,-4.98,23.22
4.3585,-1.0896,-8.717,-0.043371,0.047953,0.029627,-23.88,-4.8,23.34
4.5356,-1.1441,-8.7851,-0.034514,0.022602,0.036346,-24.06,-4.86,23.46
4.6037,-0.91256,-8.7034,-0.037263,-0.022297,0.018631,-24.24,-5.04,23.28
4.4402,-0.92618,-8.7715,-0.03207,-0.0281,0.020464,-24.3,-4.98,23.4
4.3177,-1.0624,-8.7715,-0.028711,-0.016188,0.023213,-24.24,-4.98,23.64
4.3449,-1.2122,-8.7306,-0.029932,-0.016188,0.018937,-24.06,-4.98,23.7
4.3449,-1.2122,-8.7715,-0.032987,-0.032376,0.017104,-24.0,-4.92,23.76
4.3177,-1.185,-8.7715,-0.040012,-0.040317,0.015882,-23.88,-4.8,23.76
4.3585,-1.1032,-8.7579,-0.04612,-0.03879,0.024129,-23.88,-4.86,23.88
4.3177,-1.0215,-8.7987,-0.044899,-0.047342,0.025962,-24.0,-4.98,23.76
4.2768,-0.98067,-8.7987,-0.034208,-0.05284,0.015577,-24.06,-4.98,23.88
4.2223,-1.0488,-8.8668,-0.019548,-0.038485,0.020769,-24.06,-5.04,24.06
4.2768,-1.0215,-8.8941,-0.032987,-0.010385,0.018631,-24.12,-5.1,23.94
4.2495,-1.0624,-8.7715,-0.030238,0.0033598,0.013439,-24.06,-5.16,23.94
4.413,-1.0215,-8.826,-0.034208,0.022297,-0.0058032,-23.94,-5.1,23.94
4.413,-1.0215,-8.8396,-0.04215,0.04215,0.0048869,-23.82,-5.1,23.94
4.413,-1.0624,-8.6762,-0.041233,0.033903,-0.000611,-23.88,-5.04,23.94
4.3858,-1.0351,-8.7715,-0.030238,0.025962,-0.0085521,-24.06,-5.16,23.88
4.3858,-1.0351,-8.7715,-0.031765,0.012523,-0.0061087,-24.06,-5.16,23.88
4.4539,-1.0896,-8.7851,-0.032376,0.0027489,-0.0024435,-24.06,-5.22,24.0
4.3994,-1.1441,-8.7306,-0.03146,-0.000305,0.000305,-24.06,-5.16,23.94
4.3177,-1.1032,-8.7987,-0.033598,-0.0018326,-0.0015272,-24.3,-5.04,23.82
4.3449,-1.0215,-8.7579,-0.035125,0.0085521,0.0024435,-24.18,-4.98,23.76
4.3177,-1.0215,-8.826,-0.034208,0.011606,-0.0012217,-24.18,-4.92,23.58
4.413,-1.0896,-8.7306,-0.039401,0.0018326,0.016493,-24.06,-4.92,23.52
4.4811,-1.0488,-8.7579,-0.032681,-0.0073304,0.010996,-23.94,-4.98,23.4
4.3858,-1.0488,-8.7715,-0.03543,-0.020769,0.010385,-24.06,-4.92,23.46
4.3858,-1.0896,-8.7579,-0.033598,-0.0281,0.0076358,-24.06,-4.92,23.46
4.2904,-1.0624,-8.7579,-0.033903,-0.033292,0.020464,-24.06,-5.04,23.4
4.2904,-1.0896,-8.7987,-0.037263,-0.032376,0.01741,-23.94,-5.04,23.34
4.2768,-1.076,-8.7987,-0.037568,-0.021991,0.027794,-23.94,-4.98,23.16
4.3313,-1.0624,-8.826,-0.033292,-0.031154,0.019548,-24.0,-5.04,23.1
4.3177,-1.0351,-8.8668,-0.033292,-0.021991,0.023824,-24.0,-4.98,23.22
4.1951,-1.076,-8.7579,-0.037568,-0.031765,0.024129,-23.88,-4.86,23.22
4.2495,-1.1169,-8.8124,-0.03543,-0.019242,0.02138,-23.76,-4.98,23.34
4.2495,-1.0215,-8.7987,-0.042761,-0.0048869,0.012523,-23.94,-4.92,23.34
4.3449,-1.0351,-8.7715,-0.044288,0.0012217,0.021991,-23.94,-4.86,23.28
4.3313,-1.0624,-8.7987,-0.03879,-0.007025,0.013744,-23.94,-4.86,23.28
4.3994,-1.0351,-8.826,-0.03207,-0.012828,0.021991,-23.82,-4.98,23.52
4.3585,-1.0624,-8.7715,-0.029932,-0.026878,0.027489,-23.82,-5.04,23.4
4.3177,-1.0215,-8.8668,-0.03207,-0.022602,0.020769,-23.82,-4.98,23.46
4.2768,-1.0624,-8.826,-0.037874,-0.016493,0.023518,-23.94,-4.98,23.4
4.2904,-1.0624,-8.8668,-0.044288,-0.021991,0.020159,-23.82,-5.1,23.64
4.2904,-1.1032,-8.826,-0.042455,-0.022907,0.016493,-23.94,-5.04,23.58
4.2632,-1.076,-8.826,-0.038179,-0.018631,0.01741,-23.88,-4.98,23.4
4.2632,-1.0215,-8.7987,-0.039706,-0.0073304,0.011912,-24.0,-5.22,23.34
4.2495,-0.99429,-8.7987,-0.036652,0.010996,0.02138,-24.06,-5.1,23.52
4.2495,-1.0079,-8.7715,-0.032987,0.018631,0.021686,-23.88,-5.22,23.64
4.3585,-1.076,-8.7443,-0.029932,0.010996,0.017715,-23.82,-5.22,23.52
4.3313,-1.1441,-8.7851,-0.030849,-0.0036652,0.018631,-23.76,-5.16,23.58
4.304,-1.1577,-8.8668,-0.032987,-0.0045815,0.01741,-23.82,-5.28,23.52
4.2359,-1.0896,-8.7715,-0.039095,0.01069,0.018937,-23.7,-5.22,23.58
4.3177,-1.076,-8.7306,-0.041233,0.011912,0.009163,-23.64,-5.22,23.58
4.3177,-1.0488,-8.826,-0.037263,0.0082467,0.013134,-23.64,-5.16,23.76
4.3449,-1.0624,-8.8396,-0.034819,0.0024435,0.01741,-23.64,-5.22,23.64
4.3177,-1.0896,-8.7851,-0.032681,0.0039706,0.022602,-23.58,-5.1,23.64
4.3449,-1.1032,-8.8532,-0.037568,-0.0018326,0.016493,-23.64,-5.22,23.82
4.304,-1.076,-8.7443,-0.034514,0.0027489,0.017104,-23.64,-5.04,23.82
4.2632,-1.0351,-8.7443,-0.03879,0.0079412,0.012217,-23.64,-5.28,23.7
4.3177,-1.1032,-8.7715,-0.03879,0.014966,0.016799,-23.76,-5.22,23.76
4.3177,-1.0624,-8.7987,-0.043066,0.021991,0.017715,-23.76,-5.28,23.88
4.3177,-1.0351,-8.8124,-0.037568,0.017715,0.016493,-23.76,-5.34,23.94
4.3858,-1.0488,-8.7306,-0.027489,0.010385,0.017104,-23.64,-5.16,23.94
4.3449,-1.0896,-8.7443,-0.034208,-0.0051924,0.013439,-23.76,-5.16,23.88
4.3858,-1.0896,-8.7034,-0.031765,-0.0058032,0.017715,-23.7,-4.98,23.94
4.3449,-1.1169,-8.7579,-0.03543,-0.019548,0.021686,-23.82,-4.98,23.76
4.3177,-1.0896,-8.7579,-0.041539,-0.036346,0.021075,-23.88,-4.8,23.7
4.1814,-1.1577,-8.8668,-0.034514,-0.035125,0.017715,-23.82,-4.8,23.76
4.1542,-1.0079,-8.826,-0.047342,-0.018631,0.025351,-23.76,-4.62,23.82
4.2495,-0.89894,-8.9213,-0.036957,0.010079,0.022297,-23.64,-4.62,23.88
4.3858,-1.0624,-8.826,-0.034208,0.021991,0.03146,-23.76,-4.5,23.94
4.413,-1.1032,-8.7443,-0.040623,0.018326,0.031154,-23.82,-4.5,23.94
4.3858,-1.0624,-8.7715,-0.043982,0.000916,0.023824,-23.82,-4.5,23.94
4.4675,-1.0488,-8.7443,-0.03879,-0.017104,0.022297,-24.0,-4.38,24.0
4.3721,-1.076,-8.7579,-0.033292,-0.018937,0.021075,-24.06,-4.38,23.88
4.2904,-1.0624,-8.7987,-0.034514,-0.016799,0.019853,-24.0,-4.5,23.94
4.1814,-1.1305,-8.7579,-0.036957,-0.0051924,0.020159,-24.18,-4.5,23.88
4.2632,-1.1032,-8.826,-0.039401,-0.0036652,0.022602,-24.12,-4.44,24.06
4.2768,-1.1169,-8.826,-0.046731,0.0027489,0.026267,-24.0,-4.38,24.12
4.304,-1.1169,-8.8805,-0.037568,-0.0033598,0.02138,-24.12,-4.32,24.24
4.2632,-1.0624,-8.8668,-0.039095,-0.0073304,0.014966,-24.06,-4.44,24.12
4.2495,-1.0215,-8.8668,-0.043066,-0.0018326,0.018937,-24.06,-4.5,24.12
4.2768,-1.1169,-8.7715,-0.048564,0.0064141,0.009163,-23.88,-4.5,24.18
4.3177,-1.0624,-8.7443,-0.038179,0.0058032,0.018021,-23.76,-4.56,24.06
4.2904,-1.0488,-8.826,-0.039706,-0.0067195,0.018631,-23.88,-4.5,23.94
4.2495,-1.076,-8.9349,-0.033598,-0.011912,0.018937,-23.94,-4.62,23.88
4.3313,-1.1305,-8.8124,-0.040623,-0.010385,0.034514,-23.88,-4.56,23.94
4.2768,-1.1032,-8.8668,-0.034819,0.0015272,0.017715,-23.82,-4.62,23.94
4.2904,-1.1169,-8.717,-0.057421,0.0073304,0.02138,-23.82,-4.74,23.82
4.3449,-1.1305,-8.7443,-0.048869,0.0067195,0.018326,-23.88,-4.74,23.82
4.4266,-1.0896,-8.7579,-0.053451,-0.0027489,0.030849,-23.94,-4.86,23.82
4.3721,-1.0624,-8.9894,-0.050702,-0.030238,0.026878,-23.88,-4.92,23.82
4.0452,-1.1441,-9.1937,-0.062614,0.0036652,0.020769,-23.82,-4.98,23.76
3.9499,-1.2939,-9.1937,-0.10965,0.10751,0.020769,-23.82,-4.98,23.7
4.3721,-1.3076,-9.4798,-0.15455,0.2303,0.009163,-23.82,-5.04,23.7
4.4811,-1.4438,-9.9837,-0.23488,0.36957,-0.047647,-23.88,-5.04,23.82
4.7399,-1.9341,-10.488,-0.28344,0.34972,-0.096211,-23.82,-5.1,23.82
4.7535,-2.261,-10.597,-0.33903,0.17104,-0.23885,-23.82,-5.04,23.76
4.6309,-2.9284,-11.21,-0.45509,0.069944,-0.18051,-23.82,-5.22,23.58
4.5083,-3.1463,-11.319,-0.68753,0.34941,-0.10079,-24.0,-5.22,23.58
4.5356,-2.833,-11.21,-0.92882,0.79596,-0.11851,-23.88,-5.22,23.4
4.9714,-1.5936,-10.924,-1.1802,0.88209,-0.30177,-24.06,-5.4,23.04
5.5026,-1.1169,-10.924,-1.2196,0.60537,-0.3766,-24.06,-5.64,22.92
5.7614,-0.99429,-11.032,-1.2123,0.38912,-0.40317,-24.12,-5.88,22.62
6.0747,-0.92618,-11.141,-1.1735,-0.49908,-0.47464,-24.3,-6.24,22.26
4.9169,-0.62654,-10.801,-1.2239,-0.90652,-0.52107,-24.54,-6.66,21.72
4.127,-0.35413,-10.42,-1.2901,-0.88148,-0.47617,-24.54,-7.02,21.42
3.337,0.16344,-10.093,-1.3854,-0.76969,-0.44654,-24.6,-7.92,20.58
4.3994,0.6674,-9.6568,-1.493,-0.50641,-0.33598,-24.54,-8.28,20.22
4.7671,0.83084,-9.2074,-1.5806,-0.072388,-0.30604,-24.54,-9.0,19.98
4.9033,2.0703,-7.9543,-1.5577,0.085521,-0.41294,-24.42,-10.02,19.44
5.0395,3.2144,-7.0826,-1.4804,0.14478,-0.47953,-24.3,-10.74,19.14
5.1485,4.6037,-5.6524,-1.1551,0.08491,-0.57849,-24.0,-12.18,18.72
4.9578,5.6933,-5.1213,-0.88178,-0.076969,-0.7086,-23.88,-12.72,18.42
4.9578,6.1292,-4.5901,-0.58307,-0.18173,-0.74006,-23.76,-13.32,18.24
5.1213,6.2517,-4.3177,-0.28314,-0.3259,-0.65301,-23.7,-13.98,18.06
5.1757,5.775,-3.0237,0.033598,-0.52351,-0.62736,-23.34,-15.06,17.88
4.5764,5.5571,-2.4517,0.4105,-0.73182,-0.74495,-23.04,-15.66,17.82
3.2144,5.2302,-2.0703,0.821,-0.81825,-0.84391,-22.8,-16.2,17.82
0.55843,3.8273,-2.7377,1.3088,-0.48197,-0.75411,-22.2,-17.04,17.94
0.20431,3.2008,-3.2553,1.3952,-0.31429,-0.66187,-21.96,-17.34,18.0
0.57205,1.9477,-4.6445,1.4914,-0.084605,-0.41447,-21.78,-17.46,18.0
1.6344,1.1169,-5.9249,1.4783,-0.1347,-0.058948,-21.3,-17.94,18.54
1.9341,0.55843,-6.7829,1.4349,-0.31765,0.093768,-21.12,-17.94,18.72
1.9613,0.19068,-7.5048,1.3189,-0.43494,0.20495,-20.88,-17.94,18.96
2.5334,-0.44947,-9.1393,1.0116,-0.26756,0.36927,-20.34,-17.52,19.74
3.0782,-0.61292,-9.902,0.73518,0.019853,0.4777,-20.16,-17.28,20.04
3.2689,-0.62654,-10.243,0.43402,0.40409,0.52595,-19.92,-16.98,20.34
3.6366,0.21793,-10.243,0.18662,0.81612,0.52626,-19.5,-16.44,21.0
4.1814,0.61292,-10.106,0.022907,1.2083,0.51496,-19.5,-16.14,21.3
4.7944,0.81722,-9.7522,-0.073609,1.343,0.50244,-19.44,-15.66,21.48
5.8976,1.185,-9.2482,-0.017104,1.0803,0.4105,-19.68,-14.88,21.78
5.9793,1.2531,-9.1937,0.071777,0.71654,0.33445,-19.86,-14.64,21.9
5.8295,1.1441,-9.3436,0.14844,0.36591,0.30818,-19.98,-14.46,21.78
5.3664,0.98067,-9.3572,0.20739,0.0058032,0.31521,-20.4,-13.86,21.72
4.9033,0.91256,-9.507,0.27092,-0.27764,0.32559,-20.64,-13.62,21.66
4.7263,0.85808,-9.4389,0.31521,-0.46976,0.34178,-20.82,-13.38,21.42
3.8546,0.76274,-9.1937,0.40714,-0.65057,0.36255,-21.42,-13.08,21.06
3.2144,0.57205,-9.1937,0.45907,-0.69608,0.4163,-21.54,-12.9,20.94
2.8875,0.54481,-9.0984,0.4777,-0.65393,0.44318,-21.78,-12.72,20.82
2.5742,0.42223,-9.0575,0.49236,-0.45754,0.50885,-21.96,-12.48,20.7
2.5061,0.19068,-9.9565,0.42302,-0.064141,0.54734,-22.26,-11.94,20.76
2.8058,0.095342,-10.365,0.40531,0.0054978,0.56902,-22.38,-11.64,20.88
2.7104,-0.10896,-10.896,0.2978,0.29963,0.49908,-22.62,-11.04,21.12
3.2144,-0.89894,-11.863,0.15791,0.57452,0.48564,-22.68,-10.62,21.18
3.9635,-1.1441,-12.149,-0.033292,0.89675,0.56566,-22.8,-10.32,21.48
4.5356,-1.1305,-12.122,-0.12187,1.0718,0.60079,-22.86,-9.96,21.66
5.4073,-1.1986,-10.801,-0.27917,1.3864,0.39676,-22.92,-9.24,21.66
5.4073,-0.98067,-9.616,-0.32559,1.1704,0.11118,-23.1,-9.0,21.66
5.0668,-0.8036,-8.5127,-0.30604,0.93004,-0.053145,-23.28,-8.82,21.72
4.5083,-0.8036,-7.5457,-0.25901,0.8262,-0.0051924,-23.7,-8.22,21.54
4.6718,-0.8036,-7.5457,-0.20678,0.81825,0.10385,-23.88,-8.04,21.36
4.9987,-0.74912,-7.7091,-0.15119,0.83017,0.11698,-24.0,-7.8,21.18
5.4618,-0.83084,-7.9407,-0.053145,0.77672,0.054978,-24.3,-7.74,21.06
6.4969,-0.6674,-8.0496,-0.036652,0.55314,0.025351,-25.02,-7.8,20.52
6.7285,-0.55843,-8.0496,-0.015882,0.27336,-0.03879,-25.14,-7.8,20.16
6.6059,-0.068102,-8.0224,-0.0042761,-0.1237,-0.10263,-25.74,-7.92,19.68
6.1292,0.10896,-8.0905,0.025962,-0.43677,-0.12004,-25.92,-7.92,19.32
5.5026,0.38137,-8.036,0.037568,-0.43555,-0.11148,-26.1,-7.92,19.02
5.3256,0.44947,-8.0224,0.044288,-0.24923,-0.050396,-26.22,-7.92,18.84
5.5026,0.95342,-8.0905,0.042761,-0.061697,0.027489,-26.64,-7.86,18.66
5.7614,0.99429,-8.1858,0.076053,-0.071166,0.094379,-26.7,-7.92,18.48
6.4152,0.40861,-8.4174,0.080023,-0.33537,0.12034,-27.0,-7.92,18.3
6.1564,0.19068,-8.3629,0.096822,-0.59834,0.10507,-26.94,-7.8,18.36
5.6661,0.1362,-8.3357,0.098655,-0.7477,0.092546,-27.06,-7.86,18.48
5.2847,-0.081722,-8.2131,0.10965,-0.72998,0.1405,-26.94,-7.86,18.6
5.0123,-0.49033,-8.2812,0.10446,-0.70555,0.1689,-26.7,-7.44,18.78
4.9714,-0.65378,-8.3765,0.10079,-0.73273,0.16768,-26.7,-7.32,18.9
4.7944,-0.62654,-8.3765,0.10599,-0.76755,0.15699,-26.64,-7.2,19.02
4.5083,-0.40861,-8.4719,0.10996,-0.77641,0.1573,-26.46,-7.14,19.32
3.7865,-0.40861,-8.8805,0.12248,-0.67989,0.31796,-25.8,-6.6,19.92
3.7865,-0.40861,-8.8805,0.13317,-0.65301,0.31307,-25.8,-6.6,19.92
3.7592,-0.57205,-9.0303,0.14233,-0.63591,0.28405,-25.26,-6.36,20.58
3.6639,-0.81722,-9.0575,0.14905,-0.62492,0.27581,-25.08,-6.12,20.88
3.2553,-0.99429,-9.3027,0.10812,-0.57146,0.29993,-24.48,-5.82,21.48
3.228,-1.0896,-9.2482,0.025962,-0.39615,0.36835,-24.36,-5.64,21.72
3.1327,-1.2395,-9.0303,-0.06017,-0.12798,0.41447,-24.0,-5.34,22.14
3.2825,-1.0488,-8.6762,-0.18173,0.2584,0.39218,-23.82,-5.22,22.32
3.5549,-0.83084,-8.5127,-0.23335,0.60659,0.35888,-23.76,-5.16,22.56
4.7671,-0.24517,-8.2131,-0.17135,0.478,0.30146,-23.4,-5.04,22.92
4.9714,-0.19068,-8.4446,0.0079412,0.08094,0.18357,-23.4,-4.86,23.1
5.1076,-0.50395,-8.9349,0.16677,-0.51496,0.025656,-23.46,-4.92,23.28
3.909,-1.5527,-9.9292,0.25198,-1.1655,-0.13347,-23.58,-4.62,23.4
2.8739,-1.8387,-10.188,0.20464,-1.0586,-0.23305,-23.52,-4.56,23.46
2.261,-1.7162,-10.256,0.11515,-0.74342,-0.24526,-23.52,-4.5,23.52
1.7025,-1.4165,-9.902,0.048869,-0.3543,-0.28161,-23.22,-4.32,23.82
1.7162,-1.3348,-9.9156,-0.0058032,-0.023824,-0.28405,-23.16,-4.38,23.94
2.4108,-1.0624,-9.7113,-0.045204,0.27367,-0.27611,-22.86,-4.2,24.18
2.7786,-0.89894,-9.8066,-0.057727,0.44166,-0.35644,-22.8,-4.14,24.3
3.1327,-0.83084,-9.7658,-0.082772,0.56719,-0.41966,-22.68,-4.2,24.42
3.6094,-0.64016,-9.2891,-0.11668,0.66248,-0.38637,-22.32,-4.14,24.54
3.8546,-0.64016,-8.9894,-0.12828,0.71716,-0.29474,-22.2,-4.14,24.6
3.9635,-0.72188,-8.826,-0.12675,0.72235,-0.24038,-22.26,-4.2,24.42
4.4675,-0.7355,-8.7034,-0.11209,0.63744,-0.2022,-22.14,-4.32,24.54
4.522,-0.68102,-8.5672,-0.11668,0.59651,-0.19028,-22.08,-4.62,24.6
4.6037,-0.58567,-8.4582,-0.10018,0.44685,-0.13134,-22.26,-4.68,24.6
4.7399,-0.57205,-8.5263,-0.08094,0.36621,-0.10415,-22.56,-4.86,24.18
4.8488,-0.53119,-8.5944,-0.075442,0.28069,-0.080023,-22.74,-5.04,23.94
4.8761,-0.43585,-8.5127,-0.057421,0.17807,-0.057116,-23.16,-5.28,23.58
4.7535,-0.53119,-8.54,-0.036041,-0.01069,-0.022297,-23.4,-5.4,23.4
4.6445,-0.55843,-8.4719,-0.03543,-0.051924,-0.024435,-23.46,-5.58,23.22
4.5356,-0.54481,-8.7715,-0.020159,-0.10293,-0.015882,-23.64,-5.58,23.1
4.413,-0.64016,-8.8668,-0.012523,-0.1069,-0.0048869,-24.06,-6.06,22.68
4.2359,-0.54481,-8.9213,-0.022297,-0.096517,-0.0067195,-24.18,-6.24,22.56
4.2087,-0.47671,-8.9622,-0.023824,-0.075442,-0.013134,-24.12,-6.24,22.56
4.0044,-0.49033,-8.8396,-0.037263,0.011301,0.010079,-24.36,-6.24,22.32
4.1406,-0.54481,-8.7987,-0.048258,0.081551,0.025962,-24.24,-6.24,22.26
4.3721,-0.58567,-8.7851,-0.046731,0.10324,0.032681,-24.18,-6.3,22.14
4.5764,-0.61292,-8.6625,-0.049175,0.094379,0.03879,-24.24,-6.48,22.14
4.6445,-0.6674,-8.7579,-0.034514,0.037263,0.026573,-24.3,-6.6,22.38
4.5356,-0.62654,-8.7306,-0.012523,-0.018631,0.019242,-24.3,-6.42,22.32
4.304,-0.57205,-8.826,-0.01405,-0.067501,0.025656,-24.24,-6.42,22.26
4.2087,-0.62654,-8.8396,-0.026878,-0.065973,0.024435,-24.24,-6.42,22.26
4.2087,-0.61292,-8.8396,-0.023518,-0.04948,0.025656,-24.3,-6.3,22.38
4.1951,-0.58567,-8.8668,-0.034208,-0.0076358,0.043066,-24.12,-6.06,22.44
4.2223,-0.62654,-8.8124,-0.038485,0.028405,0.043677,-24.24,-6.0,22.38
4.2495,-0.54481,-8.9349,-0.040928,0.051313,0.03543,-24.18,-6.06,22.5
4.4402,-0.61292,-8.6762,-0.042455,0.05681,0.040928,-24.24,-5.94,22.5
4.4539,-0.64016,-8.7579,-0.040623,0.039095,0.03543,-24.3,-6.0,22.38
4.522,-0.58567,-8.826,-0.038485,0.021075,0.029016,-24.42,-6.0,22.38
4.4402,-0.58567,-8.7715,-0.025045,-0.020769,0.033903,-24.18,-6.0,22.56
4.3721,-0.58567,-8.826,-0.025351,-0.037568,0.029627,-24.0,-5.88,22.5
4.3177,-0.61292,-8.8532,-0.036041,-0.030238,0.043982,-23.94,-6.0,22.56
4.3177,-0.62654,-8.826,-0.02474,-0.0094684,0.034514,-24.0,-6.0,22.62
4.3721,-0.65378,-8.7715,-0.036652,0.0048869,0.033903,-24.0,-6.0,22.86
4.2904,-0.64016,-8.826,-0.034514,0.015882,0.035125,-23.94,-6.0,22.74
4.3721,-0.5993,-8.7306,-0.027794,0.013439,0.039706,-24.0,-6.06,22.86
4.4675,-0.57205,-8.7851,-0.037263,-0.000611,0.035125,-23.88,-5.88,22.86
4.4402,-0.57205,-8.7987,-0.02474,-0.01741,0.020769,-23.82,-5.94,22.68
4.2632,-0.61292,-8.7851,-0.033598,-0.030849,0.026878,-23.52,-6.06,22.68
4.2495,-0.6674,-8.7851,-0.033292,-0.017104,0.036041,-23.64,-5.94,22.8
4.304,-0.70826,-8.7851,-0.03146,0.019242,0.044288,-23.58,-5.88,22.68
4.3721,-0.77636,-8.8124,-0.03543,0.022297,0.050091,-23.64,-5.82,22.62
4.4811,-0.65378,-8.7579,-0.034819,-0.010079,0.040317,-23.94,-5.64,22.62
4.4811,-0.65378,-8.7579,-0.036652,-0.032376,0.030849,-23.94,-5.64,22.62
4.2087,-0.65378,-8.7579,-0.034819,-0.0061087,0.040317,-23.82,-5.76,22.44
4.3177,-0.62654,-8.8124,-0.041233,0.017715,0.05284,-23.58,-5.82,22.32
4.3449,-0.5993,-8.8124,-0.041844,0.02138,0.053145,-23.52,-5.82,22.32
4.3858,-0.54481,-8.6898,-0.034514,0.019242,0.043371,-23.58,-5.88,22.38
4.3721,-0.57205,-8.7987,-0.036652,0.026878,0.044593,-23.64,-5.88,22.56
4.3994,-0.61292,-8.8532,-0.039401,0.032987,0.039706,-23.82,-5.82,22.56
4.413,-0.68102,-8.7987,-0.03879,0.010385,0.041844,-23.58,-5.82,22.62
4.413,-0.64016,-8.7851,-0.033903,-0.0012217,0.030849,-23.64,-5.82,22.68
4.2632,-0.62654,-8.8805,-0.036346,0.0012217,0.030543,-23.58,-5.94,22.56
4.2904,-0.64016,-8.7987,-0.034514,0.0045815,0.035736,-23.76,-5.64,22.74
4.2495,-0.6674,-8.8396,-0.036041,0.0036652,0.020464,-23.94,-5.7,22.74
4.3449,-0.70826,-8.9349,-0.033598,0.018937,0.026573,-23.82,-5.76,22.74
4.3585,-0.62654,-8.7443,-0.039706,0.02474,0.025656,-23.82,-5.7,22.8
4.3858,-0.70826,-8.7715,-0.038485,0.026267,0.0061087,-23.88,-5.76,22.74
4.3177,-0.61292,-8.7987,-0.029322,0.032681,0.019548,-24.12,-5.76,22.8
4.4266,-0.6674,-8.8941,-0.039706,0.036041,0.021686,-24.06,-5.76,22.86
4.4402,-0.64016,-8.8668,-0.039401,0.019853,0.028711,-24.3,-5.76,22.8
4.4675,-0.7355,-8.826,-0.03207,-0.0024435,0.0082467,-24.42,-5.76,22.68
4.3858,-0.69464,-8.8532,-0.041233,-0.011301,0.0088575,-24.42,-5.7,22.68
4.3994,-0.6674,-8.8532,-0.052534,0.0051924,0.015272,-24.54,-5.76,22.68
4.4402,-0.64016,-8.8532,-0.045204,-0.0018326,0.000305,-24.54,-5.82,22.74
4.3721,-0.62654,-8.7443,-0.044288,-0.0085521,-0.0027489,-24.66,-5.88,22.68
4.413,-0.70826,-8.7034,-0.040012,-0.0042761,-0.014966,-24.66,-5.82,22.68
4.3585,-0.64016,-8.6762,-0.039401,0.0076358,0.0085521,-24.6,-5.94,22.5
4.4675,-0.61292,-8.8124,-0.044593,0.019853,0.015882,-24.66,-5.88,22.44
4.4811,-0.64016,-8.7851,-0.038485,0.0094684,0.016799,-24.72,-5.7,22.44
4.4539,-0.61292,-8.8124,-0.035125,-0.0097738,0.020464,-24.54,-5.7,22.32
4.4266,-0.5993,-8.8941,-0.043066,-0.032376,0.0064141,-24.54,-5.7,22.5
4.3858,-0.65378,-8.8532,-0.032987,-0.022297,0.0015272,-24.54,-5.7,22.5
4.3177,-0.6674,-8.8668,-0.041233,-0.0085521,-0.002138,-24.48,-5.7,22.38
4.413,-0.5993,-8.7987,-0.03879,0.0079412,-0.0042761,-24.36,-5.7,22.44
4.4402,-0.64016,-8.7306,-0.037568,0.014966,0.0045815,-24.3,-5.7,22.44
4.413,-0.74912,-8.7851,-0.044288,-0.000305,-0.0030543,-24.12,-5.58,22.38
4.4266,-0.6674,-8.7715,-0.038179,-0.0012217,0.011301,-24.12,-5.64,22.38
4.4266,-0.64016,-8.7987,-0.04215,-0.016799,0.0054978,-24.12,-5.7,22.5
4.2904,-0.64016,-8.8124,-0.040012,-0.013439,0.0067195,-24.24,-5.64,22.68
4.304,-0.64016,-8.8668,-0.043677,0.0094684,0.0045815,-24.24,-5.82,22.74
4.3721,-0.62654,-8.7715,-0.041539,0.020769,0.0015272,-24.24,-5.82,22.86
4.4402,-0.61292,-8.826,-0.041233,0.030849,0.0033598,-24.3,-5.82,22.98
4.4947,-0.55843,-8.826,-0.047953,0.028405,0.0015272,-24.36,-5.76,22.86
4.4811,-0.50395,-8.8805,-0.033292,0.0045815,-0.01405,-24.24,-5.82,22.86
4.3449,-0.64016,-8.826,-0.039401,-0.0030543,-0.025962,-24.18,-5.88,22.86
4.3449,-0.6674,-8.8668,-0.047037,0.03146,-0.017104,-24.3,-5.88,22.92
4.413,-0.64016,-8.8668,-0.047953,0.044288,-0.002138,-24.36,-6.0,22.86
4.4402,-0.61292,-8.8532,-0.04948,0.03207,0.000916,-24.36,-6.0,22.86
4.4402,-0.55843,-8.8124,-0.04215,0.016493,-0.019548,-24.36,-5.94,22.92
4.4266,-0.61292,-8.7034,-0.050702,0.016799,-0.017104,-24.36,-5.94,22.86
4.3994,-0.57205,-8.7034,-0.051007,0.020464,-0.024129,-24.36,-6.0,22.56
4.3585,-0.51757,-8.6898,-0.043371,0.026878,-0.032681,-24.36,-5.94,22.68
4.3994,-0.53119,-8.826,-0.046731,0.033598,-0.018937,-24.36,-6.0,22.62
4.4947,-0.5993,-8.8396,-0.040012,0.032987,-0.022297,-24.24,-6.0,22.44
4.413,-0.55843,-8.7715,-0.053145,0.028405,-0.025962,-24.24,-6.12,22.38
4.3858,-0.50395,-8.8396,-0.046426,0.032987,-0.026267,-24.3,-6.12,22.2
4.4675,-0.57205,-8.7579,-0.051924,0.049786,-0.016799,-24.3,-6.3,22.2
4.522,-0.53119,-8.7987,-0.053451,0.051007,-0.01741,-24.18,-6.36,22.08
4.5628,-0.47671,-8.7715,-0.052229,0.033292,-0.021075,-24.36,-6.36,22.14
4.4675,-0.50395,-8.7443,-0.052229,0.033903,-0.0281,-24.3,-6.42,22.14
4.4811,-0.47671,-8.7034,-0.048869,0.036957,-0.025656,-24.24,-6.48,22.14
4.4539,-0.57205,-8.7715,-0.049175,0.056505,-0.019853,-24.3,-6.48,22.2
4.4811,-0.50395,-8.826,-0.047647,0.066279,-0.026267,-24.3,-6.54,22.32
4.5492,-0.49033,-8.6762,-0.04948,0.064446,-0.021686,-24.3,-6.48,22.26
4.5901,-0.54481,-8.6762,-0.051007,0.058643,-0.015882,-24.3,-6.6,22.2
4.5628,-0.46309,-8.6762,-0.054367,0.061087,-0.010996,-24.42,-6.72,22.38
4.6718,-0.57205,-8.7034,-0.042455,0.0562,-0.015577,-24.36,-6.6,22.38
4.6037,-0.53119,-8.6625,-0.044899,0.040012,-0.0018326,-24.3,-6.54,22.44
4.6445,-0.50395,-8.6217,-0.045815,0.025962,0.000305,-24.3,-6.3,22.62
4.7126,-0.47671,-8.6762,-0.043982,0.012828,0.0048869,-24.36,-6.36,22.56
4.6718,-0.47671,-8.6217,-0.044593,-0.0018326,0.013439,-24.36,-6.36,22.62
4.6718,-0.50395,-8.6762,-0.043066,-0.030238,0.0061087,-24.36,-6.42,22.56
4.6037,-0.47671,-8.7034,-0.039706,-0.018326,0.010079,-24.36,-6.36,22.56
4.4539,-0.46309,-8.6625,-0.042455,-0.0048869,0.01069,-24.48,-6.3,22.5
4.5356,-0.43585,-8.7443,-0.044288,0.019548,0.011301,-24.42,-6.24,22.44
4.6445,-0.40861,-8.7034,-0.042455,0.023518,0.015272,-24.48,-6.36,22.32
4.7126,-0.47671,-8.6081,-0.032681,0.010996,0.015272,-24.54,-6.42,22.26
4.7126,-0.50395,-8.7851,-0.039706,-0.0018326,0.0088575,-24.6,-6.42,22.14
4.5901,-0.46309,-8.6762,-0.039095,-0.0088575,0.01405,-24.66,-6.42,22.2
4.6173,-0.46309,-8.6762,-0.040012,-0.007025,0.009163,-24.72,-6.48,22.2
4.5764,-0.44947,-8.5672,-0.036041,0.0097738,0.0076358,-24.96,-6.42,22.2
4.5628,-0.44947,-8.6353,-0.044899,0.020464,0.023213,-24.96,-6.42,22.08
4.6718,-0.44947,-8.7306,-0.036346,0.021686,0.020159,-24.9,-6.54,21.96
4.6854,-0.47671,-8.6762,-0.040012,0.000611,0.0079412,-25.02,-6.36,21.9
4.5492,-0.53119,-8.6762,-0.046731,-0.0061087,0.011606,-25.08,-6.48,21.78
4.5628,-0.55843,-8.8396,-0.033598,0.0036652,0.01405,-25.02,-6.54,21.78
4.5901,-0.53119,-8.717,-0.046426,0.0085521,0.011301,-25.08,-6.54,21.72
4.6445,-0.49033,-8.7034,-0.042455,0.01069,0.0051924,-25.2,-6.54,21.72
4.5764,-0.49033,-8.7851,-0.035125,0.015882,0.0097738,-25.08,-6.36,21.96
4.6582,-0.36775,-8.6762,-0.050702,0.034514,0.018021,-24.96,-6.42,21.78
4.6445,-0.50395,-8.7715,-0.037568,0.034514,0.0079412,-24.96,-6.48,21.72
4.6309,-0.50395,-8.7443,-0.037263,0.032681,0.012523,-24.84,-6.54,21.78
4.6445,-0.51757,-8.5944,-0.04612,0.018631,0.027489,-24.78,-6.6,21.72
4.6445,-0.47671,-8.7034,-0.036652,0.009163,0.037263,-24.84,-6.6,21.72
4.6854,-0.47671,-8.5944,-0.031765,-0.014661,0.041844,-24.9,-6.36,21.84
4.6445,-0.57205,-8.717,-0.021991,-0.022297,0.029322,-24.9,-6.42,21.84
4.5764,-0.50395,-8.7851,-0.030543,-0.019853,0.028405,-25.02,-6.42,21.96
4.5356,-0.40861,-8.6762,-0.039401,-0.016493,0.023518,-25.08,-6.42,21.96
4.4947,-0.35413,-8.7443,-0.046731,0.020464,0.024129,-25.08,-6.36,21.9
4.6718,-0.42223,-8.6898,-0.043066,0.036957,0.031765,-24.9,-6.36,22.02
4.7535,-0.46309,-8.6489,-0.043677,0.027184,0.035736,-24.96,-6.42,21.84
4.7671,-0.49033,-8.6762,-0.03207,0.0036652,0.023824,-25.02,-6.42,22.02
4.6718,-0.50395,-8.6217,-0.035125,-0.010385,0.033598,-24.96,-6.36,22.08
4.6445,-0.54481,-8.5944,-0.030543,-0.012217,0.035736,-25.08,-6.36,21.96
4.6718,-0.53119,-8.717,-0.030238,-0.014661,0.040623,-25.02,-6.3,21.9
4.6037,-0.53119,-8.6762,-0.03146,-0.031765,0.034514,-25.08,-6.54,22.02
4.5628,-0.51757,-8.7443,-0.031765,-0.02474,0.043982,-25.08,-6.54,21.9
4.5083,-0.53119,-8.7443,-0.030238,-0.019242,0.042761,-24.96,-6.6,21.9
4.6173,-0.55843,-8.6762,-0.025045,-0.016799,0.044899,-24.9,-6.48,21.84
4.5492,-0.46309,-8.7306,-0.027794,-0.015272,0.051007,-24.72,-6.54,21.84
4.6582,-0.50395,-8.7306,-0.027794,-0.0058032,0.045815,-24.72,-6.6,21.72
4.699,-0.46309,-8.7715,-0.035125,-0.0073304,0.041844,-24.66,-6.6,21.72
4.6718,-0.44947,-8.7443,-0.028405,-0.0073304,0.027184,-24.66,-6.66,21.84
4.6173,-0.42223,-8.7443,-0.037874,-0.0039706,0.036652,-24.72,-6.72,21.84
4.6037,-0.50395,-8.6353,-0.02474,-0.015882,0.025045,-24.84,-6.72,21.72
4.5764,-0.58567,-8.6489,-0.02474,-0.011606,0.022297,-24.72,-6.78,21.72
4.5083,-0.55843,-8.6625,-0.040623,0.0079412,0.03146,-24.72,-6.78,21.72
4.6037,-0.53119,-8.6625,-0.036041,0.015272,0.030849,-24.48,-6.78,21.78
4.6582,-0.49033,-8.717,-0.03879,0.0094684,0.039401,-24.36,-6.66,21.84
4.6718,-0.54481,-8.6625,-0.041539,-0.01069,0.040317,-24.48,-6.48,21.9
4.5628,-0.50395,-8.6489,-0.032376,-0.022297,0.029016,-24.54,-6.48,21.9
4.5356,-0.49033,-8.6762,-0.028405,-0.023824,0.031765,-24.6,-6.3,21.84
4.4947,-0.40861,-8.7987,-0.0281,-0.015272,0.031765,-24.66,-6.18,22.02
4.6582,-0.46309,-8.7715,-0.032681,-0.0036652,0.036041,-24.66,-6.06,22.08
4.6582,-0.50395,-8.717,-0.029016,-0.013439,0.030849,-24.72,-5.94,22.14
4.5356,-0.5993,-8.7306,-0.034208,-0.0015272,0.030238,-24.66,-5.94,22.2
4.5628,-0.55843,-8.6081,-0.035736,0.012217,0.022297,-24.54,-5.88,22.26
4.5901,-0.51757,-8.5808,-0.032681,0.020464,0.022602,-24.54,-5.82,22.26
4.5492,-0.47671,-8.6081,-0.027489,0.030543,0.022907,-24.54,-5.76,22.2
4.7263,-0.46309,-8.6898,-0.025045,0.018326,0.044899,-24.66,-5.7,22.14
4.7399,-0.55843,-8.6625,-0.024129,-0.019548,0.045509,-24.78,-5.88,22.02
4.7807,-0.72188,-8.7306,-0.031154,-0.065057,0.047037,-24.66,-6.0,21.84
4.5356,-0.7355,-8.6762,-0.029016,-0.068722,0.061392,-24.48,-5.94,21.9
4.4402,-0.6674,-8.6081,-0.039095,-0.045509,0.071166,-24.36,-6.0,21.96
4.413,-0.58567,-8.7306,-0.033292,-0.039706,0.067501,-24.3,-6.12,22.08
4.413,-0.57205,-8.717,-0.025656,-0.023518,0.057421,-24.42,-6.24,22.08
4.5083,-0.40861,-8.7987,-0.023518,-0.028405,0.04948,-24.48,-6.3,21.78
4.5083,-0.40861,-8.826,-0.015577,-0.024435,0.040623,-24.48,-6.24,21.6
4.5492,-0.44947,-8.7306,-0.024435,-0.0076358,0.04215,-24.54,-6.36,21.54
4.4811,-0.69464,-8.7579,-0.025656,-0.0082467,0.039095,-24.54,-6.36,21.66
4.5083,-0.7355,-8.717,-0.029016,-0.01069,0.047953,-24.6,-6.36,21.6
4.4811,-0.6674,-8.6762,-0.037263,-0.015577,0.058032,-24.6,-6.3,21.66
4.6445,-0.62654,-8.7987,-0.037263,-0.033903,0.057116,-24.72,-6.12,21.72
4.6173,-0.61292,-8.7987,-0.032987,-0.060476,0.051618,-24.78,-6.12,21.84
4.5764,-0.55843,-8.7715,-0.039095,-0.084299,0.041233,-24.84,-6.18,21.9
4.2768,-0.65378,-8.7306,-0.038485,-0.051007,0.038485,-24.96,-6.06,21.9
4.2768,-0.57205,-8.7715,-0.036957,-0.02474,0.038179,-25.08,-6.06,21.84
4.4402,-0.58567,-8.6762,-0.037874,0.019242,0.04215,-24.96,-6.0,21.78
4.5764,-0.54481,-8.6353,-0.047647,-0.000305,0.027794,-25.02,-5.88,21.9
4.5764,-0.49033,-8.7987,-0.030543,-0.023213,0.015577,-25.02,-5.88,21.9
4.5083,-0.49033,-8.7306,-0.032987,-0.029627,0.009163,-24.96,-5.7,21.96
4.3721,-0.54481,-8.7034,-0.035736,-0.021075,-0.0079412,-25.02,-5.64,22.2
4.3585,-0.50395,-8.5808,-0.031765,0.0076358,-0.0061087,-25.02,-5.76,22.32
4.4811,-0.58567,-8.7715,-0.029322,0.01069,-0.0030543,-25.08,-5.82,22.32
4.5356,-0.61292,-8.9213,-0.031154,0.0027489,-0.0058032,-24.96,-6.0,22.38
4.5628,-0.64016,-8.8124,-0.040317,-0.011606,-0.0082467,-24.9,-6.06,22.32
4.4539,-0.6674,-8.7579,-0.046426,-0.009163,-0.014355,-24.84,-6.06,22.14
4.3721,-0.62654,-8.6762,-0.035125,-0.010385,-0.020769,-24.84,-6.3,22.14
4.3721,-0.5993,-8.7987,-0.032681,0.016493,-0.024129,-24.84,-6.24,22.08
4.4947,-0.61292,-8.7987,-0.047647,0.032987,-0.018631,-24.84,-6.24,22.2
4.5083,-0.50395,-8.6762,-0.025656,0.039095,-0.030849,-24.78,-6.24,21.96
4.5083,-0.54481,-8.6353,-0.026878,0.054978,-0.028711,-24.96,-6.3,22.02
4.4947,-0.55843,-8.6762,-0.013134,0.058948,-0.034819,-24.9,-6.36,22.14
4.5628,-0.61292,-8.6762,-0.0039706,0.025962,-0.040928,-24.72,-6.36,21.96
4.5356,-0.65378,-8.8941,-0.0076358,0.036652,-0.031765,-24.78,-6.3,22.02
4.6037,-0.64016,-8.9349,-0.013134,0.050396,-0.030849,-24.66,-6.36,21.96
4.5356,-0.51757,-8.8532,-0.021686,0.023518,-0.038179,-24.6,-6.3,21.78
4.4402,-0.49033,-8.717,-0.029627,0.015577,-0.039706,-24.66,-6.18,21.96
4.3721,-0.53119,-8.7715,-0.045509,0.053451,-0.042455,-24.6,-6.12,22.02
4.5083,-0.54481,-8.7851,-0.041233,0.088575,-0.024435,-24.6,-6.18,21.96
4.5764,-0.55843,-8.7987,-0.043371,0.09499,-0.024435,-24.66,-6.24,21.9
4.6718,-0.57205,-8.717,-0.043371,0.088575,-0.031154,-24.72,-6.36,21.84
4.6582,-0.55843,-8.6489,-0.047037,0.069639,-0.024435,-24.6,-6.42,21.96
4.6718,-0.57205,-8.6898,-0.042761,0.062003,-0.016799,-24.42,-6.36,22.08
4.6718,-0.57205,-8.6762,-0.042761,0.042761,-0.017715,-24.54,-6.36,21.84
4.6854,-0.55843,-8.6217,-0.045509,0.021686,-0.012217,-24.54,-6.48,21.84
4.5764,-0.55843,-8.6898,-0.044288,0.011606,-0.013134,-24.72,-6.66,21.54
4.5492,-0.57205,-8.7715,-0.049786,0.035736,0.000611,-24.72,-6.66,21.54
4.6309,-0.57205,-8.6762,-0.039401,0.041844,0.000916,-24.78,-6.6,21.6
4.699,-0.50395,-8.6353,-0.047342,0.055283,0.0033598,-24.72,-6.72,21.48
4.7399,-0.50395,-8.6081,-0.041844,0.042455,0.0067195,-24.72,-6.78,21.42
4.699,-0.47671,-8.6081,-0.033292,0.029932,0.000305,-24.72,-6.72,21.54
4.6718,-0.51757,-8.6762,-0.038179,0.027794,0.0097738,-24.9,-6.6,21.6
4.6854,-0.47671,-8.7306,-0.040928,0.013439,0.0039706,-24.9,-6.54,21.6
4.699,-0.53119,-8.717,-0.033598,0.011606,0.0073304,-24.9,-6.48,21.54
4.7399,-0.43585,-8.6081,-0.040317,0.025351,0.015577,-25.02,-6.54,21.42
4.7671,-0.50395,-8.6217,-0.032681,0.027794,0.011912,-24.96,-6.42,21.54
4.7944,-0.61292,-8.6353,-0.029627,0.010385,0.019548,-25.02,-6.24,21.54
4.6718,-0.51757,-8.5808,-0.039095,-0.0039706,0.026267,-25.2,-6.3,21.72
4.7535,-0.50395,-8.6353,-0.04215,-0.010385,0.026573,-25.14,-6.24,21.84
4.7263,-0.44947,-8.6081,-0.037263,-0.01741,0.0281,-25.2,-6.18,21.84
4.699,-0.50395,-8.7306,-0.029627,-0.026573,0.028711,-25.26,-6.18,21.96
4.6309,-0.47671,-8.6762,-0.032987,-0.020159,0.016799,-25.32,-6.12,21.96
4.5764,-0.44947,-8.6217,-0.040928,-0.0027489,0.017104,-25.2,-6.12,21.9
4.699,-0.46309,-8.6625,-0.034819,0.015882,0.017715,-25.02,-6.24,22.02
4.7263,-0.51757,-8.6489,-0.030238,0.015272,0.018631,-25.02,-6.24,21.96
4.7807,-0.54481,-8.6081,-0.037874,0.0012217,0.015577,-25.08,-6.3,21.9
4.6854,-0.55843,-8.7306,-0.031154,-0.011912,0.0085521,-24.9,-6.24,21.96
4.6309,-0.57205,-8.6762,-0.03879,-0.0042761,0.021075,-24.84,-6.42,21.9
4.6445,-0.50395,-8.6217,-0.03146,-0.0036652,0.031765,-24.84,-6.6,22.14
4.6582,-0.50395,-8.7034,-0.032681,-0.0039706,0.022907,-24.54,-6.48,22.08
4.7126,-0.49033,-8.6353,-0.039401,-0.0094684,0.015577,-24.66,-6.54,21.9
4.6854,-0.50395,-8.7306,-0.033903,-0.0067195,0.01741,-24.66,-6.6,21.84
4.6309,-0.46309,-8.5944,-0.036041,0.0042761,0.0076358,-24.48,-6.72,21.78
4.6445,-0.42223,-8.6625,-0.03543,0.0051924,0.0079412,-24.48,-6.78,21.84
4.7126,-0.42223,-8.7034,-0.036652,0.0082467,0.0076358,-24.6,-6.78,21.84
4.699,-0.47671,-8.6489,-0.038179,0.0088575,-0.0015272,-24.72,-6.66,21.78
4.6582,-0.51757,-8.6217,-0.036346,0.0085521,-0.009163,-24.6,-6.6,21.72
4.699,-0.55843,-8.6898,-0.035736,0.031765,-0.0042761,-24.48,-6.6,21.72
4.699,-0.50395,-8.6489,-0.047342,0.059559,-0.0094684,-24.72,-6.54,21.96
4.699,-0.53119,-8.6353,-0.030543,0.045204,-0.0082467,-24.9,-6.54,21.9
4.699,-0.61292,-8.6081,-0.03207,0.039401,-0.0042761,-24.84,-6.42,21.66
4.7399,-0.54481,-8.6353,-0.037263,0.03543,0.011606,-24.9,-6.36,21.78
4.7399,-0.5993,-8.6489,-0.046731,0.03207,0.032376,-24.84,-6.18,21.84
4.7944,-0.57205,-8.6489,-0.047953,0.025962,0.023824,-24.9,-6.12,21.9
4.7671,-0.54481,-8.5672,-0.033598,-0.011912,0.019548,-24.9,-6.18,21.78
4.6718,-0.55843,-8.6489,-0.039401,-0.020769,0.014661,-24.9,-6.06,21.78
4.6582,-0.49033,-8.5944,-0.035736,-0.0024435,0.016799,-24.9,-6.0,21.72
4.7399,-0.44947,-8.6353,-0.041233,0.022907,0.026267,-24.96,-6.18,21.54
4.8216,-0.44947,-8.717,-0.040928,0.010385,0.016799,-25.14,-6.18,21.6
4.7535,-0.40861,-8.6762,-0.04215,0.012217,0.013744,-25.2,-6.12,21.6
4.7399,-0.46309,-8.54,-0.039095,0.027184,0.013134,-25.26,-6.24,21.6
4.7535,-0.47671,-8.5672,-0.044899,0.039401,0.022907,-25.26,-6.18,21.48
4.7807,-0.39499,-8.5944,-0.044288,0.036957,0.01741,-25.44,-6.18,21.42
4.808,-0.44947,-8.6353,-0.029322,0.020464,0.019853,-25.38,-6.3,21.18
4.8625,-0.50395,-8.54,-0.026267,-0.0051924,0.026267,-25.38,-6.48,21.18
4.8352,-0.55843,-8.6081,-0.019548,-0.031765,0.020464,-25.32,-6.48,21.18
4.7263,-0.57205,-8.5808,-0.023213,-0.040317,0.02138,-25.38,-6.54,21.24
4.6173,-0.58567,-8.6081,-0.03207,-0.028711,0.032376,-25.44,-6.66,21.18
4.6718,-0.58567,-8.6489,-0.030238,-0.0088575,0.048564,-25.44,-6.66,21.3
4.6718,-0.58567,-8.717,-0.031154,-0.0012217,0.057727,-25.38,-6.72,21.36
4.7535,-0.54481,-8.6353,-0.040928,-0.0024435,0.047342,-25.08,-6.66,21.42
4.7807,-0.50395,-8.5808,-0.038485,-0.0058032,0.050702,-25.02,-6.78,21.42
4.7671,-0.47671,-8.7034,-0.028711,0.0048869,0.043371,-25.02,-6.84,21.24
4.8216,-0.40861,-8.6489,-0.024435,-0.01069,0.043066,-24.96,-6.78,21.24
4.8216,-0.40861,-8.6489,-0.026267,-0.020464,0.032681,-24.96,-6.78,21.24
4.6854,-0.54481,-8.6353,-0.032376,-0.019548,0.045509,-24.9,-6.9,21.3
4.7399,-0.5993,-8.54,-0.037568,-0.0079412,0.052229,-24.78,-6.84,21.36
4.7263,-0.57205,-8.6081,-0.034819,-0.0036652,0.052229,-24.78,-6.84,21.3
4.7535,-0.5993,-8.6353,-0.036957,0.0024435,0.053451,-24.84,-6.84,21.48
4.7807,-0.5993,-8.6489,-0.033903,-0.021686,0.034819,-24.96,-6.78,21.3
4.699,-0.50395,-8.6081,-0.022297,-0.023213,0.026267,-24.9,-6.84,21.18
4.6854,-0.40861,-8.6217,-0.040928,-0.0054978,0.043066,-24.96,-6.84,21.18
4.7126,-0.50395,-8.5808,-0.030849,0.0015272,0.051618,-25.14,-6.66,21.18
4.7399,-0.53119,-8.6489,-0.028405,-0.012828,0.044288,-25.26,-6.6,21.24
4.7399,-0.54481,-8.6489,-0.032681,-0.020159,0.043066,-25.26,-6.6,21.48
4.6445,-0.61292,-8.5944,-0.034514,-0.0073304,0.043982,-25.38,-6.54,21.42
4.7126,-0.57205,-8.5808,-0.029322,-0.0051924,0.038485,-25.38,-6.48,21.48
4.6582,-0.57205,-8.6353,-0.033292,-0.0073304,0.040317,-25.5,-6.6,21.48
4.699,-0.54481,-8.7034,-0.028405,-0.009163,0.040623,-25.56,-6.48,21.36
4.699,-0.57205,-8.6625,-0.031154,-0.018937,0.043371,-25.5,-6.48,21.48
4.7126,-0.61292,-8.6762,-0.024129,-0.027489,0.039095,-25.5,-6.42,21.36
4.699,-0.5993,-8.7034,-0.03207,-0.020464,0.043677,-25.38,-6.36,21.42
4.699,-0.5993,-8.5672,-0.025962,-0.021991,0.034819,-25.44,-6.3,21.54
4.6718,-0.5993,-8.7443,-0.032987,-0.0064141,0.044593,-25.38,-6.3,21.6
4.699,-0.62654,-8.7443,-0.029627,0.0048869,0.03879,-25.32,-6.36,21.54
4.6445,-0.57205,-8.6898,-0.027489,0.0024435,0.026573,-25.26,-6.42,21.66
4.6445,-0.53119,-8.7034,-0.027489,0.0024435,0.026573,-25.14,-6.36,21.48
4.7126,-0.53119,-8.7034,-0.03207,0.0045815,0.033598,-25.08,-6.42,21.54
4.7399,-0.55843,-8.717,-0.039095,0.0048869,0.037263,-25.08,-6.48,21.54
4.5764,-0.68102,-8.6898,-0.028711,-0.0036652,0.029016,-25.02,-6.54,21.54
4.6445,-0.65378,-8.6762,-0.036957,0.015272,0.038485,-24.96,-6.54,21.66
4.7671,-0.61292,-8.6762,-0.037874,0.0088575,0.035125,-25.14,-6.6,21.66
4.7807,-0.61292,-8.7306,-0.040317,-0.011606,0.019853,-25.14,-6.6,21.84
4.6582,-0.58567,-8.7034,-0.037263,-0.017104,0.0082467,-25.2,-6.54,21.9
4.6582,-0.57205,-8.6762,-0.037263,-0.0033598,0.01069,-25.2,-6.54,21.84
4.699,-0.61292,-8.717,-0.03879,0.01741,0.022297,-25.2,-6.54,21.78
4.6854,-0.5993,-8.7034,-0.039706,0.021991,0.017715,-25.2,-6.54,21.72
4.7944,-0.65378,-8.717,-0.041844,0.016799,0.018326,-25.14,-6.48,21.66
4.7399,-0.6674,-8.6625,-0.041539,-0.012523,0.0036652,-25.2,-6.42,21.72
4.699,-0.5993,-8.6625,-0.042761,-0.0045815,0.0015272,-25.2,-6.3,21.6
4.6445,-0.5993,-8.6489,-0.043066,0.0067195,-0.0051924,-25.02,-6.12,21.54
4.6718,-0.57205,-8.5672,-0.037568,0.016493,0.0024435,-25.2,-6.12,21.6
4.7807,-0.50395,-8.7034,-0.036346,0.013744,0.0045815,-25.08,-6.0,21.66
4.699,-0.6674,-8.6489,-0.02474,-0.011606,0.0064141,-24.96,-6.06,21.6
4.6445,-0.64016,-8.6762,-0.031765,-0.0088575,0.0061087,-24.96,-6.06,21.54
4.6854,-0.65378,-8.7306,-0.035736,-0.007025,0.0024435,-24.9,-6.18,21.54
4.6445,-0.62654,-8.6625,-0.041233,-0.002138,0.0094684,-24.84,-6.18,21.54
4.6173,-0.54481,-8.6353,-0.036346,0.0033598,0.0036652,-24.9,-6.24,21.66
4.699,-0.55843,-8.6762,-0.040623,0.010996,0.012217,-24.84,-6.12,21.72
4.7263,-0.6674,-8.6762,-0.040317,0.013134,0.010385,-24.96,-6.24,21.6
4.7126,-0.5993,-8.7715,-0.038179,0.018937,0.0045815,-24.9,-6.36,21.48
4.7399,-0.50395,-8.6898,-0.044288,0.0088575,-0.000916,-24.78,-6.48,21.54
4.699,-0.62654,-8.6625,-0.038179,0.000305,-0.0082467,-24.78,-6.48,21.54
4.6445,-0.61292,-8.5808,-0.039706,0.010996,-0.0085521,-24.6,-6.3,21.6
4.6718,-0.64016,-8.5808,-0.046426,0.030543,-0.0012217,-24.66,-6.24,21.6
4.7126,-0.64016,-8.5808,-0.043982,0.03207,0.0012217,-24.6,-6.24,21.66
4.7671,-0.57205,-8.5808,-0.04215,0.010385,-0.0024435,-24.66,-6.3,21.6
4.7399,-0.50395,-8.6353,-0.046731,-0.000916,-0.014661,-24.72,-6.3,21.54
4.7126,-0.50395,-8.6762,-0.044288,-0.0018326,-0.019853,-24.9,-6.3,21.6
4.699,-0.50395,-8.6625,-0.045204,0.017104,-0.0039706,-24.84,-6.24,21.48
4.6854,-0.53119,-8.6353,-0.039095,0.017715,-0.010079,-24.9,-6.24,21.54
4.7807,-0.50395,-8.6625,-0.041233,0.025351,-0.0036652,-24.84,-6.3,21.54
4.7671,-0.55843,-8.6353,-0.033292,0.015577,0.000305,-24.96,-6.24,21.66
4.7671,-0.51757,-8.6489,-0.03207,-0.002138,-0.0027489,-24.96,-6.18,21.78
4.7535,-0.58567,-8.6081,-0.032376,0.0042761,0.000916,-25.02,-6.18,21.6
4.7399,-0.58567,-8.6353,-0.037263,-0.010385,0.011301,-25.02,-6.24,21.54
4.699,-0.51757,-8.5536,-0.039401,-0.017715,0.018937,-25.2,-6.42,21.42
4.699,-0.58567,-8.6081,-0.042761,0.0054978,0.026267,-25.32,-6.36,21.36
4.7263,-0.57205,-8.6217,-0.044593,0.0085521,0.026267,-25.38,-6.3,21.3
4.7399,-0.51757,-8.6081,-0.036346,0.0036652,0.025045,-25.14,-6.36,21.36
4.7671,-0.46309,-8.6081,-0.032681,-0.0012217,0.025351,-25.08,-6.36,21.42
4.7399,-0.47671,-8.6217,-0.025656,-0.0058032,0.020464,-25.2,-6.3,21.54
4.699,-0.50395,-8.6489,-0.038179,-0.0039706,0.012828,-25.2,-6.42,21.6
4.6718,-0.53119,-8.6762,-0.027489,-0.010996,0.0058032,-25.32,-6.36,21.6
4.6854,-0.55843,-8.717,-0.039095,0.01405,0.01069,-25.2,-6.3,21.6
4.7399,-0.50395,-8.6489,-0.025656,0.015272,0.0030543,-25.32,-6.36,21.48
4.699,-0.61292,-8.6762,-0.03207,0.0061087,0.0018326,-25.26,-6.3,21.6
4.699,-0.62654,-8.6353,-0.032987,0.0033598,0.0033598,-25.14,-6.3,21.6
4.7671,-0.61292,-8.5808,-0.045509,0.025656,0.018937,-25.02,-6.54,21.54
4.8761,-0.5993,-8.6353,-0.04215,0.0079412,0.026573,-24.9,-6.42,21.6
4.6854,-0.57205,-8.6489,-0.031154,-0.026573,0.018021,-24.96,-6.66,21.54
4.6854,-0.57205,-8.6353,-0.041233,-0.023213,0.0045815,-24.66,-6.78,21.6
4.6309,-0.57205,-8.6898,-0.03543,0.0045815,0.017104,-24.42,-6.54,21.48
4.6854,-0.49033,-8.6625,-0.037568,0.015272,0.018631,-24.42,-6.6,21.36
4.7944,-0.49033,-8.6081,-0.031765,0.021991,0.012523,-24.36,-6.66,21.36
4.8488,-0.55843,-8.6081,-0.036652,0.010996,0.01405,-24.48,-6.72,21.48
4.7944,-0.6674,-8.6353,-0.040012,-0.0058032,0.0051924,-24.48,-6.78,21.66
4.6445,-0.5993,-8.7851,-0.042455,-0.0064141,0.0030543,-24.42,-6.6,21.48
4.6582,-0.50395,-8.6081,-0.037874,0.020159,0.000916,-24.36,-6.48,21.48
4.7399,-0.44947,-8.5536,-0.044899,0.02474,0.0033598,-24.36,-6.36,21.36
4.6854,-0.44947,-8.5808,-0.037874,0.029322,0.0033598,-24.78,-6.18,21.3
4.699,-0.44947,-8.5536,-0.028405,0.038485,0.0048869,-24.72,-6.36,21.24
4.8761,-0.53119,-8.7034,-0.033903,0.021991,0.021991,-24.84,-6.3,21.48
4.8488,-0.51757,-8.6081,-0.029016,-0.0058032,0.026878,-24.9,-6.3,21.36
4.8488,-0.61292,-8.6081,-0.03146,-0.021075,0.022602,-24.9,-6.18,21.3
4.7399,-0.70826,-8.6762,-0.033903,-0.027184,0.028711,-24.78,-6.18,21.3
4.699,-0.57205,-8.5808,-0.033292,-0.0064141,0.033598,-24.66,-6.12,21.24
4.6718,-0.54481,-8.6489,-0.037568,-0.0058032,0.029322,-24.72,-6.06,21.18
4.699,-0.50395,-8.6625,-0.039095,0.018326,0.025656,-24.84,-6.18,21.18
4.699,-0.40861,-8.6353,-0.043677,0.019242,0.02474,-24.96,-6.18,21.12
4.699,-0.47671,-8.54,-0.030543,0.032681,0.01069,-24.96,-6.12,21.18
4.7671,-0.57205,-8.6081,-0.041539,0.032376,0.024129,-25.14,-6.36,21.18
4.7671,-0.53119,-8.6489,-0.03207,0.029016,0.029932,-25.08,-6.36,21.12
4.7807,-0.61292,-8.6625,-0.03879,0.012828,0.037568,-25.08,-6.42,21.18
4.7671,-0.5993,-8.6625,-0.032376,-0.012828,0.025656,-25.14,-6.42,20.82
4.7535,-0.61292,-8.6081,-0.028405,-0.0079412,0.011606,-25.14,-6.36,21.0
4.699,-0.54481,-8.6898,-0.040928,0.0018326,0.016188,-25.2,-6.48,21.0
4.6309,-0.44947,-8.5808,-0.044593,0.020769,0.014966,-25.14,-6.42,21.06
4.7399,-0.42223,-8.5808,-0.038179,0.04612,0.016799,-25.44,-6.42,21.0
4.7671,-0.61292,-8.5536,-0.043371,0.046731,0.032987,-25.38,-6.54,21.0
4.9169,-0.54481,-8.54,-0.032987,0.018937,0.015882,-25.26,-6.42,21.18
4.9306,-0.47671,-8.5944,-0.030849,-0.014355,0.019242,-25.2,-6.42,21.18
4.9033,-0.57205,-8.4991,-0.029627,-0.019853,0.019548,-25.2,-6.54,21.0
4.7944,-0.57205,-8.6762,-0.028711,-0.044593,0.017104,-25.08,-6.54,21.18
4.7263,-0.55843,-8.6081,-0.029932,-0.041539,0.021991,-25.14,-6.54,21.24
4.6582,-0.5993,-8.6625,-0.031765,-0.023518,0.028711,-25.2,-6.48,21.24
4.7671,-0.49033,-8.4855,-0.034819,-0.016188,0.03879,-25.32,-6.3,21.42
4.7399,-0.55843,-8.5127,-0.03146,-0.020159,0.049786,-25.2,-6.36,21.36
4.7944,-0.54481,-8.4719,-0.03146,-0.026267,0.060476,-25.08,-6.3,21.36
4.808,-0.53119,-8.6081,-0.037568,-0.039401,0.062003,-25.26,-6.3,21.24
4.7671,-0.58567,-8.6489,-0.035125,-0.061087,0.06353,-25.2,-6.18,21.36
4.6718,-0.51757,-8.5808,-0.028711,-0.065057,0.059559,-25.14,-6.12,21.18
4.5901,-0.54481,-8.6762,-0.02474,-0.069639,0.057727,-25.14,-6.24,21.24
4.6173,-0.54481,-8.6625,-0.021991,-0.040623,0.060476,-25.2,-6.24,21.36
4.6718,-0.57205,-8.7034,-0.025351,-0.027794,0.064752,-25.2,-6.24,21.42
4.6582,-0.64016,-8.6081,-0.030238,-0.019242,0.052534,-25.26,-6.24,21.36
4.6582,-0.58567,-8.5536,-0.031765,0.0015272,0.05681,-25.26,-6.18,21.36
4.6037,-0.5993,-8.7443,-0.032376,0.011606,0.061697,-25.08,-6.18,21.3
4.7944,-0.5993,-8.6762,-0.042455,0.0064141,0.057727,-24.96,-6.36,21.24
4.8216,-0.57205,-8.717,-0.03207,-0.040928,0.039095,-24.9,-6.36,21.24
4.7671,-0.54481,-8.7443,-0.033292,-0.043066,0.034514,-24.96,-6.42,21.24
4.5492,-0.57205,-8.7034,-0.030849,-0.046426,0.018631,-24.9,-6.18,21.42
4.4402,-0.49033,-8.7443,-0.031154,-0.011606,0.025045,-24.9,-6.36,21.36
4.5083,-0.54481,-8.6762,-0.030238,0.018021,0.026267,-24.96,-6.12,21.48
4.6718,-0.61292,-8.6762,-0.04215,0.046426,0.042761,-25.02,-6.0,21.42
4.7807,-0.65378,-8.6353,-0.031154,0.038485,0.034208,-24.96,-6.06,21.3
4.7126,-0.62654,-8.6081,-0.034819,0.011606,0.011606,-24.9,-6.0,21.06
4.699,-0.57205,-8.5808,-0.040928,0.0079412,0.014661,-24.96,-6.0,21.24
4.6445,-0.58567,-8.6081,-0.043371,0.013439,0.02138,-24.9,-6.0,21.18
4.6037,-0.54481,-8.6217,-0.034208,0.025962,0.0030543,-24.96,-5.82,21.36
4.6445,-0.50395,-8.6762,-0.032987,0.041233,0.0054978,-24.96,-5.82,21.24
4.6309,-0.61292,-8.6898,-0.038485,0.059254,0.007025,-25.02,-5.7,21.36
4.6445,-0.61292,-8.6762,-0.041844,0.077274,0.002138,-25.08,-5.76,21.18
4.7399,-0.54481,-8.6898,-0.040012,0.083689,-0.0054978,-25.08,-5.82,21.06
4.7535,-0.55843,-8.6217,-0.033598,0.078802,-0.0030543,-24.9,-5.58,20.94
4.7399,-0.5993,-8.6217,-0.038179,0.084605,-0.012828,-24.84,-5.64,21.06
4.7944,-0.61292,-8.5263,-0.040623,0.089186,-0.011301,-24.9,-5.76,21.0
4.8625,-0.5993,-8.5127,-0.030543,0.058948,-0.0033598,-24.96,-5.82,21.0
4.9169,-0.70826,-8.6081,-0.039401,0.058643,0.0067195,-24.96,-5.82,21.12
4.8897,-0.76274,-8.5672,-0.039401,0.051007,0.022297,-25.02,-5.76,21.18
4.8897,-0.7355,-8.5808,-0.040928,0.012217,0.024129,-25.02,-5.76,21.18
4.808,-0.76274,-8.6081,-0.037263,-0.020464,0.030238,-24.96,-5.88,21.12
4.8352,-0.72188,-8.6081,-0.03146,-0.051007,0.03146,-24.84,-5.94,21.24
4.7399,-0.6674,-8.6353,-0.035125,-0.07422,0.034208,-24.96,-6.0,21.18
4.6718,-0.57205,-8.6081,-0.040928,-0.069333,0.029016,-25.08,-6.0,21.24
4.6445,-0.62654,-8.431,-0.03879,-0.049786,0.038179,-25.08,-6.0,21.36
4.6718,-0.61292,-8.6625,-0.046426,-0.03543,0.057421,-25.2,-6.18,21.36
4.7399,-0.62654,-8.5808,-0.038179,-0.029322,0.051007,-25.32,-6.18,21.3
4.808,-0.5993,-8.6217,-0.037874,-0.036652,0.052229,-25.32,-6.12,21.36
4.7399,-0.61292,-8.7034,-0.037874,-0.054062,0.044593,-25.26,-6.06,21.42
4.699,-0.62654,-8.6081,-0.039401,-0.055589,0.03543,-25.26,-6.0,21.42
4.6854,-0.61292,-8.7034,-0.036041,-0.045509,0.021686,-25.26,-6.0,21.48
4.6718,-0.54481,-8.6898,-0.032987,-0.028711,0.030849,-25.32,-6.0,21.54
4.7399,-0.50395,-8.6625,-0.037874,-0.01405,0.02474,-25.44,-6.12,21.42
4.7807,-0.50395,-8.7443,-0.04215,-0.015272,0.025351,-25.56,-6.24,21.42
4.7807,-0.62654,-8.6081,-0.034514,-0.018326,0.016799,-25.38,-6.12,21.6
4.699,-0.57205,-8.6081,-0.036346,-0.016493,0.0045815,-25.26,-6.06,21.72
4.6854,-0.61292,-8.6489,-0.036957,-0.017104,0.002138,-25.32,-6.06,21.72
4.6445,-0.5993,-8.6353,-0.028711,-0.019548,0.0018326,-25.26,-6.0,21.9
4.6037,-0.61292,-8.6762,-0.036652,0.000611,-0.012828,-25.14,-6.12,21.84
4.6854,-0.62654,-8.7034,-0.037874,0.017715,-0.0064141,-25.14,-6.0,21.84
4.7263,-0.65378,-8.6762,-0.042455,0.029627,-0.0085521,-25.08,-5.94,21.66
4.6854,-0.57205,-8.717,-0.046426,0.026573,-0.028711,-25.02,-5.88,21.72
4.5901,-0.61292,-8.7579,-0.033903,0.041539,-0.043371,-24.9,-5.82,21.72
4.5764,-0.64016,-8.7579,-0.037874,0.050091,-0.047647,-24.9,-5.88,21.72
4.5356,-0.57205,-8.7443,-0.043066,0.11484,-0.052534,-24.9,-5.82,21.66
4.6173,-0.43585,-8.826,-0.062919,0.17043,-0.061697,-24.9,-5.88,21.6
4.7263,-0.44947,-8.7306,-0.060476,0.21075,-0.073609,-25.02,-6.06,21.54
4.8897,-0.44947,-8.7715,-0.071777,0.23366,-0.10293,-25.02,-6.06,21.36
4.9714,-0.55843,-8.7034,-0.081856,0.24282,-0.11698,-25.02,-6.18,21.3
4.9987,-0.57205,-8.54,-0.073915,0.2193,-0.14783,-25.2,-6.24,21.18
5.0395,-0.51757,-8.4719,-0.071777,0.19426,-0.10385,-25.14,-6.24,21.3
5.0123,-0.54481,-8.3765,-0.05681,0.17074,-0.06017,-25.2,-6.3,21.18
5.0259,-0.54481,-8.3765,-0.053756,0.146,-0.080329,-25.2,-6.42,21.18
5.1213,-0.64016,-8.3901,-0.053451,0.11026,-0.074526,-25.38,-6.72,21.06
5.1076,-0.61292,-8.322,-0.048564,0.091019,-0.047647,-25.56,-6.78,21.06
5.203,-0.62654,-8.322,-0.055283,0.030543,-0.013439,-25.62,-6.84,21.0
5.1757,-0.64016,-8.3357,-0.055589,-0.074526,0.039706,-25.68,-6.96,20.94
5.1485,-0.47671,-8.2403,-0.043066,-0.11454,0.08827,-25.62,-6.78,20.88
5.094,-0.44947,-8.3901,-0.029932,-0.17257,0.11698,-25.56,-6.72,20.82
5.0259,-0.44947,-8.2948,-0.016188,-0.22816,0.12737,-25.56,-6.78,20.94
4.8625,-0.53119,-8.4855,-0.011912,-0.23702,0.13164,-25.5,-6.84,20.88
4.8488,-0.46309,-8.5127,-0.014355,-0.22205,0.13042,-25.5,-6.96,20.88
4.8625,-0.46309,-8.6762,-0.016493,-0.20769,0.11942,-25.5,-7.02,20.94
4.7671,-0.31327,-8.6081,-0.013134,-0.19181,0.11118,-25.56,-7.02,20.88
4.699,-0.35413,-8.54,-0.010996,-0.17868,0.097738,-25.62,-6.84,20.88
4.6718,-0.40861,-8.6762,-0.0085521,-0.10873,0.10354,-25.38,-6.72,20.88
4.7263,-0.28603,-8.6898,-0.0064141,-0.07758,0.084605,-25.26,-6.6,20.88
4.7671,-0.44947,-8.6625,-0.0073304,-0.069944,0.069333,-25.2,-6.54,20.94
4.699,-0.58567,-8.7034,-0.015272,-0.064752,0.051924,-25.08,-6.42,21.06
4.7671,-0.61292,-8.7034,-0.032681,-0.058338,0.052534,-25.2,-6.3,21.12
4.7263,-0.5993,-8.6353,-0.025045,-0.058643,0.034819,-25.32,-6.3,21.06
4.6718,-0.57205,-8.6489,-0.027489,-0.065668,0.017715,-25.32,-6.36,21.06
4.5083,-0.64016,-8.7851,-0.031154,-0.052229,0.000305,-25.56,-6.42,21.24
4.4402,-0.55843,-8.7987,-0.037568,-0.022297,-0.0033598,-25.44,-6.3,21.3
4.4811,-0.54481,-8.8668,-0.036957,0.020769,0.0015272,-25.5,-6.3,21.3
4.6037,-0.47671,-8.7715,-0.042455,0.06017,0.0018326,-25.38,-6.24,21.3
4.7807,-0.51757,-8.6489,-0.036957,0.052229,-0.0012217,-25.2,-6.24,21.42
4.7807,-0.64016,-8.7034,-0.037263,0.025656,-0.010385,-25.38,-6.24,21.54
4.7399,-0.62654,-8.7306,-0.03879,0.022907,-0.011912,-25.32,-6.24,21.54
4.699,-0.61292,-8.6353,-0.041539,0.030849,-0.020769,-25.26,-6.12,21.66
4.699,-0.55843,-8.6762,-0.042455,0.034819,-0.019548,-25.38,-6.18,21.66
4.6582,-0.53119,-8.7034,-0.051007,0.07025,-0.02474,-25.32,-6.48,21.9
4.699,-0.47671,-8.5536,-0.045204,0.090408,-0.025351,-25.2,-6.3,21.84
4.7944,-0.43585,-8.6353,-0.047647,0.10385,-0.029322,-25.26,-6.12,21.84
4.8352,-0.42223,-8.6353,-0.047037,0.099266,-0.030543,-25.2,-6.06,21.72
4.8625,-0.47671,-8.5672,-0.050702,0.076969,-0.02474,-25.2,-6.18,21.72
4.8216,-0.50395,-8.4855,-0.04612,0.065057,-0.030849,-25.2,-6.12,21.72
4.8488,-0.57205,-8.5263,-0.043982,0.055589,-0.02138,-25.14,-6.48,21.72
4.8761,-0.53119,-8.5127,-0.03879,0.036957,-0.011606,-25.32,-6.48,21.78
4.8625,-0.61292,-8.5127,-0.036346,0.0088575,-0.0051924,-25.2,-6.66,21.72
4.8216,-0.46309,-8.6081,-0.034819,0.0064141,0.012523,-25.26,-6.72,21.72
4.8352,-0.54481,-8.54,-0.029932,0.0036652,0.016188,-25.32,-6.78,21.48
4.8488,-0.61292,-8.54,-0.039095,-0.01069,0.026267,-25.2,-6.72,21.54
4.8625,-0.57205,-8.54,-0.044899,-0.012217,0.040012,-25.14,-6.66,21.66
4.8625,-0.54481,-8.5263,-0.045815,-0.014355,0.045815,-25.26,-6.72,21.6
4.8625,-0.49033,-8.5536,-0.043066,-0.029016,0.051007,-25.2,-6.84,21.54
4.7944,-0.50395,-8.4719,-0.040623,-0.036041,0.040012,-25.14,-6.84,21.66
4.7399,-0.47671,-8.6217,-0.032987,-0.036652,0.037874,-25.08,-6.78,21.66
4.7535,-0.43585,-8.6217,-0.03543,-0.020769,0.040928,-24.96,-6.66,21.6
4.7535,-0.50395,-8.6762,-0.029322,-0.0054978,0.033903,-25.2,-6.48,21.48
4.8352,-0.57205,-8.6353,-0.033903,-0.0012217,0.032987,-25.14,-6.6,21.48
4.8352,-0.57205,-8.5672,-0.03879,-0.002138,0.038485,-25.2,-6.6,21.48
4.8488,-0.61292,-8.5672,-0.03207,-0.013439,0.040317,-25.2,-6.6,21.42
4.8352,-0.5993,-8.6217,-0.026573,-0.023213,0.034514,-25.14,-6.54,21.48
4.7944,-0.57205,-8.6762,-0.026878,-0.019548,0.03207,-25.2,-6.48,21.24
4.7535,-0.50395,-8.6081,-0.031154,-0.01405,0.026573,-25.2,-6.6,21.06
4.7671,-0.40861,-8.6217,-0.036957,-0.0054978,0.026267,-25.2,-6.6,21.06
4.7944,-0.40861,-8.5127,-0.029322,0.0073304,0.024435,-25.2,-6.6,21.24
4.7399,-0.43585,-8.6489,-0.032681,0.029627,0.022602,-25.32,-6.54,21.24
4.808,-0.50395,-8.5944,-0.036346,0.032376,0.022907,-25.32,-6.54,21.18
4.8352,-0.50395,-8.6353,-0.04215,0.032987,0.026573,-25.44,-6.48,21.24
4.8216,-0.57205,-8.6081,-0.029322,0.011912,0.016799,-25.32,-6.42,21.36
4.8625,-0.58567,-8.5808,-0.032376,0.01069,0.0061087,-25.32,-6.36,21.3
4.7807,-0.55843,-8.6081,-0.03543,0.000916,0.0054978,-25.32,-6.3,21.3
4.6582,-0.62654,-8.5808,-0.034514,0.000916,0.01069,-25.32,-6.18,21.42
4.6854,-0.58567,-8.6217,-0.031765,0.041844,0.020464,-25.38,-6.24,21.36
4.7944,-0.58567,-8.6081,-0.03207,0.045815,0.03207,-25.32,-6.3,21.54
4.9033,-0.6674,-8.5944,-0.043066,0.033598,0.036957,-25.2,-6.24,21.54
4.985,-0.64016,-8.6081,-0.037874,0.012828,0.042455,-25.2,-6.18,21.54
4.9987,-0.54481,-8.5808,-0.037874,-0.009163,0.040623,-25.2,-6.18,21.48
4.8216,-0.61292,-8.5536,-0.036041,-0.044899,0.031154,-25.14,-6.3,21.42
4.7126,-0.61292,-8.6081,-0.028711,-0.049786,0.029627,-25.2,-6.42,21.42
4.6582,-0.55843,-8.5944,-0.026573,-0.043982,0.036041,-25.08,-6.48,21.42
4.699,-0.47671,-8.6489,-0.029016,-0.018631,0.029627,-25.14,-6.54,21.42
4.7671,-0.50395,-8.5672,-0.03207,0.01405,0.046731,-25.14,-6.6,21.36
4.808,-0.55843,-8.5672,-0.03879,0.027794,0.051924,-25.26,-6.6,21.24
4.8352,-0.5993,-8.6353,-0.030238,0.017715,0.047037,-25.32,-6.6,21.36
4.8488,-0.64016,-8.6081,-0.03146,-0.015272,0.041844,-25.5,-6.6,21.24
4.8761,-0.57205,-8.5808,-0.031154,-0.027489,0.03207,-25.44,-6.6,21.24
4.7944,-0.55843,-8.5808,-0.026878,-0.030238,0.029016,-25.38,-6.6,21.24
4.7399,-0.57205,-8.6081,-0.029627,-0.021991,0.036041,-25.44,-6.48,21.42
4.699,-0.58567,-8.4855,-0.021686,-0.0076358,0.037568,-25.5,-6.72,21.3
4.7671,-0.57205,-8.5672,-0.030543,0.0054978,0.040928,-25.62,-6.6,21.36
4.7944,-0.55843,-8.54,-0.029016,0.0036652,0.045204,-25.38,-6.3,21.36
4.8625,-0.54481,-8.6217,-0.03146,-0.0085521,0.054978,-25.38,-6.18,21.3
4.8352,-0.51757,-8.6762,-0.034819,-0.012217,0.050702,-25.26,-6.18,21.42
4.7944,-0.55843,-8.5263,-0.02474,-0.031765,0.050396,-25.26,-6.06,21.42
4.8216,-0.64016,-8.5808,-0.024435,-0.03146,0.045509,-25.32,-5.88,21.54
4.7944,-0.55843,-8.5672,-0.022297,-0.031154,0.041233,-25.32,-5.88,21.36
4.699,-0.61292,-8.6081,-0.019853,-0.025962,0.039095,-25.14,-6.0,21.48
4.7671,-0.57205,-8.7034,-0.026267,-0.0033598,0.051924,-25.26,-5.88,21.42
4.808,-0.61292,-8.6762,-0.024129,-0.0030543,0.05284,-25.32,-5.82,21.42
4.7807,-0.7355,-8.6081,-0.033903,-0.018631,0.053451,-25.32,-5.58,21.36
4.7671,-0.69464,-8.5672,-0.032987,-0.026573,0.054367,-25.2,-5.52,21.48
4.7944,-0.68102,-8.6489,-0.03543,-0.013134,0.05284,-25.14,-5.52,21.54
4.7944,-0.69464,-8.6625,-0.033292,-0.02474,0.055894,-25.2,-5.52,21.48
4.808,-0.62654,-8.717,-0.029322,-0.060781,0.040012,-25.26,-5.58,21.54
4.7671,-0.57205,-8.6762,-0.030543,-0.06689,0.035125,-25.32,-5.64,21.24
4.5764,-0.64016,-8.5808,-0.030238,-0.030238,0.042761,-25.26,-5.4,21.36
4.7263,-0.6674,-8.54,-0.023518,0.0082467,0.053145,-25.2,-5.4,21.36
4.7535,-0.62654,-8.6081,-0.03879,0.026267,0.070555,-25.2,-5.4,21.54
