Ax,Ay,Az,Gx,Gy,Gz,Mx,My,Mz
7.5457,-0.74912,-2.3699,-0.1405,-0.1744,-0.058338,-27.24,11.7,22.44
7.4231,-0.54481,-2.4925,-0.12584,-0.083689,0.019242,-27.12,11.7,22.56
7.0281,-0.24517,-2.3563,-0.10385,0.053756,0.12645,-27.12,11.7,22.62
8.1041,-0.24517,-2.8058,-0.037874,-0.012828,0.1854,-27.12,11.76,22.74
13.198,-2.2474,-2.833,0.18326,0.24832,0.53726,-27.24,11.88,22.68
10.774,-1.5391,-2.6423,0.21533,0.46823,0.13592,-27.24,11.82,22.5
9.8884,-0.78998,-2.5061,0.12034,0.16371,0.19456,-27.12,11.82,22.38
9.0303,-1.7025,-2.1656,0.055589,-0.073915,0.1347,-27.18,11.94,22.2
9.8066,-1.8387,-2.2746,0.035736,0.007025,0.099571,-27.06,11.88,22.14
10.61,-1.866,-2.7649,0.019853,0.030238,0.074831,-26.94,11.88,22.08
10.351,-1.3076,-2.8058,-0.055283,-0.040928,-0.10934,-26.88,12.18,22.08
9.9292,-1.3757,-2.7922,-0.058643,-0.074831,-0.10476,-26.7,12.18,22.2
9.7385,-1.5119,-2.6968,-0.036957,-0.058643,-0.085521,-26.58,12.24,22.2
8.826,-1.2803,-2.6968,-0.039401,0.026878,-0.09163,-26.58,12.48,22.02
8.6081,-1.2803,-2.5606,-0.090713,0.089797,-0.056505,-26.46,12.42,21.9
8.7987,-1.2258,-2.3836,-0.10049,0.072082,-0.027794,-26.4,12.48,21.9
9.2891,-1.1169,-2.2474,-0.082467,0.037874,-0.007025,-26.46,12.48,21.78
9.2618,-1.1032,-2.2201,-0.06689,0.0082467,0.020159,-26.46,12.54,21.78
9.0031,-1.2122,-2.3427,-0.048258,0.0088575,0.049786,-26.64,12.6,21.78
9.4525,-1.185,-2.547,-0.037263,0.021686,0.099266,-26.7,12.54,22.02
10.052,-1.185,-2.6423,0.0094684,-0.062003,0.17562,-26.7,12.48,21.96
10.733,-1.2122,-2.7649,0.029322,-0.016799,0.1405,-26.7,12.42,21.96
10.011,-1.3212,-2.4108,0.02138,0.092546,0.030238,-26.82,12.18,21.84
9.398,-1.3348,-2.3836,-0.0073304,0.0036652,0.0012217,-26.58,12.24,21.84
9.2891,-1.185,-2.4517,-0.022297,-0.029322,-0.022907,-26.7,12.12,21.96
9.7522,-1.4438,-2.6968,-0.031154,-0.029322,-0.009163,-26.82,12.06,21.9
9.507,-1.4165,-2.7513,-0.043982,0.04948,-0.044593,-27.06,12.06,21.84
9.3844,-1.4982,-2.4517,-0.038485,0.068417,-0.011912,-27.0,12.06,21.66
9.4798,-1.471,-2.4517,-0.022602,0.050702,0.014966,-27.0,12.24,21.54
9.616,-1.4982,-2.4517,-0.0064141,0.042455,0.037263,-27.06,12.18,21.66
9.5751,-1.4165,-2.4244,-0.0051924,0.04215,0.039706,-26.94,12.24,21.66
9.5342,-1.3076,-2.4517,-0.022907,0.03879,0.043982,-26.82,12.24,21.54
9.5342,-1.3076,-2.4517,-0.027184,-0.0082467,0.04612,-26.82,12.24,21.54
9.5342,-1.3076,-2.4517,-0.026878,-0.043066,0.048869,-26.82,12.24,21.54
9.8748,-1.2395,-2.5742,-0.027794,-0.031154,0.041539,-26.7,12.3,21.54
9.8066,-1.2803,-2.5606,-0.02474,0.0027489,0.01741,-26.64,12.24,21.54
9.4117,-1.3348,-2.4789,-0.015882,-0.009163,0.01741,-26.52,12.3,21.24
9.3844,-1.3076,-2.4244,-0.0281,0.0082467,0.024129,-26.46,12.36,21.18
9.3436,-1.3893,-2.3972,-0.025962,0.024129,0.022602,-26.46,12.36,21.36
9.3572,-1.2803,-2.3427,-0.03879,0.030543,0.026573,-26.22,12.36,21.36
9.4525,-1.3212,-2.3155,-0.038179,0.011301,0.0562,-26.1,12.3,21.48
9.6296,-1.3484,-2.3563,-0.014966,-0.013134,0.067501,-25.68,12.12,21.6
9.507,-1.4438,-2.4789,-0.0064141,0.0015272,0.072998,-25.32,11.94,21.54
9.6841,-1.4165,-2.438,-0.0076358,0.0082467,0.07086,-25.02,12.06,21.72
9.902,-1.4438,-2.5606,-0.0097738,0.0085521,0.069944,-25.38,12.06,21.48
9.8475,-1.471,-2.5879,-0.02138,0.013134,0.039706,-25.62,12.24,21.54
9.616,-1.4438,-2.547,-0.021075,0.013439,-0.0018326,-25.62,12.3,21.6
9.5887,-1.4438,-2.547,-0.03879,0.019548,0.0064141,-25.68,12.48,21.3
10.311,-1.58,-2.6015,-0.025045,0.032987,0.018021,-25.92,12.48,21.06
10.774,-1.58,-2.7649,-0.0067195,0.025962,0.080023,-26.16,12.48,20.94
10.828,-1.7979,-2.7377,0.011912,0.13775,0.033598,-26.34,12.6,21.0
10.542,-1.58,-2.6423,-0.025962,0.03146,-0.058032,-26.7,12.84,21.06
9.3436,-1.5255,-2.1112,-0.065363,-0.039706,-0.099876,-26.94,12.84,20.82
9.2074,-1.1713,-2.152,-0.12217,-0.019548,-0.15363,-26.94,12.84,20.94
8.9349,-1.1577,-2.261,-0.16585,-0.15149,-0.20892,-26.82,12.84,21.06
8.1313,-0.99429,-2.3699,-0.16066,-0.19426,-0.20342,-26.88,12.9,21.06
7.3958,-0.89894,-2.1384,-0.15516,-0.14478,-0.12767,-26.94,12.84,20.94
7.1643,-0.7355,-2.0294,-0.12523,-0.07422,0.029322,-27.0,12.78,21.0
6.8374,-0.35413,-1.975,-0.094073,-0.037874,0.13347,-27.0,12.78,21.12
12.898,-2.0975,-2.9965,0.14691,-0.27642,0.47006,-27.0,12.54,21.24
12.953,-2.6151,-2.7104,0.19181,0.29749,0.35247,-27.0,12.48,21.42
10.869,-0.70826,-2.7377,0.16738,0.39126,0.15821,-27.0,12.48,21.54
8.2812,-1.6753,-2.3836,0.051924,-0.06017,0.091935,-27.06,12.48,21.42
8.4174,-1.866,-2.3563,0.03146,-0.19059,0.096517,-27.0,12.42,21.36
10.161,-1.8932,-2.8058,-0.0033598,-0.047342,0.065668,-27.0,12.36,21.3
11.359,-1.4574,-3.0237,-0.098044,-0.015882,-0.080329,-26.82,12.42,21.3
10.311,-1.4165,-2.942,-0.13042,-0.04612,-0.16249,-26.76,12.48,21.3
9.5751,-1.3484,-2.7241,-0.12737,-0.059254,-0.14691,-26.82,12.48,21.18
9.3027,-1.4438,-2.6423,-0.092546,-0.04215,-0.11454,-26.94,12.48,21.54
9.221,-1.362,-2.7377,-0.064752,0.022907,-0.10904,-26.88,12.54,21.54
8.8532,-1.3757,-2.547,-0.071166,0.059865,-0.10201,-26.64,12.6,21.54
9.0303,-1.4165,-2.2882,-0.087965,0.11973,-0.067195,-26.64,12.6,21.66
9.1393,-1.2531,-2.1248,-0.067195,0.11209,-0.002138,-26.64,12.66,21.66
9.1256,-1.1986,-2.1248,-0.053756,0.064141,0.039095,-26.7,12.72,21.84
9.0848,-1.1169,-2.2746,-0.0281,0.025351,0.085216,-26.7,12.66,21.72
9.7113,-1.2395,-2.6287,0.000305,-0.0097738,0.14264,-26.7,12.6,22.08
10.256,-1.3348,-2.8194,0.024129,0.037874,0.1408,-26.76,12.48,21.96
10.27,-1.4438,-2.6696,0.0076358,0.12553,0.080329,-26.82,12.42,22.08
10.188,-1.3893,-2.4789,0.0048869,0.13775,0.048869,-26.94,12.42,22.08
9.8339,-1.4165,-2.2474,-0.045815,0.050702,-0.016493,-26.76,12.3,21.9
9.9292,-1.4165,-2.3155,-0.059865,-0.012828,-0.061392,-26.82,12.36,21.72
9.8611,-1.4438,-2.4517,-0.070555,-0.0036652,-0.081245,-26.82,12.48,21.78
9.3708,-1.3212,-2.3563,-0.079107,0.000611,-0.087965,-27.0,12.36,21.54
9.3708,-1.3076,-2.3291,-0.073609,-0.0082467,-0.048564,-27.0,12.48,21.48
9.4525,-1.2122,-2.4244,-0.0562,0.000611,-0.021686,-27.12,12.48,21.42
9.4525,-1.2122,-2.3291,-0.034514,0.012217,-0.0082467,-27.24,12.48,21.3
9.4661,-1.1986,-2.3018,-0.044593,0.020769,0.020769,-27.36,12.48,21.3
9.5342,-1.185,-2.2474,-0.033903,0.0045815,0.048564,-27.24,12.36,21.24
9.6841,-1.1986,-2.4244,-0.03146,-0.065363,0.074831,-27.3,12.48,21.18
9.8611,-1.2258,-2.6696,-0.029016,-0.079718,0.083383,-27.24,12.48,21.24
10.188,-1.2258,-2.6832,-0.018937,-0.086132,0.09163,-27.06,12.48,21.24
10.188,-1.5119,-2.6015,-0.017104,-0.0088575,0.036041,-27.12,12.54,21.24
9.3572,-1.4029,-2.438,-0.029322,0.0015272,-0.025351,-27.06,12.54,21.24
8.8668,-1.2667,-2.2201,-0.052229,-0.0064141,-0.037874,-27.06,12.42,21.24
9.1937,-1.2531,-2.2474,-0.068722,-0.036652,-0.041844,-26.94,12.36,21.48
9.1937,-1.2531,-2.3018,-0.065057,-0.007025,-0.039095,-27.12,12.3,21.54
9.221,-1.2258,-2.3836,-0.058948,0.0033598,-0.036957,-27.06,12.36,21.54
9.0303,-1.185,-2.4108,-0.047037,0.026878,-0.01741,-26.88,12.36,21.48
9.3163,-1.2531,-2.5198,-0.022297,0.025656,0.036957,-26.76,12.54,21.54
10.283,-1.2803,-2.6015,0.0054978,-0.039706,0.1347,-26.76,12.54,21.48
10.283,-1.3348,-2.5334,-0.000916,0.044899,0.033598,-26.82,12.48,21.72
9.8884,-1.2531,-2.4108,-0.02474,0.059254,0.0061087,-26.88,12.54,21.72
9.4389,-1.3212,-2.2474,-0.05284,-0.049786,-0.01405,-26.94,12.48,21.66
9.6296,-1.4438,-2.6015,-0.060781,-0.10354,-0.0048869,-27.06,12.48,21.78
9.6704,-1.4438,-2.7104,-0.053145,-0.047037,-0.016188,-27.06,12.42,21.84
9.4934,-1.3757,-2.6423,-0.054062,0.012523,-0.018021,-27.06,12.48,21.96
8.7987,-1.1986,-2.3836,-0.036957,0.012828,0.058338,-27.06,12.48,21.72
8.9894,-1.1305,-2.4108,0.000916,0.013439,0.13775,-26.94,12.54,21.66
9.3436,-1.1577,-2.438,0.012828,0.03879,0.17257,-26.94,12.42,21.78
9.4934,-1.2803,-2.3972,0.02138,0.067806,0.19395,-27.0,12.42,21.78
9.3572,-1.2531,-2.3155,0.016188,0.029932,0.22388,-27.0,12.36,21.6
9.8339,-1.3484,-2.3291,0.021686,-0.040012,0.24526,-27.06,12.42,21.66
10.215,-1.5527,-2.4653,0.02138,-0.087965,0.23305,-26.94,12.54,21.54
10.12,-1.6072,-2.5198,0.014661,-0.062003,0.17104,-26.88,12.48,21.48
9.902,-1.6889,-2.5606,0.010996,-0.059559,0.10049,-26.88,12.6,21.6
9.5342,-1.7298,-2.5061,-0.0015272,-0.054978,0.054672,-26.94,12.72,21.42
9.507,-1.7025,-2.4653,-0.027184,-0.025045,0.023213,-26.94,12.78,21.42
9.4934,-1.6072,-2.4789,-0.053451,0.0048869,0.002138,-26.94,12.9,21.36
9.6432,-1.5391,-2.3563,-0.055283,0.0030543,-0.033598,-26.88,13.08,21.42
9.6023,-1.5663,-2.4108,-0.047037,-0.025656,-0.048869,-26.76,13.08,21.48
9.6977,-1.5936,-2.4517,-0.027794,-0.024129,-0.040623,-26.64,13.26,21.42
9.7658,-1.5936,-2.547,-0.022602,-0.0015272,-0.069944,-26.4,13.2,21.54
9.7794,-1.6208,-2.5198,-0.029322,0.010385,-0.091935,-26.46,13.14,21.6
9.6977,-1.5255,-2.547,-0.040928,-0.0048869,-0.12523,-26.64,13.2,21.54
9.4798,-1.471,-2.5198,-0.045815,-0.020464,-0.13683,-26.58,13.38,21.36
9.4117,-1.471,-2.5742,-0.050396,-0.0039706,-0.11912,-26.64,13.44,21.42
9.2618,-1.4029,-2.6696,-0.057421,0.0018326,-0.092852,-26.64,13.32,21.42
9.1256,-1.2803,-2.6015,-0.068111,0.022297,-0.03543,-26.4,13.14,21.54
9.2482,-1.2803,-2.5334,-0.058948,0.035736,0.013134,-26.46,12.96,21.54
9.3299,-1.2803,-2.5061,-0.043677,0.043371,0.036957,-26.4,12.78,21.66
9.3299,-1.3212,-2.3563,-0.042761,0.032681,0.10599,-26.46,12.6,21.78
9.5751,-1.5119,-2.3836,-0.007025,0.010996,0.14142,-26.58,12.66,21.72
9.902,-1.5391,-2.4653,-0.0082467,0.033598,0.16157,-26.58,12.54,21.72
9.9156,-1.5119,-2.3291,-0.0064141,0.054672,0.13989,-26.58,12.6,21.66
9.9565,-1.5936,-2.2882,-0.013439,0.045204,0.095906,-26.52,12.6,21.66
9.8884,-1.6481,-2.3563,-0.029932,0.013439,0.043066,-26.46,12.54,21.54
9.7658,-1.7025,-2.3972,-0.04612,-0.0042761,0.011606,-26.4,12.54,21.66
9.507,-1.5119,-2.4108,-0.068111,-0.045509,-0.027184,-26.52,12.42,21.66
9.221,-1.362,-2.5061,-0.071166,-0.061392,-0.035736,-26.52,12.42,21.6
9.0575,-1.2531,-2.3972,-0.069944,-0.093768,-0.037874,-26.4,12.48,21.6
8.1858,-0.89894,-2.5198,-0.069944,-0.031765,-0.047953,-26.46,12.66,21.54
9.0439,-1.0351,-2.7922,-0.033598,-0.059559,0.043677,-26.52,12.6,21.42
10.447,-1.5936,-2.8603,0.024129,-0.066279,0.19975,-26.46,12.66,21.48
10.379,-1.5527,-2.6015,0.061087,0.06017,0.14233,-26.34,12.6,21.42
9.6977,-1.2122,-2.5198,0.034819,0.042455,0.10171,-26.46,12.6,21.42
9.3299,-1.4438,-2.3972,0.0058032,-0.048564,0.10629,-26.52,12.66,21.36
9.7794,-1.8932,-2.6015,-0.016799,-0.043982,0.096517,-26.52,12.72,21.3
9.902,-1.8932,-2.6696,-0.029932,0.0082467,0.054978,-26.4,12.78,21.48
9.7658,-1.8387,-2.6287,-0.050396,0.036041,0.019853,-26.4,12.66,21.6
9.4117,-1.6344,-2.3699,-0.054062,0.025045,0.0039706,-26.28,12.6,21.48
9.4934,-1.6344,-2.3427,-0.036652,0.0067195,0.020769,-26.22,12.66,21.36
9.6296,-1.5391,-2.4653,-0.025962,0.024435,0.0018326,-26.34,12.72,21.24
9.5615,-1.5119,-2.4653,-0.019242,0.034514,-0.0018326,-26.46,12.72,21.24
9.5342,-1.4165,-2.4108,-0.020159,0.020769,0.013134,-26.4,12.78,21.3
9.6568,-1.4029,-2.438,-0.019242,0.011912,0.022602,-26.46,12.9,21.18
9.6568,-1.4982,-2.547,-0.028711,-0.0054978,0.025656,-26.52,13.02,21.06
9.5479,-1.5391,-2.4244,-0.028711,0.0067195,0.0067195,-26.46,13.02,21.12
9.4934,-1.5119,-2.438,-0.036957,0.01405,0.0030543,-26.34,13.08,21.3
9.6296,-1.58,-2.5061,-0.042455,0.019242,-0.0015272,-26.28,13.2,21.3
9.7249,-1.7025,-2.547,-0.036957,0.030849,-0.021075,-26.4,13.2,21.36
9.7658,-1.7162,-2.4108,-0.032681,0.033292,-0.046731,-26.4,13.38,21.24
9.6568,-1.7162,-2.4517,-0.034514,0.030543,-0.072693,-26.52,13.56,21.42
9.6432,-1.6344,-2.5198,-0.044899,0.0073304,-0.086743,-26.64,13.56,21.48
9.6977,-1.6208,-2.4925,-0.065973,0.0027489,-0.10629,-26.46,13.62,21.54
9.6568,-1.58,-2.4925,-0.068111,0.000916,-0.11698,-26.4,13.56,21.48
9.5479,-1.4438,-2.4517,-0.075442,0.000305,-0.135,-26.34,13.68,21.54
9.4934,-1.4165,-2.4653,-0.076969,0.0061087,-0.14294,-26.4,13.56,21.54
9.4117,-1.362,-2.5334,-0.07422,0.027489,-0.13531,-26.46,13.56,21.6
9.4525,-1.3076,-2.5198,-0.064752,0.089492,-0.10354,-26.52,13.56,21.54
9.3436,-1.4301,-2.438,-0.068111,0.10934,-0.08491,-26.64,13.5,21.48
9.2482,-1.362,-2.2474,-0.082772,0.089492,-0.020464,-26.64,13.2,21.42
9.6432,-1.7162,-2.2746,-0.15394,0.01405,0.027184,-26.64,13.02,21.42
9.8339,-1.8251,-2.7786,-0.21197,0.036957,-0.0061087,-26.64,12.84,21.48
10.011,-1.471,-2.8875,-0.25717,0.25473,-0.072388,-26.52,12.66,21.24
9.7522,-1.6889,-2.7649,-0.26114,0.53206,-0.16707,-26.46,12.48,21.3
10.188,-1.185,-2.7786,-0.27825,0.24465,-0.18509,-26.7,12.3,21.3
10.256,-1.1169,-2.5061,-0.28986,-0.09896,-0.28986,-26.82,12.0,21.24
9.6023,-1.2258,-2.8467,-0.28039,-0.49724,-0.27092,-27.06,11.7,21.24
9.0031,-0.98067,-3.2825,-0.36896,-0.41783,-0.30207,-27.06,11.46,21.42
8.6081,-1.185,-3.6775,-0.42028,-0.551,-0.21808,-27.0,11.28,21.36
8.5808,-0.99429,-3.3506,-0.49052,-0.083994,-0.11301,-27.0,10.86,21.36
9.3163,-0.84446,-2.833,-0.49694,0.27275,-0.01069,-27.06,10.8,21.48
9.6704,-0.7355,-2.3699,-0.4777,0.37599,0.068111,-27.18,10.74,21.54
9.616,-0.44947,-1.8932,-0.45112,0.43341,0.1347,-27.18,10.56,21.48
9.5751,-0.65378,-1.8387,-0.45632,0.36713,0.2025,-27.54,10.2,21.6
9.5342,-0.65378,-1.9341,-0.49022,0.40164,0.17226,-27.78,10.08,21.6
9.4117,-0.57205,-1.4029,-0.41753,0.37507,0.21869,-27.84,9.78,21.78
9.3163,-0.53119,-1.2531,-0.31276,0.33109,0.27458,-27.9,9.48,21.72
9.3572,-0.62654,-1.3484,-0.16799,0.37477,0.3149,-28.02,9.48,21.66
9.5479,-0.7355,-1.2803,-0.1014,0.36163,0.34117,-28.08,9.36,21.72
9.7658,-0.84446,-1.2803,0.038179,0.24923,0.37751,-28.14,9.24,21.6
10.065,-1.0896,-1.471,0.10965,0.12584,0.34972,-28.32,9.18,21.36
9.8611,-1.1577,-1.7706,0.12309,-0.067501,0.31887,-28.2,9.12,21.42
9.6841,-1.0624,-1.8796,0.11423,-0.078802,0.30238,-28.38,9.12,21.24
9.6841,-1.0624,-1.8796,0.088575,-0.10965,0.32956,-28.32,9.06,21.3
10.706,-1.2122,-1.1986,0.1011,-0.28558,0.27672,-28.38,9.12,21.24
10.161,-1.3212,-1.9341,0.090103,-0.52198,0.17685,-28.32,9.42,21.24
9.4798,-1.2531,-2.3699,0.076053,-0.51862,0.1347,-28.32,9.48,21.06
9.2618,-1.3484,-2.7104,0.05284,-0.36224,0.14936,-28.14,9.78,21.24
9.4253,-1.5527,-2.656,0.029016,-0.20556,0.16218,-28.2,9.9,21.18
9.5479,-1.5391,-2.4108,0.02474,-0.12645,0.15394,-28.02,10.14,21.3
9.6704,-1.6344,-2.3699,0.043677,0.022602,0.13897,-27.72,10.5,21.42
9.8339,-1.8251,-2.1656,0.086132,0.0085521,0.10324,-27.3,10.74,21.6
9.8748,-1.9613,-2.1384,0.14355,-0.05681,0.066584,-27.18,11.28,21.6
9.8339,-1.8932,-2.2337,0.208,-0.15455,0.018326,-26.94,11.28,21.6
9.7385,-1.8115,-2.3427,0.24587,-0.17532,-0.038485,-26.52,11.46,21.9
9.7385,-1.7025,-2.3836,0.25259,-0.16341,-0.072693,-26.28,11.4,21.9
9.6977,-1.6072,-2.3427,0.27306,-0.1631,-0.097433,-26.1,11.34,22.08
9.5479,-1.58,-2.4108,0.25901,-0.16157,-0.11301,-25.86,11.28,22.2
9.6704,-1.58,-2.547,0.23671,-0.14752,-0.10537,-25.98,11.22,22.14
9.7113,-1.4438,-2.656,0.20159,-0.13897,-0.10232,-25.92,11.34,22.14
9.507,-1.4438,-2.6423,0.15149,-0.12553,-0.10904,-25.8,11.4,22.08
9.221,-1.3212,-2.5061,0.12187,-0.11209,-0.076358,-25.92,11.58,22.38
9.2346,-1.4438,-2.6968,0.092852,-0.15211,-0.032376,-25.92,11.64,22.26
9.3844,-1.5255,-2.9556,0.054978,-0.14142,0.01069,-26.04,11.64,22.2
9.5615,-1.6072,-2.9965,0.012523,-0.12248,0.022602,-25.86,11.7,22.38
9.2755,-1.6344,-2.833,-0.0073304,-0.068722,0.028711,-25.8,11.94,22.38
9.3708,-1.757,-2.7922,-0.028711,-0.0085521,0.045204,-25.98,12.3,22.2
9.4798,-1.7706,-2.7649,-0.050702,0.038485,0.051313,-25.92,12.36,22.2
9.5342,-1.7298,-2.6423,-0.074526,0.065363,0.043066,-25.98,12.54,22.26
9.5751,-1.7025,-2.5742,-0.085521,0.080329,0.038179,-26.04,12.54,22.32
9.4525,-1.7025,-2.4789,-0.095906,0.06017,0.030238,-26.04,12.48,22.5
9.5751,-1.5391,-2.4517,-0.086743,0.029932,0.035736,-26.04,12.36,22.38
9.5342,-1.5391,-2.3427,-0.07025,-0.0012217,0.041233,-26.16,12.54,22.5
9.5887,-1.4846,-2.3836,-0.066584,-0.011606,0.053145,-26.16,12.42,22.5
9.6704,-1.5391,-2.4108,-0.058948,-0.041539,0.046731,-26.28,12.36,22.44
9.5479,-1.5391,-2.6151,-0.075136,-0.046731,0.022602,-26.16,12.24,22.32
9.6023,-1.7025,-2.6423,-0.095906,-0.0048869,0.0088575,-26.1,12.12,22.44
9.6023,-1.6072,-2.6968,-0.12401,0.03543,-0.0097738,-25.92,11.88,22.56
9.4253,-1.58,-2.6968,-0.13683,0.044899,-0.028405,-26.04,11.88,22.56
9.4117,-1.6208,-2.6423,-0.14264,0.064752,-0.027794,-25.86,12.0,22.62
9.5206,-1.5255,-2.6696,-0.14416,0.080634,-0.018631,-25.68,11.82,22.62
9.4253,-1.6344,-2.6968,-0.135,0.084299,-0.015882,-25.86,11.76,22.68
9.5206,-1.6208,-2.6423,-0.14203,0.09896,-0.000916,-25.8,11.88,22.5
9.4389,-1.5663,-2.656,-0.14142,0.097433,-0.0048869,-25.74,11.94,22.44
9.4253,-1.5119,-2.438,-0.12004,0.08491,0.0048869,-25.68,11.82,22.5
9.5342,-1.5391,-2.4244,-0.089492,0.086437,0.021991,-25.56,11.7,22.5
9.5206,-1.5119,-2.5334,-0.075747,0.094073,0.01741,-25.62,11.7,22.44
9.7794,-1.5391,-2.3836,-0.082467,0.10293,0.017715,-25.74,11.58,22.32
9.7658,-1.4438,-2.3427,-0.083994,0.083383,-0.0076358,-25.92,11.4,22.2
9.6977,-1.3893,-2.3699,-0.10904,0.062614,-0.024129,-25.92,11.34,22.2
9.3844,-1.3757,-2.4517,-0.11576,0.059254,-0.015272,-25.92,11.46,21.9
9.507,-1.4301,-2.261,-0.10293,0.08491,0.0024435,-25.98,11.22,21.9
9.793,-1.471,-2.3972,-0.10018,0.09163,-0.0018326,-26.1,10.98,21.84
9.7249,-1.471,-2.3155,-0.10201,0.09163,-0.01069,-26.1,10.8,21.84
9.6977,-1.4165,-2.2065,-0.098044,0.089797,-0.025962,-26.22,10.86,21.84
9.5479,-1.471,-2.2882,-0.09499,0.097128,-0.021991,-26.52,10.92,21.84
9.4661,-1.4438,-2.2882,-0.090713,0.12675,-0.024435,-26.46,10.86,21.84
9.4798,-1.4438,-2.3427,-0.087354,0.17287,-0.0064141,-26.46,10.92,21.66
9.6704,-1.4574,-2.547,-0.10507,0.21533,0.026878,-26.58,10.98,21.66
9.9565,-1.6072,-2.6151,-0.23396,0.18631,0.051007,-26.7,10.86,21.42
9.9565,-1.5936,-2.7104,-0.35522,0.135,0.010079,-26.7,10.86,21.48
9.2618,-1.4029,-2.7377,-0.48564,0.13683,0.018937,-26.7,10.92,21.48
8.7715,-1.2531,-2.8739,-0.58399,0.208,0.1011,-26.94,10.98,21.54
8.7443,-1.2258,-2.5742,-0.62094,0.33811,0.21716,-27.06,10.98,21.54
9.3027,-1.2803,-1.9613,-0.59651,0.42089,0.32315,-26.82,10.68,21.54
9.7385,-1.3757,-1.8387,-0.52595,0.42058,0.37782,-26.64,10.68,21.42
9.8611,-1.471,-1.7434,-0.45876,0.46853,0.3427,-26.76,10.56,21.42
9.2618,-1.3484,-0.96704,-0.43494,0.22816,0.40378,-26.94,10.38,21.42
10.188,-1.5936,-1.2258,-0.37813,0.15852,0.32803,-26.94,10.2,21.6
9.5751,-1.7025,-1.4165,-0.32132,-0.071471,0.28802,-27.0,10.08,21.48
10.12,-1.58,-1.5391,-0.219,0.14508,0.28008,-27.06,9.9,21.48
10.515,-1.866,-1.8251,-0.18204,0.25107,0.17532,-27.3,9.78,21.6
10.174,-1.8524,-1.9205,-0.1463,0.3372,0.066279,-27.24,9.6,21.48
9.8611,-1.8932,-1.1986,-0.091019,0.36988,-0.036957,-27.42,9.66,21.3
9.9429,-1.7979,-1.1169,-0.014966,0.29963,-0.10171,-27.54,9.6,21.36
9.9429,-1.6344,-1.3757,0.050396,0.21075,-0.14355,-27.48,9.6,21.24
9.9292,-1.6072,-1.5119,0.065363,0.019548,-0.2022,-27.6,9.6,21.18
9.8066,-1.6072,-1.5663,0.040012,-0.071166,-0.21686,-27.66,9.54,21.18
9.5887,-1.6344,-1.58,0.01741,-0.086743,-0.2022,-27.78,9.66,21.0
9.8203,-1.6889,-1.9205,-0.029322,-0.083689,-0.25107,-27.78,9.6,21.06
10.583,-1.7025,-2.2201,-0.10263,-0.03146,-0.38087,-27.96,9.72,21.0
10.379,-1.471,-1.8932,-0.17104,0.062614,-0.54245,-28.02,9.6,20.94
10.038,-1.2122,-1.3348,-0.15027,0.03146,-0.64232,-28.2,9.6,20.88
9.7658,-1.0488,-1.0488,-0.072998,-0.043371,-0.65363,-28.14,9.54,20.88
9.6432,-0.84446,-0.50395,0.056505,-0.30635,-0.61239,-28.32,9.18,20.58
9.7113,-0.78998,-0.47671,0.2306,-0.70005,-0.5452,-28.5,8.82,20.64
9.7113,-0.31327,-0.68102,0.46212,-1.1872,-0.42119,-28.62,8.64,20.94
9.3163,-0.24517,-0.70826,0.64263,-1.4313,-0.43433,-28.56,8.4,20.94
9.3708,-0.21793,-1.6344,0.79901,-1.4212,-0.33323,-28.62,8.22,21.12
9.4389,-0.17706,-2.0839,1.0394,-1.3384,-0.27397,-28.44,8.1,21.24
9.5342,-0.19068,-2.7377,1.1973,-1.4138,-0.27489,-28.2,7.98,21.72
9.7385,-0.57205,-2.9829,1.2801,-1.3958,-0.28314,-28.14,7.98,21.9
9.5479,-0.7355,-3.0373,1.2975,-1.467,-0.31857,-27.78,8.1,22.44
8.7306,-0.88532,-2.6696,1.2175,-1.5003,-0.19334,-27.66,8.28,22.86
7.5184,-1.4165,-3.0646,1.0934,-1.2413,-0.058643,-26.76,8.76,23.58
7.0553,-1.4165,-3.514,0.94715,-0.75106,0.057727,-26.4,9.06,24.0
9.2755,-2.0294,-6.96,0.34941,-0.48747,0.25473,-25.56,9.6,24.54
10.283,-1.58,-7.6955,0.27397,-1.3415,-0.055894,-24.66,10.08,25.08
5.1213,-1.6208,-6.3471,0.080634,-0.18112,0.29688,-24.3,10.32,25.32
8.9486,-0.89894,-4.9306,-0.053756,0.70494,0.098044,-23.58,10.8,25.74
9.1256,-1.6753,-4.0861,-0.051007,0.76144,-0.07422,-22.98,11.46,26.1
9.0303,-1.2395,-3.5413,-0.12981,0.56077,0.11942,-22.32,11.94,25.86
9.1256,-1.0624,-3.337,-0.090408,0.32926,0.13592,-22.14,12.12,26.04
9.8339,-1.0351,-3.3778,0.01069,0.16829,0.11729,-21.96,12.36,25.8
10.351,-1.5391,-3.5685,0.050702,0.27397,0.19273,-21.96,12.48,25.8
9.5206,-1.5663,-3.6639,0.016188,0.36591,0.093157,-21.96,12.72,25.68
8.9349,-1.5255,-3.7184,-0.05284,0.4273,0.10171,-22.26,12.84,25.62
9.1937,-1.3757,-3.8273,-0.091935,0.38118,0.10079,-22.68,13.14,25.26
10.188,-1.6208,-3.9363,-0.079107,0.22785,0.042761,-22.98,13.2,25.02
10.433,-1.6208,-3.8273,-0.10965,0.219,-0.091019,-23.16,13.2,24.9
9.9292,-1.6753,-3.8409,-0.1124,0.1857,-0.14844,-23.28,13.38,24.96
10.161,-1.7706,-3.5822,-0.11637,0.22846,-0.18418,-23.52,13.44,24.78
10.093,-1.6344,-3.5004,-0.11301,0.16127,-0.30788,-23.64,13.44,24.72
9.9973,-1.4029,-3.5004,-0.15088,0.13867,-0.29688,-23.7,13.38,24.78
8.4446,-0.95342,-3.0237,-0.15241,-0.092241,-0.33872,-24.0,13.2,24.72
7.9134,-0.5993,-3.051,-0.15485,-0.28955,-0.26512,-24.0,12.78,24.6
7.246,-0.5993,-3.1463,-0.12095,-0.39218,-0.099266,-24.0,12.72,24.66
7.3005,-0.38137,-3.5822,-0.16829,-0.085216,0.0956,-24.0,12.6,24.78
7.3822,-0.01362,-3.0237,-0.19395,0.089797,0.045204,-24.3,12.42,24.84
6.8647,0.054481,-3.1191,-0.13897,-0.046426,-0.050396,-24.3,12.36,24.72
11.005,-0.77636,-4.7671,0.10599,-0.24893,0.16432,-24.48,12.24,24.66
11.237,-2.1248,-4.0997,0.041539,0.67134,0.045815,-24.84,12.06,24.66
9.793,-0.38137,-2.656,0.055894,0.69455,0.0058032,-24.96,12.06,24.66
9.2482,-0.51757,-2.2474,0.11637,0.027794,0.14875,-25.08,12.0,24.54
8.9213,-1.6208,-3.0646,0.13561,-0.25687,0.17685,-25.2,12.06,24.36
9.3163,-1.6344,-3.5004,0.095906,-0.18479,0.15058,-25.2,12.06,24.42
9.6023,-1.5936,-3.732,0.0088575,-0.060781,0.12462,-25.2,12.36,24.42
9.4525,-1.3212,-3.5958,-0.082467,-0.08827,0.095906,-25.38,12.78,24.48
9.1529,-1.2258,-3.514,-0.11484,-0.083078,0.062614,-25.38,12.84,24.54
9.1665,-1.1441,-3.514,-0.11087,-0.084605,0.0088575,-25.44,12.9,24.48
8.5808,-1.1713,-3.4596,-0.1011,-0.026878,0.033903,-25.2,12.96,24.3
8.54,-1.1169,-3.4187,-0.085521,0.10171,-0.02138,-25.44,12.96,24.42
8.9894,-0.8717,-3.3097,-0.083078,0.1292,-0.0042761,-25.26,12.96,24.36
10.406,-1.2122,-3.623,0.0042761,0.23366,0.057727,-25.2,13.08,24.42
10.12,-1.2395,-3.4459,-0.012523,0.32559,0.036652,-25.14,13.02,24.48
9.5751,-1.2395,-3.1327,-0.058032,0.21502,-0.009163,-25.14,13.14,24.48
9.0984,-1.2531,-3.2144,-0.079412,-0.10446,-0.042761,-25.2,13.08,24.48
9.3708,-1.3212,-3.5413,-0.10507,-0.11148,-0.026573,-25.26,13.08,24.48
9.6704,-1.3893,-3.7728,-0.1237,0.018021,-0.029016,-25.38,12.9,24.42
9.9973,-1.2667,-3.8137,-0.11118,0.063835,-0.044899,-25.2,12.84,24.3
9.3572,-1.0624,-3.3506,-0.080329,0.042455,-0.040012,-25.14,12.54,24.24
8.7851,-0.8717,-3.1735,-0.066279,0.043982,-0.033292,-25.2,12.6,24.06
8.5127,-0.81722,-3.051,-0.0562,0.033903,-0.009163,-25.26,12.72,24.12
8.7987,-0.81722,-2.9284,-0.061087,0.03543,0.027184,-25.2,12.66,24.06
9.0848,-0.83084,-3.0373,-0.046731,-0.0094684,0.069333,-25.2,12.66,24.24
9.2346,-0.7355,-3.0101,-0.029322,-0.038179,0.069639,-25.32,12.66,24.3
9.0303,-0.81722,-3.2553,0.000611,-0.037263,0.12553,-25.32,12.42,24.24
9.4934,-0.96704,-3.3506,0.027489,-0.10812,0.099876,-25.2,12.3,24.18
9.6432,-1.0215,-3.5004,0.062614,0.12981,0.19059,-25.26,12.42,24.12
9.9565,-1.1441,-3.3778,0.057116,0.22266,0.11454,-25.38,12.36,24.0
9.6704,-1.0896,-3.051,0.030238,0.11209,0.075136,-25.26,12.24,24.06
9.112,-1.1169,-2.942,0.032681,0.043982,0.058948,-25.26,12.18,24.12
9.5206,-1.2531,-3.1735,0.038179,-0.081856,0.09499,-25.56,12.36,24.06
10.079,-1.4029,-3.7047,0.012828,-0.081245,0.055894,-25.62,12.24,24.18
10.052,-1.2939,-3.7047,-0.022297,-0.075747,-0.0058032,-25.62,12.24,24.12
9.3436,-1.3076,-3.514,-0.033292,-0.035125,-0.052534,-25.68,12.36,24.06
9.3299,-1.185,-3.3915,-0.03543,-0.0097738,-0.060781,-25.74,12.24,23.88
9.2891,-1.2122,-3.3778,-0.045204,-0.0061087,-0.055283,-25.62,12.42,23.76
8.8941,-1.1169,-3.1599,-0.051618,0.01741,-0.047647,-25.8,12.66,23.7
8.8668,-1.1577,-3.0646,-0.058032,0.019242,-0.022297,-25.8,12.72,23.7
8.8805,-1.1986,-3.0101,-0.054062,0.034208,-0.0033598,-25.74,12.6,23.76
8.8668,-1.1169,-3.1191,-0.030543,0.051618,0.04948,-25.56,12.72,23.94
8.8668,-1.1305,-3.0918,-0.015272,0.065668,0.068722,-25.5,12.72,23.88
8.9758,-1.2258,-3.2008,-0.0033598,0.081551,0.098044,-25.56,12.78,23.76
9.9837,-1.2939,-3.4051,0.022297,0.094684,0.14569,-25.38,13.02,23.76
10.025,-1.2667,-3.3642,0.01069,0.091019,0.094379,-25.32,13.02,23.64
9.6432,-1.185,-3.1054,-0.016188,0.057727,0.040623,-25.32,13.02,23.46
9.6023,-1.3484,-3.1327,-0.033903,0.013744,0.023824,-25.26,13.02,23.46
10.038,-1.471,-3.2689,-0.041539,-0.0079412,0.028711,-25.38,13.26,23.46
10.215,-1.3757,-3.3506,-0.054062,0.019853,-0.023824,-25.56,13.14,23.46
9.9429,-1.2803,-3.3097,-0.069944,0.04215,-0.043066,-25.32,13.2,23.46
9.3027,-1.2803,-3.0918,-0.092852,0.033292,-0.080634,-25.32,13.14,23.28
9.2074,-1.2258,-3.1463,-0.094379,-0.019242,-0.061392,-25.32,13.32,23.4
9.0303,-1.185,-3.1463,-0.082467,-0.13042,-0.0956,-25.14,13.38,23.22
8.7306,-1.1169,-3.0101,-0.08491,-0.11668,-0.054672,-25.32,13.5,23.22
8.717,-0.96704,-2.9011,-0.071166,-0.081245,-0.011301,-25.38,13.5,23.28
8.4719,-0.85808,-2.9965,-0.067195,-0.091019,0.002138,-25.32,13.26,23.28
7.9543,-0.62654,-3.051,-0.055894,-0.072388,0.079412,-25.38,13.2,23.28
9.3708,-0.92618,-3.4732,0.040317,-0.047037,0.17471,-25.38,13.02,23.4
10.283,-1.3484,-3.732,0.093157,0.10049,0.23091,-25.32,12.9,23.46
9.6568,-1.0351,-3.337,0.076358,0.049786,0.15333,-25.32,12.78,23.58
9.507,-1.3212,-3.0237,0.05284,-0.018326,0.086743,-25.32,12.84,23.52
9.3027,-1.2122,-3.0782,0.048258,-0.080023,0.10996,-25.2,12.9,23.52
10.283,-1.5119,-3.8273,0.054672,-0.079412,0.13867,-25.02,13.02,23.46
10.134,-1.4574,-3.7047,0.015882,-0.0076358,0.084299,-25.08,12.96,23.46
9.221,-1.3893,-3.337,-0.036957,0.051313,-0.0051924,-25.14,13.02,23.52
8.6081,-1.4029,-3.0237,-0.06017,-0.0073304,0.007025,-24.96,13.14,23.46
8.8941,-1.5391,-3.0782,-0.0562,-0.032987,-0.002138,-24.78,13.08,23.46
8.7715,-1.471,-3.051,-0.055283,0.0085521,-0.0054978,-24.66,13.14,23.52
8.8941,-1.2531,-2.9965,-0.065668,0.10721,0.028405,-24.6,13.32,23.58
8.8668,-1.2531,-2.9284,-0.041233,0.073304,0.030849,-24.66,13.5,23.46
9.0303,-1.2803,-3.4732,0.026573,0.017715,0.1463,-24.78,13.74,23.4
10.447,-1.3348,-3.5685,0.025656,0.12828,0.14722,-24.72,13.8,23.22
10.093,-1.3757,-3.3778,0.0097738,0.19181,0.093157,-24.66,13.8,23.28
9.8066,-1.3348,-3.0237,-0.040012,0.10934,0.000611,-24.84,13.68,23.22
9.5615,-1.4165,-2.9284,-0.051618,-0.019548,-0.039401,-25.08,13.74,23.28
9.8611,-1.5936,-3.3097,-0.060476,-0.065973,-0.086743,-24.9,13.8,23.16
9.7658,-1.5936,-3.4596,-0.094684,-0.0039706,-0.13225,-24.9,13.8,23.22
9.3436,-1.6072,-3.2825,-0.11118,0.0030543,-0.21289,-24.84,13.74,23.28
9.2891,-1.5391,-3.0918,-0.11118,-0.039401,-0.23854,-24.84,13.74,23.28
9.0031,-1.471,-3.0646,-0.091019,-0.05681,-0.22877,-24.78,13.68,23.28
9.0167,-1.3212,-3.0237,-0.077885,0.052229,-0.11484,-24.66,13.44,23.16
9.4661,-1.2258,-3.1054,-0.043066,0.066584,-0.027794,-24.6,13.26,23.16
9.8339,-1.185,-3.1599,-0.027489,0.11759,0.021075,-24.54,13.08,23.16
9.8066,-1.0215,-2.9284,-0.038485,0.17715,0.020769,-24.6,13.02,23.4
9.5342,-0.91256,-2.833,-0.05681,0.021075,-0.015882,-24.6,13.02,23.46
9.3844,-0.9398,-2.833,-0.079412,-0.051924,-0.0562,-24.48,13.02,23.58
9.398,-0.84446,-3.0646,-0.10568,-0.065668,-0.064752,-24.48,12.9,23.7
9.0575,-0.96704,-3.1872,-0.12095,-0.11973,-0.0956,-24.66,12.84,23.64
8.6489,-0.70826,-2.9965,-0.10751,-0.16585,-0.10232,-24.72,12.78,23.58
7.6683,-0.61292,-2.8603,-0.094684,-0.11393,-0.053145,-25.02,12.48,23.52
7.5321,-0.31327,-2.9556,-0.017104,-0.069944,0.0024435,-25.14,12.48,23.52
8.9894,-0.46309,-3.5004,0.11637,-0.0061087,0.25259,-25.32,12.48,23.52
10.896,-1.4574,-3.5004,0.1069,0.34025,0.22999,-25.44,12.6,23.7
9.9292,-0.9398,-3.1599,0.085827,0.25443,0.1069,-25.5,12.66,23.7
9.1937,-1.1169,-2.8058,0.051007,-0.017715,0.087354,-25.38,12.66,23.64
9.5206,-1.5119,-3.0237,0.032376,-0.11179,0.069028,-25.38,12.6,23.46
9.8475,-1.6072,-3.2961,-0.036041,-0.0036652,0.029322,-25.44,12.6,23.46
10.174,-1.3893,-3.3097,-0.054367,0.0018326,0.019242,-25.56,12.66,23.46
9.8611,-1.1305,-3.1872,-0.068111,-0.054672,-0.050702,-25.5,12.42,23.58
9.6977,-1.2803,-3.2825,-0.047037,-0.051313,-0.047037,-25.38,12.42,23.64
9.5479,-1.2803,-3.3097,-0.044899,-0.025962,-0.064141,-25.44,12.42,23.7
8.9622,-1.185,-2.9284,-0.053145,-0.0048869,-0.092546,-25.26,12.66,23.76
8.8941,-1.0624,-2.833,-0.082467,-0.034514,-0.072388,-25.2,12.72,23.7
8.9486,-1.0351,-2.8603,-0.08094,-0.046426,-0.041233,-25.2,12.72,23.58
8.9894,-0.95342,-2.8467,-0.065973,-0.035736,-0.0079412,-25.26,12.6,23.58
8.9077,-0.99429,-2.9011,-0.039095,-0.022297,0.025351,-25.26,12.54,23.46
8.9622,-0.99429,-2.9284,-0.02474,-0.0018326,0.046426,-25.32,12.6,23.52
9.0712,-1.0351,-3.0373,0.0054978,0.021075,0.077274,-25.32,12.48,23.58
10.161,-1.1986,-3.4459,0.032681,0.042455,0.13408,-25.26,12.54,23.64
10.134,-1.1986,-3.2825,-0.0036652,0.10476,0.066584,-25.32,12.48,23.58
10.025,-1.0896,-3.2008,-0.023213,0.078802,0.042761,-25.44,12.54,23.4
9.5751,-1.0896,-2.9965,-0.063225,-0.051313,-0.028711,-25.56,12.6,23.4
9.5206,-1.1577,-3.0782,-0.045815,-0.081551,-0.050702,-25.68,12.6,23.22
9.5615,-1.2258,-3.1872,-0.037263,-0.042761,-0.061087,-25.8,12.78,23.16
9.1937,-1.185,-3.1191,-0.026878,-0.015577,-0.064752,-25.8,12.72,23.34
9.1937,-1.185,-3.1872,-0.01741,-0.03146,-0.04948,-25.74,12.84,23.34
9.2482,-1.2531,-3.2553,-0.028405,0.009163,-0.0027489,-25.74,12.9,23.28
9.3708,-1.2531,-3.0918,-0.039095,0.032681,0.0033598,-25.56,12.9,23.28
9.2755,-1.2258,-3.1327,-0.058643,0.019853,-0.0036652,-25.8,13.02,23.28
9.0848,-1.2531,-2.9556,-0.075136,0.0027489,0.021686,-25.86,13.02,23.22
9.7658,-1.3757,-3.2416,-0.020769,0.0073304,0.10232,-25.92,12.84,23.22
10.215,-1.471,-3.3506,-0.014355,0.057116,0.12034,-25.8,12.84,23.28
10.283,-1.4029,-3.228,-0.0281,0.18845,0.083689,-25.86,12.72,23.4
9.7522,-1.1169,-2.9284,-0.066279,0.012828,-0.013439,-25.68,12.66,23.52
9.5479,-1.076,-2.9148,-0.11209,-0.041844,-0.054062,-25.68,12.66,23.52
9.3572,-0.9398,-3.051,-0.12523,-0.099876,-0.083689,-25.5,12.54,23.58
8.6625,-0.74912,-3.2144,-0.13408,-0.21533,-0.067195,-25.62,12.36,23.4
8.1722,-0.57205,-2.9148,-0.12187,-0.16432,-0.049786,-25.86,12.36,23.46
7.8181,-0.57205,-2.8194,-0.10324,-0.076358,-0.026573,-25.86,12.24,23.46
7.3277,-0.31327,-2.7377,-0.072693,-0.055589,0.020769,-26.04,12.18,23.52
11.264,-1.3484,-3.9908,0.12614,-0.097128,0.21166,-25.86,12.06,23.76
11.346,-1.7298,-3.6366,0.12065,0.43585,0.36163,-25.8,12.06,23.82
10.161,-0.72188,-3.1599,0.10415,0.43066,0.14997,-25.92,12.12,23.94
9.1937,-0.92618,-2.6287,0.051924,-0.10843,0.083078,-25.92,12.18,23.82
9.221,-1.2803,-2.7922,0.038485,-0.13867,0.06017,-25.92,12.3,23.82
10.324,-1.7298,-3.514,-0.034208,-0.047953,0.0097738,-25.68,12.48,23.58
10.106,-1.4574,-3.4596,-0.06017,0.010385,-0.041844,-25.74,12.42,23.58
9.5206,-1.2122,-3.0918,-0.06689,-0.039401,-0.083078,-25.74,12.36,23.58
9.0303,-1.3076,-3.1191,-0.041844,-0.065363,-0.051924,-25.86,12.42,23.4
9.0848,-1.2395,-3.3778,-0.029627,-0.0015272,-0.030238,-25.74,12.42,23.4
9.1256,-1.1577,-3.3097,-0.040317,0.064752,-0.012217,-25.56,12.36,23.34
9.3299,-1.076,-2.9011,-0.036957,0.069028,-0.0039706,-25.44,12.72,23.22
9.5751,-0.99429,-2.942,-0.032987,0.011606,0.022297,-25.44,12.78,23.04
9.4798,-1.2122,-2.9692,-0.034514,0.000611,0.044288,-25.32,12.72,22.86
9.4798,-1.2122,-2.9692,-0.034514,0.000611,0.044288,-25.32,12.72,22.86
9.4798,-1.2122,-2.9692,-0.0281,-0.0030543,0.039706,-25.32,12.72,22.86
9.4934,-1.1169,-3.0101,-0.025656,-0.01069,0.032987,-25.26,12.72,22.92
9.507,-1.1032,-3.0782,-0.014355,-0.009163,0.023213,-25.2,12.72,22.86
9.4661,-1.1441,-3.1054,-0.02138,0.0024435,0.014355,-25.14,12.54,22.92
9.2755,-1.0624,-3.2008,-0.02138,0.011912,0.0027489,-25.14,12.84,22.8
9.3572,-1.0624,-3.0646,-0.021075,0.025962,0.0012217,-25.08,12.9,22.8
9.3708,-1.1713,-3.0782,-0.017715,0.018021,0.0097738,-25.02,12.9,22.92
9.3844,-1.2258,-3.1054,-0.020464,0.019853,0.019853,-24.9,12.84,22.92
9.4798,-1.2258,-3.0237,-0.026267,0.020159,0.026878,-24.96,12.72,22.86
9.4253,-1.2258,-2.9965,-0.017715,0.000611,0.025656,-24.96,12.54,22.92
9.3844,-1.2531,-3.051,-0.016188,-0.0088575,0.030543,-25.08,12.66,23.04
9.3708,-1.185,-3.0646,-0.023213,-0.0039706,0.04215,-25.14,12.66,22.92
9.5615,-1.2122,-3.051,-0.018937,0.000916,0.059865,-25.02,12.78,23.1
9.507,-1.1577,-3.0101,-0.025656,-0.000611,0.051007,-24.96,12.72,23.1
9.3299,-1.0215,-3.0373,-0.028711,-0.0027489,0.03543,-25.08,12.72,23.28
9.3436,-1.0896,-3.1327,-0.035125,0.0033598,0.045509,-25.26,12.78,23.16
9.4117,-1.1713,-3.1191,-0.025962,0.022602,0.052229,-25.2,12.66,23.34
9.4253,-1.1169,-3.0918,-0.015882,0.040317,0.051618,-25.26,12.6,23.4
9.4117,-1.2122,-2.9829,-0.0088575,-0.0024435,0.057116,-25.56,12.72,23.4
9.398,-1.2258,-2.9965,-0.012523,-0.013439,0.063225,-25.56,12.78,23.46
9.4117,-1.2122,-3.1054,-0.011301,-0.0067195,0.056505,-25.56,12.9,23.52
9.3572,-1.2939,-3.1191,-0.0073304,0.013744,0.037568,-25.5,13.08,23.58
9.2618,-1.2531,-2.9692,-0.020464,0.028711,0.031765,-25.56,13.02,23.52
9.3163,-1.3757,-2.833,-0.012828,0.015882,0.026878,-25.62,13.14,23.34
9.902,-1.4982,-3.1463,0.000916,0.019548,0.057727,-25.74,13.08,23.28
10.093,-1.58,-3.3097,0.0024435,0.067806,0.053451,-25.86,13.14,23.28
10.12,-1.7434,-3.3234,-0.0058032,0.10079,0.032376,-25.92,13.08,23.16
10.025,-1.4029,-3.0646,-0.062919,-0.0085521,-0.032681,-25.86,13.08,23.4
9.8203,-1.4165,-2.9829,-0.11209,-0.011606,-0.12706,-25.98,13.26,23.4
9.4117,-1.1169,-2.9556,-0.13347,-0.072998,-0.17135,-25.98,13.32,23.46
8.6625,-0.85808,-2.9556,-0.13836,-0.23702,-0.17868,-25.86,13.32,23.58
8.322,-0.85808,-2.9556,-0.097738,-0.24435,-0.1182,-25.86,13.32,23.52
7.927,-0.77636,-2.9011,-0.1014,-0.17623,-0.099571,-25.92,13.32,23.52
7.1371,-0.095342,-2.7241,-0.12095,-0.039401,-0.041844,-25.74,13.38,23.46
8.6081,-0.19068,-3.6094,0.041539,-0.16493,0.061087,-25.62,13.44,23.52
11.577,-1.58,-4.1678,0.14844,0.26909,0.27733,-25.62,13.26,23.58
10.106,-0.85808,-2.9011,0.060476,0.48778,0.15944,-25.5,13.26,23.7
9.2482,-1.1577,-2.4789,0.041539,0.0039706,0.11301,-25.5,13.2,23.58
9.4798,-1.3757,-2.6151,0.011606,-0.13317,0.038179,-25.44,13.2,23.52
10.351,-1.8932,-3.2416,-0.023824,-0.064446,-0.013439,-25.44,13.44,23.34
10.052,-1.3076,-3.2008,-0.067195,-0.009163,-0.07025,-25.44,13.32,23.28
9.3436,-1.185,-3.0646,-0.081551,-0.077885,-0.10171,-25.38,13.44,23.1
9.5342,-1.0896,-3.3097,-0.062614,-0.12828,-0.041844,-25.32,13.56,23.04
9.7385,-1.2803,-3.5685,-0.030849,0.0094684,-0.030238,-25.32,13.5,23.1
9.5887,-1.2803,-3.4187,-0.040317,0.059865,-0.057727,-25.2,13.38,23.1
8.8941,-1.0896,-2.7649,-0.057727,0.0058032,-0.076969,-25.32,13.26,23.04
8.8668,-1.0351,-2.7649,-0.078802,-0.072693,-0.063225,-25.32,13.26,23.04
9.0031,-0.99429,-2.833,-0.091324,-0.061392,-0.021686,-25.32,13.32,22.98
8.9213,-0.92618,-2.9148,-0.081551,-0.016188,0.030543,-25.38,13.32,22.92
8.8124,-0.92618,-2.7649,-0.046426,0.014355,0.059559,-25.5,13.38,23.1
8.8396,-0.95342,-2.8875,-0.026267,0.048258,0.080329,-25.38,13.44,23.04
9.6023,-0.99429,-3.0918,0.000916,0.05284,0.11545,-25.38,13.26,23.04
10.447,-1.1169,-3.3234,0.039095,0.08094,0.15394,-25.38,13.32,22.98
10.365,-1.2395,-3.2553,0.0033598,0.14875,0.058643,-25.38,13.26,22.98
9.6432,-1.2122,-2.8739,-0.019853,0.051924,-0.040012,-25.56,13.14,22.98
9.3844,-1.2531,-2.9556,-0.057116,-0.10537,-0.065363,-25.62,13.26,22.86
9.3436,-1.2667,-3.1872,-0.061087,-0.10599,-0.053756,-25.8,13.2,22.8
9.3163,-1.2258,-3.2416,-0.064141,-0.027184,-0.048869,-25.74,13.2,22.8
9.0984,-1.185,-2.9829,-0.052229,-0.0085521,-0.013439,-25.8,13.08,22.98
9.0984,-1.185,-3.051,-0.025045,-0.012523,0.013439,-25.74,13.08,22.98
9.2891,-1.1577,-3.1599,-0.026267,0.02138,0.040928,-25.74,13.02,23.04
9.5479,-1.1169,-3.0237,-0.043677,0.051924,0.031154,-25.74,13.02,22.86
9.6296,-1.1305,-2.9556,-0.05681,0.020464,0.022907,-25.8,13.08,22.98
9.7249,-0.96704,-2.9284,-0.0562,-0.02138,0.016799,-25.74,13.08,23.1
9.6432,-1.0215,-2.9965,-0.056505,-0.029627,0.0048869,-25.86,12.9,23.16
9.3163,-0.95342,-3.0782,-0.059254,-0.023518,-0.000916,-25.98,12.78,23.16
9.3027,-0.98067,-2.9965,-0.067501,-0.0076358,-0.01741,-25.92,12.84,23.1
9.507,-1.0624,-3.0918,-0.066279,0.029627,-0.014355,-25.98,12.9,23.04
9.5887,-1.1577,-3.0237,-0.058338,0.038485,-0.025656,-25.8,12.96,23.04
9.8339,-1.2939,-3.0373,-0.037263,0.028711,-0.0079412,-25.86,12.96,23.04
9.902,-1.3484,-2.9284,-0.043677,0.039706,-0.01069,-25.98,12.96,22.98
9.8748,-1.4165,-2.9011,-0.069028,0.043982,-0.029016,-25.98,13.02,22.92
9.3572,-1.2258,-2.833,-0.093462,-0.012828,-0.076664,-26.16,13.08,22.92
9.2482,-1.1169,-2.9556,-0.098044,-0.087048,-0.07086,-26.04,12.96,22.92
9.0575,-1.0215,-3.1191,-0.099571,-0.135,-0.04612,-26.1,12.84,22.98
8.8941,-0.89894,-2.9965,-0.11668,-0.086132,-0.043371,-26.16,12.72,22.86
8.7851,-0.81722,-2.9965,-0.089186,-0.081245,-0.0064141,-26.16,12.84,22.92
8.4855,-0.47671,-3.1872,-0.079718,-0.072082,0.035736,-26.16,12.78,23.1
8.9894,-0.44947,-3.3097,-0.02138,-0.038485,0.10324,-26.16,12.6,23.16
9.9973,-0.89894,-3.514,0.030849,0.045509,0.17685,-25.98,12.36,23.28
9.7522,-0.69464,-3.1599,0.040928,0.15058,0.17074,-25.86,12.18,23.28
9.5887,-0.69464,-2.8875,0.023213,0.10599,0.13408,-25.92,12.06,23.28
9.5887,-0.96704,-2.9556,0.0012217,-0.030849,0.11393,-25.74,12.0,23.4
9.616,-1.0215,-3.0373,-0.015272,-0.052229,0.065363,-25.8,11.94,23.34
10.011,-1.0896,-3.2416,-0.010385,-0.020159,0.064752,-25.68,11.88,23.34
10.065,-1.1577,-3.2961,0.0088575,-0.0082467,0.02474,-25.68,11.88,23.34
9.6977,-1.2939,-3.1735,0.012828,-0.012523,0.0079412,-25.68,12.06,23.4
9.0575,-1.3076,-3.0646,-0.0012217,-0.030849,-0.05284,-25.56,12.12,23.4
8.9349,-1.3212,-3.0237,-0.029932,-0.035736,-0.094073,-25.5,12.24,23.4
8.9894,-1.2531,-2.8875,-0.047342,-0.019242,-0.075136,-25.5,12.3,23.34
9.0167,-1.1169,-2.8603,-0.054062,0.0064141,-0.045509,-25.5,12.36,23.28
8.9349,-1.1577,-2.9011,-0.04215,-0.011606,-0.013439,-25.56,12.54,23.16
8.7987,-0.99429,-3.0237,-0.021686,0.021686,0.040623,-25.86,12.54,23.4
9.3436,-1.0488,-3.3097,0.0088575,0.040928,0.079412,-25.74,12.84,23.4
10.025,-1.1441,-3.5685,0.032987,0.059865,0.11973,-25.8,12.9,23.4
10.202,-1.0215,-3.1327,0.0015272,0.16005,0.033903,-25.56,12.78,23.28
9.8611,-0.98067,-2.9965,-0.034819,0.026267,-0.034819,-25.62,12.72,23.34
9.3572,-1.0624,-2.9556,-0.0562,-0.10171,-0.073915,-25.56,12.72,23.4
9.3163,-1.1577,-3.1463,-0.05681,-0.068417,-0.060476,-25.56,12.54,23.28
9.2618,-1.076,-3.1463,-0.065363,-0.016799,-0.054367,-25.62,12.6,23.22
9.1801,-1.0215,-3.0782,-0.044899,-0.0054978,-0.059559,-25.62,12.6,23.28
9.0031,-1.1169,-3.0237,-0.01405,-0.027184,-0.021686,-25.56,12.54,23.22
9.2482,-1.0351,-3.0918,-0.016493,0.03543,0.012523,-25.5,12.6,23.22
9.4798,-1.0896,-3.0237,-0.018326,0.071471,0.037568,-25.56,12.54,23.34
9.5342,-1.0215,-2.942,-0.01741,0.04948,0.035125,-25.38,12.48,23.16
9.507,-1.1032,-3.1054,-0.025656,0.007025,0.022907,-25.38,12.3,23.28
9.6296,-0.98067,-3.0237,-0.021991,-0.014661,0.018631,-25.44,12.18,23.28
9.3708,-1.0079,-3.0782,-0.018326,0.007025,0.027794,-25.62,12.18,23.22
9.3299,-0.99429,-2.9556,-0.031765,0.000916,0.023824,-25.62,12.24,23.28
9.507,-1.0079,-3.1191,-0.02474,0.021991,0.018021,-25.62,12.3,23.34
9.507,-1.0351,-3.1191,-0.035736,0.033598,0.022602,-25.62,12.48,23.28
9.4389,-1.0624,-3.0101,-0.022907,0.023213,0.019853,-25.56,12.36,23.4
9.398,-1.0624,-2.9965,-0.025351,0.011301,0.027184,-25.38,12.3,23.46
9.3436,-1.0624,-2.9965,-0.02474,0.0073304,0.037874,-25.5,12.36,23.34
9.3299,-1.076,-3.1191,-0.016493,0.0073304,0.039401,-25.5,12.24,23.34
9.4525,-1.1032,-3.0646,-0.010385,0.01741,0.036957,-25.56,12.42,23.4
9.4389,-1.0624,-3.0918,-0.011912,0.010996,0.042761,-25.74,12.42,23.28
9.3708,-1.0351,-3.0646,-0.018937,0.012523,0.040317,-25.8,12.54,23.16
9.3436,-1.0488,-3.0237,-0.017715,0.018631,0.042761,-25.8,12.6,23.1
9.4661,-1.0624,-3.0646,-0.017104,0.022907,0.043371,-25.86,12.54,23.22
9.4798,-1.076,-3.0373,-0.026878,0.025351,0.047342,-25.98,12.54,23.16
9.4798,-1.1305,-2.9965,-0.024129,0.025045,0.037874,-26.04,12.48,23.16
9.4934,-1.076,-2.9011,-0.023518,0.0094684,0.032681,-26.1,12.3,23.16
9.4798,-1.0624,-2.9965,-0.01069,0.0067195,0.032681,-26.1,12.3,22.98
9.4117,-1.076,-2.9692,-0.013134,0.013134,0.041233,-26.16,12.36,23.04
9.4525,-1.1441,-2.9556,-0.011301,0.020464,0.048258,-26.22,12.36,23.34
9.4661,-1.1441,-2.9829,-0.013134,0.029932,0.047647,-26.22,12.48,23.4
9.5479,-1.0896,-3.051,-0.020464,0.02474,0.035736,-26.22,12.42,23.4
9.4661,-1.1577,-3.1054,-0.026267,-0.0045815,0.02474,-26.1,12.54,23.4
9.6568,-1.0215,-3.337,-0.026878,-0.01405,0.051313,-26.04,12.54,23.4
10.12,-1.0488,-3.514,-0.017104,0.0027489,0.078802,-25.98,12.42,23.46
10.256,-1.4165,-3.2825,-0.023213,0.044899,0.065363,-25.8,12.6,23.34
9.3436,-1.3757,-2.9011,-0.040928,-0.0051924,-0.031765,-25.74,12.66,23.28
8.6625,-1.2258,-2.6287,-0.055283,-0.090408,-0.080634,-25.74,12.84,23.34
8.6625,-1.1577,-2.5879,-0.0562,-0.13989,-0.025962,-25.74,12.9,23.34
8.7579,-1.1441,-2.7377,-0.041539,-0.08491,0.03543,-25.74,13.02,23.4
8.9349,-1.0215,-2.8603,-0.015272,-0.018021,0.077885,-25.68,13.02,23.22
8.7443,-0.89894,-2.8603,-0.013744,0.036346,0.10843,-25.44,13.02,23.1
8.8941,-0.8717,-2.9284,-0.0058032,0.044593,0.12126,-25.32,13.08,22.92
9.0984,-0.85808,-2.8875,-0.0076358,0.061087,0.12523,-25.14,13.02,22.92
9.398,-0.88532,-2.942,0.000611,0.094073,0.10324,-25.02,13.14,22.86
9.8611,-1.0215,-3.0373,0.029016,0.057116,0.10537,-25.08,13.08,22.86
10.706,-1.1713,-3.228,0.0562,0.020159,0.13867,-25.02,13.2,22.74
10.379,-1.5119,-3.2689,0.025045,0.11179,0.016799,-25.2,13.2,22.74
9.6977,-1.3757,-3.0101,-0.022602,0.025045,-0.090713,-25.2,13.2,22.68
9.2482,-1.4846,-2.9556,-0.076664,-0.049175,-0.17226,-25.14,13.26,22.74
9.5751,-1.4574,-3.2008,-0.076053,-0.11454,-0.13806,-25.02,13.32,22.68
9.5751,-1.471,-3.1735,-0.081245,-0.016188,-0.135,-25.08,13.32,22.68
9.1937,-1.4029,-3.0782,-0.065057,-0.025351,-0.096211,-25.02,13.38,22.62
9.2074,-1.3484,-3.2689,-0.048564,-0.035736,-0.064141,-25.26,13.32,22.62
9.6977,-1.3757,-3.2416,-0.038485,0.078802,0.032681,-25.38,13.32,22.74
9.8611,-1.185,-3.337,-0.067195,0.1689,0.0085521,-25.44,13.26,22.68
9.6977,-0.91256,-2.833,-0.098044,0.11942,-0.026267,-25.62,13.26,22.8
9.6296,-0.99429,-2.7377,-0.10537,-0.060781,-0.081245,-25.68,13.32,22.8
9.4525,-0.8717,-2.7513,-0.11118,-0.073915,-0.091324,-25.68,13.32,22.68
9.0303,-0.8717,-2.8058,-0.096211,-0.15638,-0.099571,-25.74,13.32,22.56
8.4719,-0.70826,-2.9011,-0.087659,-0.19578,-0.10324,-25.68,13.32,22.62
8.1177,-0.62654,-2.8739,-0.069333,-0.12828,-0.077274,-25.62,13.26,22.44
7.4776,-0.35413,-2.8739,-0.062919,-0.019548,-0.011606,-25.62,12.96,22.56
8.826,-0.38137,-3.4459,0.10812,0.073304,0.19823,-25.74,12.78,22.62
11.264,-1.5527,-3.514,0.12889,0.27275,0.28069,-25.68,12.54,22.8
10.311,-0.7355,-2.9556,0.061697,0.33048,0.16005,-25.62,12.54,22.8
9.8339,-0.89894,-2.7104,0.016493,-0.065057,0.092852,-25.56,12.6,22.68
9.4389,-1.185,-2.8058,-0.020769,-0.14783,0.054978,-25.5,12.72,22.68
10.052,-1.5527,-3.2689,-0.062308,-0.022907,-0.020464,-25.44,12.72,22.68
10.079,-1.4438,-2.9556,-0.10263,0.0281,-0.079107,-25.5,12.54,22.74
9.1937,-1.1169,-2.833,-0.09896,-0.021991,-0.091324,-25.56,12.36,22.92
9.1937,-1.1032,-2.942,-0.057727,-0.061697,-0.04215,-25.62,12.54,23.1
9.4389,-1.0215,-3.1191,-0.050396,-0.021686,-0.022297,-25.62,12.48,23.16
9.6704,-0.96704,-3.1191,-0.032376,0.082772,0.01405,-25.68,12.42,23.22
9.5479,-0.98067,-2.7786,-0.025045,0.025351,0.0094684,-25.86,12.66,22.98
9.3708,-1.0079,-2.7241,-0.030543,-0.047647,0.007025,-25.62,12.78,22.92
9.1665,-1.0215,-2.833,-0.05284,-0.069333,0.024129,-25.86,13.02,22.74
9.0303,-0.98067,-2.9011,-0.055283,-0.04948,0.021075,-25.86,12.96,22.62
9.0303,-0.92618,-2.8739,-0.069333,0.012217,0.01405,-25.86,12.78,22.8
9.221,-0.89894,-2.8603,-0.054367,0.036346,0.026573,-26.04,12.9,22.8
9.4117,-0.92618,-2.9965,-0.030543,0.044288,0.065363,-26.1,12.84,22.74
10.052,-1.0079,-3.0782,-0.002138,0.04612,0.098655,-26.04,12.84,22.8
10.052,-1.076,-2.9829,-0.009163,0.052534,0.028405,-25.92,12.96,22.62
9.8066,-1.0896,-2.8467,-0.029932,-0.029932,-0.010996,-25.92,12.9,22.5
9.6704,-1.1305,-2.9556,-0.041539,-0.083994,-0.032681,-25.92,12.96,22.44
9.398,-1.0624,-3.0101,-0.043066,-0.085216,-0.024129,-25.98,13.02,22.5
9.2891,-1.1169,-3.0237,-0.042455,-0.043371,-0.0082467,-25.92,12.78,22.56
9.2618,-1.1577,-3.0237,-0.039706,-0.035736,0.011912,-26.04,12.84,22.5
9.3163,-1.1169,-2.9692,-0.030238,-0.031154,0.021686,-25.98,12.6,22.62
9.4661,-1.0896,-3.0237,-0.021075,-0.018326,0.022907,-26.04,12.66,22.8
9.4389,-1.0896,-3.051,-0.026267,-0.0082467,0.026878,-25.98,12.66,22.62
9.4525,-1.1169,-2.9556,-0.026878,-0.016799,0.0061087,-25.8,12.6,22.38
9.507,-1.1713,-2.9556,-0.041539,-0.016799,0.013744,-25.86,12.48,22.38
9.4798,-1.1169,-3.0918,-0.037263,-0.025656,0.012523,-25.8,12.6,22.26
9.4389,-0.98067,-2.9965,-0.040317,-0.012523,0.009163,-25.98,12.72,22.38
9.3027,-0.91256,-3.0782,-0.039706,-0.0067195,0.0042761,-26.04,12.72,22.44
9.3436,-0.92618,-3.0101,-0.041844,-0.0054978,0.0012217,-26.1,12.66,22.38
9.3844,-1.0215,-2.9556,-0.03543,-0.0082467,0.016188,-26.16,12.72,22.5
9.4117,-1.0079,-2.9692,-0.043066,0.0030543,0.034514,-26.04,12.78,22.44
9.5479,-1.0624,-3.0646,-0.036652,0.013134,0.028405,-25.98,12.72,22.5
9.6432,-1.2258,-3.0646,-0.034208,-0.000305,0.0073304,-26.04,12.84,22.56
9.3844,-1.4982,-2.9556,-0.01741,-0.036652,0.0054978,-25.98,12.84,22.62
9.1256,-1.4438,-2.9011,0.011912,-0.060476,0.062003,-26.04,12.9,22.68
8.54,-1.1577,-2.9692,0.024129,-0.022602,0.1631,-26.1,12.96,22.98
8.5808,-0.96704,-3.0918,0.046731,0.081551,0.33934,-26.04,13.02,23.04
9.3572,-0.81722,-3.1191,0.071166,0.22877,0.36805,-25.92,13.08,23.04
10.202,-1.3893,-3.2961,0.079718,0.057116,0.061392,-25.8,13.2,23.04
9.6296,-1.6208,-3.051,0.011912,0.11545,0.029322,-25.68,13.2,23.04
9.221,-1.2258,-2.9556,-0.022602,0.23121,0.059254,-25.62,13.26,22.92
9.4934,-1.076,-2.6151,-0.009163,0.17685,0.09896,-25.56,13.2,23.04
9.6432,-1.1986,-2.6287,-0.025962,0.11209,0.095295,-25.62,13.32,22.92
9.5751,-1.2531,-2.7649,-0.032681,0.083078,0.075136,-25.62,13.44,22.92
9.4934,-1.2667,-2.6696,-0.049175,0.047342,0.046731,-25.56,13.44,22.62
9.5342,-1.1986,-2.6696,-0.037568,-0.0033598,0.043371,-25.62,13.44,22.56
9.5887,-1.2803,-2.7241,-0.022907,-0.03543,0.047953,-25.8,13.56,22.44
9.507,-1.4301,-2.8058,-0.022602,-0.048258,0.030849,-25.92,13.68,22.2
9.3844,-1.4165,-2.8603,-0.027184,-0.025962,0.027489,-25.98,13.68,22.26
9.4389,-1.3484,-2.9011,-0.031154,-0.0027489,0.024435,-26.04,13.62,22.32
9.6704,-1.2803,-2.6423,-0.03543,-0.033598,0.02138,-26.04,13.56,22.2
9.4253,-1.2531,-2.6696,-0.01405,-0.10446,-0.0094684,-26.1,13.5,22.2
9.4117,-1.1577,-2.6151,-0.0039706,-0.10629,0.012217,-26.16,13.5,22.2
9.8339,-1.1713,-3.0237,-0.015272,-0.13561,-0.047342,-26.1,13.8,22.2
9.5615,-1.1169,-3.1599,-0.030849,-0.12828,-0.10629,-26.04,13.74,22.2
9.5479,-1.1169,-3.1054,-0.038485,-0.17807,-0.12798,-26.1,13.5,22.2
9.3844,-1.4029,-3.0237,-0.044288,-0.22571,-0.11026,-26.16,13.44,22.5
9.2074,-1.4438,-3.0373,-0.050396,-0.20159,-0.069333,-26.04,13.44,22.38
8.9213,-1.4165,-2.9829,-0.049175,-0.087659,0.0088575,-25.86,13.38,22.5
9.0848,-1.3212,-2.9556,-0.043371,0.010996,0.024129,-25.86,13.26,22.56
9.2482,-1.1986,-2.7377,-0.023213,0.11423,0.039706,-25.8,13.26,22.68
9.4661,-1.0624,-2.8739,-0.029322,0.14997,0.058948,-25.74,13.14,22.56
9.5479,-1.2395,-3.1191,0.007025,-0.060781,0.051007,-25.8,13.02,22.56
9.3163,-1.2667,-3.1463,-0.023824,0.055894,0.0281,-25.74,13.14,22.74
9.4798,-1.3212,-3.0237,-0.026878,0.057727,0.036957,-25.74,13.14,22.74
9.7113,-1.2803,-2.9829,-0.036652,0.068111,0.013134,-25.8,13.26,22.86
9.4389,-1.1305,-2.9829,-0.027794,0.035125,-0.042455,-25.86,13.14,22.8
9.7794,-1.1305,-3.1599,-0.024129,0.000305,-0.0045815,-25.74,13.26,22.86
9.6296,-1.1577,-3.0782,-0.038179,0.043066,-0.0094684,-25.56,13.32,22.86
9.5479,-1.185,-2.9556,-0.030543,0.032987,0.0082467,-25.5,13.32,22.8
9.3436,-1.2531,-2.9556,-0.034819,0.050091,-0.0073304,-25.5,13.32,22.8
9.1801,-1.2258,-2.8603,-0.043371,0.029932,-0.015882,-25.56,13.38,22.8
9.112,-1.3076,-2.7786,-0.050702,0.018937,0.009163,-25.5,13.38,22.74
9.0848,-1.2258,-2.7649,-0.054062,-0.0027489,0.033598,-25.62,13.44,22.68
9.1529,-1.1577,-2.7922,-0.04612,-0.01405,0.037263,-25.56,13.44,22.68
8.9894,-1.1305,-2.8875,-0.036957,-0.0033598,0.076969,-25.44,13.2,22.62
9.0167,-1.185,-3.0237,-0.0024435,0.034514,0.10629,-25.44,13.14,22.56
9.2482,-1.2667,-3.0646,-0.0073304,0.04948,0.15699,-25.44,13.08,22.44
10.065,-1.2803,-3.1599,0.000611,0.135,0.20036,-25.56,13.08,22.56
10.065,-1.2803,-3.1599,-0.020769,0.043066,0.1179,-25.56,13.08,22.56
9.3436,-1.3076,-2.6968,-0.034208,-0.086437,0.029932,-25.44,13.02,22.44
9.221,-1.362,-2.7377,-0.020464,-0.012828,0.045815,-25.56,13.14,22.38
9.7113,-1.4165,-3.0918,-0.032681,-0.043982,0.018937,-25.62,13.38,22.26
9.2891,-1.3484,-3.0373,-0.049786,-0.031154,0.0033598,-25.62,13.32,22.32
9.2618,-1.3348,-2.9965,-0.042455,-0.0097738,0.015577,-25.44,13.38,22.32
9.507,-1.3484,-2.9556,-0.03879,0.024129,0.01741,-25.32,13.32,22.32
9.5751,-1.2939,-2.9011,-0.045204,0.040317,-0.0015272,-25.2,13.44,22.44
9.5206,-1.3212,-2.8194,-0.048258,0.031154,-0.011301,-25.32,13.56,22.32
9.5887,-1.2258,-2.8194,-0.054062,0.011912,-0.0054978,-25.32,13.74,22.38
9.5479,-1.2531,-2.833,-0.036346,-0.012217,0.0015272,-25.2,13.74,22.32
9.4389,-1.2531,-2.8875,-0.022602,-0.015882,0.0085521,-25.2,13.68,22.5
9.2755,-1.2803,-2.9284,-0.023518,-0.015882,0.010385,-25.14,13.62,22.62
9.1529,-1.2803,-2.8603,-0.023213,-0.0076358,0.029016,-25.14,13.56,22.5
9.3163,-1.3348,-2.9148,-0.018937,-0.000916,0.05284,-25.32,13.62,22.5
9.4117,-1.4165,-2.9556,-0.021686,0.02138,0.08491,-25.32,13.8,22.56
9.507,-1.4301,-2.8467,-0.029016,0.05284,0.084605,-25.38,13.98,22.62
9.507,-1.3484,-2.8058,-0.025045,0.062614,0.076358,-25.26,13.92,22.86
9.6296,-1.3757,-2.8058,-0.018021,0.059865,0.072082,-25.26,14.04,22.86
9.6296,-1.4438,-2.9011,-0.022297,0.043371,0.053756,-25.26,13.92,22.92
9.4253,-1.4165,-2.8603,-0.024435,0.039095,0.043371,-25.2,14.16,22.92
9.507,-1.362,-2.7649,-0.027489,0.042761,0.048564,-25.26,14.04,22.92
9.7658,-1.3757,-2.8739,-0.030849,0.024129,0.033292,-25.44,13.98,22.98
9.6023,-1.3484,-2.8194,-0.031154,0.010996,0.014355,-25.32,13.98,23.1
9.2891,-1.2531,-2.9965,-0.029016,0.010996,0.03543,-25.5,13.86,23.16
9.6432,-1.2939,-2.9284,-0.020464,0.027794,0.051618,-25.62,14.04,23.16
9.9292,-1.3484,-2.9148,-0.015577,0.062614,0.046426,-25.62,13.98,22.98
9.7113,-1.4574,-2.7241,-0.021075,0.043066,0.01405,-25.5,13.86,22.92
9.1529,-1.4301,-2.6696,-0.023824,-0.035736,-0.0033598,-25.56,13.8,22.92
9.0575,-1.4438,-2.7377,-0.021991,-0.027489,0.022602,-25.62,13.68,22.92
9.1393,-1.4846,-2.833,-0.035736,-0.0024435,0.028711,-25.62,13.74,22.92
9.2755,-1.4165,-2.7377,-0.037874,0.020464,0.020464,-25.74,13.92,22.68
9.2482,-1.3757,-2.7241,-0.0281,0.012828,0.024435,-25.8,13.92,22.68
9.3163,-1.3757,-2.7513,-0.018021,0.0085521,0.020464,-25.74,13.8,22.44
9.5479,-1.5527,-2.9556,0.0024435,-0.0097738,0.055894,-25.56,13.68,22.32
10.025,-1.5663,-2.9011,0.0048869,-0.0082467,0.088575,-25.44,13.56,22.32
9.8611,-1.5119,-2.9011,-0.022297,0.016799,0.018631,-25.38,13.8,22.32
9.5615,-1.4982,-2.7377,-0.041539,-0.023824,-0.01069,-25.5,13.8,22.44
9.4798,-1.471,-2.8739,-0.058032,-0.038179,-0.031765,-25.44,14.04,22.32
9.507,-1.4982,-2.9284,-0.069639,-0.033292,-0.044288,-25.44,14.1,22.08
9.221,-1.4438,-2.942,-0.080634,0.030849,-0.050091,-25.5,14.1,22.02
9.5615,-1.6344,-2.8603,-0.10721,0.038179,-0.040317,-25.38,14.1,22.2
9.5615,-1.6072,-2.8739,-0.097128,0.072082,-0.040317,-25.56,14.22,22.26
9.8066,-1.7025,-3.0782,-0.11881,0.088881,-0.055894,-25.5,14.22,22.2
9.5206,-1.5255,-2.942,-0.13683,0.096517,-0.08827,-25.5,14.16,22.38
10.106,-1.4301,-2.6423,-0.13958,0.08094,-0.075747,-25.68,14.1,22.32
10.052,-1.471,-2.5061,-0.090103,0.096517,-0.1518,-25.68,13.92,22.32
9.6432,-1.2531,-2.4925,-0.072693,-0.061392,-0.11301,-25.8,13.8,22.14
9.507,-1.2531,-2.6968,-0.055589,-0.14203,-0.064752,-25.98,13.5,22.14
9.0303,-1.0896,-2.6832,-0.048564,-0.15699,-0.047342,-26.1,13.38,22.26
8.826,-0.96704,-2.7513,-0.058643,-0.17257,-0.023213,-26.1,13.32,22.38
8.5944,-0.89894,-2.8603,-0.051618,-0.14569,0.01741,-26.1,13.38,22.32
8.4855,-0.77636,-2.6968,-0.067806,-0.078802,0.048258,-25.86,13.2,22.44
7.7091,-0.58567,-2.3155,-0.098044,0.089186,0.054367,-25.86,13.02,22.44
7.464,-0.19068,-2.547,-0.089186,0.097128,0.066584,-25.74,13.02,22.5
11.959,-0.89894,-3.7047,0.12706,-0.20769,0.27397,-25.74,12.78,22.44
10.992,-1.7706,-3.1599,0.09163,0.17837,0.489,-25.56,12.9,22.62
9.9156,-0.89894,-2.9692,0.065668,0.22052,0.091935,-25.38,12.9,22.62
8.54,-1.2531,-2.6696,0.030238,-0.10018,0.093768,-25.26,12.96,22.62
9.3299,-1.6481,-2.8603,0.0097738,-0.10873,0.091935,-25.02,12.9,22.5
9.9429,-1.9477,-3.3234,-0.018326,0.010385,0.090408,-24.9,12.96,22.44
9.8611,-1.6072,-3.1327,-0.073304,0.055589,0.05681,-25.02,13.08,22.26
9.9429,-1.5936,-2.9011,-0.1014,0.013744,-0.063225,-25.02,13.2,22.44
9.0712,-1.5391,-2.656,-0.077885,-0.020159,-0.091935,-25.08,13.32,22.56
9.4389,-1.5527,-2.9965,-0.03146,0.048564,-0.0073304,-25.08,13.38,22.5
9.6432,-1.4029,-2.9692,-0.051618,0.069944,-0.041233,-25.32,13.5,22.5
9.5615,-1.3893,-2.8058,-0.076358,0.032681,-0.07025,-25.38,13.56,22.56
9.4798,-1.2122,-2.6968,-0.083689,0.020159,-0.064446,-25.62,13.56,22.62
9.4389,-1.185,-2.6968,-0.065363,0.041844,-0.035736,-25.56,13.38,22.62
9.507,-1.2531,-2.7513,-0.048258,0.0094684,-0.016799,-25.74,13.56,22.74
9.3844,-1.2803,-2.7649,-0.034208,-0.012523,-0.03879,-25.98,13.32,22.8
9.3572,-1.2258,-2.7377,-0.027794,-0.0018326,-0.048564,-26.1,13.14,22.44
9.3299,-1.1577,-2.7377,-0.014355,0.032987,-0.025351,-26.16,13.14,22.38
9.398,-1.3757,-2.6015,-0.002138,0.036041,-0.019242,-26.34,13.02,22.32
9.6023,-1.3212,-2.6423,0.0015272,0.020769,-0.0094684,-26.22,13.02,22.44
9.5206,-1.4438,-2.7922,0.011606,-0.023213,-0.01741,-26.16,12.96,22.26
9.3844,-1.3212,-2.8058,0.0015272,-0.024129,-0.0048869,-26.16,12.78,22.26
9.3844,-1.3212,-2.833,-0.0058032,-0.0097738,-0.000611,-26.22,13.08,22.2
9.5342,-1.3484,-2.8603,-0.016799,-0.000611,0.017104,-26.22,13.14,21.96
9.5887,-1.4165,-2.9148,-0.033598,-0.0073304,0.0024435,-26.1,13.14,21.9
9.6296,-1.4438,-2.9011,-0.037263,-0.0067195,-0.014661,-26.16,13.32,22.14
9.6023,-1.3757,-2.8058,-0.042761,-0.015577,-0.030543,-26.22,13.2,22.2
9.4798,-1.3757,-2.7922,-0.036957,-0.033292,-0.040928,-25.98,13.2,22.26
9.4798,-1.2667,-2.7513,-0.03543,-0.037263,-0.050396,-25.98,13.26,22.2
9.3844,-1.2531,-2.7649,-0.031154,-0.053451,-0.036346,-26.16,13.38,22.26
9.4525,-1.3348,-2.7786,-0.019548,-0.047647,-0.031765,-26.16,13.2,22.32
9.3436,-1.2531,-2.8194,-0.016188,-0.052229,-0.029016,-26.28,13.26,22.08
9.507,-1.2258,-2.7786,-0.01405,-0.064752,-0.031154,-26.22,13.14,22.2
9.6432,-1.185,-2.8875,-0.01405,-0.078802,-0.032987,-26.28,13.2,22.2
9.5206,-1.1305,-2.8603,-0.007025,-0.067501,-0.047953,-26.34,13.2,22.32
9.2891,-1.1169,-2.9284,-0.019853,-0.074831,-0.045509,-26.22,13.08,22.32
9.3436,-1.1441,-2.942,-0.024129,-0.059254,-0.031765,-26.16,12.96,22.5
9.507,-1.185,-2.8603,-0.019242,-0.035125,-0.043066,-26.1,12.84,22.38
9.398,-1.076,-2.942,-0.024435,-0.035736,-0.045815,-26.04,12.84,22.56
9.3572,-1.076,-2.9011,-0.024435,-0.035125,-0.038179,-26.1,12.96,22.44
9.3708,-1.1441,-2.9284,-0.019853,-0.029932,-0.022602,-26.04,12.84,22.62
9.3844,-1.0896,-2.9148,-0.015577,0.0012217,-0.013744,-25.98,12.66,22.74
9.3436,-1.1169,-2.942,-0.021075,0.011912,0.0048869,-25.92,12.72,22.86
9.4117,-1.1169,-2.9829,-0.018631,0.011301,0.025351,-25.92,12.66,22.86
9.3708,-1.0896,-3.0918,-0.024129,0.021075,0.040623,-25.92,12.54,23.04
9.3163,-1.1577,-3.0646,-0.036346,0.028405,0.059865,-26.22,12.6,22.98
9.3844,-1.1986,-2.8603,-0.033292,0.038179,0.069333,-26.22,12.72,22.8
9.507,-1.1713,-2.9011,-0.032376,0.040317,0.07025,-26.34,12.78,22.86
9.6296,-1.2258,-2.9284,-0.030849,0.029016,0.059559,-26.34,12.9,22.86
9.4798,-1.185,-2.8603,-0.026267,0.024435,0.060476,-26.34,12.84,23.16
9.507,-1.2122,-2.9284,-0.034819,0.027794,0.066279,-26.22,12.9,23.22
9.7113,-1.2803,-2.8467,-0.026267,0.031765,0.05284,-26.28,12.9,23.22
9.5342,-1.3212,-2.8603,-0.02138,0.011301,0.042455,-26.16,12.96,23.22
9.4253,-1.1986,-2.9965,-0.023213,0.0058032,0.028711,-25.98,12.96,22.98
9.507,-1.2803,-2.8603,-0.038485,0.022297,0.036957,-25.98,13.14,23.16
9.4389,-1.2258,-2.9011,-0.036957,0.026267,0.040012,-25.92,13.08,23.22
9.4117,-1.2395,-2.8603,-0.026573,0.033598,0.044593,-25.92,13.14,23.1
9.3436,-1.185,-2.833,-0.028711,0.037874,0.054062,-25.92,13.2,22.98
9.4525,-1.1577,-2.7649,-0.026267,0.029932,0.072388,-25.98,13.2,22.8
9.5479,-1.2122,-2.833,-0.016799,0.02138,0.0562,-26.1,13.56,22.5
9.5206,-1.3484,-2.9148,-0.012523,0.025656,0.040317,-25.98,13.56,22.5
9.6023,-1.3893,-2.9011,-0.013439,0.011606,0.029016,-25.98,13.56,22.38
9.4934,-1.4165,-2.8603,-0.012217,0.01069,0.034514,-26.04,13.8,22.26
9.4798,-1.3348,-2.9011,-0.026267,0.015577,0.034208,-26.04,13.68,22.38
9.4117,-1.2803,-2.8058,-0.034208,0.016493,0.032987,-26.1,13.86,22.38
9.4117,-1.3212,-2.833,-0.023518,0.0073304,0.034819,-25.98,13.8,22.32
9.4117,-1.3076,-2.8194,-0.023518,0.000916,0.042761,-25.86,13.8,22.08
9.5479,-1.2531,-2.8603,-0.038179,-0.0024435,0.044593,-25.86,13.74,21.84
9.5751,-1.2939,-2.9011,-0.032987,0.011606,0.033598,-25.8,13.56,21.84
9.4661,-1.2531,-2.8194,-0.032987,0.002138,0.029932,-25.86,13.56,21.78
9.4661,-1.2803,-2.8194,-0.029322,-0.0012217,0.035736,-25.86,13.38,21.84
9.5615,-1.3076,-2.8875,-0.037874,0.0027489,0.030849,-25.62,13.5,21.9
9.4934,-1.3484,-2.833,-0.030543,0.0039706,0.029322,-25.62,13.56,21.96
9.6023,-1.3212,-2.7922,-0.0281,0.0073304,0.031154,-25.62,13.32,22.02
9.6432,-1.3484,-2.7786,-0.037568,-0.0085521,0.013744,-25.68,13.32,22.02
9.6296,-1.362,-2.833,-0.037874,-0.014661,-0.0027489,-25.56,13.38,21.96
9.4389,-1.3348,-2.8875,-0.035736,-0.0097738,-0.013439,-25.56,13.26,21.66
9.4798,-1.2939,-2.833,-0.04612,0.002138,-0.013134,-25.68,13.26,21.66
9.4389,-1.3484,-2.7513,-0.048869,0.0030543,-0.014966,-25.8,13.2,21.9
9.3844,-1.3484,-2.8058,-0.045204,0.0045815,-0.017104,-25.74,13.32,22.02
9.5342,-1.3076,-2.7922,-0.051924,0.002138,-0.012217,-25.86,13.44,22.08
9.507,-1.2803,-2.8058,-0.04948,-0.0024435,-0.013439,-25.8,13.44,22.2
9.4661,-1.2531,-2.833,-0.047647,-0.013439,-0.013134,-25.62,13.68,22.32
9.4525,-1.2531,-2.8603,-0.042455,-0.01069,-0.0073304,-25.74,13.56,22.2
9.3844,-1.2531,-2.8875,-0.043066,-0.0015272,-0.002138,-25.38,13.68,22.2
9.5479,-1.2395,-2.8058,-0.051313,0.009163,-0.0064141,-25.26,13.56,22.32
9.5479,-1.185,-2.9148,-0.045815,-0.0076358,-0.0097738,-25.44,13.62,22.32
9.5751,-1.2395,-2.833,-0.047647,-0.014661,-0.013134,-25.5,13.74,22.32
9.4253,-1.2122,-2.8058,-0.048564,-0.013134,-0.014661,-25.44,13.8,22.32
9.5479,-1.2667,-2.8603,-0.037874,-0.0097738,-0.018021,-25.56,13.8,22.32
9.4525,-1.2667,-2.7786,-0.036346,-0.016493,-0.0079412,-25.62,13.74,22.2
9.4389,-1.1577,-2.833,-0.038485,-0.0027489,0.0045815,-25.44,13.86,22.32
9.398,-1.2258,-2.9284,-0.029932,-0.011912,0.0048869,-25.74,13.74,22.14
9.3299,-1.2531,-2.8875,-0.034819,-0.01741,0.009163,-25.92,13.92,22.2
9.4389,-1.2667,-2.942,-0.039706,0.0027489,0.023518,-25.98,13.98,22.26
9.5615,-1.3212,-2.8603,-0.04215,0.0024435,0.016799,-25.8,13.92,22.56
9.7113,-1.3076,-2.8875,-0.038179,-0.0015272,-0.013439,-25.74,13.74,22.62
9.507,-1.185,-2.8467,-0.039095,-0.021075,-0.078802,-25.68,13.74,22.56
9.3163,-1.2258,-2.833,-0.041844,-0.012523,-0.069028,-25.68,13.68,22.56
9.3844,-1.2258,-2.833,-0.047647,-0.000305,-0.049175,-25.62,13.62,22.5
9.3844,-1.185,-2.8739,-0.042761,0.000916,-0.029932,-25.62,13.68,22.44
9.4661,-1.0896,-2.833,-0.037874,-0.013134,0.0054978,-25.68,13.62,22.26
9.4934,-1.076,-2.8875,-0.03146,-0.014355,0.019853,-25.8,13.38,22.2
9.5479,-1.1577,-2.833,-0.038485,-0.0064141,0.023213,-25.8,13.56,22.26
9.507,-1.1713,-2.8739,-0.037874,-0.019242,0.020159,-25.74,13.62,22.14
9.507,-1.1441,-2.8739,-0.043066,-0.0048869,0.020769,-25.74,13.5,22.02
9.5479,-1.1169,-2.8875,-0.043066,-0.0027489,0.016799,-25.8,13.5,22.08
9.5751,-1.0896,-2.8467,-0.039706,0.000305,0.0076358,-25.8,13.38,22.02
9.4389,-1.1577,-2.8467,-0.04612,0.0018326,0.0051924,-25.92,13.32,22.02
9.4934,-1.1441,-2.7649,-0.037568,0.000611,0.014966,-25.86,13.38,22.14
9.4525,-1.185,-2.8603,-0.032376,0.0027489,0.019548,-25.92,13.2,22.32
9.5887,-1.1169,-2.9556,-0.03879,0.013744,0.016493,-25.86,13.2,22.38
9.5479,-1.1713,-2.8875,-0.039095,0.021991,0.011301,-26.04,12.96,22.62
9.4389,-1.1713,-2.8603,-0.034514,0.013744,0.013134,-25.92,12.96,22.62
9.4798,-1.1577,-2.8603,-0.040012,-0.0012217,0.018326,-25.92,12.72,22.74
9.4389,-1.185,-2.833,-0.040623,0.0079412,0.013134,-26.04,12.66,22.62
9.4661,-1.1577,-2.7377,-0.041539,0.0064141,0.018631,-26.04,12.6,22.8
9.4798,-1.1441,-2.8058,-0.034819,0.019242,0.018021,-25.98,12.6,22.92
9.4798,-1.1032,-2.7241,-0.045815,0.035125,0.025045,-26.1,12.54,22.86
9.4117,-1.1713,-2.8603,-0.032987,0.05681,0.029322,-26.1,12.6,22.86
9.4389,-1.1577,-2.9284,-0.027489,0.074831,0.033598,-26.1,12.6,22.74
9.4661,-1.185,-2.9284,-0.028405,0.065668,0.039095,-25.98,12.6,22.62
9.507,-1.185,-2.8875,-0.0281,0.053145,0.04612,-25.92,12.72,22.74
9.7113,-1.2258,-2.7377,-0.017715,-0.13958,0.050396,-25.92,12.66,22.5
9.7385,-1.2667,-2.7649,-0.010079,-0.27397,0.031154,-25.86,12.72,22.38
9.4661,-1.3212,-2.9556,-0.013439,-0.31887,0.027184,-26.04,12.66,22.38
9.1393,-1.3212,-3.1327,-0.035736,-0.29047,0.057421,-26.04,12.78,22.44
9.3844,-1.3484,-3.1599,-0.065363,-0.31276,0.1182,-25.92,12.78,22.5
9.5206,-1.2258,-3.4187,-0.10476,-0.45845,0.12981,-25.92,12.84,22.38
9.1937,-1.2803,-3.5277,-0.15149,-0.46456,0.12462,-25.8,12.84,22.26
9.5751,-1.5391,-3.2825,-0.1854,-0.33414,0.14966,-25.68,12.9,22.26
9.4117,-1.7162,-3.5822,-0.24984,-0.15852,0.11423,-25.56,12.96,22.38
9.4389,-1.185,-4.0589,-0.21686,-0.40714,0.12645,-25.56,12.9,22.62
9.9565,-1.4029,-3.8954,-0.23793,-0.27122,0.024129,-25.5,12.9,22.86
10.515,-1.3484,-3.8001,-0.20556,-0.21319,-0.11118,-25.44,12.96,22.92
10.324,-1.4165,-3.5685,-0.20922,-0.41722,-0.17959,-25.38,12.96,23.16
9.902,-1.4165,-3.5549,-0.22327,-0.7419,-0.1857,-25.08,13.14,23.52
9.2891,-1.757,-4.5356,-0.3149,-0.92913,-0.23121,-24.96,13.14,23.7
8.0769,-1.7434,-5.2847,-0.45296,-0.88911,-0.18234,-24.54,13.02,24.3
8.0905,-1.362,-5.1076,-0.54642,-0.43005,-0.12889,-24.36,12.9,24.54
8.3765,-1.2531,-4.7944,-0.58063,-0.17959,-0.13103,-24.12,12.72,24.78
8.5127,-1.2122,-4.7126,-0.6411,0.33567,-0.11301,-23.76,12.42,25.32
8.7034,-0.8717,-4.6309,-0.65973,0.42883,-0.028711,-23.64,12.18,25.68
8.9213,-0.31327,-4.699,-0.64049,0.33384,0.078191,-23.4,11.76,26.1
8.3901,0.12258,-4.6445,-0.61514,0.27428,0.13989,-23.22,11.52,26.22
8.4174,0.47671,-4.6854,-0.59071,0.2868,0.14691,-23.16,11.28,26.4
8.6081,0.51757,-4.6718,-0.55375,0.26237,0.16096,-23.22,11.04,26.52
8.6898,0.50395,-4.413,-0.53359,0.18173,0.18509,-23.22,10.62,26.7
8.2131,1.0079,-3.732,-0.47647,0.074831,0.30055,-23.1,10.02,27.12
8.2403,1.2122,-3.6094,-0.3711,-0.17349,0.38546,-23.1,9.66,27.36
8.6217,1.6072,-3.7728,-0.26634,-0.39095,0.4102,-23.4,9.24,27.42
8.4582,0.57205,-3.9908,-0.20128,-0.55711,0.43035,-23.4,9.06,27.6
8.6081,-0.21793,-3.7592,-0.20433,-0.47189,0.44838,-23.52,9.0,27.72
8.4991,-0.17706,-3.6775,-0.22327,-0.39584,0.478,-23.64,8.88,27.9
8.4719,-0.70826,-3.6366,-0.22297,-0.39004,0.50183,-23.64,8.76,28.08
8.4174,-1.1986,-3.8001,-0.21838,-0.36102,0.51007,-23.52,8.64,28.26
9.2482,-2.0839,-3.909,-0.26084,-0.24312,0.49999,-23.46,8.64,28.32
8.7715,-2.4789,-3.7865,-0.31582,-0.20464,0.44563,-23.22,8.94,28.74
8.322,-2.4244,-3.6911,-0.34056,-0.17746,0.40348,-22.98,9.18,28.92
7.9951,-2.3155,-3.732,-0.40592,0.042761,0.33934,-22.74,9.42,29.22
8.1313,-2.7513,-3.8682,-0.44807,0.208,0.29016,-22.56,9.54,29.28
8.6762,-3.514,-3.6775,-0.48381,0.34819,0.15455,-22.26,9.9,29.7
8.2131,-2.7377,-3.5413,-0.42486,0.32987,0.22877,-22.08,10.02,29.82
8.1177,-1.4438,-3.5958,-0.33384,0.27336,0.27733,-21.9,10.32,30.06
8.7034,-1.2939,-3.8954,-0.21594,0.28497,0.31948,-21.72,10.32,30.3
9.2346,-1.1713,-4.1814,-0.056505,0.19853,0.3656,-21.6,10.5,30.3
10.256,-1.1441,-4.6718,0.049175,0.12737,0.35522,-21.42,10.5,30.3
10.202,-0.96704,-4.4947,0.10599,0.20831,0.3207,-21.3,10.62,30.42
10.079,-0.89894,-4.0997,0.12645,0.41081,0.21686,-21.18,10.8,30.42
9.7658,-1.0215,-3.7865,0.12217,0.4777,0.1237,-21.06,10.8,30.48
9.793,-1.0215,-3.8273,0.11026,0.5171,0.057116,-21.18,10.68,30.36
9.9429,-1.0896,-3.8001,0.079718,0.5226,0.007025,-21.3,10.8,30.18
10.106,-1.1305,-3.8001,0.078191,0.46334,-0.020464,-21.24,10.8,30.12
9.8611,-1.2531,-3.8954,0.083383,0.29352,-0.051313,-21.42,10.8,29.94
9.5479,-1.2939,-3.8273,0.09163,0.094379,-0.10201,-21.54,10.92,29.82
8.7987,-1.4846,-3.6775,0.085827,-0.03146,-0.14111,-21.42,10.92,29.58
8.7579,-1.6072,-3.732,0.069028,-0.054672,-0.10507,-21.42,10.98,29.22
8.9349,-1.6481,-3.8954,0.043677,-0.007025,-0.089797,-21.42,10.92,29.28
9.1393,-1.6889,-4.018,0.011606,0.092241,-0.087354,-21.54,10.98,29.34
9.5751,-1.7298,-3.909,-0.009163,0.16463,-0.11332,-21.78,11.16,29.22
9.5342,-1.7706,-3.7456,-0.0039706,0.18173,-0.16616,-21.9,11.22,29.1
9.4117,-1.8251,-3.4323,-0.0097738,0.20342,-0.16402,-22.2,11.34,28.8
9.1937,-1.7979,-3.2144,-0.016493,0.2025,-0.14478,-22.26,11.4,28.74
9.221,-1.6481,-3.3234,-0.0085521,0.14661,-0.13103,-22.32,11.4,28.74
8.8805,-1.5663,-3.514,0.022907,0.042761,-0.12339,-22.56,11.52,28.74
8.7851,-1.4438,-3.7047,0.023518,-0.031154,-0.068111,-22.62,11.64,28.62
8.8941,-1.4165,-3.7592,0.011912,-0.040317,-0.011301,-23.04,11.82,28.68
8.826,-1.5119,-3.7728,-0.022602,-0.038485,0.044899,-23.16,11.82,28.62
8.5944,-1.5119,-3.8273,-0.048869,-0.03207,0.069028,-23.16,12.0,28.74
8.826,-1.4438,-3.8409,-0.068417,-0.032376,0.088881,-23.16,12.06,28.62
8.9349,-1.4165,-3.9908,-0.10049,-0.025351,0.096211,-23.22,12.12,28.56
8.9758,-1.471,-3.7592,-0.12309,0.010996,0.1124,-23.28,12.12,28.44
9.1801,-1.4574,-3.6503,-0.14416,0.048258,0.14508,-23.34,12.18,28.5
9.3708,-1.3212,-3.6094,-0.1628,0.053451,0.14294,-23.28,12.3,28.5
9.3436,-1.2122,-3.5685,-0.16616,0.045204,0.12859,-23.34,12.3,28.56
9.1801,-1.1169,-3.3778,-0.16677,0.050396,0.12584,-23.28,12.3,28.62
9.0848,-1.1032,-3.1872,-0.14905,0.065363,0.14844,-23.34,12.3,28.56
9.6977,-1.1305,-3.4187,-0.15547,0.054367,0.16585,-23.22,12.3,28.56
9.9292,-1.2667,-3.6639,-0.1744,0.036346,0.093462,-22.98,12.24,28.68
9.4389,-1.2803,-3.6094,-0.20525,0.11118,-0.009163,-22.92,12.24,28.8
9.1665,-1.3076,-3.3097,-0.208,0.16249,-0.02474,-23.04,12.18,28.8
9.0575,-1.3757,-3.2008,-0.17715,0.15669,-0.0097738,-22.98,12.06,28.8
9.507,-1.3484,-3.2961,-0.16402,0.099266,-0.0015272,-23.1,12.0,28.8
9.5615,-1.2939,-3.4323,-0.14722,0.047037,-0.031765,-23.04,12.0,28.86
9.3844,-1.3076,-3.4323,-0.12095,0.015577,-0.061697,-23.16,12.0,28.8
9.0848,-1.2667,-3.4459,-0.10476,0.0562,-0.057116,-23.16,11.7,28.8
9.1393,-1.185,-3.3234,-0.047647,0.085521,-0.0281,-23.16,11.64,28.62
9.0984,-1.1577,-3.3234,-0.029627,0.089797,-0.02138,-23.34,11.58,28.62
9.221,-1.2258,-3.4051,0.0036652,0.047037,0.018937,-23.16,11.52,28.56
9.2891,-1.2939,-3.5413,0.010996,0.019853,0.030238,-23.28,11.46,28.5
9.1529,-1.3212,-3.4187,0.011301,0.043982,0.035736,-23.4,11.34,28.32
9.221,-1.2531,-3.1599,0.045204,0.039095,0.07086,-23.52,11.22,28.08
9.2482,-1.2803,-3.2553,0.044288,0.002138,0.077274,-23.4,11.22,28.08
9.2074,-1.2803,-3.3642,0.030543,0.0036652,0.083078,-23.58,11.16,28.02
9.2482,-1.3757,-3.5685,0.009163,0.059559,0.08827,-23.64,11.1,28.14
9.3844,-1.3484,-3.5413,0.0054978,0.15791,0.083689,-23.7,11.04,28.08
9.4253,-1.4165,-3.4051,-0.018937,0.26267,0.065057,-23.58,10.98,28.14
9.3844,-1.3484,-3.4323,-0.046426,0.3708,0.044593,-23.7,11.16,28.08
9.3436,-1.362,-3.3234,-0.069639,0.47831,0.0076358,-23.76,11.28,28.08
9.2891,-1.3757,-3.0782,-0.081856,0.46487,0.0030543,-23.7,11.34,28.08
9.793,-1.4165,-3.1735,-0.11729,0.42089,-0.020159,-23.88,11.4,27.96
9.793,-1.4165,-3.0782,-0.12584,0.41447,-0.073609,-24.06,11.34,28.02
9.4117,-1.2667,-2.8603,-0.12217,0.44502,-0.10537,-24.06,11.34,27.9
9.4117,-1.3212,-2.547,-0.11759,0.43463,-0.085216,-24.36,11.46,28.02
9.5751,-1.2395,-2.4653,-0.095906,0.36346,-0.067501,-24.78,11.4,27.96
9.6432,-1.185,-2.4244,-0.074831,0.2813,-0.067806,-24.78,11.46,27.78
9.6977,-1.1713,-2.5061,-0.065973,0.22724,-0.074526,-24.84,11.34,27.48
9.4798,-1.185,-2.5334,-0.050396,0.1124,-0.089492,-25.26,11.34,27.12
9.398,-1.0896,-2.4244,-0.044899,0.030543,-0.075747,-25.56,11.22,26.88
9.3436,-1.1305,-2.3972,-0.037263,-0.067195,-0.040012,-25.8,11.1,26.7
9.5206,-1.1577,-2.5742,-0.024435,-0.099876,-0.0061087,-25.86,11.04,26.52
9.5887,-1.1169,-2.656,-0.028405,-0.10507,-0.0018326,-26.04,10.92,26.4
9.5342,-1.0896,-2.7241,-0.035125,-0.096822,-0.000611,-26.22,10.86,26.34
9.6023,-1.0896,-2.5061,-0.021686,-0.060781,0.0015272,-26.34,10.74,26.04
9.6841,-1.0215,-2.6151,-0.037263,-0.12095,0.012217,-26.58,10.74,26.04
9.793,-0.9398,-2.6832,-0.030849,-0.28191,-0.0039706,-26.52,10.68,25.98
9.9292,-0.9398,-2.8603,-0.01741,-0.30391,-0.011912,-26.34,10.68,25.98
9.7658,-1.0351,-2.942,-0.0079412,-0.28375,-0.011912,-26.34,10.68,26.04
9.5751,-1.2122,-3.0237,-0.0061087,-0.22999,-0.007025,-26.34,10.68,26.04
9.1256,-1.2531,-2.9011,0.012217,-0.055894,0.0073304,-26.16,10.86,26.16
9.1256,-1.2395,-2.8194,-0.018326,-0.019242,0.016493,-26.22,10.92,26.34
9.1665,-1.2258,-2.7377,-0.028405,-0.045815,0.023824,-26.1,10.92,26.28
9.1256,-1.1441,-2.5606,-0.016188,-0.13561,0.01405,-26.04,10.98,26.52
8.9486,-1.0079,-2.5334,0.0033598,-0.16371,0.023824,-26.04,11.04,26.64
8.9213,-0.96704,-2.5879,0.033903,-0.15394,0.044593,-25.92,11.1,26.76
9.1256,-0.98067,-2.8467,0.055589,-0.13164,0.13225,-25.62,11.16,27.0
10.61,-0.98067,-3.2416,0.11423,-0.28344,0.2645,-25.56,11.16,27.18
10.964,-1.2803,-3.0918,0.11454,-0.31796,0.17685,-25.5,11.16,27.06
9.0303,-1.4301,-3.2008,0.10965,-0.30757,0.060476,-25.44,11.1,27.0
8.7034,-1.3893,-3.2008,0.060476,-0.14997,0.097738,-25.38,11.04,27.12
9.3163,-1.471,-3.2961,0.055283,-0.21075,0.08491,-25.32,11.16,27.12
9.9565,-1.3076,-3.6094,0.062003,-0.24343,0.0562,-25.02,11.22,27.3
9.8475,-1.3484,-3.5958,0.053756,-0.18662,0.021991,-24.84,11.28,27.36
9.4798,-1.4165,-3.5549,0.015882,-0.12156,-0.020159,-24.72,11.28,27.54
8.7987,-1.4574,-3.4459,-0.023824,-0.012828,-0.03879,-24.54,11.4,27.6
8.826,-1.4846,-3.4187,-0.064752,0.067501,-0.0281,-24.36,11.46,27.54
8.7851,-1.4029,-3.1599,-0.072693,0.075442,-0.036041,-24.3,11.58,27.42
8.9622,-1.3348,-2.942,-0.090713,0.067195,0.0039706,-24.12,11.7,27.48
9.1529,-1.2531,-3.0101,-0.058948,0.012523,0.043066,-23.94,11.82,27.48
9.6432,-1.2258,-3.1735,-0.015577,-0.062308,0.0956,-23.94,11.82,27.54
9.616,-1.3757,-3.3097,0.0030543,-0.027184,0.081245,-23.7,12.0,27.66
9.4253,-1.2803,-3.337,-0.000305,0.042455,0.043677,-23.7,12.06,27.66
9.3299,-1.471,-3.2144,-0.020464,0.024129,0.040317,-23.76,12.0,27.66
9.5479,-1.4438,-3.2553,-0.018631,-0.0067195,0.02138,-23.76,12.0,27.6
9.4525,-1.4029,-3.3097,-0.022297,-0.036957,-0.009163,-23.64,12.0,27.48
9.2346,-1.3757,-3.3506,-0.020769,-0.0076358,-0.009163,-23.7,12.12,27.36
9.2346,-1.4165,-3.2416,-0.028711,-0.0051924,0.0061087,-23.7,12.12,27.36
9.0575,-1.3757,-3.2825,-0.067501,0.022297,-0.0067195,-23.7,12.12,27.36
9.1529,-1.4438,-3.3234,-0.090408,0.076358,0.021686,-23.64,12.12,27.48
9.5751,-1.362,-3.2553,-0.087048,0.079107,0.039706,-23.64,12.06,27.48
9.9292,-1.3348,-2.9692,-0.082161,0.10843,0.017104,-23.76,12.0,27.48
9.9837,-1.4029,-2.9556,-0.081245,0.14813,-0.020464,-23.76,12.12,27.48
9.6432,-1.3757,-2.942,-0.087965,0.1295,-0.062919,-23.94,12.0,27.6
9.2074,-1.3757,-3.0237,-0.077274,0.058338,-0.092546,-24.06,12.18,27.6
9.0167,-1.2258,-2.9692,-0.082467,0.021075,-0.07758,-23.94,12.12,27.54
9.0167,-1.1986,-3.0373,-0.08094,0.0051924,-0.066279,-24.0,12.12,27.48
8.9622,-0.95342,-3.3097,-0.071166,0.0036652,-0.040928,-24.36,12.06,27.42
8.7987,-0.8717,-3.3097,-0.075747,0.039095,-0.029016,-24.36,11.94,27.6
8.6898,-0.84446,-3.337,-0.071166,0.018021,0.0067195,-24.42,11.88,27.6
9.5615,-1.0896,-3.2961,-0.026573,-0.032681,0.11576,-24.36,11.64,27.48
9.6704,-1.1441,-3.2553,-0.0097738,-0.030238,0.12706,-24.48,11.52,27.54
9.5751,-1.2803,-3.0646,0.0015272,-0.019242,0.12981,-24.54,11.46,27.48
9.5206,-1.3484,-3.0101,-0.0082467,-0.013439,0.091324,-24.54,11.52,27.42
9.6023,-1.3484,-3.0373,-0.011301,-0.022297,0.063225,-24.66,11.46,27.36
9.6568,-1.3893,-2.8194,-0.0097738,-0.036041,0.035736,-24.6,11.46,27.3
9.6704,-1.3212,-2.9829,-0.0033598,-0.044288,0.013134,-24.3,11.22,27.3
9.7794,-1.3076,-3.1463,0.011912,-0.079718,-0.012828,-24.24,11.28,27.36
9.9292,-1.2667,-3.2553,0.02474,-0.09896,-0.024435,-24.18,11.22,27.48
9.6296,-1.3893,-3.5004,0.043371,-0.097738,-0.045815,-24.06,11.34,27.66
9.2755,-1.4846,-3.4323,0.037568,-0.076664,-0.087965,-24.06,11.4,27.54
8.8941,-1.5255,-3.4459,-0.009163,0.0097738,-0.093462,-24.06,11.4,27.78
8.6762,-1.3757,-3.1872,-0.059865,0.060476,-0.042761,-24.18,11.46,27.9
8.6489,-1.3076,-3.1872,-0.072082,0.069944,-0.026573,-24.0,11.4,27.9
8.5127,-1.2122,-2.942,-0.07422,0.090408,0.020769,-23.94,11.34,27.96
8.6217,-1.1169,-2.9011,-0.069944,0.089797,0.080329,-23.82,11.28,27.96
8.7443,-1.076,-2.8603,-0.062003,0.062308,0.11912,-23.7,11.22,27.96
9.9973,-1.076,-3.1054,0.0064141,-0.082161,0.21441,-23.76,11.16,27.84
10.542,-1.4301,-3.2416,0.048564,-0.057116,0.13836,-23.94,11.34,27.72
9.8339,-1.471,-3.337,0.037874,0.025045,0.076969,-23.88,11.34,27.84
9.3844,-1.58,-3.4459,-0.0054978,0.020769,0.014355,-23.88,11.4,27.6
9.7249,-1.4438,-3.1872,-0.042455,0.0079412,-0.029627,-23.82,11.46,27.66
9.7658,-1.4029,-3.2144,-0.045509,-0.026267,-0.060781,-23.88,11.46,27.6
9.4798,-1.3484,-3.2553,-0.051618,-0.020159,-0.076664,-23.82,11.46,27.54
9.1937,-1.2122,-3.2008,-0.049175,0.016799,-0.072998,-23.88,11.46,27.48
9.1665,-1.2531,-3.0646,-0.051924,0.034819,-0.05284,-24.18,11.58,27.42
9.1256,-1.185,-3.0782,-0.038179,0.034819,-0.033903,-24.24,11.64,27.18
9.112,-1.2531,-3.1054,-0.0281,0.032681,-0.017104,-24.36,11.64,27.18
9.112,-1.3757,-2.8467,-0.025962,0.026573,0.019853,-24.36,11.7,27.18
9.0575,-1.3757,-2.9148,-0.020464,0.011606,0.048258,-24.36,11.76,27.36
9.0984,-1.4574,-3.0237,-0.011912,-0.058948,0.11057,-24.36,11.94,27.42
9.8203,-1.3757,-3.2144,-0.0030543,-0.072998,0.1237,-24.48,11.88,27.24
10.038,-1.3893,-3.1599,0.000916,-0.059865,0.10293,-24.54,11.7,27.36
10.161,-1.471,-3.1327,0.000916,-0.0079412,0.075442,-24.6,11.7,27.3
9.6841,-1.3893,-3.1191,-0.0094684,0.007025,-0.036346,-24.48,11.64,27.18
9.4525,-1.4574,-3.1872,-0.029932,-0.002138,-0.087048,-24.54,11.7,27.0
9.0712,-1.3484,-3.2144,-0.062614,-0.020159,-0.12065,-24.54,11.58,27.12
8.8941,-1.185,-3.3097,-0.071777,-0.020464,-0.10446,-24.54,11.7,27.12
8.8668,-1.0624,-3.2416,-0.079412,-0.0030543,-0.069944,-24.54,11.64,27.24
8.7034,-0.99429,-3.3506,-0.079718,0.020159,-0.051007,-24.54,11.7,27.3
8.4446,-0.70826,-3.2553,-0.085521,0.039095,-0.014966,-24.6,11.76,27.36
9.3027,-0.76274,-3.3506,-0.058338,-0.020159,0.083689,-24.66,11.7,27.3
10.079,-1.1577,-3.3506,0.0097738,-0.057727,0.14966,-24.66,11.52,27.36
9.6568,-1.3484,-3.2144,0.031154,0.0076358,0.10873,-24.66,11.58,27.3
9.507,-1.5391,-3.2553,0.024129,0.0064141,0.078191,-24.66,11.76,27.42
9.5479,-1.5527,-3.1327,-0.010385,-0.044288,0.022602,-24.66,11.76,27.48
9.4798,-1.5936,-3.0646,-0.013439,-0.043982,0.0064141,-24.6,11.64,27.48
9.4798,-1.1986,-3.1327,-0.000916,-0.0079412,-0.007025,-24.6,11.64,27.66
9.8066,-1.1169,-3.3097,0.027184,-0.0097738,-0.0067195,-24.48,11.76,27.6
9.9429,-1.2939,-3.4323,0.054978,-0.055589,-0.037568,-24.36,11.7,27.48
9.6704,-1.3757,-3.5549,0.044288,-0.071777,-0.085827,-24.18,11.7,27.42
9.2482,-1.4165,-3.514,-0.015272,0.052229,-0.13928,-24.06,11.7,27.3
9.0031,-1.5936,-3.3234,-0.067195,0.13714,-0.14752,-23.88,11.7,27.36
8.8668,-1.5119,-3.2008,-0.096517,0.15699,-0.13286,-23.82,11.7,27.24
8.7851,-1.2803,-2.8875,-0.10843,0.13592,-0.10843,-23.94,11.82,27.06
8.6762,-1.1577,-2.6696,-0.10996,0.13897,-0.092852,-24.0,11.82,27.12
8.5944,-0.91256,-2.6968,-0.071471,0.090103,-0.000305,-24.0,11.94,27.24
8.5944,-0.91256,-2.6968,-0.071471,0.090103,-0.000305,-24.0,11.94,27.24
9.3436,-0.85808,-2.942,-0.0058032,-0.04215,0.1518,-24.06,11.88,27.42
10.733,-0.85808,-3.3506,0.071471,-0.15944,0.22694,-24.24,11.82,27.48
10.202,-1.3757,-3.2416,0.072693,-0.039401,0.13042,-24.36,11.82,27.42
9.6704,-1.4574,-3.2825,0.040012,0.046426,0.086132,-24.36,11.82,27.48
9.5751,-1.5119,-3.337,-0.020769,0.01069,0.0076358,-24.36,11.76,27.48
9.5887,-1.4438,-3.1463,-0.049175,-0.033903,-0.040317,-24.66,11.88,27.3
9.3163,-1.3757,-3.1872,-0.054978,-0.026878,-0.063835,-24.78,11.76,27.18
9.0984,-1.2667,-3.1872,-0.048869,-0.0018326,-0.03879,-24.84,11.82,27.06
9.2891,-1.185,-3.0918,-0.040317,0.000305,-0.0048869,-24.96,11.88,27.18
9.3436,-1.076,-3.0237,-0.039095,0.010385,0.011912,-24.9,11.76,27.18
9.4798,-1.0896,-2.9692,-0.04948,0.019853,0.016493,-25.02,11.64,27.0
9.4661,-1.2122,-2.942,-0.055894,0.022602,0.018326,-25.02,11.58,26.88
9.507,-1.185,-2.9284,-0.055589,-0.0051924,0.023518,-25.02,11.58,26.7
9.3299,-1.2258,-3.051,-0.043066,-0.054367,0.024129,-24.78,11.58,26.7
9.2074,-1.2258,-3.0918,-0.0281,-0.071471,0.037263,-24.78,11.52,26.82
9.2074,-1.2395,-3.1872,-0.023518,-0.055589,0.060781,-24.72,11.52,26.7
9.3163,-1.2395,-3.1735,-0.010079,-0.047953,0.06017,-24.6,11.34,26.82
9.2891,-1.2258,-3.228,-0.007025,-0.039706,0.065668,-24.6,11.22,27.12
9.3436,-1.2258,-3.3097,-0.0027489,-0.034514,0.062003,-24.72,11.34,27.3
9.5479,-1.2395,-3.2008,-0.023518,-0.0094684,0.048258,-24.42,11.16,27.54
9.6023,-1.2667,-3.2553,-0.037568,0.018631,0.028405,-24.36,11.16,27.6
9.6023,-1.185,-3.2008,-0.050396,0.031154,0.01405,-24.36,11.22,27.6
9.3436,-1.2122,-3.0646,-0.026878,0.018326,-0.013744,-24.42,11.28,27.66
9.2891,-1.2258,-2.9829,-0.034514,0.028711,-0.0076358,-24.36,11.4,27.84
9.2891,-1.185,-3.0373,-0.025656,0.018937,0.0018326,-24.36,11.52,27.96
9.2618,-1.1441,-2.9965,-0.0094684,0.013744,0.016799,-24.3,11.52,27.84
9.3844,-1.2395,-3.1327,0.000305,0.0097738,0.022907,-24.24,11.46,27.78
9.5206,-1.3076,-3.0918,0.0061087,-0.0073304,0.019853,-24.3,11.64,27.78
9.4798,-1.4438,-3.1599,-0.010079,-0.0064141,-0.0027489,-24.36,11.52,27.72
9.3844,-1.3484,-3.1735,-0.012523,-0.013134,-0.011912,-24.3,11.7,27.48
9.3163,-1.362,-3.1599,-0.020464,-0.010079,-0.007025,-24.24,11.76,27.42
9.3163,-1.2803,-3.1463,-0.018631,-0.012523,-0.0082467,-24.36,11.76,27.42
9.2482,-1.3212,-3.1191,-0.036346,0.0018326,0.0097738,-24.42,11.7,27.3
9.3436,-1.2395,-3.1872,-0.047647,0.018021,0.014966,-24.36,11.58,27.06
9.4117,-1.1441,-3.1054,-0.056505,0.021686,0.018937,-24.24,11.58,27.06
9.4117,-1.1032,-2.9829,-0.057727,0.010385,0.018937,-24.18,11.58,27.12
9.3844,-1.1032,-3.0782,-0.062614,0.0042761,0.018937,-24.0,11.46,26.94
9.3572,-1.1577,-3.0646,-0.043982,0.000305,0.012523,-24.24,11.34,26.88
9.4389,-1.1577,-3.0373,-0.031765,-0.0012217,0.010079,-24.12,11.46,26.88
9.4117,-1.2258,-3.0782,-0.027184,-0.0073304,0.018021,-24.24,11.52,26.88
9.4253,-1.1577,-3.0918,-0.012828,-0.014966,0.016493,-24.12,11.64,26.94
9.3436,-1.2122,-3.0646,-0.0058032,-0.020769,0.017104,-23.94,11.7,27.12
9.3436,-1.185,-3.0101,-0.0064141,-0.03207,0.020464,-23.88,11.64,27.24
9.3844,-1.2122,-3.0237,-0.0018326,-0.026878,0.023213,-23.82,11.76,27.12
9.3027,-1.2395,-3.0646,0.0018326,-0.018021,0.026267,-23.7,11.76,27.24
9.3436,-1.2939,-3.1872,-0.0018326,-0.019548,0.027794,-23.82,11.88,27.06
9.3436,-1.2258,-3.2144,-0.0036652,-0.0079412,0.027794,-23.88,11.94,27.0
9.398,-1.3076,-3.2825,-0.0061087,0.0061087,0.013439,-23.94,12.0,26.94
9.4253,-1.2531,-3.2689,-0.012217,0.000916,0.018937,-24.0,11.94,27.0
9.4117,-1.2939,-3.2416,-0.018631,0.0042761,0.013744,-23.94,11.94,27.0
9.3844,-1.2803,-3.1735,-0.023213,0.010079,0.0085521,-24.0,11.82,27.06
9.3844,-1.2667,-3.1599,-0.024129,0.011912,0.010079,-24.12,11.82,27.12
9.2891,-1.2531,-3.1191,-0.030238,0.0067195,0.025045,-24.3,11.82,27.06
9.3436,-1.2258,-3.0918,-0.036652,-0.000611,0.021686,-24.36,11.7,27.0
9.398,-1.3076,-3.2416,-0.026878,0.0036652,0.02138,-24.54,11.76,26.94
9.3844,-1.2803,-3.0646,-0.028711,0.0079412,0.017104,-24.48,11.76,27.0
9.4389,-1.2803,-3.1872,-0.034819,0.0045815,0.026267,-24.42,11.82,26.94
9.3436,-1.2939,-3.0918,-0.034819,0.0027489,0.027489,-24.3,11.94,26.94
9.398,-1.1986,-3.1191,-0.035125,0.0045815,0.016799,-24.36,11.94,26.94
9.4117,-1.2803,-3.1191,-0.030238,-0.0042761,0.01069,-24.36,12.0,27.0
9.3844,-1.2803,-3.0646,-0.030238,-0.0054978,0.018021,-24.36,12.12,26.94
9.2891,-1.2939,-3.1054,-0.030543,-0.0024435,0.018631,-24.24,12.24,26.82
9.2618,-1.2122,-3.0646,-0.041844,-0.016188,0.043677,-24.0,12.12,26.82
9.2891,-1.1986,-3.0918,-0.038485,-0.026878,0.051924,-24.06,12.18,26.76
9.3163,-1.1577,-3.1599,-0.045509,-0.016493,0.072388,-24.0,12.24,26.88
9.3708,-1.1577,-3.2144,-0.063225,0.011606,0.068417,-24.0,12.48,27.12
9.5751,-1.3348,-3.228,-0.069944,0.018326,0.051007,-23.94,12.48,27.06
9.6704,-1.3348,-3.2553,-0.065057,0.015577,0.039706,-23.94,12.54,27.06
9.3708,-1.3757,-3.1327,-0.073915,0.036041,0.0079412,-24.06,12.48,27.12
9.3027,-1.3757,-3.1191,-0.077274,0.042455,-0.0030543,-24.12,12.3,27.24
9.2891,-1.2803,-3.0237,-0.057116,0.033903,-0.000305,-23.88,12.18,27.24
9.3436,-1.3212,-2.9556,-0.035736,0.0030543,0.0082467,-23.82,12.12,27.24
9.2891,-1.3212,-2.942,-0.025962,-0.007025,0.030543,-23.94,12.12,27.42
9.2891,-1.3212,-3.0101,-0.019853,-0.020159,0.053756,-23.88,12.06,27.42
9.3436,-1.3212,-3.0646,-0.009163,-0.047953,0.065973,-23.88,12.06,27.3
9.3163,-1.2803,-3.0373,0.0012217,-0.057421,0.071777,-23.82,12.18,27.42
9.3163,-1.3348,-3.2008,0.0082467,-0.058948,0.075442,-23.76,12.06,27.3
9.4389,-1.3484,-3.2416,0.0079412,-0.044899,0.1014,-23.82,11.82,27.18
9.4798,-1.471,-2.9692,0.015577,-0.011912,0.093157,-23.82,11.94,27.24
9.5751,-1.4029,-2.9965,0.028711,-0.044899,0.08094,-23.82,11.94,27.12
9.5479,-1.4574,-3.1599,0.032681,-0.080023,0.050396,-23.88,11.94,27.18
9.4253,-1.4165,-3.2416,0.028711,-0.073915,0.027794,-23.82,11.88,27.12
9.398,-1.4438,-3.1327,0.02474,-0.06017,0.016188,-23.88,11.88,27.18
9.3708,-1.3076,-3.2553,0.0058032,-0.0061087,0.0076358,-23.76,12.0,27.24
9.3708,-1.3212,-3.2825,-0.010079,0.023824,-0.000611,-23.64,12.06,27.24
9.3163,-1.3484,-3.337,-0.021075,0.036346,-0.002138,-23.7,12.0,27.3
9.398,-1.4301,-3.2144,-0.018021,0.022297,-0.0039706,-23.64,12.12,27.48
9.3844,-1.4438,-3.228,-0.023518,0.007025,-0.0015272,-23.64,12.3,27.42
9.3299,-1.4165,-3.228,-0.022297,0.009163,-0.0042761,-23.64,12.42,27.42
9.3436,-1.4165,-3.228,-0.045509,0.0079412,-0.0045815,-23.64,12.66,27.48
9.3163,-1.4438,-3.228,-0.042761,0.019853,-0.0042761,-23.46,12.6,27.42
9.3708,-1.4029,-3.1735,-0.03879,0.023213,0.0042761,-23.4,12.54,27.54
9.2891,-1.3212,-3.1599,-0.033292,0.033598,0.0018326,-23.4,12.6,27.6
9.3436,-1.4029,-3.1872,-0.041233,0.034819,0.0054978,-23.4,12.72,27.48
9.3163,-1.3757,-3.1872,-0.043677,0.036652,0.0097738,-23.46,12.72,27.48
9.3163,-1.3212,-3.1054,-0.052229,0.051924,0.019548,-23.58,12.6,27.36
9.3299,-1.2667,-3.051,-0.048258,0.079107,0.027184,-23.82,12.72,27.24
9.4798,-1.3212,-2.9965,-0.03207,0.11148,0.020464,-23.7,12.72,27.24
9.5615,-1.3484,-2.9284,-0.027184,0.11332,0.019853,-23.7,12.72,27.06
9.4117,-1.4029,-2.9556,0.0012217,0.071777,-0.01069,-23.76,12.6,27.06
9.398,-1.4165,-2.9556,-0.000611,0.051007,0.0082467,-23.94,12.48,27.06
9.3572,-1.4438,-2.9284,0.0036652,0.016493,0.01069,-24.12,12.42,27.18
9.3708,-1.3757,-2.9556,0.0018326,-0.019548,0.021991,-24.06,12.24,27.06
9.4117,-1.4029,-3.2144,-0.0015272,0.014661,0.03207,-24.06,12.24,27.0
9.2891,-1.4029,-3.0237,-0.0088575,0.045204,0.036957,-24.18,12.42,27.06
9.4389,-1.4165,-3.0782,-0.029322,0.034514,0.036041,-24.24,12.42,27.0
9.6023,-1.4165,-3.1735,-0.040317,0.036652,0.012828,-24.24,12.42,27.0
9.4525,-1.4846,-3.0918,-0.042761,0.080023,-0.010079,-24.42,12.72,26.94
9.3844,-1.4301,-3.051,-0.040928,0.10873,-0.018326,-24.36,12.54,26.94
9.398,-1.3757,-3.0101,-0.04948,0.10507,-0.018326,-24.36,12.54,26.82
9.5479,-1.3484,-2.9284,-0.048564,0.095906,-0.023518,-24.54,12.66,26.88
9.4798,-1.2803,-2.9556,-0.038179,0.062919,-0.029016,-24.66,12.72,26.76
9.3163,-1.2531,-2.833,-0.044288,0.033292,-0.024435,-24.72,12.54,26.7
9.4253,-1.2531,-2.7922,-0.034514,-0.0018326,-0.0045815,-24.54,12.84,26.28
9.398,-1.2531,-2.8467,-0.019548,-0.042761,0.0024435,-24.6,12.84,26.28
9.5342,-1.2803,-2.9556,-0.018326,-0.048869,0.0058032,-24.9,12.72,26.16
9.3844,-1.3484,-3.0237,-0.015882,-0.051313,0.0018326,-25.02,12.66,26.1
9.2482,-1.3348,-2.9692,-0.021686,-0.047953,0.010996,-24.9,12.6,26.16
9.4389,-1.3348,-3.0373,-0.031154,-0.03207,0.0094684,-24.96,12.72,26.1
9.4661,-1.3484,-3.1599,-0.050091,-0.02474,0.000305,-24.84,12.66,26.22
9.3844,-1.2939,-3.1191,-0.077885,0.0097738,-0.012523,-24.9,12.48,26.34
9.3708,-1.2258,-2.9829,-0.076358,0.015577,-0.012828,-24.9,12.54,26.1
9.4661,-1.2531,-2.9011,-0.072388,0.017104,-0.002138,-24.96,12.66,26.16
9.4117,-1.2531,-2.833,-0.059254,-0.027489,-0.0097738,-25.02,12.66,26.22
9.4117,-1.3484,-2.9556,-0.061392,-0.035125,-0.0033598,-25.08,12.72,26.34
9.4525,-1.3212,-2.9965,-0.062308,-0.023518,0.0018326,-25.2,12.54,26.64
9.4389,-1.2258,-3.0646,-0.057727,-0.0054978,0.0048869,-25.2,12.6,26.64
9.4117,-1.3076,-3.0101,-0.049175,-0.020464,0.000611,-25.02,12.54,26.7
9.3163,-1.3212,-2.9556,-0.047342,-0.030543,0.000611,-24.84,12.54,26.82
9.3299,-1.2803,-2.9556,-0.039401,-0.040928,0.0088575,-24.84,12.54,26.7
9.3163,-1.2939,-3.0237,-0.039706,-0.026267,0.020769,-24.78,12.54,26.76
9.4389,-1.2667,-3.1735,-0.041539,-0.012828,0.025656,-24.84,12.6,26.7
9.4389,-1.2803,-2.9965,-0.038485,-0.0024435,0.02474,-24.84,12.78,26.7
9.4253,-1.2667,-2.8875,-0.028405,-0.0061087,0.026267,-24.9,12.72,26.82
9.4389,-1.2939,-2.8739,-0.039401,-0.0094684,0.030238,-24.9,12.72,26.88
9.4389,-1.2531,-2.9829,-0.0082467,-0.033292,0.017104,-24.72,12.66,27.0
9.3708,-1.2803,-2.9965,0.0042761,-0.053451,0.027184,-24.36,12.78,27.12
9.4389,-1.362,-3.0373,0.0048869,-0.054062,0.033903,-24.48,12.72,27.0
9.4389,-1.2803,-3.0918,0.0058032,-0.067806,0.030849,-24.24,12.66,27.0
9.4798,-1.2939,-3.0782,0.002138,-0.063225,0.027184,-24.3,12.6,27.0
9.398,-1.2395,-3.1599,0.0064141,-0.02474,0.01069,-24.42,12.48,27.0
9.3299,-1.3076,-3.051,0.016188,-0.015577,0.010079,-24.6,12.36,27.18
9.4117,-1.2803,-2.9965,0.020769,-0.017715,0.02138,-24.54,12.24,27.36
9.507,-1.2803,-3.0918,0.01069,-0.043371,0.0082467,-24.66,12.42,27.42
9.5206,-1.3212,-3.1872,0.0061087,-0.065363,-0.0030543,-24.72,12.6,27.36
9.3027,-1.2939,-3.1327,0.0039706,-0.068417,-0.024129,-24.72,12.54,27.48
9.2891,-1.4029,-3.2553,-0.0015272,-0.0281,-0.01741,-24.72,12.54,27.48
9.2482,-1.3757,-3.2144,0.0039706,0.017104,-0.0082467,-24.66,12.48,27.3
9.2891,-1.3757,-3.1463,-0.0045815,0.025656,0.010996,-24.84,12.54,27.12
9.4661,-1.3484,-3.1872,-0.016188,0.015577,0.013744,-24.78,12.6,27.18
9.398,-1.3484,-3.1872,-0.021686,0.0048869,0.0061087,-24.96,12.9,27.12
9.398,-1.2531,-3.0918,-0.028711,0.0058032,0.016493,-24.96,13.08,27.18
9.3436,-1.2531,-3.0918,-0.034819,0.0064141,0.011606,-24.96,13.08,27.12
9.3163,-1.2667,-2.9965,-0.032376,-0.002138,0.021075,-24.72,13.2,27.06
9.4389,-1.3212,-3.0237,-0.020464,-0.01405,0.020769,-24.6,13.2,26.88
9.4117,-1.3212,-3.1191,-0.019242,-0.026267,0.025656,-24.6,13.02,26.76
9.398,-1.2939,-3.1191,-0.018937,-0.026878,0.019242,-24.54,12.84,26.76
9.4389,-1.3212,-3.0237,-0.024435,-0.027184,0.024435,-24.48,12.96,27.06
9.4117,-1.3757,-3.0646,-0.016188,-0.021686,0.011301,-24.42,12.9,27.12
9.3436,-1.3076,-3.1327,-0.01741,-0.018326,0.012523,-24.48,13.02,27.18
9.4117,-1.2803,-3.051,-0.026267,-0.0076358,0.020464,-24.42,12.96,27.24
9.4253,-1.3212,-3.1327,-0.024129,-0.013134,0.018326,-24.36,12.96,27.24
9.3436,-1.2531,-3.0918,-0.020769,-0.022602,0.025962,-24.18,12.78,27.24
9.3572,-1.3348,-3.1191,-0.0094684,0.0036652,0.018631,-24.12,12.78,27.18
9.3436,-1.3757,-3.0646,-0.0051924,-0.011606,0.018937,-24.12,12.96,27.24
9.3436,-1.362,-3.0646,-0.010385,-0.011912,0.026267,-24.3,12.96,27.3
9.3572,-1.3212,-3.1463,-0.010385,-0.01405,0.029932,-24.3,12.9,27.3
9.3299,-1.3757,-3.1327,-0.0064141,-0.027489,0.029627,-24.24,13.08,27.54
9.3572,-1.3757,-3.2416,-0.015577,-0.028711,0.040012,-24.3,13.14,27.54
9.4117,-1.3484,-3.228,-0.017104,-0.024435,0.037568,-24.18,13.02,27.36
9.4117,-1.3484,-3.1327,-0.025656,-0.013744,0.03879,-24.24,12.96,27.42
9.3844,-1.3757,-3.1191,-0.026878,-0.013439,0.036957,-24.18,12.96,27.36
9.3572,-1.3212,-3.2144,-0.030238,-0.0058032,0.037568,-24.24,13.02,27.3
9.4117,-1.3484,-3.1599,-0.031154,-0.011912,0.032376,-24.18,13.08,27.3
9.4389,-1.3484,-3.1054,-0.0281,-0.014661,0.028405,-24.24,13.32,27.42
9.3572,-1.362,-3.0918,-0.029627,-0.013744,0.026267,-24.18,13.32,27.3
9.3844,-1.3212,-3.2144,-0.034208,-0.010996,0.039401,-24.0,13.26,27.36
9.3163,-1.362,-3.0646,-0.029627,-0.023518,0.044899,-23.88,13.14,27.36
9.3708,-1.3484,-3.0646,-0.017104,-0.031765,0.053451,-23.82,13.2,27.3
9.3436,-1.3757,-3.1327,-0.013134,-0.027184,0.055589,-23.88,13.32,27.24
9.3436,-1.3484,-3.1191,-0.010079,-0.0097738,0.047953,-23.88,13.32,27.24
9.3436,-1.3893,-3.1191,-0.013439,0.017104,0.025351,-23.94,13.32,27.24
9.4798,-1.4982,-3.051,-0.007025,0.016188,0.0281,-23.94,13.38,27.12
9.2618,-1.5663,-3.1599,-0.0088575,-0.000611,0.018326,-23.82,13.38,27.12
9.3436,-1.58,-3.1463,-0.0012217,-0.012828,0.031154,-23.64,13.38,27.12
9.2346,-1.5119,-3.1872,-0.0015272,-0.032681,0.042761,-23.76,13.38,27.06
9.2482,-1.471,-3.2416,-0.0064141,-0.026878,0.04612,-23.82,13.38,26.94
9.4117,-1.471,-3.2553,-0.0054978,-0.022907,0.037568,-23.88,13.44,27.0
9.4117,-1.4301,-3.1872,-0.029016,-0.0088575,0.029627,-24.06,13.44,27.0
9.3299,-1.4165,-3.1599,-0.041539,-0.0033598,0.020159,-24.0,13.62,27.06
9.2755,-1.4165,-3.2416,-0.055589,0.0036652,0.024129,-24.0,13.5,27.18
9.2074,-1.362,-3.1191,-0.045815,0.01405,0.029627,-23.94,13.44,27.18
9.3027,-1.3757,-3.1463,-0.051924,0.029016,0.038179,-23.88,13.5,27.12
9.3844,-1.4165,-3.1463,-0.049175,0.018631,0.032987,-23.76,13.44,27.24
9.3436,-1.4165,-3.1191,-0.034819,0.015882,0.025962,-23.76,13.5,27.18
9.3844,-1.4982,-2.9829,-0.030543,0.0048869,0.03146,-23.88,13.56,27.12
9.3572,-1.5255,-3.1191,-0.016799,-0.030543,0.029627,-24.12,13.5,27.24
9.4389,-1.5391,-3.1327,-0.018326,-0.032681,0.034819,-24.0,13.56,27.36
9.3572,-1.58,-3.2825,-0.0281,-0.020159,0.02474,-23.94,13.2,27.48
9.3436,-1.5391,-3.2825,-0.025656,-0.0036652,0.015577,-23.94,13.2,27.3
9.3708,-1.5119,-3.2416,-0.047953,0.0067195,0.0015272,-23.88,13.14,27.3
9.3299,-1.4574,-3.2416,-0.051924,0.0094684,-0.0024435,-23.94,13.14,27.24
9.3844,-1.4982,-3.2008,-0.058032,0.020159,0.000916,-24.0,13.26,27.12
9.3572,-1.4574,-3.1599,-0.075747,0.030849,0.0067195,-23.82,13.26,27.06
9.3436,-1.4438,-3.0782,-0.06689,0.024129,0.007025,-23.7,13.14,27.06
9.4117,-1.4301,-3.0237,-0.042455,0.0082467,-0.000611,-23.76,13.32,27.0
9.398,-1.4438,-3.0101,-0.014661,-0.023213,0.002138,-23.64,13.38,26.82
9.2755,-1.4574,-3.2144,-0.0042761,-0.037568,0.007025,-23.52,13.32,26.82
9.2482,-1.4438,-3.2689,-0.0018326,-0.027794,0.0085521,-23.52,13.38,27.0
9.2891,-1.3757,-3.1599,-0.0015272,-0.016493,0.009163,-23.52,13.2,26.94
9.3844,-1.4165,-3.1327,-0.0076358,0.000611,0.0097738,-23.52,13.38,26.94
9.3436,-1.4846,-3.228,-0.014966,0.0058032,0.0024435,-23.58,13.38,27.0
9.3436,-1.4301,-3.1327,-0.018937,0.041539,-0.0030543,-23.58,13.38,27.12
9.4798,-1.4438,-3.2144,-0.016188,0.033292,0.0024435,-23.64,13.26,27.24
9.4798,-1.4438,-3.2008,-0.011606,0.030543,-0.018937,-23.76,13.38,27.3
9.4253,-1.4165,-3.2416,-0.018631,0.042455,-0.030849,-23.88,13.38,27.42
9.2891,-1.4438,-3.2416,-0.025656,0.041539,-0.028711,-24.06,13.56,27.54
9.3572,-1.5527,-3.2416,-0.029932,0.047037,-0.028405,-24.12,13.56,27.54
9.2891,-1.5527,-3.2553,-0.040317,0.04948,-0.032987,-24.12,13.62,27.78
9.4117,-1.5255,-3.4323,-0.067806,0.095295,-0.040928,-24.12,13.62,27.9
9.4117,-1.5119,-3.3642,-0.069944,0.058948,-0.032987,-24.18,13.62,27.84
9.1801,-1.4438,-3.2825,-0.10293,0.039401,-0.044899,-24.36,13.62,27.78
9.2482,-1.3484,-3.2008,-0.12492,0.082467,-0.026267,-24.3,13.74,27.9
9.3844,-1.2667,-3.0918,-0.1292,0.11118,-0.0094684,-24.42,13.62,27.9
9.4525,-1.2395,-2.9965,-0.12339,0.1182,-0.013744,-24.36,13.44,27.78
9.4389,-1.2122,-2.9284,-0.12401,0.093768,-0.025045,-24.24,13.56,27.6
9.5206,-1.185,-2.8058,-0.10965,0.074526,-0.026573,-24.18,13.44,27.6
9.4389,-1.2258,-2.7786,-0.093157,0.051007,-0.023518,-24.3,13.32,27.48
9.3436,-1.2531,-3.0373,-0.092241,0.062614,-0.018937,-24.36,13.2,27.3
9.3436,-1.2395,-3.0782,-0.093157,0.066279,-0.014966,-24.42,13.14,27.24
9.4934,-1.2122,-3.0237,-0.098349,0.07086,-0.0048869,-24.54,13.14,27.0
9.4934,-1.2258,-2.9829,-0.1069,0.068111,-0.012217,-24.72,13.02,26.76
9.4117,-1.2122,-2.8194,-0.083078,0.065057,-0.018937,-24.66,13.02,26.76
9.4389,-1.2803,-2.8739,-0.076969,0.059865,-0.017715,-24.54,12.96,26.82
9.4389,-1.2803,-2.8467,-0.071166,0.046426,-0.015272,-24.72,12.78,26.64
9.5479,-1.2395,-2.9284,-0.074831,0.044593,-0.014661,-24.6,12.72,26.64
9.507,-1.2258,-2.8875,-0.054672,0.034819,-0.023518,-24.66,12.78,26.64
9.4798,-1.1169,-2.7922,-0.033292,0.04215,-0.023518,-24.96,12.48,26.64
9.5751,-1.1441,-2.7922,-0.011301,0.030849,-0.0281,-25.08,12.42,26.64
9.5751,-1.1441,-2.7649,0.009163,0.013439,-0.015577,-25.02,12.36,26.64
9.6704,-1.1986,-3.1872,-0.023213,0.016493,-0.044288,-25.02,12.3,26.64
9.4117,-1.2258,-3.0237,-0.046426,0.026878,-0.060781,-25.02,12.24,26.76
9.2074,-1.076,-2.9556,-0.049786,0.013439,-0.052229,-24.96,12.18,26.94
9.3844,-1.1305,-2.9148,-0.043371,0.040623,-0.0088575,-24.96,12.12,26.82
9.4389,-1.1305,-2.833,-0.058032,0.015577,0.0018326,-25.08,12.0,26.82
9.5479,-1.1713,-2.9556,-0.060476,0.0051924,0.0036652,-25.2,12.0,26.64
9.398,-1.1441,-2.9965,-0.07025,-0.0039706,-0.0082467,-25.26,12.0,26.7
9.4661,-1.185,-2.9556,-0.069944,0.015272,-0.0054978,-25.32,12.12,26.64
9.4389,-1.1577,-2.8603,-0.073609,0.020464,0.0024435,-25.32,12.06,26.64
9.4117,-1.1032,-2.8603,-0.069944,0.013134,0.016493,-25.32,12.18,26.7
9.507,-1.0351,-2.8058,-0.071166,0.0097738,0.018631,-25.32,12.12,26.64
9.507,-1.0488,-2.8603,-0.061697,0.035736,0.02138,-25.32,12.24,26.7
9.4525,-1.0215,-2.8739,-0.053756,0.025962,0.029932,-25.32,12.24,26.64
9.507,-1.1305,-2.6968,-0.03879,0.019853,0.037874,-25.14,12.12,26.52
9.6432,-1.0896,-2.7649,-0.024435,-0.015272,0.035736,-25.26,12.06,26.4
9.5751,-1.1169,-2.8603,-0.018021,-0.04215,0.02474,-25.32,11.82,26.58
9.5206,-1.1169,-2.9011,-0.016493,-0.035736,0.019242,-25.2,11.94,26.58
9.4389,-1.1169,-2.8467,-0.01741,-0.029627,0.0094684,-25.14,11.76,26.76
9.4117,-1.0351,-2.9148,-0.026878,-0.026878,0.013439,-25.14,11.76,26.76
9.4934,-1.185,-2.9556,-0.018937,-0.044593,0.019242,-25.2,11.58,26.82
9.5479,-1.2258,-2.9284,-0.024129,-0.048564,0.014661,-25.26,11.52,26.76
9.4389,-1.185,-2.942,-0.020769,-0.031765,0.010996,-25.32,11.46,26.76
9.4798,-1.1577,-3.0237,-0.039401,-0.0097738,0.011912,-25.32,11.52,26.64
9.4389,-1.1305,-2.9011,-0.042455,-0.0030543,0.012523,-25.38,11.58,26.58
9.4389,-1.1305,-2.8875,-0.044593,-0.015577,0.018631,-25.32,11.4,26.64
9.4117,-1.1305,-2.9148,-0.055589,-0.013744,0.019853,-25.56,11.58,26.82
9.4798,-1.0896,-2.9556,-0.043982,-0.0048869,0.022602,-25.68,11.58,26.82
9.4934,-1.0896,-2.8194,-0.041539,-0.0067195,0.027184,-25.5,11.76,26.76
9.507,-1.1032,-2.7922,-0.039095,-0.013439,0.026573,-25.68,11.64,26.76
9.5342,-1.0624,-2.9829,-0.029932,-0.017715,0.021686,-25.56,11.76,26.88
9.5479,-1.1305,-3.0237,-0.040317,-0.0067195,0.015882,-25.56,11.88,26.88
9.4117,-1.1032,-2.9556,-0.034208,0.0033598,0.0042761,-25.56,12.06,27.0
9.3844,-1.1577,-2.9556,-0.044899,0.011301,0.016799,-25.56,12.18,26.94
9.4798,-1.0896,-2.8603,-0.030849,0.0082467,0.020464,-25.56,12.12,26.94
9.4389,-1.1169,-2.833,-0.030238,0.0015272,0.021991,-25.44,12.24,27.0
9.4253,-1.1441,-2.9011,-0.029016,-0.0018326,0.029016,-25.5,12.12,27.18
9.4661,-1.1169,-2.8603,-0.022297,-0.010079,0.028405,-25.56,12.3,27.18
9.4798,-1.1169,-2.9284,-0.017715,-0.023824,0.035736,-25.44,12.24,27.06
9.4389,-1.1577,-3.0237,-0.01741,-0.013439,0.03543,-25.38,12.3,27.0
9.3436,-1.185,-2.833,-0.010385,-0.017715,0.037874,-25.32,12.36,26.94
9.6568,-1.1577,-2.9284,-0.020464,-0.0064141,0.048564,-25.2,12.48,26.94
9.6432,-1.1577,-2.833,-0.014966,-0.014966,0.040012,-25.44,12.36,26.82
9.4798,-1.1169,-2.942,-0.0085521,-0.072388,0.019242,-25.44,12.3,26.88
9.5615,-1.1577,-3.0237,0.002138,-0.03207,0.024129,-25.32,12.18,26.76
9.4798,-1.1169,-2.9556,-0.015272,-0.025962,0.014355,-25.26,12.18,26.76
9.4661,-1.1577,-2.9556,-0.015882,-0.022602,0.0088575,-25.14,12.18,26.7
9.4253,-1.1305,-3.0101,-0.018631,-0.0027489,0.0064141,-25.08,12.3,26.76
9.3844,-1.2258,-2.9284,-0.024435,-0.014355,0.0073304,-24.96,12.18,26.58
9.3572,-1.1577,-3.0646,-0.018021,-0.0073304,0.0097738,-24.9,12.3,26.58
9.3844,-1.1577,-3.0101,-0.037568,0.0030543,0.019853,-24.96,12.24,26.7
9.2891,-1.1305,-2.8739,-0.034208,-0.0033598,0.039706,-24.84,12.24,26.76
9.4389,-1.1577,-3.0237,-0.032681,-0.023213,0.059254,-24.84,12.24,26.64
9.507,-1.1986,-3.0373,-0.022297,-0.032681,0.054672,-24.78,12.24,26.76
9.4389,-1.2395,-2.9829,-0.02138,-0.019853,0.049175,-24.78,12.24,26.76
9.507,-1.185,-2.9556,-0.02138,-0.022602,0.043982,-24.72,12.24,26.64
9.6023,-1.2803,-3.0101,-0.018937,-0.035125,0.030849,-24.72,12.3,26.52
9.6023,-1.2395,-3.0646,-0.021991,-0.046426,0.013439,-24.78,12.36,26.52
9.4525,-1.2803,-3.0918,-0.03207,-0.028711,0.01405,-24.78,12.36,26.46
9.3163,-1.2395,-2.9965,-0.033903,-0.0024435,0.030849,-24.78,12.36,26.46
9.4117,-1.2258,-2.9692,-0.037263,-0.011301,0.022297,-24.78,12.36,26.46
9.4525,-1.2122,-2.9829,-0.027794,-0.025656,0.018631,-24.72,12.24,26.4
9.4253,-1.1577,-2.9965,-0.025351,-0.01741,0.020159,-24.84,12.3,26.4
9.1937,-1.1577,-3.0918,-0.029322,-0.007025,0.025351,-24.96,12.36,26.4
9.3708,-1.1577,-3.0237,-0.029322,-0.01069,0.031765,-25.02,12.42,26.58
9.507,-1.1986,-3.0782,-0.037874,-0.014661,0.042455,-24.84,12.42,26.46
9.4389,-1.2258,-3.051,-0.052229,-0.012217,0.025045,-24.78,12.42,26.46
9.4798,-1.2258,-3.0918,-0.050091,0.010385,0.019242,-24.72,12.48,26.52
9.3844,-1.1577,-3.0646,-0.041844,0.01741,0.024129,-24.54,12.48,26.64
9.3436,-1.2395,-2.9556,-0.03543,0.010385,0.031154,-24.48,12.36,26.58
9.4389,-1.2531,-2.9148,-0.029322,-0.0061087,0.035736,-24.6,12.48,26.7
9.507,-1.3076,-3.0646,-0.023213,-0.010079,0.028405,-24.54,12.36,26.7
9.4389,-1.2531,-3.0101,-0.022907,-0.015272,0.027184,-24.6,12.36,26.82
9.3572,-1.2803,-2.9965,-0.014661,-0.017715,0.029627,-24.54,12.3,26.88
9.3299,-1.2667,-2.9692,-0.0097738,-0.020159,0.041539,-24.48,12.3,26.58
9.5342,-1.2667,-3.0646,-0.01069,-0.014966,0.043066,-24.36,12.18,26.76
9.4525,-1.2803,-2.9965,0.0018326,-0.017104,0.026267,-24.24,12.0,26.58
9.3299,-1.2258,-3.0101,-0.0051924,-0.0064141,0.029016,-24.3,12.06,26.64
9.4117,-1.2939,-2.9965,-0.0015272,-0.014966,0.040928,-24.42,12.3,26.64
9.4525,-1.3076,-3.0918,-0.0082467,-0.018937,0.035125,-24.54,12.36,26.64
9.3708,-1.2531,-3.0782,-0.014966,-0.021686,0.031765,-24.54,12.3,26.52
9.4525,-1.2803,-3.0373,-0.011912,0.0073304,0.040012,-24.54,12.42,26.64
9.4525,-1.3484,-3.0782,0.0061087,0.002138,0.028711,-24.48,12.42,26.64
9.4934,-1.2667,-3.0237,-0.000305,-0.015577,0.019853,-24.6,12.54,26.7
9.398,-1.3212,-3.0918,-0.0088575,-0.026573,0.0097738,-24.72,12.42,26.52
9.3163,-1.2939,-3.0646,-0.018937,-0.036346,0.018326,-24.9,12.42,26.64
9.3436,-1.3076,-3.0782,-0.010385,-0.010079,0.02474,-24.78,12.54,26.76
9.4525,-1.2667,-3.0237,-0.013744,-0.0042761,0.03146,-24.78,12.66,26.7
9.3844,-1.2531,-3.0373,-0.009163,-0.0048869,0.020464,-24.84,12.78,26.88
9.398,-1.3076,-3.1191,-0.0088575,-0.0061087,0.023518,-24.9,12.72,26.82
9.4661,-1.3212,-3.1191,-0.010996,-0.014355,0.010385,-24.96,12.54,26.76
9.5206,-1.3484,-3.051,-0.016493,-0.014355,-0.0033598,-24.9,12.6,26.58
9.4117,-1.3212,-3.0646,-0.02474,-0.0039706,-0.007025,-25.02,12.66,26.76
9.4389,-1.2803,-3.0918,-0.036652,-0.000305,0.0085521,-24.9,12.72,26.88
9.4253,-1.076,-3.0237,-0.03879,-0.000611,0.007025,-24.96,12.72,26.88
9.4117,-1.2122,-3.0237,-0.030238,0.0051924,0.0079412,-24.78,12.72,26.76
9.4389,-1.185,-3.0237,-0.019242,0.011912,0.017715,-24.48,12.84,26.76
9.4798,-1.3212,-3.0918,-0.013744,0.01069,0.0079412,-24.3,12.9,26.64
9.4798,-1.4029,-3.1191,-0.029322,0.009163,-0.000305,-24.36,12.84,26.76
9.3163,-1.4165,-3.0646,-0.021991,-0.011606,0.0033598,-24.36,12.9,26.7
9.3027,-1.3348,-3.0237,-0.034514,-0.029322,0.015577,-24.36,12.9,26.58
9.2755,-1.3484,-3.0918,-0.029016,-0.030543,0.024435,-24.18,12.84,26.58
9.398,-1.3212,-3.0373,-0.01741,-0.0281,0.023213,-24.06,12.84,26.58
9.4934,-1.2531,-3.1327,-0.020464,-0.041233,0.023213,-24.12,12.72,26.88
9.4661,-1.2939,-3.0918,-0.017715,-0.04948,0.011912,-24.06,12.6,26.82
9.3708,-1.2531,-3.1191,-0.018937,-0.047953,0.007025,-24.0,12.6,26.76
9.3708,-1.2939,-3.2144,-0.033598,-0.023213,0.013744,-24.0,12.6,26.82
9.3708,-1.3076,-3.1463,-0.038485,-0.021991,0.01741,-24.06,12.54,26.82
9.4389,-1.2939,-3.1599,-0.040928,-0.011912,0.01405,-24.12,12.6,27.0
9.398,-1.2803,-3.051,-0.039706,0.0061087,0.020159,-24.18,12.54,27.0
9.398,-1.2803,-3.0237,-0.043371,0.0048869,0.017104,-24.24,12.48,27.0
9.4389,-1.2803,-3.1191,-0.041233,-0.0058032,0.010996,-24.12,12.48,26.94
9.398,-1.3484,-3.1191,-0.030238,-0.0039706,0.0085521,-24.0,12.36,27.0
9.4253,-1.3484,-3.0918,-0.032987,-0.0015272,0.007025,-24.06,12.48,26.94
9.3163,-1.3212,-3.1191,-0.024435,-0.017104,0.0015272,-24.12,12.36,27.0
9.3844,-1.3212,-3.0782,-0.034208,-0.0097738,0.012828,-24.0,12.36,26.88
9.4389,-1.2531,-3.0918,-0.024129,-0.0027489,0.019548,-24.06,12.42,26.82
9.507,-1.3076,-3.1599,-0.041539,-0.0064141,0.016799,-24.12,12.54,26.76
9.398,-1.3757,-3.1735,-0.036041,0.007025,0.010996,-24.24,12.72,26.76
9.3844,-1.3893,-3.1327,-0.041539,0.01405,0.0024435,-24.24,12.78,26.94
9.4389,-1.3212,-3.1599,-0.049786,0.0042761,0.009163,-24.42,12.66,26.94
9.398,-1.3348,-3.0918,-0.048869,0.0030543,0.010996,-24.36,12.96,26.82
9.3163,-1.2531,-3.0918,-0.044899,-0.0027489,0.011912,-24.24,12.96,26.76
9.3436,-1.2803,-3.0646,-0.040928,-0.0024435,0.020769,-24.24,12.9,26.7
9.4934,-1.2531,-3.0782,-0.036346,-0.0054978,0.025351,-24.48,12.96,26.58
9.6841,-1.185,-3.1327,-0.029627,-0.022907,0.034819,-24.54,13.02,26.7
9.8066,-1.2258,-3.2144,-0.012217,-0.034208,0.0281,-24.6,13.08,26.88
9.6841,-1.3348,-3.1463,-0.013134,-0.050091,-0.000611,-24.6,13.26,27.0
9.616,-1.5255,-3.3778,-0.0015272,-0.056505,-0.011912,-24.54,13.26,27.06
9.5615,-1.4165,-3.3506,-0.015272,-0.043677,-0.032987,-24.48,13.14,27.12
9.2618,-1.5255,-3.1599,-0.036346,0.012523,-0.054062,-24.48,13.26,27.12
8.8668,-1.4438,-3.1054,-0.051618,0.050091,-0.049175,-24.36,12.96,27.0
9.0303,-1.2803,-3.0101,-0.072082,0.043066,-0.036041,-24.3,12.96,26.94
8.9213,-1.1577,-2.9148,-0.058948,0.016188,-0.025656,-24.36,12.78,27.0
8.8941,-1.1713,-2.9965,-0.069028,0.029932,0.021075,-24.48,12.72,27.12
8.7034,-1.1169,-2.8739,-0.077274,0.046426,0.02474,-24.36,12.78,27.18
8.4174,-1.0896,-2.9148,-0.1069,0.06353,0.059865,-24.36,12.84,27.24
9.2891,-1.0079,-3.0373,-0.090103,0.040928,0.11362,-24.24,12.84,27.3
10.746,-0.89894,-3.3097,0.015882,-0.14936,0.27978,-24.18,12.78,27.3
10.774,-1.471,-3.1599,0.068111,0.018631,0.071166,-23.94,12.78,27.12
9.4661,-1.4301,-3.2008,0.064446,0.05681,0.036041,-23.82,12.84,27.18
9.1393,-1.6889,-3.1599,-0.039401,0.0094684,-0.039095,-23.82,12.9,27.12
9.5615,-1.3893,-3.1191,-0.047953,-0.022602,-0.058032,-23.7,12.84,26.94
9.398,-1.3212,-3.3506,-0.029932,-0.027489,-0.051924,-23.52,13.14,26.88
9.112,-1.185,-3.2825,-0.016799,-0.0045815,-0.040317,-23.46,12.9,26.76
9.2346,-1.1441,-3.2144,-0.04215,0.0051924,-0.020769,-23.52,12.9,27.0
9.4389,-1.185,-3.1191,-0.043066,0.0079412,0.0085521,-23.52,12.72,27.0
9.2618,-1.2803,-3.1735,-0.067806,0.073609,-0.0045815,-23.76,12.66,27.0
9.2482,-1.4165,-2.9556,-0.067195,0.086132,0.0067195,-24.0,12.66,26.88
9.3436,-1.3484,-2.833,-0.067806,0.040623,0.024435,-24.06,12.48,26.7
9.4798,-1.3484,-2.9011,-0.057727,-0.011301,0.04215,-24.18,12.54,26.94
9.7794,-1.471,-3.0373,-0.027794,-0.029932,0.051007,-24.06,12.36,27.18
9.8203,-1.5391,-3.1872,-0.019548,0.0039706,0.020159,-24.24,12.42,27.3
9.6704,-1.4438,-3.2416,-0.03207,-0.009163,-0.01069,-24.3,12.36,27.24
9.5479,-1.3757,-3.3097,-0.059559,-0.01069,-0.049786,-24.24,12.3,27.12
9.4389,-1.3212,-3.2689,-0.080023,-0.0058032,-0.061392,-24.24,12.48,27.12
9.6568,-1.2803,-3.3097,-0.10568,-0.009163,-0.044593,-24.12,12.48,27.12
9.5342,-1.2531,-3.3097,-0.11362,-0.01405,-0.051313,-24.06,12.48,27.18
9.0303,-1.0488,-3.1599,-0.13622,-0.0042761,-0.06353,-24.18,12.42,27.3
8.7306,-1.0215,-3.0646,-0.15455,-0.0045815,-0.059254,-24.06,12.48,27.48
8.54,-0.98067,-2.9965,-0.15608,0.01741,-0.034514,-24.06,12.36,27.42
8.0088,-0.83084,-2.6015,-0.15363,0.059254,-0.0039706,-24.18,12.18,27.48
7.0826,-0.7355,-2.3427,-0.16493,0.13744,0.016799,-24.24,12.12,27.42
6.8919,-0.28603,-2.4517,-0.14966,0.11668,0.1347,-24.24,12.06,27.48
13.212,-1.5663,-2.9148,0.12309,-0.25931,0.52168,-24.3,12.06,27.6
10.924,-1.4982,-2.9965,0.18784,-0.21716,0.36194,-24.24,12.06,27.54
9.221,-1.0488,-3.3506,0.17868,-0.07758,0.18876,-24.36,12.18,27.54
9.6704,-1.8251,-3.7728,0.033903,-0.083078,0.072388,-24.3,12.18,27.66
9.6296,-1.8796,-3.2689,-0.0073304,-0.091019,-0.020159,-24.3,12.06,27.66
9.6023,-1.6889,-3.0782,-0.010385,0.032987,-0.047037,-24.3,12.06,27.72
9.4117,-1.4165,-3.2008,-0.000611,0.055589,-0.095906,-24.12,12.0,27.54
9.4525,-1.2395,-3.2825,-0.000916,0.041844,-0.09896,-24.18,12.12,27.36
9.4389,-1.2667,-3.2825,-0.0027489,0.0015272,-0.10201,-24.18,12.12,27.42
9.1256,-1.3212,-3.2553,-0.016799,0.036652,-0.080023,-24.06,12.24,27.48
9.0303,-1.3893,-3.3234,-0.023824,0.11087,-0.054367,-24.18,12.36,27.24
9.3163,-1.2803,-3.0782,-0.04612,0.1518,-0.029322,-24.12,12.48,27.3
9.4389,-1.2395,-2.8058,-0.053756,0.13378,-0.0073304,-24.18,12.54,27.18
9.6841,-1.3348,-2.8058,-0.040317,0.079412,-0.0079412,-24.18,12.66,27.0
9.507,-1.3348,-2.8603,-0.019853,-0.0082467,-0.009163,-24.24,12.6,27.0
9.4117,-1.2803,-2.9965,-0.0024435,-0.023213,-0.021075,-24.24,12.54,26.94
9.3299,-1.1577,-2.9965,0.0082467,-0.030238,-0.015577,-24.42,12.54,26.94
9.2346,-1.1986,-3.0101,0.019242,-0.037263,-0.014661,-24.36,12.54,26.94
9.221,-1.2531,-3.0101,0.029627,-0.035736,0.013744,-24.66,12.54,27.0
9.2891,-1.3484,-3.0646,0.025656,-0.041844,0.018937,-24.72,12.3,27.12
9.3572,-1.2939,-3.1463,0.020464,-0.042455,0.033292,-24.72,12.18,27.0
9.5479,-1.3484,-3.2144,0.0027489,-0.045509,0.039095,-24.84,12.24,26.94
9.4117,-1.3757,-3.2825,-0.0079412,-0.034208,0.027489,-24.78,12.24,27.0
9.3844,-1.2803,-3.1872,-0.024129,-0.019242,0.027184,-24.96,12.24,26.94
9.4117,-1.1986,-3.2961,-0.033292,-0.0061087,0.020464,-24.78,12.24,26.94
9.4934,-1.2122,-3.1599,-0.037874,0.0088575,0.025351,-24.66,12.24,27.06
9.5479,-1.3212,-3.051,-0.043982,-0.011912,0.013134,-24.72,12.24,27.06
9.398,-1.1986,-2.9965,-0.038485,-0.013134,0.014355,-24.6,12.3,27.0
9.3436,-1.2531,-3.0646,-0.034514,-0.031765,0.03146,-24.6,12.54,26.94
9.2891,-1.2803,-3.1191,-0.028405,-0.020769,0.03543,-24.6,12.6,26.64
9.3027,-1.3348,-3.1054,-0.025656,-0.012523,0.050396,-24.54,12.6,26.4
9.4389,-1.2939,-3.0646,-0.017715,-0.012523,0.051007,-24.36,12.9,26.58
9.4661,-1.2531,-3.0373,-0.02474,-0.016188,0.047953,-24.3,13.02,26.64
9.398,-1.2122,-3.0646,-0.027184,-0.013439,0.049175,-24.3,12.9,26.76
9.4389,-1.2258,-3.1463,-0.019548,-0.019242,0.035736,-24.3,12.9,26.7
9.3708,-1.2939,-3.0918,-0.027489,-0.017715,0.036346,-24.12,12.9,26.88
9.3027,-1.2667,-3.0782,-0.027794,-0.011912,0.030849,-24.18,13.02,26.82
9.3163,-1.2939,-3.0918,-0.025045,-0.0051924,0.036346,-24.3,12.9,26.64
9.3027,-1.3076,-3.0918,-0.014966,-0.000916,0.041233,-24.18,12.84,26.64
9.3436,-1.3076,-3.1054,-0.018326,-0.0045815,0.042761,-24.12,12.84,26.7
9.3708,-1.4029,-3.0782,-0.018021,-0.018937,0.032376,-24.12,12.78,26.76
9.4389,-1.3893,-3.1463,-0.016493,-0.012828,0.034208,-24.24,12.72,26.88
9.3436,-1.4165,-3.1327,-0.013744,-0.016188,0.032987,-24.06,12.84,26.82
9.3844,-1.362,-3.1872,-0.028711,-0.0058032,0.045509,-23.94,12.78,26.7
9.3163,-1.3348,-3.1599,-0.020159,-0.014966,0.047342,-24.12,12.72,26.7
9.3436,-1.3212,-3.0918,-0.01405,-0.020159,0.054672,-24.06,12.78,26.82
9.3163,-1.3893,-3.1872,-0.019548,-0.019853,0.043677,-24.0,12.78,26.64
9.4117,-1.471,-3.2144,-0.031765,-0.012828,0.040928,-24.0,13.08,26.52
9.3708,-1.471,-3.2144,-0.048869,-0.0073304,0.036957,-23.94,13.02,26.64
9.3708,-1.4165,-3.1463,-0.047037,0.010079,0.03879,-23.82,13.08,26.82
9.3572,-1.3212,-3.1191,-0.040623,0.010996,0.037263,-23.88,13.26,26.82
9.4661,-1.4029,-3.0373,-0.033292,0.012828,0.044288,-23.82,13.32,26.94
9.4661,-1.4165,-3.0918,-0.025962,-0.0054978,0.042761,-23.64,13.32,26.82
9.3844,-1.3484,-3.0782,-0.023518,-0.019853,0.041539,-23.64,13.26,27.0
9.3163,-1.3757,-3.1463,-0.014355,-0.025351,0.039401,-23.46,13.26,26.94
9.3163,-1.4165,-3.2144,-0.019853,-0.023518,0.044288,-23.52,13.32,27.06
9.3436,-1.4301,-3.1599,-0.011301,-0.020464,0.04612,-23.58,13.44,27.06
9.3436,-1.3484,-3.1872,-0.010079,-0.0079412,0.048564,-23.52,13.44,27.0
9.4389,-1.4438,-3.1872,-0.014661,-0.0097738,0.041233,-23.46,13.5,27.12
9.4389,-1.4846,-3.1327,-0.015882,-0.011301,0.023824,-23.34,13.38,27.12
9.4661,-1.3757,-3.1327,-0.024435,-0.012523,0.021075,-23.34,13.38,27.12
9.4117,-1.5255,-3.2008,-0.025962,-0.0085521,0.0015272,-23.34,13.38,27.06
9.3436,-1.5527,-3.0646,-0.032987,0.0082467,0.0012217,-23.28,13.5,27.0
9.3572,-1.471,-3.1872,-0.03146,0.009163,-0.0045815,-23.4,13.44,26.82
9.3027,-1.4846,-3.2144,-0.03879,0.0079412,-0.0094684,-23.58,13.5,26.76
9.3027,-1.4574,-3.1872,-0.048258,0.0048869,-0.0027489,-23.52,13.5,26.7
9.3436,-1.4438,-3.1872,-0.046731,0.0030543,0.0030543,-23.76,13.44,26.82
9.2891,-1.4438,-3.1191,-0.041233,-0.002138,0.012217,-23.82,13.38,26.76
9.3844,-1.3757,-3.1872,-0.03879,-0.013134,0.012828,-23.88,13.38,26.88
9.3027,-1.3893,-3.0646,-0.036652,-0.007025,0.013439,-23.82,13.5,26.88
9.398,-1.3893,-3.0646,-0.03879,-0.000305,0.0054978,-23.88,13.5,26.88
9.398,-1.362,-3.1054,-0.03879,0.000916,0.0076358,-23.76,13.44,26.88
9.2755,-1.3484,-3.0918,-0.033292,-0.014661,0.0094684,-23.88,13.44,27.0
9.2482,-1.3893,-3.1191,-0.032376,-0.012828,0.019548,-24.0,13.44,27.12
9.3844,-1.4846,-3.1735,-0.019242,-0.0088575,0.022907,-24.0,13.38,27.06
9.3844,-1.4846,-3.1054,-0.033903,-0.007025,0.021991,-24.12,13.44,27.12
9.4253,-1.471,-3.1327,-0.037568,-0.011606,0.01741,-23.94,13.38,27.12
9.3708,-1.4574,-3.1054,-0.019548,-0.010996,0.011606,-23.94,13.38,27.18
9.3163,-1.3893,-3.2144,-0.017715,-0.011301,0.014661,-23.88,13.44,27.18
9.2891,-1.3757,-3.1463,-0.017715,-0.0085521,0.028405,-23.82,13.56,27.3
9.3436,-1.4438,-3.2008,-0.014966,-0.0027489,0.031154,-23.94,13.38,27.24
9.3436,-1.4846,-3.0918,-0.01405,-0.009163,0.035125,-23.94,13.38,27.12
9.3572,-1.4846,-3.1191,-0.013134,-0.017104,0.03207,-23.88,13.32,27.12
9.3708,-1.471,-3.1872,-0.0079412,-0.030238,0.030543,-23.88,13.44,27.0
9.4117,-1.471,-3.2144,-0.025656,-0.019242,0.014661,-23.94,13.44,27.0
9.3572,-1.4438,-3.1191,-0.022602,-0.010079,0.012217,-23.76,13.44,27.0
9.3572,-1.4574,-3.1872,-0.021686,-0.009163,0.0054978,-23.76,13.5,27.06
9.3299,-1.471,-3.2689,-0.018631,-0.011301,0.0064141,-23.58,13.44,27.12
9.398,-1.4165,-3.2416,-0.028405,-0.0033598,0.0036652,-23.58,13.56,27.18
9.4389,-1.4301,-3.2144,-0.030238,0.0045815,-0.010996,-23.76,13.68,27.24
9.4117,-1.4301,-3.1327,-0.031765,0.0036652,-0.014355,-23.76,13.62,27.18
9.3163,-1.4846,-3.1191,-0.032987,0.027489,-0.027489,-23.76,13.62,27.18
9.3163,-1.5119,-3.2008,-0.045815,-0.0082467,-0.0051924,-23.64,13.62,27.12
9.2755,-1.4982,-3.1463,-0.048564,-0.0024435,-0.000611,-23.64,13.68,27.18
9.3163,-1.4165,-3.1599,-0.050396,0.0064141,0.0082467,-23.64,13.86,27.24
9.2891,-1.3484,-3.1191,-0.043982,0.010079,0.017715,-23.64,13.74,27.24
9.3844,-1.3484,-3.1599,-0.040317,0.015882,0.013744,-23.7,13.74,27.24
9.4389,-1.4438,-3.1599,-0.042455,0.014661,0.0033598,-23.82,13.74,27.3
9.4389,-1.4301,-3.1191,-0.047647,0.020159,-0.0058032,-23.82,13.68,27.42
9.4117,-1.4438,-3.1599,-0.043371,0.016493,-0.014966,-23.94,13.74,27.3
9.3708,-1.3893,-3.1872,-0.054978,0.011606,-0.009163,-23.94,13.62,27.36
9.3027,-1.4438,-3.0918,-0.049175,0.013744,-0.000305,-23.88,13.56,27.36
9.2891,-1.4029,-3.1735,-0.046426,0.013439,0.011606,-23.88,13.5,27.42
9.3844,-1.3893,-3.1735,-0.039401,0.0067195,0.0064141,-23.88,13.5,27.36
9.4389,-1.3484,-3.2416,-0.038179,0.0033598,-0.0061087,-23.88,13.44,27.42
9.3708,-1.3757,-3.2144,-0.034819,-0.000305,0.000611,-23.88,13.32,27.3
9.3708,-1.3484,-3.1599,-0.047953,0.014966,0.0018326,-23.88,13.2,27.18
9.3572,-1.2803,-3.1327,-0.043982,0.011301,0.0097738,-23.94,13.08,27.3
9.3572,-1.2939,-3.1735,-0.047037,0.0067195,0.011606,-24.0,13.14,27.18
9.3436,-1.3212,-3.1872,-0.039706,0.0082467,0.0094684,-23.94,12.9,27.12
9.3708,-1.3757,-3.1191,-0.051313,0.0073304,0.013439,-23.82,12.9,26.76
9.3572,-1.3212,-3.1327,-0.045204,0.0048869,0.013134,-23.76,12.9,27.0
9.3436,-1.3348,-3.1191,-0.043677,0.0033598,0.019242,-23.88,12.9,26.88
9.398,-1.3757,-3.1054,-0.034819,-0.000305,0.014661,-24.12,12.84,26.64
9.4117,-1.4029,-3.0918,-0.028405,-0.010385,0.022907,-24.12,12.96,26.7
9.3436,-1.362,-3.1191,-0.036652,-0.010385,0.018021,-24.0,13.08,26.7
9.3436,-1.3212,-3.2008,-0.034819,-0.0097738,0.018631,-23.94,12.96,26.7
9.2891,-1.2939,-3.1599,-0.036652,-0.01405,0.02138,-23.94,12.96,26.82
9.3708,-1.3484,-3.1599,-0.030849,-0.013744,0.023824,-23.88,12.96,26.82
9.3163,-1.3484,-3.1327,-0.03207,-0.0051924,0.027184,-23.88,13.02,26.88
9.3436,-1.3757,-3.1191,-0.036041,0.000305,0.020769,-23.7,12.96,26.76
9.3844,-1.3212,-3.1327,-0.032987,-0.0012217,0.023213,-23.76,13.14,26.88
9.2482,-1.3484,-3.1599,-0.03543,-0.012828,0.030849,-23.82,13.26,26.88
9.3436,-1.362,-3.1872,-0.026267,-0.014355,0.022907,-24.06,13.26,26.76
9.3572,-1.3757,-3.1599,-0.028711,-0.0061087,0.0281,-24.06,13.2,26.82
9.3844,-1.3757,-3.2008,-0.032376,-0.0033598,0.029627,-23.88,13.26,26.88
9.4117,-1.3757,-3.2416,-0.039095,-0.0067195,0.025656,-23.76,13.38,27.0
9.4117,-1.3484,-3.1872,-0.04215,-0.0024435,0.018326,-23.76,13.26,27.0
9.4661,-1.3757,-3.1599,-0.035736,-0.0067195,0.0079412,-23.76,13.26,27.12
9.2618,-1.4438,-3.1599,-0.041539,-0.007025,0.012217,-23.94,13.38,27.12
9.3027,-1.4165,-3.1872,-0.038485,0.000916,0.01405,-23.94,13.32,27.18
9.2891,-1.3757,-3.2144,-0.041844,0.0051924,0.020769,-23.94,13.32,27.06
9.398,-1.3757,-3.1872,-0.040317,0.0067195,0.0042761,-24.12,13.38,27.06
9.4389,-1.4029,-3.1872,-0.038485,0.01069,0.0033598,-24.12,13.38,26.88
9.3163,-1.4301,-3.1191,-0.045204,0.013744,-0.0042761,-24.12,13.38,26.94
9.2755,-1.3484,-3.1735,-0.041844,0.0048869,0.01069,-24.0,13.2,27.0
9.2891,-1.2803,-3.1872,-0.053451,-0.0015272,0.019853,-23.88,13.32,27.18
9.3163,-1.3212,-3.1463,-0.042455,0.0024435,0.032987,-23.94,13.32,27.18
9.4117,-1.362,-3.1191,-0.03543,0.002138,0.022297,-23.94,13.08,27.18
9.4525,-1.4438,-3.1191,-0.028711,-0.0045815,0.02474,-24.12,13.14,27.12
9.3844,-1.5255,-3.228,-0.033903,-0.01069,0.0061087,-24.12,13.32,27.0
9.3572,-1.4165,-3.2008,-0.03207,-0.0015272,-0.0085521,-23.94,13.38,27.0
9.3163,-1.4029,-3.2416,-0.033292,0.019242,-0.0036652,-24.0,13.38,27.06
9.3572,-1.3212,-3.1735,-0.03146,0.024435,-0.0048869,-24.06,13.44,27.12
9.221,-1.4165,-3.1191,-0.053145,0.025351,0.0027489,-23.94,13.44,27.18
9.3708,-1.3348,-3.1599,-0.037263,0.025656,0.0088575,-23.94,13.38,27.12
9.3436,-1.3212,-3.1054,-0.036957,0.011912,0.0045815,-24.0,13.2,27.24
9.3844,-1.3348,-3.051,-0.027794,0.0033598,0.015882,-24.12,13.2,27.18
9.3572,-1.3757,-3.0237,-0.020464,-0.0033598,0.013134,-24.06,13.14,27.12
9.3163,-1.3076,-3.0373,-0.017104,-0.0033598,0.019242,-24.18,13.26,26.88
9.3163,-1.3348,-3.3097,-0.0088575,-0.015272,0.031154,-24.18,13.26,26.82
9.3844,-1.3212,-3.0782,0.010079,-0.027489,0.027794,-24.12,13.14,26.88
9.4117,-1.4029,-3.1463,0.0036652,-0.029627,0.040928,-24.24,12.96,27.0
9.3299,-1.4165,-3.228,0.0048869,-0.033292,0.027794,-24.3,12.9,27.0
9.3436,-1.3484,-3.2689,-0.01069,-0.018326,0.025656,-24.3,12.78,26.94
9.3436,-1.3484,-3.1599,-0.020769,-0.0012217,0.022297,-24.3,12.78,26.88
9.3163,-1.3348,-3.2553,-0.022297,0.0027489,0.032376,-24.42,12.78,26.82
9.3844,-1.3757,-3.1599,-0.024435,0.0051924,0.02474,-24.24,12.9,26.88
9.398,-1.3757,-3.1599,-0.030543,0.0012217,0.026878,-24.18,13.02,26.88
9.3436,-1.3893,-3.1735,-0.037568,-0.0076358,0.03146,-24.18,13.02,27.0
9.221,-1.3757,-3.228,-0.038179,-0.010385,0.033598,-24.24,13.14,27.0
9.3027,-1.3348,-3.1191,-0.028405,-0.0073304,0.035736,-24.12,13.08,27.12
9.3436,-1.3757,-3.1599,-0.012217,-0.011301,0.036346,-24.12,13.14,27.18
9.4389,-1.4438,-3.0918,-0.011301,-0.013744,0.023213,-24.06,13.26,27.18
9.3163,-1.4165,-3.1872,-0.013744,-0.015577,0.021075,-23.94,13.26,27.06
9.3299,-1.4165,-3.1327,-0.0085521,-0.019242,0.025656,-23.94,13.32,27.12
9.3844,-1.4165,-3.1872,-0.01069,-0.019242,0.026878,-23.94,13.5,27.24
9.4117,-1.362,-3.1872,-0.011606,-0.009163,0.025351,-23.88,13.62,27.24
9.3844,-1.3757,-3.1735,-0.0064141,0.0088575,0.021991,-23.82,13.62,27.18
9.3436,-1.3893,-3.2416,-0.017715,0.0012217,0.018631,-23.82,13.62,27.36
9.3844,-1.4029,-3.2553,-0.022602,-0.0051924,0.020159,-23.82,13.56,27.3
9.2346,-1.3757,-3.1735,-0.032987,-0.0033598,0.022907,-23.76,13.62,27.24
9.3163,-1.4438,-3.0918,-0.031154,-0.0039706,0.021991,-23.58,13.62,27.12
9.2891,-1.4165,-3.1872,-0.045204,-0.000305,0.03543,-23.64,13.62,27.24
9.3163,-1.4165,-3.1872,-0.033292,-0.0048869,0.034819,-23.7,13.5,27.18
9.3708,-1.4165,-3.2008,-0.033292,0.0058032,0.027489,-23.7,13.5,27.18
9.398,-1.4574,-3.1735,-0.027489,0.0030543,0.023824,-23.7,13.62,27.12
9.4117,-1.4846,-3.2144,-0.033903,-0.0042761,0.018937,-23.64,13.38,26.94
9.3299,-1.4438,-3.1872,-0.025962,0.0012217,0.019548,-23.58,13.44,26.82
9.2482,-1.4438,-3.2553,-0.025962,-0.0030543,0.03146,-23.7,13.38,26.82
9.2482,-1.4301,-3.2144,-0.029627,-0.0033598,0.03207,-23.7,13.38,26.82
9.3163,-1.3893,-3.1327,-0.03543,-0.013744,0.048564,-23.88,13.2,26.88
9.3572,-1.4438,-3.1872,-0.020159,-0.015577,0.051618,-23.88,13.14,26.94
9.3844,-1.4165,-3.3097,-0.015882,0.0015272,0.05284,-23.88,13.14,27.0
9.3299,-1.471,-3.2144,-0.015272,0.013134,0.038485,-23.88,13.26,26.94
9.4117,-1.4574,-3.1735,-0.01405,0.018326,0.031154,-23.88,13.2,26.82
9.3572,-1.5663,-3.1872,-0.019853,0.01069,0.023824,-23.76,13.38,26.82
9.3027,-1.5119,-3.1463,-0.023518,0.000305,0.025962,-23.76,13.26,26.88
9.2891,-1.5119,-3.1327,-0.025656,-0.0012217,0.029932,-23.7,13.26,26.94
9.2891,-1.471,-3.1872,-0.024435,0.0036652,0.034514,-23.7,13.56,27.12
9.2891,-1.5391,-3.2689,-0.018021,-0.0058032,0.043066,-23.7,13.38,27.18
9.3299,-1.5119,-3.2416,-0.022602,-0.0036652,0.032987,-23.58,13.38,27.24
9.3708,-1.5119,-3.228,-0.034208,0.0015272,0.017715,-23.58,13.5,27.18
9.3572,-1.471,-3.228,-0.04612,0.0085521,0.017104,-23.34,13.56,27.06
9.3436,-1.3757,-3.1599,-0.051618,0.012523,0.019548,-23.34,13.62,27.12
9.2482,-1.4301,-3.0918,-0.053451,0.0073304,0.028405,-23.4,13.62,27.0
9.2755,-1.4165,-3.1191,-0.04948,0.000611,0.039401,-23.46,13.56,27.12
9.2482,-1.4438,-3.1327,-0.030849,-0.0079412,0.051007,-23.46,13.44,27.12
9.3436,-1.471,-3.2416,-0.028405,-0.012217,0.04612,-23.52,13.44,27.12
9.398,-1.4574,-3.1599,-0.037263,-0.01741,0.03543,-23.64,13.38,27.12
9.3708,-1.5391,-3.2008,-0.026573,-0.015272,0.033903,-23.46,13.56,27.12
9.3708,-1.5391,-3.2144,-0.022602,-0.010079,0.025962,-23.46,13.5,27.12
9.4253,-1.5391,-3.2689,-0.013744,-0.0042761,0.0036652,-23.58,13.62,27.0
9.3436,-1.5255,-3.228,-0.026267,-0.0033598,0.0033598,-23.64,13.62,26.94
9.2891,-1.58,-3.2689,-0.03146,0.0024435,-0.0030543,-23.52,13.56,27.0
9.2618,-1.5119,-3.2553,-0.033292,0.0039706,0.0018326,-23.58,13.74,27.0
9.2891,-1.471,-3.2961,-0.035125,0.017104,-0.000305,-23.7,13.8,27.0
9.3708,-1.5119,-3.1872,-0.033903,0.016188,-0.0048869,-23.7,13.62,26.94
9.3708,-1.5527,-3.1054,-0.03543,0.0085521,-0.0027489,-23.76,13.68,26.94
9.3163,-1.5391,-3.1191,-0.040623,-0.0045815,-0.0012217,-23.64,13.62,26.94
9.3299,-1.4846,-3.1599,-0.036957,-0.0045815,0.000305,-23.76,13.62,26.94
9.2482,-1.4574,-3.1872,-0.046426,-0.0033598,-0.0067195,-23.76,13.86,26.94
9.3436,-1.4438,-3.1463,-0.041233,0.0064141,0.007025,-23.82,13.8,26.94
9.3844,-1.4438,-3.1054,-0.032681,0.0015272,-0.000305,-23.88,13.74,26.88
9.3163,-1.4438,-3.2008,-0.040012,-0.0061087,-0.0024435,-23.7,13.62,27.0
9.398,-1.3757,-3.1191,-0.036957,-0.0079412,0.0048869,-23.7,13.68,27.12
9.2891,-1.4846,-3.1735,-0.036957,-0.0054978,0.0039706,-23.76,13.62,27.06
9.3436,-1.4029,-3.1191,-0.041539,-0.009163,0.0036652,-23.76,13.5,27.12
9.3436,-1.4165,-2.9965,-0.041233,-0.0042761,0.0042761,-23.7,13.44,27.12
9.3163,-1.4438,-3.1327,-0.025045,-0.013744,0.0088575,-23.76,13.5,27.06
9.3572,-1.4846,-3.1054,-0.0067195,-0.01741,0.0067195,-23.64,13.38,26.88
9.3708,-1.471,-3.2008,-0.02474,-0.011606,0.015272,-23.64,13.44,27.0
9.4117,-1.4301,-3.2825,-0.028405,-0.016493,0.018631,-23.64,13.38,26.94
9.3436,-1.4165,-3.1872,-0.036346,-0.0082467,0.015882,-23.58,13.32,26.94
9.3436,-1.4438,-3.1191,-0.022907,-0.0061087,0.011301,-23.58,13.26,27.12
9.3299,-1.471,-3.1599,-0.025351,-0.012523,0.013439,-23.58,13.32,27.06
9.3572,-1.471,-3.1735,-0.033598,0.011912,-0.0061087,-23.88,13.44,26.88
9.3572,-1.5391,-3.1735,-0.027794,0.012217,-0.0054978,-23.82,13.44,26.82
9.3436,-1.5936,-3.2416,-0.033903,0.010996,-0.014661,-23.64,13.44,27.12
9.2482,-1.5119,-3.2689,-0.036041,0.0015272,-0.000611,-23.64,13.44,27.0
9.2482,-1.5119,-3.2689,-0.031154,-0.009163,-0.0058032,-23.64,13.44,27.0
