Ax,Ay,Az,Gx,Gy,Gz,Mx,My,Mz
9.3844,-3.3506,-2.3155,-0.042761,-0.85002,0.18692,-54.0,-11.46,41.64
8.2812,-2.9829,-2.3018,-0.11087,-0.82436,0.18601,-53.04,-11.1,41.64
8.0632,-3.0237,-2.7513,-0.29474,-0.49327,0.37263,-52.32,-10.68,41.7
7.7772,-2.9556,-2.9284,-0.40928,-0.43524,0.45173,-50.64,-9.84,41.7
7.8317,-3.0237,-2.833,-0.51282,-0.24862,0.85491,-49.98,-9.48,41.76
8.0632,-3.3097,-2.8603,-0.45296,-0.14752,1.1332,-49.32,-9.06,41.76
8.3629,-2.9692,-2.5334,-0.23854,-0.093157,1.2666,-48.12,-8.28,42.18
8.54,-2.9011,-2.4517,-0.017104,0.033598,1.284,-47.34,-7.86,42.48
8.6353,-3.5958,-2.7922,0.14875,0.38057,1.0968,-46.14,-7.08,42.9
9.0167,-3.8818,-2.9011,0.14691,0.90469,0.56261,-45.54,-6.66,43.14
9.9429,-4.0861,-2.6015,0.090103,0.8262,0.34819,-44.94,-6.36,43.14
10.379,-4.2632,-2.3427,0.055283,0.56688,0.26634,-44.34,-5.94,43.32
10.011,-4.3858,-2.2474,-0.021075,-0.36621,0.23121,-43.92,-5.52,43.38
8.0905,-4.3858,-1.7706,-0.040623,-0.55039,0.22052,-42.9,-4.68,43.32
7.9951,-3.8001,-1.6753,-0.083383,0.10934,0.23305,-42.42,-4.38,43.2
9.6432,-3.7728,-2.0294,-0.12614,0.37874,0.24984,-41.64,-3.42,43.2
10.229,-3.6366,-1.9613,-0.15608,0.31857,0.22663,-41.22,-3.0,43.14
10.392,-3.4459,-1.58,-0.13653,0.16249,0.21747,-40.92,-2.58,42.96
10.202,-3.4323,-1.2939,-0.03879,-0.3711,0.23579,-40.38,-2.34,42.96
9.5479,-4.0316,-1.7162,0.045509,-0.58857,0.2587,-39.84,-1.86,42.54
9.3708,-4.2359,-2.0839,0.13195,-0.75411,0.20311,-39.6,-1.44,42.42
9.1801,-4.4947,-2.8058,0.15424,-0.84238,-0.0024435,-39.18,-1.2,42.36
8.3765,-4.699,-2.9284,0.12126,-0.89583,0.0012217,-38.58,-0.72,42.24
7.6546,-4.3449,-3.0646,0.062003,-0.87506,0.010079,-38.16,-0.48,42.42
7.4776,-4.2223,-3.1872,0.030543,-0.51862,0.039706,-37.74,-0.42,42.6
7.464,-4.3177,-3.2825,0.019853,-0.219,0.052229,-37.02,-0.24,43.14
7.7908,-4.3313,-3.2553,0.0048869,0.038179,0.089186,-36.78,-0.18,43.14
8.4446,-4.4402,-2.9965,-0.03543,0.14294,0.080329,-36.06,-0.12,43.38
8.717,-4.1951,-2.9011,-0.032376,0.10018,0.085521,-35.76,0.06,43.56
8.6898,-4.1542,-3.0237,-0.026878,0.034514,0.097128,-35.52,0.18,43.8
8.5808,-4.0589,-2.9965,-0.0054978,-0.019853,0.082467,-35.34,0.24,43.98
8.8805,-4.413,-2.9284,0.017715,-0.065973,0.04612,-34.92,0.42,44.34
8.7443,-4.5083,-3.0237,-0.0054978,-0.15119,0.043066,-34.68,0.3,44.52
8.7034,-4.4947,-2.8875,-0.011912,-0.24068,0.071471,-34.68,0.24,44.64
8.717,-4.5356,-3.0237,-0.0058032,-0.28588,0.069944,-34.56,0.24,44.7
8.4174,-4.5356,-2.9965,-0.014966,-0.39187,0.087354,-34.62,0.36,44.88
8.1313,-4.4811,-3.1872,0.014661,-0.36621,0.087048,-34.5,0.42,44.76
8.0905,-4.5356,-3.3097,0.029932,-0.28497,0.069333,-34.44,0.6,44.88
8.036,-4.6854,-3.3778,0.025962,-0.20739,0.038485,-34.26,0.66,45.06
7.9543,-4.4811,-3.4459,0.011912,-0.08827,0.039095,-34.14,0.72,45.12
8.1041,-4.4402,-3.4732,0.011301,-0.043982,0.056505,-34.26,0.6,45.36
8.3357,-4.413,-3.3506,-0.0079412,0.0079412,0.072082,-34.26,0.54,45.48
8.4038,-4.4402,-3.3097,-0.0079412,-0.0015272,0.082772,-34.08,0.72,45.48
8.3629,-4.4402,-3.2689,0.012828,-0.018937,0.087048,-34.02,0.72,45.54
8.322,-4.4811,-3.2416,0.022602,-0.052229,0.082467,-33.9,0.78,45.54
8.322,-4.4811,-3.3097,0.016493,-0.087354,0.062308,-33.78,0.9,45.72
8.2676,-4.522,-3.3506,0.010079,-0.14752,0.052229,-33.72,1.02,45.96
8.0224,-4.5083,-3.3097,0.011606,-0.13653,0.062003,-33.6,1.14,46.02
7.9679,-4.5083,-3.3097,-0.002138,-0.087659,0.056505,-33.48,1.02,46.14
8.0224,-4.6718,-3.4596,-0.01405,-0.0079412,0.051924,-33.42,1.2,46.2
8.1586,-4.6309,-3.4187,-0.034514,0.047342,0.042761,-33.42,1.26,46.02
8.1858,-4.5764,-3.4187,-0.038179,0.066584,0.043982,-33.42,1.32,46.14
8.2403,-4.6582,-3.3778,-0.023213,0.067195,0.024129,-33.36,1.32,46.14
8.322,-4.7944,-3.4051,-0.038485,0.062003,0.0073304,-33.24,1.5,46.14
8.322,-4.8625,-3.2825,-0.047647,0.054672,-0.0061087,-33.18,1.32,46.2
8.2812,-4.7263,-3.1872,-0.049175,0.029932,-0.032987,-33.18,1.2,46.26
8.1858,-4.6309,-3.3234,-0.052534,0.031154,-0.037568,-33.3,1.2,46.32
8.2267,-4.5901,-3.337,-0.073304,0.045204,-0.010996,-33.3,1.14,46.2
8.2676,-4.413,-3.2144,-0.050702,0.046731,-0.002138,-33.18,1.02,46.02
8.2403,-4.4811,-3.2689,-0.040012,0.039095,0.0088575,-33.24,1.02,46.02
8.322,-4.5492,-3.337,-0.043066,0.033292,0.013134,-33.3,1.08,46.02
8.2403,-4.6037,-3.3506,-0.039095,0.018631,0.0036652,-33.18,1.02,45.84
8.1995,-4.5901,-3.337,-0.044288,0.037568,-0.0064141,-33.3,0.9,45.96
8.1995,-4.6037,-3.3506,-0.059254,0.069639,-0.014966,-33.3,0.78,45.84
8.1858,-4.5492,-3.2689,-0.065668,0.083078,-0.022907,-33.3,0.84,45.9
8.2131,-4.522,-3.2825,-0.075442,0.09499,-0.021686,-33.36,0.9,45.72
8.1995,-4.5764,-3.228,-0.068111,0.098349,-0.013439,-33.42,0.9,45.72
8.322,-4.5628,-3.1872,-0.064446,0.10171,-0.0088575,-33.24,1.08,45.6
8.3629,-4.5083,-3.2553,-0.052229,0.088881,-0.0015272,-33.36,1.14,45.54
8.4446,-4.5083,-3.2553,-0.055894,0.082467,-0.0045815,-33.48,1.14,45.54
8.5127,-4.4811,-3.3097,-0.062308,0.066584,-0.0097738,-33.54,1.14,45.48
8.3901,-4.522,-3.2008,-0.065057,0.035125,-0.033292,-33.48,0.96,45.48
8.4174,-4.5356,-3.1463,-0.071471,0.030849,-0.040012,-33.42,0.9,45.3
8.2812,-4.5492,-3.1872,-0.083994,0.026267,-0.044288,-33.54,0.96,45.36
8.3084,-4.4266,-3.2825,-0.076053,0.030238,-0.047037,-33.6,0.78,45.24
8.2676,-4.3585,-3.0918,-0.074526,0.0562,-0.049175,-33.66,0.84,45.24
8.3493,-4.413,-3.2008,-0.068111,0.076969,-0.042761,-33.84,0.72,45.3
8.4446,-4.4811,-3.1463,-0.054978,0.079107,-0.034208,-34.02,0.66,45.42
8.3901,-4.4811,-3.2553,-0.077885,0.087659,-0.03146,-34.08,0.6,45.24
8.3901,-4.413,-3.1054,-0.070555,0.10324,-0.040012,-34.32,0.36,45.24
8.431,-4.4402,-3.0373,-0.058643,0.11087,-0.034514,-34.2,0.24,45.18
8.431,-4.4675,-3.0646,-0.069333,0.11057,-0.037874,-34.14,0.24,45.06
8.5127,-4.413,-3.1191,-0.069028,0.091935,-0.041539,-34.2,0.24,45.12
8.54,-4.3449,-3.0101,-0.090103,0.07086,-0.046426,-34.2,0.3,44.88
8.54,-4.3177,-2.9965,-0.075136,0.045509,-0.04948,-34.26,0.24,44.94
8.54,-4.2632,-3.0237,-0.055283,0.024129,-0.038485,-34.2,0.3,44.76
8.4719,-4.2632,-3.0918,-0.051618,0.015882,-0.016188,-34.38,0.24,44.7
8.4174,-4.3177,-3.0918,-0.036652,0.018937,-0.0088575,-34.38,0.06,44.58
8.4038,-4.3313,-3.1327,-0.043371,0.041844,-0.016799,-34.38,0.12,44.4
8.3493,-4.3449,-3.1054,-0.044899,0.065363,-0.021991,-34.38,0.12,44.22
8.4174,-4.413,-3.0646,-0.051007,0.073915,-0.023518,-34.38,0.06,44.28
8.6081,-4.3177,-2.9965,-0.05681,0.067806,-0.036041,-34.56,0.06,44.28
8.5536,-4.1678,-3.0373,-0.06353,0.06017,-0.038485,-34.74,0.06,44.34
8.6353,-4.1951,-2.942,-0.051007,0.047647,-0.034819,-34.8,-0.12,44.34
8.5808,-4.1814,-3.0101,-0.04948,0.009163,-0.039401,-34.8,-0.24,44.28
8.431,-4.3177,-2.9556,-0.040928,-0.0024435,-0.053451,-34.92,-0.3,44.34
8.5127,-4.3177,-3.0918,-0.047037,0.013439,-0.037568,-35.04,-0.36,44.28
8.4719,-4.2768,-3.0646,-0.047037,0.02138,-0.036652,-35.28,-0.42,44.34
8.3765,-4.2223,-3.0373,-0.041844,0.045815,-0.044288,-35.28,-0.48,44.22
8.4038,-4.2223,-2.942,-0.044899,0.067195,-0.051618,-35.4,-0.42,44.22
8.5672,-4.1814,-2.9284,-0.043066,0.07422,-0.017715,-35.34,-0.6,44.1
8.6217,-4.2495,-2.9011,-0.03879,0.067501,-0.0082467,-35.22,-0.54,44.16
8.6489,-4.1542,-2.9556,-0.051618,0.039095,0.0030543,-35.34,-0.6,44.22
8.6353,-4.127,-2.9011,-0.038179,0.013439,0.0051924,-35.34,-0.6,44.16
8.6353,-4.1133,-2.8739,-0.036346,-0.0064141,0.002138,-35.22,-0.6,43.98
8.7034,-4.1814,-2.9556,-0.03207,-0.033598,0.0015272,-35.1,-0.42,44.04
8.4582,-4.0997,-2.9829,-0.034208,-0.051618,0.0018326,-35.22,-0.48,43.98
8.4719,-4.1814,-2.942,-0.036041,-0.013439,-0.0030543,-35.1,-0.42,43.98
8.5127,-4.1406,-3.0237,-0.03543,0.000305,0.0018326,-35.16,-0.42,44.16
8.5536,-4.1678,-3.0237,-0.039401,0.017715,0.0079412,-34.98,-0.48,44.22
8.5672,-4.127,-2.8875,-0.036346,0.028405,0.0039706,-35.04,-0.42,44.16
8.5808,-4.1814,-2.8739,-0.032681,0.035125,0.0027489,-34.98,-0.6,44.1
8.5127,-4.1814,-2.9965,-0.038179,0.051618,-0.0058032,-34.86,-0.48,44.16
8.54,-4.1406,-3.0101,-0.04948,0.075747,-0.013744,-35.04,-0.66,44.1
8.5944,-4.2359,-2.942,-0.044593,0.078802,-0.015577,-35.04,-0.66,43.98
8.7579,-4.2359,-2.9556,-0.052534,0.054367,-0.022602,-34.98,-0.6,44.04
8.7715,-4.1542,-2.833,-0.054672,0.014661,-0.02474,-35.16,-0.66,44.1
8.6762,-4.1133,-2.9284,-0.055589,-0.012217,-0.016799,-35.22,-0.72,43.98
8.6625,-4.0997,-2.9284,-0.03879,-0.019548,-0.0079412,-35.28,-0.54,43.98
8.6081,-4.0044,-2.9284,-0.035736,-0.029627,0.018937,-35.34,-0.66,44.1
8.5808,-4.0452,-2.9692,-0.03543,-0.027489,0.023824,-35.34,-0.72,43.98
8.5672,-4.0861,-2.9284,-0.039095,-0.017715,0.014661,-35.34,-0.84,43.86
8.6762,-4.1814,-2.9965,-0.039401,-0.017715,0.0061087,-35.4,-0.78,43.68
8.6489,-4.0997,-2.9556,-0.047342,-0.017715,-0.0088575,-35.4,-0.78,43.74
8.5944,-4.1542,-2.9556,-0.043677,-0.0024435,-0.018326,-35.58,-0.78,43.8
8.4991,-4.0725,-2.9692,-0.033598,0.0018326,-0.013744,-35.64,-0.66,43.74
8.5672,-3.9908,-2.942,-0.023824,0.010385,0.0088575,-35.64,-0.9,43.8
8.5536,-4.0316,-2.9284,-0.018937,0.010385,0.033903,-35.7,-0.96,43.62
8.6081,-4.0316,-3.0237,-0.016188,0.020769,0.050702,-35.7,-1.08,43.62
8.7034,-3.9908,-2.9556,-0.0039706,0.0015272,0.064446,-35.46,-1.02,43.8
8.6353,-4.0589,-2.7649,0.0033598,-0.012828,0.076053,-35.4,-1.26,43.68
8.6217,-4.1814,-2.9829,0.015577,-0.026573,0.077274,-35.4,-1.14,43.68
8.5127,-4.1678,-2.8875,0.01405,-0.036346,0.082161,-35.46,-1.2,43.62
8.5127,-4.1814,-3.0101,0.017715,-0.041539,0.075747,-35.4,-1.14,43.62
8.54,-4.2223,-2.9692,0.013439,-0.020464,0.054978,-35.4,-1.14,43.62
8.6353,-4.1814,-2.9692,0.029322,0.000916,0.065668,-35.4,-1.02,43.74
8.5808,-4.0861,-2.9284,0.033598,-0.0061087,0.07758,-35.58,-1.08,43.68
8.6081,-4.2223,-2.9284,0.023518,-0.023824,0.087048,-35.34,-0.96,43.62
8.6353,-4.1814,-2.9284,0.024129,-0.069944,0.093157,-35.34,-0.78,43.68
8.4991,-4.2904,-2.8875,0.027794,-0.087048,0.087965,-35.28,-0.78,43.8
8.6081,-4.3449,-2.9284,0.019548,-0.083078,0.10079,-35.16,-0.66,43.86
8.5808,-4.3994,-2.9011,0.018631,-0.092241,0.081856,-35.28,-0.66,43.68
8.54,-4.3858,-2.9556,0.01405,-0.090103,0.074831,-35.4,-0.6,43.74
8.3901,-4.3177,-3.0918,0.015272,-0.083994,0.069944,-35.34,-0.42,43.8
8.4174,-4.413,-3.0373,0.009163,-0.058032,0.069333,-35.28,-0.24,43.74
8.3765,-4.3313,-3.0918,0.01405,-0.043066,0.053756,-35.28,-0.06,43.86
8.4038,-4.3177,-3.0237,-0.0045815,-0.01405,0.06689,-35.16,-0.12,43.98
8.3901,-4.3585,-3.0237,-0.0058032,0.0018326,0.062919,-35.28,0.12,43.98
8.4446,-4.3585,-3.0646,-0.0067195,0.0076358,0.06353,-34.98,0.06,43.98
8.4446,-4.3585,-3.0782,-0.013134,0.016188,0.052229,-34.86,0.36,44.28
8.54,-4.3449,-2.9965,-0.007025,-0.0051924,0.057727,-34.8,0.42,44.16
8.5127,-4.304,-2.9284,-0.0012217,-0.023518,0.065668,-34.8,0.72,44.1
8.4719,-4.2223,-2.9829,-0.01405,-0.081856,0.082772,-34.74,0.78,44.16
8.6353,-4.5083,-3.0646,-0.007025,-0.096517,0.10782,-34.62,0.84,44.28
8.4719,-4.4811,-3.1191,-0.023213,-0.12187,0.10049,-34.44,0.9,44.4
8.2403,-4.413,-3.1463,-0.029322,-0.10415,0.10079,-34.44,0.9,44.28
8.1995,-4.5083,-3.1872,-0.0082467,0.022297,0.056505,-34.32,0.96,44.52
8.2948,-4.5901,-3.1599,-0.020464,0.074526,0.02138,-34.2,0.9,44.52
8.3493,-4.4811,-3.0782,-0.031765,0.085521,0.026573,-34.14,1.02,44.46
8.4855,-4.3994,-3.0101,-0.036041,0.081551,0.033292,-33.84,0.96,44.52
8.54,-4.413,-2.9829,-0.033292,0.079107,0.03879,-33.96,1.14,44.58
8.6081,-4.4402,-2.8875,-0.029322,0.056505,0.046426,-33.96,1.02,44.64
8.5672,-4.4539,-2.9556,-0.023213,0.013439,0.041233,-34.08,0.96,44.7
8.5672,-4.5083,-3.0101,-0.018631,-0.051924,0.051924,-34.02,0.9,44.76
8.54,-4.4947,-2.8603,-0.012523,-0.075747,0.049786,-34.14,0.96,44.7
8.3493,-4.4539,-3.0646,-0.012217,-0.085521,0.041539,-34.2,1.08,44.88
8.2812,-4.4811,-3.0782,-0.011912,-0.04215,0.03879,-34.08,1.08,44.94
8.2267,-4.522,-3.0918,-0.029016,0.0030543,0.035125,-34.08,1.14,45.0
8.4038,-4.5083,-3.0237,-0.029932,0.047953,0.029322,-34.08,1.2,44.88
8.4719,-4.4811,-2.9965,-0.030543,0.044593,0.029627,-34.14,1.08,44.94
8.4174,-4.5083,-3.1191,-0.026878,0.033598,0.015272,-34.2,1.02,45.0
8.4174,-4.5492,-3.0237,-0.045815,0.036041,-0.0058032,-34.2,1.08,45.06
8.2812,-4.5764,-2.9965,-0.051924,0.049175,-0.018937,-34.2,1.02,45.18
8.2812,-4.5764,-2.9965,-0.059254,0.07025,-0.023518,-34.2,1.2,45.06
8.3629,-4.522,-2.8603,-0.061087,0.064446,-0.013439,-34.08,1.14,45.0
8.4855,-4.4539,-2.8467,-0.063225,0.031154,0.000916,-34.14,1.02,44.82
8.54,-4.3585,-2.9284,-0.061392,-0.018326,0.01741,-34.02,0.96,44.94
8.5808,-4.3585,-2.9692,-0.039706,-0.045815,0.018021,-33.96,0.96,44.76
8.4719,-4.413,-3.0646,-0.033903,-0.076358,0.018021,-34.14,0.96,44.7
8.4038,-4.413,-3.0918,-0.040623,-0.082467,0.013134,-34.26,0.96,44.64
8.322,-4.5764,-3.0237,-0.039095,-0.035736,0.011301,-34.32,0.84,44.7
8.3493,-4.5083,-3.0782,-0.051618,-0.024129,0.017715,-34.32,0.96,44.64
8.3901,-4.5083,-3.051,-0.04948,-0.015577,0.010079,-34.2,0.9,44.64
8.3765,-4.4947,-3.0101,-0.057116,-0.01741,-0.0042761,-34.38,0.9,44.64
8.4174,-4.4811,-2.9965,-0.059254,-0.0045815,-0.0054978,-34.32,0.9,44.58
8.4446,-4.4539,-3.0646,-0.059254,0.0054978,-0.000611,-34.32,0.6,44.76
8.4446,-4.4266,-3.1054,-0.062003,0.000305,0.0018326,-34.38,0.6,44.94
8.2676,-4.4539,-3.0646,-0.057727,-0.0042761,0.0027489,-34.32,0.84,44.82
8.4446,-4.413,-3.0646,-0.045815,-0.01405,-0.012828,-34.5,0.78,44.88
8.3765,-4.3994,-3.1191,-0.04215,-0.0073304,-0.009163,-34.5,0.84,45.0
8.3357,-4.3858,-3.1191,-0.049175,0.029016,-0.024435,-34.5,0.72,44.94
8.3765,-4.4266,-3.1191,-0.056505,0.05284,-0.029932,-34.44,0.6,44.94
8.431,-4.3721,-3.0918,-0.062614,0.069944,-0.022907,-34.44,0.6,44.88
8.4446,-4.3994,-2.9965,-0.049175,0.07758,-0.018937,-34.44,0.66,44.94
8.4582,-4.3858,-3.0237,-0.058338,0.072693,-0.010996,-34.62,0.72,44.94
8.4582,-4.3585,-2.9284,-0.055283,0.071166,-0.013744,-34.62,0.54,44.88
8.54,-4.3858,-2.9284,-0.056505,0.060781,-0.014966,-34.62,0.48,44.64
8.4719,-4.3177,-3.0373,-0.054978,0.043677,-0.017715,-34.68,0.54,44.58
8.54,-4.3313,-3.0237,-0.055894,0.030849,-0.019242,-34.68,0.42,44.4
8.4174,-4.4266,-2.9965,-0.051618,0.017715,-0.030849,-34.8,0.42,44.46
8.4174,-4.3449,-2.9965,-0.060781,0.027794,-0.023213,-34.68,0.36,44.34
8.4719,-4.304,-3.0373,-0.054978,0.037874,-0.018326,-34.68,0.42,44.28
8.4719,-4.2904,-2.9965,-0.057727,0.053145,-0.013744,-34.74,0.36,44.28
8.4719,-4.2904,-2.9965,-0.051313,0.065057,-0.0012217,-34.68,0.42,44.22
8.54,-4.304,-2.9011,-0.055283,0.06017,-0.0061087,-34.68,0.3,44.28
8.6081,-4.3721,-2.9829,-0.057421,0.035125,-0.0045815,-34.74,0.12,44.1
8.5672,-4.3313,-2.9556,-0.062003,0.022602,-0.014355,-34.62,0.12,43.98
8.5672,-4.3585,-2.9284,-0.060476,0.0030543,-0.033292,-34.62,0.18,43.92
8.4446,-4.2904,-2.9829,-0.079718,0.018021,-0.037263,-34.86,-0.06,44.16
8.4446,-4.3313,-2.9284,-0.064141,0.037568,-0.03879,-34.92,-0.06,44.22
8.3765,-4.3449,-2.942,-0.059254,0.059254,-0.036041,-34.86,0.12,44.28
8.4446,-4.2632,-3.0237,-0.065363,0.090713,-0.039401,-34.74,-0.06,44.22
8.5808,-4.1542,-2.9284,-0.064446,0.096517,-0.030543,-34.92,-0.06,44.16
8.6353,-4.1678,-2.9011,-0.057421,0.093157,-0.021686,-34.86,-0.24,44.1
8.6762,-4.1406,-2.8603,-0.03543,0.054978,0.0018326,-34.92,-0.3,44.04
8.6353,-4.1814,-2.8058,-0.021686,0.031154,0.0073304,-34.92,-0.36,43.98
8.7306,-4.2904,-2.8194,-0.020769,0.0042761,0.014966,-34.98,-0.3,44.1
8.5536,-4.304,-2.9148,-0.030238,-0.040317,0.0064141,-34.98,-0.12,44.04
8.4446,-4.2904,-2.9556,-0.035736,-0.034514,-0.0042761,-34.98,-0.18,44.1
8.4446,-4.2632,-2.8739,-0.041539,-0.020159,-0.0024435,-35.04,-0.36,44.16
8.5127,-4.2495,-2.8739,-0.042455,0.023213,0.016493,-34.86,-0.24,44.04
8.5944,-4.2768,-2.9148,-0.044899,0.033292,0.02474,-34.74,-0.3,44.1
8.6898,-4.2223,-2.9011,-0.05681,0.018631,0.027794,-34.98,-0.18,43.98
8.6625,-4.2223,-2.9011,-0.050396,-0.014355,0.011301,-34.8,-0.24,44.04
8.5536,-4.2223,-2.9011,-0.04612,-0.022602,-0.0030543,-34.68,-0.24,44.1
8.5808,-4.2904,-2.8603,-0.044899,-0.023213,-0.0045815,-34.74,-0.06,44.1
8.6081,-4.3449,-2.9011,-0.055894,-0.0061087,-0.037568,-34.74,0.12,44.04
8.5672,-4.1542,-2.833,-0.071777,0.0036652,-0.033598,-34.8,0.12,44.04
8.4719,-4.127,-2.9011,-0.057727,0.016799,-0.0281,-34.8,-0.06,43.92
8.5127,-4.127,-2.9284,-0.03146,0.041233,0.0012217,-34.86,-0.3,44.04
8.5536,-4.1814,-2.9829,-0.028405,0.059254,0.0094684,-34.86,-0.36,44.04
8.5944,-4.2632,-2.9284,-0.04215,0.071777,0.010996,-34.86,-0.3,43.98
8.6625,-4.2359,-2.8739,-0.036957,0.069944,0.002138,-34.86,-0.24,43.98
8.6353,-4.1814,-2.7377,-0.04612,0.036041,-0.0058032,-35.04,-0.24,43.8
8.6353,-4.1951,-2.7786,-0.034514,0.0045815,0.000916,-34.98,-0.42,43.68
8.6353,-4.1542,-2.833,-0.02474,-0.02138,0.0064141,-35.04,-0.36,43.74
8.6217,-4.1406,-2.833,-0.01741,-0.041844,0.034819,-35.28,-0.54,43.56
8.6353,-4.1406,-2.8875,-0.017104,-0.048869,0.054978,-35.22,-0.6,43.62
8.6625,-4.0316,-2.8603,-0.015882,-0.050396,0.055283,-35.28,-0.72,43.62
8.6625,-4.0861,-2.833,-0.0030543,-0.05681,0.060476,-35.4,-0.78,43.68
8.7034,-4.127,-2.9284,-0.0036652,-0.069333,0.053451,-35.4,-0.84,43.68
8.5127,-4.2223,-2.9284,-0.0042761,-0.072998,0.044593,-35.34,-0.66,43.74
8.3901,-4.2768,-3.0646,-0.0018326,-0.04948,0.036652,-35.4,-0.6,43.74
8.3765,-4.2495,-2.9556,-0.0048869,-0.011606,0.036957,-35.34,-0.6,43.8
8.4038,-4.2495,-2.9556,-0.002138,0.0281,0.040012,-35.28,-0.42,43.86
8.5263,-4.2495,-2.942,-0.0064141,0.054062,0.048564,-35.22,-0.36,43.8
8.5808,-4.2495,-2.9011,-0.0076358,0.051313,0.050702,-35.1,-0.42,43.92
8.6625,-4.304,-2.942,-0.010385,0.031765,0.060476,-35.16,-0.48,43.92
8.7715,-4.2359,-2.8875,-0.0073304,-0.032376,0.045509,-35.16,-0.42,44.04
8.7306,-4.2904,-2.8058,-0.011301,-0.075747,0.044899,-35.16,-0.42,44.1
8.5808,-4.3858,-2.8467,-0.0094684,-0.1014,0.042455,-35.16,-0.42,44.04
8.54,-4.2495,-2.9692,-0.01405,-0.11729,0.051618,-35.04,-0.24,44.1
8.4719,-4.1951,-2.9692,-0.01741,-0.10568,0.058948,-34.98,-0.3,44.04
8.5672,-4.3177,-2.9829,-0.011606,-0.10079,0.069944,-34.8,-0.18,44.22
8.4582,-4.2768,-2.9284,-0.012828,-0.089797,0.079107,-34.86,-0.18,44.34
8.4582,-4.3313,-2.9829,-0.0073304,-0.074526,0.081856,-34.8,-0.12,44.46
8.4991,-4.3858,-2.9829,0.0027489,-0.058338,0.069028,-34.8,-0.36,44.46
8.54,-4.4402,-3.0237,-0.012828,-0.066279,0.061087,-34.86,-0.42,44.52
8.4719,-4.4539,-3.0237,-0.013744,-0.065057,0.03879,-34.86,-0.36,44.52
8.4582,-4.4266,-3.051,-0.026878,-0.059865,0.035736,-34.8,-0.36,44.52
8.3765,-4.3313,-3.0646,-0.029932,-0.024435,0.022907,-34.62,-0.24,44.46
8.4174,-4.3449,-3.0646,-0.029932,-0.011606,0.0281,-34.62,-0.18,44.52
8.4174,-4.3177,-3.0373,-0.034514,0.021686,0.034208,-34.5,-0.12,44.76
8.4582,-4.3721,-3.1054,-0.035125,0.021075,0.040012,-34.38,-0.24,44.88
8.4582,-4.3177,-2.9556,-0.035125,0.0073304,0.044899,-34.38,-0.12,44.88
8.54,-4.3994,-2.9284,-0.025656,-0.009163,0.050091,-34.44,-0.06,44.7
8.5672,-4.3449,-2.9829,-0.019548,-0.023824,0.062003,-34.32,-0.18,44.82
8.4991,-4.3177,-2.9556,-0.018326,-0.057116,0.065973,-34.44,-0.12,44.64
8.4855,-4.3313,-2.9829,-0.0027489,-0.075442,0.063835,-34.5,-0.12,44.76
8.4038,-4.3449,-3.0782,0.011606,-0.083383,0.069639,-34.5,0.06,44.64
8.3901,-4.3858,-3.1191,0.0073304,-0.079412,0.076358,-34.38,0.12,44.64
8.3765,-4.413,-3.0918,0.0024435,-0.059254,0.076664,-34.5,0.3,44.88
8.322,-4.4402,-3.0782,-0.000611,-0.036957,0.066584,-34.56,0.36,44.94
8.3629,-4.5083,-3.1191,-0.012217,0.0042761,0.054062,-34.56,0.48,45.06
8.4446,-4.5083,-3.0646,-0.026267,0.025045,0.040928,-34.5,0.6,45.06
8.431,-4.5356,-3.0237,-0.043371,0.014355,0.025656,-34.56,0.78,44.94
8.3765,-4.4539,-3.0101,-0.047037,0.014966,0.013439,-34.62,0.66,45.06
8.3629,-4.4811,-3.1191,-0.053145,0.014661,0.0085521,-34.62,0.66,45.0
8.3493,-4.4811,-3.0646,-0.050091,0.016188,0.0027489,-34.68,0.72,44.88
8.3493,-4.4539,-3.0646,-0.057727,0.014966,0.0027489,-34.44,0.78,44.82
8.4446,-4.4947,-3.0646,-0.0562,0.013134,0.0030543,-34.2,0.9,44.64
8.4446,-4.4675,-3.0918,-0.050091,0.009163,0.0085521,-34.2,0.9,44.7
8.431,-4.4402,-3.1599,-0.057421,-0.016493,0.016188,-34.26,1.02,44.64
8.322,-4.3858,-3.0646,-0.064141,-0.0012217,0.020464,-34.32,0.96,44.58
8.4719,-4.4402,-3.0237,-0.063835,0.0067195,0.0085521,-34.38,0.9,44.52
8.4446,-4.413,-3.0237,-0.071471,-0.018326,0.0045815,-34.38,0.78,44.58
8.5672,-4.3994,-2.9965,-0.054062,-0.034819,0.0082467,-34.38,0.78,44.52
8.5263,-4.3994,-3.0918,-0.045815,-0.047953,0.015882,-34.38,0.72,44.52
8.3765,-4.413,-3.1463,-0.038485,-0.043677,0.015882,-34.32,0.6,44.58
8.2948,-4.4811,-3.1735,-0.043982,-0.018631,0.014661,-34.26,0.6,44.58
8.2267,-4.4947,-3.0646,-0.04948,0.015882,-0.000916,-34.14,0.6,44.7
8.3357,-4.4947,-3.1872,-0.053756,0.054672,-0.012523,-34.14,0.6,44.7
8.4038,-4.5083,-3.1872,-0.069028,0.10293,-0.027489,-34.26,0.54,44.7
8.4719,-4.4266,-3.1191,-0.079718,0.1295,-0.033598,-34.26,0.48,44.7
8.4855,-4.3449,-2.9965,-0.081856,0.10751,-0.02474,-34.14,0.3,44.88
8.4991,-4.2904,-3.0373,-0.071471,0.097128,-0.021686,-34.14,0.24,44.82
8.4991,-4.3858,-3.051,-0.073304,0.098349,-0.040623,-34.2,0.24,44.82
8.5536,-4.3177,-2.9965,-0.079107,0.093157,-0.064141,-34.14,0.3,44.7
8.4719,-4.3858,-3.0646,-0.083689,0.098349,-0.083383,-34.2,0.18,44.82
8.54,-4.3585,-3.0237,-0.089797,0.093768,-0.076053,-34.2,0.18,44.88
8.5127,-4.2223,-2.9692,-0.086437,0.096517,-0.10171,-34.44,0.3,44.7
8.4991,-4.3449,-2.9148,-0.086437,0.10171,-0.09499,-34.44,0.12,44.7
8.5263,-4.3313,-2.9965,-0.087048,0.10629,-0.099876,-34.44,0.12,44.64
8.7034,-4.2495,-2.9011,-0.093462,0.082161,-0.10415,-34.92,-0.18,44.58
8.7443,-4.2495,-2.9284,-0.092546,0.040317,-0.10171,-34.92,-0.3,44.64
8.7443,-3.9771,-2.8467,-0.097128,0.012217,-0.0956,-34.98,-0.36,44.64
8.6353,-4.0316,-2.9556,-0.083994,-0.062003,-0.070555,-35.04,-0.42,44.46
8.54,-4.018,-2.9011,-0.058338,-0.085827,-0.043677,-35.1,-0.48,44.34
8.54,-4.0589,-3.0101,-0.052534,-0.098349,-0.018937,-35.04,-0.66,44.34
8.4719,-4.127,-2.9556,-0.035125,-0.090408,-0.002138,-35.16,-0.84,44.28
8.5536,-4.127,-3.0646,-0.039706,-0.061697,-0.0048869,-35.16,-0.9,44.16
8.5944,-4.0044,-3.051,-0.044593,-0.054672,0.002138,-35.22,-0.96,44.1
8.6489,-4.1678,-3.0101,-0.03879,-0.052229,0.0048869,-35.22,-0.96,44.1
8.6081,-4.127,-3.0101,-0.028405,-0.068417,0.0045815,-35.16,-1.26,44.28
8.6353,-4.2223,-3.0237,-0.040928,-0.081551,0.011606,-35.22,-1.26,44.34
8.54,-4.2359,-3.0646,-0.042455,-0.08491,0.0030543,-34.98,-1.26,44.4
8.5672,-4.2223,-3.1191,-0.059559,-0.12217,-0.0094684,-34.98,-1.08,44.4
8.5263,-4.1406,-3.1872,-0.068722,-0.11515,-0.011606,-35.04,-1.2,44.4
8.4991,-4.0997,-3.1872,-0.072082,-0.10354,-0.011301,-35.04,-1.26,44.4
8.54,-3.9908,-3.2689,-0.076664,-0.079107,-0.0024435,-34.98,-1.14,44.34
8.4991,-3.9908,-3.1872,-0.064752,-0.06017,-0.0039706,-34.98,-1.2,44.46
8.4991,-4.0044,-3.2416,-0.059254,-0.034514,0.0012217,-34.86,-1.26,44.46
8.4582,-4.0316,-3.2008,-0.036041,-0.020769,0.011301,-34.98,-1.38,44.52
8.5127,-4.127,-3.1735,-0.03879,0.0082467,0.0085521,-34.98,-1.44,44.52
8.431,-4.0452,-3.2553,-0.046731,0.012523,-0.0018326,-34.92,-1.38,44.4
8.4446,-4.1406,-3.2008,-0.037568,0.054367,-0.028405,-35.04,-1.32,44.46
8.4582,-4.0589,-3.2689,-0.032681,0.072082,-0.043066,-35.04,-1.2,44.34
8.4719,-4.0452,-3.2144,-0.029627,0.09499,-0.040012,-35.1,-1.14,44.4
8.6081,-3.9771,-3.1327,-0.016799,0.099876,-0.035125,-34.98,-1.38,44.4
8.6489,-3.9771,-3.1599,-0.021991,0.097738,-0.010385,-34.92,-1.44,44.46
8.5808,-3.9363,-3.1054,-0.013439,0.081551,0.010385,-35.04,-1.5,44.34
8.7715,-4.0589,-3.051,-0.0030543,0.047953,0.028405,-35.28,-1.62,44.4
8.7034,-4.0589,-3.0918,-0.0097738,-0.0079412,0.03207,-35.22,-1.62,44.46
8.6353,-4.1542,-2.9965,-0.0042761,-0.033598,0.031154,-35.28,-1.62,44.64
8.6081,-3.9908,-2.9829,-0.01069,-0.064752,0.024435,-35.34,-1.44,44.58
8.5808,-4.0044,-3.0646,-0.0036652,-0.07422,0.047037,-35.4,-1.5,44.58
8.5672,-3.9908,-3.0237,0.0018326,-0.078802,0.05284,-35.4,-1.44,44.64
8.5127,-4.0589,-2.9829,0.03146,-0.086743,0.099266,-35.4,-1.38,44.64
8.5127,-4.0044,-2.9965,0.027184,-0.10629,0.12401,-35.4,-1.44,44.64
8.6217,-4.0997,-3.1599,0.038179,-0.13256,0.14569,-35.28,-1.5,44.76
8.5536,-4.0589,-3.2961,0.052229,-0.15974,0.17257,-35.22,-1.56,44.88
8.4038,-4.127,-3.337,0.04948,-0.15119,0.17257,-35.16,-1.44,45.06
8.4719,-4.1542,-3.2553,0.050396,-0.14844,0.16982,-35.04,-1.38,45.18
8.4174,-4.2495,-3.2689,0.054978,-0.11515,0.14355,-34.68,-1.26,45.3
8.322,-4.2904,-3.2825,0.04215,-0.081856,0.13042,-34.74,-1.2,45.24
8.2539,-4.304,-3.2689,0.028405,-0.039706,0.11881,-34.68,-1.2,45.18
8.3765,-4.3177,-3.2961,0.026878,-0.018631,0.12889,-34.44,-1.14,45.3
8.4855,-4.3721,-3.2825,0.0045815,-0.01405,0.11759,-34.26,-0.9,45.36
8.4582,-4.3449,-3.2689,0.007025,-0.018631,0.12156,-34.08,-0.9,45.54
8.3765,-4.3585,-3.2008,0.007025,-0.021991,0.12523,-33.84,-0.84,45.72
8.3629,-4.3858,-3.2553,0.019853,-0.025656,0.12553,-33.66,-0.6,45.78
8.322,-4.4675,-3.2689,0.019242,-0.023824,0.11759,-33.54,-0.36,45.78
8.2267,-4.5356,-3.3506,0.0027489,0.000916,0.10232,-33.6,-0.12,45.78
8.2539,-4.4811,-3.3097,-0.0088575,0.02138,0.09896,-33.36,0.06,45.78
8.322,-4.4402,-3.2825,-0.01405,0.045509,0.10354,-33.0,0.18,45.72
8.4174,-4.3994,-3.1735,-0.011606,0.047342,0.10171,-32.7,0.48,45.9
8.4855,-4.3994,-3.1872,-0.012523,0.022907,0.11454,-32.76,0.6,45.84
8.4991,-4.3858,-3.1054,0.0030543,-0.0097738,0.11515,-32.82,0.6,45.9
8.4174,-4.5083,-3.1599,0.0061087,-0.053451,0.10537,-32.88,0.66,45.9
8.4719,-4.5764,-3.1872,0.0045815,-0.093768,0.092852,-32.82,0.72,45.9
8.3493,-4.5901,-3.228,-0.0076358,-0.1179,0.06689,-33.06,0.78,45.96
8.1722,-4.4947,-3.1872,-0.0061087,-0.11332,0.053451,-33.0,0.78,45.78
8.1586,-4.5764,-3.2961,0.0048869,-0.098655,0.060476,-33.24,0.96,45.84
8.145,-4.5764,-3.2825,0.0036652,-0.064141,0.060781,-33.54,1.08,45.66
8.0496,-4.5492,-3.337,0.000611,-0.01741,0.065973,-33.54,1.08,45.9
8.1995,-4.6445,-3.3097,-0.0061087,0.037568,0.057116,-33.24,1.26,45.78
8.2131,-4.6854,-3.3097,-0.016799,0.051313,0.04948,-33.24,1.38,45.78
8.2539,-4.699,-3.2825,-0.026573,0.059559,0.036041,-33.18,1.32,45.84
8.2812,-4.6718,-3.3506,-0.052229,0.063835,0.015577,-33.18,1.32,45.78
8.2812,-4.5901,-3.2825,-0.054978,0.083994,0.014966,-33.48,1.32,45.72
8.3084,-4.4811,-3.2825,-0.051007,0.088881,0.012523,-33.36,1.26,45.72
8.322,-4.5764,-3.2416,-0.040012,0.07758,0.022907,-33.24,1.38,45.72
8.2267,-4.5628,-3.1735,-0.040012,0.076053,0.021991,-33.42,1.38,45.96
8.2812,-4.6582,-3.1599,-0.041233,0.071471,0.0085521,-33.42,1.32,46.02
8.2812,-4.699,-3.2553,-0.048258,0.068417,-0.0082467,-33.3,1.5,46.02
8.1995,-4.7399,-3.2416,-0.064446,0.07422,-0.034208,-33.36,1.38,45.96
8.1995,-4.7399,-3.2144,-0.083689,0.1011,-0.062919,-33.48,1.5,45.9
8.1722,-4.6582,-3.1872,-0.10782,0.13836,-0.075442,-33.6,1.56,46.08
8.2948,-4.6445,-3.1463,-0.12431,0.17837,-0.09163,-33.72,1.44,45.96
8.4719,-4.522,-3.1054,-0.14172,0.20036,-0.098349,-33.84,1.5,45.9
8.5263,-4.4811,-3.0918,-0.14325,0.18754,-0.090408,-33.84,1.44,45.78
8.4991,-4.4811,-3.0918,-0.14783,0.1573,-0.097128,-33.78,1.32,45.72
8.5536,-4.3994,-3.051,-0.14997,0.1179,-0.092546,-33.66,1.38,45.6
8.5808,-4.3721,-2.9556,-0.11209,0.047037,-0.087965,-33.66,1.26,45.6
8.5808,-4.3449,-2.9829,-0.10751,0.020159,-0.079718,-33.9,1.26,45.48
8.4174,-4.2223,-3.0101,-0.091935,-0.0064141,-0.061697,-33.96,1.08,45.42
8.3901,-4.304,-2.9965,-0.055894,-0.018937,-0.051007,-34.14,0.9,45.42
8.4174,-4.2768,-3.1327,-0.040012,-0.018326,-0.027489,-34.14,0.78,45.48
8.3765,-4.127,-3.1872,-0.037568,0.018021,-0.011606,-34.26,0.6,45.36
8.3901,-4.1814,-3.1599,-0.036652,0.082161,-0.0042761,-34.2,0.48,45.36
8.4582,-4.3449,-3.051,-0.028711,0.096517,-0.0042761,-34.44,0.36,45.3
8.4991,-4.3449,-3.051,-0.034208,0.11729,-0.013744,-34.62,0.36,45.24
8.5127,-4.3858,-3.0373,-0.030238,0.11515,-0.030849,-34.56,0.36,45.36
8.5536,-4.4947,-2.8603,-0.05681,0.072082,-0.048869,-34.56,0.18,45.24
8.4855,-4.4675,-2.7377,-0.064752,0.034819,-0.053451,-34.8,0.24,45.18
8.54,-4.3177,-2.9965,-0.053145,0.015882,-0.060781,-34.92,0.18,45.0
8.431,-4.2223,-3.0646,-0.047647,0.019853,-0.040623,-34.92,0.18,44.82
8.3901,-4.2223,-3.1327,-0.056505,0.068111,-0.037568,-34.92,0.06,44.7
8.3493,-4.0997,-3.0646,-0.049786,0.12553,-0.045815,-34.98,0.12,44.52
8.6217,-4.0997,-2.9965,-0.055589,0.16493,-0.046426,-35.16,0.12,44.46
8.5808,-4.2495,-2.9011,-0.045204,0.18021,-0.079718,-35.22,-0.12,44.52
8.717,-4.2495,-2.8739,-0.060476,0.15394,-0.069028,-35.28,-0.24,44.46
8.7443,-4.1678,-2.833,-0.04948,0.10263,-0.073304,-35.16,-0.24,44.34
8.6762,-4.2359,-2.833,-0.038485,0.066584,-0.070555,-35.04,-0.42,44.28
8.6217,-4.1678,-2.7377,-0.036346,0.055283,-0.067806,-35.22,-0.54,44.16
8.4719,-4.1542,-2.8058,-0.022907,0.072082,-0.051007,-35.52,-0.6,44.16
8.6081,-4.0861,-2.833,-0.016188,0.080023,-0.024129,-35.46,-0.72,44.28
8.7306,-4.0589,-2.7649,-0.010079,0.076358,0.0024435,-35.58,-0.72,44.28
8.6898,-4.0861,-2.8603,-0.0045815,0.07422,0.0085521,-35.58,-1.02,44.34
8.6762,-4.0316,-2.7649,-0.0064141,0.082772,0.011606,-35.64,-0.96,44.4
8.7443,-4.1133,-2.6968,0.002138,0.074526,0.011301,-35.7,-1.08,44.28
8.7034,-4.1951,-2.6696,0.0051924,0.047953,-0.012217,-35.64,-0.96,44.1
8.6489,-4.2087,-2.7649,-0.0051924,0.041844,-0.013134,-35.7,-0.9,43.98
8.7034,-4.1406,-2.7377,-0.002138,0.045204,-0.024435,-35.82,-0.84,43.98
8.6489,-4.2087,-2.7377,-0.018021,0.030238,-0.020464,-36.06,-0.96,43.74
8.6353,-4.1814,-2.8058,-0.031154,0.029016,-0.0018326,-36.24,-0.96,43.62
8.6217,-4.127,-2.6968,-0.03879,0.040012,0.0015272,-36.24,-0.96,43.56
8.6762,-4.0997,-2.6832,-0.058338,0.046426,0.0051924,-36.12,-0.96,43.44
8.9349,-3.8954,-2.6423,-0.051924,0.0064141,0.01069,-36.36,-0.96,43.32
8.9349,-3.9635,-2.6015,-0.04612,-0.068722,0.025962,-36.36,-0.96,43.2
8.7987,-4.0861,-2.6696,-0.014661,-0.15791,0.058948,-36.3,-0.72,43.08
8.6353,-4.0589,-2.7922,-0.012217,-0.17135,0.060476,-36.3,-0.72,43.08
8.5127,-4.127,-2.8058,-0.0027489,-0.14019,0.065057,-36.36,-0.84,43.2
8.5127,-4.2495,-2.833,-0.016493,-0.060476,0.07086,-36.42,-0.96,43.26
8.5808,-4.3449,-2.8194,-0.02138,-0.03146,0.053451,-36.48,-0.9,43.26
8.7034,-4.3858,-2.6968,-0.044899,-0.05681,0.03207,-36.36,-0.96,43.2
8.6489,-4.3313,-2.7104,-0.073915,-0.12889,0.025351,-36.3,-0.96,43.38
8.717,-4.1814,-2.833,-0.071471,-0.16127,0.026267,-36.18,-0.9,43.44
8.8941,-4.1542,-2.9011,-0.068111,-0.18631,0.016799,-36.24,-0.84,43.38
8.6762,-3.9635,-2.8467,-0.065363,-0.2135,0.028405,-36.06,-0.78,43.62
8.5536,-3.9499,-2.8875,-0.044288,-0.2251,0.075136,-36.06,-0.66,43.68
8.5536,-3.9635,-2.9284,-0.02138,-0.22174,0.098349,-36.0,-0.78,43.86
8.5127,-3.8682,-3.0646,0.0012217,-0.21441,0.12706,-35.82,-0.6,43.86
8.5944,-4.0589,-3.1599,0.014661,-0.20036,0.13286,-35.76,-0.66,43.92
8.4174,-4.2495,-3.1735,0.015577,-0.16952,0.12981,-35.52,-0.72,44.04
8.2267,-4.4266,-3.1872,0.0076358,-0.13073,0.11179,-35.52,-0.66,43.98
8.2812,-4.4811,-3.1191,-0.0088575,-0.070555,0.071777,-35.34,-0.6,44.04
8.4719,-4.3313,-3.1872,-0.019548,-0.045204,0.042761,-35.28,-0.42,44.1
8.4174,-4.2223,-3.1872,-0.022297,-0.040928,0.05284,-35.28,-0.3,44.34
8.4174,-4.2495,-3.2144,-0.01741,-0.040928,0.062003,-35.1,-0.24,44.46
8.4719,-4.1814,-3.1735,-0.011606,-0.03207,0.078191,-34.8,-0.12,44.76
8.4719,-4.2768,-3.0646,0.0058032,-0.04612,0.09896,-34.68,-0.24,44.7
8.6081,-4.3449,-3.0646,0.012523,-0.06353,0.10446,-34.68,-0.18,44.76
8.5808,-4.5083,-3.1599,0.021991,-0.096822,0.096211,-34.56,-0.12,44.76
8.5127,-4.4266,-3.0646,0.0079412,-0.10843,0.06353,-34.62,-0.12,44.88
8.3493,-4.4675,-3.1054,-0.0085521,-0.10996,0.051313,-34.68,0.12,44.76
8.2403,-4.4811,-3.2825,-0.028711,-0.08827,0.030849,-34.56,0.18,44.82
8.3084,-4.5083,-3.3097,-0.025045,-0.073609,0.030238,-34.44,0.12,44.94
8.2812,-4.4811,-3.3506,-0.045204,-0.015882,0.013439,-34.44,0.06,45.06
8.1586,-4.3721,-3.337,-0.054062,0.035125,0.0018326,-34.26,0.06,45.42
8.3084,-4.3177,-3.2553,-0.058338,0.095295,-0.0045815,-34.2,0.06,45.42
8.2403,-4.2904,-3.2144,-0.041539,0.16432,0.000916,-34.2,0.18,45.36
8.3493,-4.3858,-3.2144,-0.036041,0.18234,0.002138,-34.14,0.18,45.3
8.3765,-4.3858,-3.2008,-0.029932,0.21777,-0.0064141,-34.08,0.24,45.42
8.3493,-4.413,-3.1735,-0.019853,0.24771,-0.016799,-34.2,0.3,45.3
8.4174,-4.3858,-3.0646,-0.023213,0.25381,-0.015882,-34.38,0.24,45.24
8.4582,-4.304,-3.0101,-0.025656,0.25779,-0.020464,-34.38,0.24,45.18
8.5944,-4.3449,-2.8875,-0.02474,0.24832,-0.007025,-34.44,0.3,45.12
8.5672,-4.2904,-2.8058,-0.023824,0.22327,-0.018021,-34.44,0.42,45.12
8.54,-4.3449,-2.9011,-0.025656,0.22327,-0.02138,-34.62,0.42,45.0
8.5672,-4.3313,-2.7922,-0.021991,0.22205,-0.034819,-34.56,0.6,44.94
8.6217,-4.4402,-2.7922,-0.032376,0.21044,-0.036957,-34.8,0.6,44.46
8.6081,-4.3994,-2.7786,-0.045509,0.18509,-0.054978,-34.92,0.54,44.16
8.6217,-4.2768,-2.6968,-0.058032,0.16952,-0.051618,-35.04,0.54,43.98
8.6489,-4.1951,-2.6968,-0.052534,0.15149,-0.040012,-35.34,0.54,43.86
8.6353,-4.1951,-2.6423,-0.044288,0.13439,-0.031765,-35.34,0.54,43.74
8.6217,-4.2223,-2.6696,-0.03207,0.11179,-0.014966,-35.4,0.54,43.74
8.6353,-4.2904,-2.6968,-0.029016,0.11668,-0.012217,-35.52,0.48,43.62
8.6898,-4.2359,-2.6151,-0.037568,0.12095,-0.0048869,-35.64,0.54,43.62
8.7987,-4.1542,-2.6151,-0.03146,0.1295,-0.010996,-35.76,0.48,43.56
8.7851,-4.1406,-2.6287,-0.014661,0.10293,-0.0061087,-35.82,0.42,43.38
8.7715,-4.127,-2.5198,-0.000611,0.085827,-0.0012217,-35.88,0.24,43.26
8.826,-4.0589,-2.4925,0.0058032,0.07758,-0.0027489,-36.18,0.18,43.2
8.6353,-4.3177,-2.547,0.0058032,0.074831,-0.020769,-36.24,0.12,43.08
8.7443,-4.2632,-2.4789,0.0030543,0.06353,-0.0030543,-36.18,0.12,43.02
8.7851,-4.2632,-2.4653,-0.0094684,0.039095,0.000916,-36.36,-0.06,42.96
8.7715,-4.2223,-2.4789,-0.0088575,0.036041,-0.0054978,-36.3,-0.18,42.96
8.7715,-4.2495,-2.5061,-0.021075,0.027794,-0.015577,-36.48,-0.12,42.84
8.6762,-4.3177,-2.4789,-0.0281,0.019242,-0.016799,-36.6,-0.12,42.84
8.7034,-4.2768,-2.4789,-0.040623,0.02138,-0.02138,-36.54,-0.3,42.66
8.6625,-4.2495,-2.5606,-0.055283,0.024435,-0.019853,-36.6,-0.24,42.54
8.6898,-4.1814,-2.438,-0.068722,0.020464,-0.027489,-36.72,-0.42,42.3
8.7443,-4.2087,-2.5198,-0.07086,0.018021,-0.0036652,-36.72,-0.36,42.3
8.826,-4.1542,-2.5061,-0.0562,0.000611,-0.0012217,-36.78,-0.24,42.3
8.7987,-4.1542,-2.547,-0.055894,-0.0054978,0.0027489,-36.66,-0.3,42.3
8.7715,-4.1542,-2.4653,-0.031765,-0.041844,-0.0048869,-36.72,-0.42,42.3
8.7851,-4.1542,-2.4653,-0.031765,-0.04215,-0.007025,-36.78,-0.3,42.24
8.6898,-4.2223,-2.5061,-0.031765,-0.033598,-0.0027489,-36.72,-0.24,42.36
8.7443,-4.1814,-2.5061,-0.027184,-0.043066,-0.0054978,-36.9,-0.18,42.12
8.7851,-4.1678,-2.4789,-0.016188,-0.054978,0.0015272,-36.84,-0.12,42.24
8.717,-4.1814,-2.4789,-0.017715,-0.065973,0.0073304,-36.78,-0.24,42.18
8.6762,-4.2223,-2.5742,-0.01741,-0.053451,0.014355,-36.6,-0.12,42.3
8.6489,-4.1951,-2.5198,-0.018021,-0.032987,0.016493,-36.66,-0.3,42.3
8.6625,-4.1951,-2.656,-0.026573,0.000916,0.019242,-36.66,-0.36,42.48
8.6762,-4.1814,-2.5061,-0.027794,0.036957,0.0058032,-36.66,-0.36,42.42
8.6625,-4.2223,-2.5334,-0.032987,0.042455,-0.0048869,-36.54,-0.36,42.48
8.717,-4.1542,-2.4789,-0.031765,0.034819,-0.0045815,-36.66,-0.24,42.54
8.7851,-4.127,-2.5198,-0.041844,0.000916,0.010385,-36.6,-0.18,42.42
9.0167,-4.1406,-2.4789,-0.040012,-0.058948,0.036652,-36.36,-0.12,42.6
8.9077,-4.1542,-2.4517,-0.02138,-0.15882,0.063835,-36.36,-0.24,42.54
8.6762,-4.1406,-2.547,-0.016188,-0.17013,0.072388,-36.42,-0.42,42.72
8.6081,-4.1406,-2.6287,-0.0045815,-0.18021,0.072998,-36.42,-0.54,42.66
8.6353,-4.1951,-2.6423,0.0027489,-0.1631,0.062919,-36.42,-0.54,42.66
8.5672,-4.2087,-2.6696,-0.0018326,-0.13225,0.055589,-36.6,-0.54,42.84
8.5808,-4.3313,-2.7241,-0.012828,-0.10537,0.040928,-36.66,-0.48,42.78
8.6489,-4.3449,-2.6968,-0.023518,-0.089186,0.03146,-36.6,-0.42,42.9
8.6353,-4.2768,-2.7377,-0.035736,-0.086743,0.0281,-36.48,-0.48,43.2
8.7034,-4.2087,-2.7241,-0.043371,-0.10049,0.031154,-36.42,-0.54,43.26
8.6353,-4.2223,-2.7513,-0.041539,-0.10171,0.025045,-36.24,-0.66,43.32
8.4991,-4.2768,-2.833,-0.047342,-0.072388,0.026267,-36.42,-0.72,43.5
8.5127,-4.2904,-2.9284,-0.064446,-0.03543,0.01741,-36.42,-0.6,43.56
8.4174,-4.2904,-2.8467,-0.082772,0.015577,0.0097738,-36.36,-0.6,43.74
8.5127,-4.3177,-2.9284,-0.1011,0.07086,-0.0015272,-36.18,-0.48,43.86
8.6353,-4.2495,-2.7649,-0.10354,0.075136,-0.009163,-36.12,-0.42,43.98
8.6898,-4.1814,-2.7241,-0.092546,0.076053,-0.0073304,-36.0,-0.54,43.98
8.7851,-4.1406,-2.656,-0.070555,0.057727,-0.0064141,-35.82,-0.42,43.86
8.7306,-4.2904,-2.7649,-0.062919,0.024129,-0.0039706,-35.58,-0.48,43.86
8.6353,-4.127,-2.6696,-0.056505,0.02138,-0.014355,-35.52,-0.54,43.8
8.5127,-4.0997,-2.7649,-0.051313,0.054367,0.0033598,-35.76,-0.48,43.8
8.5263,-4.0861,-2.8058,-0.048564,0.075136,0.0030543,-35.94,-0.42,43.68
8.54,-4.0997,-2.7104,-0.043066,0.11668,0.020769,-36.0,-0.42,43.68
8.6762,-4.1133,-2.7513,-0.03879,0.14264,0.041539,-35.94,-0.54,43.62
8.7306,-4.2087,-2.6423,-0.036652,0.13103,0.049175,-36.0,-0.78,43.56
8.717,-4.1678,-2.656,-0.039095,0.1182,0.051924,-36.0,-0.78,43.44
8.4991,-4.2223,-2.656,-0.035125,0.1179,0.047647,-35.94,-0.84,43.14
8.5944,-4.3177,-2.6696,-0.029932,0.15485,0.068722,-35.94,-0.84,42.96
8.6353,-4.2904,-2.6423,-0.035736,0.16707,0.081856,-36.0,-0.66,42.78
8.5536,-4.2223,-2.6015,-0.039401,0.18601,0.093157,-36.12,-0.78,42.72
8.6762,-4.1814,-2.4653,-0.035125,0.21411,0.096822,-36.12,-0.78,42.72
8.7306,-4.3449,-2.4517,-0.043371,0.1967,0.098655,-36.18,-0.78,42.66
8.6625,-4.3313,-2.4244,-0.043371,0.17898,0.10079,-36.0,-0.66,42.42
8.6353,-4.3177,-2.4517,-0.049786,0.20097,0.10537,-36.0,-0.66,42.42
8.6217,-4.2904,-2.3972,-0.055589,0.21289,0.12065,-36.0,-0.72,42.36
8.6762,-4.3721,-2.4108,-0.064752,0.23335,0.13011,-36.12,-0.48,42.12
8.6898,-4.2904,-2.3291,-0.060476,0.24099,0.13806,-36.36,-0.36,42.0
8.7306,-4.2223,-2.2882,-0.056505,0.25717,0.14752,-36.42,-0.24,42.06
8.826,-4.3177,-2.1793,-0.050091,0.25015,0.15211,-36.48,-0.24,42.06
8.8124,-4.304,-2.1248,-0.048869,0.20586,0.15913,-36.6,-0.24,42.18
8.826,-4.3585,-2.0975,-0.05284,0.16493,0.16035,-36.72,-0.12,42.24
8.8941,-4.3721,-2.1248,-0.041233,0.15302,0.16035,-36.78,-0.12,42.06
8.7987,-4.3177,-2.0294,-0.036346,0.082772,0.16952,-36.96,-0.18,41.88
8.8124,-4.4539,-2.0975,-0.018326,0.06017,0.16341,-36.9,0.12,41.76
8.717,-4.4402,-2.1656,-0.02138,0.033292,0.16952,-36.96,0.12,41.7
8.6081,-4.413,-2.1248,-0.014966,-0.000611,0.18173,-37.02,0.18,41.52
8.6489,-4.4402,-2.0567,-0.0082467,0.009163,0.20189,-37.02,0.36,41.4
8.5808,-4.5083,-2.152,-0.0076358,0.022297,0.21197,-36.96,0.42,41.4
8.6353,-4.6445,-2.2065,-0.0058032,0.03543,0.21136,-36.6,0.48,41.4
8.6898,-4.699,-2.0567,-0.020769,0.029016,0.21716,-36.66,0.48,41.16
8.7987,-4.6582,-2.0022,-0.0097738,-0.0015272,0.22327,-36.72,0.72,40.98
8.7851,-4.7944,-2.1929,0.016493,-0.057421,0.20739,-36.6,0.84,40.8
8.7034,-4.808,-2.0567,0.015882,-0.076053,0.20006,-36.66,0.84,40.8
8.5808,-4.7535,-2.1656,0.012217,-0.10721,0.18967,-36.72,1.02,40.8
8.3765,-4.7126,-2.152,0.019548,-0.098044,0.20983,-36.72,1.32,40.62
8.3493,-4.8352,-2.1112,0.029016,-0.062614,0.21961,-36.66,1.32,40.56
8.3357,-4.9033,-2.152,0.014661,-0.040317,0.21533,-36.54,1.56,40.38
8.5808,-4.9033,-2.2474,0.019548,-0.044593,0.19426,-36.48,1.86,40.32
8.5808,-4.9306,-2.3155,0.016188,-0.058643,0.17471,-36.42,1.98,40.32
8.54,-4.9306,-2.1793,0.013439,-0.086743,0.15944,-36.48,2.1,40.44
8.5127,-5.0395,-2.152,0.021686,-0.12278,0.12798,-36.48,2.28,40.32
8.54,-5.0531,-2.2201,0.022907,-0.15944,0.11179,-36.24,2.46,40.2
8.5263,-5.0804,-2.261,0.015577,-0.18784,0.081856,-36.24,2.52,40.38
8.3901,-5.0804,-2.2337,0.007025,-0.21838,0.043982,-36.12,2.76,40.32
8.322,-5.0531,-2.3155,0.0045815,-0.25381,0.037874,-35.94,2.88,40.38
8.322,-5.0123,-2.3155,0.0024435,-0.23946,0.018021,-35.88,2.88,40.44
8.2267,-5.0395,-2.5061,-0.0015272,-0.2138,0.010079,-35.64,3.0,40.44
8.0905,-5.0259,-2.4517,-0.0088575,-0.17318,-0.0079412,-35.4,3.24,40.74
8.1586,-5.0259,-2.5334,-0.013744,-0.13011,-0.023213,-35.46,3.24,40.98
8.1313,-4.9987,-2.5334,-0.026573,-0.076053,-0.046426,-35.4,3.18,41.22
8.0905,-4.8352,-2.4517,-0.025351,-0.013134,-0.072082,-35.52,3.3,41.28
8.0224,-4.9578,-2.4653,-0.042455,0.08491,-0.1179,-35.34,3.3,41.22
8.2131,-4.9578,-2.4653,-0.047037,0.13683,-0.11515,-35.34,3.42,41.4
8.2267,-4.8625,-2.4789,-0.0562,0.19273,-0.11942,-35.28,3.6,41.64
8.4174,-4.8352,-2.3563,-0.062614,0.21258,-0.13775,-35.22,3.6,41.58
8.4991,-4.8488,-2.4244,-0.074831,0.18204,-0.16982,-35.34,3.6,41.58
8.5127,-4.9033,-2.2065,-0.072693,0.15791,-0.19212,-35.4,3.6,41.52
8.6081,-4.9306,-2.1112,-0.068722,0.10965,-0.20556,-35.28,3.6,41.52
8.6353,-4.8897,-2.1248,-0.071777,0.067195,-0.22297,-35.4,3.48,41.7
8.5536,-4.808,-2.2337,-0.049175,0.034819,-0.23671,-35.46,3.24,41.7
8.5536,-4.7944,-2.2474,-0.053451,0.036652,-0.24129,-35.52,3.0,41.7
8.5672,-4.8488,-2.3563,-0.06353,0.03543,-0.23579,-35.4,2.82,41.58
8.7306,-4.6582,-2.2882,-0.082161,0.023518,-0.21808,-35.4,2.4,41.4
8.7987,-4.522,-2.2201,-0.074526,0.015577,-0.25351,-35.58,2.28,41.34
8.7987,-4.4811,-2.1929,-0.078802,-0.021075,-0.27428,-35.64,2.04,41.1
9.1665,-4.4539,-2.1112,-0.064446,-0.1182,-0.28039,-36.06,1.5,40.92
9.1393,-4.4402,-2.0839,-0.056505,-0.23091,-0.28863,-36.18,1.32,40.92
9.1393,-4.4266,-2.0839,-0.026267,-0.36988,-0.32895,-36.18,1.02,41.22
8.7851,-4.304,-2.1929,0.016493,-0.45876,-0.3488,-36.24,0.96,41.22
8.6353,-4.3585,-2.3291,0.031765,-0.49358,-0.33048,-36.42,0.78,41.34
8.5672,-4.3585,-2.5334,0.025045,-0.51496,-0.29016,-36.48,0.6,41.4
8.2403,-4.1814,-2.8194,0.000611,-0.4664,-0.24465,-36.54,0.3,41.58
8.0905,-4.0725,-2.942,-0.020464,-0.35949,-0.18265,-36.48,0.36,41.58
8.1177,-3.8954,-2.9692,-0.061392,-0.24038,-0.12278,-36.6,0.3,41.82
8.6353,-3.8001,-2.8194,-0.098349,-0.14752,-0.015882,-36.72,0.06,42.24
8.8668,-3.8273,-2.7104,-0.096211,-0.1628,0.043982,-36.6,0.06,42.48
8.8124,-3.7728,-2.7377,-0.069639,-0.18601,0.049786,-36.72,-0.12,42.72
8.7034,-3.9227,-2.9011,0.0045815,-0.24129,0.090713,-36.36,-0.3,43.2
8.4991,-3.8137,-2.7922,0.023213,-0.24221,0.098044,-36.24,-0.36,43.44
8.5808,-4.0316,-2.7377,0.03207,-0.1909,0.071471,-36.24,-0.48,43.5
8.5127,-4.4811,-2.8194,0.002138,-0.12737,-0.026573,-36.06,-0.96,43.8
8.717,-4.7671,-2.9556,-0.0036652,-0.18448,-0.045509,-35.82,-1.02,43.92
8.7034,-4.9306,-3.0782,-0.0067195,-0.23427,-0.05681,-35.76,-1.14,43.98
8.3765,-4.3994,-3.1599,-0.11332,-0.34636,-0.057116,-35.7,-0.96,44.1
8.1995,-3.9771,-3.0646,-0.14355,-0.3036,-0.032376,-35.7,-1.14,44.22
8.2676,-3.6775,-3.4459,-0.13286,-0.22999,0.01405,-35.7,-1.02,44.28
8.5127,-3.909,-3.5685,-0.10049,-0.17074,0.096211,-35.52,-0.96,44.28
8.5127,-3.909,-3.5685,-0.12553,-0.15272,0.084605,-35.52,-0.96,44.28
8.5127,-3.909,-3.5685,-0.12553,-0.15272,0.084605,-35.52,-0.96,44.28
8.4719,-4.1814,-3.4187,-0.12584,-0.062919,0.089186,-35.04,-0.9,44.7
8.3765,-4.0316,-3.2416,-0.11301,-0.016188,0.075747,-35.04,-0.84,44.7
8.3765,-3.9499,-3.2553,-0.092546,0.045204,0.026267,-34.98,-0.84,44.64
8.6217,-4.0861,-3.3097,-0.079412,0.067501,0.013439,-34.8,-0.72,44.58
8.6081,-4.127,-3.2553,-0.06353,0.043982,0.012217,-34.74,-0.54,44.52
8.5808,-4.0861,-3.2825,-0.045204,0.0097738,0.0024435,-34.86,-0.54,44.34
8.3629,-4.0997,-3.3097,-0.010079,-0.020769,-0.015882,-34.68,-0.6,44.46
8.431,-4.1814,-3.2961,0.0030543,-0.01741,-0.026267,-34.74,-0.72,44.58
8.4174,-4.2223,-3.337,-0.02138,-0.0042761,-0.023213,-34.68,-0.66,44.7
8.5127,-4.127,-3.3778,-0.036346,0.01741,-0.027184,-34.68,-0.72,44.7
8.4991,-4.0861,-3.337,-0.044899,0.022907,-0.03879,-34.44,-0.66,44.82
8.5127,-4.0316,-3.2825,-0.036652,0.024129,-0.032376,-34.68,-0.54,44.76
8.5672,-4.0044,-3.2144,-0.045815,0.012828,-0.024129,-34.8,-0.3,44.7
8.5263,-3.9771,-3.2144,-0.042455,-0.011301,-0.0039706,-34.92,-0.3,44.7
8.4719,-3.9227,-3.3778,-0.031765,-0.016188,0.0033598,-34.98,-0.3,44.82
8.4719,-4.2223,-3.3234,-0.022907,-0.012828,0.0067195,-34.98,-0.24,44.94
8.5536,-4.1814,-3.2553,-0.037263,-0.0024435,-0.0051924,-35.04,-0.36,45.0
8.5808,-4.0997,-3.3097,-0.040317,-0.015577,-0.0097738,-34.92,-0.3,45.18
8.6081,-4.1133,-3.337,-0.051924,-0.039401,-0.011912,-34.98,-0.18,45.24
8.5263,-4.0997,-3.3642,-0.067195,-0.061392,-0.029627,-34.98,-0.3,45.3
8.4038,-4.0316,-3.3778,-0.068722,-0.043982,-0.031765,-34.92,-0.42,45.24
8.4855,-4.0044,-3.2416,-0.073609,-0.041233,-0.011606,-34.86,-0.54,45.18
8.4719,-3.9908,-3.3506,-0.057421,-0.046731,-0.0064141,-34.98,-0.66,45.24
8.4446,-4.0589,-3.4596,-0.067806,-0.049175,0.0039706,-34.8,-0.66,45.36
8.4174,-4.0316,-3.4323,-0.053756,-0.037263,0.0054978,-34.74,-0.78,45.36
8.4582,-3.9227,-3.4187,-0.050396,0.0012217,-0.013134,-34.56,-0.96,45.36
8.4991,-3.909,-3.514,-0.053145,0.040928,-0.029627,-34.62,-0.84,45.3
8.6081,-3.8409,-3.5413,-0.069028,0.057116,-0.047647,-34.74,-0.9,45.42
8.5536,-3.8682,-3.3097,-0.061087,0.07025,-0.052229,-34.62,-1.14,45.36
8.4719,-3.9635,-3.2825,-0.064446,0.072388,-0.085216,-34.62,-1.02,45.36
8.4991,-3.9771,-3.2553,-0.047037,0.083383,-0.1011,-34.44,-1.2,45.24
8.5808,-3.8409,-3.2825,-0.047953,0.073609,-0.094379,-34.56,-1.26,45.6
8.5808,-3.9635,-3.2416,-0.043066,0.036346,-0.0562,-34.62,-1.2,45.66
8.5127,-3.909,-3.2825,-0.043066,0.019242,-0.053756,-34.74,-1.2,45.54
8.4855,-3.9227,-3.1599,-0.025656,-0.000305,-0.026267,-34.92,-1.38,45.18
8.5263,-3.9227,-3.1463,-0.014661,-0.0030543,-0.009163,-35.04,-1.62,45.06
8.5536,-3.909,-3.1599,-0.0097738,-0.014355,0.000305,-35.28,-1.62,45.0
8.5127,-3.8682,-3.3097,0.0048869,-0.039401,0.030849,-35.4,-1.86,45.06
8.6081,-3.7865,-3.337,0.0012217,-0.040317,0.039401,-35.28,-2.04,45.0
8.5127,-3.8273,-3.2961,0.0064141,-0.029016,0.062003,-35.28,-2.22,45.0
8.5536,-3.8546,-3.4596,0.014355,-0.014355,0.064141,-35.58,-2.16,45.0
8.5808,-3.8273,-3.2961,0.0094684,-0.0094684,0.059254,-35.76,-2.28,45.06
8.6081,-3.8409,-3.3915,-0.0088575,0.0024435,0.043677,-35.82,-2.22,44.94
8.6898,-3.7865,-3.337,-0.0018326,0.0051924,0.018021,-36.0,-2.22,44.82
8.6489,-3.8409,-3.3506,0.017104,0.026267,0.0048869,-36.0,-2.22,44.4
8.6353,-4.0316,-3.3097,0.012828,-0.000916,0.016799,-35.88,-2.22,44.52
8.4719,-3.9227,-3.337,0.015577,-0.028711,0.034819,-35.76,-2.16,44.82
8.3765,-3.8409,-3.2689,0.029627,-0.0030543,0.080329,-35.76,-1.86,44.94
8.4855,-3.9499,-3.3097,0.054062,0.0079412,0.10079,-35.58,-1.92,45.0
8.6217,-4.0861,-3.3506,0.033903,0.009163,0.10049,-35.7,-1.98,44.94
8.5944,-4.018,-3.3234,0.021991,0.0054978,0.074831,-35.7,-1.8,45.0
8.5672,-4.0997,-3.337,0.011301,-0.0058032,0.053756,-35.7,-1.62,44.94
8.5672,-4.0725,-3.2553,0.0012217,-0.02474,0.03543,-35.64,-1.5,45.06
8.4991,-3.9635,-3.3234,-0.0027489,-0.014966,0.027489,-35.4,-1.5,45.0
8.5263,-3.9908,-3.3234,-0.01069,0.0036652,0.027794,-35.34,-1.32,45.06
8.54,-3.9908,-3.3778,-0.013439,0.039401,0.023824,-35.16,-1.32,45.24
8.4991,-3.9635,-3.2825,-0.018021,0.071166,0.030849,-35.1,-1.2,45.36
8.4719,-4.0589,-3.228,-0.010385,0.083994,0.029627,-35.04,-1.2,45.3
8.5944,-4.0997,-3.1463,-0.0058032,0.083078,0.030543,-35.04,-1.26,45.24
8.54,-3.9499,-3.1872,-0.013439,0.065973,0.020464,-35.16,-1.32,45.12
8.54,-3.9499,-3.1872,-0.014355,0.066279,0.01741,-35.16,-1.32,45.12
8.4582,-3.9908,-3.2144,-0.0085521,0.11087,0.02138,-35.04,-1.14,45.3
8.5263,-4.0589,-3.2825,-0.020769,0.12492,0.020464,-34.98,-1.2,45.24
8.5944,-4.0589,-3.1327,-0.015272,0.13073,0.020769,-35.1,-1.08,45.18
8.6762,-4.0861,-3.1191,-0.014966,0.12645,0.016493,-35.16,-1.08,45.06
8.6762,-4.0589,-3.0646,-0.029016,0.0956,0.016493,-35.28,-1.2,45.12
8.6898,-4.0725,-3.0918,-0.028405,0.083689,0.010996,-35.28,-1.26,45.0
8.5263,-3.9908,-3.1191,-0.02138,0.063225,0.014355,-35.52,-1.5,44.64
8.5536,-3.9771,-3.1327,-0.017715,0.074526,0.019853,-35.52,-1.56,44.58
8.5127,-4.0316,-3.1054,-0.01741,0.092546,0.015577,-35.52,-1.38,44.4
8.54,-4.0861,-3.0237,-0.018937,0.12217,0.016493,-35.58,-1.32,44.52
8.5808,-4.0044,-2.9284,-0.01405,0.13897,0.022297,-35.46,-1.38,44.4
8.6081,-3.8818,-2.9556,0.0088575,0.13195,0.034514,-35.58,-1.44,44.28
8.8532,-4.0044,-2.9284,0.018326,0.1405,0.043982,-35.58,-1.2,44.22
8.8805,-4.0997,-2.9829,0.0079412,0.069639,0.064141,-35.64,-0.96,44.04
8.8124,-4.0997,-3.051,-0.0030543,0.058338,0.055283,-35.7,-0.96,44.04
8.5944,-4.0589,-2.9556,-0.0088575,0.071166,0.036041,-35.52,-0.9,43.98
8.4719,-4.1542,-2.9011,-0.02138,0.10446,0.029322,-35.52,-0.78,43.86
8.431,-4.1133,-2.9692,-0.024435,0.13836,0.034819,-35.46,-0.66,43.8
8.5536,-4.0861,-2.8194,-0.029627,0.17196,0.041233,-35.52,-0.48,43.86
8.8396,-4.1542,-2.8467,-0.028711,0.1631,0.036346,-35.64,-0.18,44.1
8.8668,-4.0725,-2.7241,-0.029322,0.12431,0.046731,-35.76,-0.06,44.1
8.8668,-4.018,-2.6696,-0.024435,0.076969,0.048258,-35.82,-0.24,44.16
8.8668,-4.1406,-2.6968,-0.02138,-0.010996,0.054062,-36.06,-0.12,44.1
8.7715,-4.1678,-2.7377,-0.027489,-0.055589,0.050396,-36.12,-0.12,43.98
8.8124,-4.127,-2.7649,-0.034208,-0.066584,0.048564,-36.12,-0.12,43.98
8.6625,-4.127,-2.7649,-0.040012,-0.083078,0.038485,-36.24,-0.42,43.98
8.6353,-4.2223,-2.7786,-0.053145,-0.08827,0.029016,-36.18,-0.54,44.1
8.6353,-4.1678,-2.7786,-0.061087,-0.093157,0.036957,-36.36,-0.66,43.98
8.6217,-4.0589,-2.833,-0.047647,-0.091019,0.045815,-36.3,-0.72,43.98
8.54,-4.0589,-2.8875,-0.040012,-0.056505,0.057116,-36.54,-0.72,44.04
8.54,-4.0861,-2.942,-0.032376,-0.041233,0.053451,-36.54,-0.72,43.98
8.5263,-4.1678,-2.9556,-0.039401,0.012828,0.03543,-36.42,-0.9,43.86
8.6081,-4.1678,-2.9965,-0.046731,0.03543,0.014966,-36.48,-0.9,43.8
8.6081,-4.1951,-2.9148,-0.05681,0.04948,0.0042761,-36.48,-0.72,43.8
8.5808,-4.0997,-2.7649,-0.048869,0.047647,-0.0030543,-36.36,-0.66,43.56
8.6762,-4.1133,-2.7649,-0.028711,0.033598,0.0097738,-36.3,-0.54,43.62
8.7034,-4.0316,-2.8194,-0.023213,0.022297,0.014661,-36.3,-0.6,43.56
8.6625,-4.1133,-2.833,-0.015577,-0.0033598,0.013439,-36.18,-0.48,43.68
8.5672,-4.1951,-2.9284,-0.022297,0.002138,0.009163,-36.18,-0.36,43.5
8.6353,-4.2904,-2.8875,-0.026878,0.016493,-0.0054978,-36.06,-0.24,43.5
8.5944,-4.1678,-2.9011,-0.036652,0.035736,-0.0042761,-36.18,-0.18,43.5
8.7443,-4.2087,-2.6968,-0.044288,0.048869,-0.010079,-36.0,-0.18,43.56
8.6898,-4.1951,-2.7513,-0.047037,0.054367,-0.016188,-36.0,-0.24,43.56
8.6625,-4.2223,-2.7786,-0.048258,0.047342,-0.023824,-36.12,-0.24,43.74
8.717,-4.0316,-2.7786,-0.047342,0.016493,-0.017715,-36.3,-0.06,43.62
8.7443,-4.0997,-2.8194,-0.029016,0.000916,-0.0042761,-36.3,-0.12,43.44
8.7851,-4.018,-2.8467,-0.034208,-0.014966,0.0076358,-36.36,-0.36,43.56
8.6353,-4.0316,-2.8467,-0.037568,-0.0054978,0.0045815,-36.54,-0.42,43.56
8.6353,-4.0589,-2.8194,-0.035125,-0.0015272,0.000305,-36.48,-0.42,43.56
8.6762,-4.1542,-2.8603,-0.033903,0.0085521,-0.010079,-36.54,-0.48,43.5
8.6489,-4.0997,-2.8603,-0.043677,0.023213,-0.0281,-36.66,-0.66,43.44
8.717,-4.0997,-2.6968,-0.043677,0.041539,-0.031765,-36.66,-0.6,43.5
8.6762,-4.018,-2.7786,-0.041539,0.047647,-0.018937,-36.72,-0.6,43.44
8.6217,-4.0044,-2.833,-0.032987,0.04612,-0.021075,-36.84,-0.78,43.32
8.6898,-4.0316,-2.8058,-0.031154,0.051313,-0.0030543,-36.78,-0.9,43.26
8.7306,-4.0589,-2.7377,-0.031765,0.042455,0.0042761,-36.66,-0.96,43.14
8.7306,-4.0589,-2.7922,-0.029627,0.0281,-0.0033598,-36.66,-0.84,43.2
8.7306,-4.0044,-2.6968,-0.033292,0.012523,0.0033598,-36.6,-0.84,43.26
8.7306,-4.0861,-2.7922,-0.040928,0.0030543,0.010996,-36.6,-0.78,43.26
8.6353,-4.0997,-2.7649,-0.036957,-0.011606,-0.0094684,-36.42,-0.6,43.14
8.6625,-4.127,-2.7241,-0.044899,0.0061087,-0.0094684,-36.48,-0.66,43.08
8.6762,-4.0997,-2.7377,-0.04215,0.0079412,-0.014966,-36.36,-0.78,43.02
8.7715,-3.9771,-2.7786,-0.040012,0.0088575,-0.0048869,-36.3,-0.72,43.14
8.826,-3.9635,-2.6968,-0.037263,-0.0048869,0.0061087,-36.48,-0.84,43.14
8.8124,-3.9908,-2.8058,-0.030849,-0.022602,0.01405,-36.36,-0.9,43.14
8.717,-3.9908,-2.7649,-0.038485,-0.039706,0.022907,-36.3,-0.78,43.02
8.7034,-4.0316,-2.7786,-0.0281,-0.041539,0.01405,-36.36,-0.66,43.02
8.6081,-4.0589,-2.8603,-0.041233,-0.013134,0.007025,-36.3,-0.6,43.08
8.6081,-4.0589,-2.9284,-0.044593,0.010079,-0.0012217,-36.3,-0.78,43.2
8.6625,-4.0044,-2.8603,-0.043066,0.034514,-0.0030543,-36.42,-0.72,43.26
8.7443,-4.0316,-2.7513,-0.039401,0.033292,-0.002138,-36.48,-0.78,43.2
8.8124,-3.9363,-2.7241,-0.034819,0.015882,0.0094684,-36.66,-0.96,43.26
8.7987,-4.0044,-2.6832,-0.032987,-0.027794,0.023213,-36.6,-0.84,43.32
8.7579,-4.0589,-2.7649,-0.03543,-0.037568,0.015272,-36.72,-0.66,43.44
8.6898,-4.0589,-2.8467,-0.036041,-0.036041,0.014966,-36.66,-0.66,43.44
8.6762,-4.0725,-2.8603,-0.033598,-0.020159,0.01405,-36.54,-0.66,43.5
8.6217,-4.018,-2.8875,-0.034819,0.01069,0.0094684,-36.54,-0.6,43.5
8.6898,-3.9635,-2.7922,-0.040317,0.021991,0.0064141,-36.42,-0.72,43.62
8.7443,-4.0316,-2.7513,-0.043371,0.019242,-0.0012217,-36.36,-0.78,43.56
8.7306,-4.0044,-2.7104,-0.049175,0.015882,-0.0027489,-36.48,-0.9,43.5
8.6762,-3.9771,-2.7649,-0.041233,0.0018326,0.014355,-36.54,-0.96,43.32
8.5808,-3.909,-2.7649,-0.037568,-0.0030543,0.018021,-36.48,-1.08,43.14
8.7851,-3.9227,-2.8058,-0.036957,-0.014661,0.014355,-36.36,-1.02,43.14
8.7034,-4.0316,-2.8739,-0.032987,-0.022297,0.013439,-36.3,-1.02,43.2
8.6353,-4.0044,-2.8467,-0.029627,-0.012217,0.000611,-36.24,-0.96,43.2
8.6353,-4.018,-2.8739,-0.030238,0.010385,0.002138,-36.24,-1.02,43.2
8.6762,-3.9908,-2.833,-0.037263,0.044593,-0.0027489,-36.3,-1.2,43.2
8.7715,-4.018,-2.8739,-0.037874,0.059254,-0.007025,-36.18,-1.2,43.02
8.7306,-3.9771,-2.7513,-0.037263,0.061392,-0.0030543,-36.36,-1.26,42.96
8.7715,-4.0316,-2.7241,-0.036041,0.050091,-0.0030543,-36.54,-1.08,42.78
8.7715,-3.9908,-2.7241,-0.038179,0.03146,0.002138,-36.66,-1.08,42.84
8.7579,-3.9635,-2.7649,-0.036041,0.011606,0.0061087,-36.6,-0.96,42.84
8.7579,-3.9908,-2.7377,-0.03879,0.0036652,0.010385,-36.54,-0.9,42.72
8.7443,-4.018,-2.7104,-0.040317,0.0012217,0.007025,-36.72,-0.9,42.96
8.7851,-3.909,-2.7377,-0.035125,-0.010996,0.0045815,-36.84,-0.9,42.96
8.7715,-4.018,-2.8467,-0.035736,0.0030543,0.0045815,-36.96,-0.84,42.96
8.7443,-3.9908,-2.833,-0.036346,-0.0067195,-0.0085521,-37.08,-0.9,42.9
8.7034,-3.9227,-2.7377,-0.037263,-0.013744,0.0048869,-37.08,-0.78,42.78
8.7987,-3.8409,-2.7241,-0.018021,-0.043066,0.02138,-37.08,-0.72,42.84
8.717,-3.8137,-2.7649,0.0027489,-0.049175,0.039401,-37.26,-0.66,43.02
8.6898,-3.8137,-2.7786,-0.010996,-0.026267,0.047647,-37.2,-0.54,43.2
8.7579,-3.9635,-2.8058,0.0036652,-0.012828,0.047037,-37.02,-0.72,43.26
8.7443,-4.0044,-2.8058,-0.0027489,-0.0030543,0.031154,-36.96,-0.72,43.26
8.7306,-4.0861,-2.7649,-0.0076358,-0.0015272,0.030238,-36.96,-0.78,43.26
8.7306,-4.018,-2.8603,-0.017715,-0.000916,0.0082467,-36.84,-0.66,43.38
8.7306,-3.9908,-2.7513,-0.019242,0.0079412,0.0033598,-36.72,-0.78,43.38
8.6898,-3.9227,-2.7513,-0.013439,0.0045815,0.010385,-36.6,-0.84,43.38
8.7034,-4.0316,-2.7377,-0.020464,0.0076358,0.031154,-36.48,-0.9,43.32
8.7306,-4.0861,-2.6968,-0.018326,-0.020769,0.045509,-36.54,-0.78,43.38
8.717,-4.0589,-2.833,-0.025656,-0.033292,0.055283,-36.48,-0.9,43.5
8.6762,-4.0316,-2.7786,-0.027489,-0.024435,0.042761,-36.6,-0.84,43.56
8.6353,-4.0316,-2.8058,-0.0064141,-0.014966,0.033598,-36.48,-0.78,43.56
8.6762,-4.0316,-2.833,-0.013744,0.0079412,0.03207,-36.36,-0.84,43.5
8.6353,-4.0589,-2.8467,-0.017715,0.035125,0.024129,-36.42,-0.54,43.62
8.6081,-4.0589,-2.7786,-0.02474,0.081551,0.029016,-36.6,-0.66,43.74
8.7034,-4.0316,-2.5742,-0.034514,0.092241,0.026267,-36.48,-0.72,43.74
8.717,-3.9771,-2.7377,-0.029932,0.086132,0.029627,-36.54,-0.78,43.8
8.7306,-4.0725,-2.833,-0.036346,0.086743,0.0281,-36.6,-0.72,43.8
8.9213,-4.1133,-2.6968,-0.050091,0.059254,0.025962,-36.66,-0.78,43.98
8.826,-4.0316,-2.7377,-0.043982,0.025045,0.021075,-36.72,-0.9,43.92
8.7851,-3.9499,-2.6696,-0.038179,-0.0061087,0.021075,-36.78,-0.9,43.92
8.8124,-4.0044,-2.7241,-0.024129,-0.015577,0.040012,-36.66,-0.9,43.86
8.7715,-4.0589,-2.7241,-0.020769,-0.0094684,0.050091,-36.6,-0.9,43.8
8.7034,-4.018,-2.6423,-0.018021,-0.011606,0.051924,-36.66,-1.02,43.8
8.6081,-4.0316,-2.7377,-0.016188,0.0088575,0.046731,-36.78,-1.08,43.8
8.6762,-4.0589,-2.6832,-0.010996,0.025045,0.046426,-36.66,-1.08,43.44
8.6489,-4.0589,-2.7922,-0.031765,0.030238,0.039095,-36.42,-1.08,43.32
8.7851,-4.0589,-2.6423,-0.028711,0.025962,0.036957,-36.36,-0.96,43.26
8.7306,-4.0452,-2.7241,-0.043677,0.038485,0.024435,-36.42,-0.96,43.2
8.6353,-4.0861,-2.656,-0.04215,0.045509,0.016188,-36.36,-0.84,43.14
8.6762,-4.0861,-2.5742,-0.03146,0.045204,0.012828,-36.48,-0.72,43.14
8.717,-4.0861,-2.7377,-0.029322,0.04215,0.023518,-36.42,-0.54,43.14
8.7306,-3.9908,-2.5742,-0.014661,0.043371,0.048564,-36.42,-0.6,42.96
8.8532,-4.0452,-2.7649,-0.02138,0.032376,0.062614,-36.54,-0.54,43.14
8.322,-4.0452,-2.9829,-0.028711,-0.046426,0.12156,-36.42,-0.42,43.02
8.4446,-3.9908,-2.6968,-0.033598,0.14844,0.087354,-36.54,-0.36,43.02
8.5536,-4.0861,-2.5606,-0.027184,0.2135,0.052534,-36.42,-0.3,42.96
9.0848,-4.0861,-2.6015,-0.036652,0.19853,0.027184,-36.66,-0.3,43.14
9.1256,-4.0861,-2.5198,-0.054062,0.13439,0.012828,-36.78,-0.12,43.26
9.0303,-4.1133,-2.3836,-0.047953,0.014966,0.012217,-36.9,-0.06,43.26
8.7715,-3.9908,-2.438,-0.047342,-0.000916,0.01741,-37.08,0.06,43.14
8.7715,-4.0861,-2.5742,-0.022602,-0.018631,0.018326,-37.2,0.06,43.14
8.7851,-4.1678,-2.6015,-0.028711,-0.032376,0.015577,-37.14,-0.12,43.08
8.7306,-4.1542,-2.5742,-0.047953,-0.036041,0.014355,-37.08,-0.12,42.96
8.6217,-4.1951,-2.6287,-0.045815,-0.023213,0.012523,-37.14,-0.06,43.02
8.6353,-4.1542,-2.6015,-0.051007,-0.014966,0.014661,-37.26,-0.06,42.9
8.7306,-4.2223,-2.6968,-0.058032,0.012523,0.000611,-37.2,0.06,42.78
8.6625,-4.1814,-2.5742,-0.076358,0.034208,-0.0042761,-37.2,0.06,42.78
8.7034,-4.1133,-2.5198,-0.081856,0.051618,0.011301,-37.2,0.06,42.78
8.9622,-4.0452,-2.5198,-0.065973,0.0067195,0.016493,-37.32,-0.06,42.72
8.9077,-4.0861,-2.5606,-0.053756,-0.03146,0.034819,-37.44,-0.18,42.72
8.8124,-4.0861,-2.4653,-0.046426,-0.064446,0.025351,-37.56,-0.24,42.78
8.7034,-4.0589,-2.656,-0.040928,-0.062919,0.024129,-37.56,-0.36,42.84
8.7306,-4.0997,-2.6696,-0.047037,-0.035736,0.012217,-37.44,-0.54,42.9
8.6762,-4.1678,-2.7377,-0.051618,-0.0015272,0.000305,-37.38,-0.54,43.02
8.6762,-4.127,-2.7377,-0.059865,0.052229,0.0027489,-37.38,-0.54,43.02
8.8396,-4.127,-2.4517,-0.047647,0.081245,0.0076358,-37.38,-0.66,42.9
8.8396,-4.0452,-2.6015,-0.034208,0.084605,-0.018631,-37.32,-0.66,42.9
8.8805,-4.1406,-2.6423,-0.037568,0.085521,-0.03543,-37.44,-0.72,42.84
8.8941,-4.2495,-2.5061,-0.070555,0.068722,-0.043982,-37.44,-0.6,42.9
8.9622,-4.2223,-2.3836,-0.08491,0.044899,-0.045509,-37.5,-0.72,42.84
8.9213,-4.1678,-2.3836,-0.093157,-0.062919,-0.07422,-37.44,-0.66,42.9
8.54,-4.0997,-2.5742,-0.10263,-0.090103,-0.046426,-37.38,-0.78,42.6
8.4991,-3.9635,-2.4789,-0.064141,-0.023518,-0.068417,-37.38,-0.84,42.54
8.5127,-3.9771,-2.7104,-0.012828,0.018326,-0.097128,-37.44,-0.66,42.3
8.6081,-4.018,-2.6015,-0.035736,0.047647,-0.069639,-37.44,-0.78,42.3
8.7579,-3.9908,-2.7377,-0.035125,0.11912,-0.072998,-37.56,-0.9,42.24
8.8805,-3.9635,-2.5061,-0.069944,0.10018,-0.057421,-37.5,-1.14,42.3
8.8941,-3.8546,-2.4108,-0.061087,0.066584,-0.043677,-37.62,-1.08,42.3
8.9213,-3.5685,-2.3427,-0.036957,0.007025,-0.002138,-37.68,-1.14,42.36
8.9486,-3.4732,-2.5606,-0.023213,-0.018021,0.019548,-37.68,-1.26,42.18
8.826,-3.7047,-2.4517,-0.019548,0.0039706,0.017715,-37.68,-1.32,42.12
8.7987,-3.8682,-2.4517,-0.0024435,0.035125,-0.0061087,-37.74,-1.38,42.06
8.7306,-4.1678,-2.3427,-0.0033598,0.054978,-0.034208,-37.68,-1.32,42.18
8.7034,-4.1542,-2.547,-0.0018326,0.013134,-0.014355,-37.8,-1.2,42.18
8.6081,-4.0861,-2.4108,-0.024435,-0.0024435,0.01741,-37.8,-1.2,42.06
8.6081,-3.9635,-2.547,-0.017104,0.053756,0.044288,-37.98,-1.2,42.0
8.6489,-3.9908,-2.4925,-0.013134,0.080634,0.053145,-38.04,-1.08,42.0
8.7034,-3.8954,-2.5061,-0.022907,0.15272,0.040012,-38.1,-0.9,41.94
8.8668,-3.7728,-2.4517,-0.037263,0.17318,0.036346,-38.22,-0.9,41.94
9.1256,-3.8682,-2.3972,-0.021991,0.16493,0.020159,-38.16,-0.84,41.88
9.2074,-3.9908,-2.3427,-0.054367,0.11209,0.013744,-38.28,-0.84,41.88
8.9213,-3.8682,-2.1112,-0.040623,0.089492,0.0097738,-38.28,-1.02,41.94
8.8941,-3.909,-2.152,-0.021686,0.070555,0.018631,-38.28,-0.96,42.0
8.9622,-3.9227,-2.3972,-0.0085521,0.01069,0.053451,-38.34,-0.9,42.0
8.7715,-3.9227,-2.4108,-0.018937,0.0058032,0.053451,-38.34,-0.96,41.94
8.6625,-4.018,-2.4108,-0.018021,0.045204,0.049786,-38.4,-0.96,41.82
8.7715,-4.127,-2.3155,-0.024435,0.069028,0.037263,-38.34,-0.84,41.88
8.9349,-4.127,-2.3699,-0.050396,0.060781,0.0054978,-38.16,-0.84,41.76
8.9758,-4.0861,-2.3972,-0.050702,0.068722,-0.013439,-38.16,-1.02,41.7
8.826,-3.9771,-2.3291,-0.061087,0.06689,-0.03879,-38.28,-0.96,41.58
8.8396,-3.8001,-2.2474,-0.047647,0.099876,0.0012217,-38.34,-0.96,41.28
8.8805,-3.6911,-2.1929,-0.036652,0.1011,0.052229,-38.34,-0.96,41.28
8.9622,-3.7592,-2.1384,-0.0054978,0.08094,0.094379,-38.34,-1.02,41.28
9.0303,-3.8818,-2.0839,0.028405,0.036652,0.10782,-38.28,-0.96,41.22
9.112,-4.0861,-2.1929,0.015882,-0.017104,0.090713,-38.34,-0.84,41.16
9.1529,-4.0725,-2.3018,-0.0051924,-0.068722,0.067501,-38.28,-0.9,41.16
8.8941,-4.1951,-2.4517,-0.041539,-0.067806,-0.015272,-38.34,-0.78,40.92
8.7715,-4.0997,-2.3427,-0.049786,-0.024435,-0.054672,-38.4,-0.78,40.98
8.7851,-3.9635,-2.2746,-0.058948,0.0085521,-0.055283,-38.4,-0.84,40.86
8.7034,-3.8954,-2.2201,-0.040317,0.070555,-0.021686,-38.52,-0.96,40.86
8.7715,-3.8546,-2.0839,-0.027184,0.087354,0.010385,-38.52,-1.02,40.92
8.826,-3.7865,-2.152,-0.016799,0.060476,0.053145,-38.46,-1.08,40.92
9.0303,-3.909,-2.261,-0.016799,0.029016,0.08491,-38.4,-1.2,41.04
9.0575,-4.0044,-2.2746,-0.022907,-0.011301,0.087354,-38.52,-1.2,41.04
9.0848,-4.0452,-2.152,-0.031765,-0.068417,0.075747,-38.52,-1.14,41.04
8.9622,-4.127,-2.1929,-0.038485,-0.12859,0.037874,-38.64,-1.08,40.98
8.8396,-4.0316,-2.1929,-0.025351,-0.14294,0.022907,-38.76,-1.26,41.04
8.7443,-4.0861,-2.3563,-0.022907,-0.12828,0.02138,-38.88,-1.26,41.04
8.6353,-3.9771,-2.4653,-0.027489,-0.02138,0.022297,-38.94,-1.32,41.22
8.6625,-3.9227,-2.3699,-0.024435,0.066584,0.026573,-38.88,-1.38,41.28
8.7579,-3.8954,-2.2474,-0.0281,0.12278,0.029932,-38.88,-1.32,41.4
9.0848,-3.9635,-2.3155,-0.028405,0.135,0.02138,-38.76,-1.26,41.64
9.1256,-3.9227,-2.2474,-0.031765,0.086132,0.0036652,-38.88,-1.2,41.64
9.0303,-3.9227,-2.2065,-0.02474,0.065057,-0.0027489,-38.82,-1.26,41.82
8.7579,-3.8818,-2.2474,-0.030849,0.057116,-0.028711,-38.82,-1.14,41.88
8.6217,-4.0861,-2.3427,-0.016799,0.11668,-0.013134,-38.82,-1.14,41.82
8.7851,-4.0589,-2.2882,-0.027184,0.17135,-0.013134,-38.88,-1.2,41.76
8.8396,-3.8682,-2.0703,-0.016799,0.19548,-0.010385,-38.94,-1.32,41.76
8.7987,-3.8682,-2.0567,0.0045815,0.21869,-0.0045815,-38.82,-1.32,41.58
8.826,-3.9771,-2.1384,0.009163,0.22785,0.0012217,-38.82,-1.2,41.52
8.8124,-4.0316,-2.0431,0.0018326,0.27703,0.0067195,-38.94,-1.26,41.34
8.8532,-3.9908,-1.9886,-0.013134,0.31398,0.000305,-39.0,-1.2,41.22
9.0439,-4.0316,-1.866,-0.0061087,0.32712,-0.019548,-39.24,-1.32,40.92
9.1256,-4.0725,-1.757,-0.011912,0.29138,-0.028405,-39.36,-1.32,40.92
8.826,-3.9908,-1.6617,-0.0281,0.083689,-0.019242,-39.3,-1.2,40.62
9.221,-3.9227,-1.6889,-0.039095,0.090713,0.075442,-39.6,-1.26,40.14
9.5479,-3.9363,-1.7025,-0.051618,0.065668,0.092852,-39.66,-1.14,39.96
9.5479,-3.8273,-1.6481,-0.054367,-0.0562,0.08827,-39.66,-1.08,40.08
9.2346,-4.0044,-1.7843,-0.03543,-0.16218,0.10018,-39.78,-0.84,40.14
9.1256,-4.0316,-1.8932,-0.031765,-0.23671,0.089186,-39.66,-0.84,40.02
8.8668,-4.0725,-1.9886,-0.030849,-0.24038,0.084299,-39.72,-0.78,40.02
8.54,-4.0861,-2.1384,-0.037874,-0.17593,0.096517,-39.72,-0.78,40.14
8.3493,-4.0861,-2.152,-0.046426,-0.052534,0.10324,-39.6,-0.78,40.08
8.3493,-4.127,-2.1793,-0.04612,0.064141,0.12187,-39.66,-0.6,39.96
8.6898,-4.1814,-2.0022,-0.051924,0.12737,0.14355,-39.6,-0.6,40.02
8.8532,-4.1951,-1.975,-0.033598,0.14966,0.15272,-39.42,-0.48,39.96
8.9894,-4.0861,-1.9341,-0.037263,0.13256,0.15821,-39.12,-0.36,40.38
9.1393,-4.018,-1.8932,-0.028405,0.10568,0.16463,-39.12,-0.24,40.44
9.2482,-3.9227,-1.8524,-0.013744,0.08827,0.14997,-39.0,-0.12,40.44
9.1801,-4.127,-1.7298,0.0030543,0.062919,0.14142,-38.88,-0.12,40.32
9.112,-4.1133,-1.7434,-0.010385,0.021686,0.12798,-38.88,-0.12,40.14
9.0848,-4.1951,-1.7298,-0.012217,-0.0030543,0.097128,-38.94,-0.06,40.08
9.0575,-4.2904,-1.7706,-0.035736,-0.047342,0.07422,-38.94,-0.06,40.02
8.8532,-4.2087,-1.8932,-0.0562,-0.061392,0.058338,-38.82,0.06,39.96
8.7034,-4.2904,-1.9613,-0.04215,-0.028711,0.058032,-38.82,0.12,40.08
8.6762,-4.2495,-1.9477,-0.040623,0.000611,0.054978,-38.88,0.06,40.08
8.54,-4.3177,-1.9205,-0.026878,0.090713,0.07086,-38.88,0.3,39.96
8.5808,-4.3449,-1.8796,-0.029627,0.13897,0.07086,-38.88,0.42,40.08
8.6762,-4.3858,-1.8932,-0.028711,0.19517,0.06353,-38.88,0.54,39.96
8.8396,-4.3177,-1.757,-0.040012,0.21197,0.066279,-39.0,0.54,39.9
8.9213,-4.3449,-1.7979,-0.051313,0.21105,0.058338,-39.0,0.42,39.96
9.0303,-4.3721,-1.7434,-0.066584,0.17196,0.044288,-39.06,0.36,40.08
9.0575,-4.1542,-1.6072,-0.06017,0.12889,0.031154,-39.0,0.36,40.02
8.9758,-4.1542,-1.6344,-0.026267,0.099571,0.012828,-39.06,0.48,40.08
9.112,-4.3313,-1.6753,-0.016188,0.072693,0.009163,-39.06,0.54,40.14
9.0167,-4.3585,-1.5391,-0.034208,0.015272,-0.017715,-39.18,0.48,39.9
8.7851,-4.3449,-1.7298,-0.04215,0.0073304,-0.034208,-39.18,0.48,39.84
8.7715,-4.3858,-1.6208,-0.032987,0.051313,-0.018937,-39.18,0.36,39.84
8.826,-4.3449,-1.7025,-0.045204,0.075442,-0.016188,-39.12,0.3,39.78
8.826,-4.3449,-1.58,-0.057727,0.075442,-0.0058032,-39.12,0.24,39.6
9.0031,-4.413,-1.5391,-0.065057,0.037874,0.027794,-39.18,0.06,39.6
8.9894,-4.1678,-1.58,-0.046731,0.01405,0.031765,-39.24,0.12,39.6
8.9894,-4.1951,-1.6344,-0.047342,0.0033598,0.027184,-39.3,0.18,39.6
8.9894,-4.3177,-1.5936,-0.046426,-0.015882,0.012217,-39.18,0.18,39.42
8.8668,-4.3449,-1.6208,-0.06017,-0.014966,-0.0015272,-39.12,0.18,39.42
8.8124,-4.2904,-1.5527,-0.055283,0.014355,-0.016799,-39.18,0.12,39.36
8.7987,-4.2359,-1.6208,-0.058032,0.031154,-0.026573,-39.24,0.12,39.3
8.7987,-4.2768,-1.6208,-0.050702,0.063835,-0.019853,-39.12,-0.06,39.42
8.8396,-4.2223,-1.5663,-0.053451,0.069944,-0.019853,-39.12,-0.06,39.42
9.112,-4.1814,-1.5527,-0.035125,0.062919,-0.0033598,-39.0,-0.06,39.12
9.0439,-4.2223,-1.5663,-0.029627,0.022297,-0.0061087,-39.18,-0.18,39.12
9.0575,-4.1678,-1.58,-0.037874,-0.010996,0.0039706,-39.0,-0.18,39.06
8.9349,-4.2223,-1.7025,-0.027184,-0.02138,0.0042761,-39.12,-0.18,39.0
8.9486,-4.2223,-1.6753,-0.029627,-0.01405,-0.0054978,-39.12,-0.18,38.88
8.826,-4.3177,-1.5936,-0.027184,-0.0015272,-0.017104,-39.12,-0.24,38.7
8.826,-4.304,-1.6344,-0.032376,0.040012,-0.0281,-39.0,-0.3,38.52
8.9349,-4.1814,-1.6208,-0.040928,0.05284,-0.018021,-39.12,-0.48,38.46
8.9758,-4.2223,-1.58,-0.045815,0.044899,-0.0094684,-39.06,-0.42,38.52
9.0575,-4.2087,-1.5119,-0.040012,0.022297,-0.0076358,-39.06,-0.36,38.34
8.9486,-4.2359,-1.4574,-0.041844,-0.015272,0.013439,-39.18,-0.42,38.34
8.9486,-4.1951,-1.5391,-0.04612,-0.023213,0.01741,-39.24,-0.6,38.28
8.9894,-4.1814,-1.5936,-0.053451,-0.036652,0.016799,-39.42,-0.54,38.34
8.9758,-4.1542,-1.5255,-0.051924,-0.029627,0.014661,-39.24,-0.54,38.34
8.8941,-4.1542,-1.5527,-0.062308,-0.024129,0.019242,-39.42,-0.6,38.28
8.8805,-4.1542,-1.58,-0.048564,-0.010079,0.011606,-39.36,-0.6,37.86
8.8805,-4.2223,-1.5391,-0.048869,0.0030543,0.0067195,-39.42,-0.66,38.04
8.9622,-4.2223,-1.6208,-0.04215,-0.0024435,-0.0036652,-39.48,-0.66,38.16
8.8941,-4.2495,-1.5527,-0.040623,-0.0024435,0.012828,-39.6,-0.6,38.16
8.9213,-4.1814,-1.6072,-0.033598,-0.0042761,0.0088575,-39.48,-0.48,38.04
8.8805,-4.2223,-1.6889,-0.030849,0.016799,0.018326,-39.66,-0.48,37.98
9.0167,-4.2359,-1.58,-0.031154,0.01405,0.009163,-39.42,-0.36,38.1
8.9758,-4.1678,-1.6208,-0.037874,-0.0076358,0.0045815,-39.42,-0.36,38.16
8.8941,-4.2223,-1.6344,-0.038485,-0.011301,-0.0033598,-39.24,-0.3,38.28
8.9758,-4.2495,-1.6481,-0.048564,-0.014661,-0.007025,-39.24,-0.3,38.34
8.9758,-4.1542,-1.6344,-0.048564,-0.019242,-0.0097738,-39.3,-0.12,38.16
8.9486,-4.1814,-1.58,-0.054672,-0.022602,-0.010385,-39.36,-0.12,38.28
8.9486,-4.127,-1.6072,-0.039095,-0.025962,-0.0015272,-39.48,-0.18,38.52
8.9077,-4.1814,-1.7025,-0.034819,-0.016493,0.010385,-39.3,-0.18,38.52
8.9349,-4.1542,-1.7979,-0.04948,-0.0088575,0.015272,-39.24,0.06,38.46
9.0303,-4.1678,-1.6753,-0.037874,-0.014355,0.0094684,-39.24,-0.12,38.46
8.9758,-4.127,-1.7025,-0.052229,-0.018021,0.0058032,-39.36,-0.06,38.64
8.9622,-4.1542,-1.6208,-0.046426,-0.029627,0.0042761,-39.36,-0.18,38.64
8.9894,-4.2223,-1.7025,-0.053451,-0.040928,0.0097738,-39.36,-0.24,38.7
8.9758,-4.1951,-1.7298,-0.047342,-0.053451,0.0058032,-39.36,-0.18,38.64
9.0167,-4.1133,-1.6753,-0.037568,-0.065363,0.026878,-39.48,-0.24,38.64
8.9349,-4.1133,-1.58,-0.041844,-0.068417,0.026573,-39.36,-0.3,38.76
8.9622,-4.0861,-1.6617,-0.032681,-0.072082,0.040012,-39.36,-0.36,39.0
8.9213,-4.2087,-1.7434,-0.037568,-0.069028,0.030543,-39.12,-0.36,39.18
8.9213,-4.2087,-1.7162,-0.040012,-0.05681,0.019853,-39.18,-0.24,39.0
8.8532,-4.1814,-1.7298,-0.048258,-0.045204,0.012523,-39.24,-0.36,39.0
8.9213,-4.127,-1.7843,-0.044899,-0.022602,-0.000611,-39.18,-0.36,39.18
8.9486,-4.1951,-1.7434,-0.044288,-0.013134,0.000916,-39.12,-0.3,39.36
8.9894,-4.1542,-1.7843,-0.034819,-0.035736,0.011912,-39.12,-0.3,39.36
8.8941,-4.0861,-1.7706,-0.0281,-0.047953,0.020769,-39.12,-0.36,39.48
8.9349,-4.0725,-1.7434,-0.010079,-0.053145,0.030543,-39.12,-0.24,39.48
8.9213,-4.0861,-1.8115,-0.013134,-0.053145,0.041539,-39.0,-0.3,39.6
8.9349,-4.0589,-1.8387,-0.011606,-0.035736,0.049175,-39.0,-0.36,39.48
8.9077,-4.1678,-1.7025,-0.016188,-0.026573,0.042761,-39.0,-0.48,39.54
8.9486,-4.1814,-1.7298,-0.019242,-0.016799,0.045509,-38.94,-0.54,39.54
8.826,-4.1678,-1.757,-0.007025,-0.013439,0.040012,-39.18,-0.66,39.48
8.826,-4.2904,-1.7706,0.0054978,0.0030543,0.030238,-39.18,-0.84,39.6
8.8124,-4.2632,-1.8387,0.0012217,0.027184,0.036041,-39.18,-0.72,39.6
8.8941,-4.2495,-1.6481,0.0064141,0.031765,0.04612,-39.3,-0.78,39.42
8.8396,-4.2632,-1.6481,0.0012217,0.03543,0.046731,-39.18,-0.72,39.36
8.8805,-4.3177,-1.7025,0.0042761,0.040623,0.039095,-39.18,-0.66,39.24
9.0303,-4.2495,-1.7979,-0.0058032,0.034819,0.029016,-39.3,-0.36,39.24
8.9486,-4.2359,-1.7979,-0.019853,0.04612,0.011301,-39.24,-0.42,39.24
8.8532,-4.2087,-1.7706,-0.028405,0.051618,-0.0039706,-39.24,-0.42,39.3
8.8941,-4.2087,-1.7706,-0.028711,0.069639,0.0024435,-39.24,-0.42,39.3
9.0031,-4.1814,-1.6889,-0.025656,0.083383,0.007025,-39.3,-0.36,39.06
9.0167,-4.1814,-1.6481,-0.031154,0.08094,0.0088575,-39.24,-0.36,39.0
8.9758,-4.127,-1.6617,-0.011606,0.047037,0.018326,-38.88,-0.12,39.0
9.0167,-4.1406,-1.7298,-0.011301,0.013134,0.018937,-38.94,0.06,39.0
8.8941,-4.2223,-1.6617,-0.012217,0.002138,0.022907,-38.88,0.06,38.94
8.8941,-4.2087,-1.6753,-0.0088575,0.024129,0.024129,-38.94,0.06,39.0
8.8805,-4.2223,-1.6753,-0.0073304,0.033292,0.035736,-39.06,0.06,39.0
8.8805,-4.2904,-1.6072,-0.014966,0.03879,0.030543,-38.94,0.06,39.12
8.8532,-4.2223,-1.5391,-0.018326,0.034819,0.031765,-39.0,-0.12,38.94
9.0167,-4.1814,-1.6208,-0.02474,0.011301,0.032681,-39.12,-0.18,38.88
8.9349,-4.304,-1.6072,-0.019548,-0.0027489,0.043982,-39.18,-0.18,38.76
9.0167,-4.2359,-1.5663,-0.029016,-0.023213,0.059254,-39.18,-0.18,38.7
8.8941,-4.2768,-1.6753,-0.024435,-0.023824,0.068722,-39.06,0.06,38.7
8.9894,-4.2904,-1.6753,-0.030238,-0.023824,0.04948,-39.0,0.12,38.7
9.0303,-4.2223,-1.6344,-0.035125,-0.021686,0.047647,-39.06,0.12,38.64
8.9758,-4.2768,-1.58,-0.036652,-0.040928,0.030849,-39.18,0.12,38.76
8.8805,-4.2359,-1.6344,-0.042761,-0.033903,0.030543,-39.18,0.12,38.76
8.7987,-4.2495,-1.6344,-0.036346,-0.025045,0.036041,-39.12,0.12,38.76
8.8668,-4.3177,-1.7706,-0.037263,-0.028711,0.051313,-39.06,0.18,38.64
8.826,-4.2632,-1.7162,-0.03879,-0.036346,0.058643,-39.06,0.12,38.76
8.826,-4.3858,-1.6481,-0.036041,-0.023213,0.065057,-38.94,0.12,38.82
8.8532,-4.3177,-1.6889,-0.029932,0.0042761,0.072693,-38.76,0.24,38.94
8.8941,-4.3585,-1.7025,-0.02474,0.0061087,0.07422,-38.64,0.36,39.0
8.8941,-4.3177,-1.7025,-0.040623,0.0024435,0.078496,-38.52,0.36,38.94
8.8941,-4.3449,-1.7025,-0.028405,0.012217,0.061392,-38.58,0.36,38.94
8.8532,-4.3585,-1.6617,-0.037874,0.0097738,0.056505,-38.52,0.6,38.94
8.8668,-4.2632,-1.6344,-0.026267,0.0094684,0.063835,-38.52,0.6,39.0
8.9213,-4.3177,-1.6753,-0.030543,0.0051924,0.066279,-38.28,0.42,38.82
8.826,-4.3449,-1.7706,-0.016493,0.000305,0.074526,-38.1,0.3,38.94
8.7987,-4.3994,-1.7162,-0.021991,0.0015272,0.079412,-37.98,0.3,39.0
8.7306,-4.3721,-1.7706,-0.018937,0.021686,0.075136,-37.86,0.12,38.94
8.7715,-4.4811,-1.6889,-0.023824,0.051924,0.053756,-37.74,0.18,39.12
8.826,-4.4402,-1.7025,-0.036652,0.060476,0.031154,-37.8,0.3,39.12
8.826,-4.413,-1.6617,-0.043066,0.084605,0.019548,-37.86,0.3,38.94
8.8805,-4.4266,-1.6617,-0.044593,0.085827,0.0045815,-38.04,0.24,39.06
8.9349,-4.4811,-1.6344,-0.045509,0.07758,-0.0030543,-38.16,0.36,38.88
8.9349,-4.413,-1.6889,-0.048869,0.059865,-0.013134,-38.16,0.54,39.0
8.8668,-4.3449,-1.5663,-0.047647,0.038179,-0.01069,-38.46,0.72,38.94
8.8668,-4.413,-1.5936,-0.032987,0.036041,-0.019242,-38.52,0.72,38.76
8.8124,-4.3313,-1.7025,-0.029627,0.036346,-0.010385,-38.46,0.72,38.52
8.826,-4.3313,-1.6344,-0.029627,0.040317,-0.0082467,-38.64,0.54,38.16
8.826,-4.3449,-1.5936,-0.023213,0.047647,-0.0079412,-38.64,0.36,38.04
8.9486,-4.2904,-1.4982,-0.028711,0.042761,-0.0058032,-38.76,0.24,38.16
8.8668,-4.2495,-1.471,-0.020769,0.032376,0.0073304,-38.7,0.24,38.16
8.9894,-4.127,-1.5527,-0.0033598,0.0076358,-0.0015272,-38.58,0.3,38.28
8.8941,-4.3449,-1.5119,-0.0088575,-0.024129,0.0030543,-38.58,0.24,38.34
8.9077,-4.3858,-1.5119,-0.0061087,-0.022602,-0.000305,-38.52,0.18,38.28
8.7987,-4.2904,-1.5391,-0.029932,-0.051313,-0.033903,-38.46,0.24,38.16
8.5536,-4.6037,-1.6753,-0.039706,-0.03146,-0.054367,-38.52,0.18,38.16
8.826,-4.5492,-1.6208,-0.051007,0.069639,-0.036957,-38.46,0.18,38.28
8.8124,-4.5356,-1.5119,-0.063225,0.094073,-0.033598,-38.52,0.18,38.22
8.8941,-4.3994,-1.4574,-0.086743,0.096517,-0.024435,-38.58,0.24,38.28
9.0575,-4.304,-1.4438,-0.077885,0.047037,-0.0061087,-38.58,0.3,38.28
9.1529,-4.2223,-1.471,-0.074831,-0.020159,0.0076358,-38.76,0.48,38.28
9.0167,-4.2223,-1.4846,-0.057727,-0.066279,0.002138,-38.82,0.42,38.16
8.8941,-4.2904,-1.6617,-0.043371,-0.07422,0.010996,-38.82,0.54,38.04
8.8532,-4.3177,-1.6481,-0.045815,-0.055283,0.0048869,-38.88,0.6,38.1
8.7987,-4.2359,-1.6072,-0.043982,-0.044288,0.0085521,-38.94,0.66,38.1
8.8668,-4.2768,-1.6617,-0.043371,-0.010996,0.0054978,-39.0,0.72,37.92
8.8805,-4.2904,-1.5936,-0.040012,0.0058032,0.0042761,-39.12,0.66,37.92
8.9213,-4.304,-1.5663,-0.033292,-0.0015272,0.0015272,-39.0,0.66,38.04
8.8941,-4.3177,-1.6072,-0.029627,-0.018631,0.0061087,-38.94,0.84,38.04
8.9894,-4.304,-1.5936,-0.032376,-0.043066,0.020159,-38.94,0.9,38.1
8.8941,-4.3585,-1.58,-0.029627,-0.054672,0.018021,-38.88,0.78,38.04
8.8396,-4.304,-1.6617,-0.039401,-0.049786,0.007025,-38.88,0.84,38.1
8.826,-4.2087,-1.7025,-0.043066,-0.023824,0.0088575,-38.7,0.66,38.1
8.826,-4.2359,-1.6344,-0.043677,0.0079412,-0.012217,-38.58,0.78,38.22
8.9077,-4.3721,-1.6344,-0.055283,0.0281,-0.021686,-38.76,0.54,38.28
8.9349,-4.2223,-1.6344,-0.053756,0.019242,-0.026267,-38.82,0.48,38.16
9.0439,-4.2087,-1.6208,-0.058643,0.0045815,-0.015577,-38.7,0.36,38.16
9.0031,-4.1678,-1.5391,-0.043982,-0.027184,-0.0079412,-38.7,0.3,38.46
8.9213,-4.1814,-1.6617,-0.033292,-0.028711,-0.0015272,-38.64,0.18,38.46
8.826,-4.2223,-1.6344,-0.032987,-0.019242,-0.0039706,-38.7,0.18,38.22
8.8532,-4.2768,-1.5936,-0.02474,0.0097738,-0.014355,-38.88,0.18,38.4
8.8941,-4.3177,-1.7025,-0.039706,0.027184,-0.022907,-38.88,0.12,38.4
8.9349,-4.3177,-1.6481,-0.040317,0.030238,-0.019853,-39.0,0.12,38.52
8.9622,-4.2632,-1.6072,-0.043371,0.026573,-0.025656,-39.06,0.18,38.88
8.9894,-4.2904,-1.5663,-0.048564,0.016188,-0.0281,-39.0,0.3,38.82
8.9622,-4.2359,-1.5663,-0.042761,0.009163,-0.021686,-39.12,0.24,38.94
8.9213,-4.127,-1.5119,-0.032987,-0.0094684,-0.011606,-39.06,0.48,38.76
8.9349,-4.1814,-1.58,-0.035125,-0.01741,0.0033598,-38.88,0.48,38.76
8.9622,-4.1814,-1.58,-0.029322,-0.027489,0.0039706,-39.06,0.42,38.76
8.9077,-4.1678,-1.6344,-0.031154,-0.043677,0.0097738,-39.12,0.36,38.88
8.9486,-4.1951,-1.6617,-0.023518,-0.045204,0.0079412,-39.18,0.24,39.06
8.9622,-4.2223,-1.6753,-0.031154,-0.03879,0.0076358,-39.18,0.18,39.12
8.8941,-4.2087,-1.6208,-0.047953,-0.021991,0.0036652,-38.94,0.12,39.0
8.8941,-4.1951,-1.6753,-0.040317,-0.0051924,0.0027489,-38.94,0.12,39.06
8.9349,-4.0725,-1.6617,-0.040623,-0.0048869,-0.000305,-38.88,0.12,38.94
8.8941,-4.1133,-1.6072,-0.025962,-0.0033598,0.0018326,-38.82,-0.18,38.7
8.8668,-4.1406,-1.6617,-0.029932,0.0045815,0.0030543,-38.94,-0.18,38.7
9.0303,-4.1814,-1.6617,-0.036957,0.0036652,0.002138,-38.94,-0.12,38.52
9.0848,-4.1814,-1.6617,-0.033598,-0.024435,0.000305,-38.82,-0.36,38.64
8.9622,-4.1542,-1.6753,-0.038179,-0.032987,-0.0067195,-38.82,-0.36,38.76
8.9349,-4.1814,-1.58,-0.050091,-0.034819,-0.0015272,-38.64,-0.42,38.7
8.8805,-4.2087,-1.6344,-0.043066,-0.040317,0.0085521,-38.58,-0.36,38.52
8.8941,-4.1678,-1.6753,-0.044593,-0.035125,0.0058032,-38.64,-0.3,38.16
8.8805,-4.127,-1.7298,-0.03543,-0.021991,0.0061087,-38.76,-0.3,38.22
8.9077,-4.127,-1.7162,-0.037568,-0.0061087,0.010996,-38.76,-0.36,38.28
8.9894,-3.9771,-1.6753,-0.034208,-0.0018326,0.018937,-38.94,-0.42,38.46
8.9894,-4.127,-1.7025,-0.036346,-0.014661,0.021075,-39.0,-0.36,38.58
8.9894,-4.127,-1.7162,-0.027184,-0.017715,0.015882,-38.88,-0.6,38.58
8.9213,-4.2087,-1.7434,-0.03207,-0.0097738,0.009163,-38.88,-0.54,38.82
8.8805,-4.2223,-1.7298,-0.03879,0.014355,-0.0036652,-38.88,-0.6,38.88
8.9622,-4.2495,-1.7298,-0.043066,0.019242,0.002138,-39.0,-0.66,38.88
9.0303,-4.0997,-1.7298,-0.040928,0.014661,-0.0042761,-39.18,-0.66,38.7
8.9349,-4.018,-1.7434,-0.039706,0.012523,-0.0061087,-39.18,-0.48,38.76
8.9213,-4.0589,-1.7298,-0.037568,0.013134,-0.0018326,-39.18,-0.54,38.82
9.0303,-4.0997,-1.7298,-0.040623,0.022907,-0.013134,-39.18,-0.42,38.94
8.9486,-4.1406,-1.7434,-0.042761,0.016188,-0.015272,-39.24,-0.3,39.0
8.9622,-4.127,-1.6889,-0.034208,0.021686,-0.021991,-39.36,-0.36,38.82
8.9349,-4.1814,-1.6889,-0.037263,0.029627,-0.02474,-39.12,-0.36,38.52
8.9894,-4.1542,-1.6889,-0.036346,0.027184,-0.022907,-39.06,-0.48,38.58
9.0303,-4.0997,-1.7025,-0.034819,0.023213,-0.027489,-39.06,-0.36,38.46
8.9894,-4.127,-1.58,-0.03879,0.02474,-0.013744,-39.24,-0.6,38.4
8.9894,-4.0997,-1.6072,-0.027184,0.020464,-0.0030543,-39.24,-0.72,38.34
9.0031,-4.127,-1.6072,-0.026878,0.0064141,-0.0079412,-39.18,-0.66,38.34
8.9622,-4.0589,-1.6753,-0.031154,0.0027489,0.0012217,-39.06,-0.6,38.34
9.0303,-4.0589,-1.6889,-0.040623,0.0076358,0.0033598,-39.0,-0.78,38.4
9.0167,-4.0861,-1.6481,-0.04612,0.0033598,-0.000305,-38.94,-0.72,38.4
8.9894,-4.0452,-1.6344,-0.042761,-0.0030543,-0.0076358,-39.06,-0.9,38.46
8.9758,-4.1542,-1.6344,-0.044593,-0.000305,-0.014966,-39.0,-1.08,38.46
9.0031,-4.0861,-1.6753,-0.043371,0.0082467,-0.018937,-38.88,-1.08,38.52
8.9486,-4.0589,-1.6617,-0.03207,0.020159,-0.012828,-38.82,-0.9,38.64
8.9213,-4.0452,-1.6753,-0.018631,0.026573,-0.000916,-38.94,-0.9,38.64
8.9486,-3.9908,-1.6208,-0.026878,0.019853,0.02474,-38.94,-0.9,38.76
9.0712,-4.0044,-1.5936,-0.023824,0.0061087,0.038179,-38.88,-0.9,38.64
9.112,-4.0316,-1.6072,-0.020464,-0.015882,0.047647,-38.82,-0.84,38.7
9.0303,-4.0452,-1.6344,-0.020769,-0.038179,0.04215,-38.82,-0.84,38.76
8.9894,-4.0589,-1.6753,-0.030238,-0.051007,0.040012,-38.94,-1.08,38.88
8.9486,-4.0861,-1.7025,-0.026878,-0.041844,0.021075,-39.18,-1.14,38.82
8.8668,-4.0861,-1.6753,-0.025656,-0.029627,0.015577,-39.24,-1.14,38.88
8.8532,-4.0861,-1.7298,-0.029627,0.000305,0.01741,-39.18,-1.02,38.64
8.9077,-4.0589,-1.7298,-0.018021,0.015577,0.03207,-39.24,-1.08,38.64
8.9894,-4.0589,-1.6889,-0.027489,0.011912,0.047647,-39.24,-1.02,38.58
9.0575,-4.0861,-1.6344,-0.026267,-0.031765,0.0562,-39.54,-1.08,38.52
9.0167,-4.0725,-1.6072,-0.020464,-0.05284,0.064141,-39.54,-1.02,38.46
8.9894,-4.1406,-1.6889,-0.028711,-0.063225,0.058643,-39.48,-1.02,38.4
8.9622,-4.1542,-1.7298,-0.030238,-0.068722,0.043066,-39.48,-0.9,38.22
8.9349,-4.1133,-1.7706,-0.03146,-0.060781,0.049786,-39.48,-1.08,38.28
8.8805,-4.0997,-1.7162,-0.023518,-0.041233,0.040317,-39.42,-1.08,38.28
8.9349,-4.0725,-1.7979,-0.019242,-0.018937,0.035736,-39.36,-1.14,38.46
9.0848,-4.0589,-1.5527,-0.025045,-0.03543,0.030849,-39.18,-1.08,38.4
9.3436,-4.127,-1.4438,-0.019242,-0.093462,0.011301,-39.06,-1.08,38.46
9.6296,-4.2223,-1.5255,-0.022297,-0.1686,-0.0042761,-39.12,-1.08,38.64
9.8748,-4.1678,-1.58,-0.042455,-0.49205,-0.072388,-39.0,-1.08,38.76
10.065,-4.1814,-1.8387,-0.048258,-0.69914,-0.14783,-38.88,-1.08,38.88
9.6296,-4.0452,-1.8932,-0.032376,-0.93707,-0.30055,-38.94,-1.14,39.0
9.1937,-3.8546,-1.9205,-0.0058032,-0.95967,-0.3934,-38.7,-1.2,39.42
9.0848,-3.9227,-2.261,0.0018326,-0.94592,-0.41722,-38.76,-1.32,39.66
9.2891,-3.7184,-2.3699,-0.023213,-0.88301,-0.43249,-38.52,-1.44,40.02
9.3027,-3.7047,-2.5606,-0.015882,-0.93187,-0.44776,-38.22,-1.44,40.62
9.507,-3.7184,-2.6015,-0.0082467,-0.967,-0.51771,-38.04,-1.5,40.98
9.6432,-3.6775,-2.7104,-0.03207,-1.0211,-0.60018,-38.04,-1.62,41.16
9.6296,-3.5958,-2.6968,-0.036041,-0.9615,-0.6973,-37.8,-2.04,41.76
9.6977,-3.2689,-2.6015,-0.022907,-0.96731,-0.71685,-37.8,-2.16,41.94
9.6841,-3.2144,-2.6423,0.089797,-1.1487,-0.76114,-37.56,-2.4,42.3
9.4389,-3.0782,-2.6968,0.15944,-1.1164,-0.76969,-37.5,-3.12,43.14
9.1256,-3.0237,-2.9556,0.22419,-1.2159,-0.77702,-37.38,-3.42,43.5
9.0167,-3.2689,-4.0452,0.19639,-1.4328,-0.72479,-37.26,-3.78,44.04
8.1177,-3.1191,-4.2495,0.12309,-1.3845,-0.67378,-37.08,-4.56,45.06
7.9815,-2.9692,-4.3585,0.11118,-1.317,-0.72296,-37.02,-4.8,45.54
7.6819,-3.0918,-4.4266,0.1011,-1.0638,-0.7761,-37.08,-5.16,45.9
7.8453,-2.6832,-4.7263,-0.028711,-0.47647,-0.8097,-37.26,-5.82,46.68
7.9679,-2.2337,-4.7807,0.085521,-0.50091,-0.90286,-37.5,-6.18,47.04
7.1371,-2.1656,-4.3721,0.10996,-0.24893,-0.82375,-37.62,-6.42,47.34
7.6002,-1.4574,-4.0997,0.30238,0.071777,-0.81948,-38.22,-7.08,47.94
7.7364,-1.2939,-4.3177,0.52198,-0.11729,-0.79779,-38.4,-7.5,48.18
7.5865,-1.58,-4.3994,0.65515,-0.058032,-0.84544,-38.88,-7.92,48.24
7.9679,-2.1384,-4.6037,0.66493,0.16921,-0.94654,-39.3,-8.22,48.24
9.2891,-2.1248,-4.6718,0.58674,0.43982,-0.92363,-40.56,-8.7,47.88
8.9349,-1.8387,-4.6582,0.59559,0.029322,-0.79993,-41.28,-9.06,47.58
7.927,-1.5391,-4.4811,0.59223,-0.26603,-0.70341,-42.9,-9.78,46.38
8.5127,-1.7434,-4.5628,0.59529,-0.20006,-0.66554,-42.9,-9.78,46.38
8.7034,-2.0567,-5.1757,0.52595,-0.01405,-0.68356,-44.34,-10.38,45.06
8.4446,-2.0567,-6.0202,0.39462,-0.068722,-0.62522,-45.06,-10.62,44.22
8.0088,-1.9886,-6.6331,0.20159,-0.25168,-0.53634,-45.78,-10.92,43.32
7.2188,-2.0567,-6.6467,0.094073,-0.30452,-0.47953,-47.16,-11.46,41.4
6.4833,-1.8387,-6.0202,0.16371,-0.25717,-0.38332,-47.64,-11.76,40.38
6.0883,-2.4108,-5.884,0.17562,-0.10171,-0.34697,-48.54,-12.3,38.64
6.5378,-2.6151,-5.7614,0.17562,-0.036957,-0.23854,-48.78,-12.48,37.86
6.7285,-2.4653,-5.7614,0.15088,0.054062,-0.14111,-49.02,-12.66,37.02
7.3141,-1.9341,-5.6252,0.073915,0.23396,-0.0067195,-49.32,-12.96,35.76
7.9951,-1.6208,-5.2302,0.0054978,0.44502,0.15241,-49.5,-12.9,35.16
8.4446,-1.3076,-4.5356,-0.087659,0.63774,0.23152,-49.5,-13.08,34.8
8.9077,-1.185,-4.5356,-0.13744,0.72876,0.2022,-49.62,-13.08,34.62
9.8748,-1.3212,-3.9363,-0.14355,0.686,0.19303,-49.68,-13.26,34.32
10.501,-1.2122,-3.8818,-0.14966,0.25443,0.18967,-49.98,-13.26,34.14
10.052,-1.3484,-3.7728,-0.12828,-0.026573,0.077274,-50.64,-13.56,34.14
9.9156,-1.362,-3.8954,-0.088575,-0.027489,0.0073304,-50.82,-13.68,34.2
9.5751,-1.4029,-4.2904,-0.10263,-0.072082,-0.049786,-51.06,-13.86,34.32
8.4174,-1.185,-4.7399,-0.077274,-0.074526,-0.065668,-51.54,-13.98,34.74
8.4446,-1.2939,-4.7944,-0.10079,0.030238,-0.033903,-51.78,-13.98,34.8
8.4446,-1.2667,-4.6037,-0.10415,0.084299,0.025962,-52.2,-14.16,34.92
8.9349,-1.2395,-4.2904,-0.092546,0.13683,0.034514,-52.86,-14.46,35.46
9.2482,-1.3757,-4.413,-0.092546,0.12645,0.012217,-53.16,-14.58,35.7
9.221,-1.471,-4.2904,-0.096822,0.046426,0.026573,-53.28,-14.88,35.76
8.8805,-1.4029,-4.413,-0.074526,-0.018937,0.0030543,-53.64,-15.24,35.82
8.7987,-1.4029,-4.5764,-0.07422,-0.028711,-0.0042761,-53.82,-15.3,35.88
8.7306,-1.3893,-4.5492,-0.065057,-0.013134,0.0030543,-53.76,-15.42,36.06
8.7579,-1.2395,-4.413,-0.059254,0.0088575,-0.010996,-53.64,-15.6,36.12
8.8396,-1.2667,-4.3858,-0.041539,0.028405,-0.023518,-53.52,-15.54,36.12
8.8668,-1.2667,-4.4402,-0.038485,0.028405,-0.016799,-53.4,-15.66,36.3
8.8668,-1.2122,-4.3585,-0.020159,0.035125,-0.0067195,-53.7,-15.72,36.3
8.8396,-1.1577,-4.2223,-0.01405,0.022907,-0.011301,-53.82,-15.78,36.42
8.826,-1.1169,-4.2495,-0.010079,0.030543,-0.0064141,-53.82,-15.78,36.54
8.8805,-1.1713,-4.2495,-0.012828,0.054367,-0.01069,-53.82,-15.84,36.42
9.0031,-1.2122,-4.2904,0.0039706,0.029016,-0.013744,-53.76,-15.84,36.42
9.1256,-1.185,-4.2359,0.0045815,-0.037263,-0.035125,-53.82,-15.84,36.6
8.7715,-1.2667,-4.3177,-0.0015272,-0.062614,-0.033903,-53.82,-15.96,36.66
8.8668,-1.2531,-4.3994,-0.011912,-0.076358,-0.036652,-53.88,-16.02,36.72
8.8668,-1.2803,-4.3449,-0.020464,-0.075747,-0.032376,-53.88,-16.02,36.66
8.7987,-1.2803,-4.3449,-0.030543,-0.072998,-0.020159,-53.82,-16.02,36.84
8.8532,-1.2395,-4.3994,-0.040623,-0.066584,-0.0051924,-53.94,-16.08,36.84
8.8668,-1.2395,-4.4539,-0.033903,-0.069944,-0.01069,-54.06,-16.14,36.78
8.7851,-1.2531,-4.4675,-0.028711,-0.090713,0.0073304,-53.82,-16.14,36.96
8.7579,-1.2803,-4.5356,-0.036652,-0.079107,0.0097738,-53.7,-16.14,36.96
8.7987,-1.362,-4.5083,-0.03879,-0.073915,0.0051924,-53.64,-16.08,36.96
8.7579,-1.2803,-4.522,-0.038485,-0.062308,0.007025,-53.4,-15.96,37.14
8.7034,-1.2531,-4.4402,-0.044899,-0.037568,0.0027489,-53.28,-16.14,37.2
8.7443,-1.2258,-4.4947,-0.041233,-0.027489,0.0039706,-53.22,-16.08,37.14
8.7306,-1.1713,-4.4539,-0.040928,-0.012828,0.010385,-53.16,-15.78,37.26
8.7443,-1.1169,-4.413,-0.034514,0.0018326,0.022907,-53.16,-15.66,37.26
8.8396,-1.1169,-4.413,-0.019853,0.0058032,0.015577,-53.22,-15.78,37.38
8.826,-1.1169,-4.3585,-0.022602,-0.0079412,0.022907,-53.34,-15.84,37.38
8.8532,-1.1305,-4.4675,-0.0012217,-0.031154,0.0076358,-53.4,-15.84,37.26
8.7987,-1.2667,-4.5764,-0.0085521,-0.038485,0.0042761,-53.1,-15.84,37.38
8.717,-1.2803,-4.5356,-0.0097738,-0.027489,0.0018326,-53.04,-15.84,37.44
8.7579,-1.2667,-4.5356,-0.015882,-0.01741,-0.0036652,-53.1,-16.02,37.32
8.7579,-1.3484,-4.5492,-0.025656,0.0042761,-0.0027489,-53.04,-16.14,37.26
8.7443,-1.2667,-4.5356,-0.025045,0.002138,0.0027489,-53.04,-16.2,37.26
8.8668,-1.185,-4.5083,-0.030543,-0.010385,0.0073304,-53.22,-16.2,37.2
8.7851,-1.2122,-4.6037,-0.03146,-0.012828,0.010385,-53.16,-16.2,37.26
8.7034,-1.2122,-4.5628,-0.043066,-0.01069,0.0030543,-53.1,-16.26,37.14
8.7034,-1.3348,-4.5083,-0.041539,0.013744,0.0097738,-52.98,-16.44,37.2
8.826,-1.2803,-4.5356,-0.051924,0.018937,0.0085521,-52.86,-16.32,37.08
8.8396,-1.2803,-4.5356,-0.048869,0.015577,-0.0027489,-52.8,-16.2,37.02
8.8805,-1.2531,-4.4947,-0.045509,-0.0076358,-0.0012217,-52.68,-16.14,36.96
8.8396,-1.2258,-4.4675,-0.053145,-0.035125,0.0018326,-52.74,-16.08,36.9
8.826,-1.1441,-4.4402,-0.042455,-0.042761,0.0030543,-52.68,-16.14,37.02
8.7715,-1.1577,-4.4811,-0.049175,-0.046426,0.0051924,-52.74,-16.14,36.96
8.6898,-1.1577,-4.5356,-0.046426,-0.042761,0.010079,-52.74,-16.02,36.9
8.7034,-1.185,-4.5356,-0.043066,-0.026267,0.010996,-52.74,-16.02,37.08
8.6762,-1.2258,-4.5764,-0.031154,-0.0051924,0.018326,-52.5,-16.08,36.96
8.7987,-1.185,-4.5901,-0.018631,-0.0033598,0.017104,-52.5,-15.96,37.02
8.717,-1.1713,-4.6445,-0.011606,-0.0015272,0.0079412,-52.38,-15.96,37.2
8.6762,-1.0896,-4.5356,-0.0094684,-0.000611,0.011912,-52.44,-15.84,37.08
8.6489,-1.1032,-4.5628,-0.027794,0.022297,0.031765,-52.38,-15.96,37.2
8.7306,-1.1169,-4.5901,-0.026878,0.039401,0.032987,-52.26,-16.08,37.2
8.7851,-1.1577,-4.5356,-0.028711,0.051007,0.032987,-52.14,-16.14,37.32
8.8396,-1.185,-4.5083,-0.020464,0.037568,0.03207,-52.08,-16.2,37.26
8.8805,-1.2531,-4.4811,-0.02474,0.0088575,0.032376,-52.14,-16.2,37.08
8.7443,-1.2803,-4.413,-0.0082467,-0.0054978,0.028711,-52.08,-16.38,37.08
8.6762,-1.3076,-4.4811,0.0015272,0.0067195,0.019548,-52.14,-16.44,37.2
8.7715,-1.2939,-4.5356,-0.0039706,0.019853,0.014355,-52.2,-16.44,36.96
8.826,-1.2258,-4.5083,-0.013134,0.021686,0.020769,-52.08,-16.38,37.02
8.8668,-1.2531,-4.5492,-0.021686,0.0079412,0.030543,-52.14,-16.44,36.78
8.826,-1.2395,-4.5356,-0.015882,-0.011606,0.023824,-52.14,-16.38,36.6
8.7579,-1.2122,-4.5492,-0.031765,-0.0085521,0.032987,-52.08,-16.5,36.66
8.7034,-1.2803,-4.5492,-0.023824,0.0045815,0.037263,-52.26,-16.44,36.6
8.6898,-1.3348,-4.5083,-0.030238,0.019242,0.039401,-52.38,-16.38,36.6
8.7443,-1.2667,-4.6037,-0.014355,0.019853,0.02474,-52.38,-16.38,36.48
8.7851,-1.2803,-4.5083,-0.012523,0.016188,0.022602,-52.44,-16.2,36.6
8.8396,-1.2803,-4.5356,-0.010996,0.009163,0.023518,-52.44,-16.14,36.54
8.7715,-1.2395,-4.5764,-0.01741,0.020769,0.020769,-52.5,-15.96,36.54
8.6898,-1.2122,-4.4811,-0.010385,0.037263,0.029322,-52.44,-15.84,36.42
8.7987,-1.2258,-4.522,-0.0076358,0.040317,0.034819,-52.44,-15.78,36.48
8.9077,-1.2395,-4.4811,-0.011912,0.018021,0.033292,-52.56,-15.78,36.42
8.8668,-1.2803,-4.4402,-0.010385,-0.002138,0.037263,-52.5,-15.84,36.48
8.7987,-1.2803,-4.5083,-0.0045815,-0.0094684,0.037874,-52.56,-15.96,36.48
8.7306,-1.2939,-4.5083,-0.012828,-0.0036652,0.029322,-52.8,-15.78,36.42
8.7306,-1.3212,-4.4811,-0.000611,0.010385,0.02474,-52.74,-15.78,36.42
8.7579,-1.2803,-4.3994,-0.0015272,0.0088575,0.028711,-52.8,-15.66,36.54
8.7987,-1.3484,-4.4402,-0.0085521,0.0048869,0.032376,-52.98,-15.6,36.72
8.7715,-1.2939,-4.3858,-0.0054978,0.0051924,0.03207,-53.04,-15.78,36.84
8.6898,-1.3076,-4.522,-0.016493,0.022297,0.039706,-53.04,-15.78,37.02
8.7987,-1.2939,-4.4811,-0.020159,0.027489,0.040928,-53.04,-15.6,37.08
8.826,-1.3212,-4.4675,-0.010079,0.014966,0.037263,-53.04,-15.48,37.14
8.7715,-1.3757,-4.4266,-0.01069,0.011301,0.039401,-53.16,-15.66,37.14
8.8396,-1.4029,-4.5492,-0.0018326,0.007025,0.030238,-53.28,-15.6,37.02
8.7987,-1.362,-4.4539,-0.0033598,0.0079412,0.026573,-53.28,-15.48,37.08
8.7851,-1.3757,-4.4402,-0.007025,0.0082467,0.030543,-53.4,-15.54,37.08
8.7987,-1.2531,-4.4675,-0.0067195,0.024129,0.043066,-53.22,-15.48,37.02
8.7306,-1.2531,-4.4675,-0.0067195,0.024129,0.043066,-53.22,-15.48,37.02
8.7851,-1.3212,-4.4675,-0.0067195,0.024129,0.043066,-53.1,-15.6,36.96
8.7987,-1.3484,-4.4402,-0.0079412,0.02138,0.04215,-53.16,-15.6,36.66
8.7987,-1.3757,-4.4675,0.0048869,0.018631,0.036957,-53.16,-15.42,36.36
8.826,-1.3484,-4.4266,-0.0018326,0.0048869,0.036041,-53.22,-15.36,36.12
8.7579,-1.3893,-4.4675,-0.0048869,0.017104,0.03207,-53.28,-15.36,36.12
8.8124,-1.4574,-4.3858,-0.0039706,0.020464,0.019548,-53.22,-15.54,35.94
8.8124,-1.4165,-4.4402,-0.0094684,0.02138,0.030238,-53.22,-15.42,35.94
8.8396,-1.4574,-4.3858,-0.014966,0.013439,0.028711,-53.4,-15.24,36.0
8.7987,-1.4301,-4.4266,-0.015272,0.007025,0.03879,-53.4,-15.24,36.12
8.7715,-1.4301,-4.4811,-0.012523,0.0015272,0.031765,-53.46,-15.06,36.18
8.7034,-1.3757,-4.4947,-0.018631,0.010996,0.029627,-53.4,-15.18,36.36
8.7987,-1.4982,-4.4402,-0.013134,0.017104,0.021686,-53.58,-15.12,36.24
8.8805,-1.4165,-4.4811,-0.023518,0.000611,0.013439,-53.7,-15.06,36.24
8.8532,-1.4438,-4.3449,-0.026878,0.000916,0.010079,-53.7,-15.0,36.36
8.7443,-1.3893,-4.3177,-0.033292,0.010079,0.019548,-53.64,-14.94,36.36
8.8532,-1.4029,-4.3177,-0.034208,0.010385,0.02138,-53.76,-14.88,36.36
8.9213,-1.3757,-4.4402,-0.039095,0.002138,0.019853,-53.7,-14.82,36.54
8.7306,-1.5119,-4.413,-0.033903,-0.0082467,0.01405,-53.7,-14.94,36.42
8.7987,-1.4982,-4.413,-0.030238,-0.0012217,0.000611,-53.76,-15.0,36.6
8.717,-1.5119,-4.4266,-0.037874,0.007025,0.000611,-53.7,-15.12,36.48
8.7987,-1.4165,-4.4947,-0.050702,0.019242,0.0015272,-53.7,-15.0,36.36
8.7443,-1.4165,-4.4266,-0.043677,0.012217,-0.0058032,-53.64,-14.82,36.42
8.9349,-1.4029,-4.413,-0.043677,-0.011301,-0.0039706,-53.58,-14.7,36.12
8.8668,-1.4165,-4.3721,-0.040623,-0.026267,0.0088575,-53.58,-14.64,35.94
8.8396,-1.4165,-4.6309,-0.039401,-0.023518,0.01405,-53.4,-14.34,36.12
8.7851,-1.3212,-4.5083,-0.041233,-0.0067195,0.018021,-53.4,-14.28,36.12
8.7715,-1.3348,-4.5083,-0.030849,-0.0033598,0.015272,-53.46,-14.34,36.12
8.7034,-1.4165,-4.5083,-0.032987,-0.0018326,0.0054978,-53.34,-14.34,36.24
8.6762,-1.471,-4.3994,-0.033903,0.0045815,-0.000305,-53.34,-14.4,36.12
8.7987,-1.4301,-4.4539,-0.042455,0.0079412,-0.0012217,-53.34,-14.4,36.24
8.8668,-1.3893,-4.3858,-0.04612,-0.0036652,-0.009163,-53.28,-14.4,36.06
8.8396,-1.3348,-4.4402,-0.048258,-0.0097738,-0.000611,-53.34,-14.46,36.12
8.826,-1.3757,-4.3858,-0.045509,-0.022297,0.0042761,-53.28,-14.52,36.12
8.7851,-1.4029,-4.5083,-0.046426,-0.018937,0.014661,-53.4,-14.7,36.12
8.7715,-1.4301,-4.4947,-0.040623,-0.013134,0.0097738,-53.28,-14.76,36.18
8.7715,-1.4301,-4.4811,-0.039095,0.0073304,0.0051924,-53.34,-15.06,36.3
8.8124,-1.3484,-4.4539,-0.036346,0.016799,-0.0012217,-53.52,-15.12,36.36
8.9077,-1.362,-4.413,-0.036957,0.012828,-0.0073304,-53.4,-15.18,36.36
8.9077,-1.4165,-4.3994,-0.041233,-0.0042761,0.0018326,-53.22,-15.12,36.36
8.7851,-1.4029,-4.413,-0.037874,-0.026267,-0.0024435,-53.16,-15.3,36.3
8.717,-1.4165,-4.413,-0.040012,-0.02138,-0.0048869,-53.16,-15.24,36.3
8.7715,-1.3484,-4.4402,-0.044288,0.000611,0.01069,-53.22,-15.06,36.3
8.8532,-1.3212,-4.413,-0.040623,0.000611,0.0045815,-53.16,-15.12,36.3
8.8532,-1.2803,-4.5628,-0.039095,0.0033598,0.0085521,-52.98,-15.0,36.24
8.826,-1.3212,-4.522,-0.038485,-0.0027489,0.0082467,-52.92,-15.06,36.24
8.7034,-1.3757,-4.5083,-0.029016,0.0018326,0.0045815,-52.86,-15.12,36.24
8.8532,-1.4165,-4.413,-0.034208,0.000611,0.0030543,-52.8,-15.0,36.18
8.8805,-1.4438,-4.3585,-0.035125,-0.0085521,-0.0033598,-52.74,-14.94,36.3
8.8668,-1.4165,-4.4402,-0.040623,-0.017715,-0.0012217,-52.62,-14.94,36.24
8.8532,-1.3212,-4.4675,-0.051924,-0.020464,-0.0015272,-52.62,-15.06,36.24
8.8124,-1.3212,-4.4811,-0.059559,-0.023518,0.011301,-52.56,-15.12,36.3
8.7851,-1.2667,-4.4947,-0.046731,-0.030849,0.0015272,-52.62,-15.06,36.3
8.7443,-1.2258,-4.5083,-0.037263,-0.025351,0.0064141,-52.62,-15.18,36.42
8.7306,-1.2803,-4.5083,-0.037874,-0.023518,0.0012217,-52.56,-15.12,36.36
8.7034,-1.2667,-4.5083,-0.041539,-0.0033598,-0.0018326,-52.62,-15.0,36.48
8.717,-1.2939,-4.5356,-0.034208,0.0036652,0.0079412,-52.62,-15.12,36.42
8.7443,-1.3212,-4.5083,-0.038485,-0.000611,0.0067195,-52.68,-15.12,36.48
8.826,-1.3348,-4.4811,-0.036652,-0.0076358,0.0054978,-52.5,-15.24,36.42
8.7715,-1.3757,-4.4947,-0.037568,-0.018021,0.0027489,-52.68,-15.12,36.36
8.7579,-1.3212,-4.5083,-0.040623,-0.016188,0.0036652,-52.62,-15.18,36.36
8.7443,-1.2667,-4.5628,-0.03879,-0.0067195,0.0048869,-52.68,-15.12,36.42
8.8532,-1.3076,-4.5356,-0.040012,-0.012217,0.01741,-52.74,-15.0,36.36
8.8396,-1.3757,-4.5083,-0.033292,-0.012217,0.010079,-52.92,-15.0,36.36
8.7579,-1.3484,-4.4539,-0.031765,-0.0076358,0.010385,-52.74,-15.0,36.42
8.8396,-1.2803,-4.4675,-0.037874,-0.010079,0.000305,-52.86,-14.94,36.36
8.7715,-1.2667,-4.5083,-0.039401,-0.0024435,-0.0030543,-52.8,-15.12,36.36
8.7715,-1.2803,-4.4402,-0.041539,-0.002138,-0.007025,-52.8,-15.06,36.3
8.8124,-1.2258,-4.4811,-0.04612,-0.0064141,0.000305,-52.92,-15.06,36.36
8.7851,-1.2395,-4.4811,-0.046426,-0.01405,0.0082467,-52.8,-15.0,36.42
8.8396,-1.2258,-4.5492,-0.045204,-0.021991,0.0079412,-52.98,-14.94,36.42
8.7034,-1.2395,-4.4947,-0.041844,-0.011606,0.016799,-52.98,-15.12,36.42
8.717,-1.2803,-4.5628,-0.041844,-0.0033598,0.0076358,-53.1,-15.24,36.3
8.7443,-1.2395,-4.4811,-0.036957,0.0036652,0.000916,-52.98,-15.3,36.42
8.7987,-1.3484,-4.4811,-0.038485,-0.0097738,0.0042761,-52.98,-15.3,36.42
8.826,-1.3212,-4.4539,-0.040012,-0.020159,-0.0012217,-52.92,-15.24,36.6
8.7306,-1.3484,-4.6718,-0.038179,-0.012828,-0.0054978,-53.04,-15.24,36.54
8.7306,-1.2531,-4.5764,-0.037568,-0.0082467,0.0012217,-52.92,-15.24,36.66
8.7715,-1.2531,-4.5083,-0.048564,-0.0058032,-0.000916,-53.1,-15.24,36.6
8.8124,-1.2258,-4.5083,-0.038179,-0.0076358,0.0061087,-52.92,-15.24,36.72
8.826,-1.2258,-4.522,-0.038485,-0.020159,0.0085521,-52.8,-15.42,36.84
8.717,-1.2531,-4.5356,-0.039095,-0.02474,0.0085521,-52.86,-15.42,36.78
8.7715,-1.2395,-4.522,-0.038485,-0.018021,0.013439,-52.74,-15.54,36.72
8.7987,-1.2803,-4.5356,-0.040317,-0.010385,0.000611,-52.68,-15.48,36.9
8.7851,-1.2803,-4.5764,-0.035125,-0.0027489,-0.0048869,-52.62,-15.36,37.02
8.8396,-1.2803,-4.5356,-0.048869,-0.015272,-0.009163,-52.62,-15.3,36.96
8.7306,-1.2122,-4.5628,-0.039401,-0.021991,-0.013744,-52.5,-15.48,36.9
8.7579,-1.1169,-4.5628,-0.055589,-0.029627,0.0024435,-52.5,-15.48,36.84
8.6898,-1.1713,-4.5083,-0.04612,-0.03207,0.010385,-52.44,-15.48,36.96
8.7306,-1.1577,-4.5356,-0.04215,-0.0064141,0.023213,-52.26,-15.6,36.96
8.6898,-1.2258,-4.6718,-0.040928,0.0051924,0.010079,-52.2,-15.54,37.02
8.6762,-1.2803,-4.5764,-0.03879,0.0097738,0.018326,-52.32,-15.54,36.96
8.8124,-1.2395,-4.5628,-0.030849,0.011606,0.018021,-52.32,-15.48,36.84
8.7443,-1.2395,-4.5764,-0.028405,-0.0082467,0.007025,-52.26,-15.6,36.9
8.7306,-1.2258,-4.6037,-0.03543,-0.0082467,0.0033598,-52.14,-15.6,36.96
8.7034,-1.2258,-4.6445,-0.042455,-0.01069,0.0015272,-52.14,-15.72,36.78
8.8124,-1.0624,-4.5628,-0.041539,-0.012217,0.0097738,-52.08,-15.78,36.72
8.7987,-1.2531,-4.5764,-0.04948,-0.014355,0.0079412,-52.14,-15.9,36.66
8.717,-1.1577,-4.5764,-0.048869,-0.016188,0.010385,-52.14,-15.96,36.6
8.6625,-1.2258,-4.6037,-0.043677,-0.000305,0.015272,-52.2,-16.14,36.48
8.7443,-1.2667,-4.5901,-0.042455,0.011912,0.021991,-52.08,-16.26,36.42
8.7851,-1.3212,-4.5356,-0.039706,0.026573,0.013134,-52.2,-16.38,36.48
8.8805,-1.2531,-4.4811,-0.032681,0.013439,0.0067195,-52.26,-16.44,36.48
8.8124,-1.2258,-4.522,-0.029322,-0.0079412,-0.0079412,-52.14,-16.56,36.6
8.6353,-1.1577,-4.6718,-0.021991,0.0045815,0.011606,-52.2,-16.68,36.54
8.7034,-1.1441,-4.5764,-0.030849,0.007025,0.022907,-52.2,-16.74,36.6
8.7034,-1.1169,-4.6445,-0.023824,0.010385,0.025351,-52.26,-16.74,36.66
8.7443,-1.1032,-4.6718,-0.027184,0.019242,0.032681,-52.32,-16.68,36.78
8.7306,-1.1713,-4.5492,-0.034819,0.014661,0.030238,-52.2,-16.74,36.84
8.6898,-1.1986,-4.5083,-0.033903,0.020769,0.03879,-52.14,-16.74,36.78
8.7306,-1.2531,-4.5356,-0.025962,0.021991,0.040012,-52.26,-16.62,36.78
8.6898,-1.2531,-4.5083,-0.023824,0.0048869,0.028405,-52.2,-16.5,36.78
8.7306,-1.3076,-4.4811,-0.016799,0.000611,0.030238,-52.2,-16.38,36.66
8.7034,-1.2667,-4.5083,-0.019242,0.013439,0.026267,-52.32,-16.32,36.6
8.7715,-1.2803,-4.5764,-0.015882,0.0085521,0.039401,-52.44,-16.38,36.54
8.7715,-1.2395,-4.4811,-0.023518,-0.0018326,0.040317,-52.62,-16.26,36.42
8.7443,-1.2395,-4.522,-0.02138,0.0039706,0.047953,-52.68,-16.08,36.48
8.7034,-1.2803,-4.5492,-0.017715,0.011606,0.039401,-52.5,-15.84,36.36
8.7443,-1.2667,-4.4811,-0.016493,0.019853,0.031154,-52.44,-15.66,36.36
8.7987,-1.2803,-4.4947,-0.013439,0.010079,0.030543,-52.44,-15.66,36.24
8.7851,-1.2803,-4.522,-0.019548,0.0076358,0.029322,-52.5,-15.54,36.3
8.7306,-1.3212,-4.4811,-0.030849,0.014355,0.033292,-52.5,-15.42,36.42
8.7851,-1.2803,-4.5764,-0.021686,0.021991,0.028405,-52.44,-15.42,36.3
8.8532,-1.3212,-4.4811,-0.027489,0.011301,0.035125,-52.62,-15.36,36.3
8.7987,-1.2258,-4.4539,-0.02474,0.018326,0.04612,-52.68,-15.36,36.3
8.7306,-1.2395,-4.5356,-0.016493,0.022297,0.043982,-52.56,-15.3,36.3
8.7443,-1.2531,-4.522,-0.014355,0.018631,0.041233,-52.5,-15.18,36.24
8.826,-1.3212,-4.5083,-0.011606,0.0030543,0.032987,-52.56,-15.12,36.06
8.7306,-1.2531,-4.5083,-0.0082467,0.0018326,0.03207,-52.62,-15.18,36.12
8.7715,-1.4165,-4.5356,-0.016188,0.029627,0.0281,-52.8,-15.18,36.3
8.8124,-1.3484,-4.5083,-0.0088575,0.03543,0.034514,-52.92,-15.24,36.36
8.8396,-1.362,-4.4675,-0.018326,0.024435,0.037263,-52.86,-15.24,36.36
8.8124,-1.2803,-4.4947,-0.017715,0.0061087,0.033903,-52.74,-15.36,36.18
8.7715,-1.2803,-4.5083,-0.015272,0.0036652,0.038179,-52.98,-15.42,36.24
8.7443,-1.3212,-4.5356,-0.0058032,0.0058032,0.03879,-52.92,-15.24,36.36
8.7987,-1.3757,-4.413,-0.0033598,0.021991,0.0281,-52.98,-15.3,36.48
8.826,-1.3757,-4.4266,-0.0064141,0.019548,0.025045,-52.98,-15.36,36.48
8.7987,-1.3212,-4.4266,-0.0085521,0.013134,0.018631,-53.04,-15.3,36.6
8.7987,-1.362,-4.3994,-0.02138,0.0036652,0.030543,-53.04,-15.24,36.72
8.7987,-1.3212,-4.4811,-0.029322,0.016799,0.03543,-52.92,-15.18,36.84
8.7715,-1.3757,-4.5356,-0.023824,0.018021,0.039706,-52.8,-15.18,36.78
8.7715,-1.3212,-4.4675,-0.018937,0.0030543,0.037568,-52.98,-15.12,36.72
8.7579,-1.3212,-4.5628,-0.017104,0.0082467,0.032681,-52.92,-15.12,36.54
8.7715,-1.3348,-4.5356,-0.016188,0.011301,0.036652,-52.98,-15.06,36.6
8.7987,-1.2939,-4.5083,-0.016799,0.016493,0.027184,-53.04,-15.06,36.66
8.7579,-1.362,-4.522,-0.018021,0.019548,0.025351,-52.98,-14.94,36.48
8.7715,-1.362,-4.5083,-0.019548,0.025656,0.018326,-53.04,-15.0,36.48
8.826,-1.3757,-4.4811,-0.023824,0.025962,0.014966,-52.98,-14.88,36.3
8.8941,-1.4574,-4.4402,-0.028405,0.011301,0.023213,-52.98,-14.76,36.42
8.826,-1.471,-4.4402,-0.027794,-0.000611,0.020159,-52.98,-14.7,36.3
8.7306,-1.4982,-4.5356,-0.030543,-0.011912,0.018021,-53.04,-14.52,36.36
8.7034,-1.4029,-4.5083,-0.044593,-0.009163,0.018326,-53.1,-14.7,36.24
8.6353,-1.4438,-4.5083,-0.030238,0.0067195,-0.0012217,-53.16,-14.76,36.24
8.7443,-1.5119,-4.4811,-0.036652,0.014661,-0.0012217,-53.16,-14.64,36.42
8.8668,-1.3893,-4.4811,-0.045815,0.012828,-0.011912,-53.22,-14.46,36.54
8.8805,-1.3484,-4.3858,-0.050702,-0.0012217,-0.0039706,-53.22,-14.52,36.54
8.8396,-1.3348,-4.413,-0.053145,-0.0045815,0.0027489,-53.16,-14.46,36.3
8.826,-1.362,-4.4266,-0.048564,-0.0024435,0.0054978,-53.22,-14.46,36.3
8.7715,-1.3757,-4.4539,-0.043066,0.0027489,0.0082467,-53.34,-14.52,36.36
8.8396,-1.3212,-4.4675,-0.035736,0.0085521,0.0054978,-53.34,-14.58,36.48
8.717,-1.3757,-4.5083,-0.035736,0.018631,0.000916,-53.34,-14.64,36.3
8.7851,-1.471,-4.5083,-0.036652,0.024435,0.000916,-53.28,-14.7,36.42
8.7987,-1.4029,-4.5083,-0.041233,0.013439,-0.0033598,-53.1,-14.7,36.3
8.826,-1.4165,-4.413,-0.050702,-0.000611,0.0039706,-52.98,-14.76,36.3
8.826,-1.3484,-4.3858,-0.043982,-0.013134,0.0051924,-52.98,-14.7,36.3
8.7443,-1.3212,-4.2904,-0.03879,-0.0082467,0.012523,-52.86,-14.7,36.18
8.9077,-1.2258,-4.4947,-0.036041,-0.0097738,0.022602,-52.68,-14.88,36.12
8.8532,-1.2939,-4.5083,-0.033292,-0.01069,0.027184,-52.68,-14.88,36.0
8.8941,-1.3212,-4.6037,-0.030849,-0.020769,0.028711,-52.74,-15.0,36.0
8.8124,-1.3757,-4.5764,-0.018326,-0.014661,0.023518,-52.68,-15.06,36.0
8.7715,-1.4165,-4.5083,-0.027489,-0.0030543,0.01405,-52.44,-15.06,35.94
8.8532,-1.4982,-4.4811,-0.031154,-0.02474,0.012217,-52.44,-15.06,36.0
8.8805,-1.471,-4.3858,-0.050702,-0.062614,0.02138,-52.44,-15.18,36.12
8.7851,-1.3348,-4.4675,-0.055283,-0.084299,0.036346,-52.5,-15.18,36.06
8.6762,-1.362,-4.5492,-0.061087,-0.068417,0.040928,-52.56,-15.36,36.3
8.6489,-1.3484,-4.5356,-0.061392,-0.050091,0.043371,-52.56,-15.3,36.18
8.7034,-1.2531,-4.5901,-0.055589,-0.03207,0.03207,-52.68,-15.18,36.3
8.6489,-1.2531,-4.5356,-0.057116,-0.0067195,0.014966,-52.74,-15.42,36.48
8.7443,-1.2531,-4.5083,-0.04215,0.011606,-0.0058032,-52.86,-15.36,36.54
8.7579,-1.2803,-4.4947,-0.036346,0.010079,-0.012523,-52.86,-15.3,36.84
8.7443,-1.2803,-4.4811,-0.036957,0.0036652,-0.019853,-52.86,-15.24,36.96
8.7443,-1.3757,-4.522,-0.037568,0.000916,-0.018021,-52.86,-15.24,37.02
8.7443,-1.3484,-4.5356,-0.041539,-0.000916,-0.029627,-52.86,-15.24,37.08
8.7034,-1.3484,-4.4811,-0.044593,-0.0018326,-0.019853,-52.98,-15.18,37.2
8.7715,-1.3484,-4.5492,-0.049175,-0.0036652,-0.016188,-53.04,-15.24,37.14
8.7579,-1.2939,-4.6037,-0.044899,0.0027489,-0.010385,-52.98,-15.3,37.2
8.7306,-1.3484,-4.5356,-0.041233,0.0097738,-0.013439,-52.92,-15.42,37.14
8.7306,-1.4165,-4.5628,-0.040317,0.023213,-0.019242,-52.86,-15.42,37.32
8.7306,-1.3757,-4.5492,-0.039401,0.020769,-0.027794,-52.8,-15.48,37.14
8.826,-1.2531,-4.4811,-0.032987,0.013439,-0.020159,-52.56,-15.48,37.02
8.826,-1.2803,-4.4402,-0.045204,0.0054978,-0.021686,-52.44,-15.48,37.08
8.8396,-1.2531,-4.4675,-0.035736,-0.0058032,-0.026267,-52.44,-15.66,36.96
8.8532,-1.1577,-4.4402,-0.047647,-0.019853,-0.0054978,-52.38,-15.6,36.9
8.7851,-1.1986,-4.5628,-0.04948,-0.021686,-0.011912,-52.32,-15.6,36.84
8.7306,-1.2258,-4.4811,-0.050091,-0.010079,0.0036652,-52.38,-15.72,36.9
8.7715,-1.0896,-4.4947,-0.044288,-0.0054978,-0.0027489,-52.32,-15.78,36.84
8.7579,-1.185,-4.5492,-0.040317,-0.0094684,-0.011912,-52.14,-15.6,36.9
8.7306,-1.1577,-4.6173,-0.042455,-0.013439,-0.000305,-52.26,-15.3,36.84
8.7715,-1.2667,-4.5628,-0.043677,-0.01069,0.0079412,-52.26,-15.36,36.78
8.7715,-1.2803,-4.522,-0.037874,-0.011912,0.01069,-52.32,-15.3,36.66
8.7715,-1.2939,-4.5764,-0.040623,-0.011606,0.013744,-52.32,-15.6,36.6
8.7306,-1.3076,-4.5356,-0.042761,-0.016493,0.011606,-52.38,-15.6,36.66
8.7851,-1.2258,-4.6582,-0.046426,-0.012523,0.0088575,-52.32,-15.78,36.6
8.7851,-1.2122,-4.5764,-0.049786,-0.017715,0.0061087,-52.2,-15.72,36.6
8.7443,-1.1305,-4.5764,-0.045204,-0.027794,0.0042761,-52.2,-15.84,36.72
8.7034,-1.1713,-4.5764,-0.044593,-0.035125,0.0033598,-52.26,-15.78,36.72
8.6898,-1.1577,-4.6173,-0.032376,-0.035125,0.010996,-51.96,-15.66,36.66
8.6489,-1.2122,-4.4811,-0.031765,-0.0076358,0.015272,-51.96,-15.66,36.78
8.7443,-1.2122,-4.5628,-0.034514,0.002138,0.013744,-52.02,-15.84,36.72
8.7034,-1.2803,-4.6445,-0.031154,-0.0064141,0.012828,-51.96,-16.02,36.78
8.826,-1.2531,-4.5628,-0.037263,-0.013744,0.021075,-51.96,-15.96,36.84
8.7443,-1.185,-4.6309,-0.03543,-0.01405,0.019548,-51.96,-15.96,37.02
8.7306,-1.185,-4.4947,-0.041539,-0.0048869,0.024129,-52.02,-15.66,37.02
8.7579,-1.2122,-4.6309,-0.039401,-0.000916,0.020159,-52.14,-15.72,37.08
8.7851,-1.1577,-4.4811,-0.037263,-0.01069,0.016493,-52.14,-15.6,37.02
8.7443,-1.185,-4.6445,-0.035736,-0.012523,0.010079,-52.14,-15.6,36.96
8.6762,-1.2258,-4.6037,-0.039401,-0.0094684,0.0073304,-52.14,-15.6,36.96
8.6898,-1.2258,-4.6718,-0.03879,-0.0061087,0.012217,-52.2,-15.6,36.9
8.7306,-1.2395,-4.5764,-0.039706,-0.0094684,0.018631,-52.38,-15.6,36.84
8.7034,-1.2395,-4.6309,-0.037568,-0.013134,0.012828,-52.38,-15.72,36.72
8.6898,-1.2531,-4.6037,-0.03207,-0.0045815,0.013439,-52.32,-15.54,36.72
8.8124,-1.2258,-4.6854,-0.033598,0.000611,0.018631,-52.14,-15.66,36.78
8.717,-1.2803,-4.6037,-0.029627,-0.0061087,0.014355,-52.08,-15.66,36.72
8.717,-1.2258,-4.6173,-0.034514,-0.000916,0.015882,-52.08,-15.78,36.6
8.717,-1.2258,-4.5356,-0.034819,-0.0027489,0.019242,-52.02,-16.02,36.54
8.7306,-1.2122,-4.6037,-0.032987,-0.0012217,0.01741,-51.9,-15.84,36.54
8.7579,-1.1441,-4.522,-0.040317,-0.0073304,0.009163,-52.14,-15.84,36.54
8.7306,-1.1441,-4.6037,-0.034208,-0.016493,0.0036652,-51.96,-15.9,36.42
8.7306,-1.1441,-4.6309,-0.035736,-0.002138,0.010385,-51.96,-15.9,36.36
8.7306,-1.2258,-4.6582,-0.043371,0.0082467,0.018021,-51.9,-15.96,36.36
8.7987,-1.1713,-4.699,-0.022602,0.0079412,0.020159,-51.9,-16.02,36.6
8.7715,-1.0896,-4.7399,-0.025656,0.0042761,0.01405,-51.96,-15.84,36.66
8.7034,-1.1305,-4.699,-0.023518,-0.0012217,0.021075,-52.08,-15.96,36.6
8.6898,-1.2531,-4.5083,-0.024129,0.020159,0.022602,-52.08,-15.9,36.48
8.7851,-1.2531,-4.5764,-0.025351,0.018326,0.020159,-52.2,-15.9,36.48
8.7579,-1.2395,-4.6854,-0.016799,0.0079412,0.023518,-52.08,-15.84,36.54
8.7443,-1.2531,-4.5356,-0.025656,0.0097738,0.030849,-52.14,-15.66,36.6
8.7034,-1.2258,-4.6037,-0.021075,0.0048869,0.029627,-52.2,-15.66,36.72
8.7851,-1.2395,-4.7263,-0.021075,0.013439,0.027794,-52.32,-15.6,36.72
8.7579,-1.1986,-4.6718,-0.016799,0.010079,0.029932,-52.38,-15.48,36.96
8.7306,-1.185,-4.6718,-0.02138,0.015882,0.03543,-52.38,-15.36,37.08
8.7306,-1.2122,-4.5901,-0.015272,0.012523,0.038485,-52.44,-15.36,37.14
8.717,-1.2803,-4.5764,-0.015272,0.030849,0.036957,-52.32,-15.54,36.96
8.7851,-1.2939,-4.6718,-0.0054978,0.023824,0.040012,-52.2,-15.66,37.02
8.7851,-1.2803,-4.4675,-0.0027489,0.0079412,0.031765,-52.14,-15.6,36.96
8.717,-1.2939,-4.5492,-0.013134,-0.009163,0.031765,-52.2,-15.66,36.78
8.6489,-1.1986,-4.5764,-0.025962,0.0042761,0.034514,-52.32,-15.6,36.72
8.7443,-1.1986,-4.5628,-0.023824,0.013134,0.037263,-52.5,-15.66,36.66
8.717,-1.2258,-4.4675,-0.028405,0.012828,0.039401,-52.44,-15.6,36.66
8.7715,-1.2531,-4.6173,-0.022602,0.017104,0.039706,-52.5,-15.78,36.66
8.7306,-1.2395,-4.5764,-0.012523,0.016493,0.038179,-52.38,-15.72,36.66
8.7715,-1.2531,-4.5083,-0.012217,0.022602,0.037874,-52.38,-15.66,36.54
8.7851,-1.2803,-4.3858,-0.0088575,0.022297,0.037263,-52.5,-15.66,36.42
8.7579,-1.3076,-4.5083,-0.0088575,0.016188,0.030849,-52.44,-15.66,36.42
8.7987,-1.3484,-4.5492,-0.01405,0.015272,0.030543,-52.56,-15.54,36.48
8.7579,-1.3484,-4.5764,-0.013134,0.027489,0.041233,-52.68,-15.36,36.42
8.7987,-1.3348,-4.5901,-0.0085521,0.027489,0.03879,-52.86,-15.48,36.48
8.7987,-1.2803,-4.4539,-0.014661,0.030238,0.035736,-52.8,-15.3,36.6
8.7987,-1.3212,-4.522,-0.013134,0.018326,0.037263,-52.92,-15.3,36.54
8.6898,-1.3212,-4.4811,-0.013744,0.019548,0.036652,-52.86,-15.36,36.6
8.7034,-1.3484,-4.5356,-0.009163,0.022297,0.044593,-52.92,-15.42,36.6
8.717,-1.3757,-4.5356,-0.010385,0.020769,0.034819,-52.86,-15.12,36.42
8.7579,-1.3348,-4.6173,-0.0036652,0.021686,0.029932,-52.98,-15.3,36.42
8.7851,-1.3348,-4.5764,-0.012828,0.026573,0.032681,-52.92,-15.36,36.54
8.7851,-1.2803,-4.5764,-0.025351,0.047037,0.036346,-52.98,-15.3,36.6
8.7715,-1.3212,-4.4402,-0.028405,0.048564,0.036652,-52.86,-15.24,36.6
8.7715,-1.3484,-4.4811,-0.015577,0.045815,0.032987,-52.8,-15.12,36.6
8.826,-1.3757,-4.4811,-0.019853,0.039706,0.029016,-52.8,-15.18,36.6
8.7987,-1.4165,-4.4675,-0.020159,0.03879,0.015882,-52.74,-14.94,36.48
8.7579,-1.4438,-4.4811,-0.020464,0.035736,0.010079,-52.74,-14.94,36.6
8.7579,-1.4029,-4.4675,-0.02138,0.037874,0.0051924,-52.56,-14.94,36.54
8.7851,-1.4165,-4.5083,-0.028711,0.036346,0.0097738,-52.68,-14.82,36.6
8.7579,-1.4165,-4.4402,-0.025962,0.032376,0.0097738,-52.74,-14.82,36.6
8.7987,-1.3484,-4.5492,-0.0281,0.02474,0.0058032,-52.8,-14.88,36.6
8.8396,-1.4165,-4.5356,-0.032376,0.022602,0.0067195,-52.74,-14.76,36.48
8.8124,-1.3348,-4.413,-0.043066,0.022297,0.0067195,-52.86,-14.76,36.36
8.7715,-1.4574,-4.4947,-0.048869,0.01069,-0.011301,-52.8,-14.82,36.18
8.7034,-1.3757,-4.4539,-0.05284,0.0064141,-0.0061087,-53.04,-14.88,36.12
8.826,-1.362,-4.4266,-0.0562,-0.000916,-0.0073304,-52.98,-14.88,36.06
8.8941,-1.3348,-4.4266,-0.052229,-0.01405,-0.019853,-53.1,-14.82,36.06
8.7987,-1.3076,-4.3858,-0.051313,-0.016493,-0.011912,-53.1,-14.88,36.24
8.7715,-1.3348,-4.3177,-0.061087,-0.0051924,-0.0079412,-53.1,-14.88,36.3
8.8941,-1.3348,-4.3858,-0.062003,-0.0015272,0.0024435,-53.16,-14.94,36.42
8.9213,-1.3212,-4.413,-0.043677,-0.012828,0.0045815,-53.04,-14.94,36.3
8.826,-1.2803,-4.4675,-0.047647,-0.021075,0.0097738,-52.98,-14.94,36.3
8.717,-1.2531,-4.5083,-0.045509,-0.01741,0.0048869,-53.04,-15.06,36.18
8.7034,-1.2803,-4.5764,-0.047037,0.000916,0.010079,-53.16,-15.0,36.3
8.7034,-1.2803,-4.5492,-0.046426,0.014355,0.000305,-53.04,-14.94,36.36
8.7443,-1.3484,-4.5492,-0.047342,0.010385,0.0027489,-53.16,-15.0,36.24
8.826,-1.3484,-4.522,-0.050702,0.0048869,0.000916,-53.16,-14.94,36.24
8.8396,-1.4029,-4.522,-0.049175,-0.0082467,0.0061087,-53.1,-15.0,36.3
8.7987,-1.3076,-4.4811,-0.04215,-0.012828,0.0045815,-53.04,-15.06,36.18
8.7306,-1.2258,-4.4539,-0.037874,-0.0030543,0.013439,-53.1,-15.12,36.18
8.7987,-1.2939,-4.413,-0.034208,0.0076358,0.016188,-53.04,-15.18,36.12
8.8668,-1.362,-4.3858,-0.033292,0.01069,0.017104,-53.1,-15.36,36.12
8.8396,-1.3212,-4.3858,-0.027794,-0.010079,0.010996,-53.04,-15.42,36.12
8.7579,-1.2939,-4.3994,-0.021991,-0.013439,0.010385,-53.1,-15.36,36.3
8.7306,-1.2531,-4.4811,-0.033292,-0.000916,-0.000611,-53.1,-15.36,36.3
8.7579,-1.2939,-4.5356,-0.04215,0.0079412,0.013744,-52.98,-15.42,36.12
8.7987,-1.2803,-4.5083,-0.03879,0.010079,0.01069,-52.98,-15.48,36.06
8.826,-1.2803,-4.4811,-0.046426,0.009163,0.0027489,-52.86,-15.48,36.24
8.8532,-1.2803,-4.4811,-0.047037,-0.0045815,-0.0030543,-52.74,-15.6,36.18
8.826,-1.2258,-4.4266,-0.043066,-0.0015272,-0.0064141,-52.8,-15.6,36.18
8.7987,-1.2803,-4.3858,-0.041539,0.000611,-0.010385,-52.86,-15.54,36.24
8.8124,-1.3348,-4.413,-0.048258,-0.0027489,-0.012217,-52.74,-15.54,36.24
8.8124,-1.3484,-4.3858,-0.051618,-0.0039706,-0.013744,-52.62,-15.42,36.24
8.8941,-1.3484,-4.413,-0.051313,-0.0079412,-0.014355,-52.62,-15.36,36.24
8.8941,-1.3484,-4.4402,-0.043677,-0.033598,-0.0064141,-52.8,-15.24,36.24
8.7443,-1.2258,-4.4402,-0.047953,-0.036957,-0.0076358,-52.68,-15.3,36.12
8.7715,-1.2258,-4.5083,-0.038179,-0.027184,-0.007025,-52.56,-15.3,36.12
8.7579,-1.1032,-4.4811,-0.041233,-0.01741,-0.0030543,-52.56,-15.36,36.3
8.7715,-1.1169,-4.5356,-0.040317,-0.019548,0.0030543,-52.56,-15.24,36.3
8.7034,-1.0896,-4.5356,-0.040928,-0.018937,0.012217,-52.56,-15.42,36.3
8.7715,-1.1577,-4.5083,-0.03879,-0.0030543,0.016188,-52.56,-15.36,36.3
8.7579,-1.185,-4.3994,-0.041844,0.0039706,0.016493,-52.5,-15.36,36.36
8.7715,-1.2803,-4.413,-0.038179,0.0048869,0.015882,-52.38,-15.6,36.42
8.8124,-1.3348,-4.4402,-0.043066,-0.0027489,0.017104,-52.26,-15.66,36.48
8.8532,-1.2258,-4.5083,-0.038179,-0.014355,0.0076358,-52.2,-15.72,36.36
8.7987,-1.3076,-4.5083,-0.038485,-0.018021,0.0027489,-52.2,-15.78,36.42
8.7715,-1.2803,-4.4539,-0.044899,-0.015882,0.000611,-52.14,-15.84,36.42
8.8124,-1.185,-4.4811,-0.040928,-0.016799,-0.000916,-52.02,-15.9,36.48
8.7851,-1.1441,-4.5083,-0.04215,-0.011301,-0.000305,-52.08,-15.9,36.48
8.717,-1.1169,-4.522,-0.051007,-0.0064141,0.009163,-51.96,-15.84,36.48
8.717,-1.1305,-4.5083,-0.047037,-0.0094684,0.011606,-52.02,-15.78,36.54
8.7443,-1.1577,-4.4947,-0.036957,-0.010996,0.0045815,-52.08,-15.72,36.42
8.7579,-1.2395,-4.4947,-0.04215,-0.012523,0.0094684,-52.02,-15.72,36.54
8.7034,-1.2395,-4.6037,-0.039095,-0.0018326,0.000611,-52.08,-15.66,36.48
8.7443,-1.2395,-4.4402,-0.034514,0.000611,0.0024435,-52.14,-15.6,36.42
8.7443,-1.1986,-4.5083,-0.034514,-0.0018326,-0.0051924,-52.26,-15.6,36.36
8.7579,-1.1713,-4.5356,-0.034208,-0.0030543,0.0054978,-52.2,-15.66,36.42
8.826,-1.1577,-4.5492,-0.030238,-0.0082467,0.01069,-52.08,-15.6,36.48
8.7987,-1.1577,-4.6037,-0.032681,-0.01069,0.015577,-51.96,-15.6,36.6
8.7715,-1.1986,-4.4947,-0.033598,-0.010079,0.010079,-52.2,-15.66,36.42
8.7851,-1.2531,-4.4539,-0.041539,-0.0061087,0.009163,-52.08,-15.72,36.54
8.6353,-1.2939,-4.4402,-0.039706,-0.010079,0.0027489,-52.14,-15.66,36.48
8.7443,-1.185,-4.4947,-0.038485,-0.0073304,-0.0024435,-52.08,-15.72,36.48
8.7851,-1.2258,-4.5764,-0.038179,-0.015882,0.0088575,-52.14,-15.9,36.6
8.7306,-1.1577,-4.5764,-0.035736,-0.014966,0.014355,-52.14,-16.02,36.66
8.6762,-1.0624,-4.5764,-0.033292,-0.012217,0.022297,-52.2,-16.02,36.66
8.6762,-1.1577,-4.5764,-0.023213,0.000916,0.026878,-52.14,-16.02,36.72
8.7034,-1.1169,-4.6309,-0.027489,0.024129,0.032987,-52.2,-16.02,36.66
8.717,-1.1169,-4.5492,-0.023213,0.027184,0.037874,-52.2,-16.08,36.72
8.717,-1.1169,-4.5492,-0.019548,0.021686,0.036957,-52.2,-16.08,36.78
8.717,-1.1169,-4.5492,-0.026878,0.019242,0.038179,-52.2,-16.08,36.78
8.7034,-1.3076,-4.4675,-0.026573,0.011912,0.033292,-52.32,-16.14,36.6
8.717,-1.2803,-4.4675,-0.023518,0.011301,0.023213,-52.14,-16.26,36.78
8.7851,-1.2667,-4.5492,-0.017715,0.018326,0.029016,-52.2,-16.2,36.9
8.8124,-1.2803,-4.5764,-0.016799,0.015272,0.030238,-52.2,-16.14,36.78
8.8124,-1.2258,-4.5083,-0.019853,0.015882,0.037568,-52.38,-16.32,36.78
8.7715,-1.2803,-4.4675,-0.020464,0.014355,0.040928,-52.08,-16.44,36.78
8.7443,-1.2395,-4.5083,-0.019853,0.014966,0.036652,-51.78,-16.2,36.6
8.7715,-1.2531,-4.4266,-0.019853,0.020769,0.040928,-51.54,-16.38,36.54
8.8668,-1.2667,-4.5083,-0.020769,0.016188,0.040012,-51.0,-16.5,36.6
8.7987,-1.2531,-4.4811,-0.019853,0.0085521,0.031154,-50.82,-16.5,36.48
8.7034,-1.2122,-4.5356,-0.02474,-0.0033598,0.029932,-50.28,-16.5,36.48
8.7306,-1.2258,-4.5764,-0.018631,0.0024435,0.036957,-49.98,-16.5,36.42
8.7715,-1.2258,-4.413,-0.028711,0.02138,0.036652,-49.44,-16.62,36.42
8.7579,-1.2122,-4.4675,-0.025656,0.026573,0.049175,-49.44,-16.32,36.3
8.7987,-1.1986,-4.522,-0.023518,0.025045,0.046426,-49.68,-16.2,36.54
8.826,-1.2803,-4.5356,-0.013744,0.024435,0.047342,-49.86,-16.26,36.66
8.7851,-1.3076,-4.4811,-0.015577,0.019548,0.048564,-50.4,-16.14,36.48
8.8941,-1.4029,-4.5356,-0.012217,0.012828,0.050396,-50.58,-16.02,36.3
8.7579,-1.3757,-4.522,-0.0094684,0.0085521,0.044593,-51.06,-16.02,36.12
8.7579,-1.3484,-4.4539,-0.010079,0.014355,0.046426,-51.84,-15.96,36.24
8.7987,-1.3484,-4.4402,-0.015272,0.023213,0.033903,-52.14,-15.84,36.24
8.7715,-1.2803,-4.5083,-0.01741,0.0281,0.028711,-52.38,-15.84,36.12
8.8668,-1.2122,-4.4539,-0.011301,0.032681,0.040012,-52.5,-15.84,36.06
8.8668,-1.2122,-4.5083,-0.01405,0.021991,0.039401,-52.44,-15.6,36.0
8.7579,-1.1713,-4.5356,-0.012217,0.014966,0.05284,-52.5,-15.48,36.06
8.7851,-1.2803,-4.5083,-0.0042761,0.016188,0.056505,-52.5,-15.3,36.18
8.7715,-1.4165,-4.4266,-0.0024435,0.022602,0.051618,-52.5,-15.24,36.18
8.8941,-1.4846,-4.3858,-0.0039706,0.01741,0.041539,-52.62,-15.18,36.24
8.8668,-1.4165,-4.3858,-0.016799,0.0094684,0.032376,-52.62,-15.12,36.24
8.8396,-1.4165,-4.3585,-0.021991,0.0051924,0.045204,-52.5,-15.12,35.82
8.8532,-1.4029,-4.4811,-0.034208,0.018326,0.034514,-52.56,-15.06,35.82
8.826,-1.362,-4.3858,-0.029627,-0.0097738,0.018326,-52.8,-15.12,35.94
8.7987,-1.3212,-4.5356,-0.03543,-0.013439,0.021075,-52.74,-15.0,36.12
8.717,-1.2803,-4.4539,-0.040012,-0.000916,0.017104,-52.56,-15.06,36.12
8.7306,-1.2531,-4.5083,-0.037263,0.018631,0.010385,-52.56,-15.06,36.12
8.8396,-1.3212,-4.413,-0.032681,0.028405,0.014355,-52.62,-15.06,36.06
8.8532,-1.4165,-4.4539,-0.032681,0.020464,0.016799,-52.62,-15.12,36.06
8.7443,-1.4438,-4.5083,-0.037874,0.011912,0.007025,-52.8,-15.06,36.0
8.7443,-1.4574,-4.4402,-0.036346,0.01405,0.0054978,-52.8,-15.06,35.94
8.8805,-1.4438,-4.4811,-0.037874,0.018326,0.013134,-52.68,-15.06,35.94
8.8941,-1.3757,-4.4402,-0.03879,0.011606,0.002138,-52.74,-15.18,35.94
8.8941,-1.3212,-4.3721,-0.042761,-0.0051924,0.0027489,-52.8,-15.24,36.06
8.8668,-1.2939,-4.4402,-0.037568,-0.0073304,-0.000611,-52.8,-15.18,36.12
8.826,-1.3484,-4.4539,-0.047647,-0.01405,-0.011606,-52.68,-15.12,36.0
8.826,-1.3348,-4.4402,-0.051924,-0.012828,-0.013439,-52.74,-15.06,35.88
8.8396,-1.2803,-4.413,-0.053145,0.0012217,-0.01069,-52.92,-15.18,35.82
8.7987,-1.3212,-4.4675,-0.054062,-0.0079412,-0.0051924,-52.92,-15.24,35.82
8.7987,-1.3757,-4.4402,-0.054672,-0.0033598,-0.000916,-53.1,-15.36,35.76
8.7987,-1.362,-4.5083,-0.054367,-0.016799,0.0030543,-53.1,-15.48,35.64
8.8124,-1.3484,-4.4947,-0.051313,-0.027794,-0.0036652,-53.16,-15.54,35.7
8.7987,-1.362,-4.5492,-0.050396,-0.026878,-0.0039706,-53.1,-15.54,35.58
8.826,-1.3076,-4.4539,-0.047953,-0.0051924,-0.013439,-53.22,-15.48,35.7
8.7987,-1.3076,-4.4402,-0.049786,-0.0015272,-0.0036652,-53.28,-15.54,35.7
8.8532,-1.3484,-4.413,-0.049175,-0.0058032,-0.0088575,-53.28,-15.42,35.7
8.7851,-1.3348,-4.4539,-0.055894,-0.014355,-0.0061087,-53.16,-15.48,35.82
8.8396,-1.3212,-4.4402,-0.040928,-0.0088575,-0.009163,-52.92,-15.9,35.94
8.8124,-1.2803,-4.4402,-0.037263,0.000305,-0.0088575,-52.86,-15.78,35.94
8.826,-1.2395,-4.4811,-0.04215,0.0015272,-0.012217,-52.74,-15.72,36.12
8.7987,-1.2531,-4.5356,-0.03207,0.000305,-0.010385,-52.62,-15.78,36.24
8.8124,-1.2531,-4.4266,-0.035736,-0.0039706,-0.0036652,-52.56,-15.78,36.42
8.7851,-1.2258,-4.3994,-0.029322,-0.007025,-0.0042761,-52.5,-15.72,36.24
8.7987,-1.2939,-4.4539,-0.03146,-0.0076358,0.0012217,-52.38,-15.6,36.3
8.7987,-1.3212,-4.4539,-0.033903,-0.01069,0.0058032,-52.32,-15.72,36.42
8.7715,-1.2258,-4.4539,-0.033903,-0.0024435,-0.015272,-52.44,-15.72,36.24
8.8124,-1.3212,-4.4266,-0.04948,-0.0051924,-0.0064141,-52.56,-15.36,36.18
8.826,-1.2939,-4.413,-0.049786,-0.013439,0.0061087,-52.62,-15.42,36.18
8.8941,-1.2531,-4.4675,-0.044288,-0.032987,0.0051924,-52.74,-15.42,36.24
8.7306,-1.2531,-4.5492,-0.051618,-0.039706,0.010385,-52.74,-15.54,36.06
8.7443,-1.2531,-4.5083,-0.047037,-0.019548,0.016799,-52.74,-15.6,36.12
8.7715,-1.2258,-4.5083,-0.043371,-0.012217,0.012217,-52.86,-15.66,36.12
8.8532,-1.185,-4.4811,-0.04612,-0.011301,0.007025,-52.98,-15.6,36.18
8.7851,-1.2122,-4.4402,-0.043677,-0.020159,0.0015272,-52.92,-15.78,36.24
8.7715,-1.2258,-4.4402,-0.047037,-0.019853,0.0030543,-52.92,-15.78,36.24
8.826,-1.2258,-4.5764,-0.043371,-0.025962,0.0097738,-52.86,-15.78,36.12
8.7579,-1.2258,-4.5492,-0.044593,-0.013134,0.020159,-52.74,-15.78,36.18
8.7579,-1.2531,-4.5356,-0.043371,-0.0079412,0.020159,-52.68,-15.78,36.3
8.7715,-1.2531,-4.5356,-0.042761,-0.0061087,0.016493,-52.62,-15.72,36.3
8.7306,-1.2803,-4.4539,-0.034819,-0.012217,0.022297,-52.56,-15.72,36.48
8.826,-1.2395,-4.5356,-0.036957,-0.01741,0.023213,-52.56,-15.66,36.3
8.7715,-1.2395,-4.5356,-0.04215,-0.015272,0.017715,-52.62,-15.66,36.3
8.8532,-1.185,-4.5356,-0.040928,0.0015272,0.011912,-52.68,-15.6,36.48
8.7851,-1.2258,-4.4947,-0.04215,-0.0067195,-0.0018326,-52.62,-15.66,36.48
8.7579,-1.2258,-4.4947,-0.044288,-0.0048869,-0.012217,-52.56,-15.66,36.48
8.7987,-1.1577,-4.3994,-0.04612,-0.0094684,-0.01741,-52.5,-15.78,36.42
8.7306,-1.1713,-4.4402,-0.04612,-0.015577,-0.0061087,-52.5,-15.72,36.54
8.7306,-1.2258,-4.522,-0.037263,-0.027184,0.010079,-52.56,-15.78,36.54
8.7306,-1.2258,-4.5901,-0.03543,-0.016799,0.023518,-52.62,-15.84,36.42
8.7306,-1.2531,-4.6173,-0.036346,-0.0030543,0.021075,-52.56,-15.9,36.48
8.7579,-1.2803,-4.5356,-0.037874,0.0094684,0.013744,-52.62,-16.08,36.3
8.8668,-1.2122,-4.522,-0.036652,0.0088575,0.0061087,-52.56,-16.02,36.36
8.8124,-1.1986,-4.522,-0.035125,-0.0048869,0.0054978,-52.44,-16.14,36.42
8.8124,-1.185,-4.5492,-0.03879,-0.015272,-0.000916,-52.38,-15.96,36.48
8.7306,-1.2939,-4.5356,-0.047647,-0.017104,-0.0030543,-52.14,-16.02,36.3
8.7443,-1.1713,-4.5492,-0.039706,-0.019853,0.0015272,-52.2,-15.9,36.24
8.7306,-1.2122,-4.522,-0.034819,-0.014661,0.0067195,-52.08,-15.96,36.24
