Ax,Ay,Az,Gx,Gy,Gz,Mx,My,Mz
5.8295,-0.65378,-7.9134,-0.040623,0.0018326,0.019242,-18.3,4.02,28.86
5.8704,-0.61292,-7.9407,-0.034208,-0.000916,0.021075,-18.42,4.2,28.98
5.9112,-0.64016,-7.927,-0.033598,0.0054978,0.021075,-18.42,4.32,29.04
5.9385,-0.57205,-7.9679,-0.040623,0.0012217,0.025656,-18.36,4.2,29.22
5.9385,-0.57205,-7.9679,-0.029016,0.0012217,0.025656,-18.36,4.2,29.04
5.8704,-0.58567,-7.8453,-0.03146,-0.0024435,0.021075,-18.36,4.26,29.1
5.775,-0.58567,-7.8998,-0.034514,-0.0064141,0.023518,-18.36,4.26,28.86
5.8976,-0.61292,-7.9679,-0.034819,0.0012217,0.026573,-18.24,4.32,28.92
5.9249,-0.64016,-8.0224,-0.034208,-0.0073304,0.020159,-18.12,4.5,28.8
5.8159,-0.64016,-7.9407,-0.030543,-0.012828,0.011301,-17.94,4.38,28.8
5.7886,-0.61292,-7.927,-0.03879,0.0024435,0.015577,-17.76,4.56,28.74
5.8295,-0.57205,-7.9407,-0.045815,0.010996,0.02138,-17.76,4.62,28.68
5.9112,-0.55843,-7.9134,-0.04215,0.0076358,0.018021,-17.7,4.8,28.74
5.8976,-0.5993,-7.8726,-0.025045,-0.000611,0.025351,-17.64,4.8,28.62
5.8704,-0.61292,-7.8589,-0.027489,-0.010996,0.024129,-17.7,4.74,28.68
5.8704,-0.64016,-7.9951,-0.034819,-0.015577,0.024435,-17.82,4.98,28.5
5.8431,-0.6674,-7.9134,-0.031154,-0.0079412,0.02474,-17.82,4.98,28.68
5.8295,-0.62654,-7.8998,-0.039095,-0.0045815,0.019242,-17.88,4.98,28.62
5.8295,-0.57205,-7.927,-0.039095,-0.0012217,0.025045,-17.88,4.92,28.68
5.8704,-0.57205,-7.8998,-0.037874,-0.0030543,0.024435,-17.94,4.92,28.62
5.8023,-0.55843,-7.927,-0.035736,-0.0027489,0.025656,-17.94,4.68,28.74
5.8431,-0.54481,-7.9951,-0.034514,-0.0085521,0.023213,-18.06,4.74,28.86
5.8704,-0.64016,-8.0224,-0.027794,-0.0067195,0.019242,-18.18,4.74,28.8
5.775,-0.65378,-8.0224,-0.030238,-0.0085521,0.020159,-18.0,4.62,28.86
5.8023,-0.5993,-8.0088,-0.034819,-0.0076358,0.022297,-18.12,4.56,28.8
5.8023,-0.61292,-8.0632,-0.033903,-0.0024435,0.025045,-18.18,4.5,28.86
5.8023,-0.61292,-8.0224,-0.032681,0.0027489,0.019548,-18.18,4.56,28.92
5.8976,-0.64016,-8.0224,-0.042455,0.0012217,0.015272,-18.12,4.44,29.04
5.8023,-0.5993,-7.8726,-0.03879,0.013439,0.022907,-18.06,4.5,28.92
5.8295,-0.55843,-7.927,-0.033292,0.0085521,0.025045,-17.88,4.8,28.92
5.8704,-0.70826,-7.9951,-0.037263,-0.002138,0.025656,-17.82,4.92,28.92
5.884,-0.5993,-7.9407,-0.032681,-0.014966,0.021991,-17.76,4.8,28.8
5.8159,-0.6674,-8.1177,-0.032987,-0.012217,0.015577,-17.76,4.8,28.68
5.7614,-0.64016,-8.0632,-0.027794,-0.0088575,0.0039706,-17.76,4.8,28.56
5.7342,-0.69464,-8.0496,-0.033598,0.011912,0.0036652,-17.88,4.68,28.5
5.7886,-0.6674,-8.0769,-0.044593,0.025351,0.016188,-17.82,4.68,28.68
5.7614,-0.57205,-7.9543,-0.051313,0.032987,0.015882,-17.76,4.8,28.74
5.884,-0.51757,-7.8998,-0.038485,0.01741,0.019853,-17.76,4.8,28.56
5.9793,-0.54481,-7.8726,-0.029322,-0.0045815,0.023213,-17.7,4.68,28.38
5.8976,-0.61292,-8.0224,-0.022602,-0.016493,0.015272,-17.7,4.68,28.38
5.884,-0.5993,-8.0224,-0.03207,-0.0030543,0.010996,-17.88,4.32,28.5
5.775,-0.61292,-8.1041,-0.041539,0.000916,0.015882,-17.94,4.2,28.5
5.7614,-0.61292,-8.0224,-0.041844,0.013134,0.01405,-18.0,4.26,28.44
5.8431,-0.5993,-7.927,-0.03543,0.011606,0.012523,-18.18,4.44,28.44
5.775,-0.57205,-7.9407,-0.032987,0.0018326,0.010996,-18.06,4.32,28.5
5.8159,-0.58567,-8.0224,-0.029932,-0.0030543,0.016188,-18.06,4.26,28.56
5.8431,-0.61292,-7.9951,-0.029322,0.0018326,0.015882,-18.18,4.56,28.32
5.8159,-0.57205,-7.8998,-0.031765,0.0039706,0.013439,-18.24,4.56,28.44
5.8023,-0.64016,-7.9951,-0.032376,-0.000305,0.011912,-18.18,4.44,28.38
5.884,-0.64016,-7.9951,-0.044593,0.010996,0.010079,-18.12,4.56,28.56
5.8704,-0.57205,-7.9407,-0.031154,0.0042761,0.010079,-18.18,4.62,28.5
5.8431,-0.5993,-7.9951,-0.035736,0.0082467,0.010385,-18.06,4.44,28.44
5.8295,-0.64016,-7.9679,-0.038179,0.013439,0.010079,-18.12,4.5,28.26
5.8976,-0.57205,-7.9134,-0.026878,0.0082467,0.0042761,-18.18,4.44,28.32
5.8976,-0.61292,-8.0769,-0.032681,0.010385,0.012828,-18.18,4.32,28.44
5.8976,-0.54481,-7.9543,-0.033292,0.002138,0.022907,-18.0,4.38,28.56
5.8295,-0.55843,-7.9407,-0.029322,-0.0015272,0.015882,-18.06,4.5,28.62
5.8023,-0.50395,-7.9134,-0.033292,-0.0067195,0.021686,-18.06,4.62,28.68
5.8704,-0.61292,-7.9543,-0.029322,-0.0051924,0.018937,-17.94,4.5,28.86
5.8704,-0.65378,-7.927,-0.029322,-0.0024435,0.018326,-17.94,4.5,28.8
5.9249,-0.65378,-8.0224,-0.030238,-0.0051924,0.010079,-18.0,4.68,28.74
5.8704,-0.64016,-8.0088,-0.041539,-0.0012217,0.0088575,-18.12,4.68,28.8
5.8295,-0.54481,-7.9951,-0.03543,0.0064141,0.0094684,-18.12,4.68,28.8
5.8295,-0.54481,-7.8589,-0.038485,0.014355,0.014966,-18.18,4.8,28.8
5.8976,-0.5993,-7.9134,-0.036346,0.013134,0.011606,-18.12,4.8,28.98
5.884,-0.57205,-7.8998,-0.03146,-0.0012217,0.010996,-18.18,4.86,28.98
5.9112,-0.61292,-7.927,-0.035736,-0.0039706,0.014355,-18.12,4.92,29.04
5.8704,-0.64016,-7.9951,-0.040317,-0.0015272,0.013134,-18.18,4.74,28.92
5.8704,-0.58567,-7.8998,-0.037263,-0.002138,0.017104,-18.06,4.8,28.86
5.8567,-0.58567,-7.927,-0.036346,-0.0012217,0.021075,-18.06,4.62,28.86
5.8431,-0.58567,-7.9679,-0.03146,-0.000305,0.015272,-18.12,4.62,28.74
5.8431,-0.58567,-7.9815,-0.033598,-0.0048869,0.013439,-18.12,4.38,28.86
5.8567,-0.61292,-7.927,-0.030238,-0.0027489,0.013439,-18.18,4.32,28.74
5.8159,-0.5993,-7.9679,-0.040928,0.0018326,0.020159,-18.12,4.26,28.68
5.8295,-0.55843,-7.9679,-0.038179,-0.0033598,0.010385,-18.12,4.38,28.8
5.8431,-0.57205,-7.9815,-0.041539,0.0067195,0.016493,-18.12,4.26,28.86
5.8976,-0.64016,-7.9815,-0.032987,0.000611,0.011912,-18.12,4.26,28.8
5.8023,-0.61292,-7.9543,-0.033292,-0.0076358,0.0094684,-17.94,4.38,28.86
5.8023,-0.58567,-7.9407,-0.030849,-0.007025,0.015882,-17.82,4.32,28.68
5.8704,-0.58567,-7.9951,-0.036346,-0.000611,0.012217,-18.0,4.38,28.74
5.8704,-0.57205,-7.9679,-0.033903,0.01069,0.013134,-18.06,4.44,28.8
5.9112,-0.54481,-7.9407,-0.034819,0.013744,0.02474,-18.06,4.56,28.74
5.9657,-0.57205,-7.8589,-0.026267,0.000611,0.016799,-18.12,4.5,28.86
5.8023,-0.55843,-7.8726,-0.024129,-0.016188,0.015577,-18.18,4.68,28.68
5.8567,-0.58567,-7.9543,-0.031154,-0.017104,0.022297,-18.24,4.86,28.98
5.8023,-0.64016,-7.927,-0.025351,-0.0094684,0.02474,-18.36,4.86,29.04
5.8567,-0.69464,-7.9951,-0.025351,-0.014966,0.018937,-18.3,4.8,29.04
5.8976,-0.61292,-7.9951,-0.036346,-0.011606,0.009163,-18.36,4.92,28.98
5.8431,-0.61292,-7.9951,-0.036346,-0.0079412,0.015882,-18.18,4.8,28.86
5.8295,-0.53119,-7.8998,-0.041844,0.0064141,0.020464,-18.48,4.8,28.8
5.8567,-0.57205,-7.8181,-0.031154,0.0051924,0.013744,-18.54,4.68,28.74
5.8567,-0.57205,-7.8181,-0.033598,-0.0061087,0.022907,-18.54,4.68,28.74
5.8704,-0.57205,-7.9951,-0.027794,-0.011606,0.021991,-18.36,4.44,28.74
5.8704,-0.61292,-8.0224,-0.024435,-0.015272,0.016493,-18.24,4.56,28.86
5.8431,-0.65378,-7.9815,-0.03207,-0.01405,0.016493,-18.18,4.56,28.8
5.8159,-0.61292,-7.9543,-0.036652,-0.000916,0.021075,-17.94,4.56,28.8
5.8704,-0.61292,-7.927,-0.03879,-0.0027489,0.019853,-17.7,4.44,28.86
5.8704,-0.5993,-7.927,-0.026573,-0.000611,0.01741,-17.76,4.44,28.86
5.8567,-0.64016,-7.8998,-0.029932,-0.0094684,0.021075,-17.64,4.68,28.98
5.8295,-0.61292,-7.9815,-0.035736,-0.0067195,0.015882,-17.64,4.62,29.04
5.884,-0.57205,-7.8998,-0.03879,-0.01069,0.020159,-17.46,4.62,29.16
5.8704,-0.58567,-7.9815,-0.032681,-0.01069,0.020464,-17.52,4.8,29.22
5.8567,-0.61292,-8.0632,-0.037874,-0.0039706,0.018326,-17.76,4.74,29.22
5.8023,-0.58567,-7.927,-0.033292,-0.000611,0.018937,-17.7,4.5,29.16
5.8295,-0.57205,-7.927,-0.034514,0.0051924,0.013134,-17.64,4.44,29.1
5.8431,-0.61292,-7.8998,-0.044593,0.0033598,0.0073304,-17.64,4.62,29.1
5.8704,-0.57205,-7.9134,-0.032376,0.0073304,0.013134,-17.7,4.5,29.22
5.8023,-0.65378,-7.8998,-0.036041,0.0088575,0.018631,-17.7,4.5,29.22
5.8704,-0.5993,-7.9407,-0.025962,0.0048869,0.010996,-17.7,4.5,29.16
5.8976,-0.53119,-7.9679,-0.035125,0.0045815,0.021075,-17.76,4.56,29.16
5.8295,-0.50395,-7.9134,-0.033292,-0.0067195,0.011606,-17.94,4.56,29.1
5.8295,-0.58567,-7.8998,-0.025962,-0.010079,0.026267,-17.88,4.62,29.04
5.7886,-0.62654,-8.0224,-0.026573,-0.014661,0.023213,-17.94,4.62,28.8
5.8567,-0.61292,-7.9543,-0.023824,-0.0079412,0.010996,-17.82,4.62,28.98
5.7886,-0.64016,-7.8453,-0.043371,-0.0024435,0.012828,-17.88,4.62,29.1
5.8295,-0.57205,-7.9134,-0.041233,0.012523,0.0076358,-17.94,4.62,29.16
5.8295,-0.58567,-7.927,-0.046731,0.021991,0.0094684,-18.0,4.56,29.1
5.8704,-0.55843,-7.8045,-0.036652,0.0061087,0.018631,-18.18,4.56,29.04
5.9112,-0.5993,-7.9543,-0.032987,-0.0067195,0.015577,-18.06,4.62,28.8
5.8976,-0.61292,-7.8589,-0.030849,-0.012523,0.024129,-18.06,4.56,28.68
5.884,-0.5993,-7.927,-0.031154,-0.007025,0.015882,-18.18,4.68,28.92
5.8567,-0.64016,-8.0632,-0.031765,-0.000916,0.023824,-18.18,4.68,28.86
5.8295,-0.54481,-7.8998,-0.033903,0.0033598,0.015882,-18.0,4.68,28.86
5.8295,-0.57205,-7.9679,-0.031765,0.000305,0.019548,-18.0,4.62,28.86
5.8704,-0.53119,-7.9679,-0.0281,-0.0036652,0.015577,-17.94,4.68,28.86
5.8023,-0.57205,-7.927,-0.036346,-0.0033598,0.019242,-18.0,4.5,28.68
5.8295,-0.54481,-8.036,-0.030238,-0.007025,0.021686,-18.06,4.62,28.62
5.8295,-0.61292,-7.9679,-0.034514,-0.0036652,0.024129,-18.06,4.56,28.5
5.8295,-0.54481,-7.9815,-0.034208,-0.0024435,0.018631,-18.12,4.56,28.62
5.8704,-0.57205,-7.9543,-0.028711,0.002138,0.022297,-17.88,4.56,28.62
5.8023,-0.53119,-7.8862,-0.036652,0.0054978,0.023213,-18.0,4.56,28.68
5.8567,-0.53119,-7.8589,-0.03146,-0.0018326,0.019853,-18.12,4.5,28.8
5.8295,-0.58567,-7.8998,-0.026573,-0.0079412,0.022602,-18.12,4.62,28.74
5.884,-0.50395,-7.9951,-0.030543,-0.0094684,0.010996,-17.94,4.56,28.86
5.8295,-0.64016,-8.0632,-0.034819,-0.0033598,0.01405,-17.94,4.62,28.98
5.8159,-0.58567,-8.0224,-0.043371,0.012217,0.023213,-17.94,4.68,28.86
5.8431,-0.64016,-8.0088,-0.028405,0.0088575,0.018937,-17.94,4.62,28.98
5.8295,-0.5993,-7.9543,-0.045509,0.0018326,0.024435,-17.88,4.8,29.1
5.7886,-0.61292,-7.8726,-0.027489,-0.0085521,0.026267,-17.88,4.8,29.1
5.8295,-0.5993,-7.8317,-0.038485,-0.0079412,0.026573,-17.88,4.86,29.34
5.8567,-0.64016,-7.9134,-0.027794,-0.0073304,0.017104,-17.88,4.8,29.22
5.8023,-0.64016,-8.0632,-0.037568,-0.0097738,0.020159,-17.82,4.74,29.4
5.8567,-0.61292,-7.9951,-0.03207,0.0045815,0.017715,-17.82,4.86,29.4
5.7614,-0.57205,-8.0769,-0.041844,0.014661,0.011301,-17.88,4.8,29.46
5.8976,-0.57205,-7.8317,-0.042761,0.025045,0.016188,-17.82,4.62,29.28
5.9249,-0.54481,-7.8317,-0.032681,0.0094684,0.024435,-17.82,4.62,29.16
5.8704,-0.53119,-7.8589,-0.022602,-0.0048869,0.020159,-17.82,4.56,29.28
5.8704,-0.57205,-7.9951,-0.02474,-0.022297,0.021991,-17.94,4.5,29.34
5.8295,-0.58567,-8.1177,-0.037874,-0.011912,0.020159,-17.82,4.56,29.28
5.7069,-0.61292,-8.036,-0.033598,-0.011606,0.019548,-17.88,4.44,29.22
5.7614,-0.57205,-7.9951,-0.039401,0.0088575,0.021991,-18.12,4.44,29.16
5.8704,-0.64016,-7.9679,-0.036957,0.0042761,0.020159,-18.18,4.38,28.98
5.8295,-0.57205,-7.9407,-0.032987,0.0039706,0.021991,-18.18,4.44,28.98
5.8431,-0.5993,-7.9543,-0.03146,0.000305,0.024129,-18.18,4.44,28.74
5.8431,-0.57205,-7.9407,-0.029627,0.0024435,0.020159,-18.18,4.5,28.62
5.8295,-0.65378,-7.8317,-0.040012,-0.002138,0.027489,-18.24,4.56,28.5
5.8159,-0.64016,-7.9815,-0.035736,-0.0051924,0.017104,-18.24,4.56,28.5
5.8704,-0.64016,-7.927,-0.039095,0.000305,0.011301,-18.24,4.62,28.56
5.8704,-0.61292,-8.0224,-0.03146,0.0024435,0.021686,-18.24,4.5,28.38
5.9112,-0.58567,-7.9134,-0.033903,0.0061087,0.022602,-18.24,4.5,28.32
5.8431,-0.64016,-7.927,-0.039401,0.0024435,0.02138,-18.3,4.44,28.26
5.8159,-0.64016,-7.8998,-0.03207,0.000611,0.01741,-18.18,4.44,28.26
5.8295,-0.58567,-7.8862,-0.027489,0.0024435,0.020159,-17.94,4.44,28.26
5.8023,-0.55843,-8.0088,-0.035125,-0.000916,0.022297,-17.82,4.5,28.38
5.9249,-0.58567,-7.9679,-0.035125,-0.000305,0.024435,-17.82,4.5,28.32
5.8023,-0.58567,-7.9951,-0.033292,-0.0073304,0.018631,-17.94,4.44,28.38
5.8023,-0.55843,-7.9134,-0.034208,-0.0082467,0.020464,-17.94,4.32,28.44
5.775,-0.5993,-7.9951,-0.033903,-0.0045815,0.022602,-17.82,4.44,28.38
5.8023,-0.6674,-7.9679,-0.034514,-0.0054978,0.020464,-17.82,4.5,28.32
5.8567,-0.68102,-7.8998,-0.042761,-0.0036652,0.017104,-17.82,4.38,28.44
5.8704,-0.57205,-8.0224,-0.037874,0.0018326,0.012828,-17.76,4.56,28.38
5.8295,-0.50395,-7.927,-0.044899,0.012217,0.019853,-17.7,4.44,28.38
5.8431,-0.50395,-7.8726,-0.040623,0.007025,0.020159,-17.58,4.38,28.38
5.9657,-0.61292,-7.8998,-0.026878,-0.0033598,0.025351,-17.52,4.56,28.56
5.8704,-0.64016,-7.927,-0.025045,-0.014661,0.026573,-17.52,4.44,28.32
5.8159,-0.64016,-7.9679,-0.027794,-0.02138,0.030543,-17.52,4.56,28.44
5.8295,-0.62654,-7.9679,-0.037874,-0.012828,0.025045,-17.34,4.38,28.56
5.7614,-0.64016,-7.9407,-0.041233,-0.0015272,0.028405,-17.46,4.2,28.62
5.8295,-0.54481,-8.0224,-0.038179,-0.000611,0.025045,-17.4,4.26,28.68
5.8704,-0.57205,-7.9679,-0.033292,-0.007025,0.020159,-17.4,4.32,28.74
5.8159,-0.5993,-7.927,-0.033903,-0.0051924,0.022602,-17.52,4.44,28.86
5.8159,-0.61292,-7.9679,-0.029322,-0.010079,0.014355,-17.46,4.26,28.74
5.7886,-0.61292,-7.9951,-0.033598,-0.007025,0.015577,-17.46,4.26,28.86
5.8159,-0.58567,-7.9407,-0.037263,0.0015272,0.018326,-17.46,4.38,28.92
5.8023,-0.62654,-8.0088,-0.034208,0.0094684,0.01405,-17.58,4.32,28.86
5.8431,-0.57205,-7.927,-0.030849,0.012217,0.019548,-17.4,4.38,28.62
5.9249,-0.61292,-7.8998,-0.0281,0.009163,0.016188,-17.46,4.44,28.62
5.7886,-0.65378,-7.9815,-0.029016,-0.0079412,0.018326,-17.7,4.44,28.38
5.8295,-0.62654,-7.9679,-0.039401,-0.0033598,0.014355,-17.82,4.44,28.5
5.7886,-0.65378,-8.0224,-0.03207,-0.0018326,0.0088575,-17.76,4.5,28.44
5.8704,-0.61292,-7.9134,-0.042761,0.017104,0.014661,-17.82,4.38,28.26
5.8976,-0.50395,-8.0496,-0.028711,0.0039706,0.021686,-17.88,4.44,28.38
5.8976,-0.54481,-7.9951,-0.030849,-0.0036652,0.01741,-18.0,4.62,28.5
5.8159,-0.57205,-8.0632,-0.030849,-0.0042761,0.011606,-18.06,4.62,28.56
5.8431,-0.68102,-7.9951,-0.029322,-0.0036652,0.0076358,-18.18,4.56,28.56
5.8023,-0.6674,-8.0496,-0.037874,0.000916,0.0076358,-18.24,4.5,28.38
5.8295,-0.61292,-8.0224,-0.036346,0.013439,0.0054978,-18.24,4.56,28.5
5.775,-0.54481,-8.0088,-0.046426,0.025045,0.012217,-18.24,4.56,28.62
5.884,-0.57205,-7.9407,-0.036652,0.029627,0.0064141,-18.18,4.26,28.62
5.9249,-0.54481,-7.8317,-0.033903,0.011912,0.014355,-18.06,4.26,28.8
5.8976,-0.65378,-7.927,-0.0281,-0.0027489,0.011912,-18.12,4.26,28.68
5.8704,-0.64016,-8.0088,-0.027489,-0.015272,0.012217,-18.24,4.08,28.68
5.8159,-0.64016,-8.0224,-0.032987,-0.013744,0.016188,-18.18,4.14,28.8
5.7614,-0.62654,-8.0224,-0.032681,0.0061087,0.009163,-18.18,4.2,28.74
5.8704,-0.61292,-7.9815,-0.034514,0.011606,0.0088575,-18.0,4.02,28.44
5.8295,-0.64016,-7.9815,-0.039095,0.0079412,0.015882,-18.0,4.02,28.44
5.7886,-0.61292,-8.0224,-0.029016,0.0048869,0.014966,-17.88,4.14,28.32
5.8704,-0.5993,-8.0224,-0.032987,0.0045815,0.011606,-17.82,4.08,28.5
5.8976,-0.5993,-7.9407,-0.037568,0.0079412,0.0076358,-17.82,4.08,28.44
5.8431,-0.61292,-7.8317,-0.03146,0.010079,0.01069,-17.88,4.14,28.44
5.8976,-0.61292,-7.8862,-0.026573,0.0061087,0.0088575,-17.82,4.26,28.56
5.884,-0.58567,-7.9951,-0.03146,0.0079412,0.013439,-17.88,4.32,28.38
5.8567,-0.61292,-8.0088,-0.033292,0.0064141,0.015882,-17.82,4.38,28.44
5.8704,-0.54481,-7.9815,-0.024129,-0.000611,0.0082467,-17.82,4.38,28.44
5.8159,-0.64016,-7.9679,-0.023518,0.0051924,0.015577,-17.76,4.44,28.44
5.7886,-0.57205,-8.0088,-0.037263,0.013744,0.015577,-17.82,4.32,28.56
5.8431,-0.57205,-7.927,-0.03543,0.02474,0.0079412,-17.82,4.38,28.68
5.8976,-0.55843,-7.927,-0.033292,0.018631,0.01741,-18.06,4.38,28.74
5.9521,-0.61292,-7.8726,-0.029932,0.0067195,0.012523,-18.18,4.5,28.62
5.9112,-0.58567,-7.8998,-0.032376,-0.0097738,0.01069,-18.0,4.44,28.74
5.8023,-0.53119,-7.9679,-0.025351,-0.0094684,0.014966,-18.0,4.38,28.62
5.8704,-0.6674,-7.9679,-0.032987,0.0064141,0.019242,-18.24,4.5,28.62
5.8704,-0.65378,-7.9815,-0.026267,-0.0051924,0.01069,-18.18,4.56,28.56
5.9112,-0.6674,-7.9679,-0.032376,-0.0051924,0.0073304,-18.3,4.44,28.5
5.8295,-0.57205,-7.9951,-0.038485,-0.015882,0.0079412,-18.36,4.44,28.44
5.7614,-0.55843,-7.9815,-0.04215,0.0036652,0.014355,-18.18,4.56,28.38
5.7886,-0.55843,-7.927,-0.040928,0.015882,0.0097738,-18.0,4.56,28.44
5.8431,-0.57205,-7.8317,-0.030849,0.017104,0.016799,-18.0,4.56,28.44
5.8976,-0.54481,-7.8589,-0.032376,0.0082467,0.02138,-18.06,4.56,28.38
5.9521,-0.64016,-7.927,-0.033292,-0.0048869,0.021991,-17.82,4.5,28.44
5.8976,-0.61292,-7.9134,-0.034514,-0.012828,0.018937,-17.58,4.32,28.44
5.8704,-0.54481,-8.0632,-0.026573,-0.0082467,0.019548,-17.76,4.32,28.44
5.8704,-0.55843,-7.9815,-0.029322,-0.000611,0.0085521,-17.88,4.44,28.44
5.8704,-0.57205,-7.927,-0.040623,0.0058032,0.021991,-17.88,4.44,28.38
5.8295,-0.55843,-8.0496,-0.029932,0.007025,0.0094684,-17.94,4.26,28.44
5.884,-0.54481,-7.9815,-0.043982,0.0042761,0.014661,-18.0,4.32,28.56
5.8704,-0.53119,-7.9679,-0.029932,-0.0088575,0.016493,-17.88,4.08,28.56
5.8295,-0.5993,-7.9134,-0.03146,-0.010079,0.01069,-17.94,4.02,28.44
5.8704,-0.61292,-7.927,-0.036346,-0.0036652,0.013744,-18.06,3.96,28.5
5.8295,-0.65378,-7.8589,-0.032376,0.000916,0.018631,-18.0,3.84,28.38
5.8704,-0.5993,-7.9815,-0.043982,0.0018326,0.015882,-18.0,3.78,28.38
5.8704,-0.64016,-8.036,-0.033903,-0.000916,0.019853,-18.18,3.78,28.44
5.8431,-0.55843,-7.9815,-0.037874,-0.0027489,0.01405,-18.42,3.9,28.56
5.8704,-0.64016,-7.927,-0.037874,0.0024435,0.013134,-18.24,4.08,28.62
5.8704,-0.57205,-7.9679,-0.032987,0.0027489,0.013439,-18.12,4.14,28.68
5.8295,-0.55843,-7.8998,-0.036652,0.0064141,0.020159,-18.0,4.02,28.62
5.8023,-0.47671,-7.8862,-0.030238,0.0051924,0.017715,-17.94,4.14,28.74
5.8704,-0.54481,-7.8998,-0.023518,-0.012828,0.019242,-17.82,4.2,28.68
5.8567,-0.68102,-8.0224,-0.031765,-0.012217,0.020769,-17.88,4.32,28.74
5.8704,-0.61292,-7.9951,-0.028711,-0.014355,0.014661,-17.94,4.32,28.74
5.9249,-0.57205,-8.0224,-0.03207,-0.010079,0.014966,-18.0,4.5,28.8
5.8295,-0.5993,-8.0496,-0.03879,0.0030543,0.0097738,-17.94,4.56,28.8
5.8159,-0.54481,-8.0632,-0.041233,0.015882,0.014661,-18.0,4.74,28.8
5.8976,-0.50395,-7.8589,-0.035125,0.013744,0.01069,-17.94,4.62,28.8
5.9249,-0.50395,-7.9543,-0.03543,0.000305,0.013134,-17.94,4.68,28.92
5.8567,-0.61292,-7.927,-0.03146,-0.017715,0.024129,-18.24,4.56,28.92
5.8976,-0.61292,-7.9815,-0.030543,-0.021686,0.018937,-18.12,4.68,28.86
5.8295,-0.6674,-7.9679,-0.03543,-0.014355,0.023518,-18.06,4.56,29.04
5.8295,-0.53119,-8.0632,-0.032376,0.0018326,0.013439,-18.18,4.44,28.92
5.8431,-0.58567,-7.9951,-0.036346,0.0054978,0.023824,-18.06,4.38,29.04
5.8704,-0.5993,-7.9679,-0.037568,0.0045815,0.018631,-18.12,4.26,29.04
5.8976,-0.57205,-7.8998,-0.038179,0.000305,0.013134,-18.12,4.32,29.1
5.775,-0.5993,-7.8862,-0.031765,-0.0015272,0.013134,-18.06,4.44,29.1
5.8431,-0.54481,-7.8726,-0.035125,-0.000305,0.016799,-18.0,4.44,29.1
5.8567,-0.5993,-7.8862,-0.029627,-0.002138,0.023518,-18.12,4.38,29.04
5.8704,-0.64016,-7.9815,-0.039095,-0.0042761,0.025045,-18.0,4.32,28.98
5.8159,-0.61292,-7.9679,-0.037568,-0.0030543,0.016188,-18.0,4.38,28.8
5.8567,-0.50395,-7.9543,-0.03146,-0.0012217,0.014355,-17.82,4.2,28.56
5.8023,-0.54481,-7.9815,-0.032376,0.0039706,0.021075,-17.94,4.32,28.62
5.8431,-0.51757,-7.9951,-0.034514,0.0067195,0.017104,-17.94,4.38,28.56
5.9249,-0.57205,-7.8998,-0.033598,-0.0027489,0.013744,-18.06,4.5,28.5
5.8567,-0.57205,-7.9815,-0.039095,0.0079412,0.014966,-18.18,4.62,28.44
5.8704,-0.54481,-7.9543,-0.035736,0.013439,0.019548,-18.12,4.74,28.44
5.884,-0.5993,-7.9679,-0.038179,0.0061087,0.02138,-18.06,4.56,28.26
5.8295,-0.62654,-7.8589,-0.033903,-0.0064141,0.021075,-18.24,4.44,28.32
5.8295,-0.58567,-7.9815,-0.029932,-0.0045815,0.023213,-18.3,4.44,28.38
5.884,-0.6674,-8.0632,-0.033903,-0.0033598,0.021991,-18.18,4.5,28.38
5.8295,-0.62654,-8.0088,-0.027489,-0.0042761,0.014661,-18.3,4.62,28.44
5.8023,-0.61292,-7.9951,-0.032681,0.000916,0.01405,-18.3,4.56,28.56
5.8159,-0.53119,-7.927,-0.043677,0.011606,0.016493,-18.18,4.56,28.68
5.8704,-0.57205,-7.9134,-0.039401,0.01405,0.018326,-18.24,4.5,28.74
5.884,-0.57205,-7.9134,-0.036041,0.0015272,0.018937,-18.18,4.56,28.8
5.8704,-0.54481,-7.8589,-0.038179,-0.011606,0.030543,-18.12,4.68,28.92
5.8023,-0.61292,-7.9815,-0.027184,-0.012217,0.026878,-18.12,4.68,28.92
5.8431,-0.57205,-7.927,-0.027489,-0.021075,0.022907,-18.06,4.62,28.98
5.8567,-0.5993,-7.9951,-0.022297,-0.013134,0.02138,-18.12,4.62,29.1
5.8976,-0.61292,-8.0224,-0.031765,-0.0036652,0.027184,-18.12,4.62,28.98
5.8704,-0.61292,-7.9679,-0.030238,-0.0030543,0.016188,-18.06,4.8,28.98
5.8704,-0.62654,-7.8998,-0.034514,0.0012217,0.021991,-17.94,4.86,29.04
5.7614,-0.64016,-7.927,-0.035736,0.007025,0.019548,-17.88,4.92,28.98
5.8159,-0.61292,-7.9679,-0.037568,0.0030543,0.02474,-17.88,4.86,28.92
5.8159,-0.54481,-8.0632,-0.041844,0.0058032,0.01741,-17.88,4.92,29.04
5.8295,-0.55843,-7.9951,-0.029322,-0.0027489,0.01405,-17.82,4.86,28.98
5.8295,-0.46309,-8.0496,-0.032376,-0.0030543,0.02474,-17.82,4.8,28.98
5.7614,-0.57205,-7.9679,-0.035736,0.0015272,0.022602,-17.64,4.68,29.04
5.8023,-0.5993,-7.9951,-0.040317,0.0039706,0.029016,-17.64,4.56,28.98
5.8431,-0.62654,-7.8998,-0.037263,0.009163,0.023824,-17.58,4.62,28.86
5.884,-0.54481,-7.9951,-0.033292,0.0018326,0.021075,-17.58,4.62,28.8
5.8704,-0.61292,-7.9543,-0.032681,0.000916,0.016188,-17.64,4.62,28.8
5.8976,-0.5993,-7.9679,-0.038179,0.0048869,0.020464,-17.76,4.38,28.8
5.884,-0.5993,-8.0632,-0.039095,0.0015272,0.021686,-17.76,4.26,28.74
5.8704,-0.58567,-7.8998,-0.029932,-0.0024435,0.022907,-17.76,4.14,28.68
5.8023,-0.5993,-7.9951,-0.03543,-0.0067195,0.022602,-17.94,4.08,28.62
5.9249,-0.58567,-7.9951,-0.041539,-0.0039706,0.023518,-17.88,4.08,28.56
5.8431,-0.64016,-8.0088,-0.034514,0.0048869,0.017715,-17.88,4.14,28.62
5.8295,-0.69464,-7.9951,-0.039401,-0.0064141,0.018937,-18.24,4.2,28.5
5.7205,-0.57205,-8.0224,-0.031154,0.0064141,0.014966,-18.36,4.2,28.62
5.7886,-0.61292,-7.8998,-0.038179,0.014966,0.019853,-18.24,4.2,28.56
5.7614,-0.54481,-7.8317,-0.04215,0.013744,0.019853,-18.48,4.32,28.68
5.884,-0.57205,-7.8862,-0.031765,0.0061087,0.018937,-18.48,4.32,28.68
5.8976,-0.5993,-7.9407,-0.027184,-0.0012217,0.025045,-18.42,4.32,28.68
5.8023,-0.6674,-8.0224,-0.027794,-0.0097738,0.019853,-18.42,4.38,28.8
5.8023,-0.61292,-7.9815,-0.037263,-0.0048869,0.01741,-18.36,4.5,28.68
5.8704,-0.61292,-7.9679,-0.043371,-0.0012217,0.019548,-18.3,4.56,28.68
5.8295,-0.5993,-7.9679,-0.041844,0.0061087,0.024435,-18.24,4.56,28.68
5.8431,-0.55843,-7.9407,-0.044899,-0.002138,0.019242,-18.18,4.68,28.68
5.8704,-0.61292,-7.9951,-0.032681,0.0012217,0.018021,-18.18,4.56,28.56
5.8023,-0.68102,-7.9679,-0.027184,-0.0064141,0.018021,-17.94,4.56,28.62
5.8159,-0.64016,-7.8998,-0.030238,-0.0024435,0.020464,-17.94,4.5,28.56
5.8295,-0.64016,-7.9951,-0.033903,0.0054978,0.019548,-18.0,4.62,28.62
5.884,-0.61292,-7.8862,-0.034208,-0.0094684,0.026267,-17.94,4.56,28.62
5.8976,-0.62654,-7.8998,-0.031765,-0.019242,0.021686,-17.94,4.62,28.56
5.8295,-0.58567,-7.8998,-0.034514,-0.023518,0.022297,-18.0,4.68,28.5
5.7886,-0.57205,-8.0088,-0.032987,-0.015882,0.017104,-18.06,4.74,28.44
5.8023,-0.61292,-7.9815,-0.038179,-0.012217,0.025656,-18.18,4.8,28.56
5.8023,-0.51757,-7.9951,-0.038179,0.0033598,0.023213,-18.18,4.8,28.56
5.8704,-0.57205,-7.8998,-0.041844,0.011301,0.022602,-18.36,4.68,28.56
5.9385,-0.57205,-7.9134,-0.030238,0.002138,0.026878,-18.48,4.68,28.62
5.9385,-0.57205,-7.927,-0.030238,-0.022907,0.023824,-18.48,4.8,28.68
5.8023,-0.64016,-7.9679,-0.029016,-0.022297,0.023824,-18.6,4.86,28.68
5.7342,-0.61292,-7.9951,-0.033292,-0.012828,0.030849,-18.6,4.92,28.62
5.7886,-0.65378,-8.0769,-0.026878,-0.012523,0.019548,-18.72,4.92,28.68
5.6661,-0.74912,-8.0632,-0.042761,-0.0027489,0.022602,-18.72,5.04,28.68
5.8295,-0.61292,-8.0224,-0.040012,0.0012217,0.013439,-18.72,5.04,28.8
5.8023,-0.55843,-8.0905,-0.047037,0.025045,0.014661,-18.72,4.86,28.8
5.8976,-0.57205,-7.8181,-0.037874,0.024129,0.018937,-18.48,4.68,28.62
5.8976,-0.64016,-7.9134,-0.036041,0.010996,0.018326,-18.42,4.56,28.5
5.8704,-0.58567,-7.8998,-0.0281,-0.0097738,0.019853,-18.48,4.62,28.56
5.775,-0.6674,-8.0088,-0.024129,-0.015882,0.015577,-18.42,4.44,28.56
5.7614,-0.64016,-8.0088,-0.039706,-0.0051924,0.01405,-18.42,4.5,28.56
5.8023,-0.64016,-7.9951,-0.036957,0.0027489,0.014966,-18.42,4.5,28.56
5.8295,-0.57205,-7.8862,-0.035125,0.010385,0.016188,-18.36,4.62,28.62
5.8295,-0.57205,-7.9679,-0.035736,0.0082467,0.012217,-18.3,4.56,28.68
5.8976,-0.57205,-7.8998,-0.029627,-0.0024435,0.014661,-18.24,4.56,28.62
5.8023,-0.64016,-7.9407,-0.03543,-0.007025,0.015272,-18.18,4.62,28.62
5.8023,-0.61292,-7.9951,-0.029322,-0.0082467,0.0097738,-18.06,4.74,28.74
5.7614,-0.61292,-7.9679,-0.037874,-0.0015272,0.0085521,-18.06,4.68,28.74
5.8295,-0.61292,-7.9679,-0.039706,0.018326,0.0094684,-18.18,4.86,28.74
5.775,-0.64016,-7.9815,-0.041233,0.020769,0.0094684,-18.24,4.98,28.92
5.7886,-0.68102,-7.927,-0.040317,0.022297,0.013744,-18.18,4.86,28.98
5.8295,-0.64016,-7.927,-0.027794,0.0079412,0.012828,-18.06,5.1,29.1
5.8976,-0.61292,-7.9679,-0.037263,0.0039706,0.013744,-18.0,5.22,28.92
5.8567,-0.57205,-7.9543,-0.025656,-0.0018326,0.012523,-18.0,5.22,28.8
5.8704,-0.57205,-7.8998,-0.03207,0.0076358,0.01405,-18.0,5.16,28.68
5.8431,-0.57205,-7.9951,-0.028711,0.012523,0.011301,-18.0,5.16,28.62
5.8976,-0.57205,-7.9543,-0.037263,0.0030543,0.010385,-18.0,4.98,28.68
5.7342,-0.55843,-7.927,-0.025962,0.0033598,0.01069,-18.06,4.74,28.62
5.8295,-0.6674,-7.9951,-0.03879,0.014661,0.01405,-18.0,4.74,28.44
5.8704,-0.58567,-7.9815,-0.034819,0.011301,0.0088575,-18.06,4.8,28.5
5.8295,-0.6674,-7.9407,-0.035736,0.0088575,0.012217,-18.18,4.74,28.56
5.8295,-0.6674,-7.9543,-0.03543,0.0067195,0.009163,-18.18,4.74,28.44
5.8704,-0.5993,-7.9134,-0.035125,0.0012217,0.0082467,-18.12,4.74,28.44
5.8295,-0.57205,-7.9543,-0.034819,0.0045815,0.012217,-18.42,4.62,28.26
5.8295,-0.57205,-7.927,-0.029627,-0.010385,0.01069,-18.36,4.56,28.5
5.8159,-0.5993,-7.8317,-0.025962,-0.011606,0.019242,-18.36,4.56,28.44
5.8567,-0.57205,-7.927,-0.036346,0.0030543,0.025045,-18.3,4.56,28.38
5.8431,-0.5993,-7.9951,-0.033598,0.002138,0.011606,-18.24,4.62,28.44
5.8431,-0.58567,-7.9951,-0.039706,0.000916,0.015272,-18.24,4.74,28.44
5.8159,-0.61292,-8.1041,-0.037263,-0.000916,0.0094684,-18.24,4.74,28.44
5.8704,-0.57205,-7.9407,-0.034819,0.0036652,0.011912,-18.42,4.62,28.56
5.8295,-0.62654,-7.9951,-0.03543,0.011301,0.018937,-18.42,4.56,28.62
5.8704,-0.61292,-7.9407,-0.033598,0.0045815,0.013744,-18.48,4.5,28.56
5.8976,-0.57205,-7.9543,-0.037263,-0.0012217,0.011606,-18.36,4.62,28.38
5.8976,-0.61292,-8.0496,-0.036346,-0.0054978,0.01405,-18.36,4.74,28.44
5.8567,-0.64016,-7.9951,-0.033292,-0.000916,0.016493,-18.12,4.8,28.56
5.8159,-0.6674,-7.9679,-0.034208,0.0018326,0.014966,-17.88,4.68,28.56
5.8431,-0.61292,-7.927,-0.036652,0.0027489,0.0076358,-17.94,4.62,28.62
5.8704,-0.64016,-8.0905,-0.032987,0.0039706,0.01741,-17.88,4.56,28.74
5.8704,-0.54481,-7.9543,-0.033903,0.0018326,0.013439,-17.88,4.5,28.74
5.8295,-0.54481,-7.8862,-0.034819,0.0033598,0.020159,-17.88,4.5,28.74
5.8567,-0.64016,-8.0905,-0.028711,0.0036652,0.012828,-17.82,4.44,28.8
5.8976,-0.58567,-7.9134,-0.020159,0.0097738,0.016493,-17.64,4.38,28.74
5.9249,-0.55843,-8.0224,-0.045204,0.002138,0.017104,-17.7,4.38,28.74
5.8704,-0.5993,-7.927,-0.032681,-0.0067195,0.017715,-17.64,4.44,28.86
5.8704,-0.53119,-7.9407,-0.032987,-0.010079,0.02474,-17.82,4.32,28.86
5.8295,-0.6674,-7.9679,-0.0281,-0.0073304,0.021075,-17.88,4.2,28.68
5.9249,-0.64016,-7.9679,-0.033903,-0.016188,0.01741,-17.94,4.32,28.62
5.8295,-0.58567,-8.0224,-0.034514,-0.0073304,0.017104,-18.24,4.5,28.68
5.8704,-0.62654,-7.927,-0.037874,-0.000916,0.018937,-18.12,4.5,28.8
5.8023,-0.55843,-8.0224,-0.037568,0.0085521,0.022297,-18.3,4.68,28.8
5.8704,-0.57205,-7.927,-0.033598,0.0012217,0.022907,-18.24,4.62,28.86
5.8704,-0.61292,-7.8726,-0.029627,-0.0064141,0.026267,-18.18,4.56,28.92
5.884,-0.62654,-7.9407,-0.026573,-0.0088575,0.018021,-18.24,4.62,28.86
5.8295,-0.57205,-7.9951,-0.025351,-0.01405,0.018326,-18.42,4.68,28.86
5.8159,-0.5993,-8.0769,-0.030849,-0.0033598,0.016188,-18.54,4.74,28.86
5.8295,-0.57205,-7.9815,-0.033598,-0.000305,0.015577,-18.54,4.68,28.74
5.9112,-0.65378,-7.9543,-0.032376,0.000916,0.017715,-18.3,4.68,29.04
5.8567,-0.58567,-7.9679,-0.039401,-0.0054978,0.021075,-18.24,4.68,29.28
5.884,-0.53119,-7.8998,-0.034819,-0.01069,0.015272,-18.36,4.56,29.34
5.8567,-0.62654,-8.0905,-0.039706,0.0058032,0.018326,-18.24,4.44,29.22
5.8567,-0.57205,-7.9543,-0.03207,-0.0051924,0.015272,-18.36,4.5,29.16
5.8023,-0.62654,-7.9951,-0.034819,-0.0012217,0.014966,-18.42,4.5,29.22
5.8023,-0.55843,-8.0088,-0.035125,-0.0076358,0.019853,-18.42,4.44,29.16
5.8431,-0.61292,-7.9815,-0.038179,0.0027489,0.016799,-18.48,4.44,29.1
5.8023,-0.61292,-7.927,-0.032681,0.0018326,0.019853,-18.54,4.38,29.1
5.8431,-0.57205,-7.9679,-0.036346,-0.000305,0.017104,-18.3,4.44,29.1
5.8567,-0.55843,-7.8589,-0.030543,-0.0054978,0.0036652,-18.24,4.44,29.1
5.8704,-0.58567,-7.927,-0.03879,0.009163,0.017104,-18.12,4.5,29.22
6.0202,-0.61292,-7.9407,-0.025962,0.0030543,0.018326,-18.24,4.5,29.1
5.9657,-0.65378,-8.0088,-0.010996,-0.053756,-0.0027489,-18.18,4.38,28.98
6.279,-0.70826,-7.8998,-0.013439,-0.14844,-0.014966,-18.12,4.38,28.92
6.3335,-0.76274,-8.322,-0.000611,-0.24587,-0.046426,-18.0,4.44,28.92
6.6331,-0.91256,-8.4719,0.010385,-0.38087,-0.072693,-17.76,4.38,28.86
6.8647,-1.0896,-8.4038,-0.053451,-0.6072,-0.089797,-17.76,4.32,28.74
6.9872,-0.83084,-8.5127,-0.11118,-0.90591,-0.16127,-17.46,4.38,28.68
6.7012,-0.69464,-8.5808,-0.17287,-1.0724,-0.27489,-17.28,4.32,28.74
6.1973,-0.61292,-8.717,-0.20067,-1.0757,-0.29719,-17.04,4.26,28.8
5.775,-0.6674,-9.1529,-0.28772,-1.091,-0.37843,-16.5,4.08,28.92
5.5843,-0.78998,-9.2618,-0.33598,-1.0895,-0.41661,-16.02,4.02,28.86
5.38,-0.76274,-9.3027,-0.41203,-0.95906,-0.47678,-15.6,3.9,28.86
4.8897,-0.62654,-9.507,-0.51068,-0.69822,-0.53359,-14.58,3.66,28.5
4.9306,-0.31327,-9.6568,-0.69669,-0.31673,-0.66859,-14.16,3.66,28.44
4.9987,-0.040861,-9.9973,-0.75869,-0.20678,-0.72296,-13.74,3.48,28.44
5.203,0.24517,-10.311,-0.97769,-0.15241,-0.85307,-12.6,2.88,28.2
4.9987,0.38137,-10.61,-1.1185,-0.22266,-0.93065,-11.94,2.7,28.02
4.808,0.65378,-11.019,-1.1967,-0.21961,-0.97647,-11.22,2.52,27.66
4.699,0.99429,-11.237,-1.616,0.4105,-1.27,-9.78,1.56,27.42
4.9987,1.6208,-10.801,-1.616,0.54306,-1.3082,-8.94,1.08,27.18
4.9306,1.9205,-10.215,-1.7049,0.65485,-1.3427,-8.1,0.54,26.88
5.3119,2.656,-8.9894,-1.7226,0.75656,-1.4178,-6.6,-0.84,26.4
5.203,3.3506,-8.8396,-1.6539,0.57605,-1.6609,-5.94,-1.56,26.4
5.1757,3.8273,-8.6217,-1.5922,0.4218,-1.7633,-5.4,-2.16,26.28
5.2575,4.1133,-8.4719,-1.5342,0.11301,-1.8268,-3.9,-3.9,26.46
5.094,4.1814,-8.4174,-1.4526,-0.20708,-1.8839,-3.3,-4.98,26.4
4.3585,4.6037,-8.0632,-1.4123,-0.37751,-1.9325,-1.74,-6.72,26.7
4.0861,4.7671,-8.0905,-1.379,-0.38179,-1.9563,-0.96,-7.68,26.88
3.8137,4.699,-7.8589,-1.3796,-0.063225,-2.0409,-0.24,-8.7,27.18
3.3642,4.8352,-7.8181,-1.3711,0.21808,-2.1255,0.36,-9.72,27.6
2.7786,5.4073,-7.2188,-1.3241,0.5342,-2.2575,1.56,-11.52,28.02
2.6015,5.5571,-7.0009,-1.2682,0.75472,-2.3188,2.1,-12.42,28.26
2.0975,5.8976,-6.6876,-1.1802,0.77885,-2.3167,3.12,-13.92,28.68
1.6889,5.9385,-6.96,-1.029,0.77672,-2.2669,3.6,-14.64,29.04
1.5255,5.9657,-7.1915,-1.0156,0.73945,-2.2086,4.08,-15.3,29.1
1.2122,6.2654,-6.8647,-1.0012,0.6463,-2.1225,5.1,-16.62,29.52
1.0215,6.4152,-6.5922,-0.94318,0.61392,-2.0284,5.52,-17.34,29.46
0.70826,6.7421,-6.5786,-0.89247,0.63744,-1.967,6.0,-17.76,29.58
0.85808,7.1371,-6.3062,-0.87262,0.5904,-1.8857,6.66,-18.78,29.7
0.38137,7.7091,-5.9112,-0.82222,0.613,-1.8512,7.02,-19.26,29.64
-0.12258,8.0224,-5.8295,-0.74709,0.82681,-1.8815,7.2,-19.68,29.58
0.068102,7.7227,-5.6661,-0.81184,1.2077,-1.8558,7.56,-20.28,29.28
0.34051,7.8998,-5.5571,-0.832,1.4618,-1.8112,7.74,-20.7,29.4
0.84446,8.1041,-5.0395,-0.73823,1.3916,-1.7333,7.86,-21.06,29.34
0.38137,7.927,-4.3449,-0.53726,1.0956,-1.5623,7.98,-21.84,29.28
0.19068,7.8589,-3.909,-0.45051,0.96822,-1.4768,8.16,-21.96,29.28
0.24517,7.8453,-3.7865,-0.30971,0.64507,-1.3152,8.34,-22.38,29.16
-0.6674,7.6683,-4.1814,-0.099571,0.29658,-1.0372,8.4,-22.68,29.1
-1.0624,7.464,-4.0861,-0.01069,0.31796,-0.8995,8.58,-22.86,29.04
-1.0624,7.6955,-3.8001,0.05681,0.39187,-0.75595,8.64,-23.04,29.16
-0.85808,7.6274,-4.1133,0.18051,0.39981,-0.57146,8.64,-23.22,29.04
-0.38137,7.6683,-4.3313,0.19884,0.42761,-0.54764,8.7,-23.22,29.1
-0.25879,7.8589,-4.2904,0.2584,0.38882,-0.44685,8.82,-23.34,29.16
-0.31327,7.8589,-4.7944,0.30696,0.29993,-0.39218,8.88,-23.58,29.28
-0.29965,7.8045,-5.1213,0.30177,0.22999,-0.31368,9.0,-23.58,29.46
-0.32689,7.8862,-5.3664,0.30665,0.16371,-0.29627,9.0,-23.58,29.58
-0.35413,7.9543,-5.4754,0.31215,-0.0085521,-0.2584,9.24,-23.34,29.76
-0.65378,7.8317,-5.5435,0.28833,-0.046731,-0.22694,9.24,-23.28,29.64
-0.89894,7.8317,-5.4073,0.28588,-0.057727,-0.21472,9.12,-22.98,29.82
-0.84446,7.7091,-5.4754,0.26481,0.030238,-0.17623,9.18,-22.86,29.94
-0.83084,7.5457,-5.4209,0.24404,0.074526,-0.14569,9.18,-22.62,30.12
-1.4165,7.3141,-6.1836,0.19242,-0.01069,-0.081551,9.3,-22.44,30.3
-1.6753,7.0553,-7.0962,0.098349,-0.014661,0.019853,9.54,-22.08,30.48
-1.2122,7.5729,-6.674,-0.065668,0.19823,0.11515,9.48,-21.9,30.42
-0.96704,7.8317,-6.2654,-0.085827,0.26817,0.12523,9.48,-21.72,30.6
-0.53119,8.1177,-5.7886,-0.13134,0.43341,0.098655,9.36,-21.6,30.6
0.14982,8.6898,-5.4754,-0.083994,0.34117,0.048258,9.3,-21.42,30.66
0.14982,8.7579,-5.5162,-0.025351,0.11606,0.018631,9.18,-21.18,30.66
-0.51757,8.3357,-5.5571,-0.0045815,-0.013744,-0.018631,9.0,-21.06,30.66
-0.85808,8.2267,-5.8295,-0.034514,0.16463,-0.048564,9.0,-20.94,30.96
-0.7355,8.0905,-6.1292,-0.070555,0.27519,-0.047342,8.94,-20.94,30.9
-0.31327,8.1722,-6.3198,-0.099876,0.30085,-0.041233,8.7,-20.82,31.08
-0.054481,8.2812,-6.279,-0.13256,0.27397,-0.040928,8.58,-20.76,31.14
0.10896,8.3493,-5.8704,-0.10568,0.21014,-0.06689,8.34,-20.82,31.08
-0.19068,8.1995,-5.5707,-0.073304,0.19456,-0.071777,8.04,-21.06,31.2
-0.28603,8.1858,-5.5707,-0.055589,0.31215,-0.058643,7.92,-21.12,31.32
-0.40861,8.1041,-5.7205,-0.051007,0.38668,-0.031154,7.8,-21.24,31.26
-0.38137,7.8589,-5.8704,-0.051618,0.4496,0.012217,7.68,-21.24,31.26
-0.068102,7.927,-5.8976,-0.057421,0.41111,0.046426,7.44,-21.24,31.44
0.10896,8.0088,-5.8704,-0.06017,0.27153,0.069333,7.26,-21.3,31.5
0.12258,8.0905,-5.9112,-0.078496,0.17287,0.059254,7.02,-21.36,31.56
-0.01362,8.2403,-5.8023,-0.11729,0.25015,0.040012,6.78,-21.48,31.56
0.10896,8.2539,-5.9657,-0.12859,0.23976,0.033903,6.66,-21.54,31.56
0.068102,8.4174,-5.993,-0.1011,0.08827,0.040012,6.48,-21.78,31.44
-0.068102,8.3629,-5.6116,-0.0085521,-0.19731,0.072693,6.42,-21.9,31.44
-0.14982,8.5127,-5.3528,0.099266,-0.46517,0.10324,6.3,-21.78,31.44
-0.38137,8.7579,-4.985,0.19487,-0.44135,0.083689,6.06,-21.54,31.56
-0.57205,8.7306,-5.203,0.2642,-0.29047,0.057727,6.0,-21.42,31.38
-1.1305,8.3765,-6.0338,0.1857,-0.054062,0.062614,6.0,-21.36,31.5
-0.70826,8.0088,-6.8783,0.063835,0.15272,0.073304,6.06,-21.42,31.56
-0.35413,7.9407,-7.4912,-0.06689,0.22327,0.081551,6.24,-21.36,31.44
0.19068,8.3493,-8.0632,-0.23396,0.40012,0.056505,6.42,-21.18,31.5
1.7025,9.6977,-4.127,-0.12187,0.22602,-0.010385,6.42,-21.0,31.56
0.57205,9.5479,-3.7592,0.2025,-0.49144,-0.16218,6.6,-20.88,31.56
0.027241,8.7034,-4.5628,0.24007,-0.36866,-0.21472,6.54,-20.88,31.56
-1.3484,7.4367,-7.0145,0.12492,0.33506,-0.19609,6.6,-20.7,31.56
-1.2939,6.8238,-7.8862,-0.058643,0.73915,-0.13378,6.6,-20.52,31.68
-0.89894,6.7966,-7.7636,-0.22266,0.73365,-0.020769,6.78,-20.58,31.74
0.42223,7.4095,-6.3743,-0.25595,0.29383,0.036041,6.66,-20.58,31.56
0.12258,7.6683,-5.7478,-0.26634,0.16677,0.051924,6.54,-20.64,31.56
0.17706,7.9951,-5.3392,-0.25412,0.23305,0.042455,6.48,-20.7,31.56
0.1362,7.927,-5.4073,-0.17532,0.1347,0.053756,6.06,-20.46,31.5
0.10896,7.9543,-5.6661,-0.12798,-0.015882,0.074831,5.94,-20.4,31.56
-0.35413,8.0905,-5.4754,-0.11454,-0.14478,0.12248,5.7,-20.64,31.44
-0.39499,8.2676,-5.4481,-0.036041,-0.22969,0.18112,5.64,-20.64,31.38
-0.47671,8.7034,-5.2575,0.072693,-0.24374,0.22297,5.58,-20.7,31.26
-0.54481,8.8668,-5.1213,0.12614,-0.13989,0.20831,5.34,-20.76,31.44
-0.10896,8.717,-5.6116,0.12798,0.17776,0.19028,5.34,-20.82,31.38
0.43585,8.6081,-6.4152,0.02474,0.51129,0.093157,5.22,-20.88,31.26
1.58,9.0303,-6.6604,-0.0076358,0.5058,-0.010996,5.16,-20.88,31.32
1.6072,9.2482,-5.3256,0.047647,0.1967,-0.075747,5.1,-20.88,31.38
0.54481,8.7306,-5.6388,0.11301,-0.17165,-0.14294,4.98,-20.82,31.38
-0.57205,7.5321,-7.1643,-0.10996,0.27642,-0.13256,4.92,-20.82,31.56
-0.40861,7.355,-6.7966,-0.24129,0.58185,-0.077274,4.98,-20.88,31.56
-0.40861,7.3822,-6.1836,-0.2529,0.49052,0.0079412,4.92,-20.88,31.5
0.70826,7.7091,-4.9987,-0.15913,0.090103,0.10996,4.62,-20.82,31.68
0.28603,7.6002,-5.1894,-0.10018,-0.064446,0.14661,4.56,-20.82,31.68
0.23155,7.4776,-5.884,-0.11515,0.069639,0.1799,4.32,-21.0,31.5
0.55843,7.7364,-5.8023,-0.090713,-0.0042761,0.23488,4.26,-21.0,31.44
0.57205,7.75,-5.8976,-0.097738,-0.27855,0.31185,4.02,-21.0,31.38
0.29965,7.355,-4.9987,-0.0073304,-0.68967,0.39431,3.78,-21.12,31.38
-0.21793,7.3414,-5.0123,0.042761,-0.64843,0.44624,3.72,-21.12,31.32
-0.1362,7.0826,-4.8625,0.025962,-0.51252,0.54642,3.72,-21.12,31.26
-0.19068,6.9464,-5.2166,0.011301,-0.31765,0.65454,3.78,-21.36,31.08
-0.54481,6.674,-5.8704,-0.1066,-0.071471,0.81123,3.84,-21.36,30.84
-0.98067,6.6059,-6.2517,-0.24038,0.16493,1.0201,3.84,-21.36,30.84
-0.32689,6.6059,-5.7069,-0.32162,0.21777,1.2798,3.9,-21.66,30.9
0.57205,6.5786,-5.7478,-0.29963,-0.15913,1.5287,3.78,-21.6,30.72
1.3484,6.4424,-5.6524,-0.22052,-0.84788,1.7727,3.6,-21.54,30.84
1.1032,6.5378,-4.8352,-0.0956,-1.5464,2.0052,3.36,-21.48,30.72
0.38137,6.6195,-4.4811,0.10812,-1.9716,2.3625,3.48,-21.42,30.78
0.31327,6.5514,-4.4675,0.1741,-1.9227,2.4688,3.48,-21.42,30.78
0.34051,6.4833,-4.8488,0.38698,-1.9154,2.7562,3.42,-21.6,30.6
1.076,5.8976,-4.8352,0.5226,-2.0754,2.9877,3.36,-21.48,30.6
0.61292,5.598,-4.1814,0.68295,-2.0217,3.215,3.24,-21.48,30.6
0.12258,5.4073,-5.0668,0.76389,-1.4887,3.4117,3.24,-21.42,30.42
0.98067,5.3937,-5.993,0.71716,-0.62705,3.5024,3.0,-21.3,30.42
1.8251,5.2983,-6.0474,0.72418,-0.55192,3.5488,2.88,-21.42,30.36
2.833,5.1076,-5.2983,0.77946,-0.54459,3.5937,2.88,-21.24,30.3
3.4459,5.0531,-6.3335,0.88514,-0.012217,3.5791,2.88,-20.7,30.06
4.522,4.9169,-7.0009,0.84055,0.1069,3.4486,2.7,-20.52,29.94
7.2869,5.0531,-6.7693,0.89156,-0.22602,3.2956,2.58,-19.86,29.88
7.7772,5.0259,-6.7966,1.1777,-0.72052,2.9767,2.1,-19.56,29.82
7.6274,5.0123,-7.7636,1.3286,-1.0177,2.6371,1.74,-19.08,29.7
6.9328,5.0804,-8.9349,1.5956,-1.372,2.3259,1.08,-17.88,29.4
7.5457,4.7671,-9.9837,2.0501,-1.6365,1.9251,0.72,-17.46,29.16
7.1234,3.7592,-10.42,2.4587,-1.8485,1.5773,0.24,-16.74,28.98
5.7886,2.4244,-10.297,2.5207,-1.5861,1.4044,-0.3,-15.84,28.68
4.8216,0.89894,-9.3163,2.2746,-0.46976,1.1527,-1.2,-13.86,28.44
5.38,0.40861,-9.7249,2.0214,-0.044899,1.0098,-1.86,-12.66,28.26
6.0747,0.095342,-9.9973,1.8931,0.078191,0.98746,-2.58,-11.46,27.9
7.4912,-0.40861,-11.087,1.6448,0.018631,0.82558,-3.84,-9.0,27.66
7.246,-0.7355,-11.591,1.5354,-0.23396,0.66676,-4.38,-7.68,27.48
5.9385,-1.58,-11.169,1.4444,-0.28802,0.47831,-5.22,-6.3,27.36
4.4811,-2.2474,-11.155,0.89186,0.62644,0.38362,-6.36,-3.6,26.94
5.8023,-2.9284,-12.217,0.7196,0.64507,0.45571,-7.14,-2.22,26.94
6.4288,-2.4925,-12.395,0.20983,-0.014661,0.36346,-7.8,-0.96,26.88
5.3119,-2.0431,-10.678,-0.025351,0.047647,0.25168,-9.24,1.68,27.0
5.1213,-1.7298,-9.7794,-0.21136,0.20281,0.18967,-9.78,2.82,27.0
4.8352,-1.3348,-8.826,-0.25992,0.2474,0.12187,-10.38,3.6,27.18
4.7535,-0.92618,-8.0632,-0.21564,0.20464,0.064141,-11.52,5.1,27.36
4.5764,-0.7355,-8.036,-0.090103,0.12339,0.03543,-11.88,5.7,27.48
4.413,-0.57205,-7.9679,-0.047342,0.12004,0.055894,-12.3,6.18,27.54
4.5083,-0.7355,-8.4719,0.022602,0.16829,0.11148,-12.96,6.9,27.78
4.6037,-0.99429,-8.7579,0.03146,0.21564,0.12523,-13.26,7.08,27.9
4.9033,-1.185,-8.9349,-0.025656,0.23396,0.10049,-13.56,7.26,28.02
5.0531,-1.1577,-8.9622,-0.099571,0.28558,0.020159,-14.04,7.14,28.2
5.094,-1.0624,-8.6898,-0.11668,0.31337,0.010996,-14.04,7.08,28.14
5.0531,-1.0488,-8.2948,-0.10049,0.2642,-0.0067195,-14.1,7.14,28.08
5.1076,-0.72188,-8.0224,-0.071166,0.15608,-0.017104,-14.34,6.96,28.14
5.1485,-0.76274,-8.1586,-0.029627,0.081245,-0.017715,-14.46,6.9,28.14
5.1213,-0.76274,-8.3765,-0.024129,0.059865,-0.0012217,-14.46,6.84,28.02
5.1213,-0.85808,-8.54,-0.021075,0.066279,0.022602,-14.64,6.9,27.96
5.0668,-0.96704,-8.54,-0.039095,0.072693,0.022297,-14.82,6.84,28.02
5.1485,-0.96704,-8.4719,-0.042455,0.065668,0.010385,-14.88,6.72,28.08
5.1076,-0.89894,-8.4582,-0.041844,0.065057,0.0097738,-15.12,6.6,28.02
5.1213,-0.85808,-8.4719,-0.043677,0.047647,0.010079,-15.18,6.66,27.96
5.0531,-0.83084,-8.431,-0.040317,0.039095,0.0024435,-15.12,6.42,27.9
5.094,-0.84446,-8.4038,-0.036957,0.046426,0.0088575,-15.24,6.54,28.02
5.1076,-0.91256,-8.4038,-0.041233,0.056505,0.017715,-15.3,6.48,28.14
5.0668,-0.89894,-8.4174,-0.043982,0.055589,0.012217,-15.3,6.42,28.14
5.094,-0.92618,-8.4991,-0.045509,0.05681,0.014661,-15.3,6.48,28.08
5.094,-0.92618,-8.431,-0.042761,0.051618,0.010385,-15.42,6.42,28.2
5.1349,-0.95342,-8.4446,-0.041539,0.054367,0.013439,-15.42,6.48,28.26
5.1213,-0.85808,-8.5127,-0.044899,0.058643,0.0045815,-15.42,6.48,28.38
5.1485,-0.85808,-8.3357,-0.044288,0.057727,0.011912,-15.36,6.54,28.32
5.1349,-0.92618,-8.3901,-0.033903,0.057116,0.0058032,-15.54,6.48,28.38
5.2575,-0.89894,-8.3765,-0.039401,0.058948,0.012217,-15.72,6.48,28.44
5.2166,-0.85808,-8.3629,-0.042761,0.04215,0.018631,-15.72,6.48,28.56
5.2166,-0.8036,-8.2539,-0.04612,0.035736,0.012217,-15.84,6.54,28.56
5.1621,-0.83084,-8.322,-0.041844,0.027794,0.015882,-15.84,6.6,28.56
5.2166,-0.81722,-8.3629,-0.036041,0.024129,0.019242,-15.96,6.6,28.56
5.1894,-0.85808,-8.3765,-0.03879,0.021991,0.014355,-16.02,6.54,28.62
5.2575,-0.89894,-8.4582,-0.041539,0.024435,0.015882,-16.08,6.54,28.62
5.2166,-0.83084,-8.3493,-0.040623,0.04215,0.012828,-16.26,6.6,28.62
5.1894,-0.84446,-8.2403,-0.039401,0.063225,0.011301,-16.44,6.6,28.62
5.2166,-0.8036,-8.2812,-0.048869,0.077274,0.013134,-16.44,6.54,28.56
5.2847,-0.84446,-8.3629,-0.049175,0.1014,0.025351,-16.5,6.54,28.32
5.2575,-0.85808,-8.3084,-0.04948,0.10446,0.034819,-16.38,6.6,28.26
5.2847,-0.8717,-8.2267,-0.048258,0.092852,0.026878,-16.44,6.78,28.26
5.2983,-0.8717,-8.1858,-0.040317,0.06017,0.03146,-16.56,6.78,28.2
5.38,-0.85808,-8.2403,-0.036957,0.027794,0.023824,-16.5,6.9,28.26
5.3528,-0.84446,-8.3765,-0.029016,0.0073304,0.016188,-16.62,6.96,28.26
5.2983,-0.8717,-8.2539,-0.033903,0.013439,0.020769,-16.62,6.78,28.08
5.2847,-0.83084,-8.2812,-0.034208,0.020464,0.019853,-16.56,6.84,28.08
5.3119,-0.83084,-8.2812,-0.029627,0.018326,0.027794,-16.68,6.54,28.02
5.3664,-0.85808,-8.2131,-0.033903,0.019548,0.024435,-16.68,6.48,27.84
5.3528,-0.85808,-8.2812,-0.030543,0.015272,0.015882,-16.62,6.42,27.9
5.2711,-0.88532,-8.322,-0.03543,0.010996,0.024129,-16.74,6.3,27.84
5.2983,-0.8717,-8.3084,-0.036346,0.018021,0.017715,-16.86,6.3,27.96
5.3256,-0.83084,-8.2403,-0.040928,0.024435,0.01741,-16.92,6.36,28.02
5.3119,-0.85808,-8.2403,-0.035125,0.028711,0.025656,-16.92,6.18,28.14
5.3528,-0.85808,-8.3493,-0.039401,0.029016,0.026573,-16.98,6.12,27.78
5.3392,-0.85808,-8.2403,-0.039095,0.018021,0.020464,-17.1,6.0,27.72
5.3119,-0.83084,-8.2403,-0.042761,0.029932,0.026878,-17.04,5.94,27.9
5.3528,-0.81722,-8.2948,-0.040012,0.024435,0.029016,-17.1,5.94,27.9
5.4073,-0.84446,-8.1858,-0.034514,0.034819,0.020159,-17.1,6.12,27.96
5.3528,-0.7355,-8.1586,-0.036346,0.032987,0.023518,-17.16,6.06,28.08
5.3392,-0.78998,-8.2539,-0.033292,0.027794,0.026573,-17.1,6.18,28.08
5.3528,-0.84446,-8.2539,-0.034514,0.020769,0.027489,-17.04,6.18,28.02
5.38,-0.9398,-8.2948,-0.039401,0.012828,0.016188,-16.92,6.24,27.96
5.4209,-0.96704,-8.2948,-0.04215,0.017715,0.011912,-17.1,6.3,27.96
5.3937,-0.83084,-8.2131,-0.042761,0.026878,0.017104,-16.98,6.36,27.66
5.3392,-0.77636,-8.1586,-0.038179,0.033598,0.021686,-16.92,6.24,27.72
5.38,-0.78998,-8.1313,-0.040317,0.024129,0.02474,-16.86,6.24,28.02
5.4209,-0.83084,-8.2403,-0.034514,0.019853,0.021075,-16.68,6.36,28.08
5.4618,-0.89894,-8.2131,-0.037874,0.011606,0.026267,-16.74,6.48,28.02
5.38,-0.83084,-8.2948,-0.023518,0.007025,0.021075,-16.8,6.48,28.08
5.4481,-0.85808,-8.2403,-0.034514,0.0097738,0.022297,-16.86,6.54,28.02
5.4209,-0.88532,-8.2403,-0.040928,0.0030543,0.026267,-16.8,6.6,28.02
5.38,-0.89894,-8.1313,-0.037568,0.0082467,0.017715,-16.86,6.6,28.08
5.3528,-0.85808,-8.1858,-0.034819,0.01741,0.014355,-17.16,6.48,28.02
5.38,-0.83084,-8.145,-0.034208,0.016799,0.019548,-17.1,6.54,28.08
5.4073,-0.84446,-8.2131,-0.03879,0.0067195,0.016188,-17.04,6.48,28.26
5.4073,-0.84446,-8.2676,-0.029322,0.0079412,0.019853,-17.1,6.48,28.2
5.4209,-0.85808,-8.2403,-0.034819,0.0067195,0.015882,-17.04,6.6,28.08
5.3664,-0.91256,-8.2131,-0.03543,0.0079412,0.015272,-17.1,6.66,27.84
5.38,-0.8036,-8.1722,-0.031765,0.0051924,0.010996,-17.46,6.78,27.9
5.4073,-0.78998,-8.1586,-0.031765,0.000611,0.023518,-17.52,6.66,27.96
5.4073,-0.85808,-8.2539,-0.032376,0.000305,0.017715,-17.58,6.72,27.9
5.4073,-0.8717,-8.1858,-0.036346,0.0024435,0.018631,-17.46,6.6,27.78
5.4754,-0.89894,-8.2131,-0.03207,0.014966,0.021686,-17.46,6.42,27.72
5.4618,-0.85808,-8.2676,-0.035125,0.0085521,0.016799,-17.58,6.48,27.66
5.5162,-0.89894,-8.1586,-0.039706,0.010385,0.017715,-17.4,6.54,27.72
5.4073,-0.89894,-8.1586,-0.029322,0.0024435,0.0058032,-17.46,6.6,27.66
5.4073,-0.88532,-8.1177,-0.030543,0.0076358,0.012523,-17.34,6.66,27.78
5.4481,-0.9398,-8.2948,-0.036652,0.0079412,0.0048869,-17.46,6.42,27.72
5.4481,-0.92618,-8.2267,-0.028405,0.0085521,-0.0042761,-17.58,6.36,27.78
5.5026,-0.89894,-8.2267,-0.034208,0.0018326,-0.002138,-17.58,6.3,27.84
5.4073,-0.83084,-8.1586,-0.034208,0.0061087,0.0061087,-17.46,6.18,27.66
5.4073,-0.8036,-8.2131,-0.027489,0.016799,0.0018326,-17.34,6.18,27.66
5.3937,-0.77636,-8.1586,-0.029932,0.023213,0.0088575,-17.28,6.12,27.66
5.5026,-0.88532,-8.2403,-0.029016,0.022602,0.0073304,-17.28,6.24,27.66
5.5026,-0.91256,-8.1722,-0.04215,0.018326,0.019548,-17.28,6.36,27.66
5.4754,-0.96704,-8.1858,-0.040317,0.010079,0.012523,-17.16,6.3,27.66
5.4754,-0.89894,-8.1858,-0.039095,0.0058032,0.0042761,-17.16,6.36,27.72
5.4481,-0.81722,-8.2812,-0.030543,0.0082467,0.011912,-17.22,6.3,27.72
5.38,-0.85808,-8.2812,-0.03146,0.0076358,0.009163,-17.28,6.24,27.66
5.4481,-0.78998,-8.2131,-0.031765,0.012217,0.0064141,-17.34,6.3,27.66
5.4754,-0.78998,-8.2131,-0.040012,0.021991,0.01069,-17.28,6.42,27.72
5.3937,-0.84446,-8.1313,-0.039095,0.017715,0.012523,-17.22,6.48,27.6
5.489,-0.83084,-8.2403,-0.031154,0.017104,0.0094684,-17.16,6.3,27.72
5.5571,-0.85808,-8.1722,-0.026573,0.0073304,0.0088575,-17.16,6.36,27.6
5.5299,-0.76274,-8.2812,-0.024435,0.0054978,0.023518,-17.1,6.42,27.6
5.4481,-0.89894,-8.2812,-0.025045,0.0097738,0.023213,-17.16,6.42,27.54
5.4345,-0.84446,-8.2131,-0.037874,0.020159,0.016188,-17.1,6.42,27.6
5.4209,-0.85808,-8.1858,-0.034819,0.024129,0.01405,-17.22,6.3,27.6
5.5026,-0.78998,-8.2812,-0.036957,0.023518,0.012217,-17.34,6.12,27.6
5.4754,-0.81722,-8.1722,-0.032681,0.027184,0.010385,-17.22,6.12,27.72
5.5435,-0.83084,-8.2403,-0.036346,0.021991,0.016493,-17.1,6.18,27.6
5.489,-0.78998,-8.1313,-0.034514,0.019242,0.0067195,-17.22,6.3,27.6
5.489,-0.77636,-8.2267,-0.030543,0.0039706,0.020769,-17.22,6.12,27.78
5.4481,-0.83084,-8.1858,-0.035125,0.0088575,0.014661,-17.34,6.3,27.78
5.489,-0.85808,-8.1586,-0.034514,0.010996,0.014661,-17.28,6.3,28.02
5.489,-0.92618,-8.1722,-0.035736,0.011301,0.011301,-17.28,6.24,28.02
5.4481,-0.83084,-8.1722,-0.040623,0.015272,0.0097738,-17.52,6.0,28.2
5.5026,-0.8036,-8.1586,-0.036346,0.011606,0.0088575,-17.4,5.94,28.26
5.4754,-0.84446,-8.2131,-0.036041,0.0094684,0.010079,-17.46,5.94,28.38
5.5026,-0.8036,-8.1177,-0.034208,0.013744,0.013439,-17.4,5.88,28.26
5.4754,-0.81722,-8.0905,-0.036346,0.0073304,0.01741,-17.4,5.88,28.26
5.5435,-0.85808,-8.1177,-0.046426,0.0054978,0.021686,-17.46,5.94,28.2
5.4754,-0.91256,-8.1586,-0.029627,-0.011606,0.014966,-17.58,5.82,28.26
5.5299,-0.85808,-8.1586,-0.035736,-0.0045815,0.014966,-17.52,5.76,28.2
5.5026,-0.85808,-8.1722,-0.028711,-0.0067195,0.020159,-17.4,5.7,28.14
5.4754,-0.81722,-8.1995,-0.037568,0.0012217,0.014661,-17.34,5.7,28.14
5.5162,-0.8717,-8.1722,-0.029016,0.0048869,0.013744,-17.46,5.64,27.96
5.5162,-0.84446,-8.1177,-0.038179,0.0015272,0.012828,-17.46,5.82,28.02
5.5026,-0.83084,-8.1313,-0.033903,0.0094684,0.018021,-17.4,5.94,27.9
5.5571,-0.84446,-8.1313,-0.030238,-0.0015272,0.015272,-17.22,6.12,27.84
5.5435,-0.81722,-8.2131,-0.036346,-0.0012217,0.013439,-17.22,6.06,27.9
5.5162,-0.84446,-8.1858,-0.03207,-0.0051924,0.011606,-17.28,6.24,28.14
5.5162,-0.89894,-8.1586,-0.038485,-0.0024435,0.017104,-17.28,6.36,28.08
5.4481,-0.85808,-8.2131,-0.030543,0.000916,0.012828,-17.16,6.48,28.2
5.4481,-0.84446,-8.1858,-0.033903,0.000611,0.016493,-17.04,6.48,28.2
5.5435,-0.8036,-8.1722,-0.034208,0.0051924,0.013744,-16.98,6.54,28.14
5.5299,-0.8036,-8.145,-0.036652,0.007025,0.013134,-17.04,6.54,28.14
5.5299,-0.84446,-8.0088,-0.040317,0.0079412,0.010079,-17.04,6.42,28.14
5.5571,-0.83084,-7.9815,-0.037874,0.015882,0.020769,-17.04,6.36,27.96
5.5707,-0.77636,-8.2131,-0.032681,0.0082467,0.01405,-17.1,6.42,28.02
5.4754,-0.76274,-8.0632,-0.038485,-0.0033598,0.022907,-17.16,6.36,27.84
5.4754,-0.84446,-8.1586,-0.030543,-0.013439,0.01405,-17.22,6.36,27.9
5.4754,-0.8717,-8.2131,-0.033292,0.000611,0.011301,-17.16,6.36,27.84
5.5162,-0.84446,-8.2267,-0.032376,0.0015272,0.009163,-17.16,6.3,27.78
5.5435,-0.88532,-8.1313,-0.027184,0.0018326,0.0094684,-17.16,6.3,27.84
5.38,-0.77636,-8.145,-0.040317,0.0039706,0.0094684,-17.16,6.12,27.78
5.5026,-0.8036,-8.0632,-0.039095,0.000305,0.014661,-17.28,6.24,27.72
5.5299,-0.77636,-8.1313,-0.032376,-0.0045815,0.013439,-17.34,6.24,27.78
5.5299,-0.84446,-8.2676,-0.037874,-0.0061087,0.025045,-17.28,6.06,27.84
5.5571,-0.85808,-8.1313,-0.029016,0.000611,0.018631,-17.16,6.24,27.78
5.5299,-0.8717,-8.1041,-0.023213,-0.0018326,0.016799,-17.16,6.3,27.6
5.5162,-0.83084,-8.2131,-0.034514,-0.0097738,0.021075,-17.16,6.3,27.84
5.5435,-0.85808,-8.2676,-0.028405,-0.010385,0.018631,-17.22,6.3,28.08
5.489,-0.85808,-8.2676,-0.030238,-0.0048869,0.017715,-17.28,6.36,28.02
5.5299,-0.85808,-8.1858,-0.040012,0.0042761,0.02138,-17.28,6.24,27.96
5.5299,-0.8036,-8.1586,-0.029627,0.0018326,0.017715,-17.28,6.3,27.84
5.489,-0.8036,-8.1586,-0.037263,-0.0027489,0.023518,-17.34,6.36,27.96
5.489,-0.8036,-8.1177,-0.033598,-0.0018326,0.012828,-17.46,6.3,27.96
5.5707,-0.83084,-8.2131,-0.034819,-0.0039706,0.018937,-17.58,6.3,27.96
5.5162,-0.84446,-8.1858,-0.033903,-0.0042761,0.018326,-17.58,6.36,27.96
5.5435,-0.83084,-8.1858,-0.035736,0.000611,0.01741,-17.7,6.3,28.02
5.5162,-0.85808,-8.1586,-0.032987,0.002138,0.018021,-17.7,6.24,28.02
5.5162,-0.85808,-8.2267,-0.032376,0.0036652,0.014966,-17.58,6.24,28.08
5.5162,-0.81722,-8.1313,-0.028711,-0.0030543,0.016188,-17.46,6.18,28.08
5.4073,-0.84446,-8.1858,-0.037874,0.0088575,0.018631,-17.4,6.18,27.9
5.5162,-0.8036,-8.1858,-0.035125,0.01069,0.01405,-17.34,6.12,28.02
5.5299,-0.84446,-8.0905,-0.034819,0.011912,0.016493,-17.4,6.06,28.08
5.5299,-0.64016,-8.1313,-0.030238,-0.0061087,0.016799,-17.58,6.06,28.2
5.5299,-0.76274,-8.1177,-0.023824,-0.011301,0.020769,-17.46,5.88,28.14
5.489,-0.83084,-8.1722,-0.026878,-0.0042761,0.019548,-17.4,5.88,27.9
5.489,-0.85808,-8.2131,-0.031765,0.0042761,0.014661,-17.4,5.88,28.08
5.5707,-0.83084,-8.1858,-0.035125,0.0079412,0.010996,-17.4,5.88,28.08
5.4754,-0.81722,-8.1858,-0.03146,0.0042761,0.0082467,-17.52,5.88,28.14
5.4618,-0.8036,-8.2539,-0.02474,0.0012217,0.011301,-17.52,6.0,28.26
5.489,-0.77636,-8.2267,-0.03543,-0.0015272,0.0097738,-17.64,6.06,28.44
5.5162,-0.76274,-8.2131,-0.029627,-0.0012217,0.022297,-17.76,6.0,28.26
5.5026,-0.81722,-8.1858,-0.027794,-0.0030543,0.025962,-17.88,5.82,28.08
5.5435,-0.8036,-8.145,-0.029322,-0.0024435,0.020159,-17.88,5.76,27.96
5.5162,-0.77636,-8.1177,-0.04612,-0.0018326,0.025351,-17.88,6.0,28.02
5.5026,-0.8036,-8.1177,-0.028405,-0.0030543,0.019242,-17.64,6.06,27.9
5.5162,-0.91256,-8.1177,-0.035125,0.0012217,0.023824,-17.76,6.18,28.02
5.4618,-0.83084,-8.0905,-0.039095,0.0058032,0.025045,-17.82,6.06,28.26
5.5435,-0.84446,-8.1041,-0.032681,0.0048869,0.017104,-17.82,6.18,28.26
5.4754,-0.8036,-8.0769,-0.040012,0.0064141,0.01741,-17.82,6.18,28.2
5.489,-0.83084,-8.0905,-0.036041,0.0012217,0.01741,-17.82,6.24,28.26
5.5162,-0.83084,-8.1041,-0.035736,-0.0012217,0.016799,-17.76,6.24,28.02
5.5707,-0.85808,-8.1858,-0.035736,-0.0018326,0.018631,-17.7,6.3,28.02
5.5162,-0.83084,-8.1586,-0.031765,0.0036652,0.020464,-17.76,6.24,28.14
5.4754,-0.78998,-8.1586,-0.026267,0.0067195,0.013439,-17.58,6.36,28.32
5.5162,-0.81722,-8.2267,-0.03879,0.0058032,0.02138,-17.4,6.42,28.38
5.5299,-0.78998,-8.0769,-0.03146,0.0012217,0.014966,-17.46,6.3,28.44
5.5299,-0.84446,-8.145,-0.038179,0.0036652,0.018021,-17.64,6.36,28.38
5.4754,-0.89894,-8.1858,-0.036652,0.0058032,0.015882,-17.58,6.3,28.38
5.4754,-0.81722,-8.2267,-0.040623,0.012217,0.018631,-17.46,6.48,28.26
5.5843,-0.8036,-8.1995,-0.038485,0.0051924,0.025962,-17.52,6.36,28.08
5.5435,-0.8036,-8.0905,-0.033292,0.0058032,0.024129,-17.46,6.3,28.08
5.489,-0.8717,-8.0769,-0.031765,-0.0079412,0.026573,-17.46,6.36,27.96
5.4618,-0.78998,-8.0905,-0.033292,-0.0027489,0.022602,-17.58,6.24,28.2
5.489,-0.81722,-8.1722,-0.032681,-0.0033598,0.01405,-17.52,6.18,28.14
5.4618,-0.84446,-8.1313,-0.034514,0.0018326,0.015882,-17.58,6.3,28.26
5.5026,-0.84446,-8.1858,-0.036652,0.000916,0.017715,-17.58,6.36,28.08
5.5571,-0.84446,-8.0905,-0.039706,0.0097738,0.011606,-17.7,6.42,28.02
5.5707,-0.7355,-8.0905,-0.036041,0.013439,0.018631,-17.64,6.36,27.9
5.6116,-0.8036,-8.145,-0.036346,0.000611,0.018631,-17.64,6.18,27.9
5.5571,-0.84446,-8.1177,-0.030238,-0.0018326,0.020159,-17.4,6.24,27.96
5.5299,-0.83084,-8.1313,-0.028711,0.0024435,0.018631,-17.46,6.12,27.9
5.5299,-0.83084,-8.1722,-0.030543,0.0018326,0.01405,-17.34,6.12,28.02
5.5435,-0.83084,-8.2267,-0.032681,0.000305,0.023213,-17.46,6.12,27.96
5.5162,-0.8036,-8.1586,-0.030849,-0.0051924,0.015882,-17.4,6.12,27.96
5.5026,-0.83084,-8.1313,-0.031765,-0.0024435,0.028405,-17.4,6.12,27.72
5.5162,-0.89894,-8.1586,-0.036652,-0.002138,0.020769,-17.46,6.12,27.6
5.5299,-0.76274,-8.1995,-0.032987,0.0036652,0.018937,-17.4,6.0,27.42
5.5162,-0.8717,-8.1858,-0.036041,0.0051924,0.02138,-17.34,6.0,27.48
5.5435,-0.8717,-8.1586,-0.037568,0.0024435,0.02138,-17.46,6.0,27.48
5.5162,-0.81722,-8.1313,-0.039401,0.000611,0.019853,-17.4,6.24,27.54
5.5162,-0.81722,-8.1586,-0.033903,0.0012217,0.025351,-17.4,6.24,27.54
5.5707,-0.83084,-8.0496,-0.032681,-0.0018326,0.023518,-17.7,6.18,27.42
5.5299,-0.83084,-8.1586,-0.036957,-0.0018326,0.025045,-17.76,6.24,27.36
5.5435,-0.85808,-8.1177,-0.035736,-0.002138,0.025045,-17.88,6.18,27.42
5.5435,-0.76274,-8.145,-0.036041,0.000611,0.016188,-17.82,6.24,27.54
5.5162,-0.85808,-8.1313,-0.03146,-0.0024435,0.019853,-17.88,6.24,27.48
5.5843,-0.77636,-8.1041,-0.040928,0.0036652,0.025351,-18.0,6.36,27.6
5.6116,-0.83084,-8.1177,-0.040012,-0.0012217,0.026573,-18.12,6.54,27.84
5.5843,-0.8036,-8.1586,-0.036652,-0.0064141,0.023824,-18.18,6.6,27.9
5.4754,-0.84446,-8.145,-0.031154,-0.0024435,0.021075,-18.36,6.3,27.78
5.4618,-0.89894,-8.145,-0.030543,-0.016188,0.019853,-18.3,6.36,27.72
5.4754,-0.8717,-8.1858,-0.032681,-0.0076358,0.024435,-18.42,6.24,27.84
5.4754,-0.85808,-8.0905,-0.042761,0.000611,0.019548,-18.42,6.42,27.72
5.5026,-0.85808,-8.0905,-0.03879,0.014355,0.015882,-18.42,6.42,27.72
5.6116,-0.81722,-8.1041,-0.033292,0.014661,0.012217,-18.54,6.48,27.72
5.5435,-0.84446,-8.145,-0.036957,0.0079412,0.017104,-18.6,6.42,27.66
5.489,-0.83084,-8.1041,-0.03879,-0.0048869,0.01741,-18.54,6.3,27.6
5.4754,-0.85808,-8.1586,-0.029932,-0.0054978,0.018021,-18.54,6.36,27.6
5.4754,-0.85808,-8.1858,-0.03207,0.0015272,0.016493,-18.6,6.42,27.36
5.5707,-0.84446,-8.1858,-0.033598,-0.0012217,0.015272,-18.6,6.3,27.36
5.5571,-0.85808,-8.1722,-0.032987,-0.0027489,0.010385,-18.42,6.3,27.3
5.4481,-0.85808,-8.1177,-0.03207,-0.0045815,0.016188,-18.42,6.42,27.36
5.5026,-0.81722,-8.1722,-0.032681,-0.000916,0.018631,-18.6,6.42,27.36
5.5571,-0.76274,-8.1722,-0.037874,0.0054978,0.015577,-18.48,6.3,27.24
5.5435,-0.8036,-8.1586,-0.030849,0.007025,0.016799,-18.48,6.3,27.42
5.4754,-0.83084,-8.1995,-0.031765,0.0039706,0.012217,-18.42,6.42,27.54
5.5435,-0.85808,-8.1177,-0.029932,0.0015272,0.0097738,-18.3,6.42,27.36
5.5162,-0.84446,-8.1177,-0.045204,-0.0051924,0.016188,-18.36,6.48,27.48
5.5435,-0.88532,-8.0632,-0.032681,-0.0048869,0.01741,-18.36,6.54,27.54
5.6116,-0.83084,-8.0905,-0.034208,-0.012217,0.03146,-18.3,6.42,27.54
5.4754,-0.83084,-8.1858,-0.022907,-0.012217,0.018021,-17.88,6.24,27.6
5.4754,-0.84446,-8.2131,-0.029322,-0.0051924,0.015577,-17.7,6.3,27.66
5.5571,-0.77636,-8.2539,-0.034819,0.023824,0.010385,-17.76,6.24,27.6
5.6116,-0.8036,-8.1177,-0.043982,0.022602,0.013134,-17.76,6.3,27.54
5.6388,-0.85808,-8.1313,-0.042761,0.015272,0.010079,-17.7,6.24,27.54
5.5435,-0.83084,-8.0632,-0.036041,0.002138,0.0024435,-17.7,6.18,27.54
5.5162,-0.84446,-8.1177,-0.020159,-0.011301,0.000305,-17.7,6.12,27.42
5.5026,-0.89894,-8.145,-0.023518,-0.0076358,0.0082467,-17.64,6.12,27.42
5.5299,-0.92618,-8.1858,-0.0281,-0.0076358,0.010385,-17.58,6.24,27.36
5.4481,-0.8717,-8.2131,-0.034514,-0.0064141,0.009163,-17.52,6.3,27.42
5.4754,-0.83084,-8.2131,-0.038179,-0.0045815,0.01069,-17.58,6.3,27.36
5.5707,-0.8036,-8.1313,-0.032376,0.0097738,0.0079412,-17.58,6.48,27.24
5.6797,-0.8717,-8.0905,-0.032376,0.012828,0.013439,-17.64,6.6,27.24
5.5707,-0.76274,-7.9951,-0.03207,0.0064141,0.01069,-17.76,6.54,27.18
5.5435,-0.76274,-8.2812,-0.031765,0.0048869,0.018631,-17.64,6.6,27.3
5.4754,-0.83084,-8.1995,-0.036041,0.0036652,0.016799,-17.52,6.66,27.42
5.6116,-0.88532,-8.1313,-0.034514,0.000916,0.013439,-17.52,6.84,27.42
5.5707,-0.8036,-8.1177,-0.03207,-0.01405,0.0097738,-17.46,6.9,27.6
5.5162,-0.81722,-8.1858,-0.033292,-0.012523,0.0094684,-17.58,6.96,27.66
5.5435,-0.8036,-8.0905,-0.035736,-0.0076358,0.013744,-17.64,6.96,27.6
5.5435,-0.76274,-8.0905,-0.040317,-0.000305,0.020464,-17.7,6.9,27.54
5.5435,-0.76274,-8.1177,-0.031765,0.0061087,0.017104,-17.76,6.84,27.66
5.5843,-0.81722,-8.1858,-0.03146,0.0018326,0.017715,-17.58,6.72,27.66
5.5299,-0.84446,-8.1586,-0.029932,-0.0097738,0.016799,-17.7,6.48,27.72
5.5026,-0.92618,-8.1995,-0.032376,0.000611,0.013744,-17.58,6.36,27.78
5.5162,-0.8717,-8.1995,-0.030238,0.0012217,0.018021,-17.58,6.3,27.84
5.5571,-0.8717,-8.1586,-0.036652,0.002138,0.018937,-17.58,6.42,27.84
5.5435,-0.8036,-8.1313,-0.033598,-0.0012217,0.029016,-17.82,6.3,27.66
5.5162,-0.8036,-8.145,-0.036346,-0.0027489,0.02474,-17.7,6.12,27.66
5.5435,-0.77636,-8.1586,-0.037874,0.000916,0.01741,-17.7,6.0,27.54
5.5707,-0.78998,-8.1995,-0.035125,0.0030543,0.010996,-17.88,6.0,27.6
5.5162,-0.78998,-8.0905,-0.039706,0.0024435,0.015577,-17.58,5.94,27.54
5.5435,-0.78998,-8.0632,-0.03207,-0.0085521,0.016493,-17.7,5.76,27.54
5.4618,-0.85808,-8.1858,-0.030543,-0.0082467,0.012523,-17.64,5.82,27.66
5.5435,-0.85808,-8.1995,-0.028711,-0.000916,0.014966,-17.76,5.88,27.72
5.5435,-0.88532,-8.2267,-0.035736,0.0088575,0.0039706,-17.76,5.88,27.72
5.5707,-0.85808,-8.1858,-0.038485,0.0036652,0.0036652,-17.88,6.0,27.66
5.4754,-0.8036,-8.1995,-0.034514,0.0094684,0.0067195,-17.88,6.12,27.6
5.5435,-0.81722,-8.0905,-0.040623,0.0042761,0.0076358,-17.88,6.06,27.66
5.4754,-0.78998,-8.0224,-0.038179,0.0015272,0.01405,-17.64,5.94,27.78
5.5435,-0.8036,-8.1177,-0.032987,0.002138,0.017104,-17.64,6.06,27.9
5.5435,-0.8036,-8.0905,-0.040317,-0.0015272,0.022602,-17.58,6.12,27.9
5.5843,-0.83084,-8.0632,-0.028711,-0.0058032,0.018937,-17.34,6.06,27.9
5.5707,-0.84446,-8.145,-0.031154,-0.015882,0.028405,-17.4,5.88,27.9
5.5435,-0.83084,-8.0905,-0.034514,-0.019242,0.024129,-17.22,6.06,27.9
5.489,-0.83084,-8.1858,-0.029932,-0.0036652,0.02138,-17.04,5.88,27.72
5.5162,-0.76274,-8.1177,-0.034208,0.0024435,0.019853,-16.92,5.94,27.9
5.5435,-0.84446,-8.145,-0.032681,0.0051924,0.023213,-16.8,5.82,28.02
5.5571,-0.8036,-8.1177,-0.032376,-0.0033598,0.022297,-16.74,5.7,28.08
5.5026,-0.83084,-8.2267,-0.028405,-0.0051924,0.0088575,-16.86,5.82,28.02
5.5571,-0.84446,-8.1858,-0.0281,-0.0045815,0.014966,-16.86,5.64,27.9
5.489,-0.84446,-8.1722,-0.038179,0.0058032,0.016799,-16.98,5.7,27.96
5.4754,-0.81722,-8.1313,-0.033903,0.0054978,0.018326,-16.92,5.64,28.08
5.5162,-0.85808,-8.1722,-0.037263,0.0064141,0.015272,-17.04,5.58,28.26
5.5435,-0.76274,-8.1586,-0.029627,0.0058032,0.0058032,-16.98,5.64,28.2
5.489,-0.78998,-8.2131,-0.033903,0.0079412,0.0085521,-16.98,5.7,28.14
5.4754,-0.85808,-8.1177,-0.043371,0.020464,0.018021,-17.1,5.88,28.08
5.5571,-0.89894,-8.1041,-0.038485,0.018326,0.023518,-16.98,5.94,28.2
5.5162,-0.84446,-8.0496,-0.028711,0.0024435,0.023213,-17.04,5.7,28.14
5.5299,-0.85808,-8.1041,-0.032987,-0.010079,0.029932,-16.98,5.7,28.2
5.598,-0.81722,-8.2676,-0.031765,-0.019853,0.023824,-16.74,5.7,28.14
5.6116,-0.8036,-8.1313,-0.033903,-0.0042761,0.01741,-16.86,5.76,27.96
5.5843,-0.85808,-8.1858,-0.037874,-0.002138,0.012828,-17.1,5.88,27.96
5.5435,-0.8036,-8.1177,-0.043982,-0.000916,0.0048869,-17.04,6.0,28.08
5.5162,-0.81722,-8.0905,-0.034514,0.0030543,0.0039706,-17.1,5.94,27.96
5.5435,-0.85808,-8.1858,-0.027794,0.0058032,0.014966,-17.1,6.0,27.96
5.5707,-0.84446,-8.1586,-0.0281,0.0042761,0.012828,-17.28,6.12,27.84
5.5707,-0.85808,-8.145,-0.029322,0.0027489,0.028711,-17.28,6.3,28.08
5.5843,-0.81722,-8.1586,-0.043982,0.0061087,0.020159,-17.22,6.48,27.96
5.5843,-0.85808,-8.1041,-0.031765,-0.002138,0.018021,-17.34,6.54,27.96
5.5571,-0.83084,-8.1858,-0.032376,-0.0064141,0.014355,-17.4,6.48,28.08
5.5026,-0.84446,-8.1313,-0.033598,-0.0061087,0.018937,-17.28,6.3,28.02
5.4754,-0.85808,-8.1858,-0.028405,0.0054978,0.022297,-17.28,6.3,28.08
5.5299,-0.89894,-8.1177,-0.025962,0.0073304,0.024129,-17.4,6.24,28.14
5.5571,-0.83084,-8.1177,-0.034514,0.0067195,0.017104,-17.46,6.0,28.2
5.5707,-0.8036,-8.1313,-0.026878,-0.0018326,0.022297,-17.58,5.94,28.08
5.5435,-0.81722,-8.1177,-0.031154,-0.0030543,0.019853,-17.58,5.82,28.08
5.5299,-0.84446,-8.1586,-0.033598,-0.0051924,0.013744,-17.58,5.64,28.08
5.5435,-0.83084,-8.1177,-0.025351,-0.0015272,0.01741,-17.64,5.76,28.26
5.5435,-0.83084,-8.1313,-0.035125,0.011606,0.01741,-17.7,6.0,28.08
5.5843,-0.8717,-8.0905,-0.030238,0.013134,0.014966,-17.7,6.0,28.02
5.5299,-0.88532,-8.1858,-0.031154,0.007025,0.02138,-17.94,5.88,28.14
5.5435,-0.84446,-8.1858,-0.029932,0.0039706,0.0094684,-17.88,5.88,28.26
5.5707,-0.81722,-8.145,-0.031154,0.013439,0.012523,-17.76,5.88,28.32
5.5707,-0.8036,-8.0496,-0.034514,0.000611,0.014966,-17.64,6.06,28.26
5.5571,-0.7355,-8.0769,-0.029932,-0.0094684,0.015577,-17.46,6.12,28.44
5.4618,-0.83084,-8.1177,-0.028405,-0.0024435,0.026267,-17.52,6.12,28.5
5.5026,-0.88532,-8.2539,-0.027794,-0.0027489,0.023213,-17.46,5.88,28.26
5.5435,-0.83084,-8.2267,-0.033903,0.0054978,0.014661,-17.52,5.76,28.38
5.5299,-0.89894,-8.0632,-0.033598,0.000611,0.0097738,-17.7,5.76,28.38
5.5162,-0.85808,-8.2539,-0.03879,0.0018326,0.013439,-17.7,5.82,28.5
5.5299,-0.78998,-8.0905,-0.032681,0.0061087,0.016493,-17.64,5.88,28.26
5.6116,-0.83084,-8.1177,-0.038485,0.0036652,0.022602,-17.7,5.94,28.08
5.598,-0.83084,-8.0769,-0.027489,0.002138,0.022602,-17.76,5.82,28.2
5.5707,-0.8717,-8.1995,-0.034208,0.0018326,0.02138,-17.82,5.94,28.08
5.5707,-0.84446,-8.1722,-0.03207,-0.0015272,0.020769,-17.82,5.94,27.96
5.598,-0.8036,-8.145,-0.033598,0.0042761,0.01741,-17.7,6.0,28.14
5.5571,-0.8717,-8.1041,-0.034514,0.0033598,0.01741,-17.58,6.0,28.08
5.5026,-0.76274,-8.1177,-0.032987,0.0018326,0.021075,-17.52,5.82,28.02
5.5162,-0.89894,-8.0905,-0.027184,-0.0042761,0.013744,-17.4,5.94,28.08
5.489,-0.76274,-8.1041,-0.036957,0.0051924,0.019853,-17.52,5.88,28.32
5.5299,-0.78998,-8.1177,-0.034208,0.007025,0.016188,-17.46,6.0,28.44
5.5707,-0.8036,-8.0905,-0.033903,0.0036652,0.016188,-17.46,6.12,28.38
5.4754,-0.77636,-8.1177,-0.032681,0.000305,0.018937,-17.52,6.06,28.56
5.5162,-0.84446,-8.145,-0.033903,-0.0024435,0.013439,-17.58,6.06,28.5
5.5162,-0.81722,-8.0632,-0.036041,-0.002138,0.018021,-17.52,5.88,28.5
5.5435,-0.8717,-8.1177,-0.037874,0.0039706,0.020464,-17.82,5.94,28.44
5.5435,-0.84446,-8.1586,-0.036957,0.0015272,0.019242,-17.7,6.0,28.5
5.5162,-0.8717,-8.1041,-0.031154,0.002138,0.016188,-17.76,6.0,28.56
5.5707,-0.8717,-8.0905,-0.033903,0.0024435,0.018631,-17.76,6.0,28.38
5.5026,-0.8717,-8.0905,-0.035125,0.012828,0.027794,-17.7,6.06,28.32
5.6116,-0.84446,-8.1041,-0.035125,-0.000305,0.021991,-17.58,5.94,28.08
5.5435,-0.8036,-8.2267,-0.03146,-0.0015272,0.018021,-17.64,5.88,28.2
5.4618,-0.81722,-8.0769,-0.026573,-0.014661,0.019242,-17.52,5.82,28.2
5.5162,-0.81722,-8.1041,-0.03207,0.000611,0.023518,-17.52,6.06,28.2
5.5571,-0.83084,-8.2131,-0.036652,-0.0030543,0.020464,-17.7,5.82,28.2
5.5162,-0.89894,-8.2131,-0.03207,-0.0015272,0.014355,-17.58,6.0,28.14
5.5707,-0.83084,-8.2267,-0.029016,-0.0054978,0.021991,-17.52,5.94,28.2
5.5707,-0.77636,-8.1586,-0.041539,0.007025,0.018631,-17.52,5.94,28.14
5.5707,-0.78998,-8.1313,-0.04215,0.0067195,0.017715,-17.34,5.7,28.2
5.5843,-0.8036,-8.0632,-0.029322,-0.000305,0.0281,-17.34,5.64,28.26
5.5162,-0.83084,-8.1586,-0.026878,-0.0051924,0.017104,-17.4,5.52,28.2
5.5435,-0.83084,-8.1586,-0.032987,-0.0058032,0.018021,-17.34,5.52,28.2
5.489,-0.83084,-8.2131,-0.030238,-0.0051924,0.023824,-17.52,5.58,28.2
5.4481,-0.83084,-8.1858,-0.034514,-0.000305,0.023518,-17.4,5.52,28.08
5.5571,-0.85808,-8.145,-0.043371,-0.0024435,0.024435,-17.34,5.52,28.26
5.5026,-0.84446,-8.1858,-0.037263,-0.0036652,0.020464,-17.58,5.52,28.14
5.5707,-0.83084,-8.1177,-0.037874,0.0015272,0.027489,-17.64,5.58,28.26
5.489,-0.8036,-8.1177,-0.030543,0.000611,0.019853,-17.58,5.64,28.08
5.5707,-0.8717,-8.0905,-0.035125,-0.000916,0.024129,-17.52,5.76,27.96
5.5435,-0.8036,-8.1586,-0.037568,-0.0036652,0.020769,-17.58,5.88,28.08
5.5435,-0.85808,-8.1858,-0.036652,-0.0051924,0.020464,-17.52,5.88,27.96
5.5435,-0.83084,-8.1858,-0.036957,-0.000611,0.025656,-17.52,5.88,28.02
5.5707,-0.85808,-8.1041,-0.036346,0.0045815,0.027184,-17.64,5.94,28.02
5.5299,-0.89894,-8.2267,-0.031765,-0.0054978,0.024435,-17.58,6.06,27.96
5.5435,-0.84446,-8.1722,-0.03207,0.000611,0.023213,-17.7,6.06,27.78
5.489,-0.8036,-8.1995,-0.033292,-0.000611,0.009163,-17.7,6.06,27.54
5.5843,-0.8036,-8.1177,-0.039401,0.012523,0.019548,-17.88,6.12,27.72
5.5707,-0.81722,-8.0769,-0.029932,0.0058032,0.019242,-17.88,6.06,27.78
5.6116,-0.83084,-8.1041,-0.029627,0.0036652,0.01741,-17.94,6.12,27.54
5.6116,-0.83084,-8.0769,-0.022907,-0.0094684,0.01405,-17.88,6.24,27.42
5.5162,-0.85808,-8.1041,-0.026573,-0.011912,0.010385,-17.88,6.3,27.36
5.489,-0.92618,-8.1995,-0.033903,-0.017104,0.011606,-17.7,6.18,27.42
5.5299,-0.91256,-8.1586,-0.03146,0.0018326,0.0030543,-17.7,6.18,27.48
5.4754,-0.77636,-8.1313,-0.034514,0.0039706,0.0073304,-17.58,6.24,27.42
5.4754,-0.78998,-8.145,-0.036346,0.009163,0.0076358,-17.52,6.3,27.6
5.5299,-0.76274,-8.0905,-0.037263,0.0064141,0.015577,-17.4,6.3,27.54
5.5571,-0.77636,-8.1858,-0.038485,-0.0067195,0.013134,-17.34,6.24,27.42
5.5026,-0.83084,-8.1722,-0.034514,-0.0064141,0.017104,-17.34,6.12,27.6
5.5299,-0.81722,-8.1177,-0.029932,0.000611,0.018021,-17.34,6.06,27.6
5.5843,-0.78998,-8.1313,-0.034208,0.0058032,0.010079,-17.4,6.18,27.6
5.5571,-0.83084,-8.0224,-0.037568,-0.0051924,0.010079,-17.34,6.3,27.42
5.5707,-0.8717,-8.1586,-0.039095,-0.010996,0.011606,-17.4,6.3,27.54
5.5435,-0.8036,-8.0905,-0.037568,0.0051924,0.0094684,-17.34,6.24,27.6
5.5299,-0.83084,-8.1586,-0.032987,0.0076358,0.013134,-17.34,6.12,27.78
5.6116,-0.83084,-8.1586,-0.030543,0.0015272,0.007025,-17.34,6.12,27.6
5.5299,-0.78998,-8.1858,-0.027489,-0.0027489,0.01069,-17.52,6.06,27.54
5.5843,-0.85808,-8.0769,-0.029322,0.000916,0.013134,-17.58,6.12,27.54
5.5571,-0.85808,-8.0632,-0.037263,0.0054978,0.011912,-17.7,6.18,27.54
5.5299,-0.8717,-8.0769,-0.033598,0.0082467,0.017715,-17.64,6.24,27.42
5.5435,-0.85808,-8.145,-0.033903,0.0024435,0.015882,-17.76,6.24,27.54
5.5435,-0.85808,-8.0905,-0.041844,-0.0027489,0.016799,-17.82,6.18,27.42
5.5843,-0.78998,-8.0769,-0.037263,0.011301,0.020464,-17.94,6.18,27.48
5.5162,-0.83084,-8.1586,-0.037874,0.002138,0.012523,-18.06,6.06,27.6
5.5707,-0.83084,-8.1313,-0.035736,0.016493,0.013744,-18.0,6.0,27.54
5.6524,-0.8036,-8.1722,-0.032376,0.000611,0.012217,-18.06,5.88,27.36
5.5299,-0.74912,-8.1177,-0.032987,0.0039706,0.015577,-18.0,5.94,27.36
5.4754,-0.8036,-8.1041,-0.039401,-0.0033598,0.015882,-18.0,6.06,27.48
5.5707,-0.84446,-8.1586,-0.026878,0.0024435,0.015882,-18.18,6.06,27.48
5.5162,-0.8036,-8.1313,-0.032376,-0.000305,0.013134,-18.06,5.94,27.42
5.5571,-0.85808,-8.1586,-0.031154,0.0027489,0.0094684,-18.0,5.94,27.42
5.5299,-0.83084,-8.1041,-0.036041,0.0030543,0.010079,-18.06,5.7,27.54
5.5299,-0.83084,-8.1858,-0.032376,0.0018326,0.0073304,-18.0,5.76,27.66
5.5435,-0.76274,-8.1041,-0.033598,0.0073304,0.016188,-18.0,5.88,27.72
5.5162,-0.77636,-8.1722,-0.036957,0.0024435,0.011606,-17.94,5.82,27.72
5.6116,-0.81722,-8.1586,-0.029932,0.0036652,0.013439,-18.0,5.7,27.6
5.5162,-0.83084,-8.1586,-0.034514,-0.0012217,0.022907,-18.0,5.76,27.48
5.5843,-0.83084,-8.1586,-0.033292,-0.0012217,0.015272,-18.06,5.88,27.54
5.5435,-0.83084,-8.0905,-0.034208,-0.000611,0.015577,-18.12,5.76,27.54
5.5571,-0.83084,-7.9815,-0.030238,-0.0045815,0.011606,-18.12,5.58,27.54
5.5707,-0.78998,-8.1313,-0.032376,0.0015272,0.016799,-18.0,5.58,27.6
5.5435,-0.81722,-8.1041,-0.029016,-0.0061087,0.020769,-18.06,5.64,27.6
5.5707,-0.84446,-8.145,-0.03207,0.0042761,0.018021,-18.0,5.58,27.6
5.5707,-0.8036,-8.1041,-0.029627,-0.0018326,0.018937,-17.94,5.76,27.6
5.5843,-0.89894,-8.1041,-0.039706,-0.0015272,0.014355,-17.88,5.76,27.48
5.5299,-0.83084,-8.2131,-0.032681,-0.0030543,0.012523,-17.88,5.46,27.42
5.5162,-0.88532,-8.1995,-0.035125,-0.0058032,0.014355,-17.82,5.7,27.6
5.5299,-0.83084,-8.1586,-0.037568,0.0082467,0.020464,-17.82,5.82,27.66
5.489,-0.84446,-8.0905,-0.030238,0.0012217,0.01741,-17.88,5.88,27.78
5.5435,-0.83084,-8.0905,-0.037874,-0.0097738,0.015272,-17.76,5.82,27.96
5.5162,-0.77636,-8.1586,-0.036957,-0.011606,0.01069,-17.82,5.94,27.9
5.489,-0.8036,-8.145,-0.034514,0.000916,0.014661,-17.76,6.0,27.72
5.6388,-0.78998,-8.2539,-0.034819,0.0054978,0.017104,-17.52,6.0,27.66
5.5707,-0.76274,-8.1313,-0.030849,-0.0073304,0.016493,-17.58,5.82,27.72
5.5299,-0.84446,-8.0632,-0.019242,-0.011606,0.020769,-17.7,5.94,27.72
5.5162,-0.85808,-8.1586,-0.035736,-0.0054978,0.023824,-17.76,6.0,27.66
5.5162,-0.91256,-8.145,-0.026267,-0.0015272,0.019242,-17.58,5.94,27.9
5.6116,-0.85808,-8.145,-0.033598,-0.0039706,0.01405,-17.52,6.12,28.02
5.5435,-0.8036,-8.1177,-0.040623,-0.0048869,0.010385,-17.52,6.06,28.02
5.5435,-0.8036,-8.0769,-0.038179,0.0033598,0.015272,-17.46,5.88,28.02
5.5162,-0.81722,-8.1041,-0.026573,0.0067195,0.012828,-17.4,5.82,27.96
5.5299,-0.83084,-8.145,-0.036346,-0.0015272,0.019548,-17.4,5.82,28.02
5.5299,-0.81722,-8.1586,-0.030849,-0.0042761,0.021075,-17.28,5.76,27.78
5.5571,-0.83084,-8.1041,-0.033292,0.000305,0.021686,-17.4,5.88,27.9
5.5435,-0.83084,-8.1041,-0.035736,-0.000611,0.022907,-17.52,5.88,28.02
5.5707,-0.85808,-8.2676,-0.036346,-0.0036652,0.015272,-17.52,5.88,28.08
5.5435,-0.8036,-8.1313,-0.028405,-0.01069,0.015882,-17.4,5.88,28.14
5.5299,-0.84446,-8.1586,-0.032376,-0.0027489,0.018631,-17.34,5.94,28.2
5.5571,-0.84446,-8.1858,-0.032681,-0.0027489,0.013439,-17.64,5.94,27.9
5.5435,-0.8036,-8.0905,-0.037568,-0.0018326,0.017715,-17.64,5.94,27.78
5.6116,-0.77636,-8.1313,-0.034208,-0.0015272,0.020464,-17.76,5.82,27.78
5.5162,-0.83084,-8.1177,-0.029016,-0.002138,0.016799,-17.82,5.94,27.84
5.5299,-0.8036,-8.1177,-0.038179,-0.0030543,0.019853,-17.7,5.88,27.84
5.5299,-0.8036,-8.1177,-0.0281,-0.0045815,0.016493,-17.58,6.0,27.78
5.5299,-0.81722,-8.145,-0.03146,-0.0048869,0.018021,-17.64,5.94,28.02
5.5162,-0.89894,-8.1722,-0.033292,-0.0027489,0.02138,-17.7,5.88,27.96
5.5707,-0.83084,-8.1313,-0.037263,-0.000611,0.020159,-17.64,5.94,28.02
5.5162,-0.83084,-8.1858,-0.043677,-0.0015272,0.019853,-17.52,6.12,27.9
5.5299,-0.8036,-8.1177,-0.030543,-0.0015272,0.015882,-17.52,6.12,27.72
5.4754,-0.84446,-8.1722,-0.032376,-0.0024435,0.014355,-17.52,6.12,27.78
5.598,-0.76274,-8.0632,-0.03879,0.011912,0.021686,-17.4,6.0,27.9
5.6388,-0.83084,-8.0905,-0.036041,0.01069,0.016799,-17.46,5.88,27.9
5.5162,-0.83084,-8.0224,-0.03207,-0.0064141,0.016188,-17.4,5.88,27.84
5.5435,-0.81722,-8.1586,-0.029932,-0.01741,0.020464,-17.34,6.06,27.66
5.5571,-0.84446,-8.2131,-0.028405,-0.0097738,0.016799,-17.52,6.06,27.66
5.5026,-1.0624,-8.1586,-0.029627,0.000305,0.016188,-17.58,6.0,27.6
5.5707,-0.81722,-8.1586,-0.036041,0.0076358,0.01741,-17.58,6.06,27.48
5.5707,-0.8036,-8.2131,-0.037874,0.01069,0.014661,-17.58,6.06,27.54
5.6116,-0.8036,-8.1313,-0.03146,0.0054978,0.014966,-17.76,6.06,27.6
5.5435,-0.8036,-8.145,-0.033598,-0.000916,0.014355,-18.0,6.0,27.54
5.4754,-0.83084,-8.1177,-0.032376,-0.0024435,0.019548,-18.12,6.0,27.66
5.4754,-0.84446,-8.145,-0.032681,0.0024435,0.018326,-18.12,5.94,27.54
5.6661,-0.77636,-8.1586,-0.036346,0.0051924,0.021075,-18.06,6.0,27.42
5.6116,-0.81722,-8.1041,-0.036041,-0.012217,0.019853,-18.12,5.94,27.54
5.5162,-0.83084,-8.2131,-0.030238,-0.0039706,0.023824,-18.18,5.88,27.6
5.5162,-0.81722,-8.1586,-0.029016,-0.000611,0.018021,-18.18,5.7,27.78
5.5571,-0.77636,-8.1586,-0.029932,-0.0018326,0.018631,-18.0,5.82,27.96
5.5435,-0.78998,-8.1586,-0.033598,0.000916,0.019242,-18.12,5.82,28.02
5.5843,-0.8036,-8.1313,-0.032987,0.000916,0.016493,-18.18,5.82,28.26
5.5299,-0.84446,-8.1586,-0.034208,-0.0030543,0.020464,-18.12,5.76,28.2
5.5571,-0.83084,-8.0769,-0.030543,0.0018326,0.016799,-17.94,5.82,28.08
5.5299,-0.85808,-8.1586,-0.032681,-0.0012217,0.015577,-17.82,5.88,28.2
5.5162,-0.83084,-8.1041,-0.035736,-0.000305,0.020769,-17.7,5.94,28.14
5.5435,-0.85808,-8.1722,-0.035736,-0.0018326,0.018326,-17.7,5.88,28.2
5.5435,-0.88532,-8.1177,-0.030238,-0.0018326,0.022297,-17.76,6.12,28.38
5.5571,-0.85808,-8.1313,-0.035125,0.0027489,0.018937,-17.64,6.18,28.38
5.5026,-0.85808,-8.145,-0.031154,-0.0030543,0.022297,-17.46,6.24,28.32
5.5707,-0.85808,-8.1995,-0.029627,-0.0051924,0.020464,-17.58,6.24,28.44
5.5707,-0.85808,-8.1313,-0.0281,0.0054978,0.02138,-17.52,6.3,28.44
5.5571,-0.8036,-8.2267,-0.023824,-0.000305,0.009163,-17.46,6.24,28.5
5.5707,-0.8036,-8.1177,-0.040623,0.018326,0.021686,-17.52,6.0,28.38
5.5707,-0.76274,-8.1586,-0.027794,0.010079,0.016799,-17.46,6.0,28.5
5.5707,-0.8036,-8.1586,-0.035736,-0.0024435,0.016799,-17.46,5.82,28.5
5.5299,-0.81722,-8.2131,-0.028405,-0.013744,0.020769,-17.52,5.7,28.56
5.6252,-0.70826,-8.1858,-0.036346,0.002138,0.023824,-17.46,5.64,28.56
5.5843,-0.89894,-8.1177,-0.030238,0.0064141,0.01741,-17.52,5.82,28.62
5.5435,-0.91256,-8.2131,-0.033598,-0.0051924,0.018326,-17.52,5.58,28.62
5.5026,-0.83084,-8.1586,-0.040012,-0.0042761,0.014661,-17.4,5.46,28.68
5.5571,-0.84446,-8.0905,-0.037874,0.0039706,0.013439,-17.46,5.4,28.8
5.5707,-0.83084,-8.0769,-0.038179,0.0094684,0.02138,-17.46,5.46,28.74
5.5843,-0.77636,-8.0632,-0.036346,0.0015272,0.021686,-17.7,5.34,28.56
5.6388,-0.77636,-8.145,-0.035125,-0.0018326,0.023518,-17.76,5.52,28.44
5.5299,-0.83084,-8.1586,-0.037874,0.0015272,0.024435,-17.76,5.64,28.5
5.598,-0.89894,-8.1313,-0.033903,-0.002138,0.025656,-17.76,5.7,28.5
5.5299,-0.83084,-8.1313,-0.036041,0.0042761,0.016493,-17.76,5.82,28.38
5.5571,-0.84446,-8.1586,-0.030849,-0.0012217,0.015882,-17.7,5.76,28.38
5.5571,-0.83084,-8.1313,-0.032681,-0.0042761,0.018937,-17.82,5.88,28.5
5.5571,-0.83084,-8.1041,-0.039095,-0.0018326,0.022907,-17.82,5.7,28.56
5.5299,-0.84446,-8.0632,-0.036652,0.000305,0.018631,-17.82,6.0,28.5
5.5707,-0.8036,-8.1041,-0.036041,0.0015272,0.02138,-17.94,5.94,28.32
5.5707,-0.76274,-8.1586,-0.035736,0.000305,0.020159,-18.0,5.88,28.14
5.5162,-0.78998,-8.1722,-0.033292,0.0045815,0.024435,-17.94,5.76,28.08
5.5707,-0.81722,-8.2267,-0.031765,0.000916,0.02138,-17.88,5.94,28.08
5.5162,-0.8036,-8.1177,-0.032987,0.000916,0.020159,-17.82,5.82,28.2
5.5843,-0.85808,-8.145,-0.036346,0.0045815,0.023213,-17.64,6.06,28.08
5.5571,-0.85808,-8.1858,-0.039095,-0.0012217,0.023824,-17.58,6.06,28.14
5.5435,-0.8036,-8.1586,-0.03879,0.000305,0.024129,-17.58,6.06,28.26
5.5707,-0.83084,-8.1858,-0.037874,-0.007025,0.022907,-17.7,6.06,28.38
5.5162,-0.84446,-8.1858,-0.032987,-0.0024435,0.019242,-17.7,5.94,28.08
5.5435,-0.8717,-8.0905,-0.02474,-0.000611,0.014661,-17.64,6.0,27.96
5.5026,-0.88532,-8.1177,-0.034819,0.0088575,0.02474,-17.58,5.88,27.96
5.5843,-0.85808,-8.0905,-0.036346,0.013439,0.018937,-17.76,6.24,27.96
5.6388,-0.8036,-8.1177,-0.033903,0.0064141,0.021991,-17.64,6.36,28.08
5.5707,-0.78998,-8.1177,-0.031154,-0.0064141,0.024129,-17.58,6.36,28.02
5.5707,-0.88532,-8.1313,-0.030238,-0.0076358,0.021075,-17.52,6.36,28.02
5.5299,-0.89894,-8.1586,-0.025045,-0.002138,0.019853,-17.52,6.36,27.84
5.5707,-0.85808,-8.1995,-0.032987,0.0027489,0.019548,-17.64,6.12,27.72
5.5026,-0.85808,-8.1722,-0.038485,0.0015272,0.016799,-17.76,6.18,27.66
5.5435,-0.8717,-8.1177,-0.044593,0.009163,0.014355,-17.76,6.06,27.66
5.5707,-0.81722,-8.0905,-0.03543,-0.0012217,0.024129,-17.82,6.12,27.6
5.6116,-0.77636,-8.1041,-0.029016,-0.0036652,0.021686,-17.82,6.06,27.72
5.5162,-0.83084,-8.1858,-0.034208,0.0036652,0.02138,-17.82,6.06,27.78
5.5707,-0.85808,-8.1313,-0.033292,-0.0024435,0.026267,-17.76,6.0,27.72
5.5707,-0.85808,-8.145,-0.035736,-0.002138,0.020769,-17.76,5.88,27.84
5.5299,-0.85808,-8.1177,-0.034208,-0.009163,0.017104,-17.76,5.88,27.9
5.5707,-0.83084,-8.0496,-0.041233,-0.0042761,0.021075,-17.88,5.88,27.84
5.5162,-0.78998,-8.145,-0.032681,0.0018326,0.02138,-17.88,5.82,28.02
5.598,-0.83084,-8.036,-0.034819,0.0064141,0.013134,-17.88,6.0,28.14
5.598,-0.83084,-8.036,-0.031154,0.0058032,0.010079,-17.88,6.0,28.14
5.598,-0.85808,-8.1858,-0.032681,-0.0030543,0.013439,-17.82,6.12,28.26
5.5299,-0.95342,-8.1995,-0.031154,-0.0024435,0.012828,-17.76,6.06,28.2
5.5843,-0.85808,-8.1858,-0.031765,0.000611,0.013744,-17.76,6.12,28.2
5.5843,-0.83084,-8.145,-0.029016,-0.0045815,0.01405,-17.82,6.24,28.08
5.5571,-0.78998,-8.1177,-0.03543,0.002138,0.013744,-17.7,6.48,28.26
5.5843,-0.84446,-8.1177,-0.029627,-0.000916,0.0085521,-17.76,6.48,28.26
5.5571,-0.83084,-8.1177,-0.03207,0.0012217,0.016799,-17.76,6.54,28.26
5.5435,-0.83084,-8.0905,-0.035125,-0.0027489,0.012523,-17.82,6.54,28.14
5.5162,-0.83084,-8.145,-0.036041,0.011912,0.016493,-17.94,6.66,28.08
5.5843,-0.88532,-8.1586,-0.029016,0.012217,0.017104,-18.0,6.6,28.14
5.5435,-0.85808,-8.1586,-0.040012,0.011912,0.015577,-18.0,6.6,28.14
5.6388,-0.83084,-8.1041,-0.032376,0.0067195,0.012523,-18.06,6.42,28.08
5.6388,-0.83084,-8.0224,-0.036041,-0.002138,0.014966,-18.12,6.42,28.14
5.5843,-0.77636,-8.1041,-0.029932,-0.007025,0.0094684,-18.12,6.48,28.02
5.5843,-0.78998,-8.145,-0.019548,-0.0051924,0.020159,-18.06,6.54,27.96
5.5707,-0.91256,-8.1041,-0.028405,0.0024435,0.0088575,-17.88,6.36,27.72
5.5843,-0.91256,-8.0905,-0.039095,0.000916,0.011606,-18.06,6.3,27.72
5.5707,-0.83084,-8.0224,-0.03879,-0.0012217,0.011301,-18.06,6.24,27.72
5.4618,-0.85808,-8.0769,-0.033903,-0.000611,0.01069,-18.18,6.24,27.72
5.6116,-0.8036,-8.0632,-0.035736,0.0079412,0.015272,-17.88,6.12,27.78
5.6116,-0.76274,-8.1177,-0.036346,0.007025,0.014355,-17.82,6.24,27.72
5.6116,-0.83084,-8.1586,-0.035736,0.0036652,0.015272,-17.82,6.24,27.72
5.6116,-0.81722,-8.1313,-0.033292,0.000305,0.021075,-17.7,6.12,27.48
5.5843,-0.85808,-8.0905,-0.040928,-0.000305,0.014355,-17.7,6.06,27.42
5.5707,-0.85808,-8.1858,-0.030238,-0.0039706,0.017715,-17.64,6.12,27.24
5.5435,-0.83084,-8.1177,-0.02474,0.0073304,0.014355,-17.76,6.36,27.48
5.5707,-0.88532,-8.0905,-0.034208,0.0042761,0.011606,-17.58,6.36,27.48
5.598,-0.81722,-8.1586,-0.033598,0.0030543,0.014661,-17.7,6.3,27.48
5.5026,-0.85808,-8.0769,-0.033292,0.0036652,0.0073304,-17.64,6.3,27.54
5.4481,-0.85808,-8.1041,-0.034514,0.0088575,0.022602,-17.52,6.36,27.6
5.5435,-0.84446,-8.1177,-0.033598,0.011301,0.018326,-17.76,6.36,27.48
5.5435,-0.8717,-8.0769,-0.03146,0.000916,0.016493,-17.88,6.42,27.3
5.5571,-0.83084,-8.1313,-0.039095,-0.0015272,0.01741,-17.82,6.54,27.48
5.5299,-0.84446,-8.0905,-0.029322,0.000916,0.018021,-17.76,6.6,27.42
5.6116,-0.85808,-8.0905,-0.035736,0.0027489,0.021991,-17.7,6.54,27.66
5.5162,-0.76274,-8.0224,-0.03207,-0.002138,0.017104,-17.64,6.6,27.78
5.6116,-0.8036,-8.1313,-0.031154,-0.0042761,0.0097738,-17.64,6.6,27.96
5.598,-0.81722,-8.1177,-0.036957,0.000916,0.014966,-17.7,6.42,27.9
5.6116,-0.78998,-8.0632,-0.028711,0.000305,0.016493,-17.88,6.3,27.96
5.5435,-0.76274,-8.0905,-0.028405,0.0073304,0.018021,-17.88,6.3,28.02
5.6252,-0.74912,-8.1177,-0.03543,0.000916,0.016799,-17.82,6.3,27.84
5.6797,-0.78998,-8.0905,-0.041539,0.000916,0.0094684,-17.82,6.3,27.84
5.5026,-0.83084,-8.0905,-0.035736,-0.0048869,0.0067195,-17.58,6.36,28.02
5.5026,-0.8036,-8.1177,-0.025045,-0.0082467,0.016799,-17.7,6.36,28.08
5.6116,-0.85808,-8.1995,-0.03207,0.0033598,0.015882,-17.76,6.24,28.02
5.6252,-0.83084,-8.1722,-0.036041,0.0039706,0.01741,-17.76,6.12,28.14
5.5435,-0.83084,-8.1858,-0.03543,-0.0012217,0.0051924,-17.82,6.3,28.02
5.5843,-0.7355,-8.1586,-0.036346,-0.0015272,0.018937,-17.82,6.3,28.08
5.6388,-0.83084,-8.036,-0.037568,-0.0030543,0.016188,-17.88,6.3,28.14
5.5707,-0.84446,-8.1177,-0.040623,0.002138,0.020159,-17.7,6.36,28.14
5.5435,-0.84446,-8.0905,-0.035125,0.000305,0.01741,-17.46,6.42,28.14
5.5435,-0.85808,-8.145,-0.03879,0.002138,0.024435,-17.52,6.42,28.08
5.5707,-0.85808,-8.1177,-0.028711,-0.0039706,0.01405,-17.4,6.3,28.2
5.6116,-0.81722,-8.0905,-0.031154,-0.0036652,0.012828,-17.4,6.24,28.08
5.5707,-0.85808,-8.1041,-0.035736,-0.0051924,0.01405,-17.52,6.06,28.08
5.5435,-0.78998,-8.1041,-0.035736,-0.0030543,0.015272,-17.52,5.76,28.2
5.598,-0.83084,-8.0632,-0.040012,-0.0048869,0.017715,-17.46,5.76,28.2
5.6116,-0.85808,-8.1177,-0.032376,-0.0012217,0.016799,-17.52,5.82,28.2
5.5707,-0.8036,-8.1177,-0.025045,-0.0076358,0.013134,-17.52,5.76,28.08
5.598,-0.8036,-8.1177,-0.028405,-0.0012217,0.018937,-17.58,5.7,28.02
5.5299,-0.8717,-8.145,-0.032681,-0.0045815,0.018631,-17.58,5.64,27.9
5.5707,-0.85808,-8.1041,-0.034208,-0.0058032,0.016188,-17.58,5.64,28.02
5.5571,-0.85808,-8.1586,-0.034208,0.000305,0.018021,-17.7,5.7,28.08
5.5299,-0.85808,-8.1177,-0.033903,-0.0039706,0.016493,-17.64,5.76,28.2
5.5843,-0.78998,-8.0905,-0.033903,-0.0027489,0.020769,-17.64,5.88,28.2
5.5707,-0.8036,-8.145,-0.028711,-0.000305,0.016188,-17.52,6.18,28.14
5.5026,-0.83084,-8.1041,-0.030849,-0.0012217,0.013134,-17.58,6.3,27.96
5.5162,-0.84446,-8.1858,-0.029016,-0.0061087,0.014966,-17.46,6.36,28.02
5.5707,-0.84446,-8.1858,-0.045815,0.0097738,0.019242,-17.52,6.3,27.84
5.5299,-0.83084,-8.1313,-0.038179,0.011912,0.021686,-17.52,6.42,27.9
5.5435,-0.81722,-8.1313,-0.03879,0.0076358,0.024435,-17.58,6.42,27.9
5.489,-0.81722,-8.0905,-0.030849,-0.0064141,0.01741,-17.52,6.48,27.72
5.5162,-0.84446,-8.1041,-0.028711,-0.0076358,0.025045,-17.4,6.66,27.72
5.5299,-0.85808,-8.1177,-0.031154,-0.0061087,0.017104,-17.52,6.66,27.72
5.6116,-0.89894,-8.145,-0.030238,0.0012217,0.019548,-17.34,6.6,27.72
5.5707,-0.85808,-8.1313,-0.043982,0.0048869,0.014966,-17.58,6.6,27.6
5.5571,-0.83084,-8.0905,-0.032987,-0.000611,0.012828,-17.52,6.48,27.6
5.5435,-0.77636,-8.0769,-0.031154,-0.000611,0.018326,-17.46,6.36,27.48
5.5843,-0.8036,-8.1177,-0.029932,-0.0051924,0.018631,-17.34,6.3,27.54
5.5843,-0.8036,-8.145,-0.03146,-0.0030543,0.015882,-17.52,6.24,27.48
5.5571,-0.81722,-8.1041,-0.029322,-0.000916,0.021075,-17.58,6.0,27.54
5.6252,-0.88532,-8.0632,-0.034514,-0.0036652,0.026573,-17.58,5.88,27.54
5.6116,-0.83084,-8.1177,-0.032376,-0.0033598,0.02138,-17.52,5.88,27.6
5.5026,-0.8036,-8.1586,-0.035125,-0.0085521,0.01069,-17.64,6.0,27.96
5.5299,-0.84446,-8.1586,-0.030543,-0.0045815,0.012828,-17.58,5.76,27.84
5.5162,-0.8036,-8.1858,-0.03207,-0.0036652,0.02138,-17.46,5.94,27.78
5.598,-0.83084,-8.1858,-0.03543,0.002138,0.027184,-17.58,5.94,27.84
5.5435,-0.85808,-8.1177,-0.026573,-0.0018326,0.020769,-17.46,5.88,28.02
5.6252,-0.85808,-8.1586,-0.032376,-0.0085521,0.020464,-17.46,5.88,27.96
5.5707,-0.88532,-8.0905,-0.029322,-0.0030543,0.013744,-17.7,5.88,28.02
5.5571,-0.83084,-8.1313,-0.039706,-0.000305,0.024435,-17.58,6.0,28.08
5.5707,-0.83084,-8.1177,-0.03543,0.0012217,0.01405,-17.52,6.06,28.08
5.6116,-0.84446,-8.0905,-0.032681,-0.0030543,0.015882,-17.52,6.18,28.02
5.5435,-0.85808,-8.0632,-0.04215,-0.0024435,0.017715,-17.4,6.18,28.02
5.5162,-0.7355,-8.145,-0.034514,0.0042761,0.020769,-17.52,6.06,27.78
5.5435,-0.8036,-8.0496,-0.030238,0.0039706,0.02138,-17.64,6.0,27.78
5.6116,-0.72188,-8.1586,-0.032376,-0.0051924,0.01069,-17.76,6.06,27.9
5.5707,-0.8036,-8.2131,-0.033903,0.000305,0.013134,-17.76,5.88,27.9
5.5162,-0.85808,-8.1313,-0.043066,0.0027489,0.016799,-17.76,5.88,27.9
5.5707,-0.83084,-8.2131,-0.043677,0.015577,0.020159,-17.82,5.94,27.9
5.6252,-0.76274,-8.0905,-0.036957,0.0082467,0.014355,-17.94,6.0,28.02
5.598,-0.74912,-8.0769,-0.030849,-0.0079412,0.013439,-17.82,5.94,28.14
5.5162,-0.77636,-8.0905,-0.027794,-0.01405,0.018937,-17.88,5.88,28.14
5.5162,-0.85808,-8.1995,-0.028405,-0.0058032,0.021686,-18.0,6.06,28.32
5.5299,-0.8717,-8.1858,-0.030543,-0.0012217,0.024435,-17.82,6.06,28.38
5.6116,-0.85808,-8.1586,-0.03543,0.0048869,0.01741,-17.76,6.18,28.5
5.5707,-0.83084,-8.1586,-0.027794,0.0018326,0.010996,-17.58,6.24,28.56
5.5299,-0.8036,-8.1858,-0.047037,0.000916,0.018021,-17.64,6.3,28.44
5.6116,-0.76274,-8.0769,-0.039095,0.0051924,0.022297,-17.58,6.3,28.56
5.5299,-0.8036,-8.0632,-0.034208,0.0018326,0.020769,-17.58,6.48,28.38
5.5162,-0.77636,-8.1041,-0.032376,-0.0018326,0.018021,-17.58,6.24,28.44
5.5707,-0.8036,-8.2131,-0.041844,0.0045815,0.019242,-17.58,6.12,28.44
5.6116,-0.84446,-8.1313,-0.032376,0.000611,0.019853,-17.58,6.0,28.14
5.5299,-0.8036,-8.145,-0.03146,-0.0061087,0.014966,-17.7,6.3,28.26
5.489,-0.8036,-8.1177,-0.029016,-0.0045815,0.021075,-17.76,6.3,28.08
5.5707,-0.83084,-8.0632,-0.0281,-0.000916,0.018326,-17.7,6.06,27.9
5.5843,-0.8036,-8.1586,-0.036957,-0.000916,0.020159,-17.82,6.0,27.96
5.5299,-0.85808,-8.1586,-0.031154,0.0033598,0.016493,-18.0,5.94,27.96
5.598,-0.83084,-8.0769,-0.035125,0.0033598,0.017104,-17.94,5.76,28.08
5.5026,-0.85808,-8.1722,-0.029627,0.0027489,0.016493,-17.82,5.58,28.14
5.5571,-0.8036,-8.1586,-0.03207,0.0012217,0.017715,-17.82,5.64,28.14
5.5707,-0.83084,-8.0632,-0.031765,-0.000611,0.016493,-18.0,5.76,28.2
5.5843,-0.89894,-8.145,-0.038485,-0.000611,0.016493,-18.0,5.7,28.26
5.5299,-0.85808,-8.1586,-0.032376,0.0042761,0.019853,-18.06,5.76,28.2
5.5571,-0.83084,-8.1313,-0.032987,0.0036652,0.021686,-18.0,5.82,28.26
5.5707,-0.83084,-8.0769,-0.034208,0.0033598,0.025045,-18.0,5.7,28.14
5.5707,-0.8036,-8.1177,-0.0281,-0.0039706,0.020464,-18.0,5.7,28.14
5.5162,-0.77636,-8.1177,-0.029016,-0.000305,0.019242,-18.06,5.7,28.2
5.5162,-0.85808,-8.0905,-0.027794,0.0015272,0.009163,-18.06,5.88,28.14
5.5435,-0.83084,-8.1858,-0.033903,0.0033598,0.01069,-18.0,6.06,28.08
5.5707,-0.8036,-8.1177,-0.036957,0.0058032,0.020464,-18.06,6.18,28.08
5.5707,-0.83084,-8.1313,-0.042761,0.0036652,0.023518,-18.18,6.18,28.08
5.5435,-0.83084,-8.145,-0.033903,-0.0042761,0.017715,-18.24,6.12,28.02
5.5299,-0.8036,-8.1858,-0.024129,-0.0012217,0.01405,-18.0,6.12,28.08
5.4754,-0.8717,-8.1586,-0.037568,0.000611,0.019242,-17.94,6.12,28.08
5.5843,-0.85808,-8.1586,-0.03207,-0.000611,0.016799,-17.7,6.12,28.02
5.5435,-0.8717,-8.0632,-0.037568,0.0015272,0.018021,-17.64,6.18,28.02
5.6252,-0.84446,-8.1041,-0.040012,0.0061087,0.023824,-17.7,6.12,28.02
5.5707,-0.76274,-8.145,-0.035125,0.0012217,0.019242,-17.7,6.24,28.2
5.5707,-0.76274,-8.1313,-0.027794,-0.0036652,0.020159,-17.64,6.3,28.14
5.6116,-0.8036,-8.1722,-0.028405,-0.0012217,0.018631,-17.64,6.18,28.08
5.598,-0.83084,-8.1177,-0.034819,0.007025,0.02474,-17.64,6.12,28.02
5.5435,-0.89894,-8.1313,-0.036652,0.0061087,0.025656,-17.64,6.3,27.84
5.6116,-0.85808,-8.0632,-0.040928,-0.0064141,0.02138,-17.64,6.24,27.84
5.5707,-0.81722,-8.1586,-0.036041,-0.0061087,0.01741,-17.7,6.24,27.84
5.489,-0.85808,-8.1858,-0.036346,-0.0018326,0.016799,-17.64,6.36,27.72
5.5435,-0.84446,-8.1586,-0.032376,0.002138,0.023824,-17.7,6.48,27.78
5.5707,-0.8036,-8.1858,-0.034514,0.0042761,0.025351,-17.94,6.48,27.72
5.5299,-0.88532,-8.1722,-0.033292,-0.000305,0.022297,-18.0,6.6,27.9
5.5707,-0.85808,-8.145,-0.03146,-0.0027489,0.018326,-17.94,6.42,27.9
5.5435,-0.8717,-8.1177,-0.028711,-0.0042761,0.016188,-18.0,6.3,27.78
5.5435,-0.83084,-8.2267,-0.033903,0.0018326,0.018631,-17.88,6.48,27.78
5.5435,-0.83084,-8.1313,-0.041844,0.013439,0.023213,-17.82,6.42,27.9
5.5707,-0.84446,-8.1041,-0.03543,0.0067195,0.015577,-17.82,6.24,27.9
5.6116,-0.83084,-8.1313,-0.036346,-0.0039706,0.027184,-17.88,6.06,28.02
5.6116,-0.85808,-8.1041,-0.031154,-0.010385,0.019242,-17.82,6.06,27.9
5.5026,-0.84446,-8.1586,-0.034514,-0.0030543,0.023518,-17.88,6.12,27.96
5.5707,-0.8036,-8.0632,-0.038179,0.0036652,0.007025,-17.94,6.0,27.84
5.5162,-0.85808,-8.145,-0.03879,0.011912,0.019548,-18.0,5.82,27.9
5.5843,-0.78998,-8.1586,-0.036652,0.0085521,0.019242,-17.94,5.88,27.84
5.6116,-0.84446,-8.1177,-0.032987,0.0076358,0.021686,-17.76,5.64,27.66
5.598,-0.83084,-8.0632,-0.03543,-0.010385,0.015577,-17.7,5.76,27.78
5.5299,-0.77636,-8.0905,-0.027489,-0.0094684,0.01069,-17.7,5.76,27.78
5.5162,-0.92618,-8.2131,-0.029932,-0.011606,0.0097738,-17.7,5.7,27.96
5.489,-0.99429,-8.145,-0.032376,0.0051924,0.0076358,-17.64,5.82,27.9
5.5571,-0.92618,-8.1313,-0.039095,0.0039706,0.01069,-17.7,5.94,27.96
5.6116,-0.76274,-8.1177,-0.037568,0.010996,0.016188,-17.58,5.88,27.9
5.5707,-0.77636,-8.0905,-0.029016,0.0045815,0.01069,-17.52,5.88,27.9
5.6116,-0.81722,-8.1722,-0.035125,-0.0061087,0.016188,-17.4,5.88,27.72
5.5435,-0.83084,-8.0632,-0.029322,-0.0039706,0.019548,-17.46,5.82,27.72
5.6116,-0.85808,-8.0769,-0.035736,0.0024435,0.015577,-17.4,5.88,27.66
5.5707,-0.85808,-8.145,-0.040928,0.0024435,0.018326,-17.4,5.88,27.72
5.6116,-0.89894,-8.1586,-0.036346,0.0030543,0.01741,-17.76,6.0,27.9
5.5707,-0.85808,-8.1177,-0.03146,-0.0036652,0.01741,-17.64,6.12,27.78
5.5435,-0.84446,-8.0905,-0.035736,-0.0058032,0.0058032,-17.58,6.12,27.78
5.5162,-0.8036,-8.1586,-0.034208,-0.0018326,0.012217,-17.64,6.06,27.72
5.5162,-0.81722,-8.1177,-0.029322,0.0015272,0.016493,-17.82,6.0,27.66
5.5299,-0.84446,-8.1177,-0.036652,0.0045815,0.015577,-17.76,6.12,27.66
5.5707,-0.8036,-8.1313,-0.029932,0.0027489,0.013439,-17.82,6.24,27.6
5.6116,-0.83084,-8.1586,-0.029932,0.0039706,0.0097738,-18.0,6.36,27.72
5.6116,-0.83084,-8.1722,-0.038485,0.000305,0.013744,-18.06,6.42,27.84
5.598,-0.8036,-8.0769,-0.033292,0.000305,0.013744,-17.76,6.48,27.84
5.5843,-0.76274,-8.1586,-0.037568,0.000305,0.0097738,-17.82,6.48,27.78
5.5435,-0.78998,-8.0905,-0.030238,-0.000916,0.015882,-17.88,6.48,27.9
5.6116,-0.8036,-8.1313,-0.03207,-0.0073304,0.015577,-17.64,6.36,27.84
5.6252,-0.83084,-8.1313,-0.034819,-0.0036652,0.010079,-17.58,6.24,27.84
5.598,-0.83084,-8.1177,-0.036041,0.0015272,0.013439,-17.64,6.12,27.84
5.5435,-0.84446,-8.1586,-0.03879,0.015272,0.015272,-17.76,6.12,27.78
5.6252,-0.77636,-8.1586,-0.033598,0.0027489,0.012523,-17.76,6.12,27.84
5.5162,-0.81722,-7.9951,-0.03207,-0.0039706,0.01405,-17.82,5.94,27.66
5.5571,-0.77636,-8.145,-0.033598,-0.0076358,0.011912,-17.82,5.88,27.72
5.489,-0.84446,-8.145,-0.036652,0.0039706,0.016799,-17.88,5.82,27.66
5.5435,-0.91256,-8.1586,-0.032376,0.0030543,0.018326,-17.94,5.88,27.66
5.5571,-0.92618,-8.1177,-0.034208,-0.000305,0.011606,-18.06,5.82,27.66
5.6116,-0.83084,-8.0769,-0.031765,-0.000611,0.012217,-18.12,5.94,27.66
5.5707,-0.83084,-8.1722,-0.039706,0.0054978,0.0088575,-18.12,6.0,27.54
5.5707,-0.81722,-8.0632,-0.033292,-0.000611,0.018937,-18.12,6.06,27.54
5.5435,-0.76274,-8.0496,-0.034208,0.000611,0.015882,-18.18,6.12,27.48
5.5707,-0.8036,-8.0905,-0.032376,-0.000305,0.017104,-18.24,6.24,27.48
5.5435,-0.78998,-8.1177,-0.029016,-0.0012217,0.01405,-18.06,6.3,27.42
5.598,-0.77636,-8.1177,-0.034208,-0.0048869,0.016188,-17.88,6.3,27.3
5.5707,-0.85808,-8.0632,-0.03207,-0.000916,0.015577,-17.82,6.48,27.36
5.5571,-0.89894,-8.1313,-0.037568,0.0042761,0.015272,-17.7,6.48,27.36
5.598,-0.78998,-8.0905,-0.029322,-0.000611,0.01405,-17.7,6.48,27.42
5.6116,-0.8036,-8.036,-0.038179,0.0042761,0.024129,-17.28,6.66,27.36
5.598,-0.84446,-8.0905,-0.021991,-0.011606,0.0085521,-17.16,6.6,27.54
5.5162,-0.81722,-8.1041,-0.0281,-0.0061087,0.015577,-17.04,6.6,27.6
5.5299,-0.85808,-8.1177,-0.031154,0.0027489,0.019853,-16.98,6.48,27.54
5.5707,-0.84446,-8.0632,-0.038179,0.000611,0.013439,-17.1,6.36,27.6
5.5435,-0.78998,-8.0905,-0.029016,-0.0048869,0.017715,-17.16,6.18,27.72
5.5299,-0.8036,-8.1177,-0.03879,-0.0036652,0.016799,-17.34,6.12,27.84
5.5435,-0.8036,-8.0769,-0.03146,0.0027489,0.021991,-17.16,5.88,27.9
5.6116,-0.8717,-8.0905,-0.039095,-0.000916,0.013744,-17.52,5.76,27.96
5.5843,-0.8036,-8.1041,-0.036652,0.000611,0.018631,-17.64,5.7,27.9
5.5707,-0.85808,-8.1722,-0.03879,-0.0051924,0.015272,-17.76,5.7,27.84
5.598,-0.83084,-8.0905,-0.031765,0.0024435,0.019548,-17.82,5.76,27.84
5.5707,-0.83084,-8.0632,-0.040012,0.0097738,0.015272,-17.76,5.94,28.02
5.6116,-0.85808,-8.1177,-0.031765,0.0054978,0.018021,-17.76,5.94,28.14
5.5843,-0.8036,-8.0905,-0.036041,-0.009163,0.0088575,-17.88,6.0,28.2
5.6388,-0.84446,-8.1586,-0.035125,-0.0015272,0.016493,-17.76,6.3,28.02
5.5707,-0.88532,-8.1177,-0.031765,0.0076358,0.016188,-17.64,6.3,27.84
5.6252,-0.8717,-8.0905,-0.033903,0.0097738,0.010385,-17.58,6.18,27.78
5.5571,-0.81722,-8.1177,-0.033903,-0.0051924,0.011606,-17.7,6.36,27.84
5.4754,-0.84446,-8.1177,-0.043371,0.0042761,0.013134,-17.64,6.36,27.9
5.5707,-0.8036,-8.0905,-0.048258,0.0048869,0.012217,-17.64,6.3,27.84
5.5299,-0.84446,-8.1313,-0.03879,0.012217,0.016799,-17.52,6.18,27.84
5.5571,-0.83084,-8.1313,-0.036652,0.016799,0.020159,-17.58,6.12,27.96
5.6661,-0.77636,-8.145,-0.03879,0.013134,0.019242,-17.58,6.24,27.96
5.6116,-0.83084,-8.1177,-0.029932,-0.01069,0.014966,-17.52,5.94,27.9
5.5299,-0.84446,-8.0496,-0.030543,-0.0054978,0.01069,-17.52,6.06,27.78
5.5162,-0.85808,-8.1177,-0.037263,0.0097738,0.015272,-17.46,5.94,27.84
5.6661,-0.85808,-8.0769,-0.038179,0.0094684,0.0094684,-17.58,5.88,27.84
5.598,-0.8036,-8.0088,-0.03543,0.0027489,0.0082467,-17.64,5.88,27.9
5.5707,-0.8036,-8.0905,-0.032987,0.0030543,0.015882,-17.76,5.94,27.78
5.5571,-0.8036,-8.0905,-0.037568,0.0054978,0.018937,-17.82,6.06,27.78
5.6116,-0.8717,-8.1177,-0.03207,-0.0036652,0.018021,-17.82,6.18,27.66
5.5162,-0.81722,-8.1041,-0.029322,-0.0061087,0.026267,-17.76,6.12,27.66
5.5299,-0.77636,-8.1586,-0.035125,-0.000916,0.034819,-17.7,6.12,27.6
5.6252,-0.8036,-8.0632,-0.03146,-0.0076358,0.034514,-17.64,6.12,27.54
5.5843,-0.83084,-8.0905,-0.0281,-0.013744,0.038485,-17.76,6.0,27.6
5.5707,-0.81722,-8.0905,-0.0281,-0.018937,0.040012,-17.82,6.12,27.6
5.5707,-0.88532,-8.0632,-0.029016,-0.01405,0.042761,-17.76,6.06,27.72
5.6388,-0.84446,-8.2267,-0.033292,-0.020464,0.042761,-17.82,6.06,27.9
5.6116,-0.84446,-8.2403,-0.028711,-0.023518,0.044288,-17.82,6.06,27.9
5.6388,-0.78998,-8.1858,-0.040012,-0.018631,0.036346,-17.88,6.0,28.02
5.4754,-0.8036,-8.1177,-0.028711,-0.01741,0.037263,-17.94,5.94,28.08
5.5843,-0.8036,-8.1177,-0.033903,-0.010385,0.031154,-18.06,5.82,28.08
5.5707,-0.8717,-8.1177,-0.025351,-0.017715,0.029627,-18.0,5.64,28.2
5.5435,-0.89894,-8.1858,-0.018021,-0.025351,0.026267,-18.0,5.64,28.26
5.5299,-0.91256,-8.2403,-0.033292,-0.013744,0.026573,-18.12,5.7,28.32
5.6252,-0.92618,-8.1995,-0.030238,-0.0067195,0.019853,-18.12,5.76,28.26
5.5571,-0.89894,-8.1177,-0.04215,-0.0064141,0.019242,-17.94,5.76,28.08
5.5026,-0.84446,-8.1995,-0.036346,-0.0012217,0.0082467,-18.0,5.76,28.2
5.5162,-0.92618,-8.1313,-0.044593,0.0033598,0.0088575,-18.0,5.64,28.14
5.5571,-0.83084,-8.1313,-0.029627,0.0030543,0.0079412,-17.94,5.58,28.2
5.5571,-0.8036,-8.0632,-0.036346,-0.0018326,0.025656,-17.7,5.58,28.08
5.6116,-0.8717,-8.0905,-0.029322,-0.012217,0.032987,-17.82,5.58,27.96
5.6252,-0.89894,-8.145,-0.026573,-0.021075,0.033598,-17.76,5.64,27.96
5.5707,-0.96704,-8.1313,-0.028711,-0.027794,0.03543,-17.88,5.58,28.08
5.5162,-0.95342,-8.1858,-0.0281,-0.044899,0.037263,-17.64,5.58,28.08
5.4754,-0.92618,-8.1041,-0.037263,-0.043982,0.040317,-17.7,6.0,28.02
5.3937,-0.85808,-8.1586,-0.033598,-0.034514,0.048564,-17.64,5.88,28.08
5.4754,-0.85808,-8.1858,-0.033598,-0.039095,0.061392,-17.64,5.94,28.02
5.5435,-0.8036,-8.2131,-0.037263,-0.045204,0.063225,-17.7,5.94,27.96
5.5162,-0.8036,-8.2539,-0.041233,-0.047342,0.0562,-17.76,5.88,27.9
5.4481,-0.81722,-8.2267,-0.044899,-0.020159,0.037263,-17.64,5.88,27.84
5.3937,-0.76274,-8.1177,-0.044593,0.0039706,0.037568,-17.76,6.0,27.78
5.5026,-0.8036,-8.1858,-0.032987,0.028405,0.033292,-17.82,6.06,27.96
5.5299,-0.77636,-8.0632,-0.031765,0.027794,0.040928,-17.94,6.18,27.9
5.5707,-0.83084,-8.1177,-0.033598,0.027489,0.03879,-17.88,6.24,27.96
5.5707,-0.89894,-8.2131,-0.032376,0.018631,0.03207,-17.76,6.24,27.9
5.6252,-0.84446,-8.1722,-0.037568,0.0048869,0.022602,-17.82,6.3,27.84
5.5026,-0.91256,-8.1041,-0.032681,-0.002138,0.018326,-17.94,6.06,27.72
5.5162,-0.8717,-8.2267,-0.034819,0.013439,0.024435,-17.88,6.24,27.78
5.5026,-0.95342,-8.1313,-0.033292,0.011606,0.034514,-17.82,6.24,28.02
5.5162,-0.89894,-8.1586,-0.018021,-0.000305,0.036041,-17.94,6.3,28.02
5.489,-0.92618,-8.1995,-0.026573,-0.013134,0.032376,-17.88,6.3,28.02
5.5026,-0.98067,-8.2948,-0.03207,-0.010079,0.031765,-18.06,6.54,27.9
5.4481,-1.0488,-8.2131,-0.033292,-0.000611,0.020159,-18.0,6.54,27.96
5.4345,-0.99429,-8.2812,-0.039095,0.0079412,0.016493,-18.0,6.48,27.9
5.4754,-0.95342,-8.1586,-0.027794,0.009163,0.016799,-18.18,6.24,28.08
5.5162,-0.9398,-8.2267,-0.041233,0.0067195,0.015577,-18.12,6.3,28.2
5.5162,-0.76274,-8.1722,-0.033903,0.0076358,0.018631,-18.18,6.36,28.26
5.5162,-0.83084,-8.1313,-0.03207,0.011606,0.022602,-18.24,6.24,28.26
5.5707,-0.84446,-8.1041,-0.041844,0.019853,0.033903,-18.3,6.3,28.32
5.598,-0.89894,-8.1177,-0.035125,0.0088575,0.03146,-18.42,6.24,28.32
5.5299,-0.91256,-8.1722,-0.042455,0.000305,0.017715,-18.36,6.36,28.02
5.6388,-0.89894,-8.1177,-0.036346,-0.011301,0.012523,-18.24,6.36,28.08
5.5162,-0.85808,-8.145,-0.033292,-0.010079,0.015272,-18.24,6.42,28.08
5.4073,-0.83084,-8.1041,-0.033598,-0.0048869,0.01741,-18.3,6.24,28.08
5.4481,-0.85808,-8.1586,-0.03543,0.01069,0.025045,-18.24,6.18,28.02
5.5162,-0.85808,-8.145,-0.025962,0.013134,0.030849,-18.3,6.24,28.02
5.5707,-0.92618,-8.0905,-0.034208,0.016188,0.029016,-18.3,6.42,27.84
5.6116,-0.96704,-8.1858,-0.032376,0.0048869,0.030543,-18.24,6.3,27.84
5.598,-0.92618,-8.0905,-0.03543,-0.002138,0.028405,-18.3,6.24,27.84
5.489,-0.89894,-8.1586,-0.030543,-0.011301,0.0281,-18.24,6.3,27.96
5.5162,-1.0079,-8.1586,-0.029322,-0.0030543,0.025962,-18.18,6.36,27.84
5.4754,-0.89894,-8.2267,-0.031765,0.0027489,0.027794,-18.0,6.24,27.84
5.5707,-0.92618,-8.2403,-0.027794,0.0048869,0.02138,-18.06,6.24,28.02
5.489,-0.92618,-8.1586,-0.036652,-0.0061087,0.018021,-18.12,6.3,27.9
5.4481,-0.85808,-8.2131,-0.036346,0.018631,0.014355,-18.18,6.12,28.08
5.4481,-0.91256,-8.1177,-0.0281,0.028711,0.021991,-18.0,6.12,28.08
5.4618,-0.89894,-8.0769,-0.038179,0.033598,0.0281,-17.94,6.18,28.2
5.6252,-0.81722,-8.0905,-0.030849,0.020159,0.030849,-17.88,6.12,28.2
5.6524,-0.89894,-8.1586,-0.034514,-0.0076358,0.030543,-17.82,6.06,28.14
5.5571,-0.95342,-8.1995,-0.029932,-0.027794,0.022297,-17.94,6.18,28.2
5.489,-0.9398,-8.1586,-0.031765,-0.018326,0.023824,-17.82,6.36,28.2
5.4073,-0.91256,-8.1586,-0.03879,-0.0088575,0.024129,-17.7,6.3,28.26
5.4209,-0.89894,-8.1722,-0.038179,0.0033598,0.021075,-17.58,6.3,28.38
5.5162,-0.85808,-8.1586,-0.041844,0.01069,0.016493,-17.76,6.48,28.56
5.5435,-0.96704,-8.145,-0.032681,0.0097738,0.021991,-17.64,6.54,28.56
5.5162,-0.91256,-8.1995,-0.030543,-0.0024435,0.01405,-17.76,6.6,28.8
5.5299,-0.96704,-8.1858,-0.040317,-0.0036652,0.019242,-17.7,6.66,28.86
5.6388,-0.91256,-8.1177,-0.03543,-0.002138,0.021686,-17.76,6.72,28.74
5.489,-0.88532,-8.1586,-0.045204,-0.0039706,0.016493,-17.88,6.66,28.68
5.5026,-0.89894,-8.0905,-0.030543,-0.0045815,0.020159,-17.88,6.66,28.74
5.5435,-0.89894,-8.1858,-0.027794,-0.01069,0.023824,-17.94,6.66,28.74
5.5026,-0.89894,-8.1858,-0.036041,-0.0018326,0.022602,-17.88,6.54,28.68
5.5162,-0.84446,-8.1722,-0.034819,-0.0039706,0.013439,-18.06,6.48,28.68
5.5162,-0.89894,-8.1586,-0.036041,-0.0018326,0.01405,-18.06,6.48,28.5
5.5162,-0.8717,-8.1177,-0.039095,0.0067195,0.01405,-18.3,6.24,28.26
5.5299,-0.85808,-8.1177,-0.03207,0.0067195,0.014355,-18.36,6.12,28.2
5.6252,-0.89894,-8.0769,-0.039401,0.0054978,0.015577,-18.42,5.94,28.08
5.5435,-0.96704,-8.2676,-0.032376,-0.0012217,0.0082467,-18.12,6.0,27.9
5.5162,-0.95342,-8.1586,-0.032681,0.0088575,0.010385,-18.12,6.06,27.78
5.4481,-0.91256,-8.2131,-0.033903,0.0036652,0.015882,-18.12,5.88,27.9
5.4754,-0.88532,-8.1041,-0.035125,0.000611,0.01741,-18.12,5.88,27.9
5.5707,-0.95342,-8.1313,-0.03146,-0.0058032,0.021686,-18.12,5.94,27.84
5.4481,-0.92618,-8.145,-0.037263,0.0027489,0.021991,-18.12,6.0,27.84
5.6116,-0.89894,-8.0769,-0.039706,0.010079,0.018326,-18.06,6.0,27.72
5.598,-0.89894,-8.1722,-0.040928,0.010385,0.021686,-18.0,6.12,27.66
5.5026,-0.92618,-8.0496,-0.030238,-0.019853,0.013134,-17.88,6.24,27.72
5.4481,-0.92618,-8.1313,-0.029322,-0.025962,0.015882,-17.82,6.36,27.78
5.4481,-0.9398,-8.2539,-0.031765,-0.0088575,0.012523,-18.0,6.66,27.84
5.4481,-0.9398,-8.2539,-0.037263,0.0045815,0.015272,-18.12,6.6,27.84
5.5162,-0.92618,-8.1858,-0.03543,0.015577,0.002138,-18.18,6.72,27.84
5.5843,-0.85808,-8.1177,-0.033292,0.012523,0.0054978,-18.24,6.84,27.78
5.6388,-0.83084,-8.0496,-0.035125,0.0018326,0.015882,-18.3,6.78,27.6
5.5707,-0.85808,-8.1177,-0.03879,-0.0058032,0.016799,-18.24,6.96,27.78
5.5435,-0.8717,-8.0632,-0.032681,-0.0024435,0.016188,-18.3,6.96,27.72
5.5435,-0.92618,-8.1858,-0.030238,-0.0036652,0.016188,-18.3,6.72,27.78
5.5162,-0.8717,-8.1858,-0.030543,-0.0076358,0.021686,-18.42,6.9,27.78
5.5162,-0.9398,-8.2131,-0.026878,-0.002138,0.013439,-18.42,6.72,27.84
5.3937,-0.88532,-8.1858,-0.03543,0.0027489,0.019242,-18.54,6.78,27.84
5.5162,-1.0079,-8.1177,-0.037874,0.013439,0.015272,-18.54,6.6,27.54
5.5707,-0.88532,-8.0905,-0.03543,0.016799,0.014661,-18.3,6.66,27.54
5.6116,-0.95342,-8.0905,-0.041233,0.010996,0.018021,-18.12,6.66,27.54
5.5707,-0.89894,-8.1041,-0.032987,0.0039706,0.011606,-18.06,6.42,27.66
5.5707,-0.98067,-8.1858,-0.030849,-0.0094684,0.011912,-18.12,6.48,27.72
5.5026,-0.88532,-8.1041,-0.036652,-0.009163,0.0030543,-18.0,6.54,27.78
5.6116,-0.89894,-8.2403,-0.034514,-0.0094684,0.000305,-18.12,6.6,27.6
5.5299,-0.91256,-8.145,-0.028711,-0.0030543,-0.000611,-18.0,6.48,27.66
5.5162,-0.91256,-8.1722,-0.034208,0.0076358,0.0027489,-18.0,6.6,27.6
5.489,-0.85808,-8.2539,-0.030849,0.0094684,-0.0054978,-17.94,6.48,27.72
5.5435,-0.8717,-8.1722,-0.037874,0.013134,-0.0067195,-18.0,6.24,27.84
5.5435,-0.8036,-8.1313,-0.03543,0.0067195,-0.007025,-18.0,6.06,27.9
5.4481,-0.88532,-8.0769,-0.03879,-0.0024435,0.0024435,-18.18,6.06,27.96
5.5162,-0.88532,-8.1041,-0.032681,0.0054978,0.0076358,-18.12,6.12,28.08
5.5435,-0.8717,-8.0632,-0.039706,0.000916,0.014966,-18.42,6.24,28.08
5.5707,-0.88532,-8.0905,-0.030238,-0.002138,0.017715,-18.36,6.12,28.02
5.5435,-0.89894,-8.0224,-0.029016,-0.018631,0.023213,-18.6,6.18,27.9
5.5571,-0.88532,-8.0905,-0.021075,-0.020464,0.029322,-18.48,6.06,27.96
5.489,-0.92618,-8.1858,-0.032681,-0.026267,0.018631,-18.36,6.0,28.02
5.489,-0.8717,-8.3357,-0.028405,-0.021686,0.015882,-18.3,6.06,27.84
5.5026,-0.83084,-8.1858,-0.042455,0.0051924,-0.002138,-18.36,6.18,27.9
5.4073,-0.76274,-8.1995,-0.038179,0.027794,-0.0045815,-18.3,6.18,27.84
5.5299,-0.77636,-8.0496,-0.044899,0.050396,-0.018631,-18.3,6.3,27.78
5.5843,-0.8036,-8.0905,-0.035736,0.054367,-0.018937,-18.3,6.6,27.78
5.6933,-0.83084,-8.0769,-0.027489,0.027184,-0.020769,-18.12,6.6,27.72
5.7069,-0.98067,-8.1858,-0.020464,-0.028405,-0.0018326,-18.12,6.66,27.66
5.3528,-1.0624,-8.1586,-0.023518,-0.054978,-0.002138,-18.12,6.6,27.66
5.3392,-1.0624,-8.1177,-0.032681,-0.020159,0.017104,-18.18,6.66,27.66
5.3392,-0.92618,-8.2539,-0.036652,0.058948,-0.011912,-18.24,6.42,27.9
5.6116,-0.83084,-8.2131,-0.03207,0.055283,-0.0048869,-18.18,6.42,27.9
5.6661,-0.83084,-8.1041,-0.032987,0.050396,-0.0045815,-18.18,6.42,28.02
5.6797,-0.76274,-8.1041,-0.040012,0.051007,-0.012217,-18.18,6.48,28.08
5.5843,-0.76274,-8.0905,-0.03543,-0.0094684,-0.0018326,-18.0,6.42,28.32
5.5026,-0.85808,-7.9815,-0.022602,-0.015272,0.015882,-18.06,6.48,28.32
5.5843,-0.85808,-8.0496,-0.032681,0.0064141,0.022297,-17.82,6.42,28.26
5.7069,-0.89894,-8.145,-0.029932,0.0045815,0.018021,-17.88,6.06,28.32
5.5435,-0.91256,-8.0224,-0.035736,-0.011606,0.023824,-17.94,6.06,28.32
5.5026,-0.88532,-8.0905,-0.036346,-0.023213,0.022602,-17.94,6.06,28.32
5.5843,-0.81722,-8.0632,-0.036346,-0.025656,0.028711,-17.82,6.0,28.44
5.5162,-0.83084,-8.1177,-0.030543,-0.020464,0.027489,-17.7,6.0,28.56
5.489,-0.83084,-8.1041,-0.032987,-0.011912,0.029016,-17.64,6.06,28.5
5.5707,-0.89894,-8.1586,-0.02474,-0.0033598,0.021991,-17.64,6.3,28.38
5.6116,-0.85808,-8.0769,-0.023518,-0.0018326,0.017715,-17.64,6.12,28.26
5.5162,-0.83084,-8.145,-0.027794,-0.0030543,0.026267,-17.64,6.0,28.32
5.5435,-0.85808,-8.1858,-0.033903,-0.0067195,0.021075,-17.88,5.88,28.02
5.5707,-0.89894,-8.2131,-0.027184,-0.0045815,0.019548,-17.94,5.76,28.14
5.5435,-0.88532,-8.1586,-0.026878,-0.011606,0.019242,-18.12,5.82,28.08
5.5435,-0.91256,-8.1858,-0.031765,-0.0058032,0.027184,-18.06,5.94,28.08
5.5435,-0.85808,-8.1177,-0.040623,-0.0042761,0.021991,-18.12,5.94,28.08
5.5707,-0.85808,-8.1177,-0.03543,-0.0015272,0.021075,-18.18,5.94,28.14
5.5299,-0.85808,-8.1177,-0.034819,0.002138,0.017104,-18.18,6.0,28.14
5.6116,-0.8717,-8.1177,-0.03543,-0.0051924,0.016188,-18.24,6.06,28.02
5.6252,-0.89894,-8.1858,-0.032681,0.0015272,0.020159,-18.3,6.0,28.08
5.5435,-0.9398,-8.1586,-0.028405,-0.0061087,0.019242,-18.3,5.76,28.26
5.5162,-0.91256,-8.2267,-0.033598,-0.0054978,0.024129,-18.3,6.0,28.26
5.4754,-0.89894,-8.2131,-0.03543,0.000611,0.025351,-18.24,6.06,28.26
5.5026,-0.88532,-8.145,-0.036346,0.0015272,0.019853,-18.12,6.06,28.44
5.5299,-0.8717,-8.0769,-0.039706,0.0045815,0.020464,-18.06,6.12,28.38
5.5162,-0.89894,-8.145,-0.037874,0.0045815,0.023213,-17.88,6.12,28.62
5.5435,-0.85808,-8.1858,-0.034514,-0.0051924,0.016799,-17.88,6.06,28.56
5.6388,-0.89894,-8.0905,-0.033903,-0.0027489,0.015577,-17.76,5.94,28.56
5.5162,-0.92618,-8.1313,-0.033292,-0.0051924,0.011606,-17.76,5.76,28.44
5.5162,-0.91256,-8.1177,-0.033598,0.000305,0.022297,-17.64,5.88,28.32
5.5162,-0.84446,-8.0905,-0.037568,-0.0048869,0.020464,-17.7,5.7,28.44
5.5435,-0.92618,-8.0905,-0.029016,-0.0051924,0.014355,-17.58,5.88,28.2
5.5707,-0.88532,-8.1177,-0.043677,0.0012217,0.015882,-17.58,5.88,28.08
5.5299,-0.85808,-8.145,-0.035736,0.0036652,0.017104,-17.46,6.0,28.08
5.489,-0.83084,-8.1313,-0.039095,0.007025,0.013439,-17.46,5.94,28.2
5.5707,-0.8717,-8.1586,-0.032376,0.012217,0.014355,-17.64,5.82,27.9
5.6116,-0.88532,-8.1722,-0.036346,-0.0042761,0.020464,-17.64,5.76,27.72
5.5707,-0.85808,-8.0769,-0.031765,-0.014661,0.018937,-17.76,5.7,27.78
5.5435,-0.88532,-8.0905,-0.023824,-0.015272,0.023824,-17.82,5.7,27.78
5.5571,-0.91256,-8.1586,-0.026878,-0.012828,0.02474,-17.88,5.88,27.78
5.5707,-0.89894,-8.1858,-0.034514,-0.0051924,0.017104,-17.82,5.76,27.9
5.5707,-0.88532,-8.145,-0.034208,-0.0012217,0.010079,-17.82,5.64,27.9
5.5299,-0.8717,-8.1177,-0.034819,0.0039706,0.010079,-17.7,5.7,27.9
5.5435,-0.8036,-8.1041,-0.037568,0.0076358,0.007025,-17.64,5.64,27.84
5.5026,-0.83084,-8.0905,-0.031765,0.0097738,0.013744,-17.58,5.82,28.02
5.5707,-0.84446,-8.0769,-0.026878,0.0073304,0.015882,-17.64,5.82,28.08
5.5299,-0.8717,-8.1177,-0.029932,0.0033598,0.021991,-17.64,6.0,28.2
5.5843,-0.8717,-8.1586,-0.03207,-0.000916,0.019548,-17.58,5.94,28.2
5.5843,-0.8717,-8.1041,-0.032376,-0.0033598,0.016799,-17.4,6.0,28.2
5.5162,-0.88532,-8.1177,-0.025045,-0.0015272,0.015577,-17.46,6.0,28.2
5.5435,-0.85808,-8.1177,-0.03543,0.0033598,0.021075,-17.46,5.82,28.26
5.5162,-0.8717,-8.1586,-0.034819,0.0064141,0.014966,-17.58,5.88,28.26
5.5162,-0.8717,-8.0769,-0.0281,0.000305,0.01405,-17.52,5.88,28.38
5.5299,-0.81722,-8.0905,-0.025351,0.0030543,0.01741,-17.58,5.94,28.44
5.5707,-0.85808,-8.1177,-0.030543,-0.0015272,0.010996,-17.64,5.94,28.38
5.5162,-0.84446,-8.1177,-0.040012,-0.0015272,0.018631,-17.76,6.0,28.44
5.5162,-0.91256,-8.1313,-0.031154,-0.000916,0.013744,-17.76,5.88,28.56
5.5707,-0.89894,-8.0769,-0.038485,0.0061087,0.017104,-17.7,5.76,28.56
5.489,-0.85808,-8.1313,-0.038179,-0.0024435,0.015272,-17.64,5.7,28.38
5.5707,-0.89894,-8.1313,-0.037263,-0.0012217,0.010996,-17.58,5.7,28.56
5.5707,-0.8717,-8.1586,-0.03146,0.0061087,0.01069,-17.7,5.64,28.56
5.489,-0.88532,-8.1722,-0.037568,0.0067195,0.01405,-17.58,5.64,28.56
5.489,-0.89894,-8.2131,-0.035736,0.019242,0.014966,-17.64,5.58,28.38
5.5707,-0.89894,-8.1177,-0.032376,0.013439,0.012828,-17.58,5.22,28.32
5.598,-0.83084,-8.0905,-0.032987,-0.0015272,0.012217,-17.52,5.28,28.14
5.5707,-0.88532,-8.1586,-0.026267,-0.012523,0.015882,-17.58,5.34,28.08
5.5299,-0.92618,-8.1722,-0.023518,-0.0058032,0.023518,-17.52,5.4,28.14
5.5435,-0.89894,-8.0905,-0.031765,-0.0015272,0.022602,-17.52,5.4,28.14
5.5571,-0.89894,-8.1858,-0.029932,0.0036652,0.014966,-17.52,5.52,28.14
5.5435,-0.8717,-8.1586,-0.033292,0.0067195,0.013134,-17.64,5.64,28.38
5.5435,-0.85808,-8.0905,-0.04215,0.0015272,0.010079,-17.46,5.64,28.32
5.5707,-0.84446,-8.1586,-0.034208,-0.002138,0.0085521,-17.4,5.7,28.26
5.5162,-0.85808,-8.1586,-0.025962,0.0067195,0.019853,-17.58,5.82,28.26
5.5435,-0.88532,-8.1177,-0.029627,0.0036652,0.018937,-17.64,5.88,28.14
5.5299,-0.92618,-8.0496,-0.033598,0.0061087,0.026267,-17.58,5.94,28.2
5.5843,-0.89894,-8.1586,-0.032987,-0.0061087,0.013744,-17.46,6.24,28.26
5.5435,-0.92618,-8.1313,-0.035125,-0.0042761,0.018631,-17.46,6.18,28.5
5.5026,-0.8717,-8.1041,-0.036041,-0.0018326,0.015577,-17.34,6.12,28.38
5.5162,-0.81722,-8.1586,-0.027794,0.0039706,0.015577,-17.46,6.18,28.2
5.5435,-0.89894,-8.1177,-0.034514,0.0064141,0.014355,-17.4,6.12,28.08
5.5571,-0.83084,-8.1177,-0.033598,0.0033598,0.0097738,-17.34,6.06,28.02
5.5435,-0.92618,-8.1041,-0.034819,-0.010996,0.015272,-17.4,6.18,28.08
5.5299,-0.8036,-8.1177,-0.033292,-0.0051924,0.022602,-17.52,6.24,27.96
5.5026,-0.85808,-8.1313,-0.035125,0.0030543,0.016493,-17.7,6.24,27.96
5.5707,-0.91256,-8.1177,-0.034819,0.0039706,0.019242,-17.52,6.3,27.96
5.5435,-0.85808,-8.036,-0.027489,-0.0015272,0.017104,-17.52,6.3,28.02
5.5707,-0.91256,-8.1041,-0.035736,-0.0033598,0.018631,-17.58,6.42,27.96
5.5707,-0.91256,-8.1041,-0.026878,-0.000305,0.012523,-17.58,6.42,27.96
5.5162,-0.89894,-8.0224,-0.033598,0.012217,0.0088575,-17.58,6.3,27.9
5.598,-0.8036,-8.0769,-0.033598,0.014355,0.019548,-17.7,6.3,27.96
5.6797,-0.84446,-8.1313,-0.035125,0.000916,0.017715,-17.82,6.24,27.84
5.5571,-0.8036,-8.1313,-0.030238,-0.014355,0.018326,-17.7,6.12,27.84
5.4754,-0.85808,-8.1177,-0.033292,-0.0076358,0.023824,-17.64,6.3,27.96
5.5162,-0.8717,-8.1586,-0.029932,0.0018326,0.023213,-17.52,6.12,27.96
5.5707,-0.89894,-8.0769,-0.033903,0.0058032,0.016188,-17.34,6.12,28.08
5.5162,-0.9398,-8.1041,-0.040928,0.000611,0.011606,-17.16,6.12,28.08
5.5435,-0.85808,-8.1858,-0.039401,-0.0036652,0.018326,-16.5,5.94,28.2
5.5162,-0.89894,-8.1722,-0.034819,0.0048869,0.024435,-16.2,5.76,28.26
5.5162,-0.88532,-8.1177,-0.038179,0.0036652,0.025045,-16.08,5.64,28.38
5.5707,-0.84446,-8.0769,-0.026573,0.0042761,0.019242,-15.84,5.58,28.56
5.6252,-0.92618,-8.1177,-0.036346,-0.0018326,0.023213,-15.84,5.58,28.56
5.6116,-0.92618,-8.0769,-0.034819,-0.0030543,0.019548,-15.96,5.7,28.38
5.5707,-0.85808,-8.0905,-0.043371,0.0039706,0.017715,-15.96,5.88,28.38
5.5435,-0.8717,-8.1177,-0.029932,0.0045815,0.018937,-16.2,5.88,28.14
5.5843,-0.85808,-8.1041,-0.033598,-0.0048869,0.025962,-16.56,5.94,28.2
5.4754,-0.91256,-8.1041,-0.0281,-0.0048869,0.020159,-17.04,6.12,28.14
5.5707,-0.88532,-8.1177,-0.033598,0.000916,0.021686,-17.1,6.18,28.14
5.5299,-0.85808,-8.1586,-0.033598,0.0036652,0.025656,-17.34,6.24,28.14
5.5707,-0.85808,-8.1177,-0.044899,0.0039706,0.022602,-17.58,6.24,28.2
5.5162,-0.92618,-8.0769,-0.036957,0.0027489,0.021991,-17.7,6.12,28.38
5.5299,-0.84446,-8.2676,-0.031154,-0.0012217,0.017104,-17.94,5.88,28.62
5.5162,-0.8717,-8.1177,-0.029322,-0.0012217,0.021686,-17.94,5.7,28.68
5.5435,-0.8717,-8.1858,-0.031154,-0.0051924,0.020159,-17.82,5.76,28.8
5.5571,-0.92618,-8.1041,-0.03146,0.000305,0.025962,-17.76,5.82,28.62
5.5435,-0.88532,-8.1177,-0.043066,0.0061087,0.021075,-17.88,5.82,28.56
5.5162,-0.85808,-8.1586,-0.036652,0.0024435,0.020464,-18.06,5.88,28.56
5.598,-0.84446,-8.1586,-0.030543,0.000305,0.027794,-18.18,5.94,28.5
5.6116,-0.78998,-8.0632,-0.038485,0.0051924,0.021991,-18.12,5.76,28.38
5.5571,-0.83084,-8.1041,-0.039095,-0.0036652,0.018937,-18.12,5.88,28.26
5.4754,-0.89894,-8.0769,-0.026573,-0.01069,0.018021,-18.12,6.06,28.14
5.5707,-0.92618,-8.0905,-0.026878,-0.002138,0.020769,-18.0,5.94,28.08
5.5435,-0.85808,-8.0905,-0.035125,0.0015272,0.018631,-18.06,5.88,28.14
5.5299,-0.89894,-8.1041,-0.043982,0.0039706,0.021075,-18.18,6.0,28.26
5.5435,-0.85808,-8.036,-0.038485,0.0045815,0.011606,-18.12,5.94,28.2
5.6252,-0.85808,-8.0905,-0.03879,0.0048869,0.019548,-18.12,5.76,28.02
5.598,-0.88532,-8.0905,-0.036346,0.0027489,0.018631,-18.0,5.76,27.96
5.5435,-0.88532,-8.1722,-0.039095,0.0048869,0.018326,-18.0,5.82,27.9
5.6388,-0.81722,-8.2403,-0.030543,0.0042761,0.022602,-18.0,5.88,28.08
5.5435,-0.8717,-8.0224,-0.037568,0.000916,0.016493,-18.06,5.76,28.08
5.5707,-0.8717,-8.0905,-0.03207,-0.0088575,0.018326,-18.0,5.88,28.02
5.5707,-0.81722,-8.1177,-0.039401,-0.0039706,0.018326,-17.76,5.88,27.9
5.5435,-0.8717,-8.1858,-0.036346,-0.0064141,0.015882,-17.76,6.06,28.08
5.5026,-0.84446,-8.1722,-0.034208,0.0048869,0.018937,-17.94,6.12,28.2
5.5707,-0.88532,-8.1586,-0.033903,0.009163,0.016188,-17.94,6.18,28.14
5.5571,-0.92618,-8.036,-0.027489,0.0042761,0.012828,-17.94,6.3,28.2
5.598,-0.89894,-8.0905,-0.036041,-0.0033598,0.012523,-17.94,6.3,28.32
5.5707,-0.91256,-8.145,-0.029932,-0.002138,0.0076358,-17.94,6.36,28.2
5.5435,-0.88532,-8.0905,-0.036652,-0.0015272,0.010996,-17.76,6.36,28.08
5.5299,-0.8717,-8.1586,-0.027489,-0.0054978,0.014661,-17.76,6.36,28.02
5.5843,-0.83084,-8.1313,-0.039095,0.0058032,0.010079,-18.0,6.48,28.2
5.5435,-0.81722,-8.1858,-0.033903,0.0058032,0.0079412,-18.0,6.36,28.26
5.489,-0.89894,-8.1177,-0.039095,0.011606,0.010385,-17.88,6.18,28.08
5.6252,-0.85808,-8.0905,-0.033903,0.018631,0.018631,-17.7,6.3,28.02
5.6116,-0.85808,-8.1586,-0.03879,0.0076358,0.013134,-17.64,6.18,28.08
5.5435,-0.83084,-8.0632,-0.02474,-0.0073304,0.0085521,-17.7,6.3,28.08
5.5435,-0.89894,-8.145,-0.024435,-0.0076358,0.012523,-17.82,6.3,28.2
5.5571,-0.95342,-8.1722,-0.03543,-0.000611,0.014966,-17.7,6.3,28.38
5.5435,-0.8717,-8.1313,-0.037874,0.0027489,0.0088575,-17.76,6.42,28.38
5.5435,-0.83084,-8.0224,-0.043677,0.0051924,0.0097738,-17.7,6.42,28.26
5.6252,-0.85808,-8.0905,-0.037568,0.01405,0.0061087,-17.58,6.48,28.32
5.5707,-0.84446,-8.036,-0.040317,0.0045815,0.014355,-17.4,6.6,28.38
5.6661,-0.85808,-8.145,-0.032681,0.0027489,0.01741,-17.46,6.66,28.38
5.5843,-0.88532,-8.036,-0.027184,-0.015272,0.012523,-17.7,6.48,28.2
5.5435,-0.91256,-8.1177,-0.040012,-0.0042761,0.016493,-17.64,6.42,28.26
5.5707,-0.85808,-8.1586,-0.03543,0.0076358,0.017715,-17.34,6.24,28.14
5.5707,-0.8036,-8.1858,-0.040623,0.000916,0.015272,-17.4,6.0,28.14
5.5435,-0.81722,-8.1858,-0.030238,-0.0061087,0.012217,-17.46,5.88,28.08
5.6116,-0.8036,-8.0905,-0.033598,-0.0051924,0.013744,-17.4,5.82,28.2
5.6388,-0.77636,-8.1586,-0.034514,0.0024435,0.016493,-17.46,5.82,28.08
5.5843,-0.83084,-8.1313,-0.036652,0.0061087,0.009163,-17.58,5.7,28.02
5.6116,-0.89894,-8.1313,-0.03207,0.010385,0.01069,-17.52,5.64,27.96
5.5162,-0.85808,-8.1177,-0.037874,0.0012217,0.013134,-17.34,5.82,28.02
5.5571,-0.89894,-8.1586,-0.029932,-0.0042761,0.01069,-17.4,5.88,28.02
5.5707,-0.88532,-8.1722,-0.039095,-0.0030543,0.0097738,-17.46,6.06,28.14
5.5162,-0.89894,-8.1722,-0.043371,0.000305,0.013134,-17.58,6.0,28.14
5.5435,-0.89894,-8.1177,-0.033903,0.0061087,0.015882,-17.7,6.0,28.08
5.5843,-0.83084,-8.0224,-0.034208,0.0048869,0.01405,-17.76,5.82,28.14
5.5707,-0.81722,-8.1586,-0.033903,-0.002138,0.021991,-17.7,5.7,28.08
5.598,-0.83084,-7.9951,-0.027489,-0.0018326,0.026878,-17.76,5.82,28.2
5.6661,-0.85808,-8.0769,-0.023518,-0.026267,0.043982,-17.82,5.64,28.26
5.6661,-0.83084,-8.1041,-0.028405,-0.04612,0.036346,-17.94,5.64,28.38
5.489,-0.84446,-8.2131,-0.02474,-0.047342,0.035125,-18.0,5.52,28.5
5.4209,-0.92618,-8.2131,-0.031765,-0.041539,0.039401,-17.94,5.46,28.44
5.5707,-0.99429,-8.1586,-0.030849,-0.023518,0.044288,-17.88,5.34,28.38
5.6116,-0.92618,-8.1722,-0.036652,-0.026878,0.031154,-17.64,5.58,28.38
5.489,-0.91256,-8.2403,-0.031765,-0.021686,0.018326,-17.7,5.76,28.38
5.489,-0.8717,-8.145,-0.034819,-0.013134,0.018326,-17.82,5.82,28.32
5.489,-0.84446,-8.1313,-0.038179,0.000916,0.018021,-17.88,5.88,28.38
5.5299,-0.85808,-8.1586,-0.028405,-0.0042761,0.010385,-17.94,6.0,28.26
5.5162,-0.92618,-8.145,-0.034208,0.0033598,0.010079,-17.88,6.12,28.38
5.5299,-0.91256,-8.1858,-0.037874,0.0076358,0.016799,-17.76,6.06,28.2
5.5435,-0.8717,-8.0905,-0.030849,0.0030543,0.013744,-17.7,5.94,28.32
5.5707,-0.8036,-8.0905,-0.028711,-0.010079,0.017715,-17.82,6.18,28.2
5.5707,-0.89894,-8.1858,-0.028711,-0.016188,0.016188,-17.76,6.06,28.2
5.489,-0.83084,-8.1995,-0.032376,-0.011606,0.012217,-17.64,5.88,28.32
5.4754,-0.81722,-8.145,-0.023824,-0.0082467,0.016799,-17.46,6.0,28.32
5.4481,-0.84446,-8.1586,-0.035125,-0.0058032,0.015272,-17.46,5.94,28.38
5.5162,-0.84446,-8.1722,-0.03207,-0.000916,0.012523,-17.22,5.88,28.2
5.5162,-0.8036,-8.0632,-0.040623,-0.0058032,0.020464,-17.28,5.88,28.2
5.5435,-0.89894,-8.1722,-0.032987,-0.0085521,0.022602,-17.34,6.06,28.2
5.4754,-0.96704,-8.145,-0.033598,-0.0097738,0.020159,-17.4,6.12,28.08
5.489,-0.9398,-8.1858,-0.038179,-0.0018326,0.022297,-17.22,6.18,28.2
5.5707,-0.9398,-8.145,-0.035125,0.000916,0.018021,-17.1,5.94,28.26
5.489,-0.85808,-8.2131,-0.027184,0.000916,0.014661,-17.28,6.18,28.26
5.5162,-0.92618,-8.2131,-0.03543,-0.000611,0.010079,-17.28,6.18,28.38
5.489,-0.85808,-8.145,-0.035125,0.0045815,0.0061087,-17.04,6.06,28.44
5.5162,-0.85808,-8.1586,-0.037874,0.014966,0.014661,-17.04,6.12,28.44
5.5435,-0.85808,-8.1858,-0.034208,0.015577,0.000305,-17.22,6.3,28.5
5.5571,-0.84446,-8.1041,-0.039706,0.012828,0.014355,-17.22,6.24,28.32
5.5299,-0.85808,-8.1177,-0.032681,-0.007025,0.018326,-17.16,6.12,28.32
5.5162,-0.88532,-8.1177,-0.031154,-0.012523,0.023518,-17.22,6.12,28.32
5.4481,-0.88532,-8.2267,-0.033292,-0.0054978,0.019242,-17.22,6.42,28.5
5.5162,-0.92618,-8.1177,-0.035736,0.0054978,0.0097738,-17.34,6.48,28.38
5.489,-0.89894,-8.1041,-0.038179,0.0085521,0.011606,-17.64,6.48,28.5
5.5162,-0.88532,-8.0905,-0.035736,0.0085521,0.01069,-17.7,6.42,28.38
5.489,-0.84446,-8.2539,-0.03146,0.0073304,0.0073304,-17.94,6.42,28.26
5.5162,-0.85808,-8.2131,-0.031765,-0.0012217,0.01069,-18.06,6.36,28.32
5.5162,-0.89894,-8.1722,-0.036957,0.002138,0.020159,-18.0,6.12,28.32
5.5026,-0.88532,-8.0769,-0.03543,-0.0051924,0.021075,-17.94,6.3,28.38
5.5162,-0.8036,-8.1586,-0.028711,-0.0097738,0.019242,-17.88,6.18,28.56
5.5299,-0.83084,-8.1586,-0.028405,-0.009163,0.022297,-17.88,6.12,28.56
5.5435,-0.88532,-8.0905,-0.033292,-0.0094684,0.018631,-18.0,6.12,28.44
5.4481,-0.91256,-8.1995,-0.031154,-0.0039706,0.018937,-18.06,6.0,28.44
5.5435,-0.89894,-8.2812,-0.028711,0.0033598,0.01741,-18.06,5.88,28.5
5.5571,-0.84446,-8.1858,-0.034208,0.000611,0.017104,-17.94,5.82,28.44
5.5435,-0.8036,-8.1722,-0.035125,-0.002138,0.014966,-17.94,5.88,28.44
5.5026,-0.85808,-8.1177,-0.035736,-0.0030543,0.013439,-17.94,5.88,28.62
5.5435,-0.91256,-8.1858,-0.032987,0.0030543,0.012828,-17.94,5.94,28.56
5.5162,-0.85808,-8.1586,-0.035125,0.0051924,0.016188,-17.82,6.0,28.62
5.5571,-0.91256,-8.0905,-0.029322,0.0064141,0.012217,-17.88,6.0,28.56
5.5435,-0.89894,-8.145,-0.032987,0.0061087,0.015577,-18.18,5.94,28.38
5.5299,-0.85808,-8.0905,-0.031154,0.0076358,0.013744,-18.18,6.06,28.38
5.5435,-0.85808,-8.2131,-0.03879,0.0027489,0.018021,-18.24,6.12,28.32
5.5162,-0.89894,-8.1858,-0.037874,0.0048869,0.0085521,-18.24,6.12,28.26
5.5435,-0.8717,-8.1313,-0.043371,0.0061087,0.012828,-18.18,6.12,28.2
5.5162,-0.89894,-8.1586,-0.03146,0.013744,0.012828,-18.06,6.12,28.26
5.5435,-0.84446,-8.0632,-0.035736,0.0079412,0.014661,-18.0,6.18,28.2
5.5707,-0.89894,-8.1313,-0.034819,0.0048869,0.020769,-18.0,6.06,28.2
5.5435,-0.8036,-8.1858,-0.037568,-0.0082467,0.020769,-18.0,6.0,27.96
5.489,-0.8717,-8.1177,-0.029322,-0.0048869,0.020159,-18.06,6.0,27.84
5.489,-0.89894,-8.1177,-0.031765,-0.0036652,0.02474,-17.94,6.06,27.9
5.5843,-0.96704,-8.1586,-0.025351,0.0079412,0.019853,-17.94,6.12,27.96
5.5707,-0.92618,-8.1586,-0.027794,0.0039706,0.016493,-17.76,6.0,27.96
5.5299,-0.9398,-8.1722,-0.032987,-0.0030543,0.016799,-17.76,6.0,28.02
5.5026,-0.9398,-8.1995,-0.034819,0.000916,0.01069,-17.7,5.82,27.96
5.5707,-0.88532,-8.1313,-0.035125,0.013134,0.014661,-17.7,5.82,28.08
5.5571,-0.85808,-8.1586,-0.029932,0.0051924,0.018021,-17.76,5.82,28.02
