Ax,Ay,Az,Gx,Gy,Gz,Mx,My,Mz
4.3449,-1.9341,-8.6353,-0.03879,0.030543,-0.0018326,2.94,-24.36,84.78
4.3449,-1.866,-8.5944,-0.040317,0.050091,0.016493,2.82,-24.18,84.9
4.4811,-1.9341,-8.6081,-0.03543,0.048564,0.015272,2.88,-24.0,84.96
4.5083,-1.9613,-8.6489,-0.050702,0.040928,0.019242,2.88,-24.0,84.96
4.6037,-1.9477,-8.5127,-0.042761,0.020464,0.019853,2.82,-24.18,85.02
4.4811,-1.8387,-8.5536,-0.045509,-0.013439,0.0045815,2.64,-24.12,85.26
4.4402,-1.9205,-8.5944,-0.041233,-0.021991,0.0042761,2.58,-24.3,85.2
4.2632,-1.8932,-8.6081,-0.036652,0.002138,-0.000916,2.28,-24.42,85.2
4.3585,-1.9068,-8.6081,-0.036346,0.03879,0.0085521,2.4,-24.48,85.26
4.3449,-1.8796,-8.6217,-0.033903,0.056505,0.02138,2.34,-24.54,85.26
4.6037,-1.8524,-8.5944,-0.034819,0.054062,0.024435,2.58,-24.48,85.26
4.5356,-1.9613,-8.6081,-0.044288,0.024129,0.011912,2.46,-24.72,85.2
4.5356,-2.0022,-8.6081,-0.045815,0.012523,0.0058032,2.4,-24.78,85.26
4.5083,-1.9205,-8.5263,-0.03543,0.012828,0.0061087,2.34,-24.96,85.32
4.5356,-1.9205,-8.5263,-0.031154,0.018326,0.0039706,2.52,-25.02,85.2
4.4811,-1.8796,-8.6081,-0.023824,0.0058032,0.013134,2.52,-25.02,85.2
4.5628,-1.9341,-8.6081,-0.018937,-0.0012217,0.015272,2.58,-24.96,85.14
4.4947,-1.9341,-8.4855,-0.039706,-0.007025,0.010996,2.64,-25.02,85.2
4.4811,-1.866,-8.5944,-0.032376,-0.011606,0.010079,2.7,-24.96,85.26
4.4811,-1.9068,-8.6625,-0.027794,-0.010996,0.012523,2.28,-25.02,85.2
4.3858,-1.866,-8.6217,-0.024435,-0.0036652,0.014355,2.4,-25.02,85.26
4.304,-1.8932,-8.54,-0.0281,0.0024435,0.017104,2.4,-25.02,85.26
4.5083,-1.9068,-8.5808,-0.029322,0.0064141,0.018021,2.46,-24.84,85.2
4.4811,-1.9341,-8.6625,-0.029627,0.0042761,0.015272,2.46,-24.84,85.26
4.5083,-1.8524,-8.5808,-0.029016,-0.0045815,0.014661,2.46,-24.6,85.26
4.4811,-1.8796,-8.5536,-0.019548,-0.0061087,-0.0042761,2.4,-24.66,85.26
4.4402,-1.866,-8.5672,-0.024435,-0.0039706,-0.0027489,2.34,-24.48,85.14
4.4266,-1.9477,-8.5944,-0.020159,0.0058032,0.002138,2.16,-24.54,85.14
4.4947,-1.8932,-8.6081,-0.036957,0.0076358,0.0094684,2.34,-24.42,85.08
4.4539,-1.9613,-8.5944,-0.025656,0.016188,0.002138,2.4,-24.36,85.2
4.5083,-2.0294,-8.6353,-0.033598,0.032376,0.012828,2.28,-24.36,85.08
4.4947,-1.9886,-8.6217,-0.032376,0.037568,0.01741,2.34,-24.24,85.2
4.4947,-1.9341,-8.5808,-0.039401,0.03879,0.016799,2.4,-24.24,85.26
4.4811,-1.8387,-8.5536,-0.03879,0.03146,0.0082467,2.16,-24.3,85.02
4.4675,-1.8524,-8.5536,-0.033598,0.029016,0.0064141,2.16,-24.36,85.08
4.5083,-1.866,-8.5808,-0.03146,0.024435,0.014661,2.22,-24.3,85.2
4.4811,-1.8251,-8.5263,-0.03879,0.035125,0.018021,2.28,-24.3,85.08
4.5356,-1.9205,-8.5944,-0.04215,0.036652,0.019853,2.34,-24.36,85.08
4.5764,-1.8387,-8.6081,-0.03207,0.032987,0.013134,2.22,-24.48,84.9
4.5901,-1.9613,-8.4446,-0.035125,0.015882,0.0027489,2.22,-24.36,84.9
4.522,-1.975,-8.5672,-0.038179,0.0094684,0.0064141,2.16,-24.36,84.78
4.5356,-1.9613,-8.6489,-0.032376,0.011301,0.009163,2.16,-24.36,84.78
4.4947,-1.8932,-8.4582,-0.040928,0.03146,0.019548,2.16,-24.54,84.78
4.5764,-1.9341,-8.5263,-0.030543,0.039706,0.020769,2.22,-24.48,84.72
4.6445,-1.7706,-8.5263,-0.037874,0.026267,0.024129,2.28,-24.54,84.72
4.5628,-1.8524,-8.5127,-0.03543,0.010385,0.022297,2.1,-24.72,84.96
4.4947,-1.8932,-8.5672,-0.031765,-0.0061087,0.021991,2.04,-24.78,84.9
4.5764,-1.8932,-8.4991,-0.025351,0.0012217,0.012828,2.04,-24.72,85.2
4.522,-1.9205,-8.5263,-0.023213,0.0030543,0.020159,2.16,-24.72,85.2
4.5764,-1.9341,-8.4719,-0.020159,-0.0045815,0.02138,2.22,-24.9,85.38
4.5901,-1.9613,-8.4446,-0.021075,-0.019548,0.021075,2.28,-24.9,85.44
4.6037,-1.8796,-8.5127,-0.018326,-0.029016,0.022602,2.04,-24.9,85.32
4.4811,-1.9613,-8.6353,-0.016493,-0.030238,0.014661,2.1,-25.2,85.26
4.5083,-1.8387,-8.5536,-0.021991,-0.026573,0.028711,2.1,-25.26,85.44
4.4947,-1.8796,-8.5536,-0.036652,-0.010385,0.0094684,2.16,-25.2,85.02
4.5083,-1.8387,-8.5944,-0.033292,0.012217,0.0045815,2.16,-25.14,85.14
4.522,-1.9205,-8.5127,-0.041233,0.01741,0.0015272,2.1,-25.08,85.02
4.6037,-1.9205,-8.5263,-0.03879,0.0281,0.0076358,2.1,-25.2,84.9
4.6037,-1.9341,-8.4446,-0.050091,0.030849,-0.0012217,2.1,-25.2,84.78
4.5492,-1.8932,-8.5127,-0.041539,0.023518,-0.0067195,2.1,-25.38,84.72
4.5083,-1.9068,-8.5536,-0.036346,0.039706,-0.014966,2.1,-25.26,84.66
4.4947,-1.9477,-8.6353,-0.048258,0.070555,-0.019242,2.4,-25.14,84.72
4.5492,-1.8251,-8.5944,-0.05284,0.097433,-0.018021,2.52,-25.02,84.84
4.5492,-1.8932,-8.4446,-0.037263,0.079718,0.000916,2.28,-25.08,84.9
4.6445,-1.866,-8.4446,-0.03207,0.0562,0.027794,2.16,-25.14,84.9
4.7399,-1.8932,-8.5127,-0.038485,0.047342,0.037874,2.16,-25.14,84.84
4.7399,-1.8932,-8.4446,-0.046731,0.023518,0.028405,2.1,-25.08,84.96
4.6582,-1.8115,-8.4991,-0.040623,0.0012217,-0.0097738,2.1,-25.02,84.84
4.5492,-1.9068,-8.5127,-0.0281,0.0079412,-0.015577,2.04,-24.96,84.84
4.5083,-1.9613,-8.4446,-0.050091,0.019242,-0.0027489,1.98,-25.14,84.6
4.5356,-1.9341,-8.54,-0.051313,0.039095,0.014966,1.86,-25.2,84.66
4.6854,-1.8524,-8.54,-0.045815,0.054367,0.025045,1.68,-25.02,84.48
4.7399,-1.8387,-8.4719,-0.043066,0.04948,0.033903,1.74,-24.96,84.54
4.7807,-1.866,-8.4582,-0.033292,-0.0094684,0.026267,1.86,-25.2,84.6
4.699,-1.866,-8.4174,-0.026267,-0.033903,0.022907,1.74,-25.14,84.78
4.6173,-1.8387,-8.4038,-0.013744,-0.043371,0.034514,1.86,-25.08,84.78
4.5356,-1.866,-8.3765,-0.011912,-0.051924,0.043371,1.86,-25.26,84.84
4.522,-1.975,-8.5263,-0.0094684,-0.026878,0.064141,1.86,-25.44,85.02
4.5083,-1.9886,-8.5808,-0.029932,-0.012523,0.078496,1.8,-25.32,84.9
4.6718,-1.9477,-8.5672,-0.042761,0.0067195,0.087354,1.74,-25.14,84.96
4.6173,-1.8387,-8.5672,-0.054062,0.0012217,0.088881,1.74,-25.14,85.02
4.6854,-1.8387,-8.54,-0.05284,0.0033598,0.071166,1.62,-25.14,84.9
4.7263,-1.9068,-8.4719,-0.050702,0.01741,0.048258,1.32,-25.2,84.96
4.6854,-1.8932,-8.54,-0.064752,0.03543,0.010079,1.32,-25.02,84.96
4.6445,-1.8932,-8.5127,-0.067195,0.064446,-0.034208,1.44,-24.9,84.9
4.5764,-1.9341,-8.5127,-0.073304,0.12523,-0.073304,1.32,-24.96,84.9
4.5628,-1.7843,-8.322,-0.078802,0.15119,-0.069944,1.26,-24.96,84.84
4.6445,-1.6481,-8.3493,-0.048564,0.15363,-0.041233,1.2,-25.08,84.9
4.7535,-1.8932,-8.322,-0.0073304,0.12645,-0.030849,0.96,-24.96,84.84
4.8352,-1.9341,-8.4174,-0.015577,0.11759,0.0015272,0.9,-24.9,84.72
5.0259,-1.975,-8.4038,-0.0058032,0.097433,0.0064141,0.96,-24.9,84.78
5.0259,-1.8524,-8.4719,-0.031765,0.0015272,-0.002138,0.78,-24.9,84.84
4.9578,-1.866,-8.4719,-0.018937,-0.053145,-0.011606,0.72,-24.9,84.9
4.9306,-1.9068,-8.5127,-0.032376,-0.082467,-0.027794,0.84,-24.84,85.08
4.4811,-1.7434,-8.5127,-0.031154,-0.054978,-0.027489,0.96,-24.78,84.9
4.413,-1.7843,-8.4719,-0.030543,0.0061087,0.0045815,1.02,-24.9,84.9
4.6037,-1.866,-8.4174,-0.020769,0.07025,0.013744,1.08,-24.9,84.78
4.8352,-1.8932,-8.4174,-0.030238,0.1014,0.029627,1.14,-24.84,84.9
4.8625,-1.8796,-8.4174,-0.031154,0.074526,0.020769,1.14,-24.96,84.9
4.9033,-1.9205,-8.3765,-0.03146,0.040012,0.019548,1.2,-24.96,84.9
4.9033,-1.866,-8.431,-0.026878,0.0073304,0.011912,1.2,-24.84,84.84
4.8488,-1.8387,-8.5672,-0.016799,-0.013134,0.0058032,1.2,-24.72,84.78
4.7263,-1.8524,-8.4582,-0.034208,-0.000916,0.0015272,1.2,-24.84,84.72
4.7671,-1.9205,-8.4719,-0.044288,0.025656,0.0058032,1.26,-24.84,84.72
4.7399,-1.8796,-8.3765,-0.047037,0.054367,0.01069,1.32,-24.72,84.66
4.7807,-1.8796,-8.4174,-0.051618,0.086132,0.0012217,1.2,-24.84,84.66
4.8625,-1.8524,-8.3493,-0.04215,0.0956,0.002138,1.08,-24.9,84.66
4.9033,-1.8115,-8.3493,-0.034208,0.080634,0.0051924,0.9,-24.84,84.54
4.9578,-1.8251,-8.3357,-0.022297,0.063225,0.0061087,0.78,-25.02,84.54
4.9033,-1.8387,-8.4174,-0.016799,0.028711,0.014966,0.72,-24.96,84.48
4.8761,-1.8387,-8.4038,-0.01741,0.026878,0.014355,0.6,-24.84,84.42
4.8897,-1.7025,-8.3765,-0.024129,0.024129,0.017104,0.54,-24.72,84.3
4.8625,-1.8387,-8.4582,-0.033598,0.021686,0.011606,0.48,-24.6,84.24
4.8488,-1.7979,-8.4582,-0.054062,0.027794,0.014661,0.48,-24.54,84.24
4.7944,-1.8115,-8.322,-0.048564,0.043371,0.0024435,0.3,-24.54,84.36
4.8761,-1.8387,-8.322,-0.049175,0.052229,0.013439,0.42,-24.6,84.48
4.9033,-1.8524,-8.322,-0.039706,0.051313,0.022602,0.24,-24.78,84.48
5.0259,-1.866,-8.3493,-0.032987,0.039095,0.028405,0.24,-24.72,84.36
5.0531,-1.8251,-8.3765,-0.028405,0.010079,0.018021,0.24,-24.78,84.48
4.9987,-1.8387,-8.3084,-0.036652,-0.012828,0.020464,0.24,-24.9,84.72
4.9169,-1.8524,-8.3493,-0.035125,-0.02474,0.013744,0.18,-24.96,84.84
4.8897,-1.8251,-8.4174,-0.026878,-0.021686,0.013134,0.18,-25.02,84.84
4.9442,-1.7706,-8.3765,-0.03207,-0.009163,0.020769,0.24,-25.14,84.96
4.8761,-1.757,-8.3765,-0.030238,-0.017715,0.028405,0.3,-25.14,85.02
4.8897,-1.8251,-8.3357,-0.027489,-0.026878,0.037263,0.3,-25.14,85.08
4.9169,-1.7706,-8.4582,-0.030849,-0.029932,0.041233,0.18,-25.2,84.96
4.8897,-1.7979,-8.4719,-0.032987,-0.027184,0.039706,0.36,-25.26,84.96
4.8352,-1.8796,-8.4174,-0.032681,-0.018326,0.028711,0.24,-25.2,84.78
4.8352,-1.9068,-8.3629,-0.039706,0.0097738,0.026573,0.24,-25.14,84.84
4.8897,-1.8932,-8.431,-0.034208,0.016188,0.0281,0.24,-25.08,84.84
4.9987,-1.866,-8.322,-0.027794,0.0051924,0.026878,0.06,-24.96,84.78
4.8897,-1.7979,-8.2267,-0.027489,-0.009163,0.025045,0.06,-24.96,84.66
4.9033,-1.8932,-8.322,-0.015882,-0.031765,0.029322,0.06,-24.78,84.54
4.9306,-1.8932,-8.4038,-0.014966,-0.04215,0.026573,0.06,-24.78,84.36
4.9033,-1.8932,-8.4174,-0.011912,-0.04948,0.029016,-0.06,-24.54,84.42
4.8352,-1.9341,-8.4038,-0.014355,-0.042761,0.026267,-0.06,-24.72,84.6
4.8352,-1.8932,-8.431,-0.018937,-0.035125,0.025962,-0.12,-24.78,84.48
4.8352,-1.866,-8.3901,-0.019853,-0.036957,0.034208,-0.12,-24.78,84.36
4.8352,-1.8387,-8.3493,-0.013134,-0.048564,0.052534,-0.12,-24.78,84.54
4.8216,-1.757,-8.2948,-0.011606,-0.050702,0.054978,-0.06,-24.78,84.54
4.8761,-1.9341,-8.3357,-0.010385,-0.060476,0.053451,-0.18,-24.84,84.48
4.8488,-1.9341,-8.4038,-0.011301,-0.061392,0.065363,-0.12,-24.84,84.54
4.8625,-1.975,-8.5263,-0.01405,-0.063835,0.046426,-0.06,-24.78,84.66
4.7944,-1.8387,-8.3765,-0.026267,-0.071777,0.03543,-0.06,-24.66,84.66
4.7944,-1.8387,-8.3493,-0.012828,-0.07086,0.039401,0.06,-24.66,84.78
4.7671,-1.9341,-8.4038,-0.013744,-0.072998,0.045204,0.06,-24.54,84.84
4.7671,-1.9613,-8.4855,-0.012523,-0.06689,0.046426,0.36,-24.54,84.84
4.7535,-1.9613,-8.4582,-0.025351,-0.043371,0.028711,0.36,-24.42,84.72
4.7263,-2.0294,-8.54,-0.043066,-0.0027489,0.019853,0.42,-24.48,84.84
4.7126,-1.9341,-8.4719,-0.053451,0.029627,0.011912,0.54,-24.42,85.02
4.7399,-1.9341,-8.4719,-0.057421,0.042455,0.018631,0.66,-24.42,84.9
4.808,-1.9068,-8.4855,-0.052534,0.037263,0.014661,0.72,-24.42,84.96
4.7671,-1.9205,-8.4038,-0.048564,0.026573,0.011301,0.9,-24.24,85.08
4.7671,-1.9341,-8.54,-0.045509,0.043677,0.007025,1.02,-24.18,85.02
4.7671,-1.8932,-8.4582,-0.048564,0.057116,-0.01405,1.14,-24.18,85.14
4.7263,-1.8796,-8.4174,-0.045815,0.073304,-0.0094684,1.14,-24.18,85.2
4.8625,-1.866,-8.4719,-0.040928,0.071777,-0.0051924,0.96,-24.42,84.9
4.7807,-1.8932,-8.3901,-0.043066,0.049175,-0.013439,1.08,-24.42,84.9
4.8352,-1.9613,-8.4174,-0.046731,0.064446,0.0064141,1.02,-24.42,84.9
4.9987,-1.9886,-8.4174,-0.047647,0.071777,0.010385,0.78,-24.54,84.9
5.0531,-1.8251,-8.322,-0.043371,0.026267,0.0015272,0.78,-24.6,84.9
5.0123,-1.8251,-8.3493,-0.033292,-0.019242,0.0024435,0.72,-24.54,84.96
4.7944,-1.8387,-8.4174,-0.023824,-0.03146,0.016493,0.36,-24.54,85.08
4.7263,-1.7979,-8.3629,-0.029932,-0.012523,0.022602,0.24,-24.48,85.14
4.7807,-1.9068,-8.4446,-0.026573,-0.002138,0.030849,0.3,-24.6,85.08
4.8625,-1.8932,-8.3901,-0.033903,0.0036652,0.031765,0.18,-24.54,85.2
4.9578,-1.9613,-8.3493,-0.03543,-0.013134,0.019242,0.06,-24.72,85.08
4.9578,-1.8932,-8.4174,-0.040317,-0.013439,0.015272,0.18,-24.78,85.08
4.8352,-1.8932,-8.4038,-0.042455,-0.0097738,0.011606,0.3,-24.72,85.2
4.7671,-1.866,-8.4174,-0.040623,0.019242,0.000916,0.18,-24.72,85.26
4.8216,-1.9341,-8.3357,-0.043982,0.040928,0.0033598,0.24,-24.78,85.32
4.8761,-1.9068,-8.3493,-0.048564,0.044899,0.0036652,0.36,-24.9,85.32
4.9033,-1.9341,-8.3765,-0.035125,0.022907,0.0082467,0.42,-24.9,85.38
5.0123,-1.8524,-8.4582,-0.03543,-0.018631,0.0054978,0.48,-25.02,85.2
4.9169,-1.8932,-8.4174,-0.029932,-0.072082,-0.0024435,0.6,-25.02,85.2
4.7944,-1.9068,-8.5127,-0.034208,-0.040317,0.0073304,0.66,-25.02,85.2
4.7535,-1.9341,-8.431,-0.033292,-0.016799,0.0018326,0.66,-25.14,85.08
4.7263,-1.8932,-8.4446,-0.036041,0.040623,0.0073304,0.66,-25.26,85.02
4.8216,-1.8387,-8.4446,-0.0281,0.065057,0.0054978,0.54,-25.26,84.84
4.8352,-1.8387,-8.431,-0.035125,0.058032,0.012523,0.48,-25.32,84.84
5.0531,-1.9068,-8.3629,-0.030238,0.015577,0.020159,0.54,-25.44,84.96
5.0123,-1.8932,-8.322,-0.03146,-0.060476,0.0061087,0.48,-25.44,85.02
4.7126,-1.9341,-8.4038,-0.021075,-0.067501,0.0067195,0.42,-25.56,84.96
4.699,-1.8387,-8.3493,-0.038485,-0.048564,0.0073304,0.36,-25.32,84.66
4.7126,-1.8524,-8.3493,-0.031154,0.011912,0.009163,0.24,-25.14,84.54
4.7535,-1.8387,-8.3493,-0.04215,0.043066,0.014966,0.3,-25.2,84.54
4.9033,-1.8932,-8.4038,-0.026573,0.036346,0.010079,0.18,-25.08,84.48
4.9578,-1.9341,-8.3629,-0.024435,0.019853,-0.0018326,0.12,-25.08,84.36
4.8488,-1.8796,-8.3493,-0.03543,0.012217,0.000916,0.06,-24.96,84.36
4.8352,-1.9068,-8.431,-0.036041,-0.0036652,-0.0067195,-0.06,-24.96,84.3
4.8488,-1.7162,-8.3629,-0.034208,0.013744,0.0064141,-0.06,-24.78,84.48
4.9033,-1.8387,-8.3493,-0.039095,0.015272,0.0073304,-0.12,-24.66,84.54
4.9033,-1.866,-8.431,-0.029627,0.016188,0.0097738,-0.06,-24.6,84.48
4.9033,-1.8524,-8.4719,-0.034819,0.011606,0.010996,-0.06,-24.54,84.6
4.8352,-1.866,-8.4446,-0.029322,0.013439,0.013439,0.18,-24.54,84.42
4.8352,-1.9205,-8.3765,-0.036957,0.026573,0.0079412,0.06,-24.54,84.6
4.8488,-1.8796,-8.2812,-0.034819,0.033903,0.018021,0.18,-24.78,84.54
4.9578,-1.8796,-8.3765,-0.03543,0.01741,0.025656,0.06,-24.72,84.6
5.0123,-1.8387,-8.3493,-0.021991,-0.011606,0.026573,0.12,-24.72,84.66
4.9987,-1.8796,-8.3901,-0.019242,-0.037263,0.028711,0.12,-24.9,84.6
4.8625,-1.866,-8.3765,-0.018937,-0.050702,0.0036652,0.12,-24.96,84.42
4.7535,-1.8524,-8.3357,-0.021686,-0.032987,0.013134,0.12,-24.84,84.6
4.7671,-1.8387,-8.4582,-0.030543,-0.0015272,0.021686,0.24,-24.96,84.36
4.7944,-1.8387,-8.4174,-0.040012,0.019242,0.021686,0.48,-24.9,84.42
4.8625,-1.8251,-8.4174,-0.040623,0.029016,0.0281,0.3,-24.9,84.36
4.9306,-1.8115,-8.3493,-0.029627,0.010079,0.018326,0.18,-24.84,84.3
4.9442,-1.8524,-8.4446,-0.031765,-0.000916,0.023213,0.12,-24.78,84.36
4.8897,-1.9068,-8.3493,-0.026878,-0.022602,0.023824,0.18,-24.6,84.42
4.9169,-1.9341,-8.4038,-0.028711,-0.030543,0.025656,0.06,-24.48,84.48
4.7944,-1.975,-8.4582,-0.03146,-0.010996,0.028405,0.06,-24.6,84.36
4.8761,-1.8932,-8.3765,-0.036041,0.0048869,0.018937,0.06,-24.6,84.42
4.8216,-1.866,-8.3357,-0.041844,0.0064141,0.017104,0.12,-24.42,84.54
4.8897,-1.8524,-8.3084,-0.025351,0.0039706,0.019548,0.18,-24.36,84.6
4.8761,-1.8524,-8.4446,-0.029322,-0.0018326,0.02138,0.24,-24.42,84.84
4.8761,-1.8251,-8.3493,-0.025045,0.0042761,0.018021,0.12,-24.48,84.9
4.8216,-1.8796,-8.4446,-0.0281,0.012523,0.028405,0.12,-24.48,84.96
4.9442,-1.8932,-8.4582,-0.029932,-0.000305,0.029627,-0.12,-24.48,84.78
4.9578,-1.9068,-8.3493,-0.023518,-0.023824,0.036652,-0.06,-24.48,84.9
5.0395,-1.9477,-8.3901,-0.027489,-0.04948,0.043982,-0.06,-24.54,84.9
4.8352,-1.8932,-8.3493,-0.035125,-0.04948,0.043982,-0.12,-24.72,85.08
4.8352,-1.8932,-8.3493,-0.035125,-0.04948,0.043982,-0.12,-24.72,85.08
4.7126,-1.866,-8.4991,-0.031154,-0.0051924,0.043066,0.12,-24.78,85.2
4.6854,-1.9341,-8.3765,-0.040928,0.023213,0.059559,0.12,-24.72,85.08
4.7944,-2.0703,-8.2948,-0.044593,0.04215,0.06353,0.06,-24.66,84.9
4.8488,-2.0022,-8.3629,-0.034208,0.067501,0.076969,-0.06,-24.66,84.9
4.9987,-1.9341,-8.3765,-0.038485,0.058643,0.056505,0.12,-24.48,84.66
5.094,-1.8524,-8.3901,-0.02474,0.016188,0.041233,0.12,-24.48,84.6
5.1076,-1.757,-8.431,-0.030849,-0.051313,0.0064141,0.12,-24.6,84.42
4.9033,-1.866,-8.3765,-0.022297,-0.083078,0.0042761,0.18,-24.6,84.42
4.699,-1.9341,-8.4174,-0.030238,-0.081856,-0.0076358,0.3,-24.6,84.36
4.522,-2.0158,-8.4446,-0.051313,-0.03207,-0.015272,0.42,-24.36,84.18
4.5901,-2.0431,-8.54,-0.0562,0.044899,-0.011301,0.3,-24.36,84.24
4.6445,-1.9341,-8.54,-0.075442,0.10996,0.0018326,0.18,-24.3,84.3
4.9714,-1.8251,-8.2539,-0.062614,0.12798,0.0067195,0.06,-24.54,84.42
5.0668,-1.8251,-8.2131,-0.048564,0.090713,0.014966,0.12,-24.54,84.6
5.0531,-1.8796,-8.3493,-0.037568,0.034208,0.014355,0.06,-24.54,84.6
4.9714,-1.866,-8.3765,-0.025351,-0.011912,0.0012217,0.18,-24.54,84.66
4.8488,-1.8796,-8.3765,-0.02474,-0.030849,-0.0039706,-0.06,-24.6,84.84
4.7944,-1.8387,-8.5127,-0.034208,0.0045815,0.011301,-0.06,-24.66,84.72
4.8625,-1.8796,-8.3629,-0.029627,0.026878,0.013134,0.12,-24.48,84.96
4.9306,-1.8524,-8.3765,-0.032987,0.030849,0.0076358,0.12,-24.66,84.96
4.9306,-1.9068,-8.3765,-0.04612,0.027794,0.012828,-0.06,-24.78,85.08
4.9442,-1.8387,-8.3493,-0.044899,0.016799,0.0027489,-0.24,-24.78,85.14
4.9306,-1.757,-8.4038,-0.036652,-0.0012217,-0.0079412,-0.24,-24.9,85.08
4.8625,-1.7434,-8.2812,-0.035125,-0.0018326,0.000305,-0.12,-25.08,84.9
4.8488,-1.8115,-8.3493,-0.03879,0.0058032,0.0082467,-0.12,-25.08,84.9
4.8897,-1.8796,-8.4446,-0.038179,0.016188,0.010996,-0.12,-25.14,84.96
4.9578,-1.9205,-8.3901,-0.052229,0.035736,0.0085521,-0.06,-25.08,84.66
4.9987,-1.866,-8.3765,-0.052229,0.035736,0.000916,0.12,-25.2,84.6
4.985,-1.8251,-8.2812,-0.043982,0.020769,0.000611,0.12,-25.08,84.42
4.9714,-1.7979,-8.3493,-0.038179,-0.01405,-0.000305,0.12,-24.96,84.54
4.9169,-1.7979,-8.3493,-0.019853,-0.02138,0.0073304,0.12,-24.96,84.54
4.8352,-1.8932,-8.322,-0.028405,-0.012217,0.01741,0.06,-24.96,84.54
4.9033,-1.866,-8.3765,-0.030543,-0.0054978,0.020769,0.12,-24.6,84.54
4.9033,-1.8115,-8.3765,-0.026573,-0.0027489,0.019548,0.24,-24.6,84.54
4.9987,-1.7979,-8.3493,-0.032681,-0.012217,0.025045,0.24,-24.78,84.54
4.9442,-1.8387,-8.3493,-0.028405,-0.033292,0.016188,0.18,-24.48,84.54
4.7944,-1.8524,-8.4174,-0.015882,-0.033903,0.0012217,0.06,-24.54,84.66
4.808,-1.8251,-8.3493,-0.03146,-0.016493,0.010079,0.06,-24.48,84.54
4.9306,-1.8387,-8.3765,-0.028405,0.0039706,0.018937,0.06,-24.6,84.78
4.9306,-1.866,-8.4174,-0.038179,0.0079412,0.019548,-0.18,-24.48,84.9
4.9578,-1.9205,-8.2539,-0.037874,0.002138,0.011912,-0.24,-24.54,84.9
4.9306,-1.8387,-8.3084,-0.042761,-0.0030543,0.007025,-0.06,-24.6,85.08
4.808,-1.757,-8.3357,-0.028711,-0.000305,0.0048869,-0.06,-24.72,85.08
4.8761,-1.7979,-8.3493,-0.027489,0.0076358,0.007025,-0.06,-24.72,85.02
4.9578,-1.8932,-8.4174,-0.021686,0.007025,0.016188,-0.18,-24.78,85.02
4.9442,-1.8387,-8.4446,-0.029932,0.0064141,0.017104,-0.12,-24.96,84.9
4.9306,-1.8387,-8.4038,-0.03879,0.0045815,0.0097738,-0.12,-24.78,84.9
4.9306,-1.8115,-8.4174,-0.03879,0.0033598,0.0015272,-0.18,-24.9,84.96
4.9306,-1.7843,-8.3629,-0.038179,0.0051924,0.0024435,-0.18,-24.66,84.84
4.9033,-1.7706,-8.2812,-0.03207,0.012828,0.0018326,-0.06,-24.6,84.96
4.9442,-1.7979,-8.3765,-0.036041,0.0079412,0.014355,-0.06,-24.54,84.9
4.8761,-1.7979,-8.3901,-0.03543,0.0094684,0.010996,-0.06,-24.66,84.78
4.9442,-1.8524,-8.322,-0.032987,0.0033598,0.01069,0.06,-24.72,84.78
4.9306,-1.866,-8.322,-0.037263,0.0088575,0.015577,-0.06,-24.6,84.72
4.9306,-1.8932,-8.3493,-0.034514,0.014355,0.022907,-0.12,-24.6,84.78
4.9578,-1.8115,-8.2948,-0.033292,0.0054978,0.025962,-0.06,-24.54,84.78
5.0259,-1.7843,-8.3357,-0.025045,-0.013134,0.023213,-0.06,-24.54,84.78
4.8761,-1.9068,-8.4038,-0.029932,-0.027794,0.015272,-0.18,-24.48,84.78
4.8625,-1.8524,-8.3765,-0.02138,-0.017104,0.012217,-0.24,-24.6,84.9
4.7671,-1.866,-8.4855,-0.03207,-0.011606,0.015577,-0.06,-24.42,84.9
4.8625,-1.8524,-8.4174,-0.033292,0.0042761,0.021075,-0.12,-24.54,85.02
4.8897,-1.8115,-8.4446,-0.032987,0.023824,0.020464,-0.06,-24.6,84.96
4.9578,-1.8387,-8.3629,-0.040317,0.02138,0.024129,-0.06,-24.66,84.9
5.0259,-1.866,-8.2676,-0.034208,0.0036652,0.025351,-0.06,-24.66,84.96
4.9306,-1.8932,-8.322,-0.035736,-0.019242,0.025656,-0.18,-24.54,84.96
4.9306,-1.9341,-8.3765,-0.031765,-0.013439,0.025351,-0.18,-24.84,84.96
4.8897,-1.9341,-8.3493,-0.029627,-0.0058032,0.024435,-0.24,-24.9,84.78
4.808,-1.8387,-8.2812,-0.029932,0.011606,0.018021,-0.24,-25.02,84.72
4.8761,-1.866,-8.322,-0.034819,0.012828,0.014966,-0.24,-25.14,84.48
4.9306,-1.866,-8.3357,-0.029932,0.0051924,0.022602,-0.36,-25.08,84.48
4.8761,-1.8932,-8.3629,-0.030543,0.0045815,0.022297,-0.42,-25.02,84.36
4.9033,-1.8524,-8.4174,-0.037874,0.011912,0.029322,-0.54,-25.32,84.18
4.9578,-1.8387,-8.3357,-0.043982,0.0051924,0.016799,-0.48,-25.32,84.06
4.9306,-1.8115,-8.322,-0.029016,0.0051924,0.020159,-0.54,-25.32,84.06
4.9306,-1.8387,-8.3629,-0.035125,0.0030543,0.025962,-0.48,-25.14,84.12
4.8761,-1.8524,-8.4174,-0.027794,0.0073304,0.024435,-0.54,-25.14,84.06
4.9442,-1.8932,-8.4855,-0.022907,0.0058032,0.020159,-0.54,-24.9,84.18
4.9033,-1.8796,-8.4038,-0.038485,-0.0015272,0.02138,-0.54,-24.84,84.06
4.9169,-1.8524,-8.3765,-0.038485,0.0045815,0.018631,-0.48,-24.84,84.12
4.9033,-1.866,-8.4038,-0.036957,0.011301,0.015577,-0.54,-24.84,84.18
4.9578,-1.866,-8.322,-0.038179,0.017104,0.014661,-0.48,-24.78,84.3
4.9306,-1.8932,-8.4174,-0.036346,0.015577,0.014661,-0.48,-24.72,84.54
4.9033,-1.866,-8.3493,-0.021991,0.015272,0.016799,-0.36,-24.78,84.78
4.9033,-1.7979,-8.3084,-0.037263,0.028711,0.020159,-0.42,-24.54,84.9
4.8625,-1.8796,-8.2812,-0.037874,0.013134,0.012523,-0.54,-24.54,84.84
4.9306,-1.8251,-8.3765,-0.035736,0.02474,0.018937,-0.54,-24.48,84.9
5.0123,-1.8932,-8.3629,-0.040928,0.026878,0.017715,-0.6,-24.54,84.84
5.0259,-1.866,-8.3765,-0.033292,0.0064141,0.015577,-0.66,-24.6,84.84
4.9578,-1.9068,-8.322,-0.034514,-0.0058032,0.011912,-0.66,-24.66,84.84
4.9306,-1.7979,-8.3493,-0.035736,0.002138,0.014355,-0.48,-24.78,84.72
4.9306,-1.866,-8.2812,-0.033292,0.012828,0.023213,-0.42,-24.72,84.78
4.9714,-1.866,-8.2812,-0.034208,0.0088575,0.022297,-0.36,-24.72,84.9
4.985,-1.8796,-8.3765,-0.033903,0.000916,0.024129,-0.36,-24.78,84.78
4.9987,-1.866,-8.322,-0.037263,-0.0033598,0.023518,-0.3,-24.9,84.6
4.9578,-1.8524,-8.3901,-0.033292,-0.0097738,0.025045,-0.36,-24.9,84.42
4.9987,-1.8387,-8.2812,-0.029627,-0.0024435,0.027794,-0.42,-25.02,84.48
4.9169,-1.9068,-8.3084,-0.034514,0.0073304,0.023213,-0.3,-25.08,84.72
4.9306,-1.9341,-8.3084,-0.044288,0.0094684,0.021075,-0.42,-25.26,84.78
5.0123,-1.8251,-8.2948,-0.039095,0.0012217,0.015882,-0.48,-25.26,84.84
4.9714,-1.8251,-8.3084,-0.02138,-0.010079,0.0094684,-0.42,-25.32,84.78
4.9987,-1.7979,-8.4446,-0.029322,-0.021686,0.010996,-0.36,-25.44,84.72
4.8897,-1.8796,-8.3493,-0.033292,-0.01069,0.016799,-0.66,-25.44,84.96
4.8897,-1.8932,-8.3765,-0.036041,0.002138,0.018326,-0.72,-25.44,84.96
4.9033,-1.9205,-8.3493,-0.034514,0.0076358,0.0082467,-0.78,-25.38,84.84
5.0259,-1.7979,-8.4174,-0.039706,0.0048869,0.0033598,-0.9,-25.5,84.84
4.985,-1.7979,-8.4446,-0.039706,0.0064141,-0.020769,-0.96,-25.38,84.78
4.9306,-1.7979,-8.3765,-0.051618,0.013439,-0.039706,-0.84,-25.26,84.9
4.808,-1.7979,-8.2812,-0.045204,0.034208,-0.031765,-0.72,-25.32,84.78
4.8488,-1.7706,-8.2948,-0.034514,0.065973,-0.024129,-0.72,-25.26,84.6
4.8897,-1.6889,-8.2812,-0.022602,0.077274,-0.03146,-0.78,-25.14,84.54
4.9306,-1.7162,-8.2948,-0.019853,0.073609,-0.0088575,-0.66,-25.02,84.36
4.9578,-1.7706,-8.3084,-0.012828,0.040928,0.0094684,-0.72,-25.02,84.42
5.0668,-1.8387,-8.2948,-0.021075,0.036346,0.01069,-0.66,-24.96,84.48
5.0804,-2.1793,-8.2539,-0.025351,0.029016,0.025656,-0.48,-25.02,84.42
5.1485,-2.1248,-8.2403,-0.03207,0.047647,0.055283,-0.48,-25.08,84.42
5.1485,-2.0839,-8.2812,-0.041539,0.034208,0.06689,-0.36,-25.2,84.48
5.3119,-1.9205,-8.2131,-0.032987,-0.038179,0.071166,-0.36,-25.14,84.54
5.0668,-1.7706,-8.3493,-0.011606,-0.18967,0.082772,-0.3,-25.02,84.54
5.0668,-1.7843,-8.2948,-0.020769,-0.21991,0.07025,-0.3,-25.14,84.42
4.8761,-1.7298,-8.3357,-0.018631,-0.21716,0.032376,-0.36,-24.96,84.48
4.8761,-1.7298,-8.3357,-0.019853,-0.12706,0.0018326,-0.36,-24.96,84.48
4.4811,-1.8524,-8.3901,-0.014355,-0.030543,0.0033598,-0.3,-24.96,84.54
4.7263,-1.8932,-8.431,-0.025962,0.04215,0.010996,-0.06,-25.14,84.42
5.0259,-1.8115,-8.4719,-0.035736,0.057727,0.018631,0.3,-25.02,84.54
5.1894,-1.866,-8.4855,-0.053145,0.033292,-0.0094684,0.6,-25.02,84.6
5.0531,-1.8251,-8.3765,-0.062308,-0.018631,-0.033903,1.02,-25.14,84.54
4.8488,-1.7706,-8.3357,-0.056505,-0.037568,-0.065973,1.26,-25.02,84.66
4.5901,-1.7979,-8.2812,-0.032376,0.018021,-0.065363,1.38,-25.2,84.54
4.5356,-1.8115,-8.2539,-0.016188,0.087354,-0.037568,1.68,-25.32,84.54
4.7944,-1.9613,-8.3629,-0.012523,0.12859,-0.000611,1.86,-25.14,84.54
5.0123,-1.9613,-8.3765,-0.029627,0.1127,0.02474,1.8,-24.96,84.54
5.2438,-1.9886,-8.3493,-0.035125,0.053145,0.038179,1.56,-24.96,84.72
5.1757,-1.9341,-8.322,-0.036041,-0.020464,0.050396,1.38,-25.08,84.66
5.1213,-1.9341,-8.3357,-0.012217,-0.15669,0.10049,0.9,-24.96,84.72
5.0531,-1.8932,-8.3084,0.0042761,-0.21289,0.11881,0.72,-24.96,84.72
4.8897,-1.6753,-8.4174,0.0045815,-0.20525,0.10751,0.36,-24.9,84.54
4.9306,-1.7434,-8.4174,0.0024435,-0.18906,0.079718,0.12,-24.6,84.72
4.7944,-1.7979,-8.6625,-0.0051924,-0.17226,0.027184,0.06,-24.66,84.84
4.5083,-1.9341,-8.6081,-0.032376,-0.12553,-0.000305,0.06,-24.72,84.84
4.3858,-1.9477,-8.6081,-0.050091,0.059254,-0.047342,0.12,-24.9,84.72
4.5492,-1.9205,-8.4446,-0.06353,0.12706,-0.049786,0.24,-24.9,84.66
4.7126,-1.9477,-8.431,-0.073304,0.21686,-0.045509,0.18,-24.9,84.84
4.9169,-1.9068,-8.3901,-0.07025,0.19487,-0.023213,0.24,-24.84,84.72
5.0668,-1.8932,-8.3493,-0.067195,0.14294,-0.011912,0.06,-24.84,84.78
5.0804,-1.866,-8.2539,-0.059865,0.067195,0.0054978,0.12,-24.84,84.72
5.0123,-1.8387,-8.3493,-0.04215,-0.007025,0.0054978,0.18,-24.96,84.6
4.9033,-1.8251,-8.2812,-0.025045,-0.044899,0.000305,0.18,-25.02,84.6
4.7399,-1.8796,-8.3901,-0.027794,-0.018631,0.0061087,0.18,-25.08,84.54
4.7671,-1.8387,-8.322,-0.034208,0.032376,0.017104,0.06,-25.08,84.6
4.8352,-1.8932,-8.3901,-0.044899,0.074831,0.015577,0.18,-25.08,84.66
4.9306,-1.8932,-8.3765,-0.057116,0.10324,0.013134,0.24,-25.2,84.54
4.9442,-1.866,-8.3629,-0.055894,0.10232,0.0039706,0.06,-25.14,84.66
5.0259,-1.7298,-8.2267,-0.055589,0.083078,0.0097738,0.06,-25.26,84.78
5.0668,-1.7843,-8.2812,-0.043677,0.015882,0.041233,0.12,-25.14,84.78
5.1213,-1.7298,-8.2131,-0.027184,-0.0027489,0.033903,0.12,-25.14,84.78
5.0123,-1.8796,-8.2676,-0.022297,-0.042761,0.028405,-0.3,-25.2,84.9
4.8897,-1.9613,-8.4174,-0.024435,-0.055283,0.02474,-0.18,-25.2,84.9
4.9033,-1.8932,-8.3629,-0.036041,-0.031765,0.016493,-0.24,-25.14,84.84
4.8352,-1.866,-8.322,-0.032681,-0.0088575,0.018021,-0.24,-25.2,84.66
5.0259,-1.7706,-8.2948,-0.020769,0.0045815,0.025962,-0.48,-25.26,84.42
4.9987,-1.8251,-8.3493,-0.0042761,-0.0076358,0.027489,-0.42,-25.14,84.3
4.9442,-1.8796,-8.3493,-0.011912,-0.023213,0.016799,-0.42,-25.32,84.24
4.985,-1.8932,-8.3493,-0.01405,-0.044593,0.021075,-0.36,-25.14,84.36
4.9033,-1.8932,-8.4174,-0.018326,-0.057727,0.032681,-0.24,-25.2,84.42
4.9033,-1.9341,-8.2948,-0.021991,-0.043066,0.033903,-0.12,-25.2,84.42
4.8897,-1.8932,-8.322,-0.021075,-0.026267,0.029627,-0.18,-25.2,84.42
4.8761,-1.866,-8.3493,-0.020769,-0.024129,0.029627,-0.12,-25.14,84.42
4.9033,-1.7979,-8.2948,-0.021075,-0.020159,0.031154,-0.06,-25.02,84.48
5.0259,-1.866,-8.3629,-0.02474,-0.013744,0.034819,0.06,-24.84,84.78
4.9169,-1.866,-8.322,-0.020464,-0.0054978,0.039095,0.12,-24.9,84.9
4.9033,-1.9205,-8.3901,-0.025656,0.0082467,0.031765,0.18,-24.72,84.96
4.9169,-1.8932,-8.3765,-0.026573,0.000916,0.0281,0.36,-24.72,84.9
4.8897,-1.866,-8.3357,-0.040317,0.0045815,0.032376,0.18,-24.84,84.84
4.9306,-1.8932,-8.4174,-0.042761,0.0015272,0.020159,0.3,-24.84,84.9
4.8216,-1.8932,-8.3493,-0.042761,0.018631,0.021991,0.3,-24.9,84.84
4.8488,-1.9341,-8.3765,-0.051313,0.043371,0.029932,0.36,-24.78,84.9
4.9987,-1.9068,-8.3629,-0.046426,0.07025,0.01741,0.3,-24.84,85.02
5.0123,-1.9341,-8.322,-0.052534,0.062308,0.009163,0.24,-24.78,84.96
4.9578,-1.8387,-8.3493,-0.043371,0.01741,-0.014966,0.24,-24.9,84.84
4.9033,-1.7706,-8.2812,-0.029016,0.0082467,-0.021686,0.12,-25.02,84.9
4.9169,-1.8524,-8.3493,-0.033903,0.012828,-0.016493,0.12,-25.14,84.96
4.8625,-1.6889,-8.2131,-0.019242,0.018937,0.0036652,0.12,-25.02,84.9
4.9578,-1.9068,-8.2948,-0.016799,0.0048869,0.012217,-0.24,-24.96,84.9
5.0531,-1.9205,-8.322,-0.029322,-0.038485,0.040623,-0.24,-25.02,84.96
5.0259,-1.8796,-8.2948,-0.026878,-0.069028,0.024435,-0.18,-25.02,84.78
4.9442,-1.9341,-8.3765,-0.013439,-0.075747,0.014355,-0.18,-24.96,84.78
4.8625,-1.9477,-8.5127,-0.029932,-0.04612,0.014966,-0.12,-25.08,84.72
4.8216,-1.9341,-8.3629,-0.042455,-0.017715,0.01741,-0.12,-25.08,84.66
4.8625,-1.8387,-8.3493,-0.038485,-0.01069,0.025351,-0.06,-24.9,84.66
4.9306,-1.8932,-8.3084,-0.021686,-0.033598,0.027489,0.06,-24.78,84.54
4.985,-1.7979,-8.3901,-0.018631,-0.055589,0.025351,0.12,-24.66,84.66
4.808,-1.9477,-8.3493,-0.0048869,-0.060476,0.018021,0.42,-24.66,84.6
4.7944,-1.9886,-8.4855,-0.01741,-0.041233,0.024435,0.42,-24.48,84.66
4.8352,-1.9613,-8.4719,-0.030238,-0.020159,0.036346,0.54,-24.36,84.54
4.8352,-1.9341,-8.3629,-0.033903,-0.01069,0.024435,0.54,-24.36,84.72
4.8761,-1.9613,-8.4174,-0.04612,0.016188,0.026573,0.54,-24.3,84.66
4.8625,-1.9886,-8.4174,-0.046731,0.026878,0.012217,0.6,-24.36,84.66
4.9442,-1.8932,-8.4719,-0.048869,0.022602,-0.0033598,0.9,-24.3,84.54
4.808,-1.9341,-8.3901,-0.061392,0.033903,-0.0042761,0.9,-24.48,84.54
4.7944,-1.8524,-8.4446,-0.063835,0.045204,-0.028711,0.9,-24.3,84.54
4.7399,-1.8115,-8.3357,-0.051618,0.079107,-0.019853,0.84,-24.42,84.6
4.8897,-1.7843,-8.2812,-0.045815,0.09499,-0.0079412,0.78,-24.3,84.6
4.9578,-1.8796,-8.2948,-0.044593,0.08827,0.013744,0.78,-24.36,84.66
5.0259,-1.8796,-8.3493,-0.042761,0.065668,0.018326,0.66,-24.48,84.72
5.1076,-1.9205,-8.2948,-0.04948,0.023518,0.012217,0.54,-24.48,84.78
5.0531,-1.866,-8.2812,-0.036346,-0.020769,0.0042761,0.42,-24.54,84.84
4.9442,-1.8524,-8.3765,-0.032987,-0.028711,0.0036652,0.3,-24.36,84.84
4.9033,-1.8524,-8.431,-0.028711,-0.017715,-0.000305,0.24,-24.36,84.84
4.9306,-1.866,-8.3357,-0.025351,0.0033598,0.0030543,0.18,-24.36,84.84
4.9578,-1.8387,-8.3357,-0.040928,0.0015272,0.011912,0.06,-24.54,84.9
4.9987,-1.8387,-8.2948,-0.025045,-0.026878,0.0058032,0.06,-24.6,84.84
4.9714,-1.8796,-8.3493,-0.028711,-0.040012,0.0058032,0.06,-24.72,84.78
4.9442,-1.8796,-8.4582,-0.019853,-0.041233,0.0036652,0.06,-24.9,84.9
4.8761,-1.8932,-8.3765,-0.017104,-0.035125,0.010079,0.12,-24.9,84.66
4.8897,-1.7979,-8.4038,-0.029932,-0.01741,-0.0033598,0.18,-24.78,84.78
4.8488,-1.8115,-8.5127,-0.038485,0.011301,-0.0045815,0.12,-24.84,84.72
4.8625,-1.8387,-8.3901,-0.043677,0.025045,-0.007025,0.24,-24.84,84.78
4.9033,-1.866,-8.2812,-0.039706,0.039706,-0.0079412,0.24,-24.72,84.84
4.9442,-1.9068,-8.3765,-0.045815,0.041539,-0.011301,0.36,-24.72,84.84
4.9033,-1.866,-8.3629,-0.035736,0.051007,-0.0064141,0.24,-24.54,84.6
4.9306,-1.8387,-8.4174,-0.043982,0.050702,-0.0073304,0.3,-24.6,84.6
4.9714,-1.8251,-8.3765,-0.03207,0.046731,0.0064141,0.24,-24.42,84.72
4.9987,-1.8387,-8.3084,-0.03543,0.034514,0.015577,0.24,-24.42,84.72
5.094,-1.8932,-8.3084,-0.030238,0.01741,0.027184,0.24,-24.48,84.78
5.0531,-1.8796,-8.322,-0.038485,-0.0054978,0.031765,0.18,-24.72,84.9
4.9578,-1.8932,-8.3357,-0.033292,-0.029627,0.018021,0.06,-24.6,84.72
4.9306,-1.8387,-8.4855,-0.033292,-0.031765,0.013134,0.12,-24.66,84.6
4.9306,-1.9205,-8.3357,-0.03207,-0.0073304,0.0012217,-0.06,-24.72,84.72
4.9033,-1.8524,-8.431,-0.033598,0.01405,0.0058032,-0.06,-24.96,84.78
4.9169,-1.8115,-8.3493,-0.042455,0.025351,0.021686,-0.06,-24.96,84.96
4.985,-1.7979,-8.3629,-0.031154,0.018631,0.019548,-0.06,-25.08,84.9
4.9578,-1.8387,-8.3084,-0.026878,-0.0024435,0.015272,-0.06,-25.14,84.9
4.9578,-1.8115,-8.3765,-0.03146,-0.0030543,0.0036652,-0.3,-24.9,84.84
4.9169,-1.8932,-8.3901,-0.032681,0.013439,0.0051924,-0.24,-24.9,84.9
4.9033,-1.7706,-8.322,-0.029932,0.020464,0.0058032,-0.18,-24.84,84.84
4.9987,-1.7979,-8.2539,-0.02474,0.02138,0.010385,-0.06,-24.84,84.72
5.0259,-1.8115,-8.322,-0.035125,0.015882,0.018021,-0.24,-24.96,84.72
5.0804,-1.8524,-8.2812,-0.024129,-0.013744,0.020159,-0.24,-24.96,84.84
5.0395,-1.8387,-8.2812,-0.024129,-0.034208,0.017715,-0.42,-24.96,84.9
4.9306,-1.8115,-8.2403,-0.016493,-0.041233,0.017104,-0.3,-24.96,84.9
4.9442,-1.7979,-8.322,-0.011912,-0.036346,0.031154,-0.24,-24.9,84.66
4.9169,-1.866,-8.3493,-0.018021,-0.030238,0.032681,-0.3,-24.72,84.72
4.9987,-1.8932,-8.322,-0.015577,-0.032987,0.03207,-0.3,-24.72,84.6
4.985,-1.8932,-8.3493,-0.023824,-0.041844,0.026878,-0.3,-24.72,84.72
4.9442,-1.8932,-8.4174,-0.018326,-0.04215,0.026573,-0.12,-24.66,84.72
4.8625,-1.8387,-8.3629,-0.025656,-0.026573,0.024129,-0.06,-24.72,84.9
4.8352,-1.9613,-8.4582,-0.029322,-0.013744,0.024435,-0.06,-24.66,84.84
4.8761,-1.9205,-8.4174,-0.030543,0.0015272,0.031765,-0.06,-24.72,84.9
4.9033,-1.9341,-8.3901,-0.039401,0.0054978,0.039401,0.12,-24.84,85.08
4.9033,-1.9886,-8.4855,-0.053756,0.020769,0.029016,0.18,-24.96,84.84
4.9578,-1.8932,-8.4446,-0.062308,0.038179,0.020769,0.3,-25.02,84.9
4.9169,-1.7298,-8.2131,-0.057116,0.0562,-0.0061087,0.24,-24.78,84.66
4.9442,-1.7025,-8.1995,-0.023213,0.036346,0.0030543,0.24,-24.66,84.72
4.9578,-1.7298,-8.2812,-0.017104,0.010079,0.018021,0.24,-24.84,84.66
4.9578,-1.866,-8.5944,-0.0079412,-0.0033598,0.012523,0.12,-25.02,84.6
4.9578,-1.9886,-8.4446,-0.036041,0.014355,-0.0094684,0.12,-24.84,84.3
4.9169,-1.8796,-8.3493,-0.048564,0.0281,-0.015272,-0.12,-24.96,84.36
4.9306,-1.7706,-8.4038,-0.044899,0.039095,-0.010385,-0.06,-24.78,84.12
4.9306,-1.8387,-8.4038,-0.043677,0.043982,-0.01069,-0.06,-24.9,84.18
4.9306,-1.9068,-8.322,-0.048869,0.061392,-0.012217,-0.12,-24.96,84.24
4.9306,-1.8524,-8.2676,-0.054672,0.091935,-0.0064141,-0.36,-24.78,84.24
5.0259,-1.8251,-8.1586,-0.03207,0.067195,0.010079,-0.42,-24.72,84.36
5.2983,-1.7979,-8.1858,-0.018021,0.041233,0.015272,-0.48,-24.84,84.24
5.2166,-1.8115,-8.2539,0.0027489,-0.022907,0.02138,-0.54,-24.84,84.42
5.1894,-1.7843,-8.2539,-0.000305,-0.072998,0.010385,-0.6,-24.9,84.36
5.0123,-1.7162,-8.2539,0.0061087,-0.087965,-0.021991,-0.66,-24.78,84.42
4.9033,-1.8387,-8.2676,0.0082467,-0.064446,-0.011912,-0.6,-24.48,84.42
4.8625,-1.9205,-8.2539,0.0051924,-0.044288,0.015577,-0.72,-24.42,84.54
4.9578,-1.866,-8.2948,-0.000305,-0.056505,0.025351,-0.6,-24.36,84.48
4.9578,-1.866,-8.2812,0.0067195,-0.077885,0.037568,-0.72,-24.48,84.36
4.9987,-1.8796,-8.3493,0.0018326,-0.088881,0.036652,-0.78,-24.6,84.54
4.9578,-1.9477,-8.3629,-0.000916,-0.085827,0.03207,-0.78,-24.36,84.42
4.8897,-1.8796,-8.3765,-0.01741,-0.07422,0.0281,-0.78,-24.36,84.3
4.8761,-1.9886,-8.5536,-0.026573,-0.046426,0.026267,-0.66,-24.36,84.42
4.7671,-1.9613,-8.3765,-0.018021,-0.027184,0.026878,-0.6,-24.24,84.42
4.8352,-1.9341,-8.4446,-0.023824,-0.014661,0.029322,-0.48,-24.36,84.6
4.8352,-1.8932,-8.322,-0.02138,0.0054978,0.025656,-0.42,-24.42,84.72
4.9033,-1.866,-8.2948,-0.020464,-0.0054978,0.034514,-0.36,-24.36,84.78
4.9987,-1.8932,-8.5127,-0.01405,-0.032987,0.03207,-0.3,-24.42,84.66
4.9306,-1.9341,-8.4719,-0.032376,-0.047342,0.023824,-0.12,-24.54,84.78
4.7944,-1.9341,-8.4446,-0.038485,-0.03879,0.017715,0.06,-24.48,84.66
4.6854,-1.9068,-8.322,-0.030543,-0.0012217,0.01069,-0.12,-24.48,84.66
4.8216,-1.8387,-8.3629,-0.0281,0.025656,0.019548,-0.06,-24.48,84.48
4.8625,-1.866,-8.4038,-0.023824,0.033903,0.037874,-0.06,-24.54,84.6
5.0123,-1.9613,-8.3765,-0.025045,0.009163,0.037874,-0.06,-24.72,84.6
4.9987,-1.9886,-8.2948,-0.024435,-0.022602,0.028405,-0.18,-24.66,84.54
4.9306,-1.975,-8.4038,-0.01405,-0.054367,0.018631,-0.24,-24.66,84.6
4.8625,-1.9613,-8.3629,-0.018631,-0.063835,0.027184,-0.3,-24.36,84.66
4.8897,-1.9205,-8.3901,-0.018021,-0.065668,0.018326,-0.24,-24.48,84.6
4.7535,-1.9886,-8.4174,-0.023213,-0.049175,0.029932,-0.24,-24.54,84.6
4.7944,-1.9886,-8.3901,-0.029016,-0.029016,0.027794,-0.3,-24.36,84.84
4.8488,-1.8932,-8.322,-0.026878,-0.017715,0.027794,-0.42,-24.42,84.84
4.9169,-1.8796,-8.3765,-0.021075,-0.0281,0.022297,-0.48,-24.54,84.96
4.8761,-1.8932,-8.4038,-0.012828,-0.03146,0.022297,-0.42,-24.6,85.08
4.8625,-1.9205,-8.3493,-0.000916,-0.065363,0.04215,-0.3,-24.48,85.08
4.8625,-1.975,-8.4991,-0.0085521,-0.069639,0.040317,-0.3,-24.3,85.2
4.7944,-2.0567,-8.4038,-0.015882,-0.060781,0.038485,-0.18,-24.3,85.2
4.808,-2.0158,-8.3493,-0.031765,-0.051007,0.022297,-0.18,-24.24,85.32
4.808,-1.9886,-8.4174,-0.028711,-0.036346,0.016493,0.18,-24.3,85.14
4.6582,-1.9613,-8.4855,-0.03543,-0.025045,0.0097738,0.24,-24.3,84.96
4.699,-1.975,-8.431,-0.046731,0.031765,0.0045815,0.12,-24.36,84.9
4.7671,-1.9341,-8.5127,-0.053451,0.048869,0.0058032,0.18,-24.36,84.9
4.8216,-1.9886,-8.4446,-0.053756,0.041844,0.013134,0.42,-24.42,85.02
4.8488,-1.9341,-8.322,-0.048564,0.03879,0.0042761,0.3,-24.3,84.84
4.8761,-1.9613,-8.322,-0.036957,0.026267,-0.000305,0.24,-24.24,84.9
4.7807,-2.0158,-8.4174,-0.039706,0.021686,0.0048869,0.48,-24.18,84.84
4.8216,-1.9613,-8.4174,-0.040623,0.0097738,0.0073304,0.42,-24.24,84.9
4.8352,-1.975,-8.4174,-0.048258,0.014966,0.0064141,0.42,-24.36,84.78
4.7671,-1.9205,-8.3629,-0.039401,0.014355,-0.000305,0.36,-24.48,84.84
4.8625,-1.9068,-8.431,-0.039401,0.0082467,0.0085521,0.36,-24.3,84.9
4.8761,-1.8932,-8.4855,-0.041233,0.0036652,0.015272,0.24,-24.3,85.02
4.8488,-1.9886,-8.4038,-0.039401,0.000611,0.0067195,0.36,-24.18,85.2
4.808,-2.0294,-8.3765,-0.036957,-0.0058032,0.0079412,0.42,-24.06,85.14
4.808,-1.9613,-8.3493,-0.029627,0.000611,0.0097738,0.42,-24.18,84.9
4.8216,-1.9205,-8.4174,-0.018937,-0.010996,0.027184,0.24,-24.12,84.9
4.8216,-1.9613,-8.4446,-0.012828,-0.010385,0.021075,0.48,-24.36,85.02
4.8216,-1.9341,-8.4174,-0.025962,-0.012217,0.025656,0.48,-24.48,85.08
4.8761,-1.9341,-8.431,-0.03543,-0.010385,0.021686,0.42,-24.48,85.26
4.7399,-1.9068,-8.431,-0.043066,-0.0027489,0.012217,0.54,-24.54,85.26
4.7671,-1.9613,-8.3493,-0.043066,0.025045,0.0058032,0.54,-24.54,85.32
4.7671,-1.9341,-8.3765,-0.050091,0.044593,0.0054978,0.72,-24.48,85.32
4.7944,-1.8796,-8.2539,-0.035736,0.048869,0.015577,0.66,-24.42,85.2
4.9578,-1.9886,-8.3493,-0.033598,0.045815,0.011301,0.78,-24.54,84.96
4.9714,-1.9886,-8.3765,-0.02474,-0.010079,0.023518,0.66,-24.66,85.08
4.9169,-2.0022,-8.3357,-0.022907,-0.027794,0.029322,0.6,-24.72,85.08
4.8216,-1.975,-8.3357,-0.025656,-0.052534,0.040928,0.66,-24.54,85.2
4.808,-1.9477,-8.3901,-0.021991,-0.04612,0.040928,0.66,-24.66,85.08
4.7944,-1.9341,-8.4855,-0.025962,-0.03879,0.040928,0.78,-24.66,84.96
4.7671,-1.9477,-8.3765,-0.037568,-0.013134,0.032376,0.96,-24.66,84.78
4.7944,-1.975,-8.4855,-0.03879,0.0027489,0.024435,1.02,-24.54,84.6
4.7944,-1.9341,-8.322,-0.029322,0.02138,0.02474,0.78,-24.48,84.66
4.8216,-1.8796,-8.3084,-0.03879,0.01405,0.024129,0.84,-24.6,84.9
4.8488,-1.9341,-8.3765,-0.023824,0.010079,0.010079,1.02,-24.54,84.72
4.8625,-1.9613,-8.3493,-0.030543,0.015577,0.017104,1.14,-24.54,84.6
4.8216,-1.9613,-8.4174,-0.025351,0.0061087,0.025045,1.2,-24.6,84.6
4.8761,-1.9477,-8.3357,-0.025045,0.0048869,0.029932,1.08,-24.72,84.66
4.9033,-2.0294,-8.4446,-0.025962,-0.014966,0.026267,1.08,-24.54,84.72
4.8625,-1.9613,-8.3629,-0.022907,-0.027489,0.027489,0.72,-24.48,84.78
4.7671,-1.9613,-8.4582,-0.026267,-0.036957,0.0073304,0.72,-24.66,84.9
4.7671,-1.975,-8.4446,-0.027184,-0.025656,-0.002138,0.66,-24.48,84.9
4.7263,-1.9477,-8.322,-0.028711,-0.000611,0.0024435,0.72,-24.42,84.9
4.7399,-1.9613,-8.3493,-0.021075,0.018326,0.013439,0.6,-24.48,85.08
4.8488,-1.9205,-8.3629,-0.020159,0.018021,0.022602,0.66,-24.54,85.26
4.9306,-2.0158,-8.3765,-0.029932,-0.015272,0.027489,0.48,-24.48,85.32
4.9714,-2.0022,-8.4174,-0.03146,-0.034514,0.025962,0.42,-24.3,85.32
4.8352,-1.9886,-8.4174,-0.026573,-0.045509,0.018021,0.48,-24.3,85.26
4.7535,-1.9477,-8.3357,-0.026573,-0.041844,0.012828,0.54,-24.24,85.32
4.7535,-1.9341,-8.4174,-0.026878,-0.023518,0.013744,0.48,-24.24,85.26
4.7807,-1.9477,-8.4038,-0.032987,0.0018326,0.018631,0.54,-24.12,85.26
4.8352,-1.975,-8.3901,-0.030238,0.017104,0.017104,0.6,-24.24,85.14
4.7944,-2.0022,-8.4174,-0.032376,0.0064141,0.019853,0.84,-24.12,84.96
4.7807,-1.9341,-8.3901,-0.029627,-0.007025,0.011912,0.84,-24.18,84.9
4.8352,-1.9341,-8.4719,-0.031154,-0.0073304,0.010079,1.02,-24.24,84.9
4.7944,-1.9613,-8.4582,-0.023518,-0.0058032,0.016799,1.14,-24.3,84.78
4.7944,-1.866,-8.4038,-0.029627,-0.0045815,0.021991,1.02,-24.3,84.84
4.8216,-1.9886,-8.431,-0.033292,0.0015272,0.023213,1.14,-24.36,84.72
4.808,-2.0431,-8.3493,-0.029932,0.0048869,0.017715,1.26,-24.3,84.96
4.808,-1.9613,-8.3493,-0.036041,0.0045815,0.011912,1.32,-24.48,84.84
4.808,-1.9886,-8.4446,-0.044288,-0.000611,0.014661,1.14,-24.54,84.96
4.808,-1.9341,-8.5127,-0.042761,-0.000916,0.0082467,1.02,-24.54,85.02
4.7671,-1.975,-8.3901,-0.049786,0.015577,0.0036652,0.96,-24.66,84.96
4.8352,-1.9613,-8.3357,-0.043677,0.034819,0.0061087,0.96,-24.48,84.96
4.8488,-1.9341,-8.3901,-0.03543,0.023824,0.0058032,0.84,-24.54,85.02
4.9033,-2.0158,-8.4582,-0.035736,0.013134,0.0012217,0.9,-24.54,85.02
4.8761,-1.9886,-8.4174,-0.03879,-0.015882,0.0064141,0.84,-24.54,85.08
4.8488,-1.9886,-8.3629,-0.034514,-0.015577,0.0051924,0.78,-24.48,85.26
4.7671,-1.9341,-8.3357,-0.034514,-0.020769,0.007025,0.6,-24.48,85.08
4.7944,-1.9068,-8.4174,-0.025656,-0.0051924,0.011606,0.6,-24.3,85.02
4.8216,-1.866,-8.431,-0.028711,0.000611,0.014355,0.66,-24.3,85.08
4.8216,-1.9477,-8.4174,-0.031154,0.0045815,0.015272,0.66,-24.18,84.96
4.8761,-2.0158,-8.5263,-0.033903,-0.000916,0.018631,0.66,-24.24,85.02
4.8897,-1.9477,-8.3765,-0.032681,-0.000611,0.014661,0.78,-24.36,84.78
4.7807,-1.9613,-8.3493,-0.033598,-0.0045815,0.015272,0.84,-24.3,84.72
4.7671,-2.0158,-8.3493,-0.034819,-0.007025,0.020464,0.96,-24.3,84.66
4.8625,-1.9886,-8.4174,-0.032376,-0.0012217,0.026573,1.14,-24.42,84.36
4.8761,-2.0022,-8.4174,-0.021686,-0.016188,0.014661,1.44,-24.54,84.24
4.8216,-2.0022,-8.3765,-0.016799,-0.034514,0.02138,1.44,-24.66,84.3
4.7944,-1.975,-8.4582,-0.013744,-0.041844,0.024129,1.5,-24.66,84.36
4.7671,-1.9886,-8.4174,-0.034208,-0.043066,0.021686,1.5,-24.72,84.54
4.7399,-2.0294,-8.4174,-0.036652,-0.017104,0.013134,1.5,-24.72,84.6
4.7671,-1.8932,-8.3765,-0.031765,0.0024435,0.0054978,1.32,-24.54,84.9
4.7535,-1.9613,-8.3629,-0.032376,0.000305,0.010385,1.38,-24.54,84.9
4.8488,-1.8932,-8.4174,-0.033903,-0.0030543,0.021075,1.08,-24.6,85.08
4.808,-2.0294,-8.4855,-0.038179,-0.0039706,0.022907,0.96,-24.48,85.26
4.7399,-1.9341,-8.2948,-0.036346,-0.0085521,0.017104,0.6,-24.3,85.32
4.7126,-2.0022,-8.4719,-0.046426,-0.0024435,0.0097738,0.6,-24.18,85.38
4.7399,-1.9613,-8.5263,-0.043982,0.021075,0.007025,0.48,-23.94,85.26
4.7126,-1.975,-8.4991,-0.04948,0.03879,0.0024435,0.54,-23.94,85.26
4.7535,-1.9613,-8.4719,-0.047647,0.048869,-0.0079412,0.42,-23.94,85.26
4.808,-1.9613,-8.4174,-0.058643,0.055589,-0.015272,0.6,-23.94,85.2
4.7399,-1.9205,-8.322,-0.06017,0.050702,-0.015882,0.36,-24.18,85.2
4.7671,-1.9613,-8.4038,-0.054062,0.052229,-0.0033598,0.48,-24.36,85.2
4.8216,-1.9341,-8.3765,-0.043677,0.04948,0.000916,0.36,-24.3,85.14
4.8625,-1.9613,-8.4038,-0.03207,0.040012,0.012217,0.54,-24.48,84.96
4.9169,-2.0022,-8.322,-0.038485,0.036346,0.024435,0.84,-24.66,85.14
4.9033,-2.0158,-8.3765,-0.044899,0.015577,0.021991,0.96,-24.96,85.2
4.8488,-1.9477,-8.3493,-0.039095,0.000916,0.014661,0.84,-24.78,85.32
4.8352,-1.866,-8.4446,-0.038485,0.0024435,0.0082467,0.96,-24.78,85.14
4.808,-1.8796,-8.3629,-0.035125,0.0064141,0.019242,0.96,-24.6,85.02
4.8625,-1.8932,-8.4038,-0.035736,0.0018326,0.013439,1.2,-24.66,85.08
4.8897,-1.8932,-8.3493,-0.037874,0.000611,0.0085521,1.14,-24.66,85.02
4.8216,-1.8796,-8.4174,-0.035736,0.0033598,0.0067195,1.32,-24.66,84.84
4.8625,-1.975,-8.322,-0.029322,0.000611,0.018021,1.2,-24.6,84.9
4.8761,-1.8932,-8.322,-0.025656,-0.0054978,0.016493,1.14,-24.66,85.02
4.9169,-1.8932,-8.4038,-0.026267,-0.011912,0.015882,0.9,-24.66,84.78
4.9033,-1.9341,-8.3357,-0.019853,-0.02474,0.018021,0.78,-24.78,84.78
4.8352,-1.975,-8.4174,-0.020464,-0.040317,0.024129,0.66,-24.96,84.78
4.8352,-1.9341,-8.4038,-0.021075,-0.04948,0.020464,0.84,-25.08,84.84
4.8352,-2.0022,-8.431,-0.018326,-0.044899,0.020769,0.78,-24.9,84.78
4.7535,-1.9341,-8.2812,-0.023518,-0.033292,0.022602,0.96,-24.84,84.96
4.7399,-1.866,-8.4174,-0.020464,-0.020464,0.028711,0.9,-24.78,85.08
4.7807,-1.9613,-8.4446,-0.029322,-0.0094684,0.038179,0.96,-24.72,85.2
4.8352,-1.9205,-8.3765,-0.022907,-0.011606,0.023518,0.9,-24.72,84.9
4.808,-1.9886,-8.4038,-0.025351,-0.011912,0.019853,1.08,-24.84,84.96
4.808,-2.0567,-8.3493,-0.030543,-0.016493,0.020769,1.08,-24.48,85.02
4.8216,-1.9886,-8.3629,-0.035736,-0.013439,0.019242,1.26,-24.3,85.02
4.7944,-1.9068,-8.3765,-0.030543,-0.0082467,0.016493,1.2,-24.06,84.84
4.808,-1.975,-8.3765,-0.033292,0.0058032,0.016799,1.08,-24.12,84.84
4.8488,-1.9341,-8.4174,-0.029322,-0.009163,0.011912,1.08,-24.24,84.66
4.8216,-1.9205,-8.3629,-0.032681,-0.017715,0.013134,1.08,-24.24,84.72
4.7671,-1.9477,-8.4174,-0.03207,-0.018021,0.0051924,1.08,-24.24,84.54
4.7126,-1.9477,-8.3493,-0.033598,-0.0067195,0.0039706,1.08,-24.18,84.54
4.6854,-1.9341,-8.4174,-0.035125,0.0094684,0.011301,1.08,-24.06,84.66
4.8625,-1.9341,-8.4446,-0.029627,0.027794,0.018326,0.9,-24.0,84.66
4.9033,-1.8932,-8.3493,-0.041233,0.015577,0.020464,0.84,-24.06,84.66
4.8488,-1.9068,-8.3629,-0.030238,-0.0045815,0.019548,0.72,-24.18,84.78
4.8216,-1.9613,-8.3765,-0.025351,-0.018631,0.021686,0.6,-24.18,84.9
4.7535,-1.9477,-8.3629,-0.01741,-0.017715,0.013744,0.54,-24.24,84.78
4.7671,-2.0294,-8.4991,-0.023213,-0.0097738,0.013134,0.42,-24.24,84.84
4.7807,-1.9886,-8.3629,-0.033598,-0.0012217,0.020159,0.36,-24.36,84.9
4.7944,-1.9886,-8.3765,-0.029627,-0.018021,0.024435,0.3,-24.3,84.9
4.8625,-1.9341,-8.3629,-0.033903,-0.025351,0.028405,0.18,-24.3,84.96
4.7944,-1.9205,-8.3901,-0.013439,-0.047647,0.029932,0.42,-24.54,85.26
4.7399,-1.9886,-8.3629,-0.014661,-0.051924,0.020464,0.6,-24.54,85.02
4.8352,-1.9613,-8.3765,-0.020464,-0.045815,0.033292,0.72,-24.66,84.96
4.7671,-1.9613,-8.3765,-0.029932,-0.042761,0.030849,0.66,-24.54,85.02
4.7807,-1.9886,-8.322,-0.014355,-0.036957,0.021686,0.72,-24.66,85.2
4.7399,-1.9886,-8.4719,-0.020769,-0.024435,0.032681,0.9,-24.66,85.2
4.8625,-2.0022,-8.4719,-0.029627,-0.018937,0.022297,0.9,-24.48,85.14
4.7944,-2.0294,-8.5263,-0.03879,-0.031154,0.012217,0.96,-24.54,85.02
4.6037,-1.9886,-8.54,-0.040317,-0.013744,0.0042761,1.08,-24.48,85.02
4.6037,-1.9205,-8.4582,-0.045509,0.015882,-0.0073304,1.14,-24.48,85.14
4.6854,-1.9613,-8.4174,-0.040928,0.065668,-0.0067195,1.26,-24.54,85.14
4.8488,-1.9341,-8.3357,-0.033598,0.055283,0.013439,1.2,-24.54,84.72
4.8761,-1.9205,-8.2812,-0.026878,0.021991,0.018631,1.14,-24.48,84.66
4.9306,-2.0703,-8.4719,-0.033292,-0.0015272,0.014661,1.14,-24.42,84.78
4.8216,-2.0839,-8.4446,-0.047647,-0.020464,0.016799,1.2,-24.6,84.72
4.7263,-1.9341,-8.4446,-0.050702,-0.016493,0.012217,1.26,-24.72,84.6
4.699,-1.9477,-8.4038,-0.053756,-0.0033598,0.0088575,1.32,-24.72,84.42
4.6718,-1.8796,-8.3357,-0.04215,0.025351,0.018937,1.26,-24.84,84.48
4.808,-1.9341,-8.431,-0.029322,0.033292,0.024129,1.2,-24.78,84.54
4.8897,-1.9613,-8.4038,-0.036652,0.019853,0.024129,1.08,-24.66,84.66
4.8625,-1.8796,-8.4446,-0.040012,-0.007025,0.012217,1.08,-24.66,84.66
4.7399,-1.9205,-8.4174,-0.037568,-0.0094684,0.0073304,1.2,-24.72,84.66
4.7399,-2.0294,-8.4038,-0.051618,0.019548,0.016188,1.08,-24.6,84.66
4.8216,-1.9886,-8.4038,-0.048869,0.046731,0.0094684,1.02,-24.72,84.78
4.808,-1.9886,-8.3084,-0.048564,0.062614,0.0018326,1.14,-24.66,84.72
4.7944,-1.9477,-8.3493,-0.053145,0.047342,0.0045815,0.9,-24.54,84.78
4.8897,-1.9068,-8.3901,-0.041539,0.027794,0.000916,0.78,-24.3,84.78
4.8352,-1.9886,-8.3765,-0.051007,0.0030543,0.0042761,0.6,-24.42,84.66
4.8352,-1.9613,-8.4719,-0.043066,0.0030543,-0.0027489,0.54,-24.42,84.78
4.7807,-1.8932,-8.3629,-0.047342,0.019242,0.000305,0.48,-24.42,84.9
4.7944,-1.8932,-8.3765,-0.039706,0.024435,0.018021,0.54,-24.54,84.78
4.8488,-1.9613,-8.3084,-0.038179,0.021991,0.023824,0.42,-24.54,84.78
4.8352,-1.9477,-8.3765,-0.034208,-0.0036652,0.021991,0.36,-24.54,85.02
4.8352,-1.9477,-8.3765,-0.034208,-0.0027489,0.018326,0.36,-24.54,85.02
4.8216,-1.9341,-8.4174,-0.030543,-0.0061087,0.014355,0.36,-24.6,85.02
4.7807,-1.9886,-8.3493,-0.040317,0.0082467,0.013744,0.36,-24.6,84.96
4.8216,-1.9341,-8.3084,-0.043066,0.010385,0.014966,0.24,-24.6,85.02
4.8488,-1.9068,-8.3765,-0.032376,0.0073304,0.010385,0.3,-24.84,84.84
4.8488,-1.8932,-8.322,-0.03207,-0.0045815,0.021991,0.42,-24.84,84.9
4.8625,-1.9341,-8.3493,-0.022297,-0.019242,0.020464,0.6,-24.72,85.02
4.8625,-1.9068,-8.4174,-0.024435,-0.020159,0.014966,0.66,-24.72,85.02
4.7671,-1.9886,-8.322,-0.025656,-0.014661,0.01405,0.84,-24.72,84.96
4.8352,-1.9341,-8.3629,-0.026267,0.0064141,0.018021,0.84,-24.78,85.08
4.8488,-1.975,-8.322,-0.032681,0.0088575,0.02138,0.84,-24.78,84.9
4.8352,-1.9341,-8.3765,-0.031765,-0.0058032,0.0088575,0.96,-24.78,84.72
4.8352,-1.8932,-8.3765,-0.029016,-0.020464,0.011606,1.02,-24.84,84.72
4.8761,-1.9205,-8.3901,-0.029016,-0.018937,0.010996,1.02,-24.78,84.72
4.7944,-1.9613,-8.3765,-0.030543,-0.01069,0.014661,1.14,-24.72,84.72
4.7671,-1.9613,-8.4446,-0.025351,0.0015272,0.0094684,1.2,-24.66,84.78
4.8488,-1.9613,-8.4174,-0.037874,0.0045815,0.0097738,1.26,-24.66,84.9
4.8352,-1.9068,-8.322,-0.036652,0.0054978,0.014966,1.26,-24.78,84.9
4.8216,-1.9886,-8.3765,-0.039706,-0.0042761,0.023518,1.2,-24.78,84.84
4.8625,-1.975,-8.3629,-0.036957,-0.0015272,0.026878,1.02,-24.84,84.9
4.8216,-1.8932,-8.4174,-0.040623,-0.0030543,0.011606,0.96,-24.78,85.08
4.8352,-1.9341,-8.4446,-0.040012,0.000305,0.010385,0.9,-24.72,85.08
4.7807,-1.9068,-8.3493,-0.035125,0.0045815,0.0064141,1.02,-24.72,85.14
4.8488,-1.8932,-8.3765,-0.031154,0.01405,0.0085521,0.96,-24.72,85.14
4.8625,-1.9068,-8.4174,-0.02138,-0.0036652,0.016799,0.72,-24.54,85.14
4.8625,-1.975,-8.3765,-0.028405,-0.018631,0.021991,0.72,-24.6,85.26
4.8352,-2.0022,-8.3493,-0.031154,-0.025045,0.024435,0.66,-24.6,85.26
4.7671,-1.9613,-8.4174,-0.038179,-0.016799,0.01069,0.54,-24.6,85.26
4.7671,-1.9477,-8.3765,-0.031765,0.0061087,0.007025,0.48,-24.6,85.32
4.8488,-1.8932,-8.3493,-0.026573,0.01741,0.021075,0.48,-24.36,85.32
4.8625,-1.8932,-8.3629,-0.029627,-0.0054978,0.017104,0.3,-24.42,85.14
4.8488,-1.9205,-8.3765,-0.023213,-0.019548,0.013134,0.36,-24.3,85.02
4.8352,-1.975,-8.3765,-0.024435,-0.025351,0.016799,0.3,-24.36,85.02
4.7944,-1.9886,-8.4174,-0.019242,-0.042455,0.017104,0.36,-24.42,84.96
4.7671,-1.9613,-8.4446,-0.024129,-0.051007,0.020464,0.12,-24.54,85.02
4.7535,-1.8796,-8.4038,-0.023213,-0.039095,0.018631,0.24,-24.42,84.9
4.6718,-1.9068,-8.431,-0.029932,-0.031765,0.018937,0.24,-24.48,84.9
4.7535,-1.8932,-8.2812,-0.023213,-0.014355,0.019853,0.48,-24.6,84.78
4.7807,-1.9205,-8.3901,-0.018021,-0.014355,0.027489,0.6,-24.48,84.78
4.9033,-1.9886,-8.4855,-0.022907,-0.023824,0.030543,0.78,-24.36,84.78
4.7671,-1.9886,-8.3493,-0.015577,-0.039706,0.023213,0.84,-24.42,84.84
4.7399,-1.975,-8.4174,-0.022907,-0.037263,0.025045,0.96,-24.66,84.84
4.699,-1.8932,-8.4174,-0.029627,-0.022602,0.03146,1.08,-24.6,84.9
4.7399,-1.9886,-8.4038,-0.028711,-0.018631,0.029016,1.2,-24.72,84.9
4.7399,-2.0022,-8.4446,-0.025962,-0.013134,0.015577,1.2,-24.66,84.9
4.699,-1.9341,-8.4174,-0.025045,-0.015882,0.0085521,1.14,-24.6,84.84
4.7671,-1.9341,-8.4174,-0.027489,-0.028405,0.018326,1.32,-24.54,84.78
4.8352,-1.8115,-8.4446,-0.02474,-0.046731,0.021686,1.2,-24.66,84.9
4.8897,-1.8524,-8.3765,-0.024129,-0.059559,0.022297,1.26,-24.54,84.96
4.7126,-1.975,-8.3493,-0.020769,-0.043066,0.036041,1.08,-24.48,84.9
4.6718,-2.0431,-8.3765,-0.016493,-0.018631,0.040623,1.08,-24.66,84.9
4.808,-2.0567,-8.4719,-0.013439,-0.018326,0.029932,0.96,-24.72,84.9
4.7671,-2.0431,-8.5263,-0.037263,-0.032987,0.016493,1.14,-24.72,85.02
4.699,-2.0567,-8.4582,-0.055283,-0.018631,0.009163,0.96,-24.72,85.02
4.5764,-1.9613,-8.4719,-0.069944,0.0061087,-0.000305,0.96,-24.72,85.08
4.5356,-1.9477,-8.4855,-0.06017,0.054672,-0.016799,1.08,-24.48,85.08
4.6309,-1.9205,-8.4446,-0.061697,0.091935,-0.016799,1.08,-24.48,85.14
4.6445,-1.9613,-8.4719,-0.056505,0.10751,-0.018021,1.2,-24.42,85.08
4.6718,-1.9068,-8.3765,-0.067195,0.13134,-0.0085521,1.08,-24.54,85.08
4.8352,-1.8932,-8.3765,-0.058948,0.10996,0.0027489,1.26,-24.48,85.02
4.8352,-2.0294,-8.322,-0.058948,0.087659,0.0082467,1.08,-24.42,84.96
4.9169,-1.9886,-8.4174,-0.052229,0.047953,0.0015272,1.2,-24.48,84.9
4.9169,-1.9886,-8.431,-0.052229,0.041233,-0.01405,1.26,-24.54,84.84
4.8352,-1.9205,-8.4038,-0.055589,0.034208,-0.014661,1.08,-24.6,84.72
4.7944,-1.9068,-8.431,-0.060476,0.03207,-0.025351,1.02,-24.54,84.72
4.7126,-1.866,-8.3493,-0.047037,0.041233,-0.018326,0.9,-24.48,84.66
4.8352,-1.8387,-8.2948,-0.045509,0.044899,0.0030543,0.84,-24.48,84.72
4.8761,-1.7979,-8.3765,-0.031154,0.023824,0.010385,0.66,-24.54,84.72
4.9306,-1.9886,-8.4446,-0.021991,0.0076358,0.0024435,0.78,-24.66,84.72
4.8216,-1.9068,-8.4855,-0.033598,-0.011606,0.0061087,0.72,-24.84,84.66
4.7671,-1.975,-8.4446,-0.042761,-0.0012217,0.0097738,0.6,-24.66,84.66
4.7263,-1.9068,-8.3901,-0.053756,0.035736,0.011301,0.54,-24.72,84.72
4.7671,-1.8387,-8.3493,-0.054062,0.075442,0.0012217,0.54,-25.02,84.6
4.8897,-1.9068,-8.3493,-0.040012,0.061087,0.000305,0.48,-25.08,84.78
4.8761,-1.866,-8.322,-0.035125,0.069028,-0.0094684,0.42,-25.08,84.72
4.9033,-1.8387,-8.2676,-0.040012,0.062614,-0.0082467,0.42,-25.02,84.72
4.9578,-1.8932,-8.2812,-0.02138,0.03207,0.0051924,0.36,-25.02,84.78
4.985,-1.8115,-8.3357,-0.023213,0.010079,0.013134,0.24,-25.02,84.66
4.985,-1.8796,-8.4174,-0.016799,-0.014661,0.025656,0.36,-24.96,84.66
4.9578,-1.9068,-8.3493,-0.017715,-0.048869,0.036957,0.36,-24.9,84.6
4.8761,-1.9205,-8.3765,-0.018326,-0.059865,0.036652,0.24,-24.96,84.6
4.9169,-1.9341,-8.3901,-0.023824,-0.058643,0.039095,0.42,-24.9,84.54
4.8897,-1.8524,-8.3765,-0.015272,-0.050091,0.042761,0.48,-24.72,84.6
4.8625,-1.8932,-8.3084,-0.016188,-0.063835,0.043371,0.54,-24.66,84.54
4.9306,-1.8796,-8.3357,-0.0085521,-0.072693,0.036652,0.6,-24.54,84.54
4.8216,-1.9477,-8.3629,-0.007025,-0.096822,0.0281,0.3,-24.24,84.42
4.8625,-1.9613,-8.3901,-0.0024435,-0.10049,0.029322,0.3,-24.24,84.42
4.7399,-1.9341,-8.4446,-0.015577,-0.076969,0.022297,0.3,-24.24,84.42
4.6445,-1.9886,-8.4038,-0.031765,-0.036957,0.020159,0.3,-24.12,84.42
4.6718,-1.9341,-8.4446,-0.028711,0.0097738,0.016188,0.42,-24.24,84.54
4.7263,-1.9613,-8.4038,-0.03146,0.045509,0.022297,0.42,-24.12,84.36
4.8761,-1.9886,-8.4719,-0.03879,0.045815,0.015882,0.36,-24.36,84.36
4.9306,-1.8932,-8.4446,-0.035736,0.036652,0.0061087,0.42,-24.42,84.3
4.8761,-1.9886,-8.4446,-0.046731,0.020464,-0.0042761,0.3,-24.48,84.36
4.7671,-1.9068,-8.4038,-0.047647,0.013439,-0.0073304,0.42,-24.6,84.3
4.7399,-1.9341,-8.3493,-0.052229,0.026573,-0.013439,0.42,-24.72,84.3
4.7671,-1.8251,-8.4038,-0.04612,0.040012,-0.000305,0.3,-24.72,84.3
4.8625,-1.9068,-8.2539,-0.040623,0.055589,0.0039706,0.6,-24.72,84.24
4.9169,-1.8524,-8.4174,-0.04215,0.049175,0.012828,0.6,-24.78,84.3
4.9714,-1.9613,-8.3765,-0.033292,0.0082467,0.018021,0.72,-24.72,84.36
4.9033,-1.9613,-8.4174,-0.043066,-0.013744,0.023824,0.84,-24.84,84.36
4.9033,-1.8932,-8.3629,-0.036652,-0.013439,0.01405,0.84,-24.84,84.24
4.7944,-1.9205,-8.322,-0.031154,-0.012523,0.0073304,0.72,-25.02,84.42
4.7399,-1.8251,-8.3901,-0.026878,-0.007025,0.016493,0.66,-25.2,84.42
4.8488,-1.8932,-8.3901,-0.033903,-0.0061087,0.020159,0.78,-25.08,84.48
4.808,-1.9613,-8.431,-0.030238,-0.007025,0.024435,0.66,-25.02,84.48
4.8625,-1.8932,-8.3493,-0.040317,-0.011301,0.010385,0.66,-25.02,84.6
4.8761,-1.8932,-8.3629,-0.028405,-0.0015272,0.0036652,0.72,-24.9,84.72
4.7535,-1.9068,-8.4038,-0.031154,0.0088575,0.0097738,0.78,-24.78,84.84
4.7944,-1.9613,-8.4582,-0.03879,0.024435,0.007025,0.84,-24.9,84.84
4.9033,-1.9613,-8.3493,-0.037568,0.034819,0.018631,0.72,-24.78,84.9
4.9714,-1.9341,-8.3629,-0.042455,0.025351,0.012217,0.66,-24.84,85.02
4.8761,-1.9477,-8.3901,-0.030849,0.0030543,0.0088575,0.48,-24.78,84.96
4.9033,-1.8796,-8.3901,-0.033903,-0.007025,0.0054978,0.6,-24.78,84.96
4.9033,-1.8796,-8.3901,-0.033903,-0.007025,0.0054978,0.6,-24.78,84.96
4.8216,-1.9341,-8.3901,-0.043982,0.044288,0.011606,0.9,-24.54,84.96
4.8352,-1.8932,-8.3765,-0.049175,0.052229,0.0079412,0.84,-24.6,85.02
4.8897,-1.8932,-8.3493,-0.048564,0.055894,0.0048869,0.72,-24.72,85.08
4.9033,-1.866,-8.3765,-0.042761,0.042455,0.010385,0.66,-24.6,84.96
4.9714,-1.8796,-8.322,-0.021075,0.012828,0.017715,0.42,-24.84,84.9
4.9306,-1.8932,-8.3765,-0.027489,-0.002138,0.026573,0.54,-24.9,84.66
4.9033,-1.866,-8.4174,-0.027184,-0.014661,0.026573,0.54,-24.78,84.66
4.8761,-1.9205,-8.4174,-0.022907,-0.018631,0.025656,0.48,-24.84,84.66
4.8216,-1.8387,-8.3765,-0.03207,-0.0048869,0.028405,0.48,-24.96,84.54
4.8761,-1.9205,-8.4174,-0.032376,-0.000305,0.021075,0.42,-24.96,84.78
4.9578,-1.9068,-8.2812,-0.025962,0.0012217,0.026573,0.36,-24.9,84.84
4.9306,-1.8932,-8.4038,-0.01741,-0.0088575,0.027184,0.3,-24.84,84.96
4.9578,-1.8387,-8.2812,-0.0045815,-0.045815,0.037874,0.18,-24.78,84.72
4.9578,-1.8932,-8.2676,0.0079412,-0.10201,0.052229,0.24,-24.66,84.66
4.9578,-1.9341,-8.4174,0.0048869,-0.11606,0.053451,0.36,-24.54,84.42
4.8352,-1.9613,-8.4855,-0.000611,-0.12553,0.067806,0.42,-24.6,84.54
4.7671,-1.9613,-8.4174,-0.0030543,-0.11484,0.043677,0.54,-24.54,84.66
4.6718,-2.0158,-8.4582,-0.029627,-0.075747,0.036346,0.54,-24.54,84.72
4.5764,-1.9477,-8.4446,-0.031765,-0.028711,0.023824,0.66,-24.66,84.66
4.6037,-1.9068,-8.4446,-0.038179,0.030238,0.0051924,0.72,-24.72,84.66
4.6718,-1.9613,-8.431,-0.036957,0.068417,0.0018326,0.72,-24.6,84.42
4.8352,-1.9886,-8.4174,-0.045815,0.076969,0.0030543,0.66,-24.54,84.3
4.9033,-1.9613,-8.4174,-0.056505,0.071777,-0.002138,0.72,-24.54,84.3
4.8625,-2.0022,-8.431,-0.048564,0.039095,0.011606,0.72,-24.42,84.12
4.8352,-1.9613,-8.3629,-0.046426,0.014661,0.015272,0.9,-24.54,84.3
4.8352,-1.9341,-8.3765,-0.037568,0.0064141,0.013134,0.84,-24.6,84.36
4.7671,-1.9477,-8.431,-0.03543,0.0033598,0.015272,0.78,-24.66,84.54
4.8352,-2.0022,-8.4174,-0.035736,0.017104,0.013439,0.78,-24.66,84.54
4.8352,-1.9477,-8.4446,-0.044288,0.031154,0.0036652,0.66,-24.66,84.54
4.8625,-1.8932,-8.431,-0.051618,0.035125,-0.000611,0.6,-24.78,84.42
4.8488,-1.9341,-8.4174,-0.051007,0.036652,0.0082467,0.42,-24.6,84.36
4.8488,-1.9068,-8.3629,-0.044899,0.039401,0.016799,0.42,-24.6,84.42
4.9033,-1.9341,-8.3765,-0.042455,0.027794,0.01405,0.42,-24.66,84.48
4.8897,-1.9613,-8.4038,-0.036652,0.026267,0.010996,0.54,-24.78,84.48
4.9169,-1.9341,-8.431,-0.040012,0.025962,0.014966,0.42,-24.66,84.48
4.9033,-1.8251,-8.322,-0.039095,0.01405,0.010996,0.3,-24.72,84.54
4.9033,-1.9477,-8.322,-0.034208,0.0018326,0.021075,0.24,-24.66,84.48
4.9033,-1.9341,-8.3629,-0.022297,-0.0076358,0.014355,0.3,-24.78,84.54
4.7944,-1.9886,-8.3629,-0.039095,-0.0058032,0.0048869,0.42,-24.9,84.36
4.8488,-1.9205,-8.3357,-0.037874,-0.0088575,0.0054978,0.3,-24.9,84.48
4.8352,-1.9205,-8.322,-0.029627,0.007025,0.011606,0.24,-24.9,84.42
4.808,-1.9068,-8.4038,-0.038179,0.010079,0.015577,0.24,-24.84,84.54
4.9033,-1.9341,-8.3493,-0.027794,-0.0054978,0.029627,0.24,-24.96,84.66
4.8761,-1.9341,-8.3765,-0.028405,-0.016188,0.032376,0.18,-24.78,84.66
4.8625,-1.9205,-8.3765,-0.011912,-0.043371,0.029932,0.18,-24.9,84.6
4.8897,-1.9477,-8.4038,-0.021686,-0.047037,0.022297,0.06,-24.78,84.6
4.7399,-2.0158,-8.6353,-0.036346,-0.040928,0.018021,0.12,-24.84,84.66
4.7535,-1.9068,-8.4446,-0.049786,0.0015272,0.01069,0.12,-24.9,84.54
4.7944,-1.9341,-8.3357,-0.035736,0.026267,0.011912,0.06,-24.96,84.42
4.8625,-1.866,-8.3493,-0.027489,0.026573,0.025962,0.06,-24.9,84.48
4.9442,-1.9068,-8.3493,-0.021686,-0.011606,0.018631,-0.24,-24.78,84.36
4.9306,-1.9886,-8.4446,-0.027184,-0.022602,0.015272,-0.24,-24.78,84.36
4.8488,-1.9613,-8.4174,-0.034819,-0.036957,0.0058032,-0.24,-24.72,84.42
4.6854,-1.8932,-8.3765,-0.031154,-0.0024435,0.000305,-0.24,-24.72,84.42
4.808,-1.9205,-8.3765,-0.033292,0.023213,0.014355,-0.24,-24.66,84.36
4.8625,-1.8932,-8.322,-0.035125,0.024129,0.016188,-0.24,-24.78,84.48
4.9442,-1.975,-8.431,-0.033598,0.01069,0.01741,0.24,-24.72,84.42
4.8897,-1.9068,-8.4719,-0.040928,-0.0097738,0.015577,0.3,-24.6,84.54
4.8352,-1.9613,-8.3765,-0.034514,-0.012217,0.0027489,0.24,-24.66,84.6
4.7399,-1.9477,-8.3901,-0.048564,0.0088575,-0.000305,0.18,-24.48,84.84
4.7399,-1.9205,-8.431,-0.046731,0.045204,0.0051924,0.18,-24.42,84.96
4.8352,-1.9341,-8.4174,-0.041539,0.054367,0.010996,0.18,-24.3,85.02
4.9033,-1.8796,-8.3901,-0.03879,0.059559,0.010385,0.18,-24.18,85.14
4.9578,-1.9477,-8.4174,-0.044899,0.030238,0.012217,0.06,-24.3,85.02
4.9306,-1.8796,-8.4038,-0.04612,0.0094684,0.011912,0.18,-24.42,85.02
4.8352,-1.9341,-8.2812,-0.029627,-0.015882,0.016493,0.36,-24.48,85.2
4.8488,-1.9477,-8.3629,-0.026878,-0.019242,0.015577,0.3,-24.48,85.02
4.8761,-1.9068,-8.3765,-0.034819,-0.013439,0.012523,0.24,-24.48,85.02
4.8216,-1.8387,-8.2948,-0.03879,0.0024435,0.020464,0.06,-24.42,84.96
4.7807,-1.8932,-8.3765,-0.034208,0.012523,0.016799,0.06,-24.54,85.08
4.9033,-1.8387,-8.431,-0.04215,0.0082467,0.022602,0.18,-24.54,84.9
4.9306,-1.9341,-8.3765,-0.03146,0.0048869,0.015882,0.18,-24.78,84.72
4.8625,-1.8932,-8.322,-0.030849,-0.0024435,0.0082467,0.3,-24.84,84.72
4.8216,-1.8932,-8.3493,-0.041233,-0.0067195,0.021075,0.3,-24.84,84.6
4.9169,-1.9205,-8.3629,-0.03543,0.002138,0.020159,0.48,-24.84,84.84
4.8625,-1.9068,-8.3084,-0.036346,0.000611,0.020159,0.6,-24.78,84.9
4.8625,-1.9068,-8.3357,-0.029322,0.0036652,0.019242,0.6,-24.6,84.84
4.8761,-1.866,-8.322,-0.029627,0.0030543,0.021686,0.54,-24.48,84.72
4.9987,-1.8932,-8.4174,-0.018631,-0.018631,0.026878,0.42,-24.3,84.84
4.9306,-1.9068,-8.4174,-0.026267,-0.030238,0.019242,0.42,-24.24,84.66
4.8625,-1.9613,-8.3901,-0.033903,-0.020464,0.012523,0.48,-24.24,84.66
4.7399,-1.9205,-8.4446,-0.040623,-0.0042761,0.011606,0.36,-24.12,84.54
4.8625,-1.8932,-8.4855,-0.030238,0.016799,0.015272,0.48,-24.06,84.66
4.9033,-1.8932,-8.3765,-0.038485,0.016188,0.018631,0.54,-23.88,84.54
4.9578,-1.9477,-8.3765,-0.026878,-0.0097738,0.013134,0.54,-23.94,84.66
4.8352,-1.9613,-8.3765,-0.033292,-0.022297,0.016799,0.54,-24.12,84.54
4.7807,-1.9477,-8.4582,-0.036652,-0.010996,0.016493,0.36,-24.0,84.54
4.8488,-1.9341,-8.3765,-0.032376,0.0036652,0.011912,0.18,-23.94,84.48
4.9033,-1.9205,-8.3901,-0.034819,0.016188,0.023824,0.24,-24.0,84.42
4.9306,-1.9205,-8.3493,-0.036652,0.010385,0.018631,0.24,-23.94,84.48
4.9306,-1.9613,-8.4174,-0.035736,-0.0039706,0.011606,0.42,-24.18,84.48
4.7944,-1.8932,-8.4174,-0.046731,0.0061087,0.0079412,0.42,-24.24,84.54
4.8216,-1.9341,-8.4038,-0.039706,0.028405,0.0027489,0.42,-24.36,84.48
4.9033,-1.8932,-8.3765,-0.04215,0.047037,0.01405,0.48,-24.42,84.48
4.9033,-1.9341,-8.431,-0.044899,0.053451,0.01741,0.42,-24.42,84.54
4.9169,-1.8796,-8.4038,-0.047037,0.041233,0.0045815,0.36,-24.6,84.66
4.9306,-1.9341,-8.2676,-0.034208,0.025962,0.0094684,0.6,-24.6,84.66
4.9578,-1.9341,-8.3493,-0.050091,0.0030543,0.0082467,0.6,-24.42,84.48
4.9033,-1.8932,-8.3629,-0.049175,-0.013134,0.0024435,0.66,-24.54,84.42
4.8488,-1.8932,-8.3901,-0.050091,0.0067195,-0.0015272,0.78,-24.6,84.36
4.8352,-1.9341,-8.3493,-0.052534,0.014661,-0.000916,0.6,-24.54,84.36
4.8897,-1.866,-8.3357,-0.048258,0.032376,0.012523,0.54,-24.72,84.36
4.9169,-1.8115,-8.3493,-0.031154,0.017104,0.023518,0.42,-24.6,84.48
4.9987,-1.7979,-8.3084,-0.030238,-0.021686,0.033903,0.48,-24.66,84.42
5.0259,-1.866,-8.3357,-0.0073304,-0.061087,0.032681,0.42,-24.66,84.54
4.8352,-1.8932,-8.4446,-0.019242,-0.081856,0.029627,0.42,-24.66,84.6
4.7944,-1.9341,-8.4582,-0.023518,-0.054672,0.019242,0.3,-24.72,84.6
4.7671,-1.975,-8.4446,-0.048258,-0.0085521,0.0054978,0.3,-24.72,84.6
4.8216,-1.975,-8.4855,-0.057116,0.046731,0.0054978,0.12,-24.6,84.6
4.8352,-1.8932,-8.3765,-0.05681,0.073304,0.0036652,0.12,-24.66,84.6
4.985,-1.8932,-8.4174,-0.055894,0.081551,0.0027489,-0.18,-24.72,84.84
4.9987,-1.8932,-8.2812,-0.051007,0.051313,0.000305,-0.3,-24.72,84.84
5.0259,-1.8796,-8.2131,-0.045509,0.02138,0.000305,-0.36,-24.72,84.9
4.8897,-1.7843,-8.322,-0.036652,-0.014966,-0.000611,-0.36,-24.72,84.96
4.9033,-1.866,-8.3357,-0.0281,-0.03207,0.0024435,-0.36,-24.72,84.9
4.808,-1.866,-8.4446,-0.027489,-0.01069,0.0039706,-0.18,-24.66,84.72
4.8625,-1.866,-8.3765,-0.039706,0.018937,0.014355,-0.12,-24.72,84.72
4.8761,-1.8251,-8.3765,-0.044593,0.027184,0.013439,-0.06,-24.72,84.78
4.9442,-1.8524,-8.3493,-0.041539,0.021686,0.010996,-0.06,-24.72,84.72
4.9306,-1.8796,-8.2948,-0.035736,-0.0024435,0.0036652,-0.06,-24.66,84.84
4.9306,-1.8932,-8.2812,-0.042455,-0.013134,-0.0018326,0.06,-24.72,84.9
4.8897,-1.8387,-8.3493,-0.033292,-0.0048869,-0.0042761,0.3,-24.54,84.9
4.808,-1.866,-8.1177,-0.034514,0.0082467,0.01069,0.24,-24.6,84.9
4.9033,-1.8796,-8.3493,-0.037263,0.025351,0.018937,0.3,-24.78,84.78
4.9578,-1.8796,-8.3084,-0.034819,0.014661,0.012217,0.24,-24.9,84.84
5.0531,-1.8932,-8.3493,-0.027794,0.007025,0.0079412,0.3,-24.84,84.72
4.9578,-1.866,-8.3357,-0.037263,-0.015272,0.013744,0.24,-24.72,84.72
4.9306,-1.866,-8.3765,-0.028711,-0.027184,0.020464,0.12,-24.96,84.9
4.9033,-1.8387,-8.322,-0.028711,-0.024435,0.026573,0.06,-24.84,84.96
4.9306,-1.866,-8.2948,-0.027794,-0.024435,0.018631,0.06,-24.96,84.9
4.8625,-1.8932,-8.3901,-0.029016,-0.01405,0.021686,-0.06,-24.84,84.9
4.8488,-1.8932,-8.322,-0.038179,-0.0094684,0.019853,-0.18,-24.84,84.84
4.8352,-1.8932,-8.2812,-0.027489,-0.0042761,0.023518,-0.18,-24.78,84.9
4.8216,-1.8524,-8.3357,-0.029932,0.025045,0.026878,-0.36,-24.9,84.78
4.9306,-1.9341,-8.3629,-0.03543,0.040317,0.027794,-0.42,-24.78,84.66
4.9442,-1.8932,-8.3765,-0.036041,0.037263,0.020464,-0.18,-24.66,84.66
4.9306,-1.9205,-8.1177,-0.035125,0.022297,0.026878,-0.12,-24.66,84.6
4.985,-1.8796,-8.3629,-0.037263,0.010385,0.032987,-0.06,-24.72,84.78
4.9987,-1.9341,-8.3765,-0.029627,-0.022297,0.020159,-0.06,-24.96,84.78
4.8897,-1.8932,-8.3493,-0.023824,-0.037874,0.022297,0.06,-24.6,84.78
4.8488,-1.8524,-8.3901,-0.021686,-0.029932,0.013134,-0.06,-24.72,84.72
4.7944,-1.9068,-8.2812,-0.027184,-0.0079412,0.019853,-0.12,-24.66,84.72
4.9306,-1.866,-8.3493,-0.025656,0.0061087,0.037568,-0.06,-24.6,84.72
4.9987,-1.8932,-8.3357,-0.01741,-0.0048869,0.038485,0.18,-24.6,84.66
5.0123,-1.8932,-8.3357,-0.020464,-0.026573,0.036041,0.06,-24.54,84.6
4.9033,-1.8932,-8.3765,-0.03207,-0.040928,0.023824,0.12,-24.3,84.6
4.8352,-1.9068,-8.4038,-0.03207,-0.025045,0.027489,0.18,-24.3,84.66
4.7944,-1.9068,-8.3765,-0.036346,-0.0094684,0.028711,0.12,-24.36,84.6
4.8352,-1.9205,-8.3493,-0.028711,0.015272,0.024129,0.18,-24.36,84.6
4.8897,-1.8796,-8.3765,-0.033292,0.015272,0.030238,0.3,-24.36,84.54
4.8761,-1.9068,-8.3765,-0.029627,0.013439,0.027184,0.3,-24.12,84.54
4.8897,-1.8932,-8.322,-0.032681,0.000305,0.025045,0.06,-24.36,84.6
4.9306,-1.9613,-8.4174,-0.03207,-0.0082467,0.03146,0.24,-24.42,84.66
4.9033,-1.9613,-8.4174,-0.035736,-0.0048869,0.024129,0.3,-24.42,84.54
4.9033,-1.9613,-8.4174,-0.032681,-0.0027489,0.015272,0.3,-24.42,84.54
4.8625,-1.8796,-8.322,-0.025962,0.0015272,0.012828,0.54,-24.36,84.54
4.8625,-1.8796,-8.322,-0.036957,0.018326,0.013439,0.54,-24.36,84.54
4.8625,-1.9205,-8.431,-0.051618,0.043982,0.017104,0.6,-24.42,84.48
4.8761,-1.866,-8.3629,-0.054367,0.049175,0.0079412,0.54,-24.54,84.54
4.8897,-1.9068,-8.3901,-0.059559,0.054367,-0.000916,0.72,-24.66,84.42
4.8625,-1.8932,-8.2812,-0.068111,0.055283,-0.0067195,0.9,-24.6,84.3
4.8352,-1.8387,-8.2812,-0.053145,0.055894,-0.016799,0.72,-24.6,84.18
4.985,-1.8796,-8.2812,-0.0562,0.07422,-0.0012217,0.66,-24.48,84.12
5.0123,-1.8932,-8.2812,-0.052534,0.06017,-0.0067195,0.96,-24.54,84.24
5.1485,-1.9068,-8.2539,-0.040012,0.034208,-0.007025,0.72,-24.36,84.12
5.1485,-1.9205,-8.3357,-0.035736,-0.011912,-0.017104,0.48,-24.42,84.18
5.094,-1.8251,-8.322,-0.021991,-0.053451,-0.019242,0.48,-24.36,84.3
4.9033,-1.8387,-8.3493,-0.020769,-0.062919,-0.024435,0.42,-24.54,84.36
4.7944,-1.8524,-8.4038,-0.018631,-0.047647,-0.0042761,0.36,-24.6,84.36
4.8625,-1.8524,-8.3901,-0.028711,0.0033598,0.032987,0.06,-24.6,84.48
4.9442,-1.866,-8.4174,-0.03207,0.018631,0.032376,0.12,-24.66,84.54
5.0668,-1.7979,-8.2812,-0.030238,0.0042761,0.030849,0.06,-24.78,84.54
5.0668,-1.8524,-8.2948,-0.026573,-0.022297,0.021991,0.06,-24.84,84.48
4.9306,-1.8932,-8.322,-0.028711,-0.032376,0.0045815,-0.12,-24.78,84.36
4.8897,-1.9341,-8.3629,-0.032681,-0.017104,0.0058032,-0.18,-24.66,84.36
4.8625,-1.866,-8.3629,-0.033598,0.0064141,0.000611,-0.12,-24.66,84.42
4.9578,-1.866,-8.431,-0.030238,0.018021,0.018326,-0.12,-24.66,84.42
4.9987,-1.8387,-8.3084,-0.029627,-0.0030543,0.017104,-0.18,-24.66,84.24
4.9578,-1.866,-8.2812,-0.029322,-0.027794,0.025351,-0.12,-24.6,84.18
4.8897,-1.8932,-8.322,-0.030849,-0.025351,0.023213,-0.12,-24.48,84.24
4.9033,-1.9068,-8.2948,-0.029322,-0.018937,0.022297,-0.18,-24.54,84.18
4.9442,-1.7298,-8.3629,-0.030849,-0.0048869,0.019242,-0.06,-24.54,84.36
4.9169,-1.8251,-8.3765,-0.03879,0.0079412,0.018937,-0.06,-24.42,84.36
4.9578,-1.8387,-8.3765,-0.041539,0.010079,0.018631,0.06,-24.42,84.6
4.9578,-2.0022,-8.3084,-0.033903,0.014661,0.018937,0.06,-24.42,84.66
4.9987,-1.866,-8.2539,-0.033598,0.0048869,0.018021,0.06,-24.42,84.6
4.9033,-1.866,-8.3357,-0.035736,0.0039706,0.021686,0.18,-24.3,84.6
4.9578,-1.8251,-8.322,-0.030849,-0.0058032,0.023213,0.18,-24.42,84.6
4.9033,-1.8387,-8.3765,-0.032987,-0.0082467,0.026573,0.18,-24.36,84.54
4.8897,-1.866,-8.3765,-0.030849,-0.0036652,0.029016,0.06,-24.42,84.78
4.9169,-1.8251,-8.3901,-0.034208,0.0054978,0.026573,0.12,-24.48,84.78
4.9714,-1.8796,-8.3493,-0.03146,0.0033598,0.025351,0.06,-24.66,84.72
4.9714,-1.8932,-8.322,-0.040317,-0.0033598,0.022297,0.06,-24.54,84.78
4.9442,-1.866,-8.3493,-0.028711,-0.015577,0.021686,-0.06,-24.6,84.78
4.9306,-1.9205,-8.3765,-0.030543,-0.0048869,0.018937,-0.06,-24.54,84.9
4.9306,-1.8796,-8.3357,-0.023824,0.0051924,0.02474,-0.06,-24.6,84.72
4.9714,-1.8796,-8.2676,-0.026573,0.0051924,0.0281,-0.06,-24.42,84.66
4.985,-1.8932,-8.322,-0.025656,-0.0067195,0.022297,0.06,-24.3,84.9
4.9169,-1.9477,-8.3765,-0.035736,-0.010079,0.010996,0.12,-24.36,84.9
4.9578,-1.9341,-8.3765,-0.040317,0.0045815,0.01069,0.12,-24.3,84.84
4.9033,-1.866,-8.3357,-0.034208,0.014966,0.01069,0.18,-24.42,84.9
4.9033,-1.7979,-8.3493,-0.037263,0.039401,0.011912,0.36,-24.54,84.78
4.9987,-1.8387,-8.322,-0.037263,0.035125,0.021991,0.3,-24.6,84.9
4.9987,-1.8524,-8.3357,-0.042455,0.027794,0.021991,0.24,-24.42,84.84
4.9987,-1.8932,-8.3493,-0.037263,0.009163,0.02474,0.3,-24.48,84.78
4.9714,-1.8796,-8.3765,-0.044899,0.007025,0.019548,0.3,-24.36,84.78
4.9306,-1.8932,-8.4174,-0.035736,0.017104,0.020464,0.36,-24.54,84.6
4.9578,-1.8796,-8.322,-0.044899,0.018326,0.02474,0.42,-24.6,84.66
4.9442,-1.866,-8.3629,-0.031765,0.020159,0.023213,0.48,-24.6,84.6
4.9578,-1.8932,-8.3765,-0.044288,0.023213,0.031154,0.42,-24.78,84.6
4.9987,-1.9341,-8.3901,-0.048564,0.022297,0.027489,0.3,-24.72,84.54
4.9578,-1.9613,-8.2676,-0.040623,0.017104,0.022907,0.3,-24.72,84.66
4.9578,-1.9068,-8.2539,-0.025045,-0.012217,0.010079,0.06,-24.78,84.72
4.9714,-1.866,-8.3765,-0.023824,-0.018937,0.0027489,0.06,-24.6,84.72
4.9442,-1.8796,-8.4174,-0.035736,-0.014966,-0.0027489,0.12,-24.54,84.6
4.8488,-1.866,-8.2812,-0.041233,0.0030543,-0.0036652,0.18,-24.48,84.66
4.9169,-1.8932,-8.2948,-0.041233,0.037874,0.0088575,0.12,-24.6,84.6
4.9578,-1.8796,-8.3357,-0.032376,0.038179,0.0061087,0.06,-24.6,84.72
4.985,-1.866,-8.3901,-0.029627,0.0076358,0.020159,0.06,-24.54,84.84
5.0123,-1.9068,-8.3765,-0.026267,-0.010385,0.013134,0.06,-24.54,84.9
4.985,-1.9341,-8.3901,-0.032987,-0.018631,0.010385,0.06,-24.54,84.96
4.9987,-1.9205,-8.3493,-0.034819,-0.015882,0.01069,0.06,-24.36,84.78
4.9306,-1.8796,-8.3765,-0.051007,0.027489,0.011301,0.06,-24.36,84.72
4.9033,-1.8524,-8.3765,-0.040012,0.036041,0.0073304,-0.06,-24.36,84.6
4.9578,-1.8387,-8.2539,-0.039401,0.037568,0.020769,-0.06,-24.48,84.54
5.0531,-1.8932,-8.322,-0.026573,0.000305,0.027184,-0.06,-24.54,84.42
5.0123,-1.8932,-8.2812,-0.013134,-0.029932,0.025045,-0.06,-24.6,84.54
4.9987,-1.8932,-8.2948,-0.011912,-0.043371,0.019242,-0.06,-24.6,84.48
4.9306,-1.866,-8.3084,-0.025656,-0.046731,0.021686,0.06,-24.72,84.54
4.9033,-1.8387,-8.322,-0.02138,-0.041233,0.020464,0.12,-24.66,84.42
4.8897,-1.866,-8.322,-0.032987,-0.034514,0.028711,0.18,-24.72,84.42
4.9169,-1.9205,-8.3357,-0.020769,-0.013744,0.019548,0.06,-24.66,84.18
4.9306,-1.8932,-8.2812,-0.021686,-0.0058032,0.020159,0.06,-24.72,84.0
4.9987,-1.866,-8.3493,-0.032987,-0.010996,0.021991,0.06,-24.78,84.12
4.9714,-1.8932,-8.4174,-0.030849,-0.021686,0.01741,0.12,-24.84,84.24
4.9306,-1.9205,-8.3357,-0.034514,-0.016188,0.0076358,0.18,-24.84,84.36
4.8625,-1.9477,-8.4582,-0.044288,-0.0058032,0.0094684,0.3,-24.78,84.3
4.8352,-1.9205,-8.3765,-0.055894,0.050396,-0.0088575,0.06,-24.84,84.3
4.8625,-1.8251,-8.3765,-0.058338,0.088575,-0.0042761,0.06,-24.78,84.24
4.9306,-1.866,-8.3493,-0.048258,0.090408,-0.0061087,0.06,-24.72,84.3
5.0531,-1.8524,-8.3357,-0.062308,0.072388,0.0018326,-0.3,-24.72,84.42
5.0668,-1.8932,-8.2539,-0.045815,0.048258,-0.0018326,-0.36,-24.78,84.48
5.0259,-1.8115,-8.1313,-0.049175,0.036041,0.0045815,-0.36,-24.72,84.42
4.9714,-1.9341,-8.2812,-0.044899,0.034819,0.0039706,-0.48,-24.66,84.48
4.9578,-1.8524,-8.3357,-0.047647,0.051618,-0.0027489,-0.48,-24.78,84.54
5.0259,-1.8387,-8.3357,-0.04612,0.042761,0.0094684,-0.72,-24.84,84.66
5.0123,-1.7434,-8.2676,-0.034514,0.018021,0.0088575,-0.72,-24.72,84.6
5.0531,-1.866,-8.3629,-0.040012,0.025351,0.017715,-0.9,-24.72,84.54
5.0668,-1.8932,-8.3084,-0.045815,0.045204,0.0067195,-0.96,-24.72,84.6
4.9987,-1.9068,-8.3084,-0.051313,0.047647,0.0024435,-0.9,-24.66,84.6
5.0531,-1.866,-8.3084,-0.059865,0.066584,-0.015272,-0.96,-24.66,84.78
5.0668,-1.7843,-8.2539,-0.054978,0.073304,-0.015882,-1.02,-24.72,84.66
5.0259,-1.7979,-8.2812,-0.047647,0.065668,-0.022602,-0.96,-24.66,84.54
5.0259,-1.8251,-8.1586,-0.047037,0.064141,-0.016799,-0.9,-24.66,84.42
4.9987,-1.7706,-8.3084,-0.051313,0.062308,-0.0097738,-1.02,-24.78,84.54
5.0123,-1.7706,-8.1722,-0.039706,0.081856,-0.0048869,-0.96,-24.84,84.48
5.1485,-1.7843,-8.2131,-0.034819,0.079718,0.02138,-1.08,-24.78,84.48
5.2983,-1.7706,-8.145,-0.024435,0.048258,0.034514,-1.02,-24.78,84.48
5.3119,-1.8387,-8.2812,-0.02138,0.0064141,0.033903,-1.02,-24.84,84.36
5.1349,-1.8524,-8.2267,-0.016188,-0.0048869,0.034819,-1.14,-25.08,84.3
5.0668,-1.8387,-8.1177,-0.020159,-0.0033598,0.032987,-1.14,-25.08,84.24
5.1213,-1.866,-8.1586,-0.0024435,-0.023518,0.050091,-1.14,-25.08,84.18
5.3119,-1.8115,-8.2676,-0.012523,-0.043066,0.061087,-1.08,-25.02,84.06
5.2166,-1.9341,-8.2403,-0.014661,-0.068722,0.055894,-1.14,-25.08,84.06
5.094,-1.8251,-8.2131,-0.01741,-0.073609,0.060476,-1.14,-25.08,84.12
5.1213,-1.7843,-8.2676,0.010996,-0.089186,0.055894,-1.08,-25.14,84.12
5.0395,-1.7706,-8.2948,0.0079412,-0.084605,0.07086,-1.08,-25.14,83.94
5.0259,-1.8115,-8.2131,0.012217,-0.091324,0.072082,-1.14,-25.08,84.06
5.1213,-1.866,-8.2539,0.016493,-0.11484,0.086743,-1.14,-25.02,84.06
5.1621,-1.9205,-8.3357,0.011606,-0.1347,0.077274,-0.96,-25.02,84.06
5.1213,-1.9613,-8.2403,-0.0027489,-0.16432,0.055283,-1.02,-24.9,84.36
4.9714,-1.8932,-8.2403,0.0064141,-0.17135,0.029322,-0.9,-24.84,84.3
4.7944,-1.9068,-8.2948,0.03146,-0.15363,0.024129,-0.6,-24.66,84.36
4.8625,-1.8932,-8.2812,0.022297,-0.1408,0.023518,-0.6,-24.66,84.6
4.8352,-1.9205,-8.322,0.020769,-0.10201,0.032681,-0.54,-24.6,84.66
4.9033,-1.9205,-8.3493,0.01069,-0.10476,0.049786,-0.3,-24.54,84.84
4.9306,-1.975,-8.4446,0.0051924,-0.10934,0.036652,-0.18,-24.6,84.84
4.9306,-2.0294,-8.431,0.0027489,-0.13439,0.014355,-0.18,-24.42,84.84
4.6445,-2.152,-8.5808,-0.014966,-0.1124,0.01069,0.12,-24.36,84.9
4.5764,-2.1656,-8.54,-0.04215,-0.036346,0.012523,0.3,-24.36,84.96
4.5901,-2.0703,-8.4855,-0.075136,0.069333,0.012217,0.42,-24.36,85.02
4.6445,-2.0431,-8.4446,-0.086437,0.13347,0.022907,0.42,-24.3,85.08
4.9442,-2.0022,-8.2403,-0.083994,0.14355,0.018937,0.48,-24.3,84.78
5.0531,-1.9613,-8.322,-0.076664,0.10782,0.0085521,0.42,-24.3,84.9
5.0531,-1.9613,-8.3493,-0.066279,0.037874,-0.009163,0.48,-24.36,85.02
4.9306,-1.866,-8.3357,-0.068111,0.032376,-0.0097738,0.54,-24.36,84.9
4.8352,-1.8524,-8.322,-0.053756,0.024435,-0.020769,0.54,-24.42,84.78
4.7944,-1.8796,-8.2539,-0.045204,0.052534,-0.0051924,0.36,-24.48,84.6
4.8488,-1.9477,-8.2948,-0.041539,0.073915,0.014661,0.48,-24.54,84.6
4.9714,-1.8932,-8.2539,-0.039095,0.065668,0.029932,0.42,-24.54,84.54
5.0804,-1.975,-8.2539,-0.028711,0.02138,0.03207,0.24,-24.54,84.6
5.0531,-1.9613,-8.2812,-0.02474,-0.012523,0.027794,0.18,-24.48,84.54
5.0531,-1.9613,-8.2403,-0.022602,-0.033903,0.022602,0.18,-24.36,84.54
4.9714,-1.9886,-8.3493,-0.022602,-0.061697,0.011301,0.24,-24.36,84.48
4.9306,-2.0294,-8.4446,-0.022907,-0.059559,0.009163,0.18,-24.24,84.48
4.808,-1.9613,-8.3629,-0.025962,-0.016188,0.0042761,0.24,-24.12,84.36
4.8625,-1.9613,-8.322,-0.029322,0.0045815,0.0058032,0.24,-24.12,84.3
4.9033,-1.866,-8.3901,-0.03543,0.0048869,0.0064141,0.24,-24.06,84.24
4.9442,-1.866,-8.3765,-0.030543,-0.000611,0.0012217,0.24,-24.12,84.06
4.8897,-1.9613,-8.322,-0.032376,-0.012523,-0.0030543,0.24,-24.12,84.18
4.8625,-1.9205,-8.4038,-0.026878,0.0018326,-0.0018326,0.06,-24.0,84.18
4.8625,-1.9886,-8.4174,-0.037263,0.021075,-0.0018326,0.24,-24.0,84.24
4.8625,-1.9068,-8.3493,-0.032681,0.037874,0.012828,0.24,-24.12,84.24
4.9033,-1.9477,-8.322,-0.034208,0.027489,0.017715,0.24,-24.12,84.24
4.9987,-1.9477,-8.322,-0.035736,0.020464,0.022602,0.18,-24.36,84.24
4.8897,-1.9886,-8.3901,-0.033598,0.0042761,0.015577,0.06,-24.42,84.3
4.9033,-1.9341,-8.3765,-0.043371,0.012217,0.021075,0.06,-24.48,84.42
4.9033,-1.975,-8.3901,-0.053756,0.015882,0.018326,0.12,-24.54,84.42
4.9033,-1.9205,-8.3765,-0.037263,0.011912,0.027489,0.12,-24.72,84.42
4.9987,-1.8932,-8.3084,-0.033903,0.0061087,0.026878,0.06,-24.72,84.6
5.0395,-1.8796,-8.2812,-0.028405,-0.022907,0.031154,0.3,-24.54,84.78
4.985,-1.9341,-8.2948,-0.021991,-0.035736,0.024435,0.36,-24.54,84.84
4.8897,-1.9886,-8.322,-0.027489,-0.044593,0.02138,0.36,-24.66,84.78
4.7807,-1.9886,-8.3493,-0.026267,-0.025656,0.013134,0.36,-24.6,84.6
4.8488,-1.9613,-8.3357,-0.029016,-0.000305,0.016188,0.42,-24.66,84.54
4.9033,-1.9613,-8.2403,-0.037263,0.023824,0.015577,0.6,-24.54,84.48
4.9306,-1.9613,-8.3493,-0.032987,0.013134,0.014966,0.6,-24.54,84.6
5.0123,-1.975,-8.3493,-0.030543,-0.0045815,0.01405,0.66,-24.42,84.54
4.9578,-2.0022,-8.3357,-0.022907,-0.021686,0.015272,0.72,-24.54,84.48
4.8897,-1.8932,-8.3765,-0.025045,-0.026878,0.0082467,0.54,-24.78,84.6
4.8216,-1.9477,-8.3493,-0.033903,0.0015272,0.022907,0.66,-24.9,84.54
4.9033,-1.9341,-8.3765,-0.034819,0.033292,0.022297,0.6,-24.9,84.78
4.9442,-1.9886,-8.3629,-0.036652,0.025045,0.017715,0.72,-24.9,84.66
5.0259,-1.9886,-8.3493,-0.033292,0.012217,0.016188,0.6,-24.84,84.84
4.9714,-2.0022,-8.322,-0.034514,-0.0079412,0.015272,0.42,-24.84,84.9
4.9033,-1.975,-8.2812,-0.032376,-0.015882,0.010385,0.6,-24.84,84.9
4.8625,-1.9068,-8.2948,-0.026267,-0.011912,0.0018326,0.42,-24.9,84.6
4.7944,-1.975,-8.3084,-0.030238,0.013744,0.013439,0.3,-24.9,84.6
4.8625,-1.9613,-8.322,-0.039706,0.018326,0.016188,0.36,-24.84,84.6
4.9987,-1.9613,-8.3493,-0.034208,0.019242,0.019242,0.18,-24.96,84.66
4.9987,-1.9341,-8.322,-0.035125,0.009163,0.021075,0.18,-24.66,84.72
5.0395,-1.9886,-8.431,-0.039401,0.000305,0.01741,0.18,-24.66,84.6
4.9442,-1.9341,-8.3493,-0.033292,-0.013744,0.0094684,0.12,-24.6,84.72
4.9306,-1.9341,-8.3493,-0.039095,-0.0030543,0.011606,0.12,-24.54,84.54
4.8625,-1.9477,-8.3629,-0.036346,0.0051924,0.013134,0.06,-24.48,84.6
4.9578,-1.866,-8.2812,-0.035736,0.002138,0.016493,0.18,-24.48,84.54
4.9306,-1.9341,-8.3357,-0.0281,-0.011606,0.010079,0.3,-24.42,84.42
4.9578,-2.0294,-8.2267,-0.036652,-0.021686,0.01069,0.18,-24.48,84.48
4.8761,-1.866,-8.3493,-0.035736,-0.01741,0.015272,0.3,-24.3,84.72
4.8625,-1.9205,-8.3629,-0.03543,0.0097738,0.02474,0.42,-24.48,84.84
4.9033,-1.8932,-8.3357,-0.032376,0.014966,0.026878,0.24,-24.48,84.9
4.9714,-1.9613,-8.3357,-0.030238,0.0045815,0.028405,0.36,-24.3,84.66
4.9987,-1.9886,-8.3357,-0.027794,-0.0058032,0.027489,0.24,-24.48,84.66
4.9987,-2.0294,-8.4174,-0.025962,-0.016493,0.023518,0.24,-24.42,84.66
4.8625,-1.8932,-8.1858,-0.012828,-0.0281,0.020769,0.12,-24.24,84.48
4.9306,-1.9477,-8.2676,-0.0067195,-0.040012,0.031154,-0.06,-24.24,84.54
4.9033,-1.975,-8.2539,-0.0058032,-0.051007,0.027489,-0.06,-24.18,84.6
4.9169,-1.975,-8.2131,-0.0042761,-0.076969,0.030849,0.06,-24.18,84.78
4.9578,-2.0022,-8.3629,-0.0039706,-0.085521,0.030238,0.06,-24.24,84.84
4.9306,-2.0431,-8.4582,-0.017104,-0.082467,0.033598,0.12,-24.3,84.96
4.7399,-2.0431,-8.4174,-0.02138,-0.081551,0.018326,0.12,-24.18,84.9
4.6445,-1.9205,-8.4174,-0.028405,-0.054367,0.017715,-0.06,-24.3,84.9
4.6854,-1.9205,-8.54,-0.038485,-0.015272,0.014966,0.12,-24.36,85.02
4.7535,-2.0567,-8.5263,-0.05284,0.025962,-0.000611,0.12,-24.42,85.14
4.7671,-2.0567,-8.5127,-0.078496,0.092546,-0.026573,0.24,-24.48,85.08
4.7944,-1.975,-8.4446,-0.087659,0.1347,-0.041233,0.3,-24.48,85.2
4.7944,-1.9205,-8.3765,-0.078496,0.15699,-0.044593,0.36,-24.6,85.32
4.9033,-1.8387,-8.2812,-0.067195,0.18295,-0.018021,0.78,-24.54,85.26
4.9987,-1.8932,-8.2812,-0.058032,0.15577,-0.0079412,0.72,-24.66,85.26
5.0395,-1.9341,-8.1586,-0.050091,0.13531,0.000916,0.78,-24.72,85.08
5.1757,-1.8932,-8.2948,-0.053756,0.056505,0.0042761,0.48,-24.84,85.08
5.1485,-1.9477,-8.322,-0.052534,0.0088575,-0.0018326,0.42,-24.78,84.96
5.0259,-1.9341,-8.322,-0.059254,-0.007025,-0.0064141,0.36,-24.9,84.96
4.808,-1.9068,-8.3357,-0.050396,0.014966,-0.015577,0.36,-24.6,84.72
4.7944,-1.8387,-8.1858,-0.036652,0.059254,0.007025,0.18,-24.6,84.6
4.9578,-1.8524,-8.2812,-0.035736,0.06689,0.013439,0.12,-24.6,84.54
5.1213,-1.866,-8.2539,-0.031154,0.047342,0.027794,-0.24,-24.54,84.66
5.203,-1.8796,-8.2403,-0.033903,0.0033598,0.020769,-0.18,-24.6,84.66
5.1621,-1.9205,-8.0905,-0.023518,-0.039095,0.026878,-0.18,-24.6,84.66
4.985,-1.9341,-8.2812,-0.014355,-0.063225,0.022297,-0.42,-24.6,84.66
4.9578,-1.9886,-8.3765,-0.016799,-0.06017,0.022907,-0.42,-24.48,84.72
4.9442,-1.9068,-8.3357,-0.030543,-0.027794,0.022602,-0.42,-24.48,84.72
4.9169,-1.9068,-8.3493,-0.027489,-0.015577,0.027184,-0.36,-24.54,84.78
4.9987,-1.8796,-8.1858,-0.025962,-0.022297,0.036346,-0.3,-24.48,84.6
4.9987,-1.9341,-8.2267,-0.020159,-0.030849,0.044899,-0.3,-24.48,84.54
5.0259,-1.9341,-8.322,-0.020159,-0.049175,0.033903,-0.24,-24.78,84.66
4.9306,-1.9341,-8.431,-0.021075,-0.053145,0.024129,-0.36,-24.72,84.66
4.8897,-1.9205,-8.3901,-0.027489,-0.03879,0.02138,-0.24,-24.66,84.66
4.8625,-1.9477,-8.3765,-0.039706,-0.0054978,0.012523,-0.18,-24.54,84.54
4.8625,-1.9477,-8.322,-0.043066,0.021075,0.020769,-0.12,-24.42,84.48
4.8897,-1.9068,-8.4038,-0.033598,0.036652,0.020464,-0.18,-24.48,84.42
4.9306,-1.9477,-8.2948,-0.043982,0.036652,0.027184,-0.12,-24.48,84.54
5.0259,-1.8932,-8.322,-0.041844,0.029627,0.024435,-0.24,-24.66,84.42
5.0259,-1.8932,-8.2812,-0.042455,0.02474,0.019853,-0.18,-24.66,84.42
5.0259,-1.8796,-8.3493,-0.040317,0.0027489,0.016493,-0.36,-24.66,84.36
4.9714,-1.9341,-8.2539,-0.029016,0.0045815,0.018021,-0.48,-24.54,84.54
4.9714,-1.9341,-8.2676,-0.026878,0.0088575,0.018631,-0.54,-24.48,84.48
5.0259,-1.8932,-8.2131,-0.033598,0.0085521,0.014966,-0.66,-24.3,84.54
4.9714,-1.866,-8.322,-0.040928,0.011301,0.021686,-0.54,-24.18,84.6
4.985,-1.866,-8.322,-0.043371,-0.000916,0.029016,-0.66,-24.3,84.6
4.9987,-1.9341,-8.322,-0.047647,-0.002138,0.031154,-0.66,-24.42,84.66
4.9306,-1.9613,-8.3765,-0.054367,0.023213,0.011606,-0.72,-24.72,84.6
4.9578,-1.8932,-8.2676,-0.059865,0.050396,0.0054978,-0.66,-24.6,84.42
4.8897,-1.866,-8.2539,-0.054062,0.063835,0.0076358,-0.78,-24.54,84.42
5.0123,-1.8524,-8.2676,-0.050091,0.061087,0.02138,-0.6,-24.42,84.54
5.1076,-1.9068,-8.322,-0.045204,0.042455,0.025656,-0.72,-24.42,84.72
5.2166,-1.9341,-8.3084,-0.049786,0.030238,0.031154,-0.66,-24.36,84.72
5.094,-1.9341,-8.3084,-0.045815,0.0051924,0.0030543,-0.54,-24.54,84.6
4.9578,-1.8932,-8.2948,-0.047037,0.0039706,0.0015272,-0.48,-24.66,84.72
4.9306,-1.8524,-8.2812,-0.043371,0.026878,-0.011912,-0.54,-24.72,84.72
4.985,-1.866,-8.3084,-0.04612,0.065057,-0.0051924,-0.66,-24.78,84.6
5.0123,-1.866,-8.2539,-0.054367,0.10324,0.0042761,-0.6,-24.72,84.72
5.0123,-1.8524,-8.1858,-0.043066,0.097738,0.0054978,-0.66,-24.6,84.66
5.2166,-1.8796,-8.2131,-0.0281,0.043982,0.024129,-0.54,-24.6,84.72
5.2847,-1.9068,-8.1995,-0.030238,0.0079412,0.014661,-0.72,-24.72,84.78
5.1894,-1.8524,-8.2267,-0.027184,-0.019548,0.010385,-0.72,-24.78,84.78
4.985,-1.8932,-8.322,-0.035736,-0.010385,0.011912,-0.84,-24.96,84.54
4.9987,-1.866,-8.2812,-0.034514,0.0082467,0.020464,-0.72,-24.84,84.42
5.1349,-1.9068,-8.2812,-0.036041,0.015577,0.020159,-0.72,-25.02,84.48
5.1485,-1.8932,-8.2676,-0.030849,-0.000611,0.019242,-0.84,-24.9,84.3
5.1213,-1.8524,-8.2812,-0.032681,-0.014355,0.0073304,-0.84,-24.78,84.24
5.0259,-1.866,-8.2539,-0.033292,-0.021686,0.012828,-0.9,-24.72,84.3
5.0259,-1.8387,-8.2812,-0.034819,-0.030543,0.01069,-0.78,-24.78,84.42
5.0259,-1.757,-8.2812,-0.030238,-0.025962,0.011912,-0.72,-24.9,84.3
5.094,-1.8524,-8.3357,-0.033292,-0.022602,0.0058032,-0.72,-24.96,84.36
4.9714,-1.866,-8.2812,-0.021686,-0.018326,0.018326,-0.96,-25.02,84.3
5.0531,-1.866,-8.2812,-0.026573,-0.010079,0.030543,-0.84,-25.02,84.42
5.0668,-1.8796,-8.2539,-0.029322,-0.0094684,0.026878,-0.72,-25.02,84.42
4.9987,-1.8932,-8.4038,-0.029322,-0.0094684,0.022907,-0.72,-24.78,84.48
4.9578,-1.8932,-8.3493,-0.041233,0.01741,0.012828,-0.84,-24.9,84.42
5.0123,-1.8932,-8.3493,-0.039706,0.030238,0.019548,-0.9,-24.84,84.24
5.0395,-1.8387,-8.2948,-0.053145,0.054978,0.0076358,-0.9,-24.78,84.36
5.0531,-1.866,-8.2267,-0.054978,0.074526,-0.011606,-1.08,-24.9,84.54
5.094,-1.8387,-8.1177,-0.043066,0.06353,-0.029627,-0.9,-25.02,84.54
5.0531,-1.7843,-8.0496,-0.01069,0.055894,-0.023518,-0.96,-25.08,84.6
4.985,-1.4846,-8.0632,0.036346,-0.009163,-0.0073304,-1.2,-24.9,84.54
5.1076,-1.7843,-8.3357,0.015272,0.015272,0.0036652,-1.2,-25.02,84.54
5.1485,-1.8251,-8.2812,0.013439,0.013134,0.014661,-1.08,-25.02,84.48
5.2711,-2.1248,-8.2403,-0.0024435,-0.027794,0.047342,-1.2,-24.72,84.24
5.2847,-2.1248,-8.1313,0.0079412,-0.07025,0.053756,-1.32,-24.6,84.18
5.2166,-2.0839,-8.2539,0.014966,-0.11484,0.053756,-1.38,-24.6,84.12
5.0668,-1.9341,-8.2948,0.0088575,-0.14722,0.067195,-1.26,-24.6,84.12
5.0531,-1.9068,-8.4174,0.0073304,-0.15394,0.062919,-1.2,-24.6,84.3
5.0395,-1.9341,-8.4174,-0.0058032,-0.15791,0.06689,-1.14,-24.54,84.3
4.9714,-1.9341,-8.2948,-0.025351,-0.15485,0.053756,-0.96,-24.42,84.24
4.9033,-1.8932,-8.3493,-0.027184,-0.13164,0.038485,-0.96,-24.36,84.18
4.9033,-1.9477,-8.4582,-0.022602,-0.096211,0.02474,-0.96,-24.42,84.12
4.7399,-1.8524,-8.4446,-0.032987,-0.02138,0.0036652,-0.84,-24.3,84.0
4.7944,-1.8796,-8.3357,-0.030849,0.0067195,0.007025,-0.78,-24.12,84.0
4.8352,-1.9613,-8.3765,-0.022297,0.043066,0.012217,-0.72,-24.12,84.0
5.0804,-2.0022,-8.2812,-0.022602,0.040317,0.015272,-0.48,-24.18,84.12
5.0531,-2.0022,-8.2539,-0.021991,0.032987,0.018326,-0.54,-24.24,84.12
5.0259,-1.9886,-8.3084,-0.027489,0.012523,0.022297,-0.3,-24.36,84.24
4.985,-1.8387,-8.2676,-0.046426,-0.0039706,0.013744,-0.36,-24.36,84.24
4.985,-1.9068,-8.1995,-0.048258,-0.0018326,0.002138,-0.3,-24.36,84.18
4.9033,-1.9205,-8.2676,-0.045815,0.010996,-0.0015272,-0.18,-24.36,84.12
4.9578,-1.975,-8.2812,-0.030849,0.036041,0.0097738,-0.12,-24.36,84.24
4.9987,-1.9341,-8.322,-0.032681,0.033903,0.025656,-0.12,-24.36,84.24
5.094,-1.9886,-8.2403,-0.03543,-0.0045815,0.020769,-0.12,-24.3,84.36
5.0395,-1.9886,-8.2676,-0.034514,-0.039095,0.022602,-0.12,-24.24,84.6
4.9714,-1.9341,-8.2812,-0.027794,-0.048258,0.011912,0.12,-24.3,84.42
4.9306,-1.9886,-8.3629,-0.016493,-0.04612,0.01741,0.06,-24.3,84.36
4.9033,-2.0294,-8.4446,-0.022602,-0.03207,0.029016,0.06,-24.3,84.48
4.9714,-1.9341,-8.4174,-0.033598,-0.02474,0.032987,0.06,-24.24,84.42
4.9169,-1.9205,-8.2676,-0.041539,-0.031154,0.018937,-0.06,-24.12,84.36
4.8625,-1.9068,-8.322,-0.027184,-0.036346,0.010385,0.06,-23.94,84.48
4.8625,-1.9341,-8.3084,-0.018021,-0.03146,0.018631,0.06,-24.06,84.42
4.9033,-2.0294,-8.3901,-0.011301,-0.015882,0.022297,0.06,-24.06,84.54
4.9987,-2.0158,-8.322,-0.013744,-0.0085521,0.021686,0.06,-24.18,84.36
4.9169,-2.0703,-8.322,-0.03207,-0.014661,0.019242,0.06,-24.12,84.36
4.9169,-2.0294,-8.2812,-0.040623,-0.021075,0.016493,0.12,-24.18,84.36
4.8761,-1.9341,-8.2812,-0.034208,-0.025351,0.0094684,0.06,-24.18,84.3
4.8352,-1.9613,-8.3765,-0.037874,-0.0045815,0.020159,-0.06,-24.18,84.42
4.9169,-1.8932,-8.322,-0.033292,0.017104,0.020464,0.06,-24.24,84.54
4.9442,-1.9613,-8.322,-0.030238,0.017104,0.022297,0.18,-24.3,84.54
5.0804,-1.9068,-8.1858,-0.016188,-0.016493,0.022907,0.12,-24.36,84.54
5.0123,-1.9886,-8.2539,-0.0030543,-0.043982,0.032681,0.12,-24.48,84.6
4.9714,-1.9886,-8.3629,0.0042761,-0.091324,0.04612,0.12,-24.6,84.54
4.9442,-2.1248,-8.4991,-0.011606,-0.093768,0.044288,0.18,-24.6,84.54
4.8625,-2.1112,-8.3629,-0.029627,-0.082161,0.02474,0.24,-24.54,84.6
4.8625,-2.1112,-8.4174,-0.040012,-0.071777,0.021686,0.18,-24.48,84.66
4.7535,-2.0022,-8.4719,-0.069333,-0.0076358,0.017104,0.3,-24.54,84.72
4.7399,-2.0022,-8.4582,-0.071777,0.038179,0.013744,0.3,-24.48,84.84
4.699,-1.9886,-8.4038,-0.081245,0.080023,-0.0045815,0.24,-24.36,84.78
4.8352,-1.9886,-8.3629,-0.091324,0.12675,-0.030238,0.24,-24.24,84.78
4.8216,-1.9341,-8.3901,-0.09499,0.14111,-0.044288,0.24,-24.18,84.78
4.808,-1.975,-8.3765,-0.10568,0.18845,-0.064141,0.24,-24.24,84.72
4.8352,-1.9477,-8.3084,-0.097433,0.22877,-0.054672,0.18,-24.06,84.72
4.9169,-1.8932,-8.3084,-0.10201,0.25717,-0.058338,0.12,-24.12,84.72
5.0395,-1.8932,-8.2812,-0.094379,0.27336,-0.059865,0.24,-24.0,84.72
5.1894,-1.866,-8.2403,-0.08094,0.2025,-0.041844,-0.12,-24.12,84.84
5.1213,-1.8115,-8.1177,-0.078496,0.18204,-0.039095,-0.24,-24.06,84.66
5.2438,-1.8251,-8.0496,-0.047647,0.15882,-0.021075,-0.42,-24.12,84.54
5.3937,-1.7979,-8.0905,-0.044288,0.12614,-0.0073304,-0.48,-24.12,84.42
5.38,-1.8387,-8.0905,-0.038179,0.07758,0.007025,-0.78,-24.3,84.06
5.3937,-1.8796,-8.0769,-0.034514,0.035736,0.011912,-0.9,-24.42,84.12
5.4073,-1.8387,-8.036,-0.032987,-0.0061087,0.013744,-1.02,-24.48,84.24
5.2711,-1.866,-8.1313,-0.02138,-0.055589,0.020159,-1.26,-24.78,84.06
5.2302,-1.9477,-8.2131,-0.015882,-0.057421,0.022907,-1.32,-24.72,84.06
5.1894,-1.8387,-8.2676,-0.017715,-0.067195,0.038485,-1.32,-24.78,84.06
5.0668,-1.7706,-8.1177,-0.009163,-0.07025,0.044593,-1.26,-24.66,83.94
5.1894,-1.8387,-8.2131,0.000305,-0.085827,0.044899,-1.44,-24.66,84.0
5.1213,-1.866,-8.2267,-0.0048869,-0.095906,0.045815,-1.32,-24.6,83.82
5.1349,-1.866,-8.2131,0.0054978,-0.098044,0.047647,-1.32,-24.66,83.88
5.1213,-1.866,-8.1858,0.000305,-0.096517,0.054367,-1.14,-24.72,83.88
5.0259,-1.8524,-8.2403,0.0094684,-0.10293,0.064752,-1.14,-24.72,84.06
5.0395,-1.8796,-8.2676,0.0085521,-0.10171,0.074831,-1.08,-24.6,84.18
5.0668,-1.9886,-8.2812,-0.0018326,-0.095295,0.069028,-0.9,-24.54,84.18
5.0123,-2.0158,-8.4174,-0.014966,-0.081245,0.047647,-0.78,-24.48,84.12
4.9306,-2.0294,-8.3493,-0.026573,-0.057421,0.027794,-0.48,-24.42,84.12
4.8897,-1.9613,-8.2812,-0.035125,-0.043677,0.014966,-0.36,-24.42,84.24
4.8352,-1.9068,-8.2812,-0.030238,-0.002138,0.01405,-0.36,-24.48,84.18
4.9987,-2.0022,-8.2676,-0.030238,0.042761,0.025351,-0.3,-24.6,84.3
5.0804,-2.0022,-8.2676,-0.034819,0.056505,0.027794,-0.18,-24.66,84.18
5.0804,-1.9886,-8.1586,-0.050702,0.039095,0.010996,-0.12,-24.48,84.36
5.0668,-1.9068,-8.1586,-0.048869,0.025351,0.0079412,-0.18,-24.48,84.48
5.0531,-1.9477,-8.2403,-0.04612,0.020159,0.0082467,-0.24,-24.36,84.48
5.1349,-1.8932,-8.2676,-0.040928,0.027489,0.010079,-0.06,-24.3,84.48
5.0668,-1.9341,-8.2676,-0.035736,0.020769,0.0067195,-0.06,-24.24,84.42
5.0395,-1.9068,-8.3084,-0.039095,0.016493,0.01069,-0.24,-24.48,84.3
5.1485,-1.9613,-8.1858,-0.034208,0.014661,0.021991,-0.42,-24.42,84.3
5.1485,-1.9613,-8.2267,-0.031154,-0.0027489,0.023518,-0.48,-24.6,84.3
5.1076,-1.9205,-8.2676,-0.019548,-0.020769,0.022907,-0.6,-24.54,84.24
5.0668,-1.9477,-8.2948,-0.024129,-0.029322,0.022297,-0.48,-24.42,84.36
5.0395,-1.9205,-8.2539,-0.029627,-0.020769,0.023213,-0.48,-24.48,84.36
5.0259,-1.9341,-8.2267,-0.02138,-0.019853,0.030543,-0.54,-24.54,84.3
5.0259,-2.0022,-8.3901,-0.028711,-0.015882,0.03146,-0.54,-24.54,84.12
5.1076,-1.9477,-8.3357,-0.031765,-0.022602,0.020769,-0.6,-24.48,84.0
4.985,-1.866,-8.3493,-0.03543,-0.025351,0.0045815,-0.6,-24.48,84.18
5.0123,-1.9613,-8.3629,-0.043982,-0.020159,0.000916,-0.72,-24.42,84.0
4.9442,-1.9341,-8.3357,-0.048258,0.03207,-0.0015272,-0.78,-24.36,83.88
4.9578,-1.9341,-8.2539,-0.050702,0.057116,0.0082467,-0.84,-24.18,83.88
5.1485,-1.9613,-8.1722,-0.034208,0.053756,0.010996,-0.66,-24.18,83.94
5.1894,-1.9205,-8.2131,-0.040012,0.018631,0.018021,-0.6,-24.0,84.0
5.203,-1.9341,-8.2131,-0.032376,-0.038485,0.013744,-0.54,-24.06,84.06
5.0531,-1.9068,-8.2676,-0.026267,-0.047037,0.014355,-0.66,-24.06,83.88
4.9306,-1.9613,-8.3084,-0.030238,-0.039401,0.011301,-0.6,-23.88,83.94
4.9306,-1.9341,-8.2539,-0.037568,-0.014355,0.020159,-0.54,-23.88,84.06
4.9987,-1.9341,-8.322,-0.033598,0.011912,0.021075,-0.48,-23.82,84.24
5.1213,-1.9613,-8.322,-0.036652,0.0054978,0.01741,-0.48,-24.0,84.24
5.1076,-1.9613,-8.2539,-0.027184,-0.0088575,0.016799,-0.6,-24.0,84.12
5.094,-1.8796,-8.2948,-0.034208,-0.018021,0.013744,-0.54,-24.0,84.18
5.0531,-1.975,-8.2539,-0.032376,-0.016493,0.016799,-0.42,-23.94,84.36
5.0395,-1.9613,-8.2539,-0.022297,-0.016799,0.012828,-0.42,-24.06,84.42
5.0804,-1.9477,-8.3084,-0.018631,-0.01741,0.014355,-0.48,-24.0,84.42
5.0259,-2.0294,-8.2131,-0.025045,-0.0061087,0.018326,-0.54,-24.12,84.48
5.0531,-1.9341,-8.3493,-0.029016,-0.009163,0.016799,-0.6,-24.12,84.3
4.9987,-1.8796,-8.322,-0.029627,-0.010385,0.019242,-0.48,-24.18,84.36
4.9987,-1.9341,-8.3493,-0.027794,-0.010079,0.011301,-0.54,-24.24,84.3
5.0259,-1.9205,-8.2948,-0.020159,-0.009163,0.011912,-0.78,-24.12,84.42
4.9987,-1.8932,-8.3493,-0.03543,-0.0027489,0.016493,-0.84,-24.3,84.3
5.0123,-1.9886,-8.3084,-0.03543,0.0042761,0.011912,-0.78,-24.18,84.12
4.9033,-1.9613,-8.2131,-0.041539,0.014355,0.013744,-0.66,-24.24,84.06
5.0259,-1.975,-8.1858,-0.042455,0.018021,0.010996,-0.66,-24.3,84.12
5.0668,-1.9341,-8.2539,-0.033598,0.014661,0.014966,-0.66,-24.36,84.0
5.1213,-1.9205,-8.2539,-0.03207,-0.000305,0.021686,-0.72,-24.42,84.06
5.0804,-1.9613,-8.2403,-0.0281,-0.0039706,0.016188,-0.66,-24.48,84.18
5.0531,-2.0022,-8.322,-0.036041,-0.0082467,0.020159,-0.6,-24.3,84.12
4.985,-1.9341,-8.322,-0.041539,0.0024435,0.02138,-0.66,-24.48,84.18
5.0259,-1.9477,-8.2948,-0.035125,0.0094684,0.015577,-0.66,-24.48,84.24
5.0531,-1.9341,-8.2539,-0.035736,0.010996,0.014966,-0.6,-24.66,84.06
5.0668,-1.9613,-8.2539,-0.032681,0.010079,0.019548,-0.6,-24.84,84.06
5.0668,-1.9613,-8.1586,-0.033903,0.0030543,0.01741,-0.48,-24.78,84.12
5.0531,-1.9341,-8.2539,-0.024435,-0.0030543,0.0064141,-0.48,-24.84,84.18
4.9987,-1.9613,-8.2539,-0.024129,-0.0048869,0.0073304,-0.42,-24.72,84.36
4.985,-1.9477,-8.3629,-0.031154,0.0061087,0.011912,-0.3,-24.6,84.36
4.9578,-1.9341,-8.2948,-0.041539,0.011912,0.015577,-0.24,-24.66,84.3
5.0395,-1.9341,-8.2539,-0.042455,0.0281,0.023824,-0.24,-24.6,84.18
5.0259,-1.9341,-8.2539,-0.043677,0.035736,0.021686,-0.18,-24.6,84.06
5.0531,-1.9205,-8.2267,-0.025045,0.020159,0.0097738,-0.36,-24.78,84.18
5.094,-1.8932,-8.3357,-0.036957,0.002138,0.012523,-0.24,-24.6,84.24
5.094,-1.8932,-8.3357,-0.036957,0.002138,0.012523,-0.24,-24.6,84.24
4.9578,-1.8796,-8.2812,-0.037568,0.009163,0.014661,-0.18,-24.48,84.18
5.0259,-1.9341,-8.322,-0.040928,0.0067195,0.013744,-0.06,-24.48,84.36
5.0668,-1.8796,-8.2131,-0.032987,0.02138,0.016188,-0.06,-24.48,84.36
5.0668,-1.8932,-8.2131,-0.028405,0.015272,0.017715,-0.12,-24.36,84.42
5.1349,-1.9341,-8.3084,-0.030238,0.0039706,0.022907,-0.06,-24.54,84.36
5.0804,-1.975,-8.322,-0.025962,-0.011606,0.020769,-0.24,-24.66,84.36
5.0259,-1.9613,-8.2403,-0.027184,-0.019548,0.019548,-0.3,-24.6,84.54
4.9714,-1.9613,-8.2676,-0.029627,-0.0012217,0.01069,-0.24,-24.54,84.54
5.0123,-1.9477,-8.2812,-0.032681,0.011301,0.020769,-0.24,-24.54,84.6
5.0259,-1.9613,-8.2131,-0.032681,0.0051924,0.019548,-0.18,-24.48,84.54
5.1076,-1.9613,-8.2131,-0.026878,0.0012217,0.018326,-0.36,-24.42,84.48
5.0395,-1.975,-8.2539,-0.032987,-0.013439,0.018937,-0.42,-24.36,84.6
5.0259,-2.0022,-8.2948,-0.033292,-0.017104,0.025656,-0.48,-24.3,84.6
5.0123,-1.9613,-8.2812,-0.038179,-0.0088575,0.024129,-0.48,-24.24,84.48
5.0259,-1.9613,-8.1586,-0.030849,-0.01069,0.019242,-0.6,-24.24,84.54
4.9987,-1.9205,-8.1722,-0.026573,-0.025656,0.021075,-0.54,-24.18,84.54
4.9578,-1.9341,-8.1995,-0.023213,-0.020769,0.021991,-0.84,-24.12,84.48
5.0259,-1.975,-8.2676,-0.020464,-0.0082467,0.022297,-0.66,-24.18,84.54
5.0259,-1.9613,-8.2812,-0.019853,-0.0054978,0.018631,-0.66,-24.24,84.54
5.0259,-1.975,-8.2948,-0.037874,0.0079412,0.027794,-0.72,-24.36,84.42
5.0531,-1.9477,-8.3493,-0.036346,-0.000305,0.026267,-0.66,-24.42,84.3
5.1076,-1.9613,-8.3493,-0.037568,-0.0036652,0.02138,-0.72,-24.36,84.36
5.0259,-1.9613,-8.2676,-0.02474,-0.014966,0.011912,-0.6,-24.48,84.48
4.9306,-2.0294,-8.4174,-0.035736,-0.0018326,0.0082467,-0.54,-24.48,84.36
4.9578,-1.9477,-8.2948,-0.030238,0.029322,0.012217,-0.54,-24.42,84.42
5.0395,-1.9341,-8.3084,-0.030849,0.036346,0.013744,-0.54,-24.54,84.36
5.203,-1.9341,-8.2948,-0.033598,0.020159,0.02138,-0.42,-24.48,84.48
5.1485,-1.9341,-8.2267,-0.032681,-0.0051924,0.020464,-0.54,-24.54,84.48
5.0531,-1.9613,-8.1586,-0.03146,-0.02138,0.016493,-0.24,-24.6,84.54
5.0395,-1.9341,-8.3084,-0.028711,-0.019853,0.012523,-0.3,-24.36,84.42
4.9987,-1.9477,-8.3357,-0.036346,0.0051924,0.007025,-0.36,-24.3,84.54
4.9987,-1.9205,-8.322,-0.034819,0.0048869,0.0088575,-0.36,-24.3,84.54
5.0259,-1.9205,-8.2539,-0.038179,0.026267,0.015272,-0.48,-24.3,84.66
5.0804,-1.9068,-8.1858,-0.032681,0.020769,0.010996,-0.42,-24.24,84.54
5.094,-1.975,-8.2539,-0.040623,0.0033598,0.014966,-0.48,-24.36,84.54
5.0668,-1.9886,-8.2403,-0.033598,-0.000611,0.0088575,-0.54,-24.42,84.54
5.0259,-1.9341,-8.2812,-0.032376,-0.000611,0.0058032,-0.48,-24.42,84.6
5.0395,-1.9613,-8.2948,-0.040928,0.0018326,0.0042761,-0.48,-24.24,84.54
4.9987,-1.9613,-8.2812,-0.041233,0.018937,0.0076358,-0.48,-24.24,84.6
5.094,-1.9613,-8.3357,-0.040623,0.019242,0.010079,-0.48,-24.3,84.54
5.1076,-1.9341,-8.2948,-0.033598,0.0030543,0.0085521,-0.6,-24.3,84.54
5.094,-1.9205,-8.2812,-0.029627,-0.0073304,0.012217,-0.66,-24.48,84.6
5.0804,-1.866,-8.2539,-0.036652,-0.016188,0.01069,-0.78,-24.6,84.66
5.0668,-1.9068,-8.2812,-0.029932,-0.027184,0.0076358,-0.72,-24.48,84.72
4.9987,-1.9068,-8.2539,-0.03879,-0.022602,0.015577,-0.78,-24.6,84.84
5.0123,-1.9341,-8.322,-0.029627,-0.0082467,0.010079,-0.78,-24.6,84.78
5.0531,-1.9886,-8.2539,-0.038485,0.0027489,0.016799,-0.84,-24.54,84.84
5.094,-1.9341,-8.2812,-0.034819,-0.0027489,0.019548,-0.72,-24.54,84.9
5.1076,-1.8932,-8.322,-0.037568,-0.0061087,0.018937,-0.84,-24.54,84.9
5.1076,-1.8932,-8.2131,-0.025656,-0.015577,0.014355,-0.78,-24.6,84.96
5.1076,-2.0158,-8.3084,-0.034819,-0.010385,0.016493,-0.78,-24.72,84.96
5.0531,-1.9613,-8.2812,-0.033292,-0.009163,0.013744,-0.72,-24.72,84.72
5.0395,-1.9613,-8.3357,-0.029932,-0.010996,0.01069,-0.78,-24.66,84.78
5.0259,-1.9341,-8.3493,-0.03207,-0.007025,0.013134,-0.78,-24.72,84.96
5.0123,-1.8796,-8.3493,-0.034819,0.000916,0.018021,-0.66,-24.54,84.78
5.0668,-1.9068,-8.322,-0.030543,0.0012217,0.013439,-0.66,-24.66,84.84
5.0259,-1.9341,-8.322,-0.029932,-0.0024435,0.017715,-0.48,-24.54,84.9
5.0531,-1.9068,-8.322,-0.03207,-0.0088575,0.019242,-0.48,-24.36,84.78
4.9714,-1.9613,-8.2539,-0.029627,-0.01069,0.0064141,-0.48,-24.48,84.78
4.9987,-1.975,-8.3493,-0.037263,0.0024435,0.01069,-0.72,-24.3,84.72
5.0395,-1.9205,-8.322,-0.033903,0.019853,0.019548,-0.72,-24.36,84.72
5.0668,-1.9613,-8.1995,-0.032987,0.010996,0.016188,-0.78,-24.24,84.72
5.1485,-1.9341,-8.2131,-0.029322,-0.000611,0.013134,-0.72,-24.06,84.66
5.0668,-1.8932,-8.322,-0.032376,-0.0085521,0.015272,-0.84,-24.06,84.84
5.0123,-1.9477,-8.2812,-0.025351,-0.019242,0.010996,-0.84,-24.12,84.78
4.985,-1.9341,-8.2267,-0.035736,-0.0082467,0.0082467,-0.72,-23.94,84.72
4.985,-1.9341,-8.4174,-0.034514,-0.007025,0.0079412,-0.66,-24.0,84.72
5.0531,-1.9477,-8.3084,-0.029322,0.000305,0.010079,-0.66,-23.94,84.6
4.9987,-1.8932,-8.2539,-0.038485,0.0079412,0.015577,-0.96,-23.94,84.48
5.0395,-1.9205,-8.2403,-0.027184,0.0085521,0.016493,-0.78,-24.0,84.48
5.0259,-1.9205,-8.2131,-0.027489,-0.0024435,0.018631,-0.72,-23.88,84.54
5.0531,-1.9613,-8.322,-0.030543,-0.0054978,0.018631,-0.6,-24.0,84.48
5.0531,-1.9477,-8.2539,-0.0281,-0.0018326,0.02138,-0.42,-24.18,84.66
4.9987,-1.8932,-8.3084,-0.037874,-0.0012217,0.011301,-0.36,-24.18,84.66
5.0395,-1.9477,-8.3493,-0.032376,0.0036652,0.016188,-0.36,-24.18,84.72
5.0259,-1.9068,-8.3493,-0.036652,0.000916,0.021686,-0.3,-24.18,84.66
5.0531,-1.9341,-8.2267,-0.022297,-0.0054978,0.013439,-0.24,-24.24,84.6
5.094,-1.9205,-8.2812,-0.021991,-0.017715,0.013744,-0.18,-24.3,84.42
4.9987,-1.9886,-8.2812,-0.028711,-0.016493,0.018631,-0.3,-24.36,84.54
4.9987,-1.9068,-8.3765,-0.031154,-0.010996,0.01405,-0.3,-24.42,84.6
4.9987,-1.9341,-8.3765,-0.034819,-0.0024435,0.015272,-0.3,-24.6,84.66
4.985,-1.9205,-8.2539,-0.033903,0.02138,0.021075,-0.36,-24.66,84.6
5.1076,-1.9477,-8.2539,-0.028711,0.020159,0.020769,-0.18,-24.66,84.66
5.094,-1.9613,-8.3493,-0.028405,0.0058032,0.021991,-0.3,-24.6,84.54
5.094,-1.9613,-8.2812,-0.030849,-0.0058032,0.01741,-0.24,-24.42,84.42
5.0531,-1.9886,-8.2948,-0.03146,-0.012217,0.012523,-0.36,-24.48,84.42
4.985,-1.975,-8.322,-0.030238,-0.014966,0.018631,-0.36,-24.54,84.42
5.0395,-1.975,-8.2812,-0.03207,-0.0027489,0.0088575,-0.42,-24.48,84.54
4.9987,-1.8932,-8.3493,-0.036041,0.002138,0.014661,-0.54,-24.36,84.6
5.0259,-1.9341,-8.2539,-0.035736,0.0097738,0.012217,-0.78,-24.3,84.72
5.0804,-1.8932,-8.2948,-0.03543,0.011301,0.020159,-0.66,-24.3,84.66
4.985,-1.9205,-8.2812,-0.036957,0.0088575,0.023518,-0.48,-24.24,84.6
5.094,-2.0294,-8.2812,-0.03146,0.000611,0.021686,-0.24,-24.12,84.72
4.9987,-1.9613,-8.2403,-0.033292,-0.0024435,0.016799,-0.24,-24.12,84.72
4.9578,-1.8524,-8.2812,-0.037263,0.015577,0.021686,-0.3,-24.12,84.54
5.0259,-1.975,-8.2812,-0.036652,0.021075,0.018326,-0.3,-24.24,84.48
5.0259,-1.975,-8.2676,-0.041844,0.021991,0.021075,-0.36,-24.36,84.54
5.094,-1.9205,-8.2539,-0.038179,0.013134,0.015882,-0.36,-24.36,84.24
5.0259,-1.9341,-8.2539,-0.0281,-0.0012217,0.012217,-0.36,-24.36,84.24
4.9987,-1.9341,-8.2539,-0.036041,-0.0054978,0.021991,-0.18,-24.3,84.12
4.9987,-1.9341,-8.2539,-0.023518,0.0042761,0.018937,-0.06,-24.48,84.06
5.0259,-1.9341,-8.2267,-0.032987,0.0030543,0.022297,-0.06,-24.48,83.94
5.0123,-2.0158,-8.322,-0.025656,-0.000611,0.010385,-0.06,-24.66,83.82
5.0531,-1.9477,-8.2131,-0.035125,0.01069,0.01405,-0.06,-24.54,83.76
5.0259,-1.9341,-8.2812,-0.036041,0.010079,0.015577,-0.18,-24.54,83.7
5.094,-1.9613,-8.3084,-0.033292,0.0045815,0.01741,-0.12,-24.48,83.76
5.1076,-1.9341,-8.2267,-0.032987,-0.0033598,0.020464,-0.3,-24.48,83.76
5.0531,-1.9341,-8.2539,-0.033598,-0.0061087,0.011606,-0.24,-24.3,83.94
5.0531,-1.9341,-8.3357,-0.034819,-0.0042761,0.013439,-0.12,-24.18,83.94
5.1757,-1.9477,-8.1858,-0.03207,0.0042761,0.014661,-0.24,-24.24,84.24
4.9987,-1.9341,-8.2403,-0.031765,0.011912,0.011301,-0.36,-24.24,84.24
5.0668,-1.9341,-8.2403,-0.034514,0.014966,0.015882,-0.48,-24.24,84.24
5.0668,-1.9068,-8.2539,-0.030238,0.0054978,0.028711,-0.48,-24.12,84.18
5.0804,-1.9341,-8.2539,-0.031154,-0.016493,0.025656,-0.48,-24.18,84.36
5.1213,-1.9205,-8.2539,-0.026573,-0.026267,0.015882,-0.48,-24.12,84.36
5.0259,-1.9886,-8.2539,-0.03543,-0.023824,0.0076358,-0.6,-24.06,84.42
5.0123,-1.9886,-8.2539,-0.03543,0.0036652,0.0088575,-0.66,-24.06,84.6
5.0123,-1.9613,-8.2948,-0.042761,0.0097738,0.0048869,-0.66,-24.06,84.6
5.0259,-1.8932,-8.2812,-0.040623,0.013134,0.010996,-0.66,-24.36,84.6
5.0259,-1.9205,-8.2403,-0.038485,0.016799,0.014355,-0.66,-24.42,84.6
5.1076,-1.9205,-8.3084,-0.037874,-0.0048869,0.018631,-0.72,-24.54,84.66
5.1076,-1.8796,-8.2812,-0.02474,-0.023518,0.014355,-0.66,-24.48,84.42
4.9987,-1.9341,-8.3084,-0.028405,-0.026573,0.0079412,-0.6,-24.42,84.48
4.9987,-1.9477,-8.3493,-0.034514,-0.021075,0.0039706,-0.54,-24.54,84.54
4.9442,-1.9613,-8.3765,-0.03543,0.0088575,0.0064141,-0.6,-24.6,84.72
4.9578,-1.8932,-8.2948,-0.046426,0.038179,0.016799,-0.66,-24.42,84.66
5.0259,-1.9341,-8.3493,-0.039706,0.045815,0.018937,-0.72,-24.48,84.66
5.1485,-1.9205,-8.2131,-0.04612,0.033598,0.018631,-0.66,-24.72,84.78
5.1213,-1.9613,-8.2267,-0.029627,0.0036652,0.013134,-0.72,-24.78,84.66
5.0395,-1.8932,-8.2403,-0.033292,-0.019242,0.014966,-0.6,-24.84,84.66
5.0123,-1.9886,-8.2403,-0.029932,-0.025656,0.010385,-0.78,-24.66,84.72
4.9578,-2.0567,-8.2267,-0.034208,-0.016799,0.0097738,-0.78,-24.72,84.66
4.9987,-1.9886,-8.2812,-0.038179,-0.000305,0.013134,-0.72,-24.6,84.66
5.0123,-1.9341,-8.3493,-0.038179,0.011912,0.018021,-0.72,-24.6,84.6
5.094,-1.9205,-8.2131,-0.035736,0.012217,0.017104,-0.78,-24.48,84.42
5.094,-2.0158,-8.2948,-0.027184,-0.002138,0.014355,-0.96,-24.48,84.42
5.0395,-1.9341,-8.322,-0.026573,-0.0076358,0.014661,-0.9,-24.42,84.42
5.094,-1.9341,-8.322,-0.029932,-0.012828,0.012828,-0.9,-24.48,84.36
5.0395,-1.9613,-8.2539,-0.029932,-0.0027489,0.007025,-0.78,-24.42,84.3
5.0123,-1.9886,-8.1995,-0.043677,0.0058032,0.025656,-0.78,-24.42,84.3
5.0804,-1.975,-8.2539,-0.040928,0.01405,0.017104,-0.72,-24.3,84.24
5.0259,-1.9341,-8.1995,-0.034514,0.0079412,0.015577,-0.9,-24.36,84.3
5.0668,-1.9341,-8.2131,-0.025656,0.0030543,0.0085521,-0.66,-24.36,84.18
5.0259,-1.866,-8.2676,-0.029016,-0.010385,0.015577,-0.6,-24.36,84.12
5.0395,-1.9477,-8.3084,-0.02474,-0.0051924,0.01741,-0.54,-24.3,84.18
5.0531,-1.9205,-8.2948,-0.032681,-0.010079,0.013134,-0.54,-24.36,84.18
4.985,-1.866,-8.322,-0.030849,-0.01069,0.0082467,-0.42,-24.48,84.36
4.9987,-1.9205,-8.2948,-0.037874,0.0024435,0.011606,-0.18,-24.36,84.36
5.0531,-1.9068,-8.2539,-0.034208,0.012217,0.025656,-0.3,-24.54,84.24
5.094,-1.8932,-8.2812,-0.028711,-0.0024435,0.019548,-0.3,-24.54,84.42
5.0668,-1.9341,-8.3084,-0.025656,-0.023213,0.018631,-0.42,-24.66,84.48
5.0395,-1.9613,-8.2676,-0.028711,-0.026573,0.015272,-0.42,-24.6,84.48
4.9714,-1.9886,-8.1722,-0.037568,-0.0097738,0.01405,-0.48,-24.54,84.48
4.9987,-1.9886,-8.2403,-0.036041,0.0094684,0.013134,-0.42,-24.48,84.54
4.985,-1.9477,-8.3493,-0.03543,0.022602,0.014355,-0.42,-24.42,84.72
5.0804,-1.8932,-8.2948,-0.038179,0.020464,0.011912,-0.42,-24.3,84.78
5.0668,-1.9477,-8.2131,-0.031154,0.012217,0.015577,-0.54,-24.3,84.72
5.094,-1.9477,-8.2948,-0.026267,-0.01069,0.014966,-0.6,-24.3,84.84
4.9987,-1.9613,-8.2539,-0.032681,-0.013134,0.021686,-0.72,-24.3,84.84
5.0123,-1.9613,-8.2539,-0.030849,-0.021991,0.015272,-0.84,-24.3,84.84
4.9714,-1.9341,-8.1722,-0.030849,-0.019242,0.027794,-0.78,-24.24,84.84
4.9306,-1.9613,-8.2539,-0.030543,-0.0094684,0.023824,-0.78,-24.24,84.78
4.9578,-1.9068,-8.322,-0.035125,-0.000611,0.013439,-0.78,-24.12,84.78
5.0123,-1.866,-8.2812,-0.040623,0.000611,0.022907,-0.72,-24.12,84.84
5.0123,-1.9205,-8.3357,-0.033903,0.0048869,0.019853,-0.72,-24.12,84.78
4.985,-1.8796,-8.3357,-0.029627,0.0018326,0.018937,-0.72,-24.12,84.66
4.9578,-1.9613,-8.3765,-0.034514,0.000916,0.010385,-0.9,-24.06,84.6
5.0259,-1.866,-8.2812,-0.042761,0.020769,0.0097738,-0.9,-24.24,84.6
4.9306,-1.8796,-8.2131,-0.040928,0.018021,0.0058032,-0.66,-24.06,84.78
4.9578,-1.9477,-8.1995,-0.041844,0.02138,0.013439,-0.54,-24.12,84.66
5.0259,-1.9205,-8.1995,-0.036041,0.028711,0.015882,-0.48,-24.06,84.6
5.1213,-1.9477,-8.2676,-0.044288,0.028711,0.020769,-0.42,-24.12,84.6
5.1213,-1.8796,-8.2131,-0.035736,-0.007025,0.021075,-0.48,-24.12,84.54
5.1076,-1.9068,-8.1586,-0.027184,-0.015577,0.022297,-0.42,-24.18,84.48
5.1213,-1.975,-8.2403,-0.027184,-0.027184,0.009163,-0.24,-24.3,84.36
4.9987,-1.975,-8.2267,-0.029932,-0.017104,0.010079,-0.24,-24.36,84.42
4.9442,-1.9068,-8.1995,-0.031765,0.0061087,0.010079,-0.18,-24.42,84.48
4.9987,-1.9341,-8.2131,-0.034819,0.0085521,0.018937,-0.3,-24.42,84.48
5.1894,-1.866,-8.1586,-0.037568,0.0064141,0.020464,-0.24,-24.36,84.6
5.0804,-1.866,-8.2131,-0.023824,-0.01069,0.019853,-0.12,-24.24,84.6
5.1076,-1.9613,-8.2948,-0.025351,-0.022297,0.019853,-0.3,-24.3,84.48
5.0668,-1.975,-8.1858,-0.028711,-0.021686,0.020159,-0.42,-24.3,84.42
4.9987,-2.0022,-8.2676,-0.031154,-0.013439,0.013134,-0.42,-24.36,84.42
5.0123,-1.9341,-8.2812,-0.03543,-0.0024435,0.014661,-0.36,-24.42,84.42
4.985,-1.866,-8.3493,-0.036957,0.0076358,0.016493,-0.36,-24.42,84.6
5.0531,-1.8796,-8.2812,-0.03207,0.0061087,0.016493,-0.36,-24.54,84.66
5.0531,-1.9613,-8.2812,-0.0281,-0.0048869,0.018326,-0.48,-24.36,84.66
5.0531,-1.9613,-8.2812,-0.026573,-0.011912,0.013439,-0.54,-24.24,84.6
5.0259,-1.975,-8.322,-0.031154,-0.009163,0.016188,-0.6,-24.12,84.6
4.9714,-1.9886,-8.3357,-0.033292,0.002138,0.014966,-0.48,-24.06,84.6
4.9987,-1.9613,-8.2948,-0.033598,0.014661,0.0085521,-0.48,-24.0,84.66
5.0531,-1.9205,-8.2267,-0.031154,0.011301,0.014966,-0.42,-24.12,84.6
5.0395,-1.9205,-8.2539,-0.040012,0.011912,0.012217,-0.36,-24.24,84.66
5.0123,-1.9613,-8.2539,-0.031765,0.012523,0.015577,-0.36,-24.36,84.66
5.1349,-1.9205,-8.2403,-0.029627,0.0039706,0.018631,-0.42,-24.3,84.66
5.0531,-1.9886,-8.2403,-0.031765,-0.0033598,0.018937,-0.36,-24.42,84.78
5.0531,-1.9205,-8.2131,-0.029932,-0.015882,0.016799,-0.36,-24.42,84.72
5.0531,-1.9341,-8.2403,-0.032681,-0.021991,0.0094684,-0.36,-24.3,84.66
5.0259,-1.9477,-8.3493,-0.032376,-0.0039706,0.014966,-0.24,-24.36,84.84
5.0259,-1.9886,-8.3084,-0.032376,0.009163,0.01069,-0.18,-24.54,84.78
5.0531,-1.9613,-8.322,-0.043066,0.0085521,0.012828,-0.24,-24.6,84.66
5.1076,-1.9205,-8.2403,-0.032987,0.0042761,0.018937,-0.48,-24.66,84.66
5.1485,-1.9068,-8.2539,-0.027184,-0.0094684,0.019548,-0.42,-24.84,84.6
5.094,-1.8932,-8.2131,-0.027489,-0.018326,0.018021,-0.42,-24.78,84.54
5.1213,-1.9886,-8.2403,-0.027794,-0.018937,0.018937,-0.48,-24.72,84.42
5.0668,-1.9613,-8.2539,-0.036346,-0.013134,0.019548,-0.48,-24.78,84.36
4.9578,-1.9613,-8.2403,-0.033903,-0.0061087,0.01405,-0.54,-24.66,84.24
4.985,-1.975,-8.2267,-0.033598,0.010996,0.014355,-0.48,-24.54,84.18
5.0259,-1.9477,-8.2812,-0.031154,0.016493,0.015577,-0.54,-24.54,84.3
5.0804,-1.9477,-8.2812,-0.040012,0.0094684,0.019548,-0.42,-24.66,84.42
5.0531,-1.8932,-8.2403,-0.032376,-0.0058032,0.016799,-0.48,-24.72,84.54
5.0259,-1.9886,-8.2676,-0.036041,-0.013134,0.011301,-0.78,-24.6,84.6
4.9714,-1.9613,-8.1858,-0.030849,-0.0058032,0.014355,-0.78,-24.54,84.72
5.0531,-1.9613,-8.3629,-0.03207,0.002138,0.015577,-0.48,-24.3,84.6
4.9987,-1.9477,-8.4038,-0.037263,0.0036652,0.01405,-0.6,-24.3,84.54
5.0395,-2.0431,-8.2267,-0.041539,0.015882,0.010996,-0.6,-24.24,84.54
5.0531,-1.8932,-8.2676,-0.031154,0.01741,0.018937,-0.66,-24.18,84.72
5.1076,-1.866,-8.2812,-0.028711,-0.0015272,0.024435,-0.66,-24.12,84.78
5.0668,-1.9477,-8.2812,-0.0281,-0.015272,0.023824,-0.72,-24.18,84.84
4.9987,-2.0294,-8.2267,-0.03146,-0.022907,0.018021,-0.72,-24.3,84.96
4.9987,-1.9886,-8.2539,-0.030238,-0.018021,0.013439,-0.66,-24.18,84.72
4.9578,-1.9341,-8.322,-0.038179,-0.011301,0.017715,-0.78,-24.18,84.48
5.0123,-1.9341,-8.2812,-0.03543,0.0088575,0.012217,-0.54,-24.18,84.42
4.9578,-1.9341,-8.2676,-0.042761,0.020769,0.013439,-0.42,-24.12,84.3
4.9987,-1.9205,-8.2676,-0.033292,0.02138,0.0088575,-0.42,-24.36,84.36
5.094,-1.9341,-8.2676,-0.031154,0.010996,0.017104,-0.54,-24.54,84.42
5.1213,-1.9068,-8.2812,-0.025045,-0.0082467,0.020159,-0.48,-24.36,84.36
5.1076,-1.9068,-8.1177,-0.026878,-0.009163,0.020464,-0.6,-24.36,84.42
5.0531,-1.9341,-8.3084,-0.036041,-0.010385,0.01741,-0.6,-24.48,84.36
5.0123,-1.9477,-8.2131,-0.036957,-0.0048869,0.016493,-0.42,-24.48,84.24
4.9578,-1.9477,-8.2948,-0.037874,0.0061087,0.019242,-0.48,-24.36,84.24
5.0259,-1.8932,-8.2948,-0.043982,0.013439,0.017104,-0.42,-24.36,84.24
5.0259,-1.9205,-8.2131,-0.043066,0.010996,0.016799,-0.66,-24.42,84.3
5.0259,-1.9341,-8.3084,-0.029016,0.000611,0.020464,-0.66,-24.36,84.54
5.0668,-1.9477,-8.2812,-0.026573,-0.0033598,0.019853,-0.48,-24.36,84.48
5.1485,-1.9205,-8.3357,-0.025045,-0.013134,0.020769,-0.66,-24.42,84.54
4.9987,-1.9341,-8.2812,-0.023824,-0.011606,0.0067195,-0.66,-24.24,84.66
5.0259,-1.9341,-8.2403,-0.032987,0.0030543,0.016188,-0.54,-24.12,84.66
5.0123,-1.9068,-8.2812,-0.037568,0.0097738,0.01741,-0.48,-24.06,84.6
5.0804,-1.975,-8.2131,-0.028405,0.000916,0.025045,-0.3,-24.12,84.6
5.0804,-1.975,-8.2812,-0.027184,-0.012523,0.013744,-0.3,-23.94,84.6
5.0259,-1.9613,-8.2403,-0.033598,-0.018021,0.019548,-0.42,-24.12,84.72
4.985,-1.975,-8.3084,-0.036346,-0.017715,0.015272,-0.3,-24.18,84.6
4.9578,-2.0022,-8.4174,-0.043982,0.0064141,0.0097738,-0.24,-24.18,84.54
4.9714,-1.9205,-8.2539,-0.047037,0.028405,0.000611,-0.24,-24.18,84.54
5.0259,-1.9341,-8.3493,-0.048258,0.048564,0.0088575,-0.24,-24.24,84.54
5.0804,-1.8932,-8.2403,-0.041233,0.045509,0.022297,-0.3,-24.3,84.54
5.1757,-1.9341,-8.2267,-0.028711,0.018021,0.022602,-0.24,-24.24,84.42
5.1621,-2.0022,-8.2131,-0.037874,-0.02138,0.017715,-0.36,-24.3,84.18
5.0395,-1.9886,-8.2812,-0.032987,-0.026573,0.007025,-0.3,-24.36,84.12
4.985,-1.9886,-8.3493,-0.035125,-0.016188,0.0045815,-0.54,-24.48,84.18
4.9306,-1.9068,-8.2676,-0.032376,0.01741,0.012523,-0.72,-24.42,84.24
4.985,-1.8932,-8.2948,-0.039401,0.026878,0.0079412,-0.54,-24.48,84.24
5.094,-1.866,-8.1858,-0.04612,0.026573,0.022907,-0.36,-24.36,84.24
5.0395,-1.8932,-8.2948,-0.033598,0.0058032,0.023824,-0.42,-24.48,84.36
5.0668,-1.8932,-8.1995,-0.033292,-0.015577,0.022297,-0.48,-24.36,84.36
5.0531,-1.9886,-8.2131,-0.020769,-0.023824,0.019242,-0.36,-24.24,84.24
5.0259,-1.9886,-8.2676,-0.0281,-0.0079412,0.025351,-0.42,-24.06,84.18
4.9578,-2.0294,-8.2539,-0.033903,-0.0015272,0.023213,-0.24,-24.0,84.24
5.0668,-2.0022,-8.2267,-0.036346,-0.000916,0.014355,-0.24,-24.12,84.18
5.0668,-1.9886,-8.2131,-0.029627,-0.0036652,0.012828,-0.18,-24.18,84.24
5.094,-1.9477,-8.2948,-0.034514,-0.0018326,0.012523,-0.3,-24.18,84.36
5.0395,-1.9613,-8.2676,-0.023518,-0.013439,0.016799,-0.42,-24.18,84.36
5.0259,-1.9341,-8.3493,-0.03207,-0.0097738,0.016188,-0.36,-24.18,84.42
5.0668,-1.9341,-8.2539,-0.03207,-0.011912,0.014355,-0.48,-24.06,84.42
5.0259,-1.9205,-8.3084,-0.02474,-0.0094684,0.018021,-0.6,-24.0,84.42
5.0123,-1.9205,-8.322,-0.03543,-0.0058032,0.016188,-0.54,-23.94,84.36
5.0259,-1.9205,-8.2403,-0.037874,0.0027489,0.021686,-0.48,-24.06,84.42
5.0531,-1.9341,-8.2131,-0.037263,0.0076358,0.0082467,-0.48,-24.0,84.54
5.0531,-1.9341,-8.2812,-0.031765,0.0067195,0.013744,-0.48,-24.18,84.54
5.094,-1.9886,-8.2131,-0.036652,0.0076358,0.013439,-0.6,-24.3,84.48
5.1213,-1.975,-8.2539,-0.029322,-0.0027489,0.020159,-0.6,-24.24,84.54
5.1213,-1.9205,-8.2131,-0.03207,-0.0064141,0.019853,-0.6,-24.18,84.66
5.0259,-1.9205,-8.2948,-0.030543,-0.013134,0.011301,-0.54,-24.3,84.6
4.985,-1.8932,-8.2812,-0.024129,-0.012217,0.016493,-0.42,-24.36,84.6
5.0123,-1.9341,-8.2812,-0.029016,-0.002138,0.016188,-0.36,-24.36,84.42
5.0531,-1.9613,-8.322,-0.03207,0.0012217,0.018631,-0.42,-24.36,84.36
5.094,-1.9613,-8.2131,-0.033292,0.000916,0.013439,-0.42,-24.36,84.54
5.0668,-1.9886,-8.3629,-0.029016,-0.0051924,0.01405,-0.54,-24.36,84.54
5.0123,-1.9886,-8.2948,-0.031154,-0.007025,0.018326,-0.6,-24.48,84.66
5.0531,-1.975,-8.3357,-0.031765,-0.0051924,0.013439,-0.66,-24.48,84.54
4.9987,-1.9477,-8.3765,-0.029322,-0.000305,0.018937,-0.48,-24.54,84.48
4.9306,-1.9613,-8.431,-0.034514,0.016493,0.011606,-0.54,-24.42,84.54
5.0531,-1.9477,-8.2948,-0.032987,0.025656,0.022602,-0.54,-24.48,84.6
5.1349,-1.9068,-8.1586,-0.03207,0.015577,0.026878,-0.6,-24.42,84.42
5.1349,-1.9613,-8.2676,-0.030238,-0.016188,0.016799,-0.6,-24.48,84.42
5.1213,-1.9613,-8.2676,-0.024435,-0.030238,0.014355,-0.54,-24.36,84.48
4.9578,-1.9886,-8.2948,-0.026573,-0.025656,0.013744,-0.54,-24.36,84.66
4.9306,-2.0022,-8.3084,-0.03207,-0.0094684,0.011606,-0.48,-24.42,84.78
4.9306,-1.9613,-8.2948,-0.03543,0.013744,0.013134,-0.36,-24.54,84.72
4.9987,-1.8932,-8.322,-0.036957,0.025962,0.015272,-0.36,-24.48,84.6
5.0531,-1.9341,-8.2131,-0.036041,0.024129,0.012828,-0.42,-24.36,84.48
5.094,-1.8932,-8.2131,-0.040623,0.015882,0.017104,-0.42,-24.36,84.6
5.1076,-1.9205,-8.2539,-0.033598,0.0079412,0.014966,-0.72,-24.36,84.72
5.0531,-1.9613,-8.3084,-0.029627,-0.0015272,0.016188,-0.72,-24.36,84.66
5.0531,-1.975,-8.3629,-0.03207,0.0024435,0.011301,-0.78,-24.36,84.6
5.0259,-1.9886,-8.2812,-0.028405,0.0027489,0.012828,-0.6,-24.3,84.54
5.0259,-1.975,-8.2267,-0.034208,0.0018326,0.019242,-0.54,-24.3,84.48
5.0531,-1.9613,-8.4174,-0.03543,0.0058032,0.019242,-0.66,-24.48,84.6
5.0531,-1.9341,-8.2676,-0.031154,-0.011606,0.014661,-0.54,-24.36,84.48
5.0259,-1.9341,-8.3084,-0.033292,-0.0073304,0.022907,-0.66,-24.36,84.42
4.9578,-1.9886,-8.2131,-0.03207,-0.0082467,0.026267,-0.78,-24.36,84.42
5.0395,-1.9886,-8.2812,-0.030849,-0.0042761,0.018631,-0.72,-24.54,84.3
5.0668,-1.9341,-8.3084,-0.031765,-0.011301,0.023824,-0.66,-24.54,84.24
5.0123,-1.9613,-8.3084,-0.039095,-0.0054978,0.015272,-0.72,-24.42,84.12
5.0123,-1.9613,-8.2812,-0.032681,0.0073304,0.015577,-0.6,-24.48,84.12
4.9987,-1.9613,-8.2948,-0.029932,0.011912,0.017715,-0.48,-24.54,84.18
5.0668,-1.9341,-8.2676,-0.026878,0.007025,0.021075,-0.36,-24.48,84.24
5.0531,-1.8932,-8.3084,-0.027794,-0.0085521,0.025351,-0.48,-24.54,84.36
5.0668,-1.9477,-8.2131,-0.035125,-0.0030543,0.017104,-0.24,-24.48,84.36
4.9578,-1.9613,-8.3765,-0.032681,-0.000916,0.010079,-0.06,-24.48,84.48
4.9987,-1.9613,-8.2812,-0.03879,0.011912,0.009163,-0.06,-24.42,84.36
4.9987,-1.975,-8.2267,-0.046426,0.026267,0.013744,0.18,-24.36,84.42
5.094,-1.9341,-8.2539,-0.040012,0.027794,0.012828,0.24,-24.36,84.24
5.0668,-1.9068,-8.2131,-0.042455,0.01741,0.021686,0.18,-24.3,84.3
5.094,-1.9886,-8.2539,-0.037874,-0.0018326,0.014966,0.24,-24.36,84.42
5.1076,-1.975,-8.2676,-0.03207,-0.011912,0.0064141,0.3,-24.48,84.3
5.0531,-1.975,-8.3084,-0.037568,-0.0045815,0.0076358,0.12,-24.42,84.3
5.0531,-1.9613,-8.3084,-0.039706,0.0094684,0.0064141,-0.18,-24.54,84.18
5.0259,-1.9886,-8.2539,-0.033903,0.009163,0.0051924,-0.24,-24.48,84.18
5.0668,-1.9341,-8.2948,-0.037568,0.0033598,0.0094684,-0.24,-24.6,84.12
5.094,-1.9341,-8.2676,-0.033292,-0.0097738,0.0033598,-0.3,-24.6,84.18
5.0804,-1.9341,-8.2539,-0.03543,-0.011912,0.007025,-0.24,-24.54,84.18
4.9578,-1.8932,-8.2539,-0.032987,-0.0015272,0.019242,-0.24,-24.54,84.24
5.0259,-1.9341,-8.2539,-0.033903,0.0088575,0.015577,-0.18,-24.36,84.06
5.094,-1.9341,-8.2539,-0.039706,0.0094684,0.018021,-0.24,-24.24,84.06
5.0668,-1.975,-8.2131,-0.031765,-0.000305,0.018021,-0.48,-24.12,84.12
5.0395,-1.975,-8.2131,-0.033903,0.002138,0.012523,-0.42,-24.12,84.06
5.094,-1.9613,-8.1858,-0.041844,0.0039706,0.0085521,-0.3,-23.94,84.24
5.1213,-1.8932,-8.2812,-0.032376,0.0030543,0.0067195,-0.24,-23.88,84.12
5.1213,-1.9613,-8.2403,-0.030849,-0.0012217,0.016799,-0.36,-23.88,84.3
5.094,-1.8796,-8.2539,-0.032987,-0.0082467,0.015882,-0.36,-23.82,84.24
5.0259,-1.9341,-8.2812,-0.028405,-0.031154,0.011606,-0.48,-24.06,84.12
4.9578,-1.9477,-8.322,-0.031765,-0.021991,0.0085521,-0.36,-24.0,84.12
5.0259,-1.9341,-8.3357,-0.034819,-0.01069,0.0058032,-0.42,-24.18,84.24
4.9714,-1.9068,-8.2539,-0.032376,0.0058032,0.014661,-0.48,-24.24,84.06
5.0531,-1.9068,-8.2403,-0.037263,0.019853,0.012828,-0.66,-24.18,84.24
5.0668,-1.9341,-8.2539,-0.036346,0.015272,0.021686,-0.54,-24.18,84.18
5.1076,-1.9341,-8.2539,-0.021686,-0.0015272,0.015577,-0.6,-24.12,84.12
5.094,-1.9205,-8.2812,-0.027794,-0.01405,0.022297,-0.54,-24.3,84.18
5.0259,-1.9205,-8.2676,-0.037874,-0.013744,0.01741,-0.42,-24.6,84.18
5.0668,-1.9068,-8.1722,-0.028711,-0.0088575,0.013744,-0.48,-24.6,84.24
5.0668,-1.9341,-8.2676,-0.031765,-0.0027489,0.023518,-0.48,-24.54,84.42
5.1485,-1.9613,-8.2812,-0.023213,-0.0082467,0.015577,-0.48,-24.48,84.48
5.094,-1.9613,-8.2539,-0.034208,-0.013744,0.012828,-0.36,-24.48,84.6
4.9987,-1.9341,-8.2812,-0.031154,-0.015577,0.017104,-0.3,-24.66,84.54
5.0259,-1.9205,-8.322,-0.03146,-0.01069,0.018326,-0.36,-24.72,84.54
5.0531,-1.9477,-8.4038,-0.032681,-0.009163,0.018937,-0.3,-24.84,84.66
5.0668,-1.9886,-8.2539,-0.029016,-0.0082467,0.016493,-0.42,-24.78,84.66
4.9714,-1.9886,-8.2676,-0.033598,-0.013439,0.01741,-0.42,-24.54,84.72
5.0123,-1.9886,-8.2539,-0.03146,0.0027489,0.014966,-0.36,-24.48,84.6
5.0804,-1.9341,-8.2812,-0.033598,0.0067195,0.024435,-0.36,-24.48,84.6
5.0668,-1.9341,-8.2676,-0.025656,-0.0054978,0.017715,-0.36,-24.6,84.6
5.0668,-1.9477,-8.2539,-0.033292,-0.018937,0.022297,-0.36,-24.72,84.54
5.0395,-1.9068,-8.2539,-0.032681,-0.024435,0.015577,-0.36,-24.66,84.48
4.9714,-1.9341,-8.4174,-0.029016,-0.0085521,0.018937,-0.24,-24.54,84.42
4.985,-1.9613,-8.2539,-0.036346,0.018937,0.017715,-0.18,-24.42,84.3
5.0395,-1.9341,-8.2812,-0.038485,0.025656,0.018631,-0.3,-24.66,84.24
5.0395,-1.9613,-8.2539,-0.032376,0.013744,0.014355,-0.24,-24.78,84.18
5.0531,-1.9341,-8.2539,-0.033598,0.0058032,0.018631,-0.24,-24.78,84.12
5.0123,-1.9613,-8.2812,-0.034514,-0.000305,0.022602,-0.42,-24.72,84.18
5.0804,-1.9886,-8.2812,-0.029627,0.0030543,0.029322,-0.3,-24.66,84.18
5.0395,-1.9613,-8.3493,-0.036957,0.000305,0.029016,-0.3,-24.54,84.3
5.0123,-1.8932,-8.2812,-0.032987,-0.000305,0.019548,-0.12,-24.54,84.3
4.9714,-1.9341,-8.2539,-0.032376,0.011301,0.018937,-0.18,-24.6,84.36
5.0259,-1.9613,-8.3084,-0.027489,0.009163,0.012828,-0.06,-24.6,84.42
5.1894,-1.9613,-8.2539,-0.029932,0.0064141,0.010996,-0.06,-24.54,84.6
