Ax,Ay,Az,Gx,Gy,Gz,Mx,My,Mz
9.6023,-0.62654,-2.0975,-0.023824,-0.076358,-0.03207,-47.28,-19.32,23.7
9.5479,-0.49033,-2.1248,-0.013439,-0.10232,0.0012217,-47.46,-19.32,23.88
9.5479,-0.49033,-2.1248,-0.000916,-0.11393,-0.0073304,-47.46,-19.32,23.88
9.5479,-0.49033,-2.1248,-0.000305,-0.11148,-0.014661,-47.46,-19.32,23.88
9.7249,-0.64016,-2.4108,0.0027489,-0.12339,-0.011301,-47.16,-19.08,23.94
9.5615,-0.70826,-2.438,-0.014966,-0.090408,0.0015272,-46.86,-19.2,24.12
9.4934,-0.6674,-2.3155,-0.044288,-0.020464,-0.0039706,-46.68,-19.2,24.3
9.7658,-0.77636,-2.1248,-0.05681,-0.0036652,-0.020464,-46.56,-19.32,24.48
9.902,-0.83084,-2.2201,-0.062614,-0.041233,-0.025045,-46.68,-19.32,24.6
9.7794,-0.76274,-2.1656,-0.062003,-0.069333,-0.012217,-46.8,-19.2,24.66
9.6023,-0.76274,-2.1929,-0.067806,-0.07086,0.002138,-46.8,-18.96,24.9
9.4253,-0.70826,-2.2474,-0.057421,-0.043371,0.0082467,-46.86,-19.02,25.02
9.507,-0.61292,-2.2201,-0.052534,0.0082467,0.010079,-46.74,-19.08,25.02
9.6296,-0.55843,-2.152,-0.037568,-0.0039706,0.019853,-46.68,-19.14,25.14
9.8339,-0.57205,-2.152,-0.036957,-0.030849,0.03207,-46.62,-19.08,25.2
9.7385,-0.62654,-2.2882,-0.048869,-0.050396,0.023213,-46.92,-19.08,25.32
9.616,-0.61292,-2.3427,-0.045509,-0.02138,0.025351,-47.04,-19.02,25.26
9.4117,-0.64016,-2.2882,-0.054062,0.0097738,0.033292,-47.16,-19.02,25.38
9.5615,-0.72188,-2.3699,-0.039401,0.050091,0.039401,-47.22,-19.08,25.26
9.6704,-0.70826,-2.3563,-0.0012217,0.069639,0.052534,-47.22,-19.02,25.32
9.7113,-0.70826,-2.3699,0.0061087,0.073915,0.037568,-47.1,-19.08,25.38
9.8066,-0.70826,-2.3836,0.0024435,0.087048,0.043982,-47.16,-19.08,25.32
9.6977,-0.5993,-2.2201,-0.021075,0.085521,0.039095,-46.92,-19.14,25.08
9.6841,-0.57205,-2.1793,-0.021686,0.088881,0.03879,-46.92,-19.02,24.96
9.6432,-0.55843,-2.1384,-0.030543,0.094684,0.036652,-46.86,-18.9,25.08
9.7794,-0.64016,-2.0703,-0.023518,0.11362,0.033903,-46.74,-18.72,25.08
9.7249,-0.68102,-2.0975,-0.023824,0.11393,0.028711,-46.8,-18.72,25.02
9.6977,-0.70826,-2.0294,-0.025045,0.10385,0.027184,-46.8,-18.84,24.84
9.7385,-0.76274,-1.9886,-0.030849,0.086437,0.036346,-46.8,-18.9,24.78
9.8339,-0.6674,-2.0431,-0.023824,0.061087,0.030849,-46.8,-18.78,24.78
9.8066,-0.65378,-2.1112,-0.01405,0.030238,0.024129,-46.92,-18.78,24.78
9.7794,-0.7355,-2.0431,-0.018326,0.039401,0.026267,-47.04,-18.48,24.72
9.7658,-0.62654,-2.0567,-0.013744,0.049175,0.015882,-47.22,-18.48,24.6
9.7658,-0.61292,-2.0294,-0.013439,0.041844,0.015882,-47.22,-18.54,24.72
9.793,-0.54481,-2.0294,-0.0045815,0.024129,-0.0054978,-47.28,-18.66,24.72
9.8339,-0.54481,-2.0567,-0.0079412,0.014661,-0.0054978,-47.34,-18.54,24.96
9.8066,-0.53119,-1.9477,0.0088575,0.0061087,-0.0067195,-47.22,-18.72,24.9
9.7385,-0.57205,-1.9613,0.010385,-0.0024435,-0.011912,-47.4,-18.72,24.78
9.7794,-0.64016,-1.9886,0.0281,-0.0058032,-0.022297,-47.28,-18.84,24.84
9.8066,-0.62654,-2.0158,0.033292,-0.048258,-0.036041,-47.22,-18.9,24.78
9.7658,-0.65378,-2.0703,0.025045,-0.048564,-0.041233,-47.28,-18.9,24.84
9.6977,-0.62654,-2.0294,0.023213,-0.03543,-0.046426,-47.34,-18.9,24.84
9.7113,-0.6674,-2.0294,0.015272,-0.067501,-0.04948,-47.22,-18.78,24.78
9.8611,-0.64016,-2.0431,0.020159,-0.094684,-0.042761,-47.1,-18.9,24.72
9.793,-0.57205,-2.0022,0.042761,-0.11179,-0.054062,-47.04,-18.9,24.72
9.7113,-0.55843,-2.1384,0.051313,-0.11179,-0.047647,-46.98,-18.72,24.72
9.6432,-0.51757,-2.2201,0.054367,-0.085521,-0.027184,-46.98,-18.48,24.72
9.5342,-0.58567,-2.3972,0.058338,-0.048564,-0.020464,-46.92,-18.6,24.6
9.5342,-0.5993,-2.4517,0.036652,-0.022602,-0.0067195,-46.86,-18.54,24.54
9.5751,-0.77636,-2.5742,0.0030543,0.020464,0.023213,-46.74,-18.6,24.78
9.507,-0.81722,-2.4517,-0.037874,0.075136,0.054367,-46.8,-18.54,24.72
9.5887,-0.91256,-2.3018,-0.060781,0.11545,0.064752,-46.68,-18.48,24.78
9.5751,-0.84446,-2.0839,-0.083383,0.15424,0.075747,-46.8,-18.48,24.6
9.6704,-0.77636,-2.0567,-0.0956,0.1463,0.083994,-46.56,-18.54,24.54
9.6977,-0.70826,-1.9341,-0.098044,0.11148,0.094379,-46.68,-18.48,24.48
9.8339,-0.61292,-2.0431,-0.083078,0.054062,0.098044,-46.92,-18.54,24.66
9.8066,-0.74912,-2.0294,-0.082161,0.027184,0.091019,-46.86,-18.54,24.6
9.7385,-0.57205,-2.0567,-0.085521,0.025351,0.089492,-46.8,-18.6,24.48
9.6977,-0.54481,-1.9886,-0.08827,0.025656,0.069333,-46.86,-18.72,24.54
9.7794,-0.47671,-2.0158,-0.082467,0.015577,0.063835,-46.86,-18.6,24.48
9.8203,-0.46309,-1.9341,-0.077885,0.0015272,0.052229,-47.04,-18.36,24.48
9.8339,-0.50395,-1.975,-0.069333,-0.016493,0.050396,-47.1,-18.36,24.24
9.7385,-0.64016,-2.0022,-0.042761,-0.050396,0.036652,-47.22,-18.36,24.06
9.7385,-0.68102,-1.9886,-0.026878,-0.051924,0.036957,-47.34,-18.36,24.06
9.7658,-0.62654,-2.0294,-0.022297,-0.051313,0.02474,-47.1,-18.36,24.0
9.616,-0.76274,-2.1793,-0.016188,-0.028711,0.025045,-47.28,-18.36,24.3
9.7249,-0.7355,-2.2201,-0.025045,0.000611,0.014966,-47.28,-18.48,24.42
9.6977,-0.74912,-2.2201,-0.047037,0.014661,0.024435,-47.1,-18.48,24.42
9.7113,-0.7355,-2.0975,-0.050396,0.0054978,0.023213,-47.22,-18.54,24.42
9.6977,-0.7355,-2.0567,-0.051313,-0.002138,0.035736,-47.16,-18.54,24.36
9.6432,-0.84446,-2.0294,-0.052229,-0.0024435,0.044593,-47.1,-18.48,24.24
9.7522,-0.70826,-2.1384,-0.045815,0.0094684,0.035125,-46.92,-18.48,24.3
9.7658,-0.76274,-2.1929,-0.043677,0.023213,0.028405,-47.04,-18.54,24.3
9.7249,-0.72188,-2.0839,-0.050091,0.023824,0.023213,-47.04,-18.6,24.42
9.7658,-0.64016,-2.0022,-0.053756,0.014661,0.017715,-47.16,-18.54,24.48
9.7385,-0.62654,-1.9886,-0.048869,-0.0036652,0.025351,-47.16,-18.42,24.36
9.7385,-0.64016,-2.0294,-0.040317,-0.012217,0.021075,-47.28,-18.36,24.42
9.6977,-0.64016,-2.0975,-0.032681,-0.000611,0.02138,-47.34,-18.24,24.24
9.7658,-0.68102,-2.1248,-0.030543,0.011301,0.019548,-47.28,-18.24,24.06
9.7385,-0.76274,-2.2201,-0.035125,0.019548,0.014966,-47.4,-18.18,24.06
9.793,-0.64016,-2.0703,-0.025045,0.028711,0.014966,-47.22,-18.24,23.88
9.6977,-0.72188,-2.0839,-0.016188,0.024435,0.01069,-47.34,-18.36,24.0
9.7113,-0.68102,-2.0567,-0.014661,0.019548,0.013134,-47.4,-18.36,24.0
9.7658,-0.65378,-2.152,-0.016188,0.058032,0.0067195,-47.52,-18.36,23.88
9.7658,-0.7355,-2.0431,-0.017715,0.08094,0.0073304,-47.7,-18.54,23.94
9.793,-0.68102,-2.0294,-0.028711,0.087048,0.010079,-47.82,-18.36,23.88
9.7522,-0.6674,-1.8932,-0.025656,0.068417,0.0085521,-47.46,-18.36,23.88
9.8339,-0.7355,-1.8796,-0.039095,0.011912,0.019548,-47.4,-18.48,23.88
9.8611,-0.77636,-1.7979,-0.036957,-0.050091,0.020769,-47.34,-18.48,24.0
9.8611,-0.76274,-1.8387,-0.054978,-0.094073,0.026267,-47.34,-18.6,24.0
9.7658,-0.76274,-1.8796,-0.077885,-0.1292,0.030543,-47.46,-18.42,23.94
9.6841,-0.76274,-1.9886,-0.096211,-0.15027,0.030238,-47.4,-18.42,24.0
9.6977,-0.6674,-2.0839,-0.10934,-0.16096,0.034514,-47.46,-18.18,24.3
9.7658,-0.62654,-2.152,-0.10629,-0.15058,0.048869,-47.34,-18.12,24.24
9.6977,-0.64016,-2.2065,-0.086437,-0.12309,0.051007,-47.22,-18.24,24.36
9.6704,-0.64016,-2.3018,-0.077274,-0.10904,0.049175,-47.1,-18.12,24.6
9.5751,-0.64016,-2.3155,-0.044899,-0.01405,0.030849,-46.92,-18.12,24.6
9.5615,-0.5993,-2.4108,-0.019853,0.06017,0.011912,-46.74,-18.06,24.6
9.6568,-0.6674,-2.3563,0.0058032,0.13897,0.0067195,-46.74,-18.0,24.48
9.7522,-0.69464,-2.2882,0.016799,0.14966,0.0048869,-46.8,-17.94,24.84
9.7385,-0.65378,-2.1384,0.026267,0.19059,-0.0042761,-46.74,-18.0,24.78
9.6977,-0.70826,-2.261,0.019242,0.19517,-0.0033598,-46.74,-17.82,24.78
9.7113,-0.8036,-2.0158,0.0082467,0.2135,-0.0085521,-46.68,-17.82,24.84
9.793,-0.83084,-1.8387,-0.007025,0.20433,-0.020464,-46.68,-17.88,24.78
9.8611,-0.74912,-1.7162,-0.018631,0.11912,-0.0067195,-46.56,-17.94,24.6
9.8203,-0.69464,-1.8115,-0.012523,0.081856,0.0051924,-46.68,-18.12,24.54
9.7385,-0.7355,-1.866,-0.013134,0.025045,0.018021,-46.92,-17.88,24.48
9.7385,-0.74912,-1.9341,-0.022297,0.0042761,0.022297,-46.98,-17.94,24.36
9.8339,-0.6674,-2.0294,-0.047342,0.0030543,0.021686,-47.1,-17.94,24.0
9.7658,-0.62654,-1.8796,-0.061392,-0.0088575,0.020159,-47.22,-18.06,24.0
9.8339,-0.65378,-1.866,-0.075442,-0.034514,0.03146,-47.34,-18.3,24.0
9.8203,-0.64016,-1.8796,-0.068722,-0.078496,0.027489,-47.7,-18.24,23.64
9.7794,-0.62654,-2.0431,-0.05681,-0.091019,0.029932,-47.82,-18.42,23.7
9.7794,-0.69464,-2.0294,-0.059559,-0.095906,0.024129,-47.64,-18.6,23.7
9.7385,-0.6674,-2.0158,-0.057421,-0.085216,0.027794,-47.7,-18.72,23.64
9.7249,-0.72188,-2.0158,-0.047953,-0.066279,0.027489,-47.76,-18.9,23.7
9.7522,-0.69464,-2.0567,-0.043066,-0.050091,0.034514,-47.82,-18.78,23.64
9.6704,-0.74912,-2.0567,-0.033292,-0.038485,0.02474,-47.76,-18.6,23.94
9.7794,-0.76274,-2.0839,-0.037263,-0.019242,0.025656,-47.7,-18.78,23.88
9.7658,-0.70826,-2.0703,-0.040623,0.000916,0.024129,-47.7,-18.96,23.82
9.7385,-0.6674,-2.0022,-0.039401,0.0039706,0.026573,-47.7,-19.2,24.06
9.6704,-0.6674,-1.9886,-0.036041,-0.0076358,0.024129,-47.58,-19.2,23.94
9.6977,-0.68102,-2.0294,-0.037568,0.000611,0.022602,-47.46,-19.14,24.0
9.7249,-0.6674,-1.975,-0.026878,0.0079412,0.020464,-47.34,-19.32,24.12
9.8066,-0.72188,-2.0567,-0.032376,0.0064141,0.020769,-47.28,-19.2,24.06
9.8066,-0.69464,-2.0158,-0.022907,0.0085521,0.020769,-47.34,-19.14,24.06
9.7385,-0.69464,-1.8932,-0.022907,-0.0033598,0.019853,-47.46,-19.02,24.12
9.7385,-0.72188,-1.9613,-0.040623,-0.0079412,0.025351,-47.4,-18.9,24.18
9.7113,-0.72188,-1.9886,-0.023213,-0.012828,0.021686,-47.4,-19.02,24.42
9.7385,-0.6674,-2.0158,-0.026573,-0.015577,0.023213,-47.46,-19.14,24.18
9.7658,-0.7355,-2.1248,-0.029627,-0.014661,0.025045,-47.4,-19.2,24.18
9.6977,-0.72188,-2.0839,-0.029932,0.0012217,0.03207,-47.28,-19.08,24.3
9.7113,-0.77636,-1.9886,-0.052229,0.000305,0.027184,-47.28,-18.78,24.3
9.7522,-0.69464,-1.9886,-0.041539,-0.01741,0.029322,-47.28,-18.66,24.48
9.6704,-0.68102,-1.9477,-0.040012,-0.033292,0.029627,-47.34,-18.6,24.48
9.7385,-0.76274,-2.1384,-0.026878,-0.028711,0.031765,-47.46,-18.54,24.42
9.8066,-0.76274,-2.1929,-0.043677,0.010079,0.021075,-47.46,-18.54,24.36
9.7658,-0.70826,-2.0431,-0.052229,0.0082467,0.015882,-47.52,-18.54,24.24
9.7385,-0.70826,-1.9886,-0.054062,0.0024435,0.0064141,-47.34,-18.42,24.12
9.6704,-0.77636,-2.0567,-0.044899,-0.020159,0.022297,-47.34,-18.42,24.0
9.7385,-0.77636,-1.975,-0.03879,-0.036652,0.029932,-47.28,-18.36,24.0
9.7522,-0.6674,-2.0839,-0.022907,-0.040012,0.023213,-47.52,-18.54,24.18
9.6977,-0.74912,-2.1112,-0.034208,-0.013744,0.019548,-47.46,-18.36,24.12
9.7385,-0.76274,-2.1656,-0.04612,-0.0027489,0.018631,-47.64,-18.48,24.06
9.7522,-0.6674,-2.0431,-0.046426,0.0048869,0.025351,-47.52,-18.54,24.18
9.7794,-0.68102,-2.0703,-0.047037,-0.0054978,0.026573,-47.52,-18.54,24.24
9.6977,-0.64016,-2.152,-0.047647,-0.015882,0.027794,-47.46,-18.48,24.24
9.6704,-0.7355,-2.0567,-0.032681,-0.015272,0.020769,-47.46,-18.6,24.12
9.6704,-0.76274,-2.0839,-0.03543,0.0097738,0.021991,-47.52,-18.54,24.18
9.6977,-0.74912,-2.0839,-0.037568,0.016493,0.022907,-47.52,-18.54,24.3
9.793,-0.76274,-2.0431,-0.039095,0.0024435,0.015577,-47.52,-18.6,24.36
9.8066,-0.70826,-2.0294,-0.039401,-0.029016,0.020464,-47.64,-18.66,24.36
9.7794,-0.70826,-2.0431,-0.052229,-0.030849,0.025351,-47.82,-18.6,24.36
9.793,-0.77636,-2.0839,-0.054062,-0.040012,0.021991,-47.64,-18.6,24.24
9.7385,-0.74912,-2.152,-0.057421,-0.027184,0.020464,-47.52,-18.54,24.18
9.6841,-0.7355,-2.0839,-0.054672,-0.013439,0.016493,-47.4,-18.42,24.36
9.6704,-0.65378,-2.0839,-0.035736,-0.01069,0.018937,-47.58,-18.36,24.3
9.7113,-0.70826,-2.1929,-0.016493,0.000916,0.017715,-47.7,-18.36,24.24
9.7522,-0.74912,-2.3018,-0.012523,0.027184,0.0054978,-47.82,-18.54,24.3
9.793,-0.76274,-2.1929,-0.022297,0.053756,0.0058032,-47.7,-18.54,24.54
9.6977,-0.76274,-1.975,-0.032376,0.059865,0.0054978,-47.46,-18.48,24.72
9.6432,-0.78998,-2.0567,-0.028405,0.047953,0.0085521,-47.34,-18.42,24.72
9.7249,-0.7355,-2.0567,-0.019548,0.038179,0.013744,-47.4,-18.6,24.84
9.7385,-0.68102,-2.0431,-0.010385,0.036957,0.018631,-47.34,-18.54,24.78
9.6704,-0.70826,-2.0567,-0.0036652,0.046426,0.018021,-47.22,-18.66,25.08
9.7522,-0.7355,-2.0567,-0.0048869,0.05284,0.013134,-47.28,-18.54,25.08
9.8066,-0.72188,-2.0703,-0.018937,0.045204,0.015882,-47.4,-18.66,25.14
9.7113,-0.7355,-1.9886,-0.030849,0.0281,0.013744,-47.46,-18.6,25.02
9.8066,-0.6674,-1.9613,-0.029932,0.0076358,0.020159,-47.46,-18.78,25.08
9.7658,-0.78998,-1.9477,-0.025962,-0.029322,0.019853,-47.34,-18.78,25.02
9.7794,-0.78998,-1.9886,-0.039401,-0.018326,0.020159,-47.34,-18.72,25.08
9.7658,-0.78998,-2.0158,-0.046731,-0.011606,0.023518,-47.52,-18.6,24.84
9.6977,-0.76274,-2.0703,-0.037568,-0.01405,0.025045,-47.58,-18.6,24.6
9.7522,-0.57205,-1.9886,-0.030849,-0.029016,0.02138,-47.58,-18.66,24.54
9.7385,-0.61292,-2.1248,-0.026267,-0.026267,0.016799,-47.52,-18.66,24.54
9.7385,-0.61292,-2.1248,-0.023824,0.0045815,0.01741,-47.46,-18.6,24.48
9.6977,-0.68102,-2.0567,-0.029016,0.013744,0.015577,-47.64,-18.6,24.18
9.6977,-0.77636,-1.9341,-0.036957,0.0076358,0.0094684,-47.58,-18.72,24.12
9.8203,-0.8036,-1.9886,-0.034208,-0.0085521,0.015882,-47.4,-18.72,24.18
9.7794,-0.83084,-1.9613,-0.039095,-0.029322,0.01405,-47.34,-18.72,24.12
9.7249,-0.8036,-1.975,-0.033292,-0.032681,0.014355,-47.34,-18.72,24.12
9.6432,-0.77636,-2.1248,-0.030543,0.0018326,0.020159,-47.34,-18.6,23.94
9.7113,-0.7355,-2.1248,-0.0281,0.020769,0.025962,-47.4,-18.54,23.94
9.7794,-0.70826,-2.0431,-0.03879,0.024435,0.025045,-47.28,-18.72,24.0
9.7794,-0.74912,-2.0839,-0.046731,-0.012523,0.027184,-47.46,-18.48,24.12
9.8339,-0.6674,-2.0294,-0.044288,-0.01741,0.02138,-47.52,-18.54,24.12
9.6977,-0.6674,-2.0567,-0.040928,-0.022602,0.018021,-47.52,-18.42,24.0
9.7385,-0.70826,-2.1656,-0.03207,0.011912,0.019548,-47.4,-18.36,24.06
9.7522,-0.70826,-2.0431,-0.037263,0.0281,0.014966,-47.4,-18.3,24.24
9.6841,-0.76274,-2.0294,-0.033292,0.023518,0.01741,-47.46,-18.3,24.3
9.7658,-0.7355,-2.0294,-0.025045,0.009163,0.015272,-47.58,-18.24,24.36
9.7794,-0.8036,-2.0431,-0.021991,0.007025,0.0085521,-47.52,-18.18,24.3
9.7522,-0.76274,-2.0975,-0.032681,0.000305,0.010996,-47.52,-18.06,24.24
9.6568,-0.74912,-2.0294,-0.034819,-0.014661,0.01741,-47.46,-18.06,24.42
9.6296,-0.70826,-2.0703,-0.047037,-0.018326,0.018631,-47.34,-18.06,24.48
9.7522,-0.69464,-2.1656,-0.036957,-0.019242,0.021991,-47.4,-18.0,24.42
9.7385,-0.70826,-2.0703,-0.037874,-0.0030543,0.02474,-47.28,-18.18,24.6
9.6977,-0.7355,-2.1248,-0.032376,0.019853,0.011606,-47.28,-18.12,24.54
9.6704,-0.69464,-2.0839,-0.03207,0.027184,0.018937,-47.28,-18.12,24.54
9.7385,-0.68102,-2.0294,-0.025656,0.022907,0.02138,-47.22,-18.18,24.6
9.793,-0.72188,-2.0567,-0.030849,0.011912,0.010996,-47.22,-18.24,24.36
9.7658,-0.76274,-2.0022,-0.034208,0.0042761,0.016799,-47.22,-18.18,24.48
9.7658,-0.7355,-2.0431,-0.039706,-0.0061087,0.023518,-47.22,-18.18,24.48
9.6841,-0.84446,-2.0567,-0.029627,-0.01069,0.017104,-47.16,-18.12,24.48
9.7249,-0.72188,-2.0975,-0.037263,-0.0088575,0.025656,-47.22,-18.24,24.6
9.7658,-0.78998,-2.0567,-0.043677,-0.0030543,0.020464,-47.34,-18.3,24.6
9.7522,-0.7355,-2.0022,-0.048869,-0.013744,0.018937,-47.4,-18.18,24.48
9.6704,-0.70826,-2.0294,-0.043982,-0.031765,0.016799,-47.28,-18.12,24.48
9.6704,-0.70826,-2.0703,-0.043982,-0.044899,0.020464,-47.22,-18.18,24.36
9.7385,-0.70826,-2.1384,-0.037874,-0.038485,0.027794,-47.16,-18.24,24.3
9.6977,-0.74912,-2.2065,-0.028405,-0.029016,0.028711,-47.22,-18.12,24.48
9.7385,-0.74912,-2.1656,-0.031154,-0.015577,0.016493,-47.34,-18.24,24.48
9.7385,-0.7355,-2.1793,-0.044288,0.0094684,0.019242,-47.34,-18.12,24.54
9.7522,-0.72188,-2.0294,-0.03207,0.0054978,0.027184,-47.34,-18.18,24.54
9.7522,-0.76274,-1.9886,-0.037568,-0.0082467,0.019853,-47.52,-18.3,24.48
9.7113,-0.68102,-2.1112,-0.036652,-0.0042761,0.022907,-47.76,-18.36,24.36
9.7249,-0.6674,-2.1112,-0.027489,0.002138,0.025656,-47.76,-18.36,24.3
9.7385,-0.7355,-2.0567,-0.036652,0.020159,0.024435,-47.7,-18.36,24.18
9.7113,-0.81722,-2.1248,-0.038485,0.01405,0.023518,-47.64,-18.42,24.12
9.7385,-0.69464,-1.9886,-0.042761,0.0073304,0.022907,-47.82,-18.66,24.3
9.7385,-0.69464,-1.9886,-0.030849,-0.012523,0.016799,-47.82,-18.66,24.3
9.8339,-0.64016,-2.1384,-0.027794,0.000305,0.012828,-47.88,-18.78,24.36
9.6977,-0.78998,-2.1248,-0.042455,0.02474,0.0097738,-47.88,-18.72,24.78
9.6977,-0.8036,-2.0703,-0.032376,0.023518,0.0073304,-47.76,-18.84,24.78
9.7113,-0.69464,-2.1112,-0.029932,0.0039706,0.020464,-47.64,-18.84,24.72
9.616,-0.72188,-2.0839,-0.024435,-0.0064141,0.023824,-47.4,-18.72,24.84
9.6977,-0.70826,-2.1656,-0.031765,0.0024435,0.024435,-47.22,-18.72,24.96
9.7658,-0.70826,-2.0975,-0.035736,0.0082467,0.025656,-46.98,-18.66,25.02
9.7249,-0.74912,-2.1384,-0.042455,-0.0039706,0.013439,-46.8,-18.66,25.14
9.7249,-0.7355,-2.0567,-0.036346,-0.009163,0.023518,-46.8,-18.42,25.26
9.7522,-0.68102,-1.9886,-0.037263,-0.01405,0.029322,-46.62,-18.48,25.26
9.6977,-0.68102,-2.1112,-0.034514,-0.013744,0.020159,-46.8,-18.48,25.02
9.6841,-0.76274,-2.1248,-0.039095,0.000916,0.026878,-46.74,-18.66,24.9
9.6977,-0.68102,-2.1384,-0.035736,0.0064141,0.029016,-46.74,-18.66,24.84
9.6977,-0.70826,-2.0567,-0.03879,0.016799,0.030238,-46.92,-18.72,24.78
9.7658,-0.69464,-2.1248,-0.036346,0.010079,0.018937,-47.04,-18.84,24.9
9.7113,-0.77636,-2.0567,-0.033903,0.002138,0.026878,-47.22,-18.54,25.02
9.6977,-0.72188,-2.1112,-0.037568,-0.012828,0.030543,-47.1,-18.48,24.96
9.6977,-0.7355,-2.0839,-0.032681,-0.010996,0.025656,-47.1,-18.54,24.78
9.6977,-0.8036,-2.1793,-0.048869,0.0082467,0.014661,-47.28,-18.48,24.84
9.793,-0.78998,-2.0567,-0.057116,0.0082467,0.015272,-47.22,-18.54,24.84
9.7385,-0.76274,-2.0431,-0.054978,-0.0082467,0.01405,-47.22,-18.54,24.9
9.7249,-0.74912,-2.0703,-0.053145,-0.018631,0.014966,-47.16,-18.54,24.96
9.7249,-0.74912,-2.0567,-0.037263,-0.015882,0.015577,-47.34,-18.48,24.84
9.6841,-0.81722,-2.0839,-0.036346,-0.0085521,0.025656,-47.4,-18.3,24.9
9.7658,-0.76274,-2.0839,-0.019242,0.0012217,0.022297,-47.28,-18.12,24.96
9.7385,-0.7355,-2.0567,-0.040317,0.010079,0.022602,-47.22,-18.18,24.9
9.7249,-0.74912,-2.0567,-0.043677,0.0048869,0.021075,-47.28,-18.36,24.96
9.7658,-0.7355,-2.1112,-0.03879,-0.0042761,0.013744,-47.22,-18.48,24.96
9.6977,-0.6674,-2.2065,-0.044593,0.0015272,0.016799,-47.16,-18.42,25.08
9.7113,-0.64016,-2.1112,-0.04215,0.018326,0.014355,-47.28,-18.36,25.14
9.7113,-0.70826,-2.0567,-0.037263,0.036652,0.020159,-47.34,-18.36,24.96
9.6841,-0.88532,-2.0294,-0.032987,0.027794,0.015577,-47.4,-18.36,24.9
9.793,-0.76274,-2.0839,-0.041539,0.025351,0.013439,-47.4,-18.3,24.84
9.7385,-0.76274,-2.0022,-0.045815,0.01069,0.015882,-47.4,-18.3,24.72
9.7522,-0.70826,-2.0975,-0.028711,-0.009163,0.021686,-47.16,-18.24,24.72
9.7385,-0.8036,-2.1248,-0.036041,-0.01405,0.024129,-47.16,-18.24,24.84
9.7249,-0.76274,-2.0839,-0.047037,0.0073304,0.021075,-47.28,-18.42,24.72
9.7658,-0.72188,-2.1248,-0.060781,0.015577,0.014355,-47.28,-18.36,24.72
9.6432,-0.70826,-1.9613,-0.060781,0.0042761,0.015272,-47.28,-18.36,24.54
9.6841,-0.70826,-2.0158,-0.051924,-0.016799,0.019242,-47.34,-18.36,24.48
9.7385,-0.68102,-2.1112,-0.041539,-0.025656,0.025045,-47.34,-18.42,24.48
9.7113,-0.76274,-2.1656,-0.030238,-0.009163,0.02138,-47.46,-18.36,24.42
9.6977,-0.77636,-2.152,-0.036041,0.01069,0.016493,-47.4,-18.3,24.3
9.7385,-0.74912,-2.0022,-0.044288,0.017715,0.0073304,-47.34,-18.3,24.3
9.7794,-0.70826,-2.0294,-0.048564,-0.0033598,0.019242,-47.28,-18.48,24.3
9.7794,-0.70826,-2.0431,-0.044593,-0.022602,0.017715,-47.4,-18.42,24.42
9.7249,-0.7355,-2.0975,-0.040012,-0.016799,0.023824,-47.52,-18.54,24.48
9.6704,-0.6674,-2.1929,-0.037874,0.000305,0.019548,-47.52,-18.66,24.42
9.6977,-0.7355,-2.1248,-0.045509,0.020769,0.01741,-47.52,-18.72,24.36
9.7249,-0.7355,-2.0431,-0.03879,0.021991,0.015272,-47.52,-18.72,24.3
9.6977,-0.74912,-1.9613,-0.048258,0.016493,0.019242,-47.58,-18.78,24.3
9.793,-0.69464,-1.9341,-0.044593,-0.0015272,0.01405,-47.52,-18.78,24.36
9.7522,-0.6674,-2.1112,-0.033598,-0.017104,0.016493,-47.52,-18.9,24.42
9.6977,-0.69464,-2.1656,-0.041539,0.013134,0.0097738,-47.52,-19.02,24.3
9.6977,-0.70826,-2.0975,-0.052229,0.021991,0.016799,-47.46,-19.14,24.3
9.6841,-0.7355,-2.0703,-0.053451,0.022297,0.000305,-47.58,-19.26,24.42
9.6568,-0.6674,-2.0839,-0.042761,0.000305,0.016188,-47.64,-19.02,24.3
9.7249,-0.6674,-2.1384,-0.036957,-0.0058032,0.021075,-47.64,-19.08,24.3
9.7658,-0.72188,-2.1793,-0.015577,0.010996,0.018631,-47.64,-19.02,24.12
9.7522,-0.78998,-2.1656,-0.016493,0.042761,0.015882,-47.7,-18.84,24.12
9.7385,-0.78998,-1.9613,-0.029932,0.058948,0.010996,-47.7,-18.72,24.06
9.8339,-0.76274,-1.9886,-0.034208,0.042455,0.015272,-47.64,-18.72,24.12
9.6841,-0.70826,-1.9886,-0.036346,0.011606,0.014661,-47.7,-18.72,24.06
9.7113,-0.76274,-2.0839,-0.028711,-0.01405,0.023824,-47.76,-18.66,24.0
9.7385,-0.7355,-2.1656,-0.025962,-0.0064141,0.021075,-47.7,-18.48,24.0
9.6432,-0.70826,-2.0431,-0.023213,0.029932,0.023518,-47.64,-18.6,23.94
9.7658,-0.76274,-2.0703,-0.026267,0.041844,0.016799,-47.64,-18.6,23.94
9.8339,-0.70826,-2.0022,-0.032376,0.027184,0.01405,-47.64,-18.54,23.88
9.7385,-0.64016,-1.9886,-0.029627,0.021686,0.009163,-47.64,-18.72,24.0
9.6977,-0.68102,-2.0294,-0.023518,0.0085521,0.022907,-47.7,-18.6,24.06
9.6977,-0.83084,-2.1112,-0.018021,0.0079412,0.027184,-47.64,-18.48,24.12
9.793,-0.8036,-2.0567,-0.030543,0.01405,0.018937,-47.64,-18.6,24.06
9.7658,-0.8036,-2.0431,-0.033598,0.0097738,0.012217,-47.64,-18.72,24.18
9.6841,-0.74912,-2.0294,-0.033598,-0.0018326,0.0082467,-47.7,-18.78,24.18
9.6977,-0.68102,-2.0022,-0.022297,-0.0036652,0.019242,-47.52,-18.66,24.42
9.6704,-0.74912,-2.0567,-0.017715,-0.0024435,0.026267,-47.58,-18.72,24.48
9.7113,-0.7355,-2.0431,-0.023518,0.002138,0.022907,-47.58,-18.72,24.42
9.8066,-0.70826,-2.0158,-0.028711,0.0076358,0.020769,-47.64,-18.66,24.42
9.7249,-0.69464,-2.0294,-0.036957,0.01069,0.021686,-47.64,-18.6,24.42
9.7385,-0.72188,-1.9886,-0.042761,-0.0045815,0.018631,-47.58,-18.54,24.54
9.7522,-0.7355,-1.9613,-0.047647,-0.024129,0.025351,-47.46,-18.54,24.48
9.6977,-0.7355,-1.9613,-0.038485,-0.031154,0.023518,-47.4,-18.66,24.54
9.7113,-0.7355,-2.0294,-0.027184,-0.031154,0.028405,-47.58,-18.78,24.66
9.6977,-0.72188,-2.1384,-0.014661,0.0051924,0.020159,-47.46,-18.9,24.66
9.6568,-0.76274,-2.1384,-0.025656,0.03207,0.01405,-47.58,-18.9,24.6
9.7113,-0.7355,-2.0158,-0.031765,0.048564,0.0082467,-47.58,-18.78,24.42
9.8066,-0.69464,-2.0158,-0.023824,0.024129,0.014661,-47.52,-18.72,24.06
9.7113,-0.72188,-1.9886,-0.015882,0.007025,0.01741,-47.52,-18.72,24.18
9.7385,-0.68102,-2.0839,-0.015272,0.011912,0.016799,-47.64,-18.72,24.24
9.7522,-0.78998,-2.0567,-0.029322,0.029322,0.018631,-47.52,-18.72,24.36
9.7794,-0.76274,-2.0022,-0.043677,0.02138,0.013439,-47.52,-18.48,24.24
9.7658,-0.74912,-1.8251,-0.043982,-0.010996,0.019548,-47.52,-18.6,24.12
9.8066,-0.74912,-1.9886,-0.044899,-0.051313,0.025045,-47.58,-18.54,24.24
9.8066,-0.78998,-2.0022,-0.040012,-0.064752,0.025045,-47.58,-18.42,24.18
9.6704,-0.72188,-2.0975,-0.036957,-0.070555,0.030238,-47.52,-18.36,24.12
9.7249,-0.7355,-2.1384,-0.041844,-0.061087,0.023518,-47.46,-18.18,24.24
9.7385,-0.74912,-2.0431,-0.051924,-0.058948,0.02474,-47.34,-18.18,24.42
9.7522,-0.69464,-2.1248,-0.050702,-0.054062,0.025656,-47.34,-18.18,24.48
9.8066,-0.6674,-2.0703,-0.041844,-0.058948,0.029932,-47.34,-18.12,24.78
9.7385,-0.70826,-2.152,-0.054367,-0.057727,0.025656,-47.16,-18.24,24.66
9.6841,-0.7355,-2.0294,-0.033903,-0.059254,0.03207,-47.16,-18.42,24.72
9.7249,-0.76274,-2.152,-0.036652,-0.049786,0.03543,-47.28,-18.3,24.66
9.6704,-0.81722,-2.1656,-0.037263,-0.027794,0.024435,-47.28,-18.48,24.78
9.7113,-0.78998,-2.0703,-0.043371,-0.024129,0.021991,-47.16,-18.36,24.78
9.7385,-0.77636,-2.0839,-0.041539,-0.033903,0.0281,-47.16,-18.24,24.72
9.7385,-0.7355,-2.2746,-0.033903,-0.04612,0.0281,-47.16,-18.42,24.72
9.7794,-0.81722,-2.2882,-0.027184,-0.040012,0.025351,-47.16,-18.54,24.72
9.7794,-0.8036,-2.2065,-0.037263,-0.025045,0.018631,-47.1,-18.6,24.66
9.7385,-0.7355,-2.2065,-0.044593,-0.0024435,0.023824,-47.1,-18.54,24.54
9.6704,-0.70826,-2.1656,-0.042761,-0.000916,0.022602,-47.04,-18.54,24.6
9.6841,-0.70826,-2.1248,-0.036652,-0.0045815,0.0079412,-47.04,-18.54,24.54
9.7522,-0.8036,-2.1112,-0.019548,-0.0079412,0.018937,-47.28,-18.6,24.54
9.7385,-0.83084,-2.1929,-0.026267,-0.0033598,0.021991,-47.22,-18.42,24.66
9.616,-0.78998,-2.1656,-0.018937,0.009163,0.012828,-47.16,-18.54,24.72
9.7113,-0.81722,-2.1929,-0.039401,0.0085521,0.013439,-47.22,-18.48,24.72
9.6704,-0.7355,-2.152,-0.039401,0.0027489,0.01405,-47.22,-18.48,24.72
9.7249,-0.6674,-2.1248,-0.047647,-0.0042761,0.024435,-47.16,-18.54,24.72
9.6977,-0.70826,-2.2882,-0.022907,0.025962,0.01405,-47.1,-18.48,24.78
9.6977,-0.6674,-2.2882,-0.013744,0.047953,0.017104,-47.16,-18.36,24.96
9.6841,-0.70826,-2.1248,-0.01405,0.090408,0.010996,-47.16,-18.42,25.02
9.6977,-0.76274,-2.0567,-0.0033598,0.11423,0.0024435,-47.04,-18.42,25.2
9.6977,-0.76274,-2.0703,0.000305,0.11881,-0.0027489,-47.16,-18.48,25.2
9.7385,-0.78998,-2.0158,-0.0015272,0.09896,0.000916,-47.34,-18.42,25.08
9.7113,-0.77636,-2.0567,-0.0039706,0.054062,0.012828,-47.28,-18.36,24.9
9.7249,-0.85808,-2.0431,-0.0064141,0.048869,0.01069,-47.4,-18.18,24.66
9.7385,-0.8036,-2.0294,-0.02138,0.042761,0.002138,-47.4,-18.18,24.72
9.7249,-0.8036,-2.0294,-0.047647,0.012523,0.0097738,-47.46,-18.36,24.66
9.7658,-0.72188,-1.9613,-0.047953,-0.015577,0.021075,-47.4,-18.3,24.66
9.6704,-0.7355,-1.975,-0.037263,-0.029627,0.022297,-47.7,-18.42,24.54
9.8066,-0.76274,-2.1929,-0.027489,-0.021075,0.014966,-47.64,-18.42,24.48
9.6568,-0.68102,-2.0294,-0.03146,-0.0048869,0.017715,-47.64,-18.24,24.24
9.6568,-0.68102,-2.0294,-0.043066,0.000305,0.015272,-47.64,-18.24,24.24
9.7522,-0.7355,-1.8932,-0.058948,-0.028405,0.016493,-47.7,-18.18,24.3
9.7385,-0.6674,-2.0294,-0.057116,-0.058643,0.022907,-47.7,-18.18,24.18
9.7385,-0.72188,-2.0839,-0.065668,-0.076664,0.030238,-47.58,-18.24,24.06
9.7249,-0.68102,-2.0839,-0.064752,-0.075136,0.036957,-47.52,-18.48,24.36
9.6977,-0.69464,-2.1248,-0.067501,-0.073609,0.029627,-47.46,-18.6,24.48
9.6977,-0.74912,-2.152,-0.067501,-0.069944,0.030543,-47.1,-18.42,24.66
9.7249,-0.76274,-2.0294,-0.072082,-0.063835,0.024129,-46.92,-18.48,24.84
9.6841,-0.7355,-2.1112,-0.065057,-0.069028,0.029932,-46.98,-18.48,24.66
9.6841,-0.81722,-2.152,-0.06689,-0.097738,0.030238,-46.86,-18.72,24.66
9.7113,-0.76274,-2.2065,-0.066584,-0.086132,0.033292,-46.92,-18.78,24.6
9.7113,-0.78998,-2.2882,-0.075747,-0.072082,0.033598,-46.92,-18.66,24.78
9.6704,-0.8036,-2.261,-0.077885,-0.042761,0.020159,-46.8,-18.72,25.08
9.616,-0.72188,-2.1793,-0.07422,-0.041844,0.021991,-46.62,-18.6,24.96
9.6568,-0.70826,-2.1793,-0.060781,-0.043066,0.027794,-46.68,-18.48,25.08
9.6568,-0.70826,-2.1793,-0.034514,-0.040317,0.026267,-46.68,-18.48,25.08
9.6704,-0.74912,-2.3563,-0.032987,-0.017104,0.023213,-46.74,-18.54,25.14
9.6977,-0.76274,-2.2474,-0.025962,0.032376,0.0085521,-46.68,-18.6,25.14
9.6704,-0.74912,-2.2201,-0.034208,0.047953,0.011301,-46.5,-18.66,25.32
9.7249,-0.72188,-2.1929,-0.031154,0.039095,0.010079,-46.2,-18.42,25.56
9.6704,-0.70826,-2.2065,-0.024129,0.033903,0.014966,-46.2,-18.42,25.74
9.7385,-0.72188,-2.261,-0.018021,0.040623,0.015882,-45.78,-18.36,25.86
9.6432,-0.78998,-2.3155,-0.000916,0.069639,0.011912,-45.66,-18.54,25.56
9.6841,-0.72188,-2.1384,-0.0030543,0.09896,0.010385,-45.66,-18.42,25.38
9.8066,-0.76274,-2.0567,-0.0076358,0.11576,-0.0018326,-45.72,-18.42,25.5
9.7522,-0.76274,-1.9886,-0.0027489,0.099876,0.0030543,-45.9,-18.54,25.2
9.6977,-0.74912,-2.0022,0.0012217,0.065363,0.0088575,-46.14,-18.24,25.08
9.7385,-0.77636,-2.152,-0.0076358,0.04612,0.013439,-46.44,-18.24,24.84
9.7522,-0.7355,-2.1793,-0.0079412,0.050702,0.014661,-46.5,-18.3,24.78
9.7113,-0.81722,-2.1384,-0.019242,0.068417,0.011301,-46.62,-18.3,24.72
9.7658,-0.70826,-1.9886,-0.02138,0.077885,-0.0027489,-46.86,-18.24,24.24
9.7113,-0.69464,-2.0022,-0.014355,0.053756,0.010996,-47.22,-18.24,24.3
9.6977,-0.70826,-2.0839,0.000305,0.050396,0.013134,-47.04,-18.18,24.36
9.7522,-0.69464,-2.0839,0.0048869,0.050702,0.011301,-47.1,-18.12,24.18
9.7658,-0.74912,-2.0839,0.0015272,0.064446,0.007025,-47.04,-18.12,24.12
9.6977,-0.77636,-1.8796,-0.0027489,0.076358,0.0061087,-47.04,-18.3,24.0
9.7385,-0.78998,-1.8524,-0.020159,0.06353,0.0024435,-46.92,-18.3,24.0
9.8066,-0.7355,-1.8524,-0.035736,0.022907,0.0076358,-46.92,-18.36,24.06
9.8611,-0.74912,-1.8932,-0.042455,-0.048869,0.022297,-46.92,-18.42,24.0
9.7385,-0.70826,-2.0431,-0.036957,-0.070555,0.032987,-46.98,-18.42,24.12
9.6977,-0.7355,-2.0839,-0.036041,-0.058032,0.033598,-47.16,-18.42,24.06
9.7658,-0.7355,-2.0839,-0.043066,-0.036346,0.024435,-47.04,-18.42,24.18
9.6977,-0.76274,-1.9886,-0.059559,-0.027184,0.02474,-47.22,-18.54,24.3
9.793,-0.6674,-1.9477,-0.061697,-0.062919,0.033598,-46.98,-18.66,24.3
9.7385,-0.69464,-2.0294,-0.056505,-0.099876,0.03879,-46.98,-18.66,24.18
9.7113,-0.76274,-2.0703,-0.04948,-0.10263,0.03146,-46.98,-18.66,24.3
9.6977,-0.8036,-2.0839,-0.062003,-0.084605,0.036041,-47.1,-18.6,24.42
9.7658,-0.78998,-2.0431,-0.065668,-0.062308,0.01741,-47.22,-18.54,24.48
9.6704,-0.72188,-2.0158,-0.067806,-0.069333,0.025045,-47.28,-18.6,24.42
9.6977,-0.7355,-2.0839,-0.08491,-0.093768,0.025351,-47.22,-18.54,24.6
9.6841,-0.74912,-2.1656,-0.073915,-0.11545,0.033903,-47.34,-18.48,24.78
9.5887,-0.77636,-2.2474,-0.065057,-0.1179,0.033598,-47.28,-18.54,24.78
9.6704,-0.81722,-2.3018,-0.055894,-0.11087,0.036957,-47.22,-18.48,24.9
9.6432,-0.78998,-2.4653,-0.04948,-0.073609,0.030238,-47.22,-18.42,25.08
9.6704,-0.83084,-2.3972,-0.052534,-0.027489,0.023518,-47.1,-18.3,25.14
9.6568,-0.74912,-2.1929,-0.043982,0.015882,0.013744,-47.04,-18.18,25.2
9.7249,-0.74912,-2.2201,-0.027489,0.02474,0.016493,-46.92,-18.3,25.32
9.6841,-0.7355,-2.2337,-0.015272,0.035736,0.018631,-46.8,-18.36,25.56
9.6432,-0.7355,-2.1929,-0.013134,0.06017,0.022602,-46.74,-18.48,25.38
9.6977,-0.76274,-2.2474,-0.013744,0.079412,0.017715,-46.62,-18.72,25.38
9.7385,-0.78998,-2.1929,-0.014355,0.094684,0.0076358,-46.56,-18.6,25.26
9.7385,-0.76274,-2.0839,-0.0067195,0.07086,0.0054978,-46.38,-18.42,25.26
9.7658,-0.70826,-2.1793,-0.0027489,0.050396,0.011606,-46.38,-18.54,25.32
9.7385,-0.8036,-2.0567,0.0027489,0.05681,0.011301,-46.62,-18.72,25.26
9.6977,-0.76274,-2.2337,-0.010079,0.079107,0.012217,-46.62,-18.6,25.32
9.7658,-0.76274,-2.0839,-0.0067195,0.087659,0.000611,-46.5,-18.72,25.2
9.6841,-0.70826,-2.0158,-0.0281,0.072998,0.0045815,-46.68,-18.72,24.84
9.7658,-0.7355,-1.975,-0.030849,0.06017,0.0067195,-46.86,-18.6,24.9
9.7385,-0.70826,-2.0703,-0.021075,0.021991,0.011912,-46.86,-18.48,24.78
9.7658,-0.7355,-2.0431,-0.025656,0.0088575,0.012217,-46.86,-18.54,24.9
9.6704,-0.7355,-2.2474,-0.015882,0.013439,0.012523,-47.04,-18.72,24.96
9.7522,-0.77636,-1.9886,-0.028711,0.019548,0.018937,-47.1,-18.9,24.84
9.7658,-0.7355,-1.975,-0.032681,0.014661,0.0094684,-47.04,-18.72,24.84
9.7385,-0.7355,-2.0294,-0.034819,-0.000305,0.015272,-47.16,-18.84,24.9
9.7658,-0.70826,-1.9613,-0.040317,-0.026878,0.021991,-47.28,-18.72,24.84
9.7522,-0.7355,-2.0567,-0.032987,-0.02138,0.023518,-47.16,-18.78,25.08
9.6977,-0.76274,-2.1112,-0.032681,-0.01069,0.025962,-47.04,-18.72,25.14
9.7385,-0.7355,-2.1112,-0.041844,-0.0036652,0.020159,-46.98,-18.72,25.26
9.6977,-0.8036,-2.0703,-0.043677,-0.0073304,0.016493,-46.98,-18.66,25.2
9.6841,-0.72188,-2.1112,-0.050396,-0.02138,0.0281,-46.92,-18.66,24.84
9.7385,-0.74912,-2.0294,-0.04215,-0.040623,0.031765,-46.8,-18.54,24.96
9.6977,-0.76274,-2.1656,-0.047342,-0.044593,0.026573,-46.86,-18.48,24.84
9.7113,-0.77636,-2.0839,-0.053451,-0.025962,0.017715,-46.74,-18.54,24.96
9.8066,-0.70826,-2.152,-0.053451,-0.014661,0.016493,-46.8,-18.48,24.9
9.6977,-0.7355,-1.9613,-0.053451,-0.010996,0.011912,-46.86,-18.36,24.9
9.7113,-0.77636,-2.0294,-0.045204,-0.022907,0.021991,-47.16,-18.42,24.6
9.6977,-0.8036,-2.1656,-0.036957,-0.037263,0.022297,-47.22,-18.3,24.66
9.6977,-0.76274,-2.1793,-0.029627,-0.023213,0.020464,-47.22,-18.42,24.54
9.6704,-0.76274,-2.1929,-0.029016,-0.011301,0.019242,-47.16,-18.54,24.66
9.6977,-0.7355,-2.1793,-0.039401,0.0058032,0.018937,-47.22,-18.48,24.78
9.7113,-0.69464,-2.1112,-0.044288,0.0036652,0.017715,-47.22,-18.42,24.78
9.7658,-0.7355,-2.1248,-0.048564,-0.0033598,0.018021,-47.4,-18.42,24.78
9.7385,-0.7355,-2.1248,-0.040317,-0.011912,0.02474,-47.46,-18.3,24.72
9.7113,-0.7355,-2.1929,-0.029627,0.012828,0.018326,-47.46,-18.3,24.84
9.6977,-0.74912,-2.0975,-0.037568,0.031765,0.013744,-47.28,-18.3,25.08
9.7522,-0.8036,-2.0839,-0.030849,0.039095,0.012217,-47.1,-18.3,25.02
9.7385,-0.7355,-2.0294,-0.037874,0.027794,0.012828,-47.1,-18.24,24.9
9.6432,-0.6674,-1.9341,-0.048258,0.0018326,0.022602,-47.28,-18.12,24.72
9.6704,-0.83084,-2.1929,-0.032376,-0.028711,0.023518,-47.34,-18.18,24.72
9.7249,-0.76274,-2.2474,-0.045815,-0.0097738,0.020464,-47.28,-18.18,24.72
9.7385,-0.8036,-2.2065,-0.05284,-0.0067195,0.013134,-47.04,-18.36,24.78
9.6977,-0.83084,-2.0703,-0.046426,-0.0042761,0.010385,-46.98,-18.54,24.72
9.6704,-0.7355,-2.0567,-0.049175,-0.019548,0.021686,-46.98,-18.42,24.78
9.6704,-0.6674,-2.1929,-0.032376,-0.017104,0.025962,-47.28,-18.72,24.78
9.7522,-0.70826,-2.1656,-0.027184,-0.0082467,0.017715,-47.28,-18.78,24.72
9.793,-0.70826,-2.2474,-0.018937,0.011301,0.017715,-47.22,-18.84,24.72
9.6977,-0.70826,-2.2474,-0.018937,0.024129,0.013134,-47.22,-18.96,24.9
9.6704,-0.8036,-2.1248,-0.030849,0.027489,0.016188,-47.1,-18.96,25.02
9.7113,-0.74912,-2.1656,-0.027794,0.018326,0.017715,-46.98,-19.08,24.9
9.7385,-0.7355,-2.152,-0.042455,0.0097738,0.010079,-47.04,-19.08,24.9
9.6704,-0.70826,-2.1656,-0.036041,0.0061087,0.022602,-47.1,-18.9,24.96
9.6841,-0.78998,-2.0975,-0.034819,0.000611,0.014966,-47.34,-18.96,24.9
9.7522,-0.76274,-2.0431,-0.036346,0.012523,0.018021,-47.4,-18.9,25.08
9.8339,-0.69464,-2.0567,-0.048258,0.010996,0.018631,-47.22,-18.84,25.02
9.7522,-0.74912,-2.0567,-0.048258,-0.0058032,0.018021,-47.28,-18.72,24.9
9.6977,-0.77636,-2.0975,-0.042761,-0.023518,0.016493,-47.22,-18.72,24.84
9.7385,-0.77636,-2.1929,-0.044593,-0.053145,0.033292,-47.22,-18.54,24.78
9.7522,-0.70826,-2.2201,-0.045204,-0.019548,0.019853,-47.22,-18.48,24.78
9.793,-0.81722,-2.261,-0.052534,-0.0088575,0.018631,-47.34,-18.3,25.02
9.6977,-0.8036,-2.1793,-0.046731,0.018631,0.0076358,-47.28,-18.18,24.9
9.6432,-0.76274,-2.0567,-0.039095,0.029322,0.0088575,-47.16,-18.12,24.9
9.6432,-0.76274,-2.1248,-0.026267,0.027794,0.0033598,-46.98,-18.0,25.02
9.7658,-0.8036,-2.1656,-0.020159,0.023213,0.015272,-46.8,-17.94,24.84
9.6977,-0.78998,-2.0839,-0.022907,0.025656,0.015577,-46.8,-17.94,24.78
9.6977,-0.8036,-2.0567,-0.032376,0.0281,0.018631,-46.74,-17.7,24.9
9.7658,-0.78998,-2.0703,-0.043066,0.019242,0.021075,-46.86,-17.76,24.84
9.7658,-0.8036,-2.1112,-0.054672,-0.0094684,0.016188,-46.98,-17.76,24.78
9.7385,-0.76274,-2.0839,-0.053756,-0.034208,0.02138,-46.92,-17.76,24.72
9.6841,-0.7355,-2.1929,-0.055283,-0.040623,0.022602,-46.98,-17.7,24.6
9.7385,-0.8717,-2.2474,-0.053451,-0.03146,0.03207,-47.04,-17.82,24.66
9.7658,-0.69464,-2.1384,-0.054978,-0.007025,0.025656,-47.04,-17.94,24.84
9.7385,-0.76274,-2.0839,-0.050702,-0.0036652,0.021075,-46.92,-18.12,24.66
9.7385,-0.70826,-2.0567,-0.050396,-0.012217,0.019548,-46.98,-18.0,24.54
9.7385,-0.7355,-2.0975,-0.043677,-0.02138,0.029627,-47.16,-18.06,24.66
9.6296,-0.6674,-2.152,-0.029932,-0.022602,0.025045,-47.04,-18.0,24.72
9.6432,-0.83084,-2.3155,-0.025045,0.0097738,0.023518,-47.04,-17.76,24.84
9.7385,-0.78998,-2.152,-0.031765,0.046731,0.017104,-47.16,-18.06,24.9
9.7658,-0.76274,-2.0294,-0.030238,0.051924,0.0042761,-47.04,-18.12,24.96
9.7658,-0.77636,-1.9886,-0.024435,0.025962,0.0045815,-47.16,-18.12,25.08
9.6568,-0.7355,-2.1112,-0.017715,-0.0030543,0.016188,-47.16,-18.0,25.32
9.6841,-0.77636,-2.2474,-0.014661,0.0097738,0.016188,-46.98,-18.18,25.38
9.6568,-0.76274,-2.2746,-0.019548,0.032376,0.020464,-47.04,-18.18,25.2
9.6977,-0.81722,-2.1793,-0.028405,0.036346,0.018326,-47.22,-18.24,24.96
9.7658,-0.7355,-2.0567,-0.045204,0.021686,0.016493,-47.46,-18.24,25.14
9.7385,-0.70826,-1.9886,-0.045815,-0.0024435,0.018021,-47.52,-18.18,25.14
9.7385,-0.69464,-2.152,-0.048869,-0.022297,0.026878,-47.46,-18.36,25.14
9.6704,-0.76274,-2.2201,-0.035736,-0.022297,0.025962,-47.46,-18.36,25.08
9.7113,-0.70826,-2.2337,-0.032987,-0.0042761,0.020159,-47.46,-18.6,24.96
9.7385,-0.8036,-2.1384,-0.041844,0.0061087,0.022907,-47.52,-18.6,24.84
9.7249,-0.81722,-2.1248,-0.037263,0.0042761,0.023518,-47.46,-18.6,24.78
9.7794,-0.7355,-2.0567,-0.037568,-0.0018326,0.017715,-47.46,-18.48,24.54
9.7385,-0.77636,-2.0567,-0.044288,-0.014355,0.01741,-47.46,-18.42,24.24
9.6977,-0.76274,-2.1793,-0.036652,-0.049786,0.024435,-47.64,-18.48,24.24
9.6977,-0.8036,-2.152,-0.034819,-0.049175,0.032681,-47.58,-18.48,24.36
9.6704,-0.76274,-2.2746,-0.043066,-0.017104,0.019853,-47.46,-18.24,24.42
9.7113,-0.8036,-2.152,-0.05284,-0.011301,0.015577,-47.4,-18.24,24.42
9.7522,-0.74912,-2.0294,-0.047037,-0.026878,0.018631,-47.34,-18.36,24.6
9.7522,-0.68102,-2.0839,-0.041539,-0.03543,0.021686,-47.28,-18.48,24.54
9.6568,-0.72188,-2.1656,-0.0281,-0.01741,0.018021,-47.22,-18.54,24.6
9.6023,-0.70826,-2.2882,-0.021686,0.015882,0.015882,-47.16,-18.48,24.66
9.6704,-0.72188,-2.2474,-0.020769,0.03879,0.0097738,-47.04,-18.3,24.6
9.6704,-0.64016,-2.2474,-0.024435,0.067501,0.01069,-47.04,-18.24,24.66
9.8203,-0.77636,-2.0022,-0.024129,0.048258,0.016188,-47.04,-18.36,24.9
9.7794,-0.76274,-2.0567,-0.027794,0.017104,0.014355,-47.04,-18.42,25.08
9.6977,-0.78998,-2.0839,-0.027184,-0.017715,0.012217,-46.98,-18.42,25.02
9.6704,-0.8036,-2.1656,-0.032681,-0.020159,0.02138,-47.04,-18.42,24.96
9.7249,-0.81722,-2.152,-0.03207,-0.0097738,0.020464,-46.86,-18.54,24.96
9.6977,-0.83084,-2.1656,-0.036346,-0.000916,0.02138,-46.86,-18.54,24.9
9.7113,-0.72188,-2.2474,-0.035125,-0.0018326,0.020159,-47.04,-18.48,24.78
9.7522,-0.7355,-2.152,-0.037568,-0.0045815,0.029016,-46.92,-18.42,24.84
9.6704,-0.7355,-2.0975,-0.033598,-0.014966,0.022297,-47.04,-18.42,24.9
9.6977,-0.7355,-2.2201,-0.027184,-0.0085521,0.025962,-47.1,-18.24,24.84
9.6977,-0.7355,-2.2882,-0.031154,0.0027489,0.023518,-47.22,-18.3,24.9
9.6977,-0.8036,-2.2201,-0.036041,0.018631,0.013744,-47.22,-18.36,24.72
9.7658,-0.72188,-2.0294,-0.032987,0.0039706,0.015577,-47.16,-18.54,24.72
9.6432,-0.78998,-2.0567,-0.035736,-0.017715,0.015882,-47.28,-18.54,24.6
9.6704,-0.78998,-2.1248,-0.036346,-0.019548,0.016188,-47.22,-18.54,24.54
9.7249,-0.77636,-2.1656,-0.034514,-0.024129,0.018937,-47.22,-18.54,24.78
9.6977,-0.76274,-2.2882,-0.029627,-0.015577,0.018021,-47.22,-18.54,24.72
9.6432,-0.76274,-2.1929,-0.036652,-0.0079412,0.023824,-47.16,-18.54,24.6
9.7249,-0.72188,-2.1384,-0.038485,-0.0015272,0.02474,-46.98,-18.54,24.72
9.7113,-0.7355,-2.1112,-0.047342,0.000916,0.018326,-47.04,-18.48,24.72
9.7113,-0.72188,-2.0294,-0.043677,0.0018326,0.018326,-47.04,-18.54,24.6
9.6432,-0.74912,-2.152,-0.043066,-0.0054978,0.01741,-47.04,-18.48,24.72
9.6977,-0.76274,-2.1384,-0.036041,-0.000305,0.025045,-46.86,-18.66,24.78
9.7522,-0.70826,-2.1248,-0.038179,0.0012217,0.019548,-46.86,-18.54,24.9
9.7385,-0.78998,-2.1656,-0.037568,0.000916,0.020159,-46.8,-18.54,24.9
9.6977,-0.81722,-2.0567,-0.040623,-0.0027489,0.016799,-46.74,-18.42,24.96
9.6977,-0.76274,-2.1384,-0.045815,-0.012217,0.01741,-46.86,-18.42,25.08
9.7385,-0.76274,-2.2882,-0.040317,-0.025351,0.02474,-46.86,-18.3,24.9
9.6568,-0.84446,-2.2201,-0.040317,0.000305,0.022907,-46.92,-18.18,24.9
9.7249,-0.76274,-2.3018,-0.042761,0.015882,0.011301,-47.04,-18.24,24.84
9.7385,-0.76274,-2.1248,-0.049175,0.02474,0.0073304,-47.04,-18.36,24.96
9.6977,-0.7355,-2.0703,-0.049786,0.014355,0.0061087,-47.04,-18.36,24.96
9.6977,-0.72188,-2.0703,-0.041844,-0.0073304,0.021075,-47.04,-18.36,25.02
9.7385,-0.7355,-2.1929,-0.025962,-0.015882,0.019242,-47.28,-18.42,25.02
9.6568,-0.74912,-2.2065,-0.019548,-0.002138,0.013134,-47.28,-18.18,24.84
9.7113,-0.7355,-2.2337,-0.019548,0.012828,0.011912,-47.34,-18.3,24.84
9.6568,-0.7355,-2.2065,-0.039706,0.029016,0.01741,-47.28,-18.24,24.78
9.7113,-0.76274,-2.0839,-0.045204,0.012217,0.009163,-47.4,-18.18,24.54
9.6841,-0.7355,-2.1384,-0.048258,-0.0054978,0.019242,-47.46,-18.18,24.42
9.6977,-0.70826,-2.2201,-0.045815,-0.0058032,0.024129,-47.46,-18.12,24.42
9.6704,-0.7355,-2.2065,-0.044288,0.0024435,0.029016,-47.52,-18.12,24.54
9.6704,-0.76274,-2.261,-0.041844,0.013439,0.022297,-47.34,-18.18,24.6
9.7249,-0.74912,-2.1656,-0.037874,0.036041,0.012828,-47.28,-18.12,24.48
9.7113,-0.77636,-2.0703,-0.037263,0.025351,0.011912,-47.28,-18.0,24.48
9.7658,-0.7355,-2.0703,-0.03146,0.016188,0.016188,-47.34,-18.06,24.54
9.6841,-0.70826,-2.152,-0.020159,0.0012217,0.021075,-47.28,-17.94,24.66
9.6704,-0.83084,-2.0703,-0.023213,0.0051924,0.025351,-47.46,-17.94,24.84
9.7658,-0.8036,-2.1248,-0.021686,0.019548,0.021075,-47.46,-17.82,24.96
9.8203,-0.74912,-2.1248,-0.03543,0.025045,0.018937,-47.52,-17.82,24.96
9.6568,-0.7355,-2.152,-0.029627,0.016188,0.015882,-47.52,-17.82,25.2
9.6296,-0.7355,-2.152,-0.03543,0.0061087,0.011301,-47.46,-17.82,25.2
9.6432,-0.70826,-2.1384,-0.038179,0.0012217,0.023213,-47.28,-17.82,25.2
9.7522,-0.74912,-2.2065,-0.0281,-0.0048869,0.015882,-47.22,-17.82,25.14
9.6977,-0.76274,-2.1248,-0.021075,-0.000305,0.018021,-47.34,-17.82,25.2
9.6841,-0.76274,-2.0839,-0.025351,0.0094684,0.019853,-47.4,-17.76,25.14
9.6977,-0.81722,-2.0294,-0.041233,0.021075,0.012217,-47.4,-17.82,25.08
9.7522,-0.83084,-2.0839,-0.036041,0.015882,0.013439,-47.28,-17.82,24.84
9.6704,-0.76274,-2.1248,-0.035736,-0.000305,0.019548,-47.22,-18.0,24.84
9.6432,-0.78998,-2.152,-0.034819,-0.0051924,0.021075,-47.16,-18.18,24.6
9.7113,-0.76274,-2.1793,-0.026267,-0.0012217,0.022297,-47.22,-18.18,24.54
9.7249,-0.72188,-2.152,-0.030543,0.014355,0.019242,-47.22,-18.18,24.6
9.6704,-0.72188,-2.1112,-0.037568,0.011912,0.015272,-47.28,-18.12,24.48
9.7113,-0.76274,-2.0294,-0.038179,-0.0061087,0.019853,-47.22,-18.18,24.66
9.6977,-0.77636,-2.1112,-0.037568,-0.024129,0.025656,-47.46,-18.24,24.66
9.6977,-0.7355,-2.1929,-0.037568,-0.024129,0.021686,-47.52,-18.3,24.72
9.6568,-0.84446,-2.1929,-0.033903,0.0048869,0.022907,-47.58,-18.36,24.66
9.6568,-0.83084,-2.1793,-0.033903,0.016493,0.014966,-47.52,-18.48,24.78
9.8475,-0.8036,-2.0431,-0.041233,0.019242,0.012828,-47.58,-18.36,24.78
9.8203,-0.76274,-1.9886,-0.037568,-0.0051924,0.015882,-47.64,-18.36,24.84
9.7113,-0.70826,-2.0567,-0.038485,-0.022297,0.016799,-47.7,-18.24,25.02
9.6704,-0.76274,-2.2201,-0.041539,-0.015577,0.022602,-47.64,-18.12,25.02
9.6977,-0.7355,-2.2201,-0.026267,0.0012217,0.011301,-47.58,-18.06,24.84
9.7385,-0.76274,-2.0839,-0.025045,0.0097738,0.013744,-47.46,-18.18,24.96
9.6977,-0.76274,-2.1384,-0.028711,0.002138,0.016799,-47.4,-18.42,24.84
9.7658,-0.76274,-2.1248,-0.035736,-0.0058032,0.023518,-47.4,-18.54,24.78
9.7522,-0.76274,-2.152,-0.041233,-0.012828,0.01741,-47.1,-18.54,24.78
9.6977,-0.74912,-2.0703,-0.042455,-0.018937,0.023824,-46.92,-18.48,24.78
9.6568,-0.8036,-2.0703,-0.030849,-0.01069,0.025656,-46.74,-18.42,24.96
9.7113,-0.76274,-2.0567,-0.023213,-0.000305,0.025351,-46.8,-18.3,24.78
9.6841,-0.7355,-2.1248,-0.023518,0.0076358,0.020159,-46.8,-18.36,24.66
9.7794,-0.69464,-2.0022,-0.032987,0.0030543,0.014661,-46.8,-18.3,24.66
9.6977,-0.74912,-2.1248,-0.033598,-0.0012217,0.018326,-46.68,-18.3,24.42
9.7522,-0.8036,-2.1112,-0.047037,-0.018021,0.016188,-46.8,-18.36,24.6
9.6704,-0.78998,-2.1929,-0.030849,-0.025962,0.020769,-46.8,-18.48,24.6
9.6432,-0.74912,-2.1929,-0.040317,-0.0064141,0.021686,-46.86,-18.36,24.54
9.6977,-0.76274,-2.3018,-0.036346,0.015577,0.013744,-46.74,-18.24,24.6
9.8339,-0.8036,-2.1248,-0.046731,0.022907,0.013744,-46.68,-18.18,24.48
9.6977,-0.76274,-2.0158,-0.033903,-0.011301,0.014966,-46.86,-18.12,24.48
9.6568,-0.72188,-2.1248,-0.03207,-0.015882,0.021075,-47.04,-18.0,24.6
9.7249,-0.76274,-2.1793,-0.032681,-0.0088575,0.023518,-47.28,-18.24,24.42
9.7658,-0.70826,-2.152,-0.03146,-0.0048869,0.023213,-47.4,-18.3,24.6
9.6977,-0.74912,-2.152,-0.035736,0.010385,0.019853,-47.4,-18.3,24.66
9.6977,-0.8036,-2.2474,-0.034819,-0.0012217,0.016799,-47.46,-18.24,24.54
9.7113,-0.7355,-2.1384,-0.033903,-0.0073304,0.017715,-47.52,-18.24,24.66
9.7385,-0.76274,-2.1384,-0.040623,-0.011606,0.020769,-47.46,-18.24,24.66
9.6841,-0.78998,-2.1248,-0.03146,-0.000305,0.018326,-47.46,-18.48,24.42
9.6841,-0.78998,-2.1248,-0.03146,-0.000305,0.018326,-47.46,-18.48,24.42
9.7522,-0.81722,-2.152,-0.033598,0.013134,0.020159,-47.22,-18.48,24.42
9.793,-0.78998,-2.1929,-0.031765,0.011606,0.024129,-47.28,-18.48,24.48
9.7794,-0.74912,-2.1384,-0.044288,0.0048869,0.020769,-47.34,-18.72,24.42
9.6977,-0.7355,-2.1112,-0.037263,-0.0048869,0.027184,-47.34,-18.66,24.6
9.6568,-0.8036,-2.0703,-0.038179,-0.015577,0.019548,-47.28,-18.6,24.6
9.6977,-0.78998,-2.152,-0.030849,-0.022602,0.029322,-47.28,-18.6,24.48
9.6704,-0.7355,-2.2746,-0.035125,-0.0076358,0.025656,-47.28,-18.6,24.66
9.7658,-0.76274,-2.152,-0.039401,0.01741,0.018021,-47.1,-18.72,24.66
9.7385,-0.74912,-2.1248,-0.038485,0.0054978,0.011606,-46.98,-18.72,24.78
9.6841,-0.70826,-2.0022,-0.043066,-0.021991,0.015272,-46.92,-18.78,24.84
9.6704,-0.78998,-2.0567,-0.03146,-0.01741,0.013134,-46.92,-18.84,25.02
9.7249,-0.8036,-2.2201,-0.030849,-0.0085521,0.023213,-46.98,-18.66,24.84
9.7522,-0.8036,-2.2201,-0.0281,-0.0027489,0.019548,-46.8,-18.72,25.08
9.6977,-0.8036,-2.2474,-0.031765,0.0039706,0.019853,-46.74,-18.84,25.14
9.7113,-0.7355,-2.2065,-0.044593,0.0061087,0.01741,-46.74,-18.72,24.96
9.7794,-0.62654,-2.2337,-0.047647,-0.0067195,0.018937,-46.44,-18.6,24.9
9.7113,-0.70826,-2.2065,-0.045815,-0.011912,0.023518,-46.5,-18.6,25.02
9.7113,-0.7355,-2.2065,-0.03543,-0.010385,0.024129,-46.44,-18.54,25.08
9.6568,-0.81722,-2.1929,-0.044593,0.0079412,0.02474,-46.5,-18.48,25.14
9.6977,-0.74912,-2.1656,-0.033903,0.018326,0.010385,-46.92,-18.48,25.26
9.6704,-0.76274,-2.0839,-0.03543,0.014966,0.020464,-47.1,-18.48,25.14
9.6841,-0.8036,-2.1248,-0.034208,0.0054978,0.014661,-47.04,-18.3,25.08
9.7385,-0.78998,-2.1384,-0.045509,-0.0082467,0.023824,-46.98,-18.24,25.08
9.6841,-0.76274,-2.1793,-0.035736,-0.01741,0.025351,-46.86,-18.3,25.2
9.6977,-0.81722,-2.2474,-0.036041,-0.007025,0.025351,-46.98,-18.42,25.5
9.6841,-0.76274,-2.2474,-0.054367,0.011301,0.01405,-47.04,-18.42,25.5
9.793,-0.84446,-2.152,-0.056505,0.019853,0.013134,-47.04,-18.36,25.26
9.6432,-0.81722,-2.152,-0.058948,0.0085521,0.015272,-47.1,-18.24,25.14
9.616,-0.7355,-2.152,-0.045815,-0.012523,0.016493,-46.98,-18.18,25.2
9.6977,-0.7355,-2.2201,-0.030238,-0.018326,0.017715,-46.8,-18.24,25.2
9.7249,-0.7355,-2.261,-0.025045,0.0033598,0.020159,-46.8,-18.18,25.2
9.6977,-0.7355,-2.1929,-0.028711,0.016799,0.013439,-46.92,-18.12,25.08
9.7385,-0.8036,-2.1112,-0.04215,0.023213,0.0094684,-47.04,-18.18,25.26
9.7658,-0.78998,-2.0975,-0.050091,0.0085521,0.016188,-47.1,-18.12,25.02
9.7385,-0.70826,-2.0294,-0.047953,-0.0064141,0.019548,-47.28,-18.3,24.84
9.6704,-0.77636,-2.152,-0.051313,-0.011301,0.021075,-47.34,-18.36,24.84
9.6704,-0.7355,-2.2474,-0.040623,-0.0039706,0.02138,-47.28,-18.48,24.9
9.6977,-0.72188,-2.1248,-0.038179,0.026267,0.015577,-47.22,-18.66,25.02
9.6704,-0.74912,-2.1112,-0.036346,0.026267,0.013439,-47.22,-18.72,25.02
9.7522,-0.77636,-2.1384,-0.041233,0.015882,0.011606,-47.22,-18.78,24.9
9.6432,-0.8036,-2.1248,-0.043066,-0.002138,0.01069,-47.16,-18.78,24.9
9.6568,-0.77636,-2.2474,-0.046731,-0.0042761,0.016493,-47.04,-18.9,24.72
9.7385,-0.74912,-2.2746,-0.028405,-0.0024435,0.020464,-46.86,-18.9,24.84
9.6977,-0.83084,-2.2474,-0.018326,0.025962,0.012217,-47.04,-18.54,24.9
9.8475,-0.8036,-2.1793,-0.035125,0.036041,0.012828,-47.1,-18.54,24.96
9.7385,-0.76274,-2.0431,-0.047953,0.016493,0.018326,-47.22,-18.6,24.78
9.7113,-0.69464,-2.0567,-0.043677,-0.0024435,0.013744,-47.28,-18.36,24.72
9.6704,-0.7355,-2.1384,-0.036652,-0.023824,0.01405,-47.28,-18.0,24.72
9.6568,-0.77636,-2.1929,-0.023824,-0.0033598,0.021686,-47.34,-17.94,24.66
9.6704,-0.72188,-2.2337,-0.023518,0.02138,0.011606,-47.22,-17.94,24.66
9.7249,-0.7355,-2.152,-0.031765,0.034208,0.0058032,-47.28,-17.82,24.78
9.7385,-0.69464,-2.1248,-0.036957,0.025656,0.016188,-47.52,-17.88,24.78
9.7658,-0.77636,-2.0158,-0.037568,0.01069,0.014355,-47.4,-18.0,24.78
9.7385,-0.64016,-2.1112,-0.031154,-0.0039706,0.030849,-47.16,-18.3,24.78
9.7113,-0.78998,-2.1248,-0.032376,0.0045815,0.014661,-46.86,-18.18,25.02
9.7522,-0.8036,-2.152,-0.025656,0.0281,0.015272,-46.92,-18.3,25.14
9.7113,-0.8036,-2.1656,-0.028405,0.038485,0.018021,-46.8,-18.42,25.2
9.7658,-0.81722,-2.1248,-0.029932,0.03207,0.012523,-46.8,-18.66,25.14
9.7658,-0.76274,-2.1248,-0.035736,0.000916,0.010996,-47.04,-18.54,25.14
9.6568,-0.83084,-1.9613,-0.038179,-0.018937,0.022297,-47.04,-18.72,25.14
9.6977,-0.78998,-2.1112,-0.041539,-0.027489,0.023824,-47.1,-18.6,25.14
9.793,-0.8036,-2.2201,-0.025962,-0.012217,0.034514,-47.16,-18.72,25.14
9.7385,-0.8036,-2.2474,-0.028711,0.035736,0.019242,-47.16,-18.66,25.02
9.8475,-0.77636,-2.0431,-0.040623,0.030543,0.011301,-47.28,-18.72,25.2
9.8203,-0.74912,-2.0022,-0.034514,0.011301,0.016493,-47.34,-18.66,25.2
9.6977,-0.7355,-2.0567,-0.036346,-0.022297,0.01741,-47.4,-18.72,25.2
9.7658,-0.74912,-2.1929,-0.033292,-0.017104,0.018937,-47.64,-18.78,25.08
9.7249,-0.7355,-2.2201,-0.036041,0.000916,0.018631,-47.58,-18.84,25.02
9.7113,-0.76274,-2.2065,-0.018937,0.0067195,0.014661,-47.46,-18.9,25.08
9.6977,-0.8036,-2.1384,-0.027794,0.0048869,0.016493,-47.34,-18.72,24.96
9.7249,-0.78998,-2.0703,-0.032681,0.0088575,0.019242,-47.16,-18.48,24.84
9.7658,-0.74912,-2.0022,-0.035736,-0.0030543,0.020464,-47.22,-18.36,24.9
9.7385,-0.69464,-2.1248,-0.046426,-0.010385,0.023824,-47.22,-18.42,24.9
9.6432,-0.7355,-2.1656,-0.039401,-0.024129,0.018631,-47.22,-18.3,24.84
9.7794,-0.78998,-2.1793,-0.045204,-0.014355,0.02474,-47.28,-18.3,24.78
9.793,-0.76274,-2.0975,-0.035736,-0.0027489,0.020769,-47.22,-18.42,24.72
9.7385,-0.70826,-2.1656,-0.037263,0.015272,0.016799,-46.92,-18.36,24.84
9.7113,-0.7355,-2.152,-0.032376,0.013439,0.017715,-47.04,-18.18,24.78
9.793,-0.84446,-2.1112,-0.029627,0.0042761,0.012523,-47.1,-18.36,24.72
9.6704,-0.74912,-2.1793,-0.027184,-0.0088575,0.016799,-47.1,-18.42,24.66
9.6977,-0.76274,-2.261,-0.026267,-0.0042761,0.026878,-47.16,-18.42,24.72
9.6704,-0.8036,-2.1929,-0.030543,0.018937,0.014355,-47.04,-18.36,24.78
9.7522,-0.83084,-2.0703,-0.046731,0.024129,0.016188,-46.98,-18.42,24.6
9.7113,-0.76274,-2.0839,-0.041844,0.017104,0.011301,-47.04,-18.3,24.36
9.7113,-0.7355,-2.0975,-0.045509,-0.010385,0.024129,-47.04,-18.18,24.54
9.7385,-0.77636,-2.1384,-0.036041,-0.009163,0.022907,-47.4,-18.06,24.48
9.7113,-0.77636,-2.1384,-0.024129,-0.000305,0.023518,-47.46,-18.24,24.54
9.6432,-0.77636,-2.1248,-0.02474,0.0067195,0.017715,-47.46,-18.3,24.6
9.6841,-0.7355,-2.261,-0.010385,0.007025,0.020464,-47.52,-18.3,24.66
9.6977,-0.7355,-2.1248,-0.018937,0.014966,0.015882,-47.64,-18.48,24.6
9.7113,-0.74912,-2.0294,-0.026267,0.021686,0.020769,-47.52,-18.54,24.66
9.7249,-0.78998,-2.1793,-0.02474,0.013134,0.022907,-47.7,-18.3,24.66
9.7385,-0.7355,-2.2065,-0.017104,0.026267,0.026267,-47.52,-18.36,24.72
9.7658,-0.7355,-2.0703,-0.02138,0.026878,0.02138,-47.46,-18.36,24.9
9.7522,-0.76274,-2.0839,-0.014966,0.022297,0.019242,-47.34,-18.3,24.84
9.7522,-0.77636,-2.0567,-0.02138,0.018021,0.016799,-47.22,-18.3,24.78
9.7794,-0.81722,-2.0294,-0.028405,0.013439,0.013134,-47.1,-18.12,24.9
9.7385,-0.78998,-2.0567,-0.037263,0.0042761,0.018326,-46.98,-18.0,24.9
9.7385,-0.8036,-2.0839,-0.039706,-0.013744,0.01741,-47.1,-17.94,25.02
9.6432,-0.74912,-2.1384,-0.035125,-0.029016,0.018937,-47.16,-17.94,24.96
9.6704,-0.76274,-2.2201,-0.026878,-0.012523,0.021686,-47.16,-18.0,24.96
9.7658,-0.76274,-2.152,-0.036652,0.0033598,0.020159,-47.22,-18.0,24.9
9.6977,-0.78998,-2.0839,-0.036346,0.014355,0.015577,-47.28,-18.12,24.9
9.7249,-0.77636,-2.0975,-0.031765,0.012217,0.013439,-47.34,-18.3,24.66
9.7113,-0.72188,-2.0567,-0.039706,0.012828,0.019853,-47.28,-18.3,24.66
9.7113,-0.7355,-2.0294,-0.036346,0.0048869,0.021075,-47.34,-18.42,24.66
9.7113,-0.7355,-2.0839,-0.03146,-0.011912,0.018631,-47.34,-18.36,24.6
9.7113,-0.77636,-2.0975,-0.038485,-0.019853,0.021075,-47.46,-18.6,24.72
9.6977,-0.70826,-2.152,-0.045204,-0.015577,0.020464,-47.34,-18.54,24.84
9.7113,-0.81722,-2.1248,-0.050702,-0.0088575,0.021075,-47.16,-18.48,24.72
9.6977,-0.76274,-2.0839,-0.047953,-0.028405,0.029016,-47.16,-18.6,25.02
9.6841,-0.7355,-2.152,-0.049786,-0.029016,0.031765,-47.22,-18.72,24.96
9.6568,-0.8036,-2.1929,-0.040928,-0.0039706,0.026573,-47.22,-18.54,25.14
9.6432,-0.7355,-2.1929,-0.043677,0.017104,0.019853,-47.04,-18.54,25.14
9.7249,-0.70826,-2.2474,-0.039095,0.033598,0.01741,-47.1,-18.48,25.14
9.7794,-0.72188,-2.1384,-0.024129,0.029322,0.014661,-47.04,-18.36,25.2
9.7113,-0.83084,-2.1112,-0.028405,0.021991,0.0097738,-47.04,-18.3,25.14
9.7249,-0.74912,-2.0431,-0.022907,0.012217,0.015577,-47.1,-18.24,24.9
9.6704,-0.78998,-2.0975,-0.021075,0.010385,0.0061087,-46.98,-18.18,24.9
9.7522,-0.7355,-2.152,-0.020769,0.019548,0.0079412,-47.22,-18.24,25.02
9.793,-0.84446,-2.1248,-0.026878,0.027184,0.020159,-47.22,-18.3,24.84
9.6841,-0.76274,-2.152,-0.024435,0.033598,0.0097738,-47.16,-18.24,24.84
9.6296,-0.7355,-2.0567,-0.020159,0.034208,0.0082467,-47.16,-18.24,24.66
9.7385,-0.78998,-2.0431,-0.028711,0.014966,0.018631,-47.16,-18.3,24.66
9.7385,-0.70826,-2.0294,-0.028405,-0.0045815,0.021075,-47.28,-18.3,24.66
9.6977,-0.7355,-2.152,-0.027489,-0.0076358,0.016188,-47.46,-18.42,24.72
9.6704,-0.8036,-2.152,-0.03543,-0.017715,0.018326,-47.46,-18.6,24.72
9.7385,-0.76274,-2.0431,-0.048564,-0.020464,0.019242,-47.46,-18.48,24.6
9.8339,-0.76274,-2.0567,-0.058643,-0.030543,0.025045,-47.76,-18.48,24.66
9.7522,-0.8036,-2.0158,-0.046426,-0.034514,0.023213,-47.82,-18.48,24.78
9.6841,-0.8036,-2.0703,-0.050091,-0.017104,0.029322,-47.76,-18.48,24.66
9.6568,-0.74912,-2.152,-0.03207,-0.000305,0.02474,-47.82,-18.3,24.66
9.7249,-0.7355,-2.2065,-0.033292,0.024129,0.013439,-47.88,-18.36,24.78
9.7794,-0.70826,-2.1656,-0.032681,0.022297,0.013744,-47.82,-18.12,25.02
9.7385,-0.72188,-2.1248,-0.038179,0.011301,0.017104,-47.64,-18.12,25.2
9.8066,-0.68102,-2.0567,-0.040623,-0.0085521,0.011301,-47.58,-18.06,25.14
9.6977,-0.77636,-2.0703,-0.039401,-0.027184,0.01741,-47.34,-18.0,25.2
9.7522,-0.83084,-2.152,-0.031154,-0.019548,0.019853,-47.46,-18.0,25.26
9.793,-0.8036,-2.1656,-0.040317,-0.0036652,0.014966,-47.4,-17.88,25.2
9.793,-0.77636,-2.1248,-0.035736,0.007025,0.01069,-47.34,-18.0,25.14
9.6432,-0.70826,-2.0975,-0.027794,-0.002138,0.013134,-47.34,-18.18,25.14
9.6296,-0.74912,-2.1112,-0.031154,-0.0042761,0.013439,-47.16,-18.24,25.14
9.7249,-0.70826,-2.1384,-0.031765,0.022907,0.018021,-47.22,-18.24,25.2
9.7385,-0.7355,-2.2201,-0.025962,0.018021,0.011912,-47.28,-18.42,25.14
9.6841,-0.7355,-2.1112,-0.025962,0.010385,0.014355,-47.22,-18.36,25.02
9.6977,-0.70826,-2.0839,-0.035736,0.013744,0.010385,-47.34,-18.54,24.84
9.7385,-0.74912,-2.1248,-0.034514,-0.0036652,0.022297,-47.52,-18.54,24.78
9.7385,-0.74912,-2.1248,-0.032681,-0.0082467,0.021991,-47.64,-18.54,24.72
9.6977,-0.78998,-2.0294,-0.033292,0.0030543,0.020159,-47.64,-18.66,24.84
9.7113,-0.81722,-2.1112,-0.035736,0.0076358,0.021075,-47.7,-18.66,24.72
9.7249,-0.76274,-2.0839,-0.037263,0.0082467,0.026267,-47.76,-18.78,24.66
9.7385,-0.61292,-2.0431,-0.040012,0.0045815,0.019853,-47.76,-18.78,24.9
9.7385,-0.7355,-2.0567,-0.041844,-0.013134,0.021686,-47.76,-18.54,25.02
9.7658,-0.74912,-2.0567,-0.041539,-0.019242,0.022907,-47.88,-18.54,24.84
9.7522,-0.7355,-2.0839,-0.042455,-0.022602,0.020159,-47.76,-18.6,24.84
9.7249,-0.6674,-2.1384,-0.048258,-0.023824,0.023824,-47.7,-18.54,24.78
9.6841,-0.76274,-2.1929,-0.037568,-0.013439,0.018631,-47.7,-18.48,24.72
9.7794,-0.8036,-2.0975,-0.037263,0.010079,0.023824,-47.76,-18.6,24.84
9.7113,-0.81722,-2.0294,-0.050091,-0.0027489,0.026267,-47.52,-18.6,24.9
9.7113,-0.8036,-2.0022,-0.047342,-0.027184,0.03207,-47.34,-18.66,24.96
9.6977,-0.84446,-2.0158,-0.053756,-0.016799,0.018631,-47.16,-18.66,24.9
9.7249,-0.85808,-2.2474,-0.049786,-0.013744,0.022602,-47.16,-18.66,25.08
9.6977,-0.76274,-2.1656,-0.042455,-0.033598,0.028405,-47.1,-18.6,25.02
9.6296,-0.7355,-2.2474,-0.034819,-0.035736,0.023824,-47.34,-18.72,24.96
9.6568,-0.77636,-2.2882,-0.037874,-0.0088575,0.018326,-47.22,-18.72,24.9
9.6977,-0.78998,-2.2882,-0.054978,0.0097738,0.017104,-47.22,-18.72,25.02
9.8066,-0.78998,-2.0703,-0.03879,0.016493,0.016493,-47.16,-18.66,25.14
9.7522,-0.8036,-2.0567,-0.036041,0.0082467,0.018937,-47.16,-18.66,25.14
9.6841,-0.8036,-2.0703,-0.030238,0.0067195,0.017104,-47.16,-18.66,25.2
9.6977,-0.84446,-2.1793,-0.03146,0.018326,0.024129,-47.28,-18.66,25.14
9.7249,-0.84446,-2.152,-0.034819,0.020464,0.013744,-47.46,-18.54,25.14
9.7658,-0.8036,-2.1112,-0.038485,0.0094684,0.021686,-47.52,-18.6,25.2
9.7658,-0.76274,-2.0975,-0.034819,-0.0015272,0.016188,-47.64,-18.6,25.2
9.7249,-0.78998,-2.1384,-0.040928,-0.0045815,0.013439,-47.76,-18.42,25.02
9.7113,-0.78998,-2.1248,-0.036957,-0.0073304,0.024129,-47.82,-18.42,24.9
9.6841,-0.7355,-2.2065,-0.033292,-0.0094684,0.016799,-47.82,-18.3,25.08
9.6841,-0.70826,-2.2201,-0.045204,0.0058032,0.020159,-47.88,-18.12,24.9
9.7113,-0.76274,-2.0975,-0.053756,0.0097738,0.018631,-47.82,-18.06,25.02
9.7113,-0.81722,-2.0294,-0.053756,0.0054978,0.010996,-47.82,-18.12,25.02
9.6841,-0.76274,-2.0975,-0.048869,0.000916,0.0097738,-47.82,-18.36,24.9
9.6704,-0.76274,-2.0703,-0.036652,-0.0051924,0.0094684,-47.76,-18.24,25.08
9.6977,-0.70826,-2.0975,-0.040928,-0.0073304,0.020464,-47.7,-18.24,25.08
9.7249,-0.8036,-2.1384,-0.032376,0.0045815,0.013744,-47.7,-18.18,24.96
9.7385,-0.74912,-2.0839,-0.046426,-0.000916,0.019548,-47.76,-18.06,25.08
9.7794,-0.74912,-2.0975,-0.051007,-0.0097738,0.016493,-47.7,-18.0,24.96
9.7113,-0.74912,-2.1248,-0.047953,-0.023824,0.015882,-47.58,-18.06,25.08
9.7385,-0.8036,-2.152,-0.051924,-0.026573,0.018326,-47.52,-17.88,25.26
9.6568,-0.77636,-2.2337,-0.039401,-0.012217,0.021075,-47.28,-17.82,25.26
9.6704,-0.76274,-2.1656,-0.035736,0.015577,0.019242,-47.28,-18.06,25.38
9.6704,-0.7355,-2.152,-0.037263,0.02474,0.013134,-47.22,-18.0,25.26
9.6704,-0.76274,-2.1384,-0.042455,0.025351,0.015272,-47.16,-17.82,25.14
9.7113,-0.77636,-2.0431,-0.042761,0.010996,0.016188,-47.22,-17.76,25.26
9.6841,-0.8036,-2.1112,-0.031765,0.000916,0.018021,-47.34,-17.94,25.08
9.6432,-0.7355,-2.1656,-0.030543,-0.014966,0.018631,-47.22,-17.88,25.02
9.7113,-0.81722,-2.2065,-0.025351,0.0094684,0.012523,-47.22,-17.94,25.08
9.7522,-0.76274,-2.152,-0.027794,0.016493,0.0076358,-47.28,-17.94,25.02
9.793,-0.83084,-2.1384,-0.044288,0.019242,0.018631,-47.28,-17.94,25.2
9.7113,-0.78998,-2.0839,-0.044593,0.013134,0.019242,-47.28,-18.24,25.14
9.6704,-0.7355,-2.0975,-0.034514,-0.0067195,0.021991,-47.34,-18.42,25.08
9.7113,-0.81722,-2.1248,-0.024129,-0.018937,0.02474,-47.46,-18.48,25.14
9.6432,-0.77636,-2.1929,-0.029322,0.000916,0.019853,-47.22,-18.36,25.08
9.6704,-0.76274,-2.1793,-0.031154,0.0094684,0.023518,-47.28,-18.42,25.14
9.8066,-0.77636,-2.1112,-0.036652,0.01741,0.021686,-47.16,-18.42,24.96
9.793,-0.7355,-2.1248,-0.041539,-0.007025,0.015882,-47.28,-18.42,25.02
9.6704,-0.76274,-2.0975,-0.044899,-0.020769,0.015882,-47.16,-18.3,25.02
9.7113,-0.8036,-2.1929,-0.049786,-0.016188,0.025656,-47.1,-18.36,25.08
9.6977,-0.8036,-2.2337,-0.034208,0.000611,0.020159,-47.04,-18.36,25.02
9.6977,-0.83084,-2.1112,-0.037263,0.02474,0.022907,-46.92,-18.36,24.96
9.6977,-0.81722,-2.0567,-0.025656,0.026573,0.016188,-46.86,-18.54,24.9
9.7249,-0.8036,-2.0294,-0.036652,-0.000611,0.019853,-46.8,-18.24,24.96
9.6977,-0.8036,-2.0975,-0.043982,-0.015882,0.027489,-46.8,-18.24,24.96
9.6977,-0.77636,-2.152,-0.045815,-0.018937,0.028405,-46.92,-18.18,24.9
9.7113,-0.74912,-2.1929,-0.027489,0.0045815,0.027184,-47.04,-18.24,24.72
9.6977,-0.83084,-2.152,-0.025045,0.032376,0.018631,-47.1,-18.18,24.6
9.7658,-0.76274,-2.1112,-0.028405,0.040012,0.012828,-46.98,-18.3,24.6
9.8611,-0.78998,-2.0839,-0.041233,0.012523,0.016188,-47.04,-18.3,24.6
9.793,-0.7355,-2.0294,-0.03543,0.0012217,0.01405,-47.1,-18.36,24.72
9.6023,-0.7355,-2.0703,-0.038179,-0.010385,0.014966,-47.22,-18.36,24.78
9.7385,-0.77636,-2.2201,-0.026878,-0.0067195,0.021075,-47.22,-18.36,24.84
9.7385,-0.77636,-2.2201,-0.01405,-0.000305,0.025045,-47.16,-18.36,24.78
9.8066,-0.78998,-2.1929,-0.018326,0.0088575,0.02474,-47.22,-18.3,24.6
9.7658,-0.83084,-2.1112,-0.034208,0.015272,0.013744,-47.22,-18.12,24.48
9.793,-0.74912,-2.0703,-0.037263,0.0073304,0.014661,-47.22,-18.12,24.6
9.6296,-0.78998,-2.0294,-0.037263,-0.017104,0.016799,-47.1,-18.12,24.48
9.7113,-0.89894,-2.152,-0.039706,-0.027489,0.030238,-46.98,-18.0,24.66
9.7385,-0.76274,-2.2065,-0.043677,-0.011606,0.028711,-46.98,-18.12,24.66
9.6977,-0.81722,-2.152,-0.0281,0.0079412,0.022297,-47.16,-18.12,24.72
9.6977,-0.78998,-2.1248,-0.029322,0.023518,0.019548,-46.98,-18.24,24.66
9.793,-0.77636,-2.0975,-0.034514,0.018631,0.015577,-46.92,-18.12,24.66
9.7385,-0.78998,-2.0839,-0.036652,0.0045815,0.024129,-46.98,-18.24,24.6
9.6977,-0.8036,-2.152,-0.047953,-0.020769,0.023518,-47.04,-18.42,24.36
9.7113,-0.7355,-2.152,-0.049175,-0.026267,0.027794,-46.98,-18.48,24.42
9.7249,-0.76274,-2.152,-0.040928,-0.023518,0.025656,-47.04,-18.48,24.6
9.7113,-0.8036,-2.1248,-0.047953,0.010079,0.015882,-46.98,-18.78,24.72
9.7522,-0.85808,-2.0975,-0.04215,0.0027489,0.01741,-46.92,-18.9,24.6
9.7794,-0.8036,-1.9886,-0.048869,-0.024129,0.013744,-47.04,-19.02,24.72
9.6568,-0.7355,-2.0839,-0.048258,-0.042455,0.019853,-47.16,-19.2,24.78
9.6704,-0.76274,-2.2337,-0.050091,-0.043677,0.028711,-47.1,-19.2,24.96
9.6977,-0.77636,-2.1793,-0.03543,-0.036346,0.0281,-46.98,-19.08,24.9
9.6977,-0.76274,-2.261,-0.029627,-0.018326,0.019548,-46.92,-19.08,25.02
9.6568,-0.77636,-2.3699,-0.028405,0.010996,0.017104,-46.8,-19.08,25.08
9.793,-0.77636,-2.1929,-0.03543,0.019853,0.017715,-46.8,-19.08,25.08
9.7385,-0.76274,-2.2201,-0.041539,0.013439,0.014661,-46.62,-18.78,25.14
9.7385,-0.85808,-2.1248,-0.037874,-0.0036652,0.025656,-46.8,-18.66,25.26
9.7113,-0.8717,-2.1112,-0.035736,-0.010385,0.020159,-46.74,-18.48,25.14
9.6841,-0.8036,-2.1384,-0.031154,0.0033598,0.021686,-46.86,-18.42,25.14
9.6432,-0.83084,-2.2065,-0.022602,0.018021,0.013744,-46.98,-18.3,25.08
9.6841,-0.76274,-2.1929,-0.024435,0.023518,0.020769,-46.86,-18.3,24.96
9.7249,-0.74912,-2.1248,-0.039706,0.0061087,0.022297,-46.92,-18.3,24.96
9.6568,-0.65378,-2.2201,-0.047953,-0.007025,0.016493,-46.92,-18.24,24.9
9.7385,-0.70826,-2.1929,-0.043982,-0.023518,0.023518,-47.1,-18.12,24.96
9.6841,-0.7355,-2.1929,-0.041233,-0.022297,0.023824,-47.04,-18.12,24.96
9.7385,-0.83084,-2.2201,-0.040012,0.007025,0.01741,-47.28,-18.06,24.96
9.7658,-0.84446,-2.152,-0.042761,0.025045,0.016799,-47.4,-18.12,24.9
9.7658,-0.83084,-2.0567,-0.040928,0.01741,0.01405,-47.52,-18.18,25.08
9.6432,-0.76274,-2.0839,-0.037568,-0.012523,0.021686,-47.46,-18.3,24.9
9.6432,-0.7355,-2.0294,-0.027184,-0.029627,0.024129,-47.4,-18.3,25.08
9.6841,-0.78998,-2.1793,-0.027184,-0.027489,0.018937,-47.46,-18.42,25.02
9.6977,-0.8036,-2.2474,-0.034819,-0.013744,0.019548,-47.46,-18.48,25.2
9.6432,-0.76274,-2.2474,-0.036957,0.0058032,0.01405,-47.34,-18.36,25.2
9.6841,-0.76274,-2.1929,-0.037874,0.007025,0.017104,-47.22,-18.3,25.08
9.6977,-0.77636,-2.2337,-0.035736,-0.0012217,0.018021,-47.16,-18.24,25.08
9.7385,-0.76274,-2.2201,-0.037263,-0.0048869,0.016493,-47.1,-18.3,25.2
9.6432,-0.76274,-2.1929,-0.037874,-0.0024435,0.021991,-47.1,-18.36,25.26
9.6568,-0.78998,-2.1248,-0.033292,0.002138,0.030238,-47.1,-18.24,25.26
9.6568,-0.81722,-2.152,-0.036957,0.0054978,0.023213,-47.1,-18.18,25.2
9.7249,-0.78998,-2.152,-0.037874,0.0033598,0.019853,-47.04,-18.06,25.2
9.6704,-0.74912,-2.1656,-0.037874,-0.0048869,0.016493,-46.98,-18.12,25.32
9.6296,-0.76274,-2.1793,-0.037263,-0.0073304,0.022297,-47.04,-18.12,25.2
9.7794,-0.70826,-2.2474,-0.04215,-0.013134,0.029016,-47.16,-18.0,25.2
9.6977,-0.76274,-2.1656,-0.043677,-0.014661,0.020159,-47.1,-18.06,25.26
9.6568,-0.8036,-2.1793,-0.034514,-0.0036652,0.020769,-47.28,-18.12,25.32
9.6977,-0.8036,-2.2065,-0.038179,0.0085521,0.017104,-47.4,-18.24,25.44
9.7385,-0.8036,-2.0567,-0.044288,0.000611,0.017104,-47.4,-18.06,25.44
9.6704,-0.78998,-2.0567,-0.03879,-0.019548,0.015577,-47.4,-18.06,25.44
9.6568,-0.74912,-2.1112,-0.040928,-0.023824,0.0281,-47.4,-18.0,25.38
9.6568,-0.7355,-2.1929,-0.033903,-0.029322,0.029627,-47.28,-18.06,25.38
9.6977,-0.77636,-2.3155,-0.036041,-0.0076358,0.029016,-47.4,-18.12,25.62
9.6432,-0.77636,-2.3427,-0.035125,0.010996,0.016188,-47.34,-18.24,25.56
9.6432,-0.78998,-2.2201,-0.03543,0.011301,0.021991,-47.28,-18.18,25.62
9.6977,-0.77636,-2.1793,-0.034514,-0.0076358,0.026573,-47.52,-18.18,25.5
9.6704,-0.78998,-2.2337,-0.03879,-0.0039706,0.027794,-47.46,-18.12,25.5
9.6704,-0.74912,-2.261,-0.044288,-0.0082467,0.022297,-47.46,-18.12,25.44
9.6704,-0.78998,-2.2201,-0.050702,0.0039706,0.016799,-47.4,-18.0,25.44
9.7249,-0.83084,-2.152,-0.036957,0.0036652,0.022907,-47.28,-17.94,25.26
9.6704,-0.85808,-2.152,-0.031154,0.000305,0.026573,-47.4,-18.0,25.26
9.6977,-0.81722,-2.2201,-0.033598,0.002138,0.02138,-47.4,-17.88,25.2
9.7249,-0.78998,-2.2337,-0.043066,-0.000305,0.021075,-47.46,-17.88,25.32
9.6977,-0.78998,-2.2065,-0.036652,-0.0024435,0.016493,-47.4,-17.76,25.2
9.6704,-0.78998,-2.0975,-0.040012,-0.018021,0.022907,-47.22,-17.7,25.14
9.6432,-0.76274,-2.2882,-0.030543,-0.025962,0.021991,-47.34,-17.76,25.02
9.6704,-0.83084,-2.2474,-0.039706,0.0079412,0.019853,-47.34,-17.7,25.26
9.7249,-0.8036,-2.1793,-0.040012,0.017104,0.014355,-47.22,-17.7,25.2
9.7113,-0.83084,-2.1112,-0.055283,-0.012828,0.017104,-47.16,-17.76,25.08
9.6568,-0.83084,-2.1384,-0.051007,-0.025962,0.01741,-47.1,-17.76,25.08
9.6568,-0.8036,-2.3018,-0.045815,-0.029627,0.020769,-46.98,-17.76,25.02
9.7113,-0.83084,-2.3427,-0.037263,-0.018631,0.018021,-47.04,-17.82,25.08
9.6977,-0.76274,-2.3291,-0.033292,-0.0073304,0.017715,-47.1,-17.82,25.02
9.7385,-0.81722,-2.2882,-0.039706,0.0030543,0.016493,-47.04,-17.94,25.14
9.6841,-0.8036,-2.1656,-0.040928,0.0018326,0.012523,-47.04,-18.0,24.96
9.6977,-0.76274,-2.1112,-0.04612,-0.0033598,0.023518,-47.16,-18.12,25.08
9.7113,-0.8036,-2.2474,-0.046731,-0.0048869,0.017715,-47.28,-18.12,24.84
9.6432,-0.8036,-2.2337,-0.045815,-0.000916,0.024435,-47.34,-18.0,24.9
9.6841,-0.78998,-2.2201,-0.044288,0.0030543,0.02474,-47.16,-18.0,24.84
9.6977,-0.83084,-2.2201,-0.035125,0.0073304,0.018937,-47.22,-17.94,24.9
9.6977,-0.78998,-2.1929,-0.03543,0.0088575,0.020464,-47.22,-17.94,25.08
9.7385,-0.74912,-2.2201,-0.029322,0.0015272,0.011912,-47.22,-17.94,25.08
9.6841,-0.8036,-2.2201,-0.040623,-0.0045815,0.018631,-47.28,-17.94,25.14
9.6432,-0.81722,-2.1929,-0.046426,-0.0015272,0.020769,-47.28,-17.82,25.26
9.5887,-0.74912,-2.2474,-0.039706,-0.0027489,0.017715,-47.22,-17.94,25.14
9.6704,-0.83084,-2.3155,-0.033598,-0.0012217,0.025045,-47.22,-17.94,25.14
9.7658,-0.76274,-2.2201,-0.042455,0.025045,0.017104,-47.22,-17.88,25.02
9.7658,-0.76274,-2.2201,-0.048869,0.01741,0.01741,-47.22,-17.88,25.02
9.7385,-0.8036,-2.1384,-0.06017,0.0048869,0.011301,-46.98,-17.94,25.08
9.6023,-0.77636,-2.1929,-0.04612,-0.010996,0.01069,-46.92,-18.12,25.2
9.6432,-0.76274,-2.2201,-0.046426,-0.014661,0.027184,-46.92,-18.06,25.14
9.7522,-0.78998,-2.3155,-0.032376,-0.0085521,0.021075,-46.62,-18.36,25.08
9.7249,-0.84446,-2.2474,-0.032987,0.016799,0.016493,-46.44,-18.36,25.14
9.7385,-0.78998,-2.261,-0.034208,0.025351,0.0051924,-46.44,-18.42,25.02
9.7249,-0.8036,-2.1656,-0.049175,0.013439,0.013744,-46.38,-18.24,25.08
9.7522,-0.74912,-2.2474,-0.041233,-0.0054978,0.019242,-46.38,-18.18,25.26
9.6432,-0.77636,-2.2882,-0.045509,-0.010996,0.020464,-46.26,-18.3,25.38
9.6704,-0.78998,-2.2746,-0.043982,0.0048869,0.018326,-46.26,-18.18,25.38
9.6704,-0.77636,-2.1929,-0.025656,0.011912,0.017715,-46.2,-18.24,25.44
9.7113,-0.76274,-2.1929,-0.037263,0.025045,0.013134,-46.38,-18.3,25.44
9.6568,-0.81722,-2.1248,-0.041539,0.01405,0.019548,-46.62,-18.24,25.44
9.7113,-0.77636,-2.1656,-0.035125,0.0079412,0.0076358,-46.62,-18.3,25.44
9.7249,-0.83084,-2.1929,-0.040928,-0.0064141,0.018631,-46.56,-18.3,25.56
9.6704,-0.76274,-2.3836,-0.039095,-0.0045815,0.021686,-46.68,-18.36,25.56
9.6704,-0.77636,-2.2882,-0.0281,-0.0027489,0.023824,-46.62,-18.24,25.38
9.7249,-0.85808,-2.2474,-0.027794,0.020159,0.018326,-46.5,-18.48,25.32
9.7658,-0.83084,-2.1248,-0.036346,0.034819,0.010079,-46.56,-18.36,25.44
9.8339,-0.78998,-2.1248,-0.037568,0.014661,0.0067195,-46.74,-18.36,25.5
9.7385,-0.74912,-2.1384,-0.039401,-0.0045815,0.02138,-46.86,-18.3,25.44
9.6977,-0.7355,-2.2474,-0.027794,-0.014661,0.020769,-46.74,-18.12,25.44
9.6704,-0.85808,-2.3427,-0.016493,0.0045815,0.013439,-46.8,-18.06,25.38
9.7385,-0.83084,-2.3155,-0.014661,0.047037,0.013744,-46.8,-18.12,25.32
9.7249,-0.85808,-2.1384,-0.013134,0.034514,0.013744,-46.86,-18.12,25.14
9.6704,-0.81722,-2.1929,-0.030543,0.022907,0.019548,-46.98,-18.18,25.38
9.6704,-0.74912,-2.1656,-0.038485,-0.000305,0.019548,-47.16,-18.24,25.26
9.6841,-0.70826,-2.2065,-0.038179,-0.011912,0.018631,-47.16,-18.18,25.14
9.7385,-0.76274,-2.1929,-0.041539,-0.012217,0.025656,-47.04,-18.36,25.14
9.6704,-0.77636,-2.152,-0.031765,-0.0036652,0.026573,-47.28,-18.24,25.14
9.7113,-0.74912,-2.1929,-0.024129,0.009163,0.029322,-47.28,-18.12,25.2
9.7113,-0.78998,-2.1384,-0.0281,0.013439,0.023824,-47.28,-18.12,25.26
9.7249,-0.7355,-2.2474,-0.033598,0.013134,0.011301,-47.28,-18.12,25.2
9.6704,-0.7355,-2.2065,-0.03543,0.0067195,0.018021,-47.34,-18.0,25.2
9.7522,-0.88532,-2.2474,-0.045204,-0.010996,0.025962,-47.22,-18.24,25.26
9.6977,-0.8036,-2.152,-0.036652,-0.020464,0.029016,-47.1,-18.12,25.26
9.6704,-0.8036,-2.261,-0.02474,-0.018326,0.024435,-47.1,-18.12,25.26
9.6023,-0.83084,-2.2474,-0.033903,0.010996,0.02138,-47.28,-18.06,25.08
9.6568,-0.78998,-2.3291,-0.037874,0.019242,0.018326,-47.22,-17.88,25.08
9.7385,-0.76274,-2.152,-0.044899,0.018631,0.010996,-47.22,-18.06,24.9
9.6977,-0.8036,-2.0839,-0.043982,-0.009163,0.012828,-47.1,-18.24,24.84
9.6704,-0.76274,-2.1929,-0.040928,-0.023824,0.023518,-47.16,-18.12,24.78
9.6841,-0.70826,-2.3018,-0.027794,-0.017104,0.019548,-47.04,-18.24,24.72
9.6704,-0.78998,-2.2337,-0.029932,0.0048869,0.022297,-46.98,-18.3,24.78
9.6977,-0.76274,-2.2474,-0.027794,0.0082467,0.016188,-47.1,-18.12,25.02
9.6841,-0.8036,-2.1384,-0.031765,0.01069,0.016188,-47.04,-18.12,24.96
9.7249,-0.84446,-2.0022,-0.026573,-0.0027489,0.013439,-46.86,-18.24,24.96
9.6704,-0.81722,-2.1384,-0.036652,-0.010079,0.018326,-46.86,-18.24,25.02
9.6704,-0.84446,-2.1929,-0.035125,-0.0073304,0.016799,-46.8,-18.24,25.08
9.616,-0.78998,-2.2065,-0.039401,-0.0051924,0.019853,-46.74,-18.12,25.02
9.6841,-0.77636,-2.2201,-0.036346,0.0027489,0.022907,-46.8,-18.36,25.14
9.7249,-0.76274,-2.152,-0.028711,0.0039706,0.015882,-46.86,-18.3,25.02
9.7385,-0.81722,-2.1929,-0.035736,0.0030543,0.017104,-46.8,-18.18,24.9
9.7249,-0.81722,-2.2065,-0.030238,-0.0076358,0.018326,-46.86,-18.24,24.96
9.6704,-0.83084,-2.2474,-0.043677,-0.012828,0.018631,-46.98,-18.12,25.02
9.7113,-0.83084,-2.1929,-0.044899,-0.0079412,0.022602,-47.04,-18.18,25.14
9.6977,-0.8036,-2.1793,-0.039706,-0.0061087,0.027794,-46.86,-18.3,25.2
9.6704,-0.77636,-2.2474,-0.034819,0.0085521,0.019853,-46.86,-18.12,25.26
9.7522,-0.84446,-2.2337,-0.035736,0.016799,0.011912,-46.98,-18.18,25.26
9.7385,-0.78998,-2.0975,-0.044593,0.0024435,0.01741,-46.86,-18.18,25.26
9.6568,-0.76274,-2.2065,-0.04612,-0.02474,0.017715,-47.04,-18.0,25.2
9.6704,-0.72188,-2.2201,-0.039706,-0.024435,0.017104,-47.16,-18.12,25.32
9.6704,-0.77636,-2.1793,-0.039401,-0.011912,0.023213,-47.16,-18.18,25.26
9.6704,-0.85808,-2.2746,-0.033903,-0.010996,0.015577,-47.1,-18.3,25.14
9.6977,-0.78998,-2.1793,-0.034208,0.0058032,0.016799,-47.04,-18.3,25.26
9.6841,-0.7355,-2.1929,-0.029322,-0.0036652,0.021075,-47.04,-18.18,25.14
9.6704,-0.78998,-2.1793,-0.036652,-0.0073304,0.019242,-47.1,-18.18,25.2
9.7385,-0.78998,-2.2746,-0.043371,-0.0054978,0.022602,-47.04,-18.42,25.14
9.6296,-0.8036,-2.2474,-0.040623,-0.0036652,0.02138,-47.04,-18.48,25.2
9.6977,-0.77636,-2.2201,-0.040623,0.0015272,0.024129,-47.04,-18.6,25.08
9.6977,-0.7355,-2.2474,-0.037874,0.010385,0.019853,-46.86,-18.66,25.32
9.7113,-0.77636,-2.2474,-0.035736,0.019242,0.016188,-46.8,-18.78,25.26
9.7385,-0.84446,-2.2065,-0.033598,0.020159,0.016493,-46.92,-18.66,25.5
9.7113,-0.84446,-2.152,-0.03146,0.007025,0.015272,-46.86,-18.6,25.38
9.6704,-0.85808,-2.2065,-0.039401,-0.0082467,0.017715,-46.92,-18.66,25.38
9.6977,-0.76274,-2.2201,-0.036957,-0.013439,0.018021,-47.04,-18.6,25.38
9.6977,-0.83084,-2.2474,-0.039095,-0.017104,0.027794,-46.98,-18.6,25.38
9.6841,-0.77636,-2.2474,-0.028711,-0.000611,0.014661,-46.8,-18.48,25.26
9.8066,-0.81722,-2.1248,-0.043982,0.0064141,0.01741,-46.8,-18.3,25.32
9.7385,-0.88532,-2.0839,-0.041844,-0.0085521,0.019242,-46.8,-18.3,25.32
9.616,-0.8036,-2.0975,-0.039706,-0.034514,0.022602,-46.8,-18.24,25.2
9.7113,-0.81722,-2.2201,-0.033903,-0.020769,0.025656,-46.86,-18.24,25.2
9.6977,-0.83084,-2.2474,-0.035736,-0.011912,0.024129,-46.74,-18.3,25.26
9.6296,-0.8036,-2.3427,-0.031154,0.0085521,0.016188,-46.68,-18.18,25.26
9.7249,-0.77636,-2.3155,-0.028711,0.01405,0.011301,-46.44,-18.12,25.26
9.7385,-0.78998,-2.1929,-0.03543,0.012828,0.020464,-46.5,-18.18,25.38
9.7522,-0.76274,-2.2201,-0.041844,0.012217,0.018021,-46.68,-18.06,25.26
9.7249,-0.83084,-2.2201,-0.030849,-0.000916,0.016799,-46.74,-18.18,25.56
9.6568,-0.77636,-2.3427,-0.039401,0.0015272,0.020769,-46.74,-18.12,25.5
9.6977,-0.8036,-2.2065,-0.029932,0.0094684,0.025962,-46.68,-18.12,25.62
9.6568,-0.74912,-2.1929,-0.029322,0.013134,0.020769,-46.56,-18.18,25.62
9.7658,-0.8036,-2.152,-0.036652,0.0061087,0.017715,-46.8,-18.24,25.5
9.6977,-0.76274,-2.261,-0.03207,-0.0036652,0.013134,-46.98,-18.3,25.56
9.6704,-0.84446,-2.2474,-0.042455,-0.014966,0.013744,-47.16,-18.42,25.5
9.6432,-0.83084,-2.2474,-0.045815,-0.0051924,0.021075,-47.28,-18.54,25.56
9.6977,-0.78998,-2.2337,-0.040928,-0.0085521,0.025962,-47.22,-18.48,25.44
9.6977,-0.81722,-2.2882,-0.029627,0.0018326,0.027184,-47.16,-18.36,25.5
9.6977,-0.8036,-2.3018,-0.032681,0.019548,0.018631,-47.22,-18.36,25.08
9.8203,-0.81722,-2.1248,-0.040317,0.017715,0.01741,-47.16,-18.3,25.14
9.7385,-0.76274,-2.1248,-0.031154,-0.013134,0.014966,-47.28,-18.42,25.02
9.5887,-0.81722,-2.1929,-0.029322,-0.021991,0.022297,-47.22,-18.36,24.96
9.6977,-0.84446,-2.2882,-0.036652,-0.010385,0.01741,-47.16,-18.3,25.08
9.6704,-0.77636,-2.2474,-0.038485,0.013439,0.014355,-47.16,-18.12,25.14
9.6432,-0.76274,-2.152,-0.023518,0.014355,0.011912,-47.22,-18.06,24.96
9.6568,-0.72188,-2.2474,-0.034819,0.0033598,0.02138,-47.16,-18.0,25.14
9.6977,-0.83084,-2.3018,-0.029016,0.0067195,0.02138,-47.1,-18.18,25.08
9.7522,-0.76274,-2.2201,-0.048258,0.0042761,0.019548,-47.04,-18.36,25.26
9.7249,-0.83084,-2.1656,-0.042455,-0.000916,0.017715,-47.22,-18.3,25.32
9.7249,-0.76274,-2.2746,-0.036346,-0.012828,0.019242,-47.16,-18.36,25.32
9.6568,-0.81722,-2.2474,-0.029932,-0.0036652,0.023518,-47.22,-18.36,25.32
9.6432,-0.77636,-2.2337,-0.032681,0.0048869,0.023213,-47.16,-18.36,25.2
9.6977,-0.85808,-2.1929,-0.040012,0.016188,0.020464,-47.1,-18.42,25.2
9.7113,-0.77636,-2.2065,-0.037263,0.0036652,0.024129,-47.04,-18.3,25.02
9.7385,-0.78998,-2.1929,-0.044593,-0.013439,0.022297,-47.04,-18.42,24.9
9.6841,-0.76274,-2.261,-0.041539,-0.024435,0.015882,-46.98,-18.42,24.9
9.6977,-0.70826,-2.2882,-0.040623,-0.017104,0.01741,-47.1,-18.36,25.08
9.5887,-0.83084,-2.2882,-0.032376,0.007025,0.017104,-47.04,-18.42,25.14
9.6568,-0.83084,-2.3155,-0.044288,0.033903,0.012828,-47.1,-18.36,25.2
9.8066,-0.8036,-2.1248,-0.043982,0.018021,0.014355,-47.16,-18.3,25.08
9.7794,-0.83084,-2.1248,-0.040012,-0.018631,0.020159,-47.04,-18.42,25.02
9.6977,-0.78998,-2.2882,-0.040012,-0.014966,0.020159,-47.1,-18.3,25.02
9.6977,-0.81722,-2.261,-0.034514,-0.0064141,0.018937,-47.16,-18.3,25.02
9.6704,-0.8036,-2.2065,-0.034514,-0.0042761,0.019242,-47.22,-18.3,25.14
9.6432,-0.84446,-2.2201,-0.031154,0.0024435,0.018326,-47.16,-18.24,25.08
9.6704,-0.78998,-2.2474,-0.028405,0.0085521,0.014661,-47.22,-18.36,25.38
9.7385,-0.77636,-2.1929,-0.031765,0.0048869,0.021075,-47.16,-18.36,25.38
9.6704,-0.78998,-2.1656,-0.043982,-0.0076358,0.020769,-47.1,-18.3,25.44
9.6432,-0.83084,-2.2201,-0.049786,-0.020159,0.029322,-47.1,-18.42,25.44
9.6568,-0.84446,-2.261,-0.042761,-0.018326,0.018631,-47.16,-18.24,25.38
9.6704,-0.8036,-2.2882,-0.043371,0.0012217,0.014355,-47.16,-18.24,25.26
9.6704,-0.78998,-2.2065,-0.037874,0.012523,0.020769,-47.1,-18.24,25.32
9.7385,-0.8036,-2.2474,-0.031154,0.0088575,0.019853,-47.28,-18.24,25.44
9.7385,-0.8036,-2.2474,-0.038179,-0.0073304,0.020769,-47.16,-18.18,25.38
9.6568,-0.83084,-2.2474,-0.047342,-0.014966,0.013744,-47.16,-18.18,25.44
9.6841,-0.83084,-2.2474,-0.043677,-0.0073304,0.022297,-47.1,-18.18,25.44
9.6977,-0.81722,-2.3155,-0.038485,-0.0064141,0.016799,-47.1,-18.12,25.38
9.6977,-0.83084,-2.3563,-0.040317,0.0067195,0.019242,-46.98,-18.18,25.26
9.7658,-0.81722,-2.2337,-0.045509,0.023518,0.013439,-47.22,-18.12,25.32
9.7522,-0.78998,-2.1793,-0.048564,0.0051924,0.017104,-47.28,-18.18,25.14
9.7658,-0.8036,-2.2337,-0.051924,-0.0061087,0.018326,-47.22,-18.18,25.14
9.6296,-0.8036,-2.2337,-0.04215,-0.019853,0.016493,-47.16,-18.18,25.08
9.6977,-0.8036,-2.3155,-0.034208,-0.027489,0.020464,-47.16,-18.12,25.14
9.6977,-0.88532,-2.3427,-0.03146,0.0042761,0.011606,-47.22,-18.0,25.14
9.6977,-0.8036,-2.2201,-0.029932,0.01741,0.0094684,-47.22,-18.0,25.08
9.7385,-0.81722,-2.3699,-0.042761,0.024129,0.01741,-47.28,-18.18,25.02
9.7249,-0.8036,-2.2201,-0.039706,0.0073304,0.02474,-47.34,-18.18,25.02
9.7249,-0.76274,-2.3018,-0.046731,-0.0051924,0.018631,-47.34,-18.12,24.84
9.6704,-0.8036,-2.2882,-0.048258,-0.007025,0.015882,-47.46,-18.18,25.02
9.6432,-0.76274,-2.261,-0.033292,0.002138,0.021991,-47.4,-18.0,25.02
9.6568,-0.83084,-2.2065,-0.039401,0.013744,0.021991,-47.04,-18.12,25.02
9.7385,-0.76274,-2.1929,-0.04215,0.0097738,0.016799,-47.04,-18.0,25.02
9.6977,-0.8036,-2.2201,-0.040317,0.011912,0.014661,-47.28,-18.0,24.96
9.6568,-0.8036,-2.2201,-0.046426,0.0015272,0.0094684,-47.34,-17.88,25.02
9.6977,-0.83084,-2.2201,-0.044899,0.0033598,0.016188,-47.28,-17.94,25.02
9.6568,-0.7355,-2.261,-0.040623,-0.0054978,0.018937,-47.28,-17.94,25.02
9.6568,-0.74912,-2.2882,-0.035125,-0.0067195,0.020159,-47.1,-17.94,25.02
9.7113,-0.85808,-2.3291,-0.028405,0.01069,0.016188,-47.16,-17.88,25.14
9.7113,-0.81722,-2.152,-0.053145,0.023213,0.018021,-47.1,-17.82,25.38
9.6977,-0.76274,-2.1929,-0.053145,0.011912,0.016493,-47.1,-17.7,25.44
9.7385,-0.77636,-2.1248,-0.050702,-0.0024435,0.018021,-47.1,-17.64,25.38
9.6841,-0.78998,-2.2882,-0.039401,-0.018937,0.01741,-47.28,-17.76,25.2
9.7249,-0.83084,-2.4653,-0.024435,-0.0012217,0.016188,-47.34,-17.82,25.32
9.6432,-0.8717,-2.3972,-0.013744,0.025351,0.0088575,-47.28,-17.82,25.38
9.6704,-0.85808,-2.2474,-0.023518,0.042455,0.0030543,-47.16,-17.82,25.44
9.7249,-0.8036,-2.1656,-0.037568,0.021991,0.022297,-47.16,-17.88,25.38
9.7113,-0.74912,-2.0839,-0.03146,0.0073304,0.017715,-47.04,-17.94,25.38
9.6704,-0.8036,-2.2065,-0.03207,-0.0054978,0.02474,-46.98,-17.94,25.32
9.7113,-0.77636,-2.2882,-0.029627,0.016799,0.020769,-47.1,-17.94,25.26
9.7385,-0.74912,-2.3972,-0.02474,0.043677,0.017104,-47.1,-17.94,25.26
9.7658,-0.81722,-2.2065,-0.033598,0.034514,0.015882,-47.04,-18.0,25.14
9.6704,-0.74912,-2.1384,-0.033903,0.023518,0.018937,-46.98,-18.12,25.08
9.7385,-0.8036,-2.1929,-0.028711,0.0073304,0.016799,-47.04,-18.18,25.14
9.6704,-0.83084,-2.1384,-0.035125,-0.0015272,0.023213,-46.98,-18.06,25.08
9.6977,-0.89894,-2.1929,-0.035736,-0.0018326,0.022907,-46.86,-18.0,25.08
9.7385,-0.85808,-2.152,-0.034819,0.0018326,0.029016,-46.92,-18.06,25.14
9.6841,-0.85808,-2.2746,-0.019853,-0.013439,0.030849,-47.04,-18.0,24.96
9.6704,-0.83084,-2.2474,-0.021686,0.018937,0.017104,-47.04,-18.0,24.9
9.7658,-0.81722,-2.2882,-0.037568,0.031765,0.018631,-47.22,-17.94,24.84
9.7522,-0.76274,-2.1248,-0.042455,0.018631,0.007025,-47.34,-17.94,24.84
9.6296,-0.8036,-2.0158,-0.040928,-0.012523,0.022907,-47.28,-18.0,24.84
9.7249,-0.77636,-2.1929,-0.033292,-0.030238,0.017104,-47.28,-18.12,24.66
9.6977,-0.78998,-2.2746,-0.023518,0.000916,0.013744,-47.34,-18.18,24.66
9.7385,-0.76274,-2.2746,-0.025045,0.02474,0.01405,-47.28,-18.18,24.72
9.7113,-0.8036,-2.2474,-0.027184,0.030849,0.011606,-47.16,-18.12,24.72
9.6977,-0.81722,-2.152,-0.031765,0.025962,0.010996,-47.1,-18.12,24.9
9.7794,-0.81722,-2.2474,-0.035125,0.0097738,0.022907,-47.22,-18.12,24.84
9.7385,-0.77636,-2.2201,-0.037568,-0.012523,0.021991,-47.1,-18.12,24.78
9.6977,-0.78998,-2.2337,-0.035736,-0.016188,0.015577,-47.1,-18.12,24.72
9.6432,-0.83084,-2.2201,-0.03146,-0.013744,0.027489,-47.04,-18.54,24.78
9.6704,-0.78998,-2.2201,-0.032681,-0.0012217,0.021075,-47.04,-18.54,24.72
9.6977,-0.76274,-2.2882,-0.033598,0.0024435,0.020769,-47.04,-18.42,24.54
9.6841,-0.76274,-2.2065,-0.040317,-0.0048869,0.022602,-46.8,-18.48,24.66
9.6977,-0.77636,-2.261,-0.045204,-0.010079,0.021075,-46.86,-18.36,24.78
9.7249,-0.77636,-2.2474,-0.039095,-0.018937,0.027489,-46.74,-18.3,24.9
9.7249,-0.72188,-2.2201,-0.044288,-0.019548,0.021991,-46.86,-18.36,24.72
9.6432,-0.8036,-2.2474,-0.0281,0.002138,0.018326,-46.98,-18.42,24.84
9.6023,-0.83084,-2.2474,-0.029016,0.013439,0.018937,-46.92,-18.54,24.72
9.7113,-0.83084,-2.152,-0.041233,0.011606,0.0045815,-46.98,-18.66,24.66
9.7385,-0.77636,-2.0703,-0.039095,-0.015577,0.018021,-47.1,-18.72,24.84
9.7249,-0.76274,-2.1929,-0.040317,-0.030543,0.020464,-47.1,-18.66,24.84
9.7249,-0.74912,-2.3155,-0.040928,-0.027184,0.022907,-47.1,-18.54,24.9
9.6568,-0.78998,-2.3155,-0.040623,-0.011606,0.022907,-47.1,-18.6,25.08
9.6977,-0.78998,-2.261,-0.03207,0.010385,0.014355,-47.04,-18.54,25.32
9.7113,-0.8036,-2.2882,-0.034208,0.014661,0.015882,-47.1,-18.42,25.14
9.6977,-0.83084,-2.2474,-0.037874,0.0015272,0.02138,-47.16,-18.42,25.26
9.6977,-0.78998,-2.2337,-0.037568,-0.0054978,0.018937,-47.04,-18.48,25.14
9.7794,-0.78998,-2.2474,-0.041844,-0.01069,0.025045,-46.98,-18.3,25.26
9.6704,-0.8036,-2.3155,-0.042455,-0.0015272,0.021075,-46.92,-18.36,25.2
9.6568,-0.8036,-2.2474,-0.03543,0.0030543,0.021075,-47.04,-18.18,25.26
9.6568,-0.83084,-2.2337,-0.033903,0.010079,0.020159,-46.98,-18.06,25.38
9.6977,-0.81722,-2.1929,-0.039706,0.0058032,0.019853,-47.04,-18.0,25.44
9.7385,-0.8036,-2.2746,-0.032681,-0.0015272,0.011912,-47.04,-17.7,25.44
9.6977,-0.81722,-2.2882,-0.041539,-0.0061087,0.018326,-46.98,-17.7,25.32
9.6568,-0.81722,-2.1929,-0.046731,-0.019242,0.026573,-46.98,-17.52,25.2
9.6841,-0.76274,-2.3155,-0.039706,-0.010385,0.018937,-47.1,-17.58,25.26
9.6977,-0.83084,-2.3155,-0.033292,0.0079412,0.020159,-47.04,-17.76,25.44
9.7113,-0.85808,-2.2065,-0.040317,0.018326,0.014661,-47.16,-17.76,25.44
9.7522,-0.76274,-2.0839,-0.036652,0.011301,0.011912,-47.22,-17.64,25.44
9.6977,-0.83084,-2.2746,-0.037568,-0.0094684,0.021075,-47.34,-17.82,25.56
9.6432,-0.83084,-2.2065,-0.040928,-0.009163,0.022602,-47.46,-17.76,25.74
9.6977,-0.83084,-2.1793,-0.033598,-0.002138,0.017104,-47.4,-17.94,25.62
9.6432,-0.85808,-2.2474,-0.032376,0.0097738,0.01741,-47.46,-17.94,25.5
9.6568,-0.77636,-2.2201,-0.026267,0.014355,0.016188,-47.28,-18.24,25.38
9.6704,-0.8036,-2.2882,-0.033292,0.0082467,0.018021,-47.28,-18.3,25.44
9.6841,-0.8036,-2.2882,-0.027794,0.012523,0.013439,-47.34,-18.48,25.56
9.7113,-0.7355,-2.2882,-0.036346,0.0064141,0.016493,-47.22,-18.48,25.68
9.6704,-0.76274,-2.2201,-0.040623,0.0039706,0.021991,-47.22,-18.42,25.62
9.6841,-0.74912,-2.2474,-0.030849,-0.002138,0.021075,-47.1,-18.3,25.62
9.6977,-0.78998,-2.3155,-0.03207,0.0076358,0.016493,-47.1,-18.36,25.68
9.6704,-0.8717,-2.152,-0.025351,0.020464,0.017715,-47.16,-18.36,25.74
9.7113,-0.85808,-2.2474,-0.039095,0.01405,0.018326,-47.16,-18.36,25.44
9.6704,-0.8036,-2.1112,-0.033903,-0.0054978,0.014966,-47.04,-18.24,25.38
9.6296,-0.76274,-2.1929,-0.040012,-0.0064141,0.023213,-47.04,-18.18,25.5
9.6704,-0.78998,-2.2201,-0.03879,-0.0073304,0.02138,-47.16,-18.12,25.56
9.6977,-0.8036,-2.2746,-0.03543,-0.0018326,0.021686,-47.16,-18.06,25.56
9.6568,-0.8036,-2.2882,-0.043371,0.011912,0.015882,-47.1,-17.94,25.44
9.7658,-0.81722,-2.2201,-0.057421,-0.000916,0.016493,-47.1,-17.94,25.62
9.7658,-0.76274,-2.152,-0.045815,-0.026878,0.019242,-46.98,-18.0,25.62
9.7249,-0.76274,-2.1929,-0.050702,-0.035736,0.019242,-47.04,-18.06,25.5
9.6296,-0.8036,-2.2474,-0.039095,-0.026573,0.020464,-47.16,-18.0,25.26
9.6977,-0.83084,-2.3155,-0.032376,-0.021991,0.016188,-47.1,-17.88,25.2
9.6704,-0.88532,-2.3427,-0.036957,-0.0018326,0.014966,-47.16,-17.88,25.2
9.616,-0.81722,-2.3155,-0.032987,0.0064141,0.015272,-47.04,-17.76,25.44
9.6704,-0.8036,-2.2474,-0.036041,0.0082467,0.024129,-47.04,-17.82,25.5
9.7113,-0.81722,-2.2337,-0.047647,-0.010079,0.019548,-47.1,-17.76,25.44
9.7385,-0.76274,-2.2474,-0.044899,-0.010385,0.020159,-47.1,-17.82,25.5
9.6977,-0.7355,-2.2201,-0.046426,-0.0036652,0.016188,-47.1,-18.0,25.56
9.6977,-0.72188,-2.2065,-0.040012,0.0036652,0.01741,-47.04,-18.24,25.62
9.6568,-0.78998,-2.2201,-0.036041,0.0039706,0.015577,-47.1,-18.06,25.5
9.7113,-0.76274,-2.3018,-0.044899,0.0027489,0.014966,-47.1,-18.0,25.44
9.6977,-0.85808,-2.2201,-0.038179,-0.0048869,0.015577,-47.1,-17.82,25.62
9.7385,-0.83084,-2.2474,-0.036957,-0.0054978,0.023213,-47.04,-17.88,25.68
9.6841,-0.85808,-2.2065,-0.047342,-0.0045815,0.012828,-46.92,-17.94,25.8
9.6432,-0.81722,-2.261,-0.041539,-0.0082467,0.023518,-46.98,-17.88,25.74
9.6432,-0.81722,-2.261,-0.041539,-0.0082467,0.023518,-46.98,-17.88,25.74
9.8066,-0.83084,-2.2474,-0.040012,0.025656,0.014355,-46.92,-18.06,25.8
9.8475,-0.78998,-2.1793,-0.047342,0.020769,0.014355,-46.98,-18.12,25.74
9.7794,-0.8036,-2.1384,-0.050091,0.01069,0.0079412,-46.92,-18.18,25.74
9.6432,-0.72188,-2.1384,-0.047342,-0.012217,0.016188,-46.92,-18.18,25.56
9.616,-0.8036,-2.3699,-0.030543,-0.019548,0.018326,-47.16,-17.7,25.68
9.6977,-0.8036,-2.3155,-0.025656,-0.0058032,0.022297,-47.28,-17.76,25.68
9.7249,-0.83084,-2.1656,-0.029932,0.013134,0.01405,-47.28,-17.82,25.74
9.7113,-0.8717,-2.2337,-0.03207,0.023824,0.010996,-47.22,-17.94,25.62
9.6841,-0.84446,-2.2201,-0.031765,0.015882,0.015272,-47.28,-17.88,25.62
9.7249,-0.77636,-2.152,-0.046426,-0.0051924,0.018326,-47.46,-18.12,25.44
9.7658,-0.77636,-2.2882,-0.040012,0.0018326,0.022297,-47.46,-18.24,25.56
9.6704,-0.77636,-2.2746,-0.034514,0.0088575,0.020159,-47.46,-18.24,25.32
9.6841,-0.8036,-2.2474,-0.034819,0.024435,0.010385,-47.64,-18.24,25.08
9.6704,-0.81722,-2.1793,-0.037568,0.02474,0.0085521,-47.64,-18.3,25.02
9.7385,-0.81722,-2.1793,-0.040012,0.016188,0.012523,-47.58,-18.18,25.08
9.6704,-0.78998,-2.1384,-0.034208,0.0015272,0.010996,-47.34,-18.18,25.14
9.6977,-0.76274,-2.1793,-0.040623,-0.0058032,0.016799,-47.22,-18.36,24.9
9.7385,-0.77636,-2.3155,-0.043371,-0.0012217,0.026573,-47.16,-18.36,24.96
9.6432,-0.76274,-2.1929,-0.027489,0.010079,0.015577,-47.04,-18.3,24.96
9.6704,-0.88532,-2.261,-0.025045,0.031765,0.015272,-47.22,-18.18,25.02
9.7385,-0.81722,-2.2882,-0.03543,0.037568,0.014355,-47.34,-18.24,25.02
9.7249,-0.8036,-2.1384,-0.047342,0.019853,0.023518,-47.34,-18.0,25.14
9.6977,-0.76274,-2.1384,-0.04215,-0.0073304,0.01741,-47.34,-18.0,25.08
9.6023,-0.8036,-2.2065,-0.022602,-0.019853,0.016799,-47.4,-17.94,25.2
9.6568,-0.77636,-2.2474,-0.014966,-0.0018326,0.020464,-47.28,-17.76,25.26
9.6568,-0.74912,-2.2882,-0.015272,0.049786,0.021075,-47.34,-17.7,25.38
9.6568,-0.8036,-2.261,-0.021075,0.058032,0.018021,-47.22,-17.7,25.32
9.7113,-0.84446,-2.152,-0.031154,0.040012,0.011912,-47.34,-17.7,25.14
9.6977,-0.8036,-2.0839,-0.036041,0.0097738,0.025962,-47.46,-17.76,25.2
9.7249,-0.76274,-2.152,-0.047037,-0.012217,0.020159,-47.52,-17.82,25.2
9.7113,-0.78998,-2.1248,-0.040317,-0.014661,0.033598,-47.46,-17.82,25.38
9.6704,-0.8036,-2.1793,-0.029016,0.0094684,0.024129,-47.4,-17.94,25.32
9.7385,-0.83084,-2.2474,-0.036957,0.015882,0.026573,-47.28,-18.0,25.44
9.7385,-0.85808,-2.2474,-0.024435,0.023518,0.013439,-47.28,-18.24,25.44
9.7658,-0.78998,-2.1929,-0.030543,0.013744,0.018937,-47.16,-18.24,25.2
9.6432,-0.8036,-2.1384,-0.033598,0.0054978,0.01405,-46.98,-18.3,25.14
9.6841,-0.8036,-2.0975,-0.035736,-0.0045815,0.025656,-46.92,-18.3,25.2
9.7249,-0.88532,-2.2065,-0.045815,-0.014966,0.025045,-46.74,-18.48,25.2
9.7113,-0.8036,-2.1929,-0.030849,-0.018326,0.02474,-46.92,-18.48,25.2
9.6432,-0.8717,-2.2882,-0.025351,-0.0058032,0.0281,-46.86,-18.66,25.26
9.6023,-0.77636,-2.3155,-0.028711,0.029016,0.015577,-46.86,-18.6,25.32
9.7658,-0.83084,-2.1384,-0.043677,0.029322,0.015577,-47.04,-18.48,25.26
9.7385,-0.7355,-1.975,-0.040317,-0.000611,0.023518,-47.28,-18.42,25.2
9.6704,-0.76274,-2.1112,-0.036346,-0.01741,0.022297,-47.04,-18.48,25.08
9.7658,-0.78998,-2.1929,-0.029322,-0.0097738,0.019548,-47.04,-18.42,25.02
9.6977,-0.88532,-2.2882,-0.027794,0.0058032,0.017715,-47.04,-18.42,25.08
9.6977,-0.83084,-2.1793,-0.032987,0.013134,0.017715,-47.16,-18.48,25.26
9.6704,-0.84446,-2.1112,-0.033292,0.0094684,0.018937,-47.34,-18.54,25.38
9.6704,-0.72188,-2.1656,-0.034514,-0.0024435,0.017715,-47.46,-18.42,25.38
9.7249,-0.8036,-2.0839,-0.045815,-0.018937,0.021686,-47.52,-18.36,25.2
9.7385,-0.84446,-2.2337,-0.042455,-0.01741,0.019548,-47.46,-18.36,25.26
9.7113,-0.83084,-2.2065,-0.049175,-0.014355,0.025351,-47.52,-18.36,25.14
9.6841,-0.81722,-2.1793,-0.032987,-0.0024435,0.020159,-47.4,-18.36,25.26
9.7249,-0.7355,-2.2337,-0.035736,0.0045815,0.020769,-47.28,-18.18,25.26
9.6841,-0.76274,-2.2474,-0.028711,0.000611,0.013439,-46.98,-18.42,24.96
9.7522,-0.78998,-2.1793,-0.041233,-0.0064141,0.020769,-47.22,-18.36,24.96
9.6977,-0.84446,-2.2201,-0.038485,-0.014966,0.025045,-47.22,-18.36,24.96
9.7385,-0.85808,-2.2201,-0.041233,-0.019548,0.028711,-47.16,-18.3,24.96
9.6977,-0.84446,-2.2201,-0.037568,-0.015272,0.026267,-47.16,-18.24,24.96
9.6704,-0.89894,-2.2201,-0.03879,-0.0079412,0.020464,-47.04,-18.24,24.78
9.6296,-0.83084,-2.2065,-0.035736,0.010996,0.014355,-47.04,-18.36,24.66
9.793,-0.7355,-2.152,-0.045815,-0.0036652,0.017104,-47.16,-18.42,24.78
9.7249,-0.8036,-2.152,-0.037263,-0.030543,0.015272,-47.1,-18.42,24.48
9.7385,-0.76274,-2.1248,-0.040928,-0.031154,0.023213,-46.98,-18.3,24.66
9.6432,-0.84446,-2.2337,-0.036652,-0.032987,0.023824,-47.04,-18.42,24.48
9.6704,-0.85808,-2.3155,-0.037874,-0.012828,0.016188,-47.1,-18.42,24.54
9.6432,-0.88532,-2.2065,-0.032681,0.0012217,0.01405,-47.22,-18.3,24.72
9.6704,-0.83084,-2.2201,-0.035736,0.0048869,0.01405,-47.1,-18.24,24.66
9.6432,-0.89894,-2.1929,-0.034514,0.0045815,0.02138,-47.1,-18.24,24.48
9.6977,-0.88532,-2.2746,-0.040928,0.0018326,0.015577,-47.04,-18.24,24.54
9.6977,-0.85808,-2.2337,-0.033598,-0.0039706,0.021075,-47.16,-18.18,24.42
9.7385,-0.83084,-2.2065,-0.038179,-0.0045815,0.026267,-47.1,-18.06,24.48
9.7249,-0.77636,-2.2337,-0.034819,0.002138,0.022907,-47.04,-18.0,24.54
9.6704,-0.7355,-2.2201,-0.036346,0.0058032,0.021075,-47.1,-17.94,24.6
9.7249,-0.8036,-2.261,-0.039401,-0.0051924,0.021075,-47.16,-18.06,24.9
9.7113,-0.8036,-2.2201,-0.039706,0.0018326,0.025656,-47.22,-18.18,24.9
9.7113,-0.78998,-2.1656,-0.037263,-0.0024435,0.018021,-47.22,-18.18,24.96
9.7113,-0.84446,-2.2065,-0.040012,-0.000916,0.020159,-47.28,-18.18,25.2
9.6704,-0.8036,-2.261,-0.034514,0.0079412,0.015272,-47.1,-18.18,25.08
9.6023,-0.77636,-2.2474,-0.026267,0.011912,0.022907,-47.1,-18.18,25.26
9.7385,-0.8036,-2.2882,-0.036957,0.0281,0.013744,-47.04,-18.12,25.62
9.7522,-0.76274,-2.1929,-0.043066,0.015882,0.014355,-47.04,-18.18,25.44
9.7658,-0.7355,-2.152,-0.034819,0.0045815,0.010385,-46.98,-18.18,25.56
9.6704,-0.83084,-2.1793,-0.040928,-0.019548,0.025351,-47.04,-18.18,25.56
9.6568,-0.83084,-2.2882,-0.036346,-0.021686,0.012217,-47.1,-18.18,25.56
9.6704,-0.8717,-2.3836,-0.026267,-0.023824,0.018937,-47.04,-18.18,25.56
9.7658,-0.85808,-2.3018,-0.029322,0.0073304,0.01405,-46.98,-18.12,25.56
9.6704,-0.8036,-2.2746,-0.025962,0.014355,0.016799,-46.98,-18.0,25.62
9.7249,-0.76274,-2.2882,-0.034514,0.013439,0.019242,-46.92,-18.0,25.62
9.6841,-0.78998,-2.2201,-0.041539,0.011912,0.022907,-46.92,-18.06,25.5
9.7385,-0.70826,-2.2474,-0.044593,-0.0045815,0.024435,-46.98,-18.12,25.68
9.6432,-0.76274,-2.3018,-0.03879,-0.0061087,0.022297,-47.04,-18.0,25.56
9.6841,-0.8036,-2.2337,-0.044899,-0.000611,0.022602,-47.22,-18.0,25.44
9.7658,-0.78998,-2.1929,-0.04215,0.0042761,0.01741,-47.28,-18.0,25.56
9.7249,-0.83084,-2.2746,-0.038485,-0.0094684,0.02138,-47.22,-18.12,25.56
9.6977,-0.85808,-2.2201,-0.039095,-0.015882,0.023213,-47.16,-18.24,25.56
9.6977,-0.81722,-2.2882,-0.033598,-0.017715,0.019242,-46.98,-18.36,25.68
9.6704,-0.83084,-2.1929,-0.044288,-0.0088575,0.018631,-47.04,-18.48,25.56
9.6432,-0.81722,-2.1656,-0.040623,-0.0039706,0.019242,-47.04,-18.48,25.56
9.7249,-0.83084,-2.2882,-0.033903,-0.0039706,0.023824,-47.16,-18.48,25.62
9.7385,-0.78998,-2.3972,-0.04215,0.014661,0.01405,-47.16,-18.42,25.74
9.8066,-0.81722,-2.3155,-0.05681,0.013134,0.011912,-47.22,-18.36,25.8
9.6568,-0.70826,-2.0975,-0.047953,-0.01069,0.0073304,-47.1,-18.3,25.74
9.6568,-0.70826,-2.152,-0.044899,-0.018937,0.016188,-47.1,-18.42,25.74
9.6841,-0.83084,-2.4244,-0.039095,-0.022907,0.022297,-47.16,-18.54,25.74
9.6704,-0.85808,-2.4108,-0.024435,0.0036652,0.018631,-47.22,-18.54,25.74
9.616,-0.84446,-2.3427,-0.033598,0.020769,0.011301,-47.16,-18.54,25.8
9.6432,-0.8036,-2.2746,-0.040012,0.02138,0.015577,-47.28,-18.42,25.74
9.7113,-0.8036,-2.152,-0.046731,0.002138,0.022907,-47.4,-18.3,25.74
9.6704,-0.8036,-2.2201,-0.051924,-0.010996,0.026267,-47.4,-18.3,25.74
9.6704,-0.8036,-2.2337,-0.03879,-0.0061087,0.021686,-47.28,-18.18,25.68
9.6977,-0.77636,-2.3427,-0.035736,0.015577,0.016188,-47.04,-18.24,25.56
9.6023,-0.78998,-2.2337,-0.034208,0.019548,0.011606,-47.16,-18.18,25.5
9.6432,-0.8036,-2.2337,-0.03543,0.017715,0.01741,-47.16,-18.3,25.44
9.616,-0.85808,-2.2882,-0.037568,0.013134,0.011301,-47.16,-18.3,25.32
9.6977,-0.77636,-2.2065,-0.036652,0.000611,0.016799,-46.98,-18.36,25.02
9.7249,-0.83084,-2.0703,-0.040317,-0.0039706,0.010996,-47.04,-18.3,24.9
9.6977,-0.84446,-2.1929,-0.053451,-0.0027489,0.016493,-46.74,-18.12,25.02
9.6704,-0.78998,-2.3155,-0.040623,0.002138,0.016799,-46.74,-18.18,24.9
9.7113,-0.78998,-2.3836,-0.033292,0.011606,0.018021,-46.68,-18.18,24.84
9.6977,-0.76274,-2.2882,-0.040012,0.030543,0.013134,-46.74,-18.36,24.6
9.7794,-0.83084,-2.152,-0.045815,0.01741,0.01405,-46.68,-18.3,24.6
9.7385,-0.74912,-2.152,-0.04612,0.0097738,0.0054978,-46.68,-18.36,24.66
9.7113,-0.74912,-2.1929,-0.03879,-0.022602,0.022907,-46.92,-18.12,24.78
9.7113,-0.83084,-2.2882,-0.022602,-0.017715,0.018631,-46.86,-18.12,24.78
9.6704,-0.81722,-2.3427,-0.031765,0.0088575,0.015577,-46.8,-18.06,24.84
9.6704,-0.81722,-2.3427,-0.029322,0.027489,0.01069,-46.8,-18.06,24.84
9.7249,-0.85808,-2.2746,-0.033292,0.026267,0.014661,-46.8,-18.12,24.96
9.7249,-0.76274,-2.1793,-0.040928,0.0076358,0.018021,-46.8,-18.06,25.14
9.7522,-0.8036,-2.1656,-0.043066,-0.011912,0.026267,-46.86,-17.94,25.14
9.6704,-0.76274,-2.2746,-0.035125,-0.0061087,0.019853,-46.92,-18.0,25.2
9.6977,-0.83084,-2.2882,-0.022297,0.007025,0.025045,-47.16,-18.0,25.08
9.6977,-0.83084,-2.2337,-0.032376,0.03879,0.019548,-47.16,-17.88,25.08
9.7658,-0.8036,-2.1112,-0.022297,0.034819,0.01069,-47.1,-17.64,25.2
9.7385,-0.8036,-2.1656,-0.023518,0.031154,0.018937,-47.22,-17.7,25.38
9.7658,-0.78998,-2.0567,-0.022602,0.020464,0.018937,-47.28,-17.88,25.32
9.6704,-0.83084,-2.0975,-0.029016,0.012828,0.020159,-47.22,-18.0,25.26
9.6841,-0.88532,-2.2201,-0.03207,0.0058032,0.017104,-47.16,-18.06,25.08
9.7113,-0.81722,-2.2474,-0.036957,0.002138,0.020464,-47.28,-18.24,24.96
9.6977,-0.8036,-2.2474,-0.018631,0.0012217,0.026267,-47.22,-18.3,24.96
9.6432,-0.83084,-2.2882,-0.025045,0.016799,0.020159,-47.22,-18.42,24.9
9.7658,-0.78998,-2.1656,-0.042761,0.021991,0.018937,-47.28,-18.36,24.96
9.7794,-0.8036,-2.1384,-0.044593,-0.007025,0.014661,-47.22,-18.36,25.14
9.6841,-0.7355,-2.1248,-0.044593,-0.021991,0.020464,-47.16,-18.42,25.08
9.7113,-0.8036,-2.152,-0.032376,-0.019853,0.019853,-47.16,-18.48,25.08
9.6704,-0.78998,-2.3155,-0.033598,-0.0076358,0.022602,-47.46,-18.48,25.02
9.7113,-0.83084,-2.3427,-0.022297,0.011301,0.019548,-47.34,-18.3,25.02
9.7385,-0.88532,-2.2201,-0.029322,0.012828,0.015577,-47.4,-18.12,25.08
9.6841,-0.89894,-2.2201,-0.026573,0.009163,0.013439,-47.4,-18.06,25.08
9.7249,-0.83084,-2.2201,-0.034208,0.01069,0.016799,-47.34,-18.0,25.2
9.616,-0.83084,-2.152,-0.036041,0.0030543,0.019853,-47.34,-18.0,25.08
9.7522,-0.8036,-2.3155,-0.035125,0.0042761,0.023824,-47.4,-17.82,24.96
9.6977,-0.8036,-2.2337,-0.039401,0.0024435,0.021686,-47.46,-17.82,24.78
9.6432,-0.8036,-2.1929,-0.031765,0.014355,0.018326,-47.28,-17.94,24.96
9.6977,-0.85808,-2.2065,-0.033292,0.002138,0.02138,-47.4,-18.0,24.9
9.7522,-0.8036,-2.1793,-0.036346,0.000305,0.020464,-47.46,-18.0,24.96
9.6432,-0.77636,-2.1384,-0.030849,-0.0045815,0.015577,-47.46,-18.06,24.96
9.6841,-0.83084,-2.152,-0.040012,-0.012523,0.017715,-47.34,-18.36,25.02
9.6704,-0.84446,-2.1793,-0.034208,-0.014355,0.015577,-47.34,-18.48,25.02
9.7113,-0.76274,-2.2065,-0.033598,-0.0094684,0.022602,-47.4,-18.48,24.9
9.6568,-0.81722,-2.3155,-0.0281,0.010079,0.018937,-47.4,-18.54,24.9
9.7249,-0.84446,-2.3018,-0.0281,0.022602,0.011606,-47.52,-18.6,24.9
9.7794,-0.83084,-2.1793,-0.03879,0.019242,0.014661,-47.52,-18.6,25.02
9.6977,-0.76274,-2.1248,-0.041233,-0.021991,0.02474,-47.58,-18.48,25.08
9.6432,-0.7355,-2.152,-0.037874,-0.027794,0.030849,-47.46,-18.36,25.32
9.7385,-0.8036,-2.2474,-0.036346,-0.018326,0.025962,-47.52,-18.42,25.2
9.6841,-0.88532,-2.3699,-0.039095,0.0073304,0.0094684,-47.46,-18.48,25.2
9.6977,-0.83084,-2.2201,-0.03146,0.01069,0.009163,-47.34,-18.48,25.2
9.6432,-0.83084,-2.1793,-0.032987,0.0018326,0.014966,-47.34,-18.48,25.32
9.7385,-0.85808,-2.1248,-0.032987,-0.0033598,0.018021,-47.4,-18.24,25.2
9.6841,-0.84446,-2.1793,-0.035125,-0.0054978,0.021991,-47.1,-18.24,25.08
9.6432,-0.89894,-2.152,-0.036957,-0.01069,0.022907,-47.1,-18.3,25.08
9.6296,-0.8036,-2.2065,-0.035125,-0.0051924,0.021075,-46.98,-18.36,25.14
9.6841,-0.85808,-2.2474,-0.039095,-0.0036652,0.023518,-46.92,-18.3,25.08
9.7658,-0.81722,-2.1929,-0.033292,-0.0036652,0.021991,-46.92,-18.42,25.08
9.6841,-0.8036,-2.2201,-0.039706,-0.0042761,0.01741,-47.04,-18.66,25.14
9.6023,-0.85808,-2.2201,-0.040928,-0.01069,0.018021,-46.98,-18.6,25.08
9.6704,-0.77636,-2.1384,-0.039095,-0.010079,0.010996,-47.16,-18.72,25.2
9.6568,-0.85808,-2.2882,-0.036346,-0.010996,0.02474,-47.04,-18.72,25.02
9.7385,-0.78998,-2.3427,-0.030543,-0.0094684,0.016799,-47.04,-18.72,25.08
9.6977,-0.83084,-2.2337,-0.041844,-0.0036652,0.025351,-47.1,-18.72,25.02
9.6432,-0.88532,-2.1929,-0.030849,0.011606,0.015882,-46.92,-18.78,25.2
9.7658,-0.81722,-2.152,-0.040928,0.000916,0.016188,-46.98,-18.72,25.32
9.6704,-0.8036,-2.0975,-0.046426,-0.026267,0.021686,-47.16,-18.72,25.32
9.6977,-0.83084,-2.2474,-0.039401,-0.028405,0.030849,-47.28,-18.6,25.38
9.6023,-0.77636,-2.2474,-0.033292,-0.017104,0.028711,-47.4,-18.6,25.26
9.6704,-0.8036,-2.2201,-0.032681,-0.011606,0.021075,-47.4,-18.54,25.2
9.6432,-0.83084,-2.3018,-0.031154,0.012523,0.0088575,-47.16,-18.24,25.26
9.6977,-0.76274,-2.261,-0.034514,0.0085521,0.018021,-47.16,-18.18,25.14
9.6704,-0.78998,-2.2882,-0.030238,0.0073304,0.019548,-47.1,-18.12,25.14
9.7385,-0.74912,-2.2337,-0.03879,0.0073304,0.019242,-47.1,-18.12,25.26
9.7385,-0.8036,-2.1793,-0.039706,0.014661,0.020769,-47.16,-18.06,25.14
9.6296,-0.83084,-2.0975,-0.039095,0.0048869,0.018937,-47.28,-18.06,25.2
9.6568,-0.83084,-2.1112,-0.033598,0.0036652,0.015882,-47.4,-18.06,25.2
9.6568,-0.84446,-2.2474,-0.035125,-0.000611,0.024129,-47.28,-18.06,24.78
9.7113,-0.83084,-2.1929,-0.038485,0.000916,0.02474,-47.22,-18.18,24.78
9.6977,-0.8036,-2.2337,-0.038179,-0.010079,0.018937,-47.16,-18.24,24.84
9.6704,-0.7355,-2.261,-0.043371,-0.023824,0.017715,-47.04,-18.3,24.96
9.6432,-0.76274,-2.3155,-0.046731,-0.016188,0.019548,-46.86,-18.3,25.14
9.7385,-0.81722,-2.2746,-0.048258,-0.019548,0.023824,-47.04,-18.3,25.02
9.6977,-0.8036,-2.3018,-0.036346,-0.0067195,0.019242,-47.04,-18.54,25.08
9.6568,-0.78998,-2.3155,-0.040317,0.016799,0.011912,-46.98,-18.54,25.02
9.7385,-0.83084,-2.2882,-0.042761,0.022907,0.018937,-47.04,-18.6,24.96
9.7113,-0.78998,-2.1793,-0.049175,0.012217,0.014661,-47.1,-18.42,25.2
9.7113,-0.8036,-2.0975,-0.046426,-0.022907,0.02474,-47.04,-18.48,25.14
9.6432,-0.85808,-2.1793,-0.041539,-0.022602,0.021075,-46.92,-18.36,25.14
9.6977,-0.83084,-2.2201,-0.034514,-0.010079,0.01741,-47.04,-18.18,25.62
9.6841,-0.85808,-2.3155,-0.029627,0.000611,0.014966,-46.98,-18.12,25.62
9.7385,-0.83084,-2.2882,-0.027794,0.0051924,0.019548,-46.92,-18.0,25.68
9.7113,-0.8036,-2.2474,-0.040317,0.0073304,0.016799,-46.98,-17.88,25.62
9.7113,-0.76274,-2.2882,-0.045509,-0.0039706,0.015577,-47.1,-17.88,25.62
9.6432,-0.78998,-2.2201,-0.044593,-0.0085521,0.020159,-46.98,-18.06,25.68
9.6296,-0.78998,-2.2746,-0.035736,0.0012217,0.022907,-46.86,-17.88,25.68
9.616,-0.81722,-2.261,-0.034514,0.0082467,0.019853,-46.86,-17.94,25.74
9.7113,-0.8036,-2.3018,-0.034514,0.012828,0.018326,-46.92,-18.0,25.74
9.7249,-0.81722,-2.2474,-0.032376,0.0079412,0.012217,-46.8,-17.94,25.56
9.7385,-0.77636,-2.261,-0.041233,-0.0048869,0.016188,-46.86,-17.82,25.56
9.7113,-0.8717,-2.2474,-0.042455,-0.0054978,0.018326,-46.8,-18.0,25.5
9.6568,-0.81722,-2.3155,-0.041539,-0.010079,0.015882,-46.8,-17.94,25.5
9.6568,-0.83084,-2.2065,-0.04612,-0.0048869,0.014966,-47.04,-17.88,25.44
9.6568,-0.83084,-2.261,-0.044593,-0.0015272,0.023518,-47.22,-17.82,25.38
9.6568,-0.89894,-2.2065,-0.0281,0.0088575,0.021686,-47.28,-17.7,25.56
9.7658,-0.77636,-2.3972,-0.041233,0.020159,0.020464,-47.34,-17.88,25.32
9.7658,-0.83084,-2.2474,-0.051313,0.019242,0.01405,-47.28,-17.7,25.38
9.7522,-0.78998,-2.2201,-0.054367,-0.0064141,0.010385,-47.58,-17.76,25.32
9.6296,-0.76274,-2.2201,-0.047647,-0.020769,0.013439,-47.46,-17.88,25.2
9.6023,-0.81722,-2.2882,-0.039095,-0.029322,0.018631,-47.4,-17.82,25.2
9.6704,-0.84446,-2.3699,-0.039095,-0.011606,0.018631,-47.46,-18.0,25.2
9.6568,-0.89894,-2.3155,-0.035125,0.016188,0.012828,-47.46,-18.0,25.14
9.6704,-0.85808,-2.1656,-0.042455,0.027489,0.015577,-47.58,-17.94,25.08
9.6977,-0.78998,-2.2201,-0.044899,0.010385,0.011301,-47.52,-18.18,25.14
9.7385,-0.78998,-2.2201,-0.043677,-0.0039706,0.019853,-47.46,-18.42,25.08
9.6841,-0.78998,-2.2882,-0.043371,-0.0079412,0.020159,-47.4,-18.42,25.02
9.5751,-0.83084,-2.2337,-0.040928,0.010079,0.019242,-47.28,-18.48,24.84
9.6841,-0.8036,-2.2474,-0.03207,0.016188,0.018021,-47.16,-18.48,24.78
9.6568,-0.8036,-2.2882,-0.031154,0.020769,0.01405,-47.34,-18.36,24.96
9.6841,-0.74912,-2.1929,-0.036346,0.019853,0.01405,-47.16,-18.36,24.96
9.7113,-0.78998,-2.2474,-0.028711,0.0061087,0.018631,-47.1,-18.18,25.02
9.7113,-0.81722,-2.2474,-0.040928,0.0015272,0.019242,-47.28,-18.3,25.02
9.7249,-0.8036,-2.2474,-0.036346,-0.000916,0.018631,-47.22,-18.18,25.08
9.6432,-0.81722,-2.2882,-0.031154,0.0082467,0.014966,-47.22,-18.12,24.96
9.6704,-0.78998,-2.3291,-0.023824,0.022297,0.020464,-47.34,-18.12,25.08
9.7658,-0.89894,-2.3699,-0.016493,0.036346,0.020159,-47.4,-17.94,25.14
9.7522,-0.91256,-2.261,-0.023518,0.051618,0.013439,-47.4,-17.76,25.2
9.7658,-0.83084,-2.0567,-0.043371,0.039706,0.015882,-47.4,-17.82,25.14
9.6977,-0.88532,-2.0839,-0.036041,0.0088575,0.012523,-47.46,-17.82,25.26
9.6023,-0.8036,-2.1929,-0.033292,-0.020159,0.02474,-47.58,-17.82,25.26
9.6704,-0.70826,-2.3155,-0.021991,-0.023518,0.022297,-47.46,-17.7,25.14
9.6977,-0.81722,-2.3427,-0.020769,0.0079412,0.018631,-47.46,-17.64,25.14
9.5751,-0.81722,-2.2201,-0.025045,0.02474,0.018631,-47.52,-17.82,25.32
9.6841,-0.84446,-2.0294,-0.032681,0.021686,0.023824,-47.64,-17.76,25.38
9.6704,-0.8036,-2.1384,-0.039095,0.0036652,0.023518,-47.7,-17.82,25.08
9.6841,-0.77636,-2.2337,-0.038485,-0.007025,0.02138,-47.76,-17.88,25.26
9.6977,-0.8036,-2.3155,-0.036346,-0.020159,0.023213,-47.7,-18.0,25.38
9.6977,-0.76274,-2.1929,-0.036957,-0.0039706,0.02138,-47.7,-18.12,25.32
9.6704,-0.83084,-2.2746,-0.023213,0.011912,0.018326,-47.7,-18.3,25.2
9.6704,-0.8036,-2.2337,-0.027794,0.009163,0.020769,-47.4,-18.42,25.32
9.7113,-0.84446,-2.2746,-0.02474,0.012523,0.0085521,-47.4,-18.6,25.26
9.7113,-0.83084,-2.1656,-0.031765,0.0012217,0.018021,-47.28,-18.72,25.2
9.6977,-0.85808,-2.1929,-0.037874,-0.0024435,0.028405,-47.28,-18.78,25.26
9.6841,-0.89894,-2.2065,-0.040317,-0.0036652,0.015882,-47.28,-18.78,25.2
9.6296,-0.83084,-2.2065,-0.038179,-0.014355,0.021686,-47.4,-18.66,25.08
9.6704,-0.76274,-2.2065,-0.033903,-0.0012217,0.019548,-47.46,-18.6,25.2
9.6841,-0.76274,-2.261,-0.030238,0.014661,0.014355,-47.28,-18.72,25.2
9.6977,-0.91256,-2.152,-0.035736,0.018021,0.010079,-47.1,-18.6,25.14
9.7385,-0.78998,-2.0703,-0.042761,-0.0088575,0.016799,-47.22,-18.54,25.02
9.6432,-0.78998,-2.1248,-0.038485,-0.019242,0.012828,-47.1,-18.54,25.08
9.6977,-0.81722,-2.1793,-0.039401,-0.033903,0.024129,-47.1,-18.42,25.2
9.6841,-0.76274,-2.3291,-0.036957,-0.01741,0.019242,-47.16,-18.36,25.08
9.6704,-0.83084,-2.3427,-0.029627,0.0061087,0.01405,-47.16,-18.12,25.02
9.6977,-0.8036,-2.2201,-0.038179,0.012828,0.014661,-47.1,-18.12,25.08
9.7658,-0.8036,-2.1929,-0.029932,-0.000305,0.018631,-46.98,-18.3,25.26
9.6841,-0.74912,-2.152,-0.040012,-0.010079,0.029016,-46.86,-18.3,25.2
9.7385,-0.8036,-2.2065,-0.043982,-0.0048869,0.020769,-46.86,-18.36,25.14
9.6841,-0.77636,-2.1929,-0.044899,-0.0085521,0.029016,-46.86,-18.42,24.96
9.6432,-0.83084,-2.1793,-0.03879,-0.010079,0.020769,-46.86,-18.3,25.08
9.6977,-0.85808,-2.2882,-0.033903,-0.0030543,0.019548,-46.98,-18.24,24.96
9.7522,-0.85808,-2.261,-0.035125,-0.0018326,0.022297,-46.74,-18.3,25.08
9.7385,-0.8036,-2.1656,-0.034819,-0.000305,0.022297,-46.8,-18.12,25.02
9.6704,-0.77636,-2.1793,-0.038179,-0.0036652,0.021075,-46.8,-18.18,24.96
9.6704,-0.77636,-2.2201,-0.03543,-0.010996,0.017104,-47.04,-18.0,24.84
9.7249,-0.8036,-2.2337,-0.039401,-0.014966,0.018326,-47.1,-18.06,25.08
9.7113,-0.88532,-2.2882,-0.051007,-0.010996,0.020464,-47.1,-17.94,25.08
9.7113,-0.78998,-2.3155,-0.03146,-0.0024435,0.020769,-47.34,-17.82,25.08
9.6568,-0.81722,-2.3155,-0.034819,0.010385,0.015272,-47.34,-17.76,25.14
9.6841,-0.8036,-2.2746,-0.04215,0.013744,0.018937,-47.28,-17.7,25.2
9.7522,-0.81722,-2.1793,-0.047953,-0.012828,0.022602,-47.28,-17.76,25.26
9.6704,-0.76274,-2.152,-0.040623,-0.024129,0.023518,-47.34,-17.76,25.32
9.6977,-0.81722,-2.2474,-0.04215,-0.016799,0.015272,-47.4,-17.64,25.32
9.6568,-0.85808,-2.3018,-0.033292,-0.0054978,0.015577,-47.28,-17.76,25.38
9.6704,-0.85808,-2.2746,-0.029016,0.0064141,0.014661,-47.28,-17.76,25.38
9.6704,-0.84446,-2.261,-0.040012,0.010996,0.019242,-47.4,-17.82,25.44
9.6977,-0.84446,-2.261,-0.025351,0.0051924,0.019242,-47.28,-17.76,25.26
9.6432,-0.84446,-2.3291,-0.032681,0.0030543,0.012828,-47.22,-17.88,25.2
9.7249,-0.85808,-2.2201,-0.035125,0.01069,0.018937,-47.28,-18.0,25.14
9.6704,-0.81722,-2.2201,-0.046731,0.0051924,0.021991,-47.22,-18.12,24.96
9.6023,-0.77636,-2.2065,-0.038179,-0.000611,0.019548,-47.34,-18.18,24.96
9.6977,-0.81722,-2.2474,-0.033598,-0.0012217,0.025045,-47.28,-18.12,24.9
9.6977,-0.83084,-2.3018,-0.030543,-0.0018326,0.020159,-47.46,-18.06,24.96
9.7249,-0.8036,-2.2474,-0.033903,0.0054978,0.010385,-47.4,-18.0,25.08
9.6568,-0.76274,-2.2337,-0.034819,0.011301,0.021075,-47.22,-17.82,25.14
9.6704,-0.76274,-2.2065,-0.040928,0.0058032,0.019853,-47.16,-18.06,25.14
9.616,-0.83084,-2.1793,-0.033598,0.0042761,0.022907,-47.34,-18.06,24.84
9.6568,-0.83084,-2.2201,-0.032987,-0.0012217,0.019853,-47.22,-18.06,24.78
9.6568,-0.81722,-2.2474,-0.025656,0.0042761,0.023518,-47.22,-18.0,24.96
9.6977,-0.84446,-2.3291,-0.027794,0.03146,0.016188,-47.16,-18.18,25.02
9.7113,-0.89894,-2.2337,-0.040012,0.03207,0.015882,-47.04,-18.0,25.02
9.7794,-0.78998,-2.0975,-0.045509,-0.015882,0.017715,-46.98,-17.94,25.08
9.6704,-0.88532,-2.2065,-0.046426,-0.034819,0.021991,-46.74,-17.94,25.02
9.6432,-0.8036,-2.2746,-0.044593,-0.030849,0.022602,-46.14,-17.94,24.96
9.6977,-0.76274,-2.3427,-0.035736,-0.0088575,0.02138,-46.26,-17.94,24.78
9.6704,-0.88532,-2.2201,-0.033903,0.0064141,0.016188,-46.32,-17.94,24.78
9.6568,-0.76274,-2.2474,-0.036957,0.009163,0.016493,-46.14,-18.0,24.84
9.616,-0.78998,-2.2474,-0.037874,0.0033598,0.025962,-46.08,-18.06,25.14
9.6977,-0.81722,-2.1384,-0.040012,-0.000611,0.017715,-46.2,-18.06,25.14
9.6977,-0.83084,-2.2201,-0.03879,-0.0061087,0.019853,-46.14,-18.06,25.14
9.6977,-0.83084,-2.152,-0.042761,-0.0012217,0.018326,-46.2,-17.94,25.5
9.6977,-0.83084,-2.2337,-0.039401,0.0027489,0.01405,-46.56,-17.88,25.5
9.6977,-0.8036,-2.3563,-0.040012,0.0054978,0.022297,-46.68,-18.0,25.68
9.7113,-0.85808,-2.2746,-0.038179,-0.000611,0.016493,-46.62,-18.18,25.74
9.7658,-0.83084,-2.2337,-0.037263,-0.0061087,0.015272,-46.62,-18.12,25.74
9.6432,-0.83084,-2.2201,-0.036957,-0.0064141,0.018326,-46.74,-18.12,25.8
9.6432,-0.8036,-2.2882,-0.043371,-0.0076358,0.0094684,-46.74,-18.18,25.74
9.6023,-0.83084,-2.3291,-0.044288,-0.0015272,0.020769,-46.8,-18.06,25.74
9.6977,-0.78998,-2.2201,-0.048564,0.0012217,0.018021,-46.86,-18.18,25.74
9.6432,-0.8036,-2.2474,-0.040928,-0.0033598,0.022907,-46.92,-18.12,25.86
9.6432,-0.81722,-2.3155,-0.032987,0.014355,0.019853,-47.04,-18.12,25.86
9.6704,-0.83084,-2.3155,-0.047037,0.024129,0.015577,-47.1,-18.12,25.74
9.7385,-0.8036,-2.2201,-0.041539,0.019242,0.01069,-47.16,-18.12,25.68
9.6432,-0.83084,-2.1656,-0.057727,-0.011301,0.014966,-47.22,-17.94,25.44
9.6023,-0.83084,-2.1793,-0.045509,-0.019548,0.025962,-47.16,-18.0,25.38
9.6704,-0.8036,-2.3563,-0.036041,-0.016799,0.023824,-47.34,-17.94,25.2
9.6432,-0.81722,-2.3699,-0.033292,0.013744,0.014355,-47.28,-18.0,25.32
9.6704,-0.84446,-2.3155,-0.032376,0.019242,0.010996,-47.22,-17.82,25.32
9.6977,-0.81722,-2.1793,-0.039095,0.012828,0.017104,-47.22,-17.7,25.26
9.6704,-0.83084,-2.152,-0.041539,-0.0039706,0.014661,-47.22,-17.82,25.14
9.6704,-0.78998,-2.2337,-0.044288,-0.015577,0.020464,-47.16,-17.7,25.14
9.616,-0.8036,-2.3018,-0.043066,-0.000305,0.015272,-47.04,-17.82,25.08
9.6432,-0.8036,-2.2882,-0.035736,0.014355,0.014966,-46.92,-17.88,25.08
9.6704,-0.83084,-2.3155,-0.037263,0.022297,0.020159,-46.86,-17.88,25.08
9.6977,-0.83084,-2.2201,-0.034514,0.015882,0.015577,-46.86,-17.94,25.2
9.6568,-0.8036,-2.1656,-0.040623,0.0085521,0.020464,-46.86,-17.88,25.32
9.6977,-0.85808,-2.3155,-0.034208,0.0039706,0.016799,-46.98,-17.76,25.44
9.6568,-0.84446,-2.2201,-0.039095,-0.0024435,0.019242,-46.8,-17.76,25.5
9.6977,-0.84446,-2.2201,-0.036346,0.000305,0.018021,-46.92,-17.64,25.5
9.6977,-0.83084,-2.152,-0.037874,0.0094684,0.021075,-46.86,-17.64,25.56
9.6023,-0.84446,-2.2882,-0.028405,0.015272,0.016799,-46.92,-17.76,25.62
9.6977,-0.78998,-2.3563,-0.023824,0.024435,0.018021,-46.8,-17.76,25.5
9.6977,-0.8036,-2.3155,-0.031765,0.042455,0.016493,-46.62,-17.76,25.68
9.7794,-0.8036,-2.2201,-0.04612,0.02474,0.018326,-46.62,-17.76,25.8
9.7385,-0.76274,-2.1929,-0.04215,-0.000916,0.015272,-46.62,-17.7,25.86
9.6432,-0.77636,-2.2746,-0.027794,-0.014966,0.018631,-46.68,-17.64,25.92
9.6841,-0.8036,-2.2746,-0.019853,-0.007025,0.020159,-46.56,-17.76,25.92
9.6841,-0.8036,-2.2882,-0.020159,0.026267,0.018326,-46.62,-17.82,25.98
9.6977,-0.8036,-2.2201,-0.026267,0.03207,0.011912,-46.56,-17.88,25.74
9.6977,-0.8036,-2.1929,-0.031765,0.020464,0.015882,-46.74,-17.94,25.74
9.7113,-0.8036,-2.2065,-0.034514,-0.0079412,0.025656,-46.62,-18.18,25.56
9.7385,-0.76274,-2.261,-0.043371,-0.0061087,0.025962,-46.8,-18.3,25.44
9.6977,-0.81722,-2.261,-0.036346,-0.0042761,0.0281,-46.8,-18.24,25.38
9.6023,-0.8036,-2.2882,-0.034514,0.0061087,0.02474,-46.86,-18.24,25.44
9.6023,-0.84446,-2.2337,-0.026573,0.012523,0.023213,-46.98,-18.24,25.26
9.6977,-0.83084,-2.1929,-0.027794,0.0067195,0.021686,-47.1,-18.12,25.2
9.7522,-0.83084,-2.261,-0.03879,0.0048869,0.018631,-47.22,-18.3,25.08
9.6977,-0.88532,-2.2746,-0.038179,-0.0030543,0.020464,-47.28,-18.36,25.08
9.7794,-0.83084,-2.152,-0.041233,-0.011606,0.024129,-47.28,-18.3,25.08
9.6296,-0.78998,-2.2065,-0.041844,-0.009163,0.027184,-47.22,-18.3,25.14
9.6432,-0.83084,-2.2882,-0.040928,-0.002138,0.020159,-47.1,-18.24,25.2
9.6977,-0.76274,-2.2882,-0.043677,0.002138,0.021686,-47.04,-18.12,25.26
9.7113,-0.81722,-2.2337,-0.031154,0.0024435,0.023213,-46.98,-18.12,25.32
9.6977,-0.77636,-2.2474,-0.0281,0.0073304,0.017104,-46.98,-18.18,25.2
9.8066,-0.89894,-2.1248,-0.034208,0.010385,0.022907,-47.04,-18.3,25.2
9.7522,-0.78998,-2.152,-0.037874,0.0061087,0.01069,-47.04,-18.3,25.2
9.616,-0.78998,-2.2065,-0.040928,-0.022297,0.019548,-47.04,-18.36,25.2
9.6023,-0.84446,-2.1929,-0.031154,-0.021075,0.019242,-46.98,-18.42,25.26
9.7385,-0.81722,-2.2746,-0.039095,-0.012523,0.017715,-46.86,-18.36,25.2
9.7658,-0.85808,-2.2201,-0.023824,0.0048869,0.016493,-46.8,-18.24,25.38
9.6432,-0.8036,-2.2474,-0.026878,0.002138,0.016188,-46.8,-18.18,25.26
9.6977,-0.81722,-2.2201,-0.037568,0.0012217,0.026573,-46.8,-18.3,25.08
9.6841,-0.78998,-2.1656,-0.041844,-0.007025,0.022602,-46.92,-18.42,25.02
9.7113,-0.8036,-2.1929,-0.051313,-0.011301,0.019853,-46.86,-18.42,25.08
9.6704,-0.83084,-2.2065,-0.034819,-0.0061087,0.017104,-46.98,-18.24,25.08
9.6568,-0.84446,-2.2882,-0.034819,-0.0030543,0.024129,-46.98,-18.12,25.26
9.7385,-0.83084,-2.2882,-0.033292,0.0036652,0.024435,-46.92,-18.0,25.14
9.6704,-0.8036,-2.2746,-0.034819,0.0039706,0.023518,-46.92,-17.82,25.2
9.7249,-0.83084,-2.2882,-0.034208,0.002138,0.018021,-46.92,-17.94,25.26
9.7385,-0.83084,-2.261,-0.040928,-0.0073304,0.020769,-46.86,-17.94,25.14
9.6977,-0.84446,-2.1929,-0.036041,-0.013134,0.026573,-46.92,-17.94,25.14
9.6977,-0.77636,-2.2337,-0.046731,-0.012828,0.018937,-46.86,-17.94,25.14
9.6568,-0.81722,-2.2201,-0.038485,-0.010996,0.026878,-46.86,-17.82,25.14
9.7113,-0.76274,-2.2474,-0.038179,-0.0067195,0.014661,-46.86,-17.76,25.26
9.6432,-0.85808,-2.3291,-0.037263,0.0051924,0.022602,-46.8,-17.58,25.38
9.7249,-0.88532,-2.2746,-0.030238,0.014966,0.0082467,-47.1,-17.82,25.26
9.7113,-0.83084,-2.2201,-0.044593,0.000305,0.0097738,-47.04,-17.94,25.26
9.6568,-0.83084,-2.1656,-0.046426,-0.035125,0.018631,-46.98,-18.0,25.44
9.6296,-0.8036,-2.1656,-0.040623,-0.035736,0.023518,-47.1,-18.06,25.56
9.6977,-0.85808,-2.261,-0.03543,-0.016799,0.018937,-47.1,-18.18,25.56
9.6704,-0.8036,-2.2882,-0.037568,-0.000916,0.016493,-47.22,-18.0,25.56
9.6977,-0.84446,-2.3836,-0.036041,0.0036652,0.011301,-47.28,-18.12,25.5
9.6841,-0.8036,-2.2882,-0.03207,0.0067195,0.012523,-47.58,-18.3,25.74
9.7249,-0.83084,-2.2882,-0.035125,0.0048869,0.019242,-47.58,-18.3,25.68
9.6977,-0.81722,-2.2337,-0.030849,0.013439,0.016799,-47.52,-18.3,25.74
9.6977,-0.8036,-2.2882,-0.034514,0.0054978,0.022602,-47.64,-18.36,25.74
9.6977,-0.88532,-2.2337,-0.037874,0.0064141,0.024129,-47.52,-18.42,25.74
9.6296,-0.88532,-2.2201,-0.031154,0.0085521,0.023213,-47.52,-18.36,25.8
9.7113,-0.76274,-2.2337,-0.032987,0.010996,0.025962,-47.34,-18.3,25.8
9.6704,-0.85808,-2.3155,-0.033292,0.012828,0.018326,-47.4,-18.18,25.74
9.7113,-0.72188,-2.261,-0.035736,0.015272,0.020159,-47.4,-18.18,25.74
9.6704,-0.70826,-2.3291,-0.030543,0.0039706,0.020769,-47.4,-18.12,25.68
9.7113,-0.81722,-2.261,-0.037874,-0.0033598,0.018326,-47.28,-18.12,25.68
9.6568,-0.84446,-2.3155,-0.041844,-0.0030543,0.016188,-47.28,-18.12,25.62
9.6704,-0.89894,-2.2474,-0.039095,0.0015272,0.014966,-47.28,-17.94,25.38
9.6977,-0.76274,-2.261,-0.035736,0.011301,0.01741,-47.34,-18.06,25.44
9.6432,-0.85808,-2.2337,-0.034514,0.0082467,0.023213,-47.22,-18.0,25.38
9.6841,-0.89894,-2.2474,-0.036957,0.013134,0.020159,-47.1,-17.94,25.38
9.7385,-0.85808,-2.2065,-0.045815,0.0048869,0.023213,-47.16,-18.0,25.38
9.6977,-0.83084,-2.2065,-0.046731,-0.029627,0.020159,-47.28,-17.94,25.26
9.5887,-0.8036,-2.2882,-0.048869,-0.024435,0.024435,-47.34,-17.94,25.26
9.6296,-0.85808,-2.3155,-0.049175,-0.0088575,0.015272,-47.4,-18.0,25.2
9.6023,-0.81722,-2.2882,-0.030543,0.000611,0.017715,-47.34,-17.82,25.26
9.6977,-0.8717,-2.2882,-0.033903,0.0045815,0.015272,-47.4,-17.7,25.32
9.6977,-0.83084,-2.2474,-0.025351,0.0088575,0.020159,-47.4,-17.82,25.38
9.6841,-0.78998,-2.2882,-0.036652,0.000916,0.020159,-47.28,-17.64,25.5
9.7522,-0.81722,-2.2474,-0.040928,-0.0061087,0.017104,-47.34,-17.88,25.74
9.7249,-0.78998,-2.1929,-0.044288,-0.0054978,0.020769,-47.22,-17.82,25.68
9.6296,-0.8036,-2.261,-0.035736,0.007025,0.014966,-47.34,-18.06,25.62
9.6977,-0.83084,-2.3018,-0.033292,0.011301,0.015882,-47.4,-18.12,25.62
9.6977,-0.8717,-2.2746,-0.039095,0.010996,0.021991,-47.46,-18.06,25.56
9.7249,-0.83084,-2.2201,-0.035125,-0.0076358,0.018631,-47.34,-18.06,25.56
9.6977,-0.83084,-2.3155,-0.03879,-0.011606,0.019242,-47.16,-18.0,25.5
9.6704,-0.83084,-2.3155,-0.044899,-0.0094684,0.017104,-47.1,-18.0,25.5
9.7113,-0.84446,-2.4244,-0.042455,-0.009163,0.023824,-46.92,-18.12,25.44
9.7385,-0.85808,-2.2746,-0.044593,-0.0085521,0.018937,-46.86,-18.36,25.44
9.6704,-0.8036,-2.1929,-0.043066,-0.000611,0.016799,-46.92,-18.24,25.5
9.6296,-0.77636,-2.2746,-0.034819,-0.0015272,0.014661,-46.8,-18.24,25.38
9.6704,-0.85808,-2.2201,-0.031154,0.0067195,0.014661,-46.8,-18.12,25.14
9.7658,-0.85808,-2.3018,-0.041844,0.012828,0.0030543,-46.8,-18.12,25.08
9.7658,-0.85808,-2.2201,-0.062919,-0.0051924,0.01405,-46.8,-18.06,25.2
9.6432,-0.78998,-2.2474,-0.046731,-0.015272,0.01069,-46.8,-18.0,25.08
9.5751,-0.8036,-2.2474,-0.044899,-0.021991,0.021075,-46.68,-18.06,25.26
9.6296,-0.8036,-2.2201,-0.036346,-0.011912,0.021991,-46.74,-18.18,25.38
9.6704,-0.8717,-2.4653,-0.033292,0.002138,0.016493,-46.74,-18.18,25.5
9.6432,-0.85808,-2.3018,-0.029932,0.017715,0.01069,-46.8,-18.18,25.56
9.7522,-0.77636,-2.261,-0.041539,0.012523,0.019242,-46.86,-18.24,25.56
9.6977,-0.83084,-2.2337,-0.047953,-0.0027489,0.021075,-46.92,-18.12,25.38
9.6841,-0.77636,-2.2201,-0.044593,-0.011912,0.020464,-46.98,-18.18,25.32
9.6432,-0.8036,-2.3427,-0.037568,-0.0079412,0.012523,-47.1,-18.3,25.5
9.6704,-0.8036,-2.3836,-0.030849,0.0045815,0.017104,-47.16,-18.24,25.56
9.6568,-0.81722,-2.3699,-0.037568,0.015272,0.017104,-47.1,-18.24,25.5
9.6977,-0.8036,-2.3018,-0.026573,0.019242,0.019242,-47.04,-18.18,25.38
9.6568,-0.78998,-2.3155,-0.034208,0.016188,0.024129,-47.1,-18.06,25.38
9.6841,-0.85808,-2.1929,-0.037263,-0.000916,0.019242,-47.1,-18.0,25.38
9.7249,-0.84446,-2.2474,-0.035736,-0.0048869,0.01741,-46.98,-18.0,25.26
9.7385,-0.85808,-2.2882,-0.032376,-0.010996,0.018326,-47.16,-17.88,25.2
9.7385,-0.84446,-2.2746,-0.031765,0.0048869,0.014966,-47.22,-17.88,25.14
9.6977,-0.84446,-2.2882,-0.032987,0.016188,0.02138,-47.34,-17.7,25.14
9.6841,-0.78998,-2.3836,-0.027489,0.02138,0.017715,-47.22,-17.76,25.26
9.6704,-0.8717,-2.261,-0.026573,0.023213,0.013134,-47.22,-17.7,25.32
9.7113,-0.8036,-2.3291,-0.032681,0.027489,0.014355,-47.1,-17.64,25.26
9.7249,-0.8036,-2.1929,-0.040623,0.013439,0.015272,-46.92,-17.52,25.14
9.6704,-0.81722,-2.2201,-0.034208,0.0094684,0.020464,-47.1,-17.52,25.32
9.6704,-0.77636,-2.3155,-0.024435,0.023213,0.02474,-47.16,-17.58,25.5
9.6977,-0.77636,-2.2746,-0.022297,0.029322,0.017104,-47.16,-17.58,25.44
9.6704,-0.8717,-2.2474,-0.024129,0.029932,0.015577,-47.16,-17.7,25.44
9.616,-0.83084,-2.2474,-0.018326,0.021991,0.021075,-47.16,-17.7,25.2
9.6296,-0.78998,-2.2882,-0.025656,0.0094684,0.018937,-47.16,-17.88,25.2
9.7113,-0.78998,-2.1929,-0.040317,0.0061087,0.023518,-47.04,-17.88,25.08
9.6977,-0.84446,-2.1929,-0.04215,-0.0045815,0.023518,-47.04,-18.06,25.08
9.6432,-0.8036,-2.2065,-0.041539,-0.0064141,0.020159,-47.1,-17.88,25.02
9.6841,-0.8036,-2.2201,-0.036652,-0.0039706,0.027794,-47.16,-17.94,24.96
9.7385,-0.83084,-2.2201,-0.031154,0.0027489,0.023824,-47.28,-17.94,24.96
9.6977,-0.85808,-2.2201,-0.032681,0.0058032,0.01405,-47.4,-18.06,25.08
9.8066,-0.85808,-2.2474,-0.034514,0.0039706,0.018021,-47.28,-18.06,24.96
9.6296,-0.84446,-2.2201,-0.034819,0.0018326,0.025962,-47.22,-18.0,24.96
9.6704,-0.8036,-2.2474,-0.038485,-0.0054978,0.025351,-47.22,-18.06,24.96
9.7113,-0.83084,-2.1793,-0.047647,-0.007025,0.023213,-47.22,-17.94,25.14
9.6568,-0.85808,-2.152,-0.043066,-0.010079,0.018326,-47.28,-17.94,25.38
9.6977,-0.84446,-2.3291,-0.037568,-0.0033598,0.024129,-47.22,-17.82,25.5
9.6704,-0.78998,-2.2474,-0.029932,-0.0042761,0.017104,-47.22,-17.82,25.56
9.6977,-0.81722,-2.3699,-0.039706,0.0073304,0.018631,-47.04,-17.82,25.62
9.6432,-0.83084,-2.3155,-0.039095,0.011606,0.016188,-47.04,-18.0,25.62
9.7385,-0.83084,-2.1384,-0.047647,0.009163,0.014355,-46.92,-18.24,25.5
9.7385,-0.8036,-2.0839,-0.041539,-0.036041,0.023824,-46.86,-18.18,25.44
9.6977,-0.8717,-2.261,-0.034819,-0.032681,0.027794,-46.68,-18.18,25.44
9.6023,-0.8036,-2.3427,-0.036346,-0.03146,0.022297,-46.74,-18.24,25.32
9.6296,-0.8717,-2.3563,-0.039706,-0.0082467,0.020769,-46.86,-18.42,25.44
9.5751,-0.83084,-2.3291,-0.031765,0.012217,0.012523,-46.86,-18.36,25.38
9.6841,-0.83084,-2.2882,-0.03207,0.0033598,0.019548,-46.74,-18.54,25.32
9.6977,-0.78998,-2.2474,-0.033292,-0.0061087,0.019242,-46.74,-18.54,25.26
9.6432,-0.8717,-2.2201,-0.039095,-0.014966,0.020769,-46.74,-18.54,25.26
9.6704,-0.89894,-2.2065,-0.042761,-0.0088575,0.021686,-46.8,-18.48,25.38
9.6568,-0.8036,-2.2474,-0.040012,-0.010385,0.021686,-46.8,-18.42,25.32
9.6296,-0.8036,-2.2882,-0.040012,-0.0018326,0.027489,-46.68,-18.48,25.26
9.6977,-0.83084,-2.2474,-0.042761,-0.0064141,0.022907,-46.62,-18.36,25.2
9.6977,-0.81722,-2.2882,-0.033598,-0.0015272,0.014661,-46.68,-18.36,25.38
9.7385,-0.84446,-2.2474,-0.031765,-0.0036652,0.014355,-46.8,-18.3,25.38
