Ax,Ay,Az,Gx,Gy,Gz,Mx,My,Mz
3.7865,-0.31327,-9.0848,-0.034208,-0.022297,0.018021,-24.18,1.5,18.18
3.732,-0.38137,-9.0439,-0.032987,-0.012523,0.019242,-24.3,1.44,18.12
3.8001,-0.35413,-9.0575,-0.034514,-0.0033598,0.01741,-24.24,1.8,18.36
3.8001,-0.35413,-9.0303,-0.027184,0.0033598,0.016188,-24.18,1.8,18.36
3.8546,-0.32689,-9.0575,-0.036346,0.0018326,0.013439,-24.12,1.8,18.36
3.7728,-0.32689,-9.0848,-0.036957,0.0024435,0.013134,-24.24,1.92,18.48
3.8273,-0.35413,-9.0848,-0.030849,0.0058032,0.013439,-24.3,1.98,18.48
3.8546,-0.39499,-9.0712,-0.032681,0.0076358,0.010385,-24.24,2.04,18.42
3.8409,-0.43585,-9.0848,-0.030543,0.0088575,0.015882,-24.3,2.16,18.48
3.8409,-0.39499,-9.1393,-0.036957,0.0051924,0.013744,-24.24,2.1,18.6
3.8001,-0.40861,-9.0848,-0.036652,0.0042761,0.0073304,-24.36,2.1,18.42
3.8001,-0.39499,-9.0439,-0.032987,0.011912,0.011606,-24.3,2.04,18.24
3.8273,-0.38137,-9.0303,-0.027184,0.0018326,0.014661,-24.24,2.22,18.24
3.7728,-0.35413,-9.1393,-0.031765,0.0024435,0.014966,-24.12,2.1,18.24
3.8546,-0.35413,-9.1256,-0.034208,0.0048869,0.013744,-24.0,2.04,18.3
3.8682,-0.39499,-9.1256,-0.034208,0.0048869,0.0036652,-23.94,2.04,18.24
3.8001,-0.38137,-9.0439,-0.033292,-0.0027489,0.0058032,-23.94,2.04,18.3
3.7728,-0.27241,-9.0575,-0.026267,0.0064141,0.01405,-23.76,2.04,18.42
3.9227,-0.38137,-9.0984,-0.034819,0.0088575,0.012523,-23.88,2.04,18.3
3.7456,-0.38137,-9.0167,-0.028405,-0.009163,0.002138,-23.7,1.74,18.36
3.7592,-0.36775,-9.0575,-0.029627,-0.0039706,0.011301,-23.46,1.74,18.36
3.8273,-0.35413,-9.0575,-0.032376,0.0082467,0.019548,-23.46,1.86,18.48
3.8409,-0.39499,-9.0712,-0.036957,0.010996,0.0094684,-23.4,1.68,18.72
3.8546,-0.34051,-9.0848,-0.030849,0.0015272,0.012523,-23.28,1.74,18.78
3.8682,-0.35413,-9.0031,-0.034514,-0.0088575,0.015577,-23.4,1.68,18.72
3.8818,-0.39499,-9.0984,-0.033292,-0.0048869,0.013134,-23.46,1.74,18.66
3.8818,-0.39499,-9.0712,-0.040317,-0.007025,0.01405,-23.46,1.8,18.6
3.8682,-0.42223,-9.0848,-0.033903,-0.0027489,0.010996,-23.34,1.74,18.6
3.7728,-0.40861,-9.0984,-0.034208,-0.0024435,0.010996,-23.52,1.98,18.36
3.8273,-0.35413,-9.0303,-0.028405,-0.0064141,0.011606,-23.64,1.8,18.3
3.7728,-0.38137,-9.0712,-0.034819,-0.0051924,0.012828,-23.64,1.92,18.24
3.8682,-0.36775,-9.0712,-0.033903,0.000611,0.016799,-23.7,1.92,18.12
3.8273,-0.40861,-8.9894,-0.029322,-0.0054978,0.013744,-23.7,1.8,18.06
3.8001,-0.36775,-9.0848,-0.025962,-0.0012217,0.016493,-23.76,1.86,18.06
3.8001,-0.34051,-9.1529,-0.031765,-0.0088575,0.015577,-23.88,1.74,18.18
3.8001,-0.36775,-9.0848,-0.029016,-0.0094684,0.014661,-23.94,1.74,18.42
3.8001,-0.40861,-9.1529,-0.03146,-0.0082467,0.018937,-24.06,1.74,18.36
3.8001,-0.35413,-8.9894,-0.03879,-0.0051924,0.014966,-24.06,1.68,18.54
3.8001,-0.35413,-9.0439,-0.03146,-0.01069,0.021075,-23.94,1.62,18.78
3.7456,-0.28603,-9.0848,-0.03543,-0.010996,0.009163,-24.0,1.62,18.6
3.7184,-0.39499,-9.0848,-0.032681,0.0015272,0.011912,-24.0,1.56,18.6
3.8682,-0.36775,-9.0848,-0.039095,0.020769,0.013134,-24.0,1.56,18.72
3.8954,-0.39499,-9.0848,-0.041233,0.0067195,0.012523,-23.88,1.68,18.6
3.8137,-0.36775,-9.0712,-0.031765,-0.0051924,0.017715,-23.94,1.68,18.6
3.8001,-0.34051,-9.0984,-0.032376,0.002138,0.016188,-23.82,1.62,18.6
3.8818,-0.39499,-9.0575,-0.032681,0.009163,0.011912,-23.88,1.74,18.42
3.8682,-0.40861,-9.0439,-0.036957,0.012828,0.016799,-23.76,1.68,18.48
3.8409,-0.36775,-9.0303,-0.033903,0.0039706,0.013134,-23.94,1.74,18.3
3.8409,-0.38137,-9.0712,-0.033903,-0.0030543,0.010385,-24.0,1.74,18.3
3.8137,-0.40861,-9.0848,-0.029016,-0.0018326,0.011301,-24.06,1.86,18.42
3.8273,-0.38137,-9.112,-0.029627,0.0015272,0.012217,-23.94,1.86,18.24
3.8818,-0.35413,-9.0712,-0.026878,0.0015272,0.012828,-24.06,1.62,18.06
3.8273,-0.38137,-9.0303,-0.03207,0.0033598,0.016188,-23.76,1.56,18.24
3.8273,-0.38137,-9.0712,-0.036652,-0.0036652,0.017715,-23.64,1.62,18.3
3.8546,-0.36775,-9.0303,-0.03146,-0.000916,0.010996,-23.7,1.74,18.24
3.8001,-0.36775,-9.0848,-0.033903,0.000611,0.015272,-23.76,1.62,18.06
3.8001,-0.38137,-9.1529,-0.036957,0.010079,0.0094684,-23.76,1.56,18.12
3.8001,-0.39499,-9.0848,-0.03543,0.015272,0.011606,-23.7,1.5,18.24
3.8137,-0.40861,-9.0712,-0.042455,0.019242,0.011301,-23.58,1.38,18.24
3.8001,-0.32689,-9.0848,-0.036041,0.012828,0.01069,-23.64,1.62,18.3
4.018,-0.43585,-9.0848,-0.035125,0.016493,0.0048869,-23.64,1.68,18.42
4.0452,-0.40861,-9.0848,-0.029627,-0.011606,0.010996,-23.7,1.74,18.42
3.7728,-0.40861,-8.9894,-0.024435,-0.022297,0.0015272,-23.88,1.8,18.3
3.7184,-0.34051,-9.0984,-0.029932,-0.0042761,0.012828,-23.82,1.68,18.36
3.8954,-0.42223,-9.0848,-0.036652,0.0079412,0.019548,-23.94,1.62,18.42
3.909,-0.39499,-9.0303,-0.036652,-0.010079,0.025656,-23.94,1.8,18.36
3.8818,-0.38137,-9.0984,-0.032376,-0.025351,0.030238,-24.0,1.8,18.24
3.8137,-0.36775,-9.0575,-0.031154,-0.028711,0.020159,-24.06,1.68,18.12
3.7456,-0.40861,-9.0848,-0.031765,-0.017715,0.018021,-24.06,1.68,18.06
3.8001,-0.40861,-9.0848,-0.041233,-0.013439,0.026267,-24.3,1.8,18.0
3.7728,-0.39499,-9.0848,-0.032681,-0.014355,0.016493,-24.36,1.8,18.12
3.8001,-0.34051,-9.0848,-0.029627,-0.0061087,0.018937,-24.3,1.8,18.12
3.8273,-0.42223,-9.0439,-0.031765,-0.002138,0.016188,-24.24,1.86,18.06
3.8137,-0.39499,-9.0712,-0.031154,0.000305,0.017104,-24.18,1.86,18.12
3.8682,-0.38137,-9.0984,-0.033292,0.0036652,0.01405,-24.06,1.74,18.06
3.8409,-0.39499,-9.0848,-0.041233,0.0051924,0.016188,-24.06,1.68,18.12
3.8409,-0.38137,-9.0167,-0.032987,-0.0067195,0.015577,-23.94,1.8,18.3
3.8001,-0.35413,-9.0575,-0.038179,-0.011606,0.012828,-23.88,1.68,18.48
3.7865,-0.32689,-9.112,-0.022602,-0.0042761,0.012217,-23.82,1.74,18.48
3.8682,-0.38137,-9.1256,-0.033598,-0.0027489,0.014661,-23.58,1.5,18.6
3.7865,-0.42223,-9.0031,-0.037874,-0.0036652,0.02138,-23.52,1.5,18.66
3.8001,-0.31327,-9.0848,-0.03146,-0.0061087,0.011912,-23.76,1.38,18.72
3.7184,-0.39499,-9.0848,-0.026267,-0.0058032,0.0064141,-23.76,1.08,18.78
3.7047,-0.36775,-9.1256,-0.030849,-0.002138,0.015272,-23.64,1.02,18.72
3.8273,-0.40861,-9.1256,-0.044593,0.03543,0.0061087,-23.64,0.96,18.66
3.8409,-0.44947,-9.0575,-0.032376,0.037874,0.000611,-23.82,1.08,18.78
3.8409,-0.36775,-9.0712,-0.030543,0.026878,-0.0012217,-23.88,0.9,18.6
3.8546,-0.35413,-9.112,-0.029932,0.023824,0.0064141,-23.88,0.9,18.6
3.8682,-0.39499,-9.1256,-0.032376,0.025656,0.010079,-23.88,0.96,18.48
3.9363,-0.44947,-8.9486,-0.03543,0.009163,0.01741,-24.0,1.14,18.18
4.0044,-0.50395,-9.112,-0.030849,-0.0085521,0.02138,-23.82,1.2,18.0
3.9227,-0.50395,-9.0031,-0.030238,-0.036957,0.019548,-23.88,1.38,18.0
3.8273,-0.46309,-9.0303,-0.032987,-0.034819,0.026573,-23.88,1.5,17.88
3.8273,-0.40861,-9.0439,-0.032681,-0.027794,0.03146,-23.64,1.74,18.06
3.7865,-0.44947,-9.0303,-0.036957,-0.022602,0.029016,-23.58,1.8,18.18
3.732,-0.34051,-9.0848,-0.04215,-0.01405,0.0281,-23.58,1.8,18.18
3.6775,-0.25879,-9.1256,-0.036346,0.0012217,0.013744,-23.64,1.86,18.12
3.6366,-0.31327,-9.0984,-0.030543,0.019242,0.0018326,-23.58,1.92,18.18
3.8137,-0.24517,-9.0848,-0.037568,0.034208,0.000916,-23.58,1.92,18.24
3.9227,-0.38137,-9.0848,-0.027184,0.036346,-0.000916,-23.7,1.86,18.24
3.909,-0.36775,-9.0848,-0.037263,0.020159,0.0094684,-23.7,1.86,18.36
3.9635,-0.46309,-9.0303,-0.036957,-0.0076358,0.020769,-23.82,1.92,18.3
3.9908,-0.50395,-9.0167,-0.030238,-0.012523,0.021991,-23.82,1.98,18.12
3.9227,-0.47671,-9.0167,-0.036957,-0.01741,0.028405,-23.94,2.1,18.12
3.8273,-0.46309,-9.0439,-0.030849,-0.019548,0.028405,-24.0,2.1,18.12
3.8137,-0.36775,-9.0167,-0.035125,-0.011301,0.021991,-23.94,2.1,18.06
3.7865,-0.28603,-9.0575,-0.03146,-0.0051924,0.023213,-23.82,2.16,18.06
3.8273,-0.31327,-9.1393,-0.038485,0.0054978,0.013439,-23.88,2.04,18.0
3.8137,-0.35413,-9.0712,-0.035736,0.0015272,0.007025,-23.88,2.22,18.0
3.7865,-0.36775,-9.112,-0.029016,0.0048869,0.012828,-23.88,2.1,18.12
3.8001,-0.39499,-9.0984,-0.033598,0.007025,0.0082467,-23.82,2.04,17.82
3.7728,-0.40861,-9.0031,-0.034208,0.0061087,0.0054978,-23.88,2.04,18.12
3.8273,-0.44947,-9.0303,-0.03543,0.01069,0.021686,-23.88,1.92,18.12
3.8818,-0.46309,-9.0031,-0.038485,-0.0042761,0.020159,-23.88,1.74,18.0
3.8682,-0.44947,-9.0712,-0.036346,0.002138,0.026878,-23.82,1.62,18.06
3.8682,-0.43585,-9.0303,-0.036346,-0.0033598,0.025351,-23.76,1.62,18.12
3.8682,-0.38137,-9.1529,-0.034819,-0.0097738,0.025351,-23.94,1.68,18.12
3.8954,-0.35413,-9.112,-0.035125,-0.010385,0.021686,-24.06,1.62,18.48
3.8409,-0.29965,-9.1801,-0.030543,-0.011606,0.02138,-24.12,1.5,18.72
3.7728,-0.36775,-9.1529,-0.036957,-0.0097738,0.01741,-24.12,1.5,18.9
3.7047,-0.35413,-9.0848,-0.026878,-0.0033598,0.01741,-24.3,1.26,19.02
3.7865,-0.35413,-9.112,-0.027184,0.0024435,0.013134,-24.3,1.32,18.96
3.8273,-0.43585,-9.0712,-0.03146,0.0048869,0.010996,-24.24,1.38,18.96
3.8001,-0.39499,-9.0575,-0.036957,0.0027489,0.014966,-24.42,1.38,18.96
3.8137,-0.43585,-9.0848,-0.041539,0.0051924,0.022297,-24.42,1.38,18.96
3.8273,-0.40861,-9.0575,-0.03879,-0.000916,0.018937,-24.24,1.5,18.78
3.7865,-0.38137,-9.0984,-0.025656,-0.0076358,0.016188,-24.3,1.62,18.84
3.7592,-0.42223,-9.0848,-0.035125,0.011606,0.013439,-24.24,1.5,18.78
3.8546,-0.38137,-9.0031,-0.043066,0.024129,0.013744,-24.12,1.5,18.42
3.9635,-0.38137,-9.0167,-0.037263,0.0073304,0.019242,-24.12,1.62,18.18
3.8682,-0.38137,-9.0303,-0.035736,-0.012523,0.018631,-24.12,1.74,17.94
3.8273,-0.35413,-9.1529,-0.031154,-0.011606,0.011912,-24.06,1.98,17.76
3.7047,-0.38137,-9.1665,-0.034514,-0.0036652,0.010385,-24.0,2.04,18.0
3.8273,-0.39499,-9.0575,-0.03207,0.015882,0.0082467,-24.12,1.98,17.94
3.8409,-0.32689,-9.0984,-0.037874,0.007025,0.010079,-24.12,2.22,17.88
3.7865,-0.29965,-9.1256,-0.030849,0.000611,0.011912,-23.94,2.34,17.76
3.8818,-0.36775,-9.0575,-0.034819,0.0039706,0.018021,-24.06,2.28,17.82
3.8682,-0.40861,-9.0848,-0.033903,-0.0048869,0.014355,-24.06,2.28,17.76
3.8137,-0.39499,-9.0439,-0.03207,-0.0082467,0.017104,-24.06,2.22,17.64
3.8818,-0.36775,-8.9894,-0.037263,-0.0061087,0.01405,-24.12,2.22,17.58
3.8273,-0.38137,-9.0167,-0.039706,-0.0030543,0.018021,-24.24,2.16,17.76
3.8273,-0.35413,-9.0439,-0.028711,0.0012217,0.015882,-24.18,2.04,17.82
3.9363,-0.38137,-9.0167,-0.025962,-0.010385,0.01741,-24.12,2.04,17.76
3.8409,-0.40861,-9.112,-0.03207,-0.018021,0.018631,-24.18,1.98,17.94
3.8273,-0.42223,-9.0575,-0.032987,-0.023213,0.022907,-24.24,1.98,17.88
3.7728,-0.39499,-8.9758,-0.03146,-0.022297,0.018937,-24.24,1.92,17.82
3.8546,-0.36775,-9.0575,-0.032376,-0.010385,0.021991,-24.24,1.8,17.7
3.732,-0.40861,-9.112,-0.029322,-0.010385,0.017715,-24.42,1.62,17.76
3.7456,-0.35413,-9.0712,-0.036041,-0.0064141,0.020769,-24.42,1.56,17.82
3.7865,-0.40861,-9.0712,-0.034208,-0.000611,0.016493,-24.3,1.44,18.0
3.7728,-0.35413,-9.0439,-0.038179,0.000611,0.010996,-24.24,1.5,18.12
3.7728,-0.38137,-9.0439,-0.032987,0.0033598,0.012828,-24.18,1.5,18.12
3.8546,-0.38137,-9.1529,-0.028405,0.0064141,0.011606,-24.18,1.56,18.06
3.8001,-0.39499,-9.0575,-0.032376,0.011301,0.0094684,-24.3,1.62,17.94
3.7728,-0.38137,-9.0984,-0.032681,0.011912,0.0045815,-24.3,1.56,18.12
3.7456,-0.38137,-9.0848,-0.031154,0.016493,-0.0030543,-24.24,1.56,18.06
3.7728,-0.35413,-9.0439,-0.031154,0.019548,-0.0027489,-24.24,1.56,18.24
3.7592,-0.40861,-9.0575,-0.027489,0.03146,-0.0027489,-24.12,1.5,18.3
3.8546,-0.38137,-9.0575,-0.035125,0.023213,-0.000305,-23.94,1.5,18.6
3.8682,-0.38137,-9.0575,-0.034208,0.025656,0.0039706,-24.0,1.74,18.66
3.9363,-0.42223,-9.0303,-0.033292,0.0079412,0.010079,-24.0,1.8,18.84
3.909,-0.40861,-9.0575,-0.027489,-0.010079,0.02474,-23.94,2.04,18.78
3.8546,-0.46309,-9.0439,-0.031765,-0.019548,0.020159,-23.88,1.98,18.54
3.8954,-0.43585,-9.0575,-0.030849,-0.027794,0.017104,-23.94,1.98,18.54
3.8273,-0.40861,-9.0848,-0.033292,-0.023213,0.033598,-24.0,2.04,18.54
3.8137,-0.38137,-9.0575,-0.039095,-0.024435,0.029627,-23.88,2.04,18.6
3.7728,-0.35413,-9.1665,-0.030849,-0.024435,0.027794,-23.94,2.16,18.42
3.7728,-0.35413,-9.1529,-0.035736,-0.016188,0.02474,-24.0,2.16,18.36
3.8273,-0.35413,-9.0575,-0.025962,-0.01405,0.01741,-23.88,2.16,18.42
3.8137,-0.40861,-9.0439,-0.039401,0.0045815,0.023213,-23.94,2.1,18.12
3.7592,-0.35413,-9.0303,-0.030238,0.0036652,0.015272,-24.12,2.1,18.06
3.8273,-0.36775,-9.112,-0.031765,-0.0058032,0.016188,-24.0,2.04,17.94
3.8001,-0.40861,-9.0712,-0.036346,0.000916,0.009163,-24.18,1.98,17.82
3.8818,-0.40861,-9.0439,-0.039706,0.013134,0.018326,-24.24,1.92,17.82
3.9635,-0.40861,-9.0984,-0.039095,0.0079412,0.011301,-24.3,1.86,17.88
3.8409,-0.39499,-9.0167,-0.043371,-0.0042761,0.014661,-24.24,1.8,17.94
3.7456,-0.32689,-8.9622,-0.032376,-0.021991,0.016188,-24.24,1.8,17.82
3.7047,-0.35413,-9.0848,-0.029932,0.0039706,0.012828,-24.18,1.86,17.76
3.7047,-0.40861,-9.0848,-0.031154,0.015882,0.009163,-24.06,1.86,18.06
3.8273,-0.31327,-9.1529,-0.029016,0.013439,-0.0018326,-24.06,1.8,18.12
3.9227,-0.28603,-9.1529,-0.03207,0.012523,0.0030543,-24.0,1.74,18.12
3.7728,-0.31327,-9.1256,-0.0281,0.010996,0.0015272,-24.12,1.8,18.3
3.7865,-0.38137,-9.0848,-0.040928,0.018021,0.0085521,-24.12,1.8,18.36
3.9635,-0.44947,-9.112,-0.029016,0.018937,0.0082467,-24.06,1.68,18.3
3.9635,-0.43585,-9.0712,-0.032987,0.009163,0.013744,-23.82,1.62,18.12
3.9363,-0.44947,-9.0439,-0.0281,-0.0030543,0.018937,-23.88,1.62,18.0
3.8409,-0.44947,-9.0031,-0.03879,-0.022907,0.02474,-23.82,1.74,18.18
3.8273,-0.40861,-9.0575,-0.030238,-0.022297,0.018937,-23.88,1.68,18.24
3.7592,-0.28603,-9.0575,-0.032681,-0.011606,0.016799,-23.88,1.68,18.36
3.8001,-0.39499,-9.0575,-0.027489,-0.010385,0.013744,-24.0,1.62,18.42
3.7865,-0.34051,-9.0575,-0.029627,-0.010996,0.013744,-24.06,1.5,18.24
3.8546,-0.36775,-9.0848,-0.028711,-0.0027489,0.0067195,-23.94,1.5,18.24
3.8409,-0.32689,-9.0848,-0.033903,-0.0033598,0.0073304,-24.06,1.44,18.24
3.8546,-0.44947,-9.0303,-0.032987,-0.000916,0.014355,-23.82,1.56,18.12
3.8409,-0.44947,-9.0712,-0.029016,-0.002138,0.013744,-23.64,1.56,18.12
3.8137,-0.42223,-9.0712,-0.029932,-0.0064141,0.012523,-23.64,1.68,18.12
3.8818,-0.43585,-9.0984,-0.034819,-0.0061087,0.016493,-23.7,1.86,18.36
3.8273,-0.42223,-9.0575,-0.027794,-0.010079,0.020769,-23.82,1.86,18.36
3.8546,-0.35413,-9.0303,-0.034208,-0.0076358,0.015882,-23.76,1.86,18.24
3.8954,-0.35413,-9.0984,-0.036041,-0.0076358,0.010079,-23.7,1.92,18.42
3.8001,-0.29965,-9.1256,-0.031154,-0.000305,0.0088575,-23.7,1.8,18.3
3.8546,-0.31327,-9.0575,-0.039401,-0.0045815,0.011301,-23.64,1.8,18.3
3.8273,-0.39499,-9.1393,-0.025045,-0.010079,0.012828,-23.52,1.8,18.36
3.8546,-0.40861,-9.112,-0.032987,-0.0088575,0.016188,-23.52,1.86,18.24
3.8273,-0.38137,-9.0575,-0.030543,-0.013439,0.013744,-23.58,1.92,18.36
3.8409,-0.38137,-9.0984,-0.039706,-0.0097738,0.019548,-23.46,1.86,18.3
3.8137,-0.42223,-9.1256,-0.033903,-0.020769,0.024129,-23.52,1.86,18.36
3.7865,-0.40861,-9.1393,-0.03146,-0.023213,0.027184,-23.7,1.68,18.42
3.7456,-0.39499,-9.1256,-0.033292,-0.019242,0.030238,-23.88,1.56,18.36
3.7592,-0.35413,-9.1529,-0.038485,-0.012828,0.024129,-23.88,1.5,18.42
3.7047,-0.36775,-9.0167,-0.043371,-0.0061087,0.019242,-23.94,1.44,18.48
3.9635,-0.34051,-9.0848,-0.034514,0.0051924,0.018631,-24.06,1.56,18.42
3.8546,-0.43585,-9.1256,-0.032987,-0.0027489,0.012217,-24.06,1.56,18.42
3.8409,-0.40861,-9.0848,-0.034819,-0.010385,0.016188,-24.18,1.44,18.42
3.6911,-0.40861,-9.1256,-0.027794,-0.0048869,0.0045815,-24.18,1.62,18.48
3.732,-0.34051,-9.1256,-0.036652,0.0073304,0.0097738,-24.24,1.56,18.6
3.732,-0.31327,-9.0439,-0.029627,0.028405,-0.0058032,-24.48,1.62,18.54
3.732,-0.25879,-9.0303,-0.031154,0.044899,-0.01405,-24.54,1.74,18.6
3.7456,-0.24517,-9.0984,-0.030543,0.051618,-0.015577,-24.6,1.86,18.6
3.8409,-0.29965,-9.0984,-0.031154,0.051007,-0.0082467,-24.6,1.86,18.54
3.9363,-0.38137,-9.0848,-0.0281,0.021075,-0.0088575,-24.48,1.74,18.48
3.909,-0.44947,-9.0848,-0.036346,0.0015272,0.000916,-24.42,1.74,18.42
4.0044,-0.54481,-9.0031,-0.036041,0.000611,0.01069,-24.18,1.62,18.3
3.9771,-0.54481,-8.9894,-0.03146,-0.013439,0.023518,-24.18,1.56,18.12
3.9908,-0.55843,-9.0031,-0.036346,-0.021075,0.030238,-24.18,1.74,18.18
3.8409,-0.40861,-9.0575,-0.036652,-0.034819,0.031765,-24.06,1.92,18.18
3.7728,-0.35413,-9.0575,-0.042761,-0.026573,0.032987,-24.24,1.68,18.06
3.8137,-0.35413,-9.0848,-0.036041,-0.030849,0.029016,-24.12,1.74,18.0
3.6775,-0.31327,-9.1256,-0.033292,-0.040317,0.026878,-24.06,1.62,18.0
3.7728,-0.34051,-9.0848,-0.025962,-0.045204,0.019853,-24.0,1.74,18.06
3.6094,-0.32689,-9.0575,-0.034819,-0.035736,0.023824,-23.88,1.68,18.06
3.7456,-0.36775,-9.0848,-0.033598,-0.011606,0.023824,-23.7,1.8,18.12
3.7865,-0.38137,-9.1256,-0.03879,0.0067195,0.01741,-23.64,1.86,18.18
3.8273,-0.34051,-9.0303,-0.026878,0.0027489,0.009163,-23.7,1.8,18.24
3.8546,-0.40861,-9.0848,-0.041233,0.0033598,0.014661,-23.64,1.92,18.24
3.8001,-0.43585,-9.0303,-0.030849,-0.010079,0.015272,-23.64,1.92,18.3
3.8273,-0.38137,-9.0848,-0.0281,-0.0051924,0.0088575,-23.52,1.86,18.12
3.8273,-0.40861,-9.1393,-0.025045,-0.0048869,0.012217,-23.58,1.74,18.12
3.8001,-0.38137,-9.0439,-0.032987,0.0027489,0.013439,-23.64,1.86,18.12
3.8001,-0.35413,-9.0984,-0.028405,0.0045815,0.014661,-23.7,1.8,18.18
3.8001,-0.36775,-9.0439,-0.033292,0.010079,0.011301,-23.82,1.86,18.18
3.7865,-0.39499,-9.0848,-0.034208,0.0048869,0.01405,-23.94,1.62,18.12
3.8954,-0.38137,-9.112,-0.040317,0.0036652,0.013134,-24.0,1.62,17.94
3.7728,-0.36775,-9.1256,-0.039401,0.0015272,0.0085521,-23.94,1.68,18.0
3.7456,-0.44947,-9.0439,-0.037263,0.0073304,0.01405,-23.88,1.5,17.88
3.8001,-0.44947,-9.0984,-0.036041,0.015882,0.013134,-23.88,1.68,17.88
3.8273,-0.39499,-9.0439,-0.036957,0.015577,0.0097738,-24.0,1.68,17.88
3.7728,-0.38137,-9.0848,-0.034208,0.015272,0.0079412,-24.06,1.68,18.06
3.8001,-0.32689,-9.1937,-0.03146,0.021075,-0.0012217,-24.24,1.62,18.12
3.8001,-0.29965,-9.0848,-0.03207,0.026573,-0.009163,-24.12,1.62,18.18
3.7456,-0.31327,-9.0848,-0.025962,0.029627,-0.014966,-24.12,1.62,18.24
3.7728,-0.32689,-9.0848,-0.030543,0.028711,-0.0048869,-24.12,1.68,18.24
3.8682,-0.34051,-9.112,-0.026267,0.022602,0.0027489,-24.12,1.74,18.12
3.909,-0.47671,-9.0167,-0.032987,0.010079,0.009163,-24.12,1.86,18.12
3.9363,-0.46309,-9.112,-0.037874,-0.0054978,0.015882,-24.12,1.74,18.12
3.8682,-0.40861,-9.0848,-0.036041,-0.02474,0.028405,-24.3,1.8,18.06
3.8682,-0.40861,-9.0303,-0.022297,-0.037874,0.038179,-24.18,1.8,18.06
3.8273,-0.38137,-9.0575,-0.043066,-0.042455,0.045815,-24.18,1.86,18.0
3.8001,-0.40861,-8.9894,-0.033903,-0.038179,0.044593,-24.12,1.8,17.94
3.7456,-0.31327,-9.1665,-0.036041,-0.027489,0.031154,-24.06,1.68,17.88
3.7456,-0.31327,-9.0848,-0.032376,-0.022297,0.031154,-24.12,1.74,17.88
3.7184,-0.27241,-9.1256,-0.035125,-0.018937,0.027184,-24.18,1.74,17.88
3.7456,-0.35413,-9.0439,-0.037568,-0.010996,0.023824,-24.12,1.68,17.88
3.7728,-0.35413,-9.1256,-0.027489,-0.0027489,0.019242,-23.88,1.44,17.82
3.7456,-0.38137,-9.0575,-0.031154,-0.0024435,0.019242,-23.88,1.38,17.82
3.8409,-0.40861,-9.0712,-0.039401,0.0048869,0.025351,-23.76,1.44,18.06
3.8954,-0.42223,-9.0439,-0.036957,0.0018326,0.019242,-23.82,1.44,18.18
3.7728,-0.40861,-9.0575,-0.039706,-0.000916,0.021686,-23.76,1.32,18.18
3.8001,-0.35413,-9.0712,-0.042761,0.002138,0.020769,-23.88,1.38,18.24
3.8273,-0.35413,-9.0984,-0.031765,-0.0033598,0.019853,-24.0,1.56,18.24
3.7728,-0.40861,-9.112,-0.037874,0.000305,0.015577,-24.06,1.68,18.24
3.7865,-0.36775,-9.1256,-0.027489,0.02138,0.007025,-24.18,1.74,18.24
3.8954,-0.35413,-9.1256,-0.034208,0.0018326,0.0082467,-24.12,1.68,18.18
3.8954,-0.35413,-9.1256,-0.034208,0.0018326,0.0082467,-24.12,1.68,18.18
3.8273,-0.34051,-9.1256,-0.035736,0.000305,0.01069,-24.06,1.68,18.18
3.8001,-0.40861,-9.112,-0.032681,0.011606,0.007025,-24.12,1.68,18.12
3.7865,-0.39499,-9.112,-0.038179,0.029322,0.0033598,-24.06,1.86,18.3
3.7865,-0.38137,-9.0167,-0.028405,0.033598,-0.0039706,-24.18,1.92,18.12
3.8682,-0.42223,-9.0848,-0.026267,0.028711,-0.0027489,-24.12,1.86,18.06
3.8682,-0.40861,-9.0031,-0.035736,0.017715,-0.0027489,-24.06,1.98,17.94
3.8273,-0.40861,-9.0575,-0.032376,0.010996,0.0076358,-24.06,1.86,18.06
3.9227,-0.46309,-9.112,-0.033598,-0.014355,0.018326,-24.0,1.86,17.94
3.8682,-0.42223,-9.0712,-0.041233,-0.028711,0.023213,-23.82,1.5,17.94
3.8137,-0.43585,-9.0575,-0.037874,-0.031765,0.027489,-23.88,1.5,18.0
3.8273,-0.35413,-9.0031,-0.034819,-0.023824,0.019548,-23.82,1.5,17.82
3.8273,-0.31327,-9.1393,-0.03207,-0.022602,0.018631,-23.82,1.5,17.88
3.8001,-0.31327,-9.1256,-0.026573,-0.015577,0.013439,-23.88,1.56,17.88
3.7728,-0.28603,-9.1801,-0.031765,-0.012828,0.016799,-24.0,1.56,17.94
3.732,-0.24517,-9.1256,-0.034514,-0.0033598,0.013134,-23.88,1.26,17.94
3.7728,-0.31327,-9.112,-0.027489,0.0033598,0.014966,-23.88,1.38,17.94
3.8409,-0.31327,-9.0439,-0.033598,0.0030543,0.013744,-23.94,1.38,17.94
3.8273,-0.35413,-9.0848,-0.030543,0.0012217,0.015577,-23.82,1.26,18.12
3.8137,-0.40861,-9.1393,-0.035125,-0.0042761,0.013439,-23.88,1.38,18.12
3.8409,-0.39499,-9.1529,-0.027489,-0.0058032,0.020464,-23.94,1.32,18.24
3.8409,-0.44947,-9.0848,-0.030849,-0.0088575,0.021991,-24.0,1.38,18.24
3.8001,-0.40861,-9.0712,-0.03146,-0.012523,0.023518,-23.94,1.38,18.12
3.732,-0.44947,-9.0848,-0.030849,-0.013134,0.015882,-23.64,1.32,17.94
3.7865,-0.35413,-9.1529,-0.029932,-0.0073304,0.014355,-23.7,1.38,18.0
3.8001,-0.35413,-9.112,-0.033292,-0.0067195,0.0094684,-23.7,1.26,17.94
3.732,-0.34051,-9.0848,-0.026573,-0.0039706,0.011912,-23.7,1.38,18.0
3.7728,-0.39499,-9.0984,-0.032681,-0.0033598,0.013439,-23.7,1.5,17.82
3.7728,-0.38137,-9.1529,-0.025045,-0.000305,0.013134,-23.52,1.44,17.7
3.8001,-0.36775,-9.1393,-0.034514,0.0061087,0.0094684,-23.64,1.62,17.7
3.7592,-0.43585,-9.0984,-0.031765,0.015272,0.011301,-23.64,1.62,17.76
3.8682,-0.40861,-9.0712,-0.030238,0.012217,0.016493,-23.52,1.68,17.7
3.8001,-0.38137,-9.1256,-0.035125,0.014966,0.0045815,-23.46,1.68,17.82
3.8682,-0.35413,-9.0848,-0.036041,0.015882,0.011301,-23.46,1.98,17.82
3.8001,-0.40861,-9.0439,-0.034819,0.01741,0.0054978,-23.4,2.04,17.94
3.8954,-0.35413,-9.112,-0.03879,0.017715,0.011606,-23.46,2.1,18.12
3.8273,-0.29965,-9.0575,-0.030849,0.015882,0.0015272,-23.52,2.1,18.18
3.8273,-0.35413,-9.0575,-0.029932,0.01405,0.0048869,-23.46,2.28,18.3
3.8682,-0.40861,-9.0439,-0.029322,0.012217,0.0045815,-23.46,2.46,18.12
3.8682,-0.31327,-9.0848,-0.029016,0.0097738,0.010996,-23.64,2.64,18.3
3.8001,-0.44947,-9.0848,-0.03146,0.000916,0.012828,-23.7,2.52,18.42
3.8273,-0.44947,-9.1529,-0.048869,0.0033598,0.02138,-23.82,2.4,18.42
3.8409,-0.44947,-9.0303,-0.03543,-0.0061087,0.018937,-23.7,2.28,18.36
3.8273,-0.40861,-9.0712,-0.03146,-0.025351,0.025045,-23.82,2.16,18.48
3.8001,-0.43585,-9.112,-0.027184,-0.025045,0.020464,-23.82,2.04,18.36
3.8137,-0.42223,-9.0848,-0.040623,-0.0045815,0.023213,-23.76,1.92,18.36
3.7728,-0.38137,-9.1256,-0.034819,-0.010996,0.022297,-24.0,1.68,18.24
3.7865,-0.34051,-8.9486,-0.034514,-0.018326,0.023213,-24.06,1.8,18.06
3.6911,-0.34051,-9.0848,-0.032987,-0.021686,0.026573,-24.06,1.62,18.06
3.732,-0.36775,-8.9758,-0.031154,-0.0036652,0.01741,-24.06,1.56,18.06
3.8001,-0.36775,-9.1256,-0.038485,-0.000305,0.011606,-24.06,1.5,18.3
3.8001,-0.34051,-9.1665,-0.03146,-0.000916,0.009163,-24.06,1.38,18.3
3.8546,-0.40861,-9.1801,-0.030238,0.0036652,0.013134,-24.06,1.26,18.3
3.7865,-0.36775,-9.0303,-0.035125,0.0012217,0.0067195,-23.94,1.44,18.3
3.7592,-0.34051,-9.0712,-0.036957,0.0015272,0.013744,-23.94,1.38,18.3
3.8546,-0.38137,-9.0848,-0.032376,0.0027489,0.016799,-24.06,1.44,18.12
3.8137,-0.31327,-9.1256,-0.035125,-0.000611,0.018326,-24.18,1.56,18.18
3.8409,-0.34051,-9.0439,-0.035125,-0.0030543,0.014355,-24.12,1.56,18.24
3.7865,-0.36775,-9.0303,-0.036041,0.0039706,0.011912,-23.94,1.56,18.42
3.7865,-0.36775,-9.1801,-0.032681,-0.0061087,0.018631,-23.88,1.62,18.48
3.7592,-0.38137,-9.0712,-0.023824,0.000305,0.018631,-23.82,1.8,18.36
3.7728,-0.38137,-9.0848,-0.028405,-0.000916,0.016493,-23.82,1.86,18.42
3.7865,-0.35413,-9.0575,-0.025656,0.012217,0.01405,-23.58,1.74,18.3
3.7865,-0.42223,-9.0848,-0.036346,0.0067195,0.014966,-23.52,1.86,18.18
3.7047,-0.44947,-9.0575,-0.036652,0.0097738,0.020769,-23.52,1.92,18.12
3.8001,-0.36775,-9.0848,-0.030238,0.010385,0.021075,-23.58,1.86,18.12
3.8001,-0.44947,-9.0167,-0.029627,0.014355,0.013134,-23.58,1.92,18.06
3.8137,-0.34051,-9.112,-0.033598,0.01405,0.018937,-23.52,1.8,18.0
3.8001,-0.38137,-9.0848,-0.030543,0.016493,0.010385,-23.4,1.8,18.12
3.8001,-0.34051,-9.1393,-0.035736,0.018326,0.0073304,-23.58,1.86,18.0
3.8001,-0.43585,-9.0848,-0.032376,0.014966,0.014661,-23.7,1.74,17.88
3.8682,-0.40861,-9.1393,-0.039706,0.018631,0.011606,-23.58,1.56,17.94
3.8682,-0.32689,-9.0712,-0.037263,0.0051924,0.018631,-23.64,1.44,18.06
3.8954,-0.38137,-9.0848,-0.036346,0.0015272,0.015272,-23.7,1.44,18.06
3.9227,-0.36775,-9.0848,-0.039095,-0.000611,0.019242,-23.82,1.5,18.12
3.8954,-0.46309,-9.0848,-0.034514,-0.0094684,0.015577,-23.88,1.38,18.12
3.8137,-0.44947,-9.1665,-0.039095,-0.014966,0.025045,-23.88,1.2,18.18
3.8001,-0.43585,-9.1256,-0.035125,-0.018326,0.02474,-23.94,1.2,18.18
3.7865,-0.38137,-9.0712,-0.033903,-0.021075,0.027184,-23.94,1.32,18.18
3.7728,-0.38137,-9.1393,-0.034819,-0.018326,0.026267,-23.88,1.32,18.3
3.732,-0.40861,-9.1529,-0.037263,-0.019548,0.019853,-23.88,1.32,18.24
3.732,-0.34051,-9.1665,-0.034819,-0.012523,0.030238,-23.76,1.32,18.24
3.7728,-0.34051,-9.0712,-0.031154,-0.010385,0.014966,-23.76,1.68,18.24
3.7728,-0.29965,-9.0848,-0.033903,-0.0064141,0.013744,-23.76,1.74,18.24
3.7865,-0.35413,-9.0575,-0.03207,0.0024435,0.014355,-23.88,1.8,18.0
3.7728,-0.40861,-9.1393,-0.029322,0.0058032,0.0088575,-23.94,1.92,18.06
3.7592,-0.39499,-9.0575,-0.034819,0.0085521,0.01069,-24.0,1.92,18.0
3.8682,-0.40861,-9.0848,-0.038179,0.018326,0.015882,-24.06,2.04,18.12
3.8682,-0.39499,-9.1256,-0.039401,0.0045815,0.014966,-24.0,2.22,18.0
3.7592,-0.34051,-9.0712,-0.033903,-0.0088575,0.0094684,-23.94,2.22,17.94
3.7184,-0.38137,-9.0712,-0.031765,-0.000611,0.010996,-23.88,2.04,17.88
3.8273,-0.38137,-9.0848,-0.036346,0.025962,0.011912,-23.94,2.1,17.82
3.9227,-0.36775,-8.9894,-0.044899,0.01741,0.018631,-24.0,2.1,17.76
3.8409,-0.39499,-8.9758,-0.039401,0.0012217,0.015882,-24.0,2.1,17.88
3.8137,-0.38137,-9.0031,-0.031765,-0.012217,0.016799,-24.06,1.98,17.88
3.7456,-0.36775,-9.1529,-0.031154,0.0015272,0.020769,-24.06,1.86,17.94
3.732,-0.32689,-9.0984,-0.040928,0.011912,0.0082467,-24.06,1.86,17.82
3.7184,-0.35413,-9.0848,-0.040317,0.022297,0.0064141,-24.3,1.8,18.12
3.8546,-0.34051,-9.0984,-0.033598,0.025045,0.0076358,-24.3,1.86,18.12
3.8273,-0.35413,-9.0031,-0.04215,0.023518,0.0024435,-24.3,1.74,18.12
3.8682,-0.31327,-9.0575,-0.032681,0.019853,0.009163,-24.24,1.8,18.3
3.8682,-0.38137,-9.0575,-0.032987,0.012523,0.0085521,-24.3,1.74,18.24
3.8137,-0.38137,-9.1665,-0.031765,0.0076358,0.015272,-24.48,1.74,18.24
3.8818,-0.35413,-9.0712,-0.025656,-0.0012217,0.010385,-24.36,1.68,18.42
3.8818,-0.47671,-9.0575,-0.032681,-0.002138,0.014661,-24.42,1.68,18.54
3.8273,-0.39499,-9.0712,-0.030849,-0.013744,0.013744,-24.3,1.62,18.6
3.8682,-0.38137,-9.0575,-0.038179,-0.020464,0.022297,-24.18,1.74,18.6
3.8273,-0.40861,-9.0303,-0.034514,-0.022907,0.022297,-24.42,1.86,18.48
3.7728,-0.40861,-9.0848,-0.034208,-0.01741,0.016188,-24.36,1.8,18.48
3.8273,-0.38137,-9.0575,-0.033903,-0.014355,0.02474,-24.42,1.92,18.54
3.7865,-0.38137,-9.1256,-0.027184,-0.015882,0.011301,-24.18,1.8,18.48
3.8137,-0.35413,-9.1256,-0.032681,-0.010385,0.022907,-24.06,1.86,18.48
3.8001,-0.36775,-9.0303,-0.031154,-0.0079412,0.015882,-24.06,1.86,18.36
3.7456,-0.35413,-9.112,-0.03146,-0.0058032,0.018937,-24.0,1.8,18.48
3.8001,-0.40861,-9.112,-0.028711,-0.0015272,0.010996,-23.88,1.8,18.6
3.8682,-0.38137,-9.0848,-0.023824,-0.0033598,0.011301,-23.88,1.98,18.48
3.8818,-0.34051,-9.0575,-0.024435,-0.0027489,0.013744,-23.76,2.04,18.36
3.8137,-0.35413,-9.0848,-0.025962,-0.0073304,0.01405,-23.88,1.98,18.3
3.8273,-0.36775,-8.9894,-0.029627,-0.000916,0.010996,-23.94,1.8,18.24
3.8137,-0.32689,-9.0439,-0.025962,-0.002138,0.012523,-23.76,1.74,18.42
3.8001,-0.36775,-9.0848,-0.03207,-0.000305,0.01069,-23.76,1.68,18.54
3.8137,-0.35413,-8.9486,-0.029627,-0.0012217,0.012217,-23.82,1.5,18.6
3.7728,-0.38137,-9.0167,-0.032376,0.0085521,0.009163,-23.94,1.5,18.48
3.7728,-0.36775,-9.0575,-0.032987,0.015272,0.0045815,-24.0,1.56,18.42
3.7456,-0.38137,-9.1393,-0.036957,0.018021,0.007025,-24.12,1.56,18.6
3.7865,-0.38137,-9.0984,-0.024129,0.024435,0.000916,-24.24,1.62,18.48
3.7728,-0.36775,-9.1256,-0.035736,0.032681,0.0033598,-24.3,1.62,18.48
3.8409,-0.39499,-9.0984,-0.031765,0.033598,0.0015272,-24.24,1.56,18.42
3.9771,-0.40861,-9.1256,-0.024435,0.000611,0.0039706,-24.3,1.38,18.36
3.8954,-0.40861,-9.0439,-0.026267,0.000305,0.011912,-24.24,1.38,18.36
3.8954,-0.44947,-9.0303,-0.033903,-0.0058032,0.013439,-24.3,1.5,18.48
3.8409,-0.40861,-8.9758,-0.029322,-0.011301,0.021991,-24.3,1.56,18.42
3.8273,-0.38137,-9.0575,-0.032681,-0.024129,0.021991,-24.48,1.68,18.36
3.8137,-0.47671,-9.0439,-0.03207,-0.014661,0.019242,-24.42,1.74,18.3
3.8954,-0.38137,-9.0848,-0.040623,0.002138,0.016799,-24.24,1.8,18.18
3.9771,-0.44947,-8.9894,-0.030849,-0.01741,0.015272,-24.3,1.62,18.12
3.7592,-0.35413,-9.1256,-0.026878,-0.029322,0.018326,-24.18,1.68,18.12
3.7047,-0.35413,-9.112,-0.03207,-0.019853,0.023213,-24.18,1.8,18.12
3.7728,-0.36775,-9.1256,-0.028711,-0.010079,0.013744,-24.12,1.98,18.18
3.7728,-0.36775,-9.1393,-0.037263,0.002138,0.01405,-24.24,2.04,18.42
3.8546,-0.34051,-9.0848,-0.035125,0.0076358,0.0088575,-24.12,2.1,18.66
3.8546,-0.34051,-9.0848,-0.027794,0.000916,0.016188,-24.12,2.1,18.66
3.8818,-0.34051,-9.0167,-0.032987,0.0045815,0.0079412,-24.18,2.16,18.6
3.8001,-0.44947,-9.1937,-0.039706,0.0033598,0.014661,-23.94,2.04,18.42
3.8818,-0.38137,-9.0984,-0.03146,0.0018326,0.011301,-23.82,1.98,18.36
3.8409,-0.38137,-9.112,-0.036346,-0.000305,0.0088575,-23.76,1.92,18.48
3.8682,-0.38137,-9.0984,-0.034208,0.0033598,0.010079,-23.82,1.86,18.42
3.8818,-0.31327,-9.0575,-0.036346,0.0054978,0.01741,-23.76,1.92,18.42
3.8001,-0.31327,-9.0848,-0.030543,-0.0064141,0.0048869,-23.7,1.92,18.36
3.7456,-0.42223,-9.0303,-0.030543,-0.0030543,0.0097738,-23.76,1.86,18.42
3.7865,-0.35413,-9.0575,-0.033598,0.0036652,0.010079,-23.82,1.74,18.42
3.8137,-0.40861,-9.1256,-0.026878,0.016188,0.0085521,-23.76,1.68,18.18
3.8682,-0.36775,-9.0031,-0.034819,0.018937,0.0024435,-23.76,1.62,18.0
3.8409,-0.31327,-9.0575,-0.034208,0.019853,0.0036652,-23.76,1.68,18.0
3.8001,-0.38137,-9.0848,-0.029932,0.024435,0.000916,-23.88,1.62,18.0
3.8954,-0.38137,-9.0575,-0.029322,0.031765,0.0048869,-23.82,1.62,18.0
3.9635,-0.42223,-9.0712,-0.031154,0.016493,0.0082467,-23.94,1.62,17.82
3.909,-0.42223,-9.0575,-0.026878,-0.016188,0.018021,-23.94,1.8,17.76
3.7865,-0.42223,-9.0575,-0.030543,-0.026878,0.016799,-23.94,1.8,17.76
3.8273,-0.53119,-9.0031,-0.035736,-0.027184,0.025351,-23.94,1.92,17.88
3.8818,-0.46309,-9.0439,-0.03146,-0.025351,0.025962,-24.0,1.98,17.76
3.8818,-0.46309,-9.0439,-0.034208,-0.027794,0.02138,-24.0,1.98,17.76
3.8001,-0.31327,-9.0439,-0.034208,-0.024435,0.029322,-23.88,1.98,17.82
3.7456,-0.31327,-9.1256,-0.036346,-0.020159,0.025045,-23.94,1.92,17.76
3.6911,-0.29965,-9.2482,-0.021686,-0.012217,0.022907,-23.88,2.04,17.82
3.8001,-0.35413,-9.0575,-0.029627,0.0024435,0.01741,-23.88,2.04,17.7
3.8001,-0.38137,-9.1529,-0.034514,0.0042761,0.0097738,-23.88,1.86,17.7
3.8409,-0.31327,-9.1256,-0.036346,0.0054978,0.0094684,-23.82,1.92,17.7
3.8273,-0.40861,-9.0575,-0.033598,-0.0082467,0.013439,-23.7,1.98,17.88
3.8409,-0.35413,-9.0712,-0.029932,0.0015272,0.0085521,-23.64,2.04,17.94
3.7728,-0.40861,-9.0984,-0.027794,0.014966,0.009163,-23.58,1.92,17.94
3.8001,-0.40861,-9.0303,-0.037874,0.03146,0.0067195,-23.58,2.04,18.0
3.8409,-0.34051,-9.0848,-0.032681,0.029627,-0.0039706,-23.58,1.98,18.0
3.8682,-0.39499,-9.0712,-0.031765,0.023518,0.000305,-23.52,1.92,18.0
3.8546,-0.28603,-8.8941,-0.026573,0.016188,0.007025,-23.58,1.74,18.0
3.9499,-0.43585,-9.0575,-0.035125,0.023824,0.0088575,-23.64,1.86,18.06
3.9635,-0.42223,-9.0031,-0.032376,0.0061087,0.023824,-23.7,1.92,18.12
3.8954,-0.44947,-8.9894,-0.031154,-0.023213,0.027184,-23.7,1.86,18.36
3.8001,-0.40861,-9.0575,-0.037263,-0.023213,0.030543,-23.76,1.92,18.48
3.7865,-0.35413,-9.0712,-0.037874,-0.020464,0.032987,-23.82,1.98,18.42
3.7184,-0.34051,-9.0848,-0.036041,-0.018937,0.025656,-23.94,1.98,18.42
3.7728,-0.35413,-9.0848,-0.034514,-0.021686,0.025656,-24.06,1.92,18.48
3.732,-0.28603,-9.1256,-0.034208,-0.0082467,0.020464,-24.24,1.8,18.54
3.6911,-0.29965,-9.1256,-0.032376,0.012217,0.010996,-24.42,1.56,18.6
3.7456,-0.32689,-9.0712,-0.03879,0.030238,0.0082467,-24.3,1.56,18.66
3.8682,-0.31327,-9.0303,-0.03207,0.029016,0.015882,-24.3,1.68,18.9
3.9771,-0.42223,-8.9349,-0.032987,0.012523,0.01069,-24.3,1.86,18.84
3.8818,-0.39499,-9.0575,-0.03207,0.000611,0.014966,-24.3,1.68,18.84
3.8546,-0.44947,-9.0303,-0.034208,-0.012217,0.020159,-24.3,1.68,18.9
3.8818,-0.49033,-8.9894,-0.035736,-0.015577,0.017104,-24.42,1.68,18.72
3.909,-0.42223,-9.0167,-0.03543,-0.027489,0.024129,-24.3,1.68,18.66
3.8273,-0.36775,-9.0031,-0.035736,-0.020769,0.022602,-24.3,1.68,18.66
3.7728,-0.35413,-8.9622,-0.039401,-0.002138,0.027794,-24.3,1.56,18.6
3.8682,-0.35413,-9.0984,-0.036957,0.000611,0.025656,-24.18,1.62,18.6
3.8273,-0.31327,-9.0575,-0.03146,-0.0012217,0.014661,-24.12,1.74,18.66
3.7184,-0.31327,-9.0712,-0.033292,0.002138,0.0036652,-23.94,1.74,18.48
3.6775,-0.34051,-9.0575,-0.030238,0.03543,0.0012217,-24.18,1.98,18.48
3.7728,-0.34051,-9.1529,-0.032987,0.051007,0.000305,-24.12,1.8,18.36
3.8546,-0.31327,-9.0984,-0.040623,0.034208,0.0024435,-24.06,1.8,18.36
3.9635,-0.39499,-9.0167,-0.034208,0.011912,0.0054978,-24.0,1.74,18.36
3.9227,-0.44947,-9.0303,-0.027794,-0.017715,0.013439,-23.94,1.98,18.18
3.9908,-0.54481,-9.0575,-0.034819,-0.022602,0.025656,-24.0,2.04,18.24
3.9227,-0.55843,-9.0575,-0.03543,-0.033903,0.037568,-23.94,1.98,18.18
3.8682,-0.40861,-9.0712,-0.037263,-0.039401,0.036041,-24.0,1.98,18.18
3.8137,-0.32689,-9.0303,-0.034819,-0.035125,0.036041,-23.88,2.1,18.18
3.732,-0.28603,-9.0848,-0.033903,-0.023824,0.022602,-23.94,2.1,18.12
3.7184,-0.21793,-9.1256,-0.02474,-0.017104,0.002138,-23.82,2.34,18.06
3.6639,-0.24517,-9.1529,-0.025045,0.0073304,-0.0027489,-23.76,2.34,18.12
3.7728,-0.34051,-9.0984,-0.025962,0.01405,0.000916,-23.7,2.22,18.12
3.8001,-0.40861,-8.9622,-0.029932,0.025351,0.0027489,-23.76,2.16,18.12
3.8546,-0.40861,-9.0712,-0.037263,0.016188,0.0048869,-23.7,2.22,18.12
3.8954,-0.44947,-9.0575,-0.03146,0.0018326,0.01741,-23.64,2.34,18.06
3.8546,-0.43585,-9.0712,-0.029932,-0.0058032,0.016799,-23.76,2.16,18.18
3.8546,-0.39499,-9.0575,-0.032681,-0.0012217,0.016493,-23.58,2.16,18.12
3.8137,-0.38137,-9.0848,-0.029932,0.0058032,0.019853,-23.52,2.1,18.06
3.9363,-0.35413,-9.1256,-0.029932,0.020769,0.014355,-23.7,2.04,18.12
3.8954,-0.35413,-9.0439,-0.037263,0.020159,0.015882,-23.7,1.92,18.3
3.8682,-0.35413,-9.0439,-0.028711,-0.012217,0.0097738,-23.7,1.98,18.24
3.8001,-0.28603,-9.1256,-0.031154,-0.0097738,0.0088575,-23.94,1.74,18.24
3.7728,-0.31327,-9.1665,-0.025962,0.002138,0.013134,-24.06,1.8,18.24
3.8546,-0.35413,-9.0984,-0.036041,0.0054978,0.0097738,-24.06,1.74,18.12
3.8409,-0.38137,-9.0167,-0.031154,0.009163,0.010996,-24.18,1.8,17.94
3.8273,-0.44947,-9.0575,-0.032376,0.007025,0.009163,-24.18,1.68,17.88
3.7728,-0.40861,-9.0303,-0.035125,0.0018326,0.015577,-24.18,1.56,17.94
3.8682,-0.47671,-9.1801,-0.03146,0.000611,0.014661,-24.12,1.44,18.0
3.8546,-0.44947,-9.0712,-0.032376,-0.000305,0.02138,-24.3,1.32,18.06
3.8954,-0.40861,-9.0848,-0.030543,-0.007025,0.018631,-24.3,1.38,18.12
3.8682,-0.34051,-9.0303,-0.040623,-0.0061087,0.018937,-24.12,1.56,18.24
3.8001,-0.32689,-9.0575,-0.028405,-0.0088575,0.012828,-24.12,1.62,18.12
3.7728,-0.31327,-9.0848,-0.033598,-0.0033598,0.014661,-24.12,1.44,18.3
3.7865,-0.43585,-9.1256,-0.028711,0.000916,0.011912,-23.94,1.5,18.24
3.7865,-0.38137,-9.0848,-0.039095,0.0024435,0.013134,-23.82,1.5,18.12
3.8273,-0.40861,-9.0848,-0.025351,0.0045815,0.0094684,-23.7,1.5,18.18
3.7728,-0.40861,-9.1801,-0.033292,-0.000611,0.010996,-23.64,1.56,18.24
3.8137,-0.40861,-9.0439,-0.031765,-0.0012217,0.015272,-23.64,1.68,18.3
3.8954,-0.38137,-9.0575,-0.036041,-0.0045815,0.018937,-23.7,1.8,18.3
3.9635,-0.43585,-9.0575,-0.031154,-0.0054978,0.017715,-23.76,1.74,18.18
3.8546,-0.40861,-9.0848,-0.036957,-0.0012217,0.021686,-23.58,1.92,18.3
3.8001,-0.35413,-9.0439,-0.030543,-0.0042761,0.020159,-23.58,1.8,18.24
3.8409,-0.35413,-9.0848,-0.026878,0.000611,0.013744,-23.64,1.74,18.06
3.8954,-0.31327,-9.1529,-0.028711,-0.0042761,0.018021,-23.58,1.62,18.06
3.8409,-0.36775,-9.0984,-0.034819,-0.002138,0.007025,-23.76,1.62,18.0
3.8546,-0.40861,-9.0848,-0.033292,-0.0048869,0.010996,-23.94,1.68,18.06
3.7728,-0.36775,-9.0303,-0.031765,-0.0018326,0.010079,-24.0,1.62,18.18
3.7728,-0.36775,-9.1529,-0.031154,-0.0015272,0.016799,-23.94,1.56,18.12
3.7865,-0.44947,-9.0439,-0.032987,-0.0027489,0.010385,-24.06,1.62,18.18
3.8273,-0.43585,-9.0712,-0.035736,-0.0045815,0.014355,-24.06,1.56,18.24
3.7728,-0.40861,-9.0575,-0.032681,0.0018326,0.016493,-24.06,1.74,18.18
3.8818,-0.42223,-8.9758,-0.019853,-0.0061087,0.0097738,-24.0,1.68,18.3
3.8273,-0.38137,-9.0439,-0.034514,-0.000305,0.017715,-24.06,1.56,18.24
3.8409,-0.32689,-9.0303,-0.0281,-0.0067195,0.012217,-24.24,1.68,18.18
3.8682,-0.36775,-9.0575,-0.021686,-0.0051924,0.012217,-24.3,1.5,18.3
3.8001,-0.38137,-9.0031,-0.026267,-0.0061087,0.012523,-24.36,1.5,18.36
3.8001,-0.43585,-9.0712,-0.030543,0.000305,0.018631,-24.18,1.38,18.24
3.8682,-0.35413,-9.0712,-0.029016,0.000916,0.014661,-24.06,1.32,18.3
3.7728,-0.36775,-9.0575,-0.023824,-0.0030543,0.0094684,-24.18,1.44,18.18
3.8137,-0.35413,-9.2074,-0.035736,0.0058032,0.016799,-24.24,1.44,18.36
3.8682,-0.40861,-9.0848,-0.039095,0.01405,0.019242,-24.3,1.44,18.42
3.9227,-0.39499,-9.1256,-0.037263,0.011301,0.012523,-24.3,1.56,18.3
3.8546,-0.35413,-9.112,-0.032681,-0.0033598,0.016493,-24.3,1.56,18.48
3.8273,-0.43585,-9.0167,-0.030543,-0.0073304,0.025962,-24.3,1.26,18.66
3.8273,-0.40861,-9.0303,-0.036041,-0.0051924,0.012217,-24.36,1.32,18.54
3.8682,-0.40861,-9.1529,-0.036346,-0.000916,0.016799,-24.18,1.38,18.6
3.8682,-0.35413,-9.0848,-0.034208,0.002138,0.014355,-24.18,1.56,18.42
3.7728,-0.35413,-9.0984,-0.029932,-0.0024435,0.014966,-24.18,1.56,18.42
3.7728,-0.19068,-9.1393,-0.025351,-0.000305,0.013439,-24.18,1.68,18.48
3.8001,-0.35413,-9.1256,-0.036346,0.0067195,0.016799,-24.24,1.62,18.3
3.8001,-0.38137,-9.0439,-0.032681,0.0042761,0.021991,-24.12,1.56,18.36
3.7865,-0.35413,-9.0848,-0.033292,0.002138,0.014966,-24.24,1.62,18.48
3.8273,-0.36775,-9.0712,-0.040012,-0.0051924,0.018937,-24.12,1.62,18.3
3.8273,-0.42223,-9.0848,-0.029322,-0.000611,0.016493,-24.06,1.32,18.3
3.8682,-0.38137,-9.0575,-0.035125,0.000305,0.018937,-24.0,1.32,18.24
3.7728,-0.43585,-9.0712,-0.043371,-0.0012217,0.022297,-23.88,1.38,18.06
3.7592,-0.38137,-9.0303,-0.032681,-0.0061087,0.017715,-23.82,1.38,18.06
3.8137,-0.35413,-8.9213,-0.0281,0.0012217,0.015577,-23.88,1.26,18.0
3.8682,-0.36775,-9.1256,-0.033598,0.0015272,0.015577,-23.64,1.44,17.94
3.8682,-0.34051,-9.0031,-0.032681,-0.0027489,0.010079,-23.64,1.44,17.88
3.8273,-0.34051,-9.0575,-0.033598,-0.0015272,0.013744,-23.64,1.44,18.0
3.8273,-0.35413,-9.0575,-0.035736,-0.0012217,0.011912,-23.64,1.5,18.12
3.8001,-0.42223,-9.1393,-0.033598,-0.0015272,0.015577,-23.7,1.44,18.0
3.8137,-0.35413,-9.1665,-0.03207,-0.0012217,0.021686,-23.52,1.38,17.82
3.8954,-0.39499,-9.112,-0.036346,0.0054978,0.015272,-23.58,1.26,17.94
3.8273,-0.35413,-9.0303,-0.027489,-0.000916,0.012217,-23.64,1.38,18.0
3.8273,-0.38137,-9.0303,-0.036957,-0.0039706,0.018326,-23.64,1.44,17.88
3.8001,-0.44947,-9.0848,-0.030543,-0.0015272,0.013744,-23.64,1.44,18.06
3.8001,-0.32689,-9.0575,-0.040012,-0.0024435,0.024435,-23.88,1.62,18.06
3.8137,-0.40861,-9.0712,-0.034514,-0.0027489,0.012828,-23.94,1.56,18.18
3.8137,-0.36775,-9.0575,-0.035125,0.000305,0.016493,-23.88,1.32,18.18
3.8001,-0.38137,-9.1529,-0.03207,-0.0033598,0.018631,-23.7,1.44,18.18
3.9635,-0.38137,-9.1256,-0.033903,-0.000611,0.019853,-23.82,1.44,18.12
3.7865,-0.36775,-9.0848,-0.034208,-0.0042761,0.019242,-23.76,1.44,18.06
3.8409,-0.42223,-9.0575,-0.034208,-0.0088575,0.014355,-23.76,1.56,18.18
3.8954,-0.40861,-9.0575,-0.0281,-0.0051924,0.016493,-23.76,1.56,18.12
3.7728,-0.39499,-9.0848,-0.033903,0.000611,0.01741,-23.88,1.8,18.12
3.8001,-0.35413,-9.1256,-0.023518,-0.0048869,0.016188,-23.88,1.92,18.06
3.7865,-0.38137,-9.0575,-0.032681,-0.002138,0.018937,-24.12,1.8,18.12
3.8137,-0.32689,-9.0167,-0.034208,0.000611,0.016799,-24.12,1.98,17.94
3.8682,-0.39499,-8.9758,-0.027794,0.0015272,0.0085521,-24.06,1.8,17.82
3.9227,-0.39499,-9.0575,-0.035125,-0.0018326,0.020159,-24.0,1.8,17.82
3.8273,-0.39499,-9.0439,-0.027184,0.000611,0.015882,-24.18,1.8,17.82
3.6775,-0.35413,-9.0848,-0.028711,-0.000305,0.023518,-24.18,1.74,17.94
3.7865,-0.34051,-9.1256,-0.031765,-0.0064141,0.013134,-24.36,1.8,18.0
3.732,-0.28603,-9.0575,-0.035736,-0.0018326,0.016188,-24.24,1.86,18.0
3.7865,-0.40861,-9.0303,-0.031154,0.0073304,0.017104,-24.18,1.8,18.06
3.9363,-0.44947,-9.0848,-0.039095,0.020159,0.019853,-24.3,1.74,18.12
3.9227,-0.38137,-9.0303,-0.035736,-0.0024435,0.022907,-24.12,1.62,18.12
3.8001,-0.28603,-9.0575,-0.029322,-0.012217,0.012523,-23.88,1.5,18.06
3.8273,-0.34051,-9.1529,-0.027794,-0.0088575,0.013134,-23.7,1.5,18.0
3.7728,-0.35413,-9.0439,-0.033903,0.0030543,0.015577,-23.76,1.44,18.18
3.8273,-0.38137,-9.0575,-0.032681,0.0085521,0.012828,-23.7,1.68,18.36
3.8273,-0.35413,-9.1256,-0.037874,0.0076358,0.0094684,-23.52,1.8,18.24
3.7728,-0.38137,-9.1937,-0.034514,0.0058032,0.012523,-23.58,1.92,18.3
3.8682,-0.39499,-9.0439,-0.029322,-0.0051924,0.017104,-23.76,1.86,18.24
3.8546,-0.36775,-8.9894,-0.031154,-0.0051924,0.014966,-23.52,1.86,18.24
3.8409,-0.40861,-9.0303,-0.028405,-0.0082467,0.01741,-23.64,1.62,18.06
3.8137,-0.39499,-9.0575,-0.030543,-0.0051924,0.01741,-23.58,1.62,18.0
3.7728,-0.36775,-9.0439,-0.029322,0.0030543,0.013439,-23.58,1.74,18.0
3.8137,-0.35413,-9.0848,-0.037263,0.0082467,0.016799,-23.64,1.68,18.0
3.7865,-0.38137,-9.0848,-0.031154,0.0012217,0.013134,-23.64,1.68,17.94
3.8001,-0.40861,-9.1529,-0.028405,-0.000916,0.015272,-23.64,1.8,17.94
3.8137,-0.38137,-9.0848,-0.031765,-0.0018326,0.013744,-23.64,1.8,17.88
3.8954,-0.35413,-9.0575,-0.031765,-0.000305,0.013744,-23.46,1.74,17.64
3.8001,-0.38137,-9.0575,-0.031154,0.0012217,0.017104,-23.46,1.8,17.7
3.8818,-0.40861,-9.0848,-0.0281,-0.0048869,0.012217,-23.4,1.8,17.82
3.909,-0.35413,-9.0167,-0.032376,-0.0024435,0.011912,-23.46,1.92,18.06
3.8682,-0.38137,-9.0439,-0.028711,-0.0030543,0.012828,-23.46,1.86,18.0
3.8137,-0.35413,-9.0848,-0.0281,-0.0036652,0.015272,-23.52,1.86,17.88
3.7592,-0.40861,-9.0575,-0.030849,0.0024435,0.0027489,-23.64,2.1,18.06
3.7865,-0.39499,-9.0712,-0.037568,0.0018326,0.01405,-23.7,2.1,18.06
3.7728,-0.39499,-9.1256,-0.032681,0.0018326,0.014966,-23.76,1.8,17.94
3.7865,-0.35413,-9.0848,-0.029322,0.0030543,0.014966,-23.94,1.74,18.06
3.8273,-0.38137,-9.1256,-0.03146,0.0097738,0.012523,-23.94,1.68,17.94
3.8682,-0.40861,-9.0167,-0.028711,0.0073304,0.0067195,-23.94,1.8,18.0
3.8001,-0.38137,-9.0848,-0.027184,0.0048869,0.01069,-23.94,1.86,17.88
3.8682,-0.38137,-9.0031,-0.03543,0.011301,0.0085521,-24.18,1.74,18.06
3.9227,-0.40861,-8.9622,-0.030238,0.0048869,0.012828,-24.06,1.8,18.24
3.8954,-0.42223,-9.0712,-0.034514,-0.0024435,0.015577,-24.06,1.68,18.18
3.8137,-0.44947,-9.0848,-0.027489,-0.014661,0.013439,-24.0,1.5,18.24
3.8001,-0.44947,-9.0575,-0.032376,-0.0018326,0.012217,-24.12,1.44,18.54
3.7865,-0.40861,-9.0303,-0.028711,-0.0039706,0.018326,-24.12,1.5,18.48
3.8546,-0.34051,-9.0984,-0.03207,-0.002138,0.014966,-24.36,1.44,18.42
3.8001,-0.38137,-9.1393,-0.023824,-0.010385,0.012217,-24.18,1.38,18.54
3.8546,-0.34051,-9.0984,-0.027184,-0.010996,0.013744,-24.36,1.32,18.54
3.8273,-0.39499,-9.0984,-0.034819,-0.0048869,0.016799,-24.48,1.14,18.66
3.8818,-0.38137,-9.0984,-0.032987,-0.0042761,0.016188,-24.36,1.2,18.54
3.8001,-0.38137,-9.0575,-0.038179,-0.0061087,0.013744,-24.36,1.14,18.66
3.7865,-0.36775,-9.0031,-0.029322,0.002138,0.011301,-24.42,1.26,18.66
3.7592,-0.40861,-9.0167,-0.030849,-0.0027489,0.012217,-24.3,1.32,18.54
3.7592,-0.38137,-9.1256,-0.030238,0.010079,0.0082467,-24.18,1.44,18.48
3.9635,-0.44947,-9.0167,-0.038485,0.030543,0.0097738,-24.12,1.38,18.54
3.9635,-0.39499,-9.0439,-0.038179,0.011912,0.009163,-24.0,1.44,18.48
3.7865,-0.38137,-8.9758,-0.026267,-0.015577,0.015272,-23.88,1.5,18.48
3.7592,-0.38137,-9.0303,-0.029016,-0.0054978,0.016799,-23.88,1.56,18.36
3.8273,-0.40861,-9.0303,-0.03879,0.010385,0.010385,-23.88,1.62,18.3
3.8954,-0.38137,-8.9349,-0.034208,0.011301,0.0079412,-23.94,1.8,18.18
3.8682,-0.25879,-9.0303,-0.027184,0.009163,0.0064141,-23.88,1.8,18.42
3.8001,-0.27241,-9.0848,-0.030238,0.016493,0.0039706,-23.88,1.8,18.36
3.8137,-0.32689,-9.1393,-0.033598,0.021075,0.000305,-23.82,1.74,18.48
3.8682,-0.40861,-9.112,-0.035125,0.024129,-0.002138,-23.88,1.8,18.42
3.8954,-0.40861,-9.0575,-0.036957,0.024129,0.0064141,-24.0,1.68,18.42
3.8954,-0.42223,-9.0303,-0.034819,0.009163,0.0048869,-24.18,1.56,18.36
3.909,-0.43585,-9.0848,-0.034819,0.0012217,0.014966,-24.18,1.44,18.36
3.9227,-0.47671,-9.1393,-0.036957,-0.01069,0.018326,-23.94,1.56,18.42
3.8546,-0.40861,-9.0303,-0.033903,-0.024129,0.030543,-23.94,1.38,18.36
3.8409,-0.38137,-8.9622,-0.034208,-0.030849,0.029016,-23.88,1.38,18.42
3.8682,-0.44947,-9.0031,-0.035125,-0.031765,0.038179,-23.7,1.38,18.3
3.7865,-0.40861,-9.0848,-0.040317,-0.023518,0.037263,-23.88,1.44,18.24
3.8273,-0.34051,-9.0575,-0.034208,-0.028405,0.030238,-23.82,1.44,18.12
3.7728,-0.35413,-8.9758,-0.031154,-0.025962,0.024435,-23.82,1.5,18.18
3.7047,-0.24517,-9.0848,-0.028405,-0.014355,0.023824,-23.7,1.68,18.24
3.7728,-0.31327,-9.112,-0.037568,-0.0024435,0.022602,-23.58,1.86,18.18
3.7728,-0.35413,-9.0984,-0.037874,0.02138,0.02138,-23.64,1.68,18.3
3.8409,-0.35413,-9.0984,-0.032681,0.016799,0.012523,-23.7,1.86,18.06
3.8001,-0.38137,-9.112,-0.033598,0.022297,0.015272,-23.7,1.8,17.88
3.7865,-0.38137,-9.0439,-0.033292,0.037874,0.000916,-23.88,1.74,18.0
3.8409,-0.40861,-9.0712,-0.036346,0.065057,-0.0045815,-23.88,1.8,17.94
3.8818,-0.36775,-8.9894,-0.035125,0.07025,-0.0097738,-23.88,1.8,18.0
3.8818,-0.38137,-9.0712,-0.036346,0.049786,-0.007025,-23.82,1.92,18.0
3.9635,-0.44947,-8.9213,-0.029932,0.028405,-0.0082467,-23.7,1.8,17.88
3.9635,-0.35413,-9.0303,-0.020464,0.011912,-0.0030543,-23.7,1.86,17.88
3.8954,-0.49033,-9.0712,-0.030849,-0.000305,0.010385,-23.82,1.8,17.94
3.8682,-0.47671,-9.0303,-0.029322,-0.011912,0.019548,-24.0,1.86,18.0
3.9363,-0.38137,-9.0712,-0.028711,-0.016188,0.021075,-23.88,1.74,18.06
3.909,-0.40861,-9.0439,-0.026267,-0.016493,0.022297,-23.76,1.8,18.18
3.8818,-0.34051,-9.0712,-0.03879,-0.025045,0.026267,-23.94,1.92,17.94
3.8137,-0.35413,-9.0167,-0.031154,-0.026878,0.030238,-23.88,1.8,18.12
3.8546,-0.35413,-9.0303,-0.028405,-0.025656,0.027184,-23.82,1.8,18.06
3.8409,-0.36775,-9.0031,-0.032681,-0.018326,0.023213,-23.76,1.68,18.0
3.8273,-0.36775,-9.0984,-0.031154,-0.021075,0.025656,-23.76,1.68,18.12
3.8954,-0.29965,-9.112,-0.030849,-0.018937,0.022907,-23.7,1.62,18.3
3.8954,-0.34051,-9.0575,-0.03146,-0.021686,0.023213,-23.58,1.5,18.42
3.8409,-0.32689,-8.9894,-0.028711,-0.011301,0.018021,-23.46,1.44,18.24
3.8682,-0.40861,-9.1256,-0.033292,-0.011912,0.02474,-23.46,1.38,18.36
3.7728,-0.39499,-9.0712,-0.025962,-0.0082467,0.013439,-23.46,1.32,18.24
3.7865,-0.40861,-9.1256,-0.030849,-0.0045815,0.015272,-23.28,1.26,18.36
3.7592,-0.39499,-9.0303,-0.033903,-0.0033598,0.0082467,-23.58,1.32,18.3
3.8001,-0.34051,-9.112,-0.033903,0.0094684,0.011301,-23.58,1.38,18.24
3.8273,-0.36775,-9.0848,-0.040623,0.02474,0.01405,-23.52,1.2,18.54
3.9363,-0.38137,-9.1529,-0.037263,0.022907,0.0085521,-23.64,1.2,18.3
3.9227,-0.35413,-9.0984,-0.027184,0.0012217,0.010079,-23.46,1.2,18.3
3.8137,-0.38137,-9.0303,-0.032681,0.002138,0.0079412,-23.52,1.26,18.42
3.8273,-0.40861,-9.1665,-0.036652,0.012828,0.0082467,-23.7,1.14,18.3
3.8409,-0.38137,-9.0303,-0.029932,0.018021,0.0058032,-23.7,1.14,18.42
3.8818,-0.35413,-9.0848,-0.037568,0.019853,0.0094684,-23.82,1.2,18.36
3.7865,-0.29965,-9.0303,-0.030543,0.015272,0.0064141,-23.58,1.26,18.36
3.8409,-0.36775,-9.0848,-0.031765,0.016799,0.0064141,-23.46,1.32,18.42
3.8409,-0.40861,-9.0031,-0.023213,0.018326,0.0024435,-23.76,1.32,18.24
3.9227,-0.40861,-9.0303,-0.034514,0.025656,0.01069,-23.76,1.38,18.18
3.9227,-0.42223,-9.0303,-0.039401,0.011912,0.015577,-23.82,1.5,18.24
3.8682,-0.36775,-9.0439,-0.036346,0.009163,0.019548,-23.64,1.62,18.12
3.8409,-0.38137,-9.0303,-0.019853,-0.0085521,0.01741,-23.46,1.8,18.06
3.8546,-0.40861,-9.0848,-0.032987,-0.017104,0.021686,-23.4,1.8,18.06
3.8409,-0.39499,-9.0575,-0.03543,-0.02138,0.02138,-23.46,1.8,18.12
3.8273,-0.39499,-9.0439,-0.035125,-0.018937,0.029016,-23.52,1.74,18.06
3.8273,-0.38137,-9.0167,-0.025962,-0.019242,0.028711,-23.7,1.62,18.0
3.8954,-0.36775,-9.0303,-0.040928,-0.011912,0.026878,-23.64,1.62,18.06
3.8001,-0.38137,-9.0575,-0.035736,-0.010385,0.028405,-23.52,1.68,18.06
3.8546,-0.38137,-9.0439,-0.032987,-0.017104,0.02138,-23.52,1.8,18.06
3.8001,-0.36775,-9.0303,-0.030238,-0.020464,0.029322,-23.52,1.8,18.24
3.8001,-0.34051,-9.1256,-0.031765,-0.0088575,0.025045,-23.64,1.74,18.12
3.8954,-0.44947,-9.0575,-0.03146,-0.0058032,0.017715,-23.64,1.8,18.06
3.8137,-0.40861,-9.0439,-0.032987,-0.0079412,0.021991,-23.34,1.92,17.7
3.8273,-0.36775,-9.0031,-0.03543,-0.0039706,0.018021,-23.52,1.98,17.82
3.8001,-0.38137,-9.0575,-0.040012,-0.0039706,0.020464,-23.46,1.98,17.94
3.9227,-0.34051,-9.0984,-0.033598,-0.0073304,0.022297,-23.52,2.16,17.64
3.8273,-0.40861,-9.0575,-0.030849,-0.0042761,0.01741,-23.46,2.16,17.7
3.7865,-0.39499,-9.0303,-0.032376,-0.0033598,0.015882,-23.46,2.1,17.7
3.7456,-0.40861,-9.0848,-0.034208,0.0018326,0.016799,-23.46,1.98,17.58
3.8273,-0.35413,-9.0575,-0.034514,0.007025,0.0097738,-23.46,1.98,17.64
3.8546,-0.35413,-8.9622,-0.032681,0.007025,0.011912,-23.52,1.98,17.7
3.8682,-0.38137,-9.0848,-0.032987,0.0064141,0.0082467,-23.64,2.1,17.82
3.8409,-0.35413,-9.1256,-0.032376,0.0097738,0.0067195,-23.88,2.04,18.06
3.8682,-0.40861,-9.0848,-0.043371,0.012828,0.011301,-23.82,2.04,18.24
3.8273,-0.43585,-9.0031,-0.032987,0.0073304,0.0097738,-23.64,2.04,18.12
3.8409,-0.39499,-9.1393,-0.034514,0.015577,0.011606,-23.76,2.04,18.0
3.8137,-0.39499,-9.0303,-0.030849,0.011606,0.0079412,-23.64,1.92,18.12
3.8273,-0.42223,-8.8941,-0.035736,0.0030543,0.019548,-23.52,1.92,18.12
3.8682,-0.39499,-9.1256,-0.038179,0.0036652,0.018326,-23.7,1.86,18.3
3.8954,-0.38137,-9.0303,-0.031765,-0.0012217,0.014661,-23.82,1.86,18.24
3.8273,-0.40861,-9.1256,-0.036041,0.000611,0.022297,-23.82,1.98,18.18
3.8682,-0.42223,-9.1529,-0.03207,-0.0088575,0.018631,-23.7,2.04,18.06
3.8273,-0.40861,-9.0031,-0.025045,-0.02138,0.019242,-23.7,1.92,18.0
3.7184,-0.38137,-9.112,-0.029322,-0.01069,0.025045,-23.7,1.8,18.06
3.7184,-0.38137,-9.1256,-0.029932,-0.0079412,0.017104,-23.58,1.86,18.0
3.9635,-0.40861,-9.0575,-0.036041,0.0094684,0.015577,-23.64,1.86,18.06
3.9771,-0.43585,-9.0848,-0.033598,-0.013439,0.022297,-23.64,1.74,18.06
3.8409,-0.40861,-9.0439,-0.030849,-0.019242,0.023213,-23.64,1.68,18.0
3.7047,-0.39499,-9.0848,-0.032681,-0.012523,0.018937,-23.76,1.62,18.06
3.7592,-0.36775,-9.0984,-0.031154,0.0024435,0.009163,-23.82,1.62,17.88
3.8137,-0.35413,-9.0712,-0.029627,0.0082467,0.015272,-23.76,1.8,17.82
3.8001,-0.36775,-9.0712,-0.03146,0.010385,0.014355,-23.88,1.74,18.06
3.8409,-0.39499,-9.0303,-0.034208,0.007025,0.011912,-24.12,1.62,18.12
3.8546,-0.40861,-9.0439,-0.032681,0.0036652,0.010385,-24.06,1.56,18.12
3.8682,-0.38137,-8.9349,-0.037874,-0.0018326,0.016493,-24.3,1.44,18.18
3.8682,-0.38137,-9.0031,-0.030543,-0.0033598,0.0042761,-24.3,1.44,18.18
3.8273,-0.34051,-9.0848,-0.027794,-0.0054978,0.0048869,-24.3,1.32,18.0
3.8273,-0.36775,-9.0303,-0.031765,0.0061087,0.0076358,-24.36,1.38,18.18
3.8137,-0.36775,-9.0031,-0.023213,0.012523,0.0079412,-24.36,1.62,18.12
3.8954,-0.29965,-9.1256,-0.033292,0.0076358,0.015272,-24.24,1.74,18.18
3.8682,-0.39499,-9.0712,-0.036346,-0.0018326,0.013744,-24.36,1.74,18.24
3.8137,-0.35413,-9.0848,-0.029932,0.0036652,0.016188,-24.3,1.86,18.3
3.8137,-0.38137,-9.0575,-0.037263,0.0039706,0.015577,-24.36,1.8,18.3
3.8818,-0.39499,-9.0031,-0.032681,0.0033598,0.014966,-24.12,1.92,18.24
3.8001,-0.42223,-9.0439,-0.033903,-0.0027489,0.016188,-23.88,1.98,18.24
3.909,-0.38137,-9.112,-0.034819,0.000916,0.0085521,-23.94,1.98,18.3
3.8954,-0.40861,-9.0712,-0.030543,-0.0030543,0.018937,-23.88,2.22,18.24
3.8682,-0.31327,-9.0439,-0.034208,-0.0073304,0.015577,-23.88,2.34,18.18
3.8546,-0.34051,-9.0848,-0.038485,-0.009163,0.014966,-23.88,2.4,18.18
3.8273,-0.39499,-9.0303,-0.035736,-0.0076358,0.018021,-23.88,2.46,18.06
3.8409,-0.40861,-9.1256,-0.033903,-0.0018326,0.01069,-23.7,2.34,18.06
3.909,-0.38137,-8.9894,-0.03146,-0.0054978,0.014661,-23.76,2.28,18.0
3.8954,-0.38137,-9.0439,-0.027794,-0.0033598,0.013744,-23.7,2.22,18.0
3.7728,-0.38137,-9.0439,-0.03207,-0.0054978,0.016188,-23.64,2.1,18.06
3.732,-0.35413,-9.0575,-0.03146,0.0036652,0.012523,-23.46,2.04,18.0
3.8001,-0.38137,-9.1393,-0.034819,0.0036652,0.010996,-23.46,1.98,17.94
3.8682,-0.39499,-9.0303,-0.036346,-0.0061087,0.014661,-23.52,1.98,17.94
3.8682,-0.42223,-9.1937,-0.027489,-0.0042761,0.016799,-23.46,1.86,17.76
3.8818,-0.35413,-9.0712,-0.032681,-0.010996,0.018326,-23.52,1.8,17.82
3.909,-0.38137,-9.0712,-0.029932,-0.007025,0.023213,-23.52,1.86,17.7
3.8001,-0.35413,-9.0303,-0.03146,-0.0030543,0.018326,-23.58,1.68,17.94
3.8409,-0.38137,-9.0848,-0.03146,-0.0015272,0.01741,-23.64,1.74,18.06
3.8001,-0.35413,-9.0303,-0.03207,-0.0027489,0.016188,-23.7,1.8,18.06
3.8682,-0.31327,-9.0575,-0.034208,-0.0048869,0.013134,-23.88,1.8,18.18
3.8001,-0.36775,-9.1393,-0.034819,-0.011301,0.020464,-23.94,1.8,18.12
3.8001,-0.31327,-9.0848,-0.029016,-0.012217,0.007025,-23.82,1.92,18.12
3.8682,-0.42223,-9.1937,-0.025045,0.0018326,0.01405,-24.0,2.1,18.18
3.8546,-0.38137,-9.0712,-0.037568,0.015882,0.01405,-23.88,2.04,18.24
3.8954,-0.38137,-9.0575,-0.033292,0.01069,0.011912,-24.0,2.1,18.24
3.8273,-0.40861,-9.112,-0.024129,-0.0085521,0.0076358,-24.24,2.28,18.3
3.8137,-0.35413,-9.0848,-0.0281,-0.0088575,0.0076358,-24.06,2.22,18.18
3.8001,-0.38137,-9.0848,-0.036652,0.0012217,0.0054978,-24.12,2.16,18.3
3.8273,-0.40861,-9.0848,-0.036957,-0.000916,0.014355,-24.18,2.28,18.18
3.8682,-0.36775,-9.112,-0.03543,0.0033598,0.011606,-24.24,2.04,18.18
3.8409,-0.35413,-9.0439,-0.024129,-0.0027489,0.012828,-24.18,2.1,18.06
3.7728,-0.29965,-9.1393,-0.027489,0.0018326,0.0033598,-24.06,2.16,17.94
3.7865,-0.31327,-9.1256,-0.028405,0.0033598,0.0085521,-24.06,1.92,17.94
3.8273,-0.40861,-9.1256,-0.029016,0.0027489,0.0048869,-24.18,2.04,17.82
3.8137,-0.36775,-9.1256,-0.028405,0.011606,0.0018326,-24.18,1.86,17.82
3.8682,-0.42223,-9.1937,-0.030238,0.011301,0.0048869,-24.24,1.86,17.82
3.8818,-0.40861,-8.9622,-0.037568,0.0048869,0.0027489,-24.12,1.62,17.94
3.8409,-0.32689,-9.0984,-0.027489,-0.0061087,-0.0018326,-24.0,1.68,17.82
3.7865,-0.40861,-8.9622,-0.026573,-0.000611,-0.000611,-24.12,1.68,18.06
3.7728,-0.32689,-8.9486,-0.029322,0.0079412,-0.002138,-23.94,1.62,17.94
3.732,-0.35413,-9.1529,-0.027489,0.013439,0.0048869,-23.76,1.62,18.0
3.8001,-0.36775,-9.0303,-0.032681,0.012217,0.0058032,-23.76,1.74,17.94
3.8682,-0.36775,-9.1256,-0.035736,0.01405,0.011606,-23.82,1.68,17.94
3.8273,-0.38137,-9.0712,-0.031154,0.012217,0.012217,-24.0,1.68,18.0
3.8546,-0.38137,-9.0712,-0.029932,0.007025,0.0097738,-23.88,1.86,18.0
3.8273,-0.35413,-8.9758,-0.022907,0.011301,0.0097738,-23.7,1.56,18.06
3.8954,-0.36775,-9.0167,-0.032376,0.0085521,0.016493,-23.76,1.62,17.94
3.8682,-0.31327,-9.1256,-0.030238,0.0067195,0.014966,-23.58,1.56,18.0
3.8818,-0.35413,-9.0848,-0.029627,0.0085521,0.020464,-23.58,1.62,17.94
3.8818,-0.31327,-9.0848,-0.031154,0.0027489,0.020159,-23.7,1.68,17.88
3.8954,-0.38137,-9.112,-0.036041,-0.0051924,0.014355,-23.76,1.74,17.64
3.8273,-0.35413,-9.0848,-0.035125,0.000305,0.017715,-23.88,1.74,17.64
3.8682,-0.31327,-9.0575,-0.031765,0.0012217,0.01741,-24.0,1.98,17.88
3.8137,-0.32689,-9.0575,-0.027794,-0.002138,0.018631,-23.94,1.98,17.94
3.7728,-0.38137,-9.112,-0.030543,-0.0088575,0.01741,-23.82,1.8,17.94
3.7865,-0.46309,-9.0712,-0.027184,0.0036652,0.01069,-23.7,1.74,18.0
3.8682,-0.39499,-9.0848,-0.035125,0.013439,0.013134,-23.7,1.74,18.24
3.8682,-0.40861,-9.0848,-0.028405,0.0054978,0.011606,-23.82,1.74,18.36
3.8682,-0.39499,-8.9894,-0.031154,0.000305,0.013134,-23.94,1.8,18.3
3.8546,-0.36775,-9.0303,-0.026267,-0.0045815,0.014661,-24.06,1.8,18.3
3.8546,-0.29965,-9.0167,-0.029016,-0.0067195,0.014966,-24.18,1.74,18.24
3.8682,-0.36775,-9.0712,-0.029016,0.0076358,0.024129,-24.12,1.68,18.24
3.8137,-0.38137,-9.0167,-0.032681,-0.0015272,0.017104,-24.06,1.86,18.42
3.8818,-0.38137,-9.0575,-0.034819,0.0051924,0.019548,-24.0,1.92,18.42
3.8954,-0.35413,-9.0848,-0.031154,0.010996,0.011606,-24.0,1.68,18.36
3.8682,-0.31327,-9.1256,-0.035125,0.015882,0.0079412,-23.94,1.68,18.18
3.8682,-0.35413,-9.0303,-0.033292,0.022602,0.0048869,-24.06,1.74,18.24
3.8682,-0.35413,-8.9622,-0.033903,0.021991,0.0054978,-24.0,1.62,18.12
3.9499,-0.35413,-9.0303,-0.038485,0.027184,0.011606,-24.06,1.62,17.94
3.9227,-0.35413,-9.0712,-0.03207,0.029627,0.0079412,-24.12,1.62,17.82
3.9227,-0.40861,-9.0712,-0.038179,0.022907,0.017715,-23.94,1.8,17.76
3.9635,-0.40861,-9.0167,-0.041539,0.013439,0.028405,-23.94,1.8,17.7
4.0044,-0.43585,-8.9486,-0.029932,-0.0045815,0.029016,-23.88,1.74,17.76
3.9363,-0.43585,-9.0303,-0.03543,-0.012217,0.033598,-23.88,1.74,17.82
3.8273,-0.34051,-9.0575,-0.027794,-0.025045,0.030238,-23.88,1.62,17.76
3.7728,-0.31327,-9.0984,-0.032987,-0.020464,0.037568,-23.88,1.44,17.82
3.8137,-0.40861,-9.0712,-0.040012,-0.0039706,0.030849,-23.94,1.5,17.88
3.8818,-0.40861,-9.112,-0.038179,-0.0033598,0.028711,-24.0,1.68,18.06
3.8954,-0.31327,-8.9486,-0.029932,0.0012217,0.025351,-24.0,1.8,18.18
3.8954,-0.31327,-9.0167,-0.028711,0.0036652,0.020159,-24.12,1.8,18.18
3.9635,-0.35413,-9.0439,-0.03146,-0.017715,0.013134,-24.06,1.74,18.18
3.9227,-0.35413,-9.0848,-0.029016,-0.043066,0.012217,-24.0,1.92,18.24
3.9635,-0.40861,-9.0984,-0.023518,-0.04948,0.010996,-24.12,1.98,18.24
3.7592,-0.38137,-9.0303,-0.023824,-0.043066,0.015882,-24.24,1.92,18.3
3.7456,-0.39499,-9.0031,-0.031154,-0.0076358,0.022602,-24.12,1.98,18.3
3.8001,-0.40861,-9.0984,-0.03146,-0.0024435,0.024129,-24.12,1.98,18.3
3.8818,-0.38137,-9.0984,-0.035125,0.0061087,0.018326,-24.0,1.98,18.3
3.8682,-0.40861,-9.0303,-0.035736,0.0051924,0.019853,-24.0,2.1,18.24
3.8546,-0.31327,-9.1256,-0.03146,-0.0030543,0.020464,-23.94,1.92,18.06
3.8409,-0.38137,-9.0167,-0.030849,-0.0018326,0.020159,-24.0,1.98,17.94
3.8409,-0.35413,-9.0575,-0.035736,0.0015272,0.02138,-23.82,1.8,17.7
3.8001,-0.40861,-9.0712,-0.038179,0.0076358,0.01741,-23.7,1.98,17.88
3.8954,-0.32689,-9.0848,-0.034819,0.015882,0.017104,-23.88,1.86,17.76
3.8954,-0.31327,-9.0575,-0.032681,0.0067195,0.018937,-23.82,1.74,17.64
3.8818,-0.35413,-9.1256,-0.030543,-0.0012217,0.025656,-23.7,1.62,17.64
3.8954,-0.38137,-9.1256,-0.036041,0.0042761,0.018326,-23.82,1.62,17.7
3.8954,-0.32689,-9.0848,-0.030543,0.0067195,0.014966,-23.94,1.62,17.58
3.8273,-0.44947,-9.0575,-0.03543,0.0033598,0.011606,-24.0,1.62,17.64
3.8818,-0.35413,-9.0439,-0.024435,-0.000916,0.0079412,-24.12,1.62,17.76
3.9227,-0.38137,-9.0303,-0.033292,0.0045815,0.013134,-24.24,1.62,17.82
3.8954,-0.35413,-9.0439,-0.03207,0.0051924,0.011606,-24.24,1.68,17.82
3.8273,-0.35413,-9.0848,-0.024435,-0.0024435,0.0088575,-24.3,1.62,17.82
3.7728,-0.35413,-9.1256,-0.035736,0.0082467,0.009163,-24.48,1.74,17.88
3.8546,-0.40861,-9.0575,-0.034514,0.0085521,0.0082467,-24.48,1.62,17.76
3.9908,-0.38137,-8.9894,-0.036346,0.0064141,0.015272,-24.48,1.74,18.0
3.8546,-0.35413,-9.0167,-0.029932,-0.015882,0.011912,-24.48,1.86,18.0
3.8137,-0.29965,-9.0712,-0.031154,-0.022297,0.010996,-24.54,2.16,18.0
3.8273,-0.38137,-9.1801,-0.025962,-0.0039706,0.0088575,-24.6,2.16,18.12
3.8954,-0.38137,-9.0439,-0.036957,0.000305,0.0067195,-24.48,2.16,18.24
3.8682,-0.36775,-9.0031,-0.029016,0.0024435,0.0085521,-24.3,2.1,18.18
3.8682,-0.36775,-9.0031,-0.029016,0.0024435,0.0085521,-24.3,2.1,18.18
3.8682,-0.40861,-9.0439,-0.03146,0.0064141,0.013134,-24.3,2.16,18.18
3.9227,-0.38137,-8.9894,-0.031154,-0.0030543,0.017715,-24.3,2.16,18.12
3.8546,-0.39499,-8.9894,-0.025962,-0.01069,0.01405,-24.48,2.22,18.18
3.8682,-0.34051,-9.0575,-0.03146,-0.013134,0.023824,-24.48,2.22,18.24
3.7728,-0.35413,-9.0303,-0.036957,-0.0058032,0.022297,-24.36,2.22,18.24
3.8954,-0.29965,-9.0984,-0.035736,0.014661,0.018326,-24.3,2.16,18.12
3.909,-0.35413,-9.0031,-0.036957,0.012217,0.014966,-24.42,2.16,18.06
3.8682,-0.28603,-9.0303,-0.03146,-0.002138,0.016188,-24.42,1.86,18.06
3.8273,-0.38137,-9.1665,-0.031154,-0.0027489,0.014661,-24.36,1.86,18.0
3.8954,-0.36775,-9.0575,-0.035125,-0.0015272,0.01405,-24.42,1.98,18.12
3.8682,-0.34051,-9.0303,-0.034514,-0.0015272,0.014661,-24.42,1.98,18.06
3.8682,-0.35413,-9.0848,-0.027489,0.0045815,0.0079412,-24.48,1.92,18.18
3.8818,-0.38137,-9.1801,-0.026878,0.0097738,0.000611,-24.42,1.74,17.94
3.9499,-0.36775,-9.0848,-0.029627,-0.0027489,0.0036652,-24.06,1.74,17.88
3.8954,-0.40861,-9.0984,-0.025351,-0.01405,0.011606,-24.0,1.68,17.82
3.909,-0.42223,-9.0848,-0.021991,-0.019853,0.0058032,-23.94,1.68,17.76
3.8001,-0.31327,-9.0303,-0.033292,-0.021686,0.015882,-24.06,1.74,18.0
3.8273,-0.32689,-9.0303,-0.03207,-0.014355,0.019548,-24.0,1.8,17.94
3.8137,-0.31327,-9.0575,-0.029932,-0.010996,0.017715,-23.94,1.86,17.88
3.8409,-0.32689,-9.0167,-0.025962,-0.0076358,0.01405,-24.0,1.98,17.88
3.8682,-0.32689,-9.0167,-0.031765,-0.0036652,0.012828,-24.06,2.04,17.94
3.8818,-0.36775,-9.0575,-0.032681,0.0030543,0.010996,-23.94,1.92,17.94
3.909,-0.31327,-9.1801,-0.03207,0.0051924,0.013744,-24.06,2.1,18.0
3.9227,-0.29965,-9.0984,-0.036957,0.0024435,0.0088575,-23.94,2.04,18.0
3.9227,-0.36775,-9.0575,-0.029322,0.002138,0.015577,-23.94,2.16,18.24
3.8954,-0.38137,-9.0303,-0.034819,-0.0015272,0.015577,-24.12,2.22,18.3
3.8954,-0.34051,-9.0848,-0.0281,-0.0076358,0.013744,-24.12,2.22,18.3
3.8682,-0.36775,-9.0848,-0.0281,-0.013134,0.011912,-24.06,2.16,18.3
3.8546,-0.40861,-9.0848,-0.029932,-0.0048869,0.013744,-24.0,2.16,18.24
3.8546,-0.40861,-9.0848,-0.037874,0.0073304,0.016188,-24.0,2.16,18.24
3.9499,-0.40861,-9.0575,-0.03207,-0.0073304,0.017715,-24.12,2.16,18.3
3.7728,-0.40861,-9.1801,-0.029322,-0.018021,0.010996,-23.94,2.04,18.42
3.7865,-0.40861,-9.1256,-0.033903,-0.011912,0.020464,-23.94,1.98,18.42
3.8546,-0.35413,-9.0303,-0.037874,0.002138,0.018631,-23.82,1.98,18.42
3.909,-0.43585,-9.1529,-0.030849,0.0015272,0.018631,-23.76,1.8,18.36
3.8954,-0.35413,-9.0575,-0.033598,-0.0076358,0.0079412,-23.64,1.68,18.3
3.8137,-0.38137,-9.0575,-0.030238,-0.0064141,0.01405,-23.58,1.74,18.18
3.8273,-0.36775,-9.1256,-0.03146,0.0027489,0.010079,-23.7,1.62,18.06
3.8273,-0.38137,-9.0303,-0.031765,0.0045815,0.011301,-23.64,1.62,18.06
3.8682,-0.34051,-9.0439,-0.027794,-0.0027489,0.0085521,-23.64,1.62,18.06
3.8954,-0.32689,-9.0575,-0.030238,-0.0039706,0.0088575,-23.64,1.44,17.82
3.8682,-0.38137,-8.9894,-0.030238,-0.0051924,0.014661,-23.64,1.5,17.94
3.8273,-0.35413,-9.0303,-0.03543,-0.000611,0.009163,-23.58,1.44,18.06
3.9227,-0.34051,-9.0303,-0.032376,-0.0012217,0.0073304,-23.58,1.38,18.06
3.8682,-0.31327,-9.0439,-0.027794,0.000611,0.010385,-23.58,1.5,18.06
3.9227,-0.34051,-9.0303,-0.028405,-0.000916,0.01069,-23.64,1.44,17.88
3.9499,-0.40861,-9.112,-0.030238,-0.0073304,0.0085521,-23.88,1.62,17.76
3.9908,-0.35413,-9.1256,-0.037874,-0.03207,0.0058032,-23.94,1.5,17.82
3.9499,-0.34051,-9.0303,-0.021991,-0.068111,-0.000305,-24.06,1.56,17.82
3.6775,-0.34051,-9.0439,-0.016799,-0.051924,0.0079412,-24.0,1.56,17.94
3.6503,-0.38137,-9.0984,-0.026573,-0.021991,0.0094684,-23.94,1.5,17.94
3.8137,-0.39499,-9.112,-0.034208,0.007025,0.014355,-24.12,1.5,18.12
3.9363,-0.42223,-8.9622,-0.032376,0.0033598,0.01405,-24.18,1.56,18.42
3.909,-0.44947,-9.0439,-0.026267,-0.01069,0.022297,-24.18,1.62,18.48
3.8682,-0.42223,-9.0575,-0.033292,-0.0097738,0.017104,-24.12,1.56,18.3
3.8001,-0.38137,-9.0848,-0.026878,-0.012523,0.015882,-24.24,1.62,18.3
3.8001,-0.42223,-9.0575,-0.036041,-0.002138,0.018021,-24.24,1.5,18.42
3.7865,-0.34051,-9.0575,-0.025045,0.0039706,0.014355,-24.12,1.44,18.48
3.7456,-0.34051,-9.1529,-0.030543,0.0064141,0.020159,-23.88,1.44,18.54
3.7728,-0.35413,-9.0848,-0.032987,0.0033598,0.016188,-23.82,1.62,18.54
3.8137,-0.38137,-9.0575,-0.033903,0.0039706,0.01069,-23.94,1.44,18.54
3.8137,-0.38137,-9.0848,-0.025045,0.011606,0.015577,-23.94,1.56,18.6
3.8273,-0.38137,-9.0575,-0.038485,0.009163,0.015577,-23.94,1.38,18.72
3.8818,-0.36775,-9.0848,-0.034208,0.0012217,0.014355,-24.0,1.32,18.66
3.8137,-0.35413,-9.0712,-0.029932,-0.01069,0.013439,-23.94,1.32,18.42
3.7728,-0.32689,-9.1256,-0.033903,-0.013744,0.012523,-23.82,1.26,18.36
3.732,-0.34051,-9.0575,-0.035125,0.013134,0.013439,-23.94,1.32,18.48
3.9227,-0.39499,-9.0712,-0.03543,0.022297,0.01405,-23.88,1.38,18.42
3.8546,-0.38137,-9.1256,-0.035736,0.0082467,0.01405,-23.88,1.56,18.3
3.8137,-0.31327,-9.0984,-0.027489,-0.0051924,0.015272,-24.12,1.56,18.3
3.7592,-0.35413,-9.0848,-0.034514,0.0018326,0.013439,-24.18,1.44,18.3
3.8001,-0.35413,-9.0848,-0.031765,0.0082467,0.017104,-24.24,1.5,18.36
3.8001,-0.38137,-9.0303,-0.035125,0.0076358,0.016493,-24.48,1.56,18.36
3.8682,-0.32689,-9.0575,-0.03207,0.0030543,0.013134,-24.36,1.44,18.3
3.8409,-0.36775,-9.0439,-0.029322,-0.0015272,0.011912,-24.18,1.44,18.12
3.7865,-0.35413,-9.0848,-0.024129,-0.000916,0.013439,-24.3,1.62,18.18
3.909,-0.42223,-9.1393,-0.034819,0.0088575,0.010996,-24.24,1.62,18.18
3.9227,-0.40861,-9.0712,-0.033292,0.002138,0.014966,-24.24,1.62,18.18
3.8273,-0.36775,-9.0303,-0.032376,-0.0036652,0.018631,-24.24,1.5,18.12
3.8546,-0.38137,-9.0712,-0.040623,-0.012828,0.016799,-24.24,1.5,18.0
3.8137,-0.39499,-9.0303,-0.031765,-0.0094684,0.012217,-24.24,1.5,18.12
3.8001,-0.35413,-8.9894,-0.034514,0.000916,0.017104,-24.3,1.62,18.18
3.8001,-0.38137,-9.0848,-0.024129,0.000916,0.010079,-24.18,1.68,18.24
3.8273,-0.31327,-9.0575,-0.037874,-0.000916,0.015272,-24.18,1.68,18.18
3.8001,-0.35413,-9.0167,-0.027794,0.0045815,0.010996,-24.0,1.62,18.06
3.8409,-0.42223,-9.0712,-0.034514,0.0045815,0.0042761,-24.06,1.56,18.06
3.8137,-0.38137,-9.0575,-0.026267,-0.0036652,0.011606,-24.12,1.62,18.12
3.8001,-0.36775,-9.1393,-0.03207,-0.0051924,0.017715,-24.06,1.38,18.06
3.8137,-0.35413,-9.112,-0.030238,0.0024435,0.018631,-24.0,1.38,18.12
3.8682,-0.42223,-9.0439,-0.029016,0.0027489,0.013439,-24.0,1.32,18.0
3.8818,-0.40861,-9.0575,-0.030543,-0.0024435,0.014355,-23.94,1.5,18.06
3.8001,-0.39499,-9.0575,-0.028405,-0.0048869,0.015272,-23.82,1.44,18.12
3.7728,-0.42223,-9.0848,-0.032987,-0.009163,0.016799,-23.82,1.38,18.18
3.8273,-0.35413,-9.0984,-0.035125,-0.0030543,0.011912,-24.0,1.26,18.06
3.7592,-0.39499,-9.0303,-0.035125,-0.0027489,0.013134,-23.88,1.08,18.06
3.8137,-0.38137,-9.0303,-0.034208,0.0018326,0.015272,-23.7,1.02,17.94
3.8001,-0.36775,-9.1665,-0.029627,-0.0024435,0.0088575,-23.7,0.9,18.0
3.909,-0.40861,-9.112,-0.036652,-0.0027489,0.01405,-23.64,1.08,18.06
3.8954,-0.40861,-9.0984,-0.033292,-0.0064141,0.012217,-23.7,1.08,18.06
3.8682,-0.38137,-9.1393,-0.024435,-0.0054978,0.016188,-23.7,1.26,18.12
3.7865,-0.35413,-9.0439,-0.034208,0.0033598,0.011606,-23.7,1.38,18.06
3.8273,-0.38137,-9.0575,-0.031154,0.0064141,0.0039706,-23.7,1.44,18.24
3.8001,-0.43585,-9.0575,-0.038485,0.007025,0.010996,-23.76,1.38,18.12
3.8682,-0.42223,-9.0575,-0.036041,0.0094684,0.02138,-23.82,1.44,18.06
3.8954,-0.46309,-9.1665,-0.033903,-0.021075,0.021075,-23.82,1.5,18.12
3.732,-0.32689,-9.1256,-0.024435,-0.025045,0.018021,-23.7,1.32,18.36
3.6775,-0.38137,-9.221,-0.030238,0.016493,0.012828,-23.7,1.38,18.48
3.8137,-0.28603,-9.0848,-0.040928,0.069639,0.0058032,-23.82,1.5,18.48
3.9771,-0.27241,-9.0439,-0.032376,0.048564,-0.0027489,-23.76,1.56,18.54
4.1133,-0.29965,-9.0031,-0.03146,0.026573,-0.0015272,-23.82,1.56,18.42
3.9499,-0.35413,-8.9894,-0.027794,-0.02474,0.0033598,-23.76,1.68,18.36
3.8001,-0.44947,-9.0303,-0.03146,-0.02138,0.011301,-23.76,1.68,18.42
3.8954,-0.50395,-9.0031,-0.029932,-0.012217,0.019853,-23.82,1.56,18.48
3.9363,-0.46309,-9.112,-0.03146,-0.032376,0.025656,-23.88,1.62,18.36
3.7456,-0.40861,-9.1256,-0.039095,-0.039401,0.030543,-23.88,1.56,18.48
3.7865,-0.39499,-9.1256,-0.040012,-0.023213,0.029016,-23.76,1.56,18.6
3.7592,-0.28603,-9.0848,-0.036957,-0.01405,0.032681,-23.76,1.56,18.48
3.7592,-0.27241,-9.0848,-0.034514,-0.0067195,0.025962,-23.76,1.5,18.3
3.6775,-0.25879,-9.0031,-0.034208,0.000916,0.013439,-23.94,1.62,18.24
3.7456,-0.28603,-9.1256,-0.034514,0.032376,0.0067195,-23.82,1.56,18.24
3.8001,-0.31327,-9.0848,-0.02474,0.030543,0.0051924,-23.82,1.5,18.12
3.9908,-0.40861,-9.0439,-0.039095,0.030543,0.010079,-23.82,1.44,18.24
3.9499,-0.44947,-9.0167,-0.037568,0.000916,0.014355,-23.76,1.32,18.3
3.9227,-0.50395,-8.9758,-0.034819,-0.0045815,0.020464,-23.88,1.32,18.24
3.8954,-0.42223,-9.0167,-0.033903,-0.014355,0.023518,-23.82,1.32,18.24
3.8001,-0.36775,-8.8941,-0.03146,-0.010079,0.019853,-23.82,1.26,18.24
3.7592,-0.27241,-9.0575,-0.029322,-0.000305,0.015577,-23.76,1.2,18.12
3.8682,-0.31327,-9.0848,-0.032681,0.0036652,0.020159,-23.82,1.32,18.06
3.8954,-0.31327,-9.112,-0.03543,0.0048869,0.01741,-23.76,1.38,18.0
3.7728,-0.32689,-9.1256,-0.03207,-0.0082467,0.021991,-23.64,1.38,17.94
3.732,-0.34051,-9.0712,-0.029932,-0.011606,0.018021,-23.52,1.5,18.0
3.7865,-0.36775,-9.0575,-0.029932,-0.0058032,0.018631,-23.52,1.5,18.06
3.7865,-0.40861,-9.112,-0.03879,0.0051924,0.013134,-23.76,1.62,18.12
3.8137,-0.40861,-9.1256,-0.036652,0.012523,0.013439,-23.76,1.5,18.12
3.8954,-0.40861,-8.9894,-0.039706,0.0033598,0.019242,-23.88,1.62,18.18
3.909,-0.42223,-9.112,-0.036346,0.000916,0.015577,-23.88,1.56,18.0
3.8546,-0.36775,-9.0167,-0.031765,-0.0036652,0.021075,-23.94,1.68,18.0
3.8001,-0.40861,-9.112,-0.042761,-0.0058032,0.018631,-23.88,1.86,17.76
3.8273,-0.32689,-9.0303,-0.031765,-0.002138,0.010996,-24.06,1.68,17.94
3.8682,-0.31327,-9.0712,-0.033292,-0.0048869,0.011912,-24.18,1.68,18.0
3.7865,-0.36775,-9.0303,-0.029016,-0.0039706,0.007025,-24.12,1.56,18.12
3.7865,-0.36775,-9.0848,-0.034208,0.0054978,0.011912,-24.12,1.44,17.94
3.8546,-0.39499,-9.0848,-0.035736,0.0097738,0.0051924,-24.24,1.38,18.06
3.8546,-0.40861,-9.0167,-0.031765,0.013439,0.0076358,-24.42,1.32,18.18
3.8954,-0.39499,-9.0848,-0.034514,0.0061087,0.011912,-24.3,1.26,18.12
3.8273,-0.40861,-9.0575,-0.029322,-0.002138,0.018326,-24.24,1.26,18.18
3.8682,-0.43585,-9.0439,-0.023824,-0.0067195,0.019548,-24.24,1.26,18.12
3.7456,-0.43585,-9.1256,-0.028405,-0.019853,0.016188,-24.3,1.32,18.3
3.7728,-0.40861,-9.0575,-0.024129,-0.0030543,0.011606,-24.24,1.14,18.36
3.8273,-0.34051,-9.0848,-0.040623,0.017104,0.010996,-24.36,1.02,18.48
3.8954,-0.29965,-8.9894,-0.032681,0.016493,0.011606,-24.3,1.26,18.54
3.8546,-0.31327,-9.0439,-0.027794,-0.014355,0.0079412,-24.36,1.26,18.42
3.8001,-0.31327,-9.0848,-0.027794,-0.0067195,0.019242,-24.48,1.38,18.36
3.8273,-0.39499,-9.1393,-0.032376,-0.0061087,0.017715,-24.48,1.38,18.36
3.6911,-0.43585,-9.0303,-0.026878,-0.002138,0.0097738,-24.42,1.32,18.48
3.8546,-0.35413,-8.9758,-0.036041,-0.010385,0.018326,-24.3,1.38,18.36
3.8001,-0.35413,-8.9622,-0.026878,-0.0036652,0.011301,-24.3,1.32,18.3
3.8954,-0.36775,-9.0575,-0.030543,-0.000611,0.015577,-24.3,1.5,18.24
3.8001,-0.34051,-9.0575,-0.036041,0.0024435,0.020159,-24.3,1.56,18.24
3.8409,-0.39499,-9.1393,-0.034208,-0.0054978,0.025045,-24.3,1.56,18.24
3.7592,-0.34051,-9.1801,-0.036041,0.000305,0.01069,-24.18,1.74,18.3
3.732,-0.31327,-9.0575,-0.031154,0.0018326,0.012217,-24.06,1.56,18.24
3.8001,-0.34051,-9.0575,-0.039706,0.0076358,0.0097738,-23.88,1.44,18.12
3.8409,-0.38137,-9.1937,-0.025351,0.0048869,0.0076358,-23.88,1.44,18.42
3.8001,-0.31327,-9.112,-0.031154,-0.000305,0.011301,-23.82,1.44,18.42
3.8001,-0.35413,-9.1393,-0.024129,0.0042761,0.0085521,-23.76,1.5,18.48
3.7728,-0.40861,-9.1393,-0.033598,0.0036652,0.013134,-23.64,1.62,18.24
3.8409,-0.38137,-9.0031,-0.023213,0.0048869,0.0094684,-23.64,1.68,18.3
3.8546,-0.31327,-9.0848,-0.032681,0.000611,0.013744,-23.76,1.74,18.42
3.8273,-0.38137,-9.0712,-0.030543,0.0015272,0.012828,-23.7,1.62,18.42
3.8001,-0.40861,-9.0984,-0.025351,-0.000611,0.012828,-23.58,1.56,18.54
3.8273,-0.42223,-9.1529,-0.034514,-0.0039706,0.011606,-23.58,1.56,18.48
3.8137,-0.38137,-9.112,-0.033292,0.000611,0.013134,-23.64,1.44,18.54
3.909,-0.38137,-8.9622,-0.036652,0.000916,0.023824,-23.7,1.38,18.6
3.8818,-0.35413,-8.9894,-0.025351,-0.002138,0.016188,-23.64,1.5,18.6
3.7456,-0.40861,-9.0984,-0.024129,0.0027489,0.013134,-23.58,1.62,18.42
3.7865,-0.32689,-9.0575,-0.026878,-0.000611,0.012828,-23.46,1.68,18.42
3.8273,-0.38137,-9.0848,-0.025045,0.0067195,0.014355,-23.46,1.68,18.48
3.732,-0.35413,-9.1801,-0.033903,0.010079,0.015577,-23.46,1.62,18.36
3.8273,-0.38137,-8.9622,-0.035736,0.0082467,0.013134,-23.58,1.44,18.42
3.8546,-0.40861,-9.112,-0.029322,0.014661,0.0024435,-23.58,1.38,18.3
3.8954,-0.36775,-9.0712,-0.03146,0.011912,0.0067195,-23.64,1.56,18.24
3.8682,-0.39499,-9.0575,-0.034208,0.0064141,0.012523,-23.82,1.38,18.24
3.8682,-0.39499,-9.0984,-0.032376,-0.0051924,0.014355,-23.7,1.38,18.42
3.8273,-0.36775,-9.0303,-0.035125,-0.011606,0.016188,-23.7,1.38,18.36
3.8137,-0.35413,-9.0575,-0.023824,-0.0073304,0.01405,-23.58,1.44,18.24
3.8273,-0.40861,-9.0167,-0.039401,-0.0094684,0.017715,-23.64,1.44,18.24
3.8682,-0.34051,-9.0303,-0.036041,-0.014966,0.020769,-23.52,1.32,18.24
3.8273,-0.32689,-9.0984,-0.031765,-0.016493,0.018326,-23.52,1.32,18.36
3.7592,-0.36775,-9.1937,-0.034819,-0.019242,0.02138,-23.52,1.38,18.24
3.732,-0.36775,-9.0984,-0.036041,0.0051924,0.013134,-23.52,1.26,18.3
3.8409,-0.35413,-9.0575,-0.037263,0.014966,0.014661,-23.46,1.32,18.3
3.9227,-0.35413,-9.0575,-0.035125,0.0051924,0.018937,-23.28,1.44,18.3
3.8409,-0.35413,-9.0439,-0.033292,-0.0067195,0.015577,-23.22,1.26,18.12
3.7728,-0.32689,-9.0303,-0.033598,-0.0033598,0.013439,-23.22,1.38,18.0
3.8137,-0.32689,-9.0848,-0.034514,-0.0045815,0.018021,-23.28,1.44,18.0
3.8273,-0.34051,-9.2074,-0.036346,-0.0024435,0.017715,-23.28,1.5,18.06
3.9227,-0.44947,-9.1529,-0.036346,-0.0042761,0.018937,-23.46,1.44,18.12
3.7592,-0.35413,-9.0031,-0.031765,-0.0018326,0.015577,-23.28,1.56,18.12
3.8818,-0.38137,-9.0848,-0.024435,0.0024435,0.012523,-23.46,1.56,18.12
3.8409,-0.35413,-9.0303,-0.034819,0.0033598,0.01741,-23.58,1.56,17.94
3.8273,-0.38137,-9.0848,-0.031154,0.0027489,0.021075,-23.64,1.5,18.0
3.8273,-0.32689,-9.1665,-0.03543,-0.000305,0.015577,-23.58,1.62,18.06
3.6911,-0.32689,-9.0848,-0.027794,0.0064141,0.0088575,-23.52,1.68,18.12
3.7047,-0.28603,-9.0167,-0.035736,0.020464,0.0079412,-23.64,1.68,18.18
3.732,-0.35413,-9.0303,-0.030543,0.029932,0.0018326,-23.7,1.74,18.48
3.8546,-0.40861,-9.1393,-0.027184,0.022602,0.010996,-23.76,1.74,18.42
3.8682,-0.38137,-9.0167,-0.031765,0.0094684,0.010385,-23.76,1.74,18.42
3.8818,-0.40861,-9.0303,-0.032681,-0.0036652,0.015577,-23.88,1.92,18.3
3.8409,-0.47671,-9.0303,-0.035125,-0.0064141,0.014966,-23.88,1.92,18.3
3.8273,-0.43585,-9.0575,-0.036957,-0.0058032,0.018021,-24.0,1.8,18.3
3.8682,-0.43585,-9.1393,-0.03543,-0.012523,0.023824,-24.06,1.8,18.36
3.8409,-0.36775,-9.112,-0.041233,-0.011301,0.031765,-23.88,1.8,18.6
3.7865,-0.35413,-9.0848,-0.032987,-0.020464,0.032681,-24.0,1.68,18.6
3.8001,-0.31327,-9.0712,-0.029627,-0.029627,0.024129,-24.06,1.74,18.48
3.7592,-0.27241,-9.0848,-0.030238,-0.017715,0.013744,-24.0,1.68,18.48
3.623,-0.29965,-9.1256,-0.029322,0.0064141,0.0088575,-24.06,1.56,18.48
3.7184,-0.28603,-9.0848,-0.032681,0.036041,0.0036652,-24.0,1.74,18.42
3.8273,-0.32689,-9.0303,-0.030849,0.039401,0.0027489,-23.88,1.74,18.36
3.9227,-0.35413,-9.0439,-0.033598,0.039095,0.0027489,-23.82,1.68,18.24
3.9635,-0.42223,-9.0031,-0.033598,0.015577,0.0079412,-23.76,1.56,18.24
3.8273,-0.43585,-8.9758,-0.034208,0.002138,0.013744,-23.76,1.38,18.24
3.9908,-0.49033,-9.0575,-0.033598,-0.012217,0.019242,-23.82,1.38,18.3
3.8682,-0.43585,-9.1393,-0.032681,-0.026573,0.023518,-23.76,1.26,18.24
3.8954,-0.39499,-9.1256,-0.034208,-0.024435,0.02474,-23.82,1.14,18.24
3.8001,-0.40861,-9.0712,-0.036041,-0.023824,0.026267,-23.64,1.14,18.12
3.7047,-0.38137,-9.1256,-0.029932,-0.0036652,0.01069,-23.7,1.2,18.12
3.732,-0.20431,-9.1801,-0.027489,0.0054978,0.01405,-23.76,1.38,18.12
3.7184,-0.27241,-9.1256,-0.029627,0.0039706,0.0079412,-23.7,1.38,18.12
3.8001,-0.36775,-9.1529,-0.029322,0.016188,0.012217,-23.82,1.08,18.24
3.8137,-0.46309,-9.221,-0.029322,0.013439,0.0076358,-23.88,1.08,18.42
3.8273,-0.43585,-9.0984,-0.037874,0.018326,0.015272,-23.94,1.08,18.48
3.9363,-0.50395,-9.0575,-0.033903,-0.000611,0.015577,-24.0,1.08,18.42
3.8954,-0.42223,-8.9894,-0.039706,-0.018021,0.01741,-24.0,1.38,18.36
3.8273,-0.38137,-9.0303,-0.025962,-0.0088575,0.018631,-24.0,1.32,18.3
3.8137,-0.34051,-9.0575,-0.030238,-0.0036652,0.025351,-24.0,1.38,18.24
3.8409,-0.24517,-9.0575,-0.034208,-0.013744,0.016799,-24.06,1.44,17.94
3.8409,-0.24517,-8.9758,-0.03207,-0.015577,0.019853,-23.94,1.44,18.06
3.8001,-0.31327,-9.0303,-0.02138,-0.015272,0.011606,-24.0,1.32,18.12
3.7047,-0.31327,-9.1529,-0.031765,0.0030543,0.011912,-24.0,1.26,18.06
3.8409,-0.35413,-9.0031,-0.035736,0.012217,0.010079,-24.0,1.26,17.94
3.8137,-0.38137,-9.0848,-0.029932,0.01405,0.0094684,-23.94,1.26,18.06
3.732,-0.40861,-9.0575,-0.026878,0.0076358,0.012828,-23.82,1.44,17.88
3.8273,-0.43585,-8.9894,-0.031154,0.0054978,0.015577,-23.76,1.38,17.88
3.8409,-0.43585,-9.1393,-0.0281,-0.0033598,0.018937,-23.7,1.38,18.18
3.909,-0.43585,-9.0984,-0.031154,-0.011606,0.023824,-23.64,1.38,18.12
3.8273,-0.39499,-9.0848,-0.033903,-0.015882,0.024435,-23.64,1.26,18.06
3.7728,-0.34051,-9.0848,-0.036346,-0.012217,0.023213,-23.7,1.56,18.18
3.8001,-0.28603,-9.0303,-0.027489,-0.0036652,0.0097738,-23.76,1.56,18.3
3.8273,-0.34051,-9.112,-0.033292,-0.0012217,0.0097738,-23.76,1.74,18.24
3.8273,-0.35413,-9.0848,-0.034208,0.0036652,0.007025,-23.76,1.74,18.3
3.7728,-0.38137,-9.1529,-0.031765,0.0045815,0.011606,-23.7,1.86,18.36
3.7728,-0.38137,-9.0848,-0.036346,-0.002138,0.010996,-23.7,1.8,18.36
3.7592,-0.44947,-9.1256,-0.029322,0.0015272,0.01405,-23.82,1.98,18.18
3.8954,-0.40861,-9.1529,-0.038485,-0.000305,0.019242,-23.7,1.86,18.18
3.8001,-0.44947,-9.0848,-0.040928,-0.0033598,0.014966,-23.82,1.74,18.18
3.9227,-0.35413,-9.0439,-0.03207,-0.0018326,0.020464,-23.76,1.92,18.12
3.8273,-0.28603,-9.0984,-0.03146,-0.0036652,0.014355,-23.7,1.86,18.18
3.8546,-0.31327,-9.0303,-0.036652,-0.0061087,0.013744,-23.82,1.8,18.3
3.8409,-0.38137,-9.0167,-0.038485,-0.0085521,0.02138,-23.76,1.74,18.12
3.7865,-0.36775,-9.1256,-0.034819,-0.0024435,0.014355,-23.7,1.68,18.06
3.8409,-0.38137,-9.0712,-0.037874,-0.0027489,0.013744,-23.64,1.68,18.12
3.7456,-0.38137,-9.0575,-0.029932,0.0051924,0.013439,-23.52,1.68,18.06
3.8273,-0.35413,-9.1256,-0.029932,-0.0027489,0.015882,-23.64,1.62,18.06
3.8001,-0.29965,-9.0712,-0.029627,-0.000611,0.014355,-23.64,1.5,18.12
3.8546,-0.34051,-9.0712,-0.029322,-0.0088575,0.018631,-23.64,1.44,18.12
3.732,-0.31327,-9.1256,-0.03207,-0.012523,0.015577,-23.7,1.44,18.12
3.7865,-0.36775,-9.0848,-0.036346,0.011301,0.016493,-23.76,1.5,18.18
3.8954,-0.39499,-9.0575,-0.043066,0.016799,0.021075,-23.76,1.38,18.0
3.8954,-0.31327,-9.0575,-0.038485,0.0076358,0.016493,-23.76,1.44,18.0
3.8001,-0.39499,-9.0712,-0.029932,-0.011606,0.015577,-23.7,1.5,17.76
3.7728,-0.39499,-8.9758,-0.031765,-0.0085521,0.019548,-23.7,1.5,17.88
3.8137,-0.36775,-9.0575,-0.039095,0.0036652,0.015272,-23.76,1.38,17.76
3.8273,-0.38137,-9.1256,-0.027489,0.000611,0.013439,-23.88,1.38,17.94
3.8137,-0.32689,-9.0712,-0.033598,-0.0042761,0.0088575,-23.88,1.38,17.94
3.7865,-0.35413,-9.1393,-0.030238,-0.0045815,0.01069,-23.88,1.38,17.94
3.7728,-0.35413,-9.0712,-0.029627,-0.0012217,0.015272,-23.88,1.38,17.94
3.7865,-0.38137,-9.1256,-0.028711,0.0064141,0.019548,-23.94,1.32,18.0
3.8001,-0.35413,-9.1256,-0.033598,0.0012217,0.01069,-24.06,1.32,17.94
3.8273,-0.38137,-9.0303,-0.032681,-0.0051924,0.017715,-23.88,1.38,17.94
3.8001,-0.40861,-9.0575,-0.036346,0.0015272,0.014661,-23.94,1.26,18.06
3.8273,-0.39499,-9.0848,-0.030238,0.0042761,0.01069,-24.06,1.32,18.06
3.8682,-0.35413,-9.0712,-0.036346,-0.002138,0.017715,-24.0,1.26,18.18
3.7728,-0.31327,-9.0439,-0.035736,-0.0024435,0.019853,-24.06,1.26,18.42
3.8273,-0.31327,-9.1393,-0.031154,0.000916,0.013439,-24.12,1.32,18.42
3.7728,-0.38137,-9.0575,-0.026573,0.007025,0.014661,-24.12,1.44,18.36
3.8273,-0.38137,-9.0712,-0.042761,0.0033598,0.014966,-24.06,1.44,18.3
3.8409,-0.36775,-9.0439,-0.03207,-0.0024435,0.012217,-24.12,1.38,18.36
3.7456,-0.36775,-9.0575,-0.03207,-0.000305,0.019853,-24.06,1.44,18.3
3.8137,-0.38137,-9.1256,-0.030849,-0.0048869,0.015882,-24.0,1.5,18.3
3.7865,-0.38137,-9.1256,-0.035736,0.002138,0.026267,-23.94,1.5,18.3
3.8001,-0.32689,-9.1256,-0.029627,-0.000305,0.014355,-23.94,1.5,18.18
3.8137,-0.42223,-9.0848,-0.032987,-0.0015272,0.015272,-23.82,1.62,18.3
3.8273,-0.35413,-9.112,-0.031765,-0.0033598,0.017715,-23.82,1.56,18.3
3.8273,-0.35413,-9.0848,-0.026878,-0.0045815,0.012523,-23.76,1.5,18.18
3.8682,-0.36775,-9.0439,-0.032987,-0.0051924,0.019853,-23.58,1.56,18.12
3.8546,-0.36775,-9.0575,-0.029016,0.000916,0.01741,-23.52,1.5,18.06
3.8546,-0.24517,-9.0303,-0.036957,0.000305,0.01405,-23.58,1.26,18.18
3.7184,-0.35413,-9.1393,-0.032987,-0.0042761,0.010385,-23.58,1.44,18.3
3.7865,-0.38137,-9.0575,-0.030543,0.000305,0.014661,-23.34,1.44,18.24
3.8001,-0.35413,-9.1256,-0.035125,-0.0012217,0.019242,-23.34,1.44,18.42
3.8001,-0.40861,-9.0303,-0.033598,0.000916,0.018326,-23.34,1.5,18.36
3.8409,-0.35413,-9.0712,-0.03207,0.002138,0.012523,-23.28,1.5,18.36
3.8001,-0.38137,-9.0848,-0.025962,-0.0079412,0.013744,-23.4,1.56,18.42
3.8137,-0.32689,-9.0303,-0.037874,-0.011301,0.015272,-23.58,1.38,18.36
3.7865,-0.36775,-9.1256,-0.034514,-0.0015272,0.015882,-23.58,1.5,18.42
3.8273,-0.38137,-9.1937,-0.03543,0.015272,0.022297,-23.64,1.5,18.42
3.9227,-0.38137,-9.112,-0.034514,0.0027489,0.021075,-23.76,1.5,18.48
3.8546,-0.38137,-9.0439,-0.032376,-0.009163,0.01741,-23.76,1.5,18.54
3.7592,-0.42223,-9.0575,-0.034514,-0.0088575,0.022602,-23.64,1.5,18.3
3.8001,-0.39499,-9.0575,-0.026878,-0.0024435,0.015882,-23.64,1.5,18.3
3.7456,-0.40861,-9.0439,-0.030238,-0.0048869,0.016493,-23.88,1.5,18.54
3.8001,-0.35413,-9.0575,-0.033903,-0.0039706,0.016493,-23.88,1.62,18.42
3.7865,-0.39499,-9.0848,-0.029322,0.000916,0.01741,-23.76,1.74,18.36
3.8137,-0.32689,-9.0167,-0.029627,0.0033598,0.013134,-23.64,1.44,18.18
3.8682,-0.39499,-9.0712,-0.03543,0.0085521,0.02138,-23.22,1.62,18.12
3.8001,-0.34051,-9.0984,-0.038485,-0.0015272,0.027794,-23.22,1.5,18.0
3.732,-0.35413,-9.0848,-0.035125,-0.0058032,0.014661,-23.1,1.56,18.06
3.8273,-0.36775,-9.1256,-0.029016,0.0079412,0.017715,-22.98,1.44,18.12
3.8273,-0.38137,-9.1256,-0.037263,0.0088575,0.015882,-23.16,1.5,18.18
3.7728,-0.40861,-9.1256,-0.032987,0.0088575,0.01069,-22.98,1.62,18.0
3.8137,-0.38137,-9.0984,-0.039706,0.0097738,0.018937,-23.1,1.44,18.06
3.8273,-0.38137,-9.1393,-0.038485,0.012523,0.020464,-23.1,1.56,18.18
3.8273,-0.27241,-8.9622,-0.033292,0.0054978,0.018937,-23.34,1.8,18.24
3.9227,-0.36775,-9.0303,-0.036041,0.0079412,0.021686,-23.4,1.8,18.36
3.8682,-0.34051,-9.0575,-0.034208,0.0079412,0.015577,-23.46,1.8,18.42
3.8273,-0.34051,-9.0712,-0.033292,0.0024435,0.007025,-23.52,1.86,18.42
3.8137,-0.42223,-9.0848,-0.032987,-0.0033598,0.0085521,-23.58,1.86,18.24
3.8001,-0.40861,-9.0848,-0.029932,-0.000916,0.0079412,-23.64,1.98,18.3
3.8001,-0.42223,-9.0575,-0.036957,-0.0018326,0.010385,-23.52,1.98,18.12
3.8273,-0.40861,-9.0712,-0.036346,0.000916,0.013134,-23.52,2.04,18.12
3.8954,-0.35413,-9.0303,-0.025045,-0.000611,0.016799,-23.76,1.98,18.06
3.8273,-0.40861,-9.0303,-0.029322,-0.0018326,0.01741,-23.88,1.98,18.06
3.8682,-0.35413,-9.0848,-0.034514,-0.0024435,0.016799,-23.94,1.98,18.12
3.7865,-0.31327,-8.9894,-0.026878,-0.0088575,0.013744,-23.88,1.92,18.06
3.8273,-0.35413,-9.1393,-0.032681,-0.0054978,0.019853,-24.0,2.04,18.0
3.8273,-0.24517,-9.0712,-0.032376,-0.0054978,0.012828,-24.12,2.28,17.94
3.7184,-0.36775,-9.1393,-0.030238,-0.0036652,0.021075,-24.0,2.28,17.94
3.8137,-0.31327,-9.0575,-0.036346,0.0045815,0.013439,-23.94,2.28,17.88
3.8682,-0.28603,-9.0031,-0.03879,0.010385,0.016493,-24.12,2.22,18.0
3.8546,-0.35413,-9.0303,-0.032681,0.0030543,0.012828,-24.12,2.28,17.94
3.7865,-0.31327,-9.0575,-0.018937,-0.007025,0.0027489,-24.12,2.28,18.0
3.8273,-0.42223,-9.1256,-0.025351,-0.0051924,0.0058032,-24.24,2.16,18.06
3.909,-0.44947,-9.1529,-0.028711,0.01069,0.014966,-24.18,2.04,17.94
3.9771,-0.44947,-9.0303,-0.036346,-0.013439,0.028711,-24.06,2.04,17.94
3.7184,-0.31327,-8.9349,-0.038485,-0.033598,0.023213,-24.0,2.1,17.94
3.6775,-0.28603,-8.9894,-0.028405,-0.026573,0.015577,-24.06,2.1,17.88
3.7047,-0.35413,-9.1529,-0.032376,-0.0015272,0.014355,-23.94,1.98,17.88
3.8001,-0.35413,-9.0984,-0.040012,-0.0015272,0.022907,-23.82,1.8,17.94
3.7728,-0.40861,-9.0575,-0.033292,0.000305,0.0051924,-23.82,1.8,17.94
3.7184,-0.35413,-9.1256,-0.029016,0.0058032,0.0054978,-23.7,1.68,17.88
3.7865,-0.34051,-9.112,-0.0281,0.01405,0.014355,-23.52,1.68,17.76
3.8954,-0.38137,-9.1529,-0.044593,0.013439,0.01741,-23.64,1.68,17.82
3.8546,-0.38137,-9.0984,-0.033903,0.000916,0.01405,-23.58,1.62,17.82
3.8001,-0.31327,-9.0575,-0.03146,-0.0036652,0.009163,-23.52,1.74,17.88
3.7865,-0.35413,-9.0575,-0.031765,0.0051924,0.0094684,-23.52,1.86,17.94
3.8137,-0.39499,-9.112,-0.03543,0.0088575,0.010996,-23.58,1.8,17.88
3.7728,-0.31327,-9.0984,-0.034514,0.0082467,0.011606,-23.64,1.62,17.88
3.8409,-0.35413,-9.0848,-0.029627,-0.000305,0.0085521,-23.76,1.62,17.94
3.8137,-0.35413,-9.0439,-0.035125,-0.0033598,0.017715,-23.58,1.56,18.06
3.8273,-0.38137,-9.112,-0.032681,-0.010996,0.018326,-23.64,1.68,17.94
3.7865,-0.35413,-8.9758,-0.033903,-0.0079412,0.02138,-23.76,1.62,17.88
3.8001,-0.38137,-9.0303,-0.027794,-0.010079,0.018631,-23.94,1.62,17.94
3.8409,-0.35413,-9.0439,-0.032987,-0.0054978,0.020464,-24.06,1.56,17.94
3.7592,-0.38137,-9.0984,-0.03207,-0.0030543,0.022907,-24.06,1.44,17.94
3.8001,-0.38137,-9.112,-0.03207,-0.0045815,0.020464,-24.18,1.62,18.0
3.8409,-0.40861,-9.0575,-0.026878,-0.0097738,0.017715,-24.18,1.62,18.0
3.8001,-0.35413,-9.0303,-0.030543,-0.0042761,0.013134,-24.06,1.62,18.0
3.7865,-0.35413,-9.112,-0.032376,0.0024435,0.018021,-24.12,1.68,18.0
3.7592,-0.35413,-9.0848,-0.032376,0.0042761,0.020159,-24.18,1.74,17.94
3.7865,-0.38137,-9.0984,-0.03543,0.0051924,0.015577,-24.12,1.74,17.82
3.7865,-0.32689,-9.1256,-0.033292,0.01069,0.013439,-24.24,1.68,17.88
3.7592,-0.38137,-9.112,-0.034208,0.010996,0.011606,-24.3,1.68,17.76
3.8137,-0.40861,-9.0848,-0.036041,0.01405,0.014355,-24.3,1.74,17.64
3.8682,-0.32689,-8.9758,-0.0281,0.007025,0.015577,-24.3,1.86,17.76
3.8954,-0.40861,-9.0712,-0.029322,0.0042761,0.019548,-24.12,1.86,17.82
3.9635,-0.40861,-9.0303,-0.037263,-0.0039706,0.01405,-24.06,1.74,17.88
3.8001,-0.32689,-9.0848,-0.030238,-0.018937,0.013134,-24.0,1.68,17.88
3.7865,-0.32689,-9.1256,-0.028405,-0.014966,0.011912,-24.0,1.62,17.94
3.9771,-0.43585,-9.0575,-0.039401,0.011301,0.018326,-24.0,1.62,17.82
4.0044,-0.40861,-9.0303,-0.032376,-0.0082467,0.01069,-23.88,1.56,17.94
3.6911,-0.44947,-9.0303,-0.025045,-0.030238,0.0042761,-24.0,1.62,17.88
3.6503,-0.31327,-9.0984,-0.0281,-0.019548,0.0045815,-23.94,1.56,18.06
3.7456,-0.36775,-9.0439,-0.03146,0.0076358,0.0024435,-23.82,1.56,18.06
3.7865,-0.36775,-9.0303,-0.020769,0.007025,-0.000611,-23.82,1.56,18.18
3.7728,-0.34051,-9.0712,-0.026878,0.0082467,0.0061087,-23.64,1.56,18.42
3.7456,-0.32689,-9.0439,-0.029016,0.015577,-0.0085521,-23.58,1.5,18.24
3.7456,-0.35413,-9.1529,-0.032376,0.022907,-0.01069,-23.7,1.74,18.18
3.8273,-0.36775,-9.1529,-0.034819,0.034208,-0.0042761,-23.58,1.86,18.24
3.909,-0.46309,-8.9758,-0.032376,0.021686,-0.0042761,-23.58,1.98,18.0
3.909,-0.40861,-9.0031,-0.029322,0.0094684,0.011301,-23.64,1.92,18.0
3.9227,-0.38137,-8.9077,-0.030543,-0.011912,0.02138,-23.64,1.8,18.12
3.9635,-0.35413,-9.0303,-0.029016,-0.041539,0.035125,-23.58,1.92,18.12
3.9363,-0.39499,-9.221,-0.023824,-0.053145,0.044899,-23.76,1.92,18.06
3.7728,-0.40861,-9.0712,-0.037263,-0.054367,0.047953,-23.64,2.1,18.06
3.7456,-0.35413,-9.0712,-0.047037,-0.030849,0.041539,-23.82,2.16,18.0
3.7728,-0.23155,-9.1256,-0.03543,-0.018631,0.035125,-23.76,2.04,18.06
3.732,-0.24517,-9.1665,-0.034819,0.0033598,0.028711,-23.82,2.1,18.06
3.732,-0.21793,-9.0984,-0.029627,0.0012217,0.016493,-23.88,2.16,18.0
3.7456,-0.21793,-9.1529,-0.033598,0.011606,0.009163,-24.0,2.1,17.94
3.7728,-0.42223,-9.1937,-0.028405,0.018021,0.0012217,-24.12,2.1,17.82
3.7865,-0.40861,-9.0848,-0.030543,0.026878,-0.0012217,-24.12,1.92,17.94
3.8273,-0.44947,-9.0303,-0.034819,0.022907,0.0042761,-23.94,1.86,18.06
3.8137,-0.50395,-9.0984,-0.035125,0.011301,0.0015272,-23.94,2.1,18.0
3.8546,-0.49033,-9.1256,-0.036041,0.0033598,0.0085521,-23.94,1.92,18.06
3.8273,-0.47671,-9.1256,-0.031765,-0.0079412,0.015882,-24.0,1.92,18.0
3.7728,-0.36775,-9.0984,-0.032987,-0.02474,0.013134,-24.06,1.86,18.12
3.8001,-0.36775,-9.0848,-0.025656,-0.018326,0.010996,-24.12,1.8,18.18
3.732,-0.28603,-9.0848,-0.026878,-0.0042761,0.014661,-24.06,1.92,18.18
3.8001,-0.25879,-9.0575,-0.026573,0.0048869,0.012828,-24.24,1.86,18.06
3.8273,-0.29965,-9.1256,-0.026573,0.0033598,0.0061087,-24.18,1.8,18.12
3.8682,-0.24517,-9.1529,-0.027489,0.0076358,0.017715,-24.0,1.98,18.18
3.8682,-0.31327,-9.0303,-0.032376,0.0045815,0.0088575,-24.06,1.86,18.18
3.8273,-0.25879,-9.0303,-0.026878,-0.0012217,0.0085521,-24.12,2.1,18.18
3.8954,-0.38137,-9.0575,-0.03146,-0.0045815,0.012523,-24.18,2.04,18.12
3.9227,-0.43585,-9.1529,-0.036041,0.013134,0.020464,-24.12,2.1,18.24
4.0589,-0.50395,-9.0712,-0.040012,-0.0024435,0.025656,-24.18,2.22,18.3
3.8818,-0.42223,-9.0303,-0.032376,-0.028405,0.024129,-24.12,2.04,18.24
3.7047,-0.32689,-9.0848,-0.033292,-0.028711,0.02474,-24.06,2.04,18.24
3.7047,-0.29965,-9.0303,-0.032376,-0.000916,0.017715,-24.0,1.98,18.18
3.7047,-0.31327,-9.1256,-0.03146,0.0033598,0.010079,-23.88,1.98,18.12
3.732,-0.32689,-9.1665,-0.030849,0.007025,0.010996,-23.76,2.1,17.94
3.7047,-0.35413,-9.0984,-0.028405,0.0058032,0.0079412,-23.82,2.16,18.0
3.732,-0.38137,-9.1393,-0.022297,0.01069,0.0085521,-23.76,1.86,18.0
3.8409,-0.39499,-9.1256,-0.039095,0.015882,0.018021,-23.58,1.92,17.94
3.8682,-0.39499,-9.1256,-0.033903,0.018021,0.013744,-23.46,1.92,17.88
3.8682,-0.46309,-9.0031,-0.030849,0.0027489,0.0082467,-23.58,1.86,17.82
3.8273,-0.36775,-8.9894,-0.034514,-0.0079412,0.016493,-23.52,1.86,17.88
3.8954,-0.38137,-8.9213,-0.026878,-0.012217,0.012523,-23.46,1.8,17.76
3.8273,-0.35413,-9.0303,-0.03146,-0.0067195,0.0076358,-23.4,1.98,17.82
3.7865,-0.38137,-9.1665,-0.027489,-0.0045815,0.016188,-23.46,1.98,17.7
3.7456,-0.35413,-9.1256,-0.040012,-0.0027489,0.010996,-23.46,1.86,17.58
3.732,-0.34051,-9.1256,-0.035736,0.0036652,0.0051924,-23.64,1.86,17.52
3.8273,-0.35413,-9.112,-0.030849,0.0085521,0.010079,-23.64,1.68,17.76
3.7865,-0.39499,-9.0712,-0.032376,0.0058032,0.0079412,-23.58,1.68,17.76
3.8273,-0.34051,-9.0167,-0.03207,0.0082467,0.010079,-23.46,1.8,17.76
3.8001,-0.38137,-9.0848,-0.030849,0.0030543,0.013134,-23.46,1.74,17.88
3.8954,-0.46309,-9.1665,-0.037263,-0.0058032,0.01405,-23.76,1.74,17.82
3.8682,-0.38137,-9.0712,-0.035125,-0.0045815,0.018326,-23.76,1.68,17.82
3.8001,-0.39499,-9.0575,-0.035736,-0.0067195,0.018937,-23.88,1.62,17.76
3.8273,-0.38137,-9.0303,-0.032681,-0.011912,0.018326,-23.94,1.68,17.88
3.7865,-0.35413,-9.0303,-0.025962,-0.0067195,0.015577,-23.88,1.62,17.94
3.7728,-0.32689,-9.0575,-0.036041,-0.0064141,0.012217,-23.7,1.56,18.12
3.7592,-0.39499,-9.112,-0.030543,-0.002138,0.010996,-23.82,1.8,18.18
3.7728,-0.31327,-9.0575,-0.030238,-0.0033598,0.010385,-23.7,1.86,18.24
3.7865,-0.31327,-9.0848,-0.031765,0.0036652,0.019242,-23.7,1.92,18.0
3.8546,-0.40861,-9.0848,-0.029016,0.0094684,0.018937,-23.76,1.86,18.0
3.8546,-0.46309,-9.0984,-0.032987,-0.002138,0.016799,-23.88,1.8,18.12
3.8546,-0.40861,-9.0984,-0.029322,-0.0024435,0.015272,-23.82,1.92,18.12
3.8954,-0.44947,-9.0303,-0.032987,-0.0064141,0.017715,-23.76,1.86,18.12
3.8001,-0.32689,-9.112,-0.029016,-0.0076358,0.018937,-23.82,1.8,18.12
3.8001,-0.34051,-9.0712,-0.031765,0.0015272,0.011301,-23.7,1.68,18.06
3.8818,-0.43585,-8.9894,-0.038485,0.013439,0.012217,-23.7,1.74,18.06
3.8954,-0.36775,-9.0984,-0.036041,0.012217,0.013134,-23.76,1.68,18.06
3.9227,-0.38137,-9.0167,-0.025656,-0.0073304,0.011912,-23.76,1.56,18.12
3.6911,-0.38137,-9.0303,-0.033292,-0.0064141,0.0088575,-23.88,1.5,18.0
3.7728,-0.40861,-9.0848,-0.031154,0.0042761,0.012523,-23.82,1.44,18.12
3.8546,-0.36775,-9.0848,-0.031765,0.0018326,0.018021,-23.82,1.44,18.36
3.8273,-0.34051,-9.0848,-0.031765,-0.0045815,0.013744,-23.7,1.5,18.24
3.8137,-0.32689,-9.0575,-0.028711,-0.000305,0.010996,-23.76,1.56,18.12
3.7728,-0.36775,-9.0984,-0.034819,-0.0058032,0.011606,-23.58,1.5,18.12
3.8001,-0.39499,-9.0303,-0.027184,0.0018326,0.012828,-23.7,1.5,18.18
3.8001,-0.40861,-9.1529,-0.030238,-0.000916,0.018937,-23.7,1.44,18.24
3.7728,-0.35413,-9.112,-0.036346,0.0054978,0.0085521,-23.64,1.68,18.48
3.8001,-0.35413,-9.0575,-0.036346,-0.0012217,0.015882,-23.64,1.74,18.48
3.8137,-0.35413,-9.0984,-0.032987,0.0036652,0.012828,-23.7,1.8,18.42
3.7865,-0.38137,-9.0575,-0.034819,-0.0012217,0.01741,-23.46,1.68,18.54
3.8682,-0.36775,-9.0575,-0.035736,-0.000916,0.017715,-23.4,1.74,18.6
3.7865,-0.35413,-9.0303,-0.034819,0.0042761,0.016188,-23.52,1.62,18.54
3.8682,-0.38137,-9.0848,-0.033903,-0.010996,0.020769,-23.76,1.56,18.54
3.8137,-0.42223,-9.1529,-0.03146,-0.018326,0.017715,-23.94,1.56,18.6
3.8409,-0.39499,-9.0575,-0.035125,-0.020769,0.026878,-23.94,1.5,18.72
3.8273,-0.38137,-9.0439,-0.039706,-0.024129,0.023824,-23.88,1.56,18.72
3.7184,-0.31327,-9.0575,-0.035125,-0.011301,0.031765,-23.88,1.56,18.78
3.8001,-0.29965,-9.1529,-0.038179,-0.000916,0.031154,-24.0,1.68,18.84
3.8137,-0.28603,-9.0848,-0.034208,0.0015272,0.024435,-24.0,1.62,18.84
3.8001,-0.28603,-9.1393,-0.035125,0.016188,0.022907,-23.94,1.62,18.6
3.8682,-0.27241,-9.1393,-0.036346,0.031154,0.015577,-23.88,1.62,18.72
3.8954,-0.35413,-9.0303,-0.032681,0.024435,0.011912,-23.94,1.62,18.78
3.9635,-0.35413,-9.0984,-0.029932,-0.000305,0.010996,-24.12,1.8,18.54
3.9499,-0.44947,-9.0848,-0.029322,-0.017715,0.014661,-24.12,1.8,18.54
3.8954,-0.47671,-9.0303,-0.030238,-0.030849,0.022907,-24.12,1.8,18.6
3.7728,-0.44947,-9.1529,-0.031765,-0.032376,0.01741,-23.82,1.8,18.48
3.7728,-0.50395,-9.0984,-0.030849,-0.034514,0.01741,-23.76,1.86,18.54
3.7047,-0.39499,-9.0984,-0.032376,-0.029627,0.016188,-23.88,1.8,18.54
3.6911,-0.29965,-9.1256,-0.025351,-0.024129,0.018326,-23.94,1.92,18.54
3.7456,-0.34051,-9.112,-0.03543,-0.019548,0.011301,-23.82,1.92,18.54
3.732,-0.25879,-9.0848,-0.021686,-0.021686,0.0024435,-23.82,1.98,18.42
3.6639,-0.28603,-9.1393,-0.032681,0.0015272,0.0076358,-23.76,1.74,18.54
3.7728,-0.21793,-9.1665,-0.037874,0.0058032,0.0064141,-23.82,1.8,18.48
3.7456,-0.32689,-9.112,-0.038485,0.0036652,0.0048869,-23.76,1.86,18.42
3.8001,-0.35413,-9.0848,-0.033292,0.0042761,0.0045815,-23.76,1.86,18.42
3.9227,-0.40861,-8.9349,-0.034819,0.015272,0.0015272,-23.7,1.98,18.42
3.8682,-0.38137,-9.0303,-0.030238,0.0051924,-0.0061087,-23.58,1.98,18.3
3.8001,-0.31327,-8.9894,-0.0281,-0.000611,0.0024435,-23.7,1.92,18.42
3.8273,-0.38137,-9.0712,-0.032681,-0.002138,0.0015272,-23.88,1.92,18.24
3.8409,-0.31327,-9.1256,-0.031765,-0.0015272,0.0076358,-23.76,1.92,18.24
3.8001,-0.25879,-9.0848,-0.03146,-0.0033598,0.000916,-23.7,1.86,18.24
3.7728,-0.31327,-9.1393,-0.028405,0.0030543,-0.0045815,-23.7,1.56,17.94
3.7592,-0.36775,-9.0031,-0.030849,0.0073304,-0.0036652,-23.76,1.44,17.94
3.6775,-0.34051,-9.1529,-0.030849,0.009163,-0.011606,-23.94,1.56,17.76
3.7592,-0.39499,-9.221,-0.019853,0.0042761,-0.014966,-23.88,1.44,17.76
3.7728,-0.43585,-9.1529,-0.027489,0.0018326,-0.021075,-23.88,1.5,17.82
3.7592,-0.39499,-9.1393,-0.026878,0.0018326,-0.025962,-23.88,1.44,17.76
3.732,-0.42223,-9.0303,-0.024129,0.0012217,-0.021991,-23.94,1.44,17.76
3.8273,-0.38137,-9.0303,-0.018937,-0.0027489,-0.0048869,-23.94,1.5,17.76
3.8682,-0.43585,-9.0031,-0.029627,-0.010996,-0.010996,-23.88,1.38,17.76
3.8001,-0.39499,-9.0575,-0.030849,0.000305,-0.0018326,-23.88,1.32,17.94
3.8137,-0.35413,-9.1393,-0.026573,-0.0054978,-0.0036652,-23.88,1.38,18.06
3.7592,-0.29965,-9.0575,-0.022907,-0.0094684,0.002138,-23.94,1.32,18.12
3.8546,-0.36775,-9.0712,-0.02474,-0.010385,0.0045815,-23.94,1.44,18.24
3.8001,-0.35413,-9.0575,-0.036346,-0.0082467,0.017715,-23.76,1.44,18.36
3.8818,-0.31327,-9.112,-0.033903,-0.020464,0.02474,-23.64,1.44,18.36
3.8273,-0.35413,-9.0575,-0.038485,-0.025962,0.026878,-23.52,1.5,18.48
3.8001,-0.35413,-9.1393,-0.034819,-0.031154,0.029016,-23.52,1.38,18.54
3.7728,-0.34051,-9.0848,-0.032681,-0.041844,0.033903,-23.22,1.38,18.6
3.7047,-0.40861,-9.0984,-0.032376,-0.021686,0.032987,-23.34,1.44,18.54
3.7047,-0.28603,-9.1393,-0.033292,-0.0018326,0.023824,-23.28,1.32,18.66
3.7456,-0.29965,-9.1256,-0.033598,0.0082467,0.014661,-23.16,1.5,18.6
3.7728,-0.32689,-9.112,-0.035736,0.0061087,0.017715,-23.16,1.74,18.48
3.6775,-0.42223,-9.1937,-0.033598,-0.0061087,0.017104,-23.22,1.62,18.48
3.7047,-0.40861,-9.1801,-0.037263,-0.0045815,0.019853,-23.28,1.68,18.48
3.7047,-0.44947,-9.1256,-0.036957,-0.0051924,0.023518,-23.28,1.86,18.42
3.7184,-0.44947,-9.1256,-0.032987,-0.0024435,0.020769,-23.22,1.98,18.42
3.732,-0.43585,-9.1665,-0.039706,-0.0012217,0.017715,-23.22,2.04,18.54
3.732,-0.38137,-9.1665,-0.031765,-0.0058032,0.020464,-23.22,2.04,18.54
3.732,-0.40861,-9.0575,-0.029627,-0.0051924,0.01405,-23.16,2.1,18.54
3.732,-0.39499,-9.0848,-0.034819,-0.0097738,0.018937,-23.46,1.98,18.48
3.732,-0.24517,-9.1937,-0.026573,-0.0076358,0.01405,-23.46,1.8,18.48
3.6775,-0.28603,-9.1393,-0.03207,-0.0027489,0.014661,-23.4,1.92,18.36
3.6639,-0.35413,-9.0848,-0.030543,0.0027489,0.0024435,-23.46,1.86,18.42
3.6775,-0.38137,-9.1256,-0.030849,0.0058032,0.0042761,-23.28,1.86,18.3
3.7728,-0.29965,-9.0984,-0.027489,0.027184,0.0030543,-23.16,1.74,18.24
3.8001,-0.31327,-8.9758,-0.035125,0.025656,0.0051924,-23.04,1.74,18.06
3.8954,-0.40861,-9.112,-0.039706,0.0058032,0.013439,-23.04,1.5,17.94
3.8001,-0.39499,-9.2074,-0.032987,-0.0085521,0.011606,-23.04,1.38,18.0
3.732,-0.38137,-9.0848,-0.033292,-0.010079,0.020769,-23.04,1.38,18.0
3.7047,-0.38137,-9.0575,-0.036041,-0.0048869,0.019242,-23.1,1.32,18.12
3.8001,-0.32689,-9.112,-0.032681,0.0054978,0.018937,-23.16,1.38,17.94
3.8137,-0.28603,-9.1529,-0.038485,-0.0015272,0.014355,-23.1,1.44,18.06
3.732,-0.35413,-9.1937,-0.026573,-0.0085521,0.010996,-23.22,1.5,18.12
3.6911,-0.39499,-9.1256,-0.035125,0.0018326,0.010996,-23.16,1.56,18.48
3.732,-0.38137,-9.1393,-0.034208,0.011606,0.014966,-23.22,1.5,18.42
3.7592,-0.32689,-9.1529,-0.033598,-0.000305,0.015272,-23.22,1.44,18.42
3.8001,-0.40861,-9.0984,-0.033598,-0.0033598,0.016188,-23.4,1.56,18.42
3.6775,-0.39499,-9.0984,-0.032376,-0.01069,0.021991,-23.46,1.62,18.54
3.7728,-0.40861,-9.0984,-0.029932,-0.011301,0.019548,-23.46,1.62,18.48
3.7047,-0.34051,-9.0848,-0.031765,-0.0079412,0.01741,-23.82,1.8,18.24
3.7728,-0.39499,-9.1665,-0.033292,-0.0097738,0.025656,-23.88,1.8,18.18
3.7047,-0.32689,-9.112,-0.033598,-0.0094684,0.016493,-23.88,1.74,18.12
3.732,-0.35413,-9.112,-0.034514,-0.0061087,0.015882,-23.88,1.86,17.94
3.7728,-0.35413,-9.1393,-0.036652,-0.0012217,0.018326,-23.94,1.86,17.94
3.7865,-0.38137,-9.1665,-0.029627,-0.010996,0.018326,-23.94,1.86,17.88
3.7184,-0.38137,-9.1665,-0.03146,-0.018937,0.013439,-23.94,1.86,17.64
3.6911,-0.35413,-9.0848,-0.036652,-0.011912,0.019548,-23.88,1.74,17.52
3.6639,-0.34051,-9.1937,-0.040317,-0.0094684,0.011912,-24.0,1.74,17.52
3.6775,-0.31327,-9.0848,-0.03543,0.018326,0.0067195,-23.94,1.8,17.46
3.6503,-0.34051,-9.0303,-0.035736,0.033903,0.0018326,-24.06,1.74,17.46
3.7047,-0.27241,-9.0848,-0.029016,0.040012,-0.0076358,-24.12,1.74,17.58
3.7728,-0.28603,-9.1529,-0.037568,0.043677,-0.0042761,-24.0,1.86,17.7
3.8001,-0.34051,-9.1256,-0.034208,0.032987,-0.013134,-24.12,1.92,17.7
3.8682,-0.36775,-9.0984,-0.032376,0.018021,-0.002138,-24.12,1.8,17.82
3.7456,-0.42223,-9.0167,-0.027184,0.000305,-0.000916,-24.12,1.74,17.94
3.8001,-0.50395,-9.0575,-0.03146,-0.002138,0.011606,-24.12,1.74,17.82
3.8682,-0.44947,-9.0848,-0.033292,-0.0064141,0.025656,-24.06,1.62,17.82
3.8137,-0.44947,-9.1256,-0.029016,-0.014661,0.025656,-23.94,1.56,17.82
3.7865,-0.40861,-9.1801,-0.032376,-0.021686,0.030543,-24.0,1.44,17.94
3.7865,-0.40861,-9.1801,-0.032376,-0.021686,0.030543,-24.0,1.44,17.94
3.6775,-0.38137,-9.0848,-0.034819,-0.035125,0.029322,-23.88,1.68,17.94
3.7047,-0.31327,-9.1529,-0.035736,-0.023518,0.033292,-23.64,1.8,18.06
3.7047,-0.28603,-9.0848,-0.032376,-0.020159,0.028711,-23.64,1.62,18.12
3.7047,-0.34051,-9.1937,-0.03879,-0.0045815,0.028405,-23.64,1.68,18.06
3.732,-0.31327,-9.1529,-0.023824,-0.0051924,0.019853,-23.34,1.56,18.0
3.6639,-0.28603,-9.1256,-0.0281,-0.0036652,0.022602,-23.34,1.56,18.0
3.7728,-0.39499,-9.1665,-0.029627,0.011606,0.019242,-23.22,1.56,18.18
3.7728,-0.38137,-9.0848,-0.038179,0.019242,0.018021,-23.16,1.44,18.24
3.8273,-0.43585,-9.112,-0.035125,0.0064141,0.017104,-23.1,1.56,18.18
3.7865,-0.42223,-9.1529,-0.033903,-0.011912,0.021075,-23.16,1.62,18.24
3.7047,-0.40861,-9.1937,-0.036346,-0.01069,0.017104,-23.28,1.62,18.36
3.732,-0.35413,-9.1529,-0.031154,-0.0054978,0.016188,-23.34,1.38,18.36
3.6775,-0.35413,-9.1665,-0.031154,-0.0051924,0.01405,-23.34,1.44,18.3
3.6639,-0.34051,-9.112,-0.033598,-0.0018326,0.0076358,-23.28,1.38,18.36
3.6094,-0.31327,-9.2074,-0.033598,0.0030543,0.013134,-23.16,1.26,18.36
3.6775,-0.42223,-9.0984,-0.033903,0.017715,0.0012217,-23.16,1.32,18.24
3.6911,-0.29965,-9.1256,-0.028405,0.025045,0.0061087,-23.28,1.44,18.24
3.7184,-0.36775,-9.0575,-0.027794,0.018631,0.0030543,-23.28,1.56,18.3
3.8001,-0.35413,-9.0848,-0.027794,0.018937,0.012523,-23.34,1.56,18.12
3.8682,-0.44947,-9.1256,-0.029322,0.010996,0.01069,-23.52,1.56,18.06
3.8954,-0.43585,-9.0848,-0.033598,-0.0085521,0.020159,-23.64,1.5,18.18
3.8273,-0.42223,-9.0848,-0.037263,-0.027794,0.030849,-23.58,1.44,18.12
3.7865,-0.43585,-9.1393,-0.032987,-0.038485,0.034514,-23.64,1.38,18.0
3.7047,-0.28603,-9.1393,-0.034514,-0.030849,0.023213,-23.58,1.56,18.06
3.6911,-0.28603,-9.1801,-0.029322,-0.023824,0.029016,-23.7,1.44,18.0
3.6366,-0.25879,-9.1393,-0.029627,-0.0088575,0.021075,-23.76,1.44,18.06
3.5413,-0.28603,-9.1256,-0.025962,-0.000611,0.010079,-23.94,1.44,17.88
3.6639,-0.31327,-9.1937,-0.030543,0.007025,0.0073304,-23.88,1.44,18.0
3.6911,-0.31327,-9.221,-0.03543,0.014966,0.0082467,-23.88,1.5,17.82
3.7047,-0.38137,-9.1529,-0.032987,0.016188,0.0051924,-23.94,1.38,17.82
3.6775,-0.42223,-9.1256,-0.034514,0.019548,0.0033598,-23.94,1.38,17.82
3.8001,-0.38137,-9.0984,-0.029627,0.01741,0.002138,-23.82,1.5,17.88
3.7728,-0.50395,-9.1256,-0.033598,0.020159,0.0076358,-23.7,1.62,17.82
3.8273,-0.44947,-9.0167,-0.030238,0.012523,0.0027489,-23.76,1.74,17.82
3.7456,-0.35413,-9.1529,-0.033903,0.000305,0.011912,-23.7,1.5,17.88
3.7865,-0.31327,-9.0712,-0.036346,-0.0048869,0.015272,-23.76,1.5,17.82
3.8273,-0.32689,-9.1529,-0.029016,-0.0045815,0.01405,-23.58,1.5,18.12
3.7728,-0.38137,-9.1256,-0.034819,-0.014966,0.018631,-23.58,1.56,18.18
3.7592,-0.40861,-9.1665,-0.03207,-0.021075,0.015577,-23.52,1.62,18.24
3.6366,-0.38137,-9.1256,-0.036041,-0.025656,0.015272,-23.46,1.56,18.48
3.5413,-0.35413,-9.1665,-0.034208,-0.012217,0.014661,-23.46,1.56,18.3
3.6503,-0.29965,-9.1393,-0.034819,0.0076358,0.012523,-23.46,1.62,18.48
3.7047,-0.28603,-9.1801,-0.037568,0.028405,0.0073304,-23.4,1.68,18.42
3.6775,-0.31327,-9.0848,-0.032681,0.027794,0.0085521,-23.4,1.68,18.42
3.732,-0.35413,-9.1393,-0.036652,0.017104,0.0085521,-23.46,1.62,18.36
3.7865,-0.39499,-9.0848,-0.028711,0.0088575,0.011301,-23.46,1.68,18.3
3.9227,-0.43585,-9.1256,-0.037568,0.011301,0.017104,-23.4,1.68,18.3
3.9363,-0.46309,-9.0303,-0.039095,-0.013439,0.022297,-23.4,1.68,18.36
3.8682,-0.40861,-9.0848,-0.030543,-0.034208,0.021686,-23.46,1.86,18.12
3.6775,-0.34051,-9.0848,-0.029627,-0.019548,0.022907,-23.46,1.8,18.12
3.6775,-0.35413,-9.1801,-0.029322,-0.0067195,0.013134,-23.46,1.74,18.12
3.6775,-0.34051,-9.1801,-0.03146,0.0030543,0.011301,-23.28,1.8,18.24
3.6503,-0.34051,-9.1529,-0.039401,0.010385,0.0085521,-23.28,1.62,18.18
3.7047,-0.28603,-9.1256,-0.03207,0.0033598,0.000305,-23.22,1.5,18.18
3.6775,-0.35413,-9.112,-0.033903,0.0048869,0.014966,-23.28,1.62,18.12
3.7728,-0.36775,-9.0575,-0.030543,0.0033598,0.010385,-23.46,1.56,18.3
3.7047,-0.35413,-9.1665,-0.038179,0.0018326,0.016188,-23.52,1.62,18.36
3.7456,-0.38137,-8.9894,-0.037263,0.0015272,0.017104,-23.46,1.56,18.48
3.7728,-0.36775,-9.1665,-0.034819,0.0030543,0.015577,-23.34,1.68,18.54
3.8137,-0.34051,-9.0712,-0.037568,-0.0030543,0.019242,-23.58,1.8,18.48
3.8137,-0.36775,-9.1529,-0.029322,-0.0048869,0.017104,-23.64,1.8,18.48
3.7047,-0.35413,-9.0984,-0.034819,-0.000916,0.0088575,-23.4,1.74,18.42
3.6775,-0.32689,-9.2074,-0.031154,0.0082467,0.012523,-23.46,1.86,18.24
3.732,-0.35413,-9.1256,-0.025656,0.014355,0.011912,-23.64,1.74,18.24
3.7865,-0.36775,-9.1529,-0.031154,0.0048869,0.012217,-23.76,1.8,18.12
3.732,-0.40861,-9.1529,-0.027489,-0.0018326,0.0085521,-23.7,2.04,18.18
3.7728,-0.44947,-9.1256,-0.032987,-0.000916,0.009163,-23.7,1.92,18.24
3.732,-0.40861,-9.0848,-0.027794,0.000305,0.018631,-23.76,1.86,18.12
3.732,-0.44947,-9.112,-0.033598,0.0027489,0.019548,-23.46,1.8,18.12
3.6911,-0.38137,-9.112,-0.036041,-0.0033598,0.016188,-23.4,1.8,18.06
3.7184,-0.35413,-9.1393,-0.033903,0.0018326,0.018937,-23.46,1.8,18.06
3.6775,-0.34051,-9.112,-0.033598,-0.0042761,0.022907,-23.34,1.62,17.94
3.7184,-0.36775,-9.0439,-0.0281,-0.0033598,0.01741,-23.46,1.56,17.94
3.7456,-0.29965,-9.0984,-0.03207,-0.0051924,0.010079,-23.82,1.5,18.24
3.7728,-0.34051,-9.0167,-0.030238,-0.0042761,0.0058032,-23.82,1.44,18.3
3.6911,-0.44947,-9.0984,-0.034208,0.0015272,0.015577,-23.82,1.44,18.3
3.7184,-0.31327,-9.1393,-0.032681,0.0054978,0.0094684,-23.76,1.5,18.36
3.7728,-0.34051,-9.1393,-0.029627,0.000916,0.012828,-23.88,1.32,18.36
3.7047,-0.36775,-9.1393,-0.025351,-0.0012217,0.014661,-23.88,1.32,18.36
3.7047,-0.38137,-9.0439,-0.034208,-0.0027489,0.015272,-23.82,1.32,18.54
3.7728,-0.40861,-9.1529,-0.032681,0.0018326,0.011606,-23.76,1.26,18.42
3.732,-0.36775,-9.0575,-0.032376,-0.0024435,0.019548,-23.88,1.14,18.42
3.732,-0.38137,-9.1393,-0.030543,-0.0085521,0.011606,-23.94,1.14,18.48
3.6911,-0.38137,-9.221,-0.029322,-0.000916,0.013744,-23.76,1.26,18.48
3.7865,-0.39499,-9.1529,-0.039401,0.015882,0.01405,-23.58,1.2,18.66
3.8137,-0.36775,-9.1665,-0.037568,0.013134,0.016493,-23.64,1.2,18.6
3.7456,-0.38137,-9.1256,-0.035125,-0.007025,0.0082467,-23.4,1.2,18.66
3.7047,-0.36775,-9.1665,-0.034819,-0.013439,0.020159,-23.34,1.2,18.72
3.7456,-0.35413,-9.0848,-0.025656,-0.0064141,0.011301,-23.28,1.2,18.6
3.732,-0.35413,-9.0984,-0.036652,0.0030543,0.014355,-23.22,1.14,18.6
3.7592,-0.34051,-9.1665,-0.030849,0.0018326,0.016188,-23.22,1.08,18.42
3.7456,-0.28603,-9.0303,-0.032681,-0.000611,0.011301,-23.28,1.14,18.3
3.732,-0.34051,-9.1529,-0.029322,-0.000611,0.011301,-23.28,1.32,18.48
3.7047,-0.40861,-9.1937,-0.031765,-0.002138,0.010079,-23.16,1.5,18.6
3.7047,-0.34051,-9.1256,-0.03879,0.0018326,0.017104,-23.1,1.5,18.6
3.7047,-0.35413,-9.0984,-0.033292,0.0054978,0.015882,-22.98,1.5,18.48
3.7184,-0.35413,-9.0848,-0.029322,-0.0033598,0.014661,-23.1,1.5,18.48
3.7047,-0.35413,-9.1529,-0.031765,-0.0039706,0.018021,-22.98,1.56,18.42
3.732,-0.40861,-9.1256,-0.029016,0.000305,0.015272,-23.22,1.68,18.36
3.6775,-0.40861,-9.1937,-0.032376,-0.0033598,0.019853,-23.16,1.62,18.3
3.732,-0.38137,-9.1529,-0.029016,-0.0024435,0.018326,-23.16,1.68,18.3
3.732,-0.32689,-9.1529,-0.03146,-0.0012217,0.014966,-23.16,1.86,18.3
3.7865,-0.34051,-9.1529,-0.032376,-0.0024435,0.013439,-23.28,1.92,18.24
3.8273,-0.34051,-9.0848,-0.029627,-0.0048869,0.016188,-23.34,1.92,18.36
3.6775,-0.39499,-9.221,-0.039095,-0.000305,0.018021,-23.46,1.8,18.3
3.7047,-0.35413,-9.1256,-0.037874,0.0018326,0.014966,-23.46,1.68,18.18
3.7456,-0.31327,-9.1256,-0.034819,-0.0012217,0.014355,-23.4,1.68,18.18
3.7456,-0.34051,-9.112,-0.029932,0.0012217,0.016493,-23.52,1.74,18.3
3.6775,-0.32689,-9.0984,-0.03146,-0.0054978,0.015577,-23.4,1.74,18.24
3.7047,-0.38137,-9.1256,-0.029016,-0.0033598,0.014355,-23.4,1.68,18.24
3.7047,-0.40861,-9.0167,-0.033598,0.0018326,0.017715,-23.28,1.68,18.18
3.7184,-0.34051,-9.0984,-0.035125,-0.0045815,0.018631,-23.4,1.68,18.18
3.7184,-0.34051,-9.1393,-0.036041,-0.007025,0.016799,-23.4,1.62,18.24
3.7456,-0.35413,-9.112,-0.028711,-0.0042761,0.019548,-23.22,1.74,18.24
3.7456,-0.36775,-9.1801,-0.047037,-0.000611,0.021991,-23.28,1.62,18.42
3.732,-0.40861,-9.1256,-0.030238,-0.0039706,0.016188,-23.22,1.74,18.3
3.7728,-0.39499,-9.1529,-0.029627,-0.0064141,0.018631,-23.22,1.8,18.42
3.732,-0.34051,-9.1937,-0.029627,-0.0045815,0.022602,-23.28,1.92,18.36
3.732,-0.44947,-9.1529,-0.03543,-0.0042761,0.018937,-23.28,1.92,18.36
3.7456,-0.36775,-9.1529,-0.033292,-0.002138,0.021991,-23.4,1.86,18.42
3.7592,-0.36775,-9.0848,-0.033903,0.000916,0.015882,-23.64,1.62,18.36
3.6639,-0.32689,-9.1529,-0.029932,0.000305,0.015272,-23.76,1.56,18.3
3.6094,-0.36775,-9.1256,-0.028711,0.012523,0.0061087,-23.76,1.56,18.36
3.8137,-0.34051,-9.0848,-0.03207,0.035125,0.010385,-23.76,1.68,18.42
3.9363,-0.42223,-9.0984,-0.039401,0.020464,0.015882,-23.7,1.56,18.48
3.9227,-0.44947,-9.0167,-0.036652,0.000305,0.016799,-23.76,1.44,18.54
3.8273,-0.42223,-9.0303,-0.029627,-0.036346,0.027794,-23.76,1.5,18.48
3.6503,-0.40861,-9.0439,-0.037568,-0.033292,0.034208,-23.82,1.32,18.42
3.7047,-0.47671,-9.1529,-0.038485,-0.0094684,0.024435,-23.7,1.44,18.36
3.7047,-0.32689,-8.9894,-0.036957,-0.014966,0.018937,-23.76,1.32,18.36
3.6094,-0.27241,-9.1256,-0.040623,-0.014661,0.016799,-23.64,1.32,18.42
3.623,-0.27241,-9.2346,-0.03879,-0.0024435,0.013744,-23.58,1.38,18.36
3.6503,-0.31327,-9.1529,-0.029322,0.012523,0.0027489,-23.4,1.5,18.48
3.7047,-0.35413,-9.1529,-0.037874,0.027184,0.013744,-23.1,1.5,18.6
3.732,-0.32689,-9.1665,-0.030849,0.032681,0.007025,-22.86,1.56,18.78
3.8273,-0.40861,-9.1937,-0.027489,0.015272,0.0085521,-22.98,1.5,18.72
3.8954,-0.39499,-9.1665,-0.0281,0.0058032,0.007025,-23.04,1.62,18.66
3.8682,-0.46309,-9.1529,-0.036652,-0.007025,0.018326,-23.1,1.62,18.72
3.7865,-0.46309,-9.0712,-0.042455,-0.021991,0.024435,-22.86,1.62,18.72
3.6911,-0.38137,-9.0712,-0.033903,-0.015272,0.022602,-22.92,1.68,18.84
3.7184,-0.38137,-9.1529,-0.038485,-0.000611,0.023518,-22.92,1.62,18.84
3.6911,-0.28603,-9.0848,-0.027794,-0.0030543,0.0079412,-22.92,1.68,18.84
3.623,-0.29965,-9.1393,-0.034819,0.0030543,0.012523,-22.92,1.74,18.66
3.6366,-0.28603,-9.1801,-0.026267,0.012217,0.0036652,-22.86,1.8,18.66
3.732,-0.34051,-9.0848,-0.033598,0.012217,0.0073304,-22.98,1.86,18.6
3.7728,-0.35413,-9.112,-0.026573,0.0018326,0.0082467,-23.04,1.98,18.6
3.8001,-0.38137,-9.0984,-0.027184,-0.0085521,0.016493,-23.16,1.98,18.42
3.7456,-0.50395,-9.0984,-0.03879,-0.0085521,0.02138,-23.1,1.8,18.48
3.8001,-0.38137,-9.0439,-0.029016,-0.000305,0.01741,-23.16,1.86,18.42
3.8001,-0.35413,-9.0575,-0.033598,-0.0018326,0.014661,-23.16,1.8,18.48
3.7865,-0.38137,-9.1529,-0.026267,-0.0076358,0.015272,-23.4,1.74,18.54
3.732,-0.28603,-9.1665,-0.041233,-0.0076358,0.021991,-23.4,1.68,18.48
3.7456,-0.29965,-9.1529,-0.036041,-0.01405,0.01741,-23.46,1.62,18.3
3.8001,-0.27241,-9.1937,-0.030238,-0.0067195,0.018021,-23.34,1.62,18.24
3.7047,-0.27241,-9.0712,-0.03207,-0.01069,0.0048869,-23.52,1.56,18.48
3.7047,-0.32689,-9.1256,-0.030543,-0.002138,0.016493,-23.52,1.56,18.48
3.6094,-0.38137,-9.1529,-0.026573,0.012217,0.009163,-23.46,1.56,18.48
3.6911,-0.38137,-9.1256,-0.033292,0.026878,0.0076358,-23.4,1.5,18.48
3.7184,-0.35413,-9.0712,-0.033598,0.022907,0.0064141,-23.4,1.62,18.6
3.8001,-0.38137,-9.0439,-0.034208,0.019548,0.012217,-23.58,1.68,18.6
3.8137,-0.35413,-9.0031,-0.027794,-0.0015272,0.01741,-23.52,1.56,18.6
3.8273,-0.32689,-9.0167,-0.034514,-0.013134,0.014966,-23.64,1.62,18.42
3.7047,-0.40861,-9.112,-0.035125,-0.0045815,0.019242,-23.46,1.56,18.54
3.8001,-0.40861,-9.0848,-0.035736,-0.000916,0.021686,-23.46,1.5,18.48
3.8273,-0.38137,-9.0575,-0.031765,-0.01069,0.015882,-23.46,1.38,18.6
3.6911,-0.35413,-9.2482,-0.039401,-0.021075,0.023213,-23.58,1.38,18.66
3.7184,-0.35413,-9.0984,-0.0281,-0.015577,0.018326,-23.46,1.32,18.54
3.623,-0.38137,-9.1256,-0.030849,-0.0024435,0.01741,-23.46,1.38,18.6
3.6503,-0.35413,-9.1937,-0.037874,0.0015272,0.018631,-23.34,1.38,18.6
3.7047,-0.31327,-9.1393,-0.034819,0.007025,0.0064141,-23.46,1.38,18.48
3.6094,-0.36775,-9.0984,-0.025656,0.0012217,0.0088575,-23.52,1.26,18.42
3.6366,-0.38137,-9.0439,-0.037568,0.0079412,0.0082467,-23.52,1.44,18.48
3.6503,-0.31327,-9.112,-0.036041,0.02138,0.0082467,-23.52,1.44,18.48
3.6911,-0.40861,-9.1665,-0.039706,0.021991,0.000305,-23.46,1.38,18.48
3.8001,-0.31327,-9.0848,-0.034208,0.016188,0.0061087,-23.46,1.68,18.3
3.8273,-0.38137,-9.0575,-0.028405,0.0027489,0.0085521,-23.34,1.8,18.36
3.8409,-0.38137,-9.0575,-0.026573,-0.0064141,0.01069,-23.34,1.98,18.3
3.8546,-0.39499,-9.0848,-0.027184,-0.020464,0.017715,-23.28,1.8,18.18
3.7184,-0.35413,-9.1393,-0.029322,-0.014966,0.019853,-23.22,1.92,18.3
3.7184,-0.31327,-9.1393,-0.031765,-0.017104,0.020769,-23.22,1.92,18.3
3.6775,-0.40861,-9.0848,-0.029322,-0.012523,0.01741,-23.34,1.86,18.18
3.7184,-0.35413,-9.1393,-0.02474,-0.0033598,0.015577,-23.28,1.68,18.42
3.6503,-0.34051,-9.112,-0.033598,0.0030543,0.012523,-23.22,1.8,18.48
3.732,-0.32689,-9.0575,-0.0281,0.010996,0.007025,-23.04,1.62,18.36
3.732,-0.36775,-9.1393,-0.036957,0.016799,0.014355,-23.28,1.62,18.36
3.8273,-0.40861,-9.1256,-0.032681,0.017104,0.015577,-23.28,1.74,18.48
3.8001,-0.40861,-9.112,-0.026878,0.011301,0.01069,-23.28,1.62,18.42
3.8001,-0.42223,-9.1937,-0.036346,0.0039706,0.014661,-23.34,1.38,18.48
3.7728,-0.44947,-9.0439,-0.027794,-0.01405,0.024129,-23.28,1.38,18.42
3.7592,-0.40861,-9.1393,-0.0281,-0.021686,0.019853,-23.22,1.5,18.48
3.732,-0.38137,-9.112,-0.031765,-0.014661,0.016493,-23.28,1.38,18.54
3.6503,-0.39499,-9.1529,-0.035125,-0.0088575,0.011301,-23.34,1.38,18.6
3.6094,-0.31327,-9.1665,-0.040928,0.0015272,0.015272,-23.34,1.38,18.48
3.6639,-0.36775,-9.0984,-0.030543,0.014661,0.0051924,-23.28,1.44,18.54
3.7047,-0.31327,-9.1256,-0.030849,0.0048869,0.0064141,-23.28,1.2,18.42
3.732,-0.38137,-9.1256,-0.029322,0.002138,0.007025,-23.34,1.32,18.3
3.7728,-0.40861,-9.1256,-0.029016,0.000305,0.017104,-23.4,1.32,18.3
3.7728,-0.46309,-9.2482,-0.026878,-0.0048869,0.019548,-23.22,1.14,18.54
3.7047,-0.47671,-9.1529,-0.037874,-0.0064141,0.018631,-23.16,1.2,18.66
3.7456,-0.38137,-9.0848,-0.031154,-0.0051924,0.013744,-23.1,1.2,18.78
3.732,-0.35413,-9.0848,-0.038179,-0.0079412,0.012828,-23.22,1.26,18.66
3.7047,-0.35413,-9.1665,-0.026573,-0.0039706,0.019853,-23.34,1.2,18.72
3.7047,-0.32689,-9.0984,-0.026878,0.011606,0.017715,-23.46,1.38,18.66
3.8409,-0.29965,-9.0848,-0.035125,0.012828,0.01069,-23.52,1.38,18.54
3.8001,-0.32689,-9.1393,-0.032987,-0.0064141,0.013134,-23.52,1.38,18.6
3.8001,-0.27241,-9.0848,-0.031154,-0.0076358,0.012217,-23.52,1.5,18.54
3.6503,-0.38137,-9.1256,-0.025656,-0.0036652,0.007025,-23.52,1.5,18.6
3.7592,-0.36775,-9.112,-0.028405,0.002138,0.007025,-23.76,1.44,18.66
3.7456,-0.38137,-9.1529,-0.033292,0.0079412,0.012217,-23.94,1.38,18.6
3.7184,-0.44947,-9.0575,-0.038485,-0.0012217,0.01405,-23.88,1.56,18.3
3.7047,-0.35413,-9.0712,-0.034208,-0.0048869,0.0097738,-23.94,1.56,18.18
3.7047,-0.34051,-9.1529,-0.029932,0.0024435,0.018326,-23.82,1.62,18.24
3.7184,-0.40861,-9.221,-0.040012,0.000611,0.014966,-23.7,1.56,18.18
3.732,-0.34051,-9.1665,-0.029016,-0.0039706,0.01405,-23.76,1.56,18.3
3.7592,-0.31327,-9.221,-0.029016,-0.0036652,0.015882,-23.64,1.32,18.18
3.732,-0.32689,-9.221,-0.034208,0.0027489,0.015577,-23.64,1.32,18.3
3.7047,-0.40861,-9.1801,-0.034514,-0.0045815,0.0097738,-23.64,1.38,18.24
3.7047,-0.40861,-9.1937,-0.028711,-0.0027489,0.010079,-23.64,1.26,18.36
3.7184,-0.38137,-9.1801,-0.029627,-0.0054978,0.021075,-23.4,1.5,18.48
3.7456,-0.39499,-9.1393,-0.03146,-0.0030543,0.0061087,-23.28,1.5,18.42
3.6775,-0.36775,-9.1529,-0.032987,-0.0033598,0.019853,-23.1,1.5,18.48
3.7728,-0.35413,-9.0712,-0.033903,-0.0048869,0.012523,-23.1,1.38,18.54
3.8001,-0.34051,-9.1256,-0.034819,-0.0039706,0.013439,-22.98,1.38,18.6
3.7728,-0.38137,-9.1256,-0.030849,-0.0030543,0.019242,-23.16,1.44,18.6
3.732,-0.36775,-9.1937,-0.034514,0.0097738,0.013439,-23.22,1.56,18.6
3.6639,-0.34051,-9.1393,-0.035125,0.014966,0.0042761,-23.16,1.62,18.48
3.6775,-0.25879,-9.1256,-0.030849,0.022907,0.0076358,-23.22,1.8,18.42
3.8409,-0.34051,-9.1256,-0.029322,0.023824,0.0036652,-23.28,1.68,18.42
3.8137,-0.35413,-9.0439,-0.026267,0.014966,0.0061087,-23.34,1.62,18.36
3.8001,-0.38137,-9.1256,-0.032376,-0.013744,0.016188,-23.34,1.56,18.24
3.7456,-0.44947,-9.1256,-0.034208,-0.025045,0.023518,-23.7,1.44,18.24
3.8001,-0.46309,-9.112,-0.028711,-0.032681,0.028711,-23.7,1.56,18.24
3.7047,-0.40861,-9.112,-0.037568,-0.025045,0.0281,-23.64,1.62,18.12
3.7184,-0.31327,-9.1801,-0.036041,-0.012217,0.018326,-23.64,1.62,18.12
3.732,-0.31327,-9.0984,-0.035736,-0.0045815,0.013744,-23.7,1.8,18.06
3.6911,-0.24517,-9.1393,-0.038179,0.0042761,0.022907,-23.52,1.74,18.06
3.6911,-0.28603,-9.0439,-0.030543,0.012217,0.0064141,-23.52,1.68,18.06
3.6911,-0.28603,-9.1665,-0.025351,0.014661,0.0051924,-23.58,1.62,18.0
3.732,-0.31327,-9.1256,-0.0281,0.013744,0.013744,-23.64,1.62,18.0
3.7865,-0.44947,-9.0848,-0.030849,-0.0048869,0.0058032,-23.58,1.62,18.0
3.8137,-0.44947,-9.1256,-0.025962,-0.0064141,0.025656,-23.52,1.56,18.12
3.7728,-0.50395,-9.0848,-0.033292,-0.013439,0.022297,-23.4,1.62,18.12
3.7047,-0.44947,-9.112,-0.029016,-0.012217,0.018021,-23.22,1.74,18.18
3.623,-0.35413,-9.1937,-0.033903,0.000611,0.019548,-23.22,1.74,18.12
3.732,-0.31327,-9.0575,-0.040928,0.020464,0.015577,-23.28,1.68,18.24
3.8273,-0.39499,-9.0575,-0.032376,0.013744,0.017715,-23.28,1.62,18.42
3.732,-0.31327,-9.1256,-0.036346,-0.007025,0.0088575,-23.34,1.44,18.42
3.6366,-0.25879,-9.1801,-0.029016,-0.011912,0.0085521,-23.4,1.5,18.42
3.6503,-0.31327,-9.1665,-0.031765,-0.0073304,0.014661,-23.52,1.5,18.42
3.732,-0.39499,-9.1801,-0.039095,0.0015272,0.014661,-23.64,1.56,18.42
3.7728,-0.40861,-9.0712,-0.03543,-0.000916,0.0054978,-23.52,1.56,18.42
3.6911,-0.44947,-9.0712,-0.036346,0.0027489,0.011606,-23.58,1.62,18.48
3.7865,-0.38137,-9.1256,-0.033598,-0.0012217,0.019242,-23.58,1.68,18.54
3.7728,-0.40861,-9.0984,-0.033903,-0.0015272,0.016799,-23.58,1.8,18.66
3.7728,-0.35413,-9.1529,-0.038485,-0.0051924,0.024435,-23.82,1.68,18.6
3.7592,-0.28603,-9.0439,-0.0281,-0.013134,0.017715,-23.76,1.56,18.48
3.7047,-0.32689,-9.1256,-0.030238,-0.0073304,0.020769,-23.76,1.5,18.66
3.7592,-0.27241,-9.0575,-0.029016,-0.002138,0.011301,-23.64,1.68,18.42
3.7047,-0.35413,-9.0575,-0.023824,0.000611,0.0097738,-23.52,1.86,18.42
3.7456,-0.38137,-9.1393,-0.025351,-0.0015272,0.01069,-23.64,1.8,18.3
3.7184,-0.44947,-9.0712,-0.040012,0.0054978,0.013134,-23.7,1.86,18.18
3.7592,-0.34051,-9.1665,-0.034514,0.0054978,0.018021,-23.52,1.86,18.3
3.7184,-0.35413,-9.0984,-0.036041,0.0045815,0.016799,-23.58,1.92,18.3
3.7728,-0.39499,-9.1393,-0.036346,-0.011301,0.023824,-23.52,1.92,18.24
3.6639,-0.40861,-9.112,-0.034514,-0.0030543,0.023213,-23.58,1.8,18.24
3.6911,-0.35413,-9.0575,-0.036346,-0.0012217,0.018631,-23.52,1.74,18.12
3.7592,-0.36775,-9.1256,-0.03207,-0.0045815,0.02138,-23.64,1.98,17.94
3.7456,-0.40861,-9.0848,-0.03543,-0.0018326,0.019242,-23.46,1.98,17.88
3.8001,-0.31327,-9.1256,-0.038485,-0.000305,0.014661,-23.52,2.1,17.82
3.6775,-0.31327,-9.2755,-0.034208,0.000305,0.014661,-23.64,2.04,17.94
3.7184,-0.35413,-9.1665,-0.036652,-0.0024435,0.012828,-23.7,1.98,17.88
3.7592,-0.38137,-9.1937,-0.03146,-0.0054978,0.018937,-23.7,1.98,17.88
3.6911,-0.40861,-9.1801,-0.035125,0.002138,0.015882,-23.58,1.92,17.82
3.732,-0.38137,-9.1529,-0.03879,0.0030543,0.019548,-23.58,1.74,17.82
3.6911,-0.34051,-9.1937,-0.032681,-0.0024435,0.016799,-23.64,1.74,17.82
3.7047,-0.35413,-9.0575,-0.030238,0.000305,0.019548,-23.7,1.74,17.94
3.6775,-0.34051,-9.2482,-0.034208,0.000305,0.019242,-23.64,1.8,17.88
3.7047,-0.36775,-9.0984,-0.035125,-0.000916,0.017104,-23.52,1.8,17.64
3.7047,-0.40861,-9.0575,-0.035125,0.0036652,0.012523,-23.58,1.62,17.94
3.7728,-0.39499,-9.0848,-0.032376,-0.002138,0.015577,-23.58,1.62,18.12
3.7456,-0.35413,-9.112,-0.033903,0.0024435,0.02138,-23.7,1.74,18.24
3.7456,-0.36775,-9.0712,-0.032987,0.0064141,0.016799,-23.64,1.8,18.18
3.7184,-0.38137,-9.0712,-0.029016,0.0048869,0.01069,-23.52,1.74,18.24
3.8273,-0.40861,-9.0575,-0.032681,0.0015272,0.012523,-23.7,1.74,18.3
3.7728,-0.36775,-9.0712,-0.026267,-0.0018326,0.013134,-23.7,1.68,18.42
3.6639,-0.39499,-9.1529,-0.036957,-0.0015272,0.022297,-23.64,1.8,18.48
3.6366,-0.40861,-9.2074,-0.027489,-0.0018326,0.014966,-23.64,1.8,18.66
3.732,-0.38137,-9.1801,-0.036041,0.014661,0.012523,-23.58,1.74,18.6
3.8001,-0.31327,-9.0575,-0.036652,0.014966,0.015882,-23.58,1.62,18.78
3.7865,-0.32689,-9.0575,-0.031154,-0.018021,0.0088575,-23.58,1.74,18.9
3.6639,-0.39499,-9.1937,-0.03146,-0.015272,0.017104,-23.52,1.62,18.84
