Ax,Ay,Az,Gx,Gy,Gz,Mx,My,Mz
6.7966,-0.12258,-7.1098,-0.035125,0.000611,0.018021,-20.52,-10.86,33.12
6.8374,-0.10896,-7.1098,-0.038179,-0.0097738,0.019548,-20.4,-10.86,33.06
6.7012,-0.10896,-7.2052,-0.033292,-0.0079412,0.018021,-20.46,-10.74,33.12
6.8919,-0.054481,-7.246,-0.039401,0.0027489,0.016188,-20.22,-10.74,33.0
6.9055,-0.095342,-7.246,-0.036957,-0.0024435,0.02474,-20.28,-10.74,32.88
6.851,-0.068102,-7.1915,-0.038179,-0.0027489,0.02138,-20.28,-10.68,32.82
6.8374,-0.027241,-7.1915,-0.036041,-0.0018326,0.016799,-20.28,-10.62,32.82
6.8102,-0.054481,-7.1779,-0.037568,-0.009163,0.012828,-20.28,-10.56,32.88
6.8238,-0.095342,-7.1371,-0.031765,-0.0094684,0.014966,-20.1,-10.38,32.76
6.7966,-0.054481,-7.1234,-0.032987,-0.011912,0.016188,-20.1,-10.44,32.64
6.7966,-0.095342,-7.1507,-0.028711,-0.0027489,0.012523,-20.22,-10.56,32.7
6.8238,-0.081722,-7.0962,-0.032376,0.0027489,0.019853,-20.4,-10.44,32.64
6.851,-0.054481,-7.1779,-0.035125,0.0039706,0.019853,-20.34,-10.32,32.7
6.7421,-0.14982,-7.1507,-0.032987,-0.0024435,0.01405,-20.34,-10.5,32.76
6.7557,-0.095342,-7.1234,-0.030849,-0.0042761,0.01741,-20.46,-10.62,32.82
6.8374,-0.027241,-7.0826,-0.034208,0.002138,0.019242,-20.4,-10.68,32.94
6.8647,-0.081722,-7.1779,-0.036041,-0.0033598,0.016799,-20.4,-10.68,33.06
6.7693,-0.081722,-7.1234,-0.033903,-0.0051924,0.014966,-20.34,-10.74,33.12
6.8238,-0.095342,-7.1507,-0.030543,-0.0067195,0.011606,-20.28,-10.8,33.18
6.8647,-0.081722,-7.1915,-0.039095,-0.0064141,0.01405,-20.22,-10.8,33.18
6.7693,-0.1362,-7.0553,-0.043982,-0.010079,0.015577,-20.22,-10.86,33.3
6.7829,-0.068102,-7.1371,-0.037263,-0.0097738,0.019242,-20.34,-10.92,33.48
6.8102,-0.16344,-7.1234,-0.030238,-0.010385,0.011606,-20.28,-10.86,33.6
6.7829,-0.081722,-7.2188,-0.038179,-0.0082467,0.012523,-20.16,-10.98,33.6
6.7693,-0.10896,-7.1915,-0.030238,-0.009163,0.018631,-20.04,-10.98,33.54
6.8238,-0.14982,-7.1643,-0.03146,-0.000305,0.016799,-20.16,-10.92,33.48
6.851,-0.081722,-7.2052,-0.03146,0.000916,0.015882,-20.16,-10.74,33.54
6.9328,-0.10896,-7.0962,-0.029627,0.0018326,0.012523,-20.16,-10.68,33.42
6.8919,-0.19068,-7.0553,-0.0281,0.0018326,0.01405,-20.28,-10.62,33.3
6.7966,-0.10896,-7.1234,-0.040928,0.0036652,0.012217,-20.34,-10.44,33.12
6.7693,-0.10896,-7.1507,-0.031765,-0.0027489,0.012523,-20.46,-10.38,33.12
6.851,-0.095342,-7.2869,-0.03543,-0.0058032,0.017104,-20.52,-10.5,33.12
6.7966,-0.068102,-7.2869,-0.03879,0.000611,0.012217,-20.52,-10.44,33.0
6.7693,-0.081722,-7.2188,-0.038179,0.010079,0.019853,-20.4,-10.44,33.12
6.8102,-0.095342,-7.1643,-0.030849,0.0058032,0.011606,-20.28,-10.56,32.88
6.7966,-0.027241,-7.1779,-0.023213,0.0045815,0.011912,-20.34,-10.8,33.12
6.7966,-0.068102,-7.1098,-0.031154,-0.002138,0.012828,-20.4,-10.92,33.12
6.7557,-0.040861,-7.1371,-0.03543,-0.002138,0.0073304,-20.16,-10.92,33.12
6.8374,-0.12258,-7.1779,-0.037568,0.0054978,0.010385,-20.04,-11.04,33.06
6.8374,-0.12258,-7.1643,-0.041844,0.000305,0.01405,-20.16,-11.04,33.0
6.7693,-0.10896,-7.1915,-0.031765,0.000305,0.010385,-20.1,-10.98,33.12
6.7966,-0.12258,-7.1915,-0.040623,0.007025,0.014661,-20.04,-11.22,33.12
6.7557,-0.095342,-7.2052,-0.027184,0.0033598,0.019242,-19.8,-11.1,33.18
6.8102,-0.095342,-7.246,-0.037263,0.0027489,0.014355,-19.74,-11.16,33.18
6.851,-0.081722,-7.1915,-0.041844,0.0061087,0.021686,-19.74,-11.1,33.24
6.8238,-0.054481,-7.2052,-0.040012,0.0054978,0.017104,-19.92,-11.1,33.24
6.7557,-0.027241,-7.1643,-0.029932,0.002138,0.013439,-19.98,-11.04,33.36
6.9464,-0.095342,-7.1234,-0.036957,0.0024435,0.014966,-19.98,-11.1,33.3
6.8374,-0.095342,-7.0962,-0.030238,0.0058032,0.010996,-19.92,-10.92,33.3
6.8919,-0.1362,-7.1915,-0.033292,0.007025,0.0097738,-19.98,-10.8,33.24
6.8374,-0.12258,-7.2188,-0.030849,0.012217,0.014661,-20.1,-10.8,33.24
6.7966,-0.12258,-7.1915,-0.035736,0.0088575,0.018021,-20.04,-10.74,33.24
6.8374,-0.054481,-7.1779,-0.031765,0.0088575,0.015882,-19.86,-10.92,33.12
6.7693,-0.12258,-7.1915,-0.034514,0.0082467,0.015272,-19.86,-10.86,33.24
6.851,-0.095342,-7.1915,-0.029322,0.000916,0.012828,-19.92,-10.98,33.3
6.8374,-0.027241,-7.1643,-0.035736,0.0012217,0.016799,-19.86,-10.86,33.12
6.7829,-0.027241,-7.1507,-0.035736,0.0061087,0.010996,-19.8,-10.98,33.12
6.7829,-0.054481,-7.1507,-0.040012,0.011912,0.017715,-19.92,-10.98,33.0
6.8374,-0.027241,-7.1507,-0.040012,0.019242,0.014661,-19.92,-10.92,33.06
6.8374,-0.081722,-7.0826,-0.030238,0.013744,0.009163,-19.8,-10.86,33.06
6.8647,-0.054481,-7.1234,-0.040317,0.019242,0.013134,-19.74,-10.8,33.0
6.9055,-0.054481,-7.0962,-0.033292,0.014661,0.012523,-19.86,-10.86,33.06
6.8647,-0.081722,-7.0962,-0.035125,0.0042761,0.014661,-19.86,-10.92,33.0
6.8374,-0.068102,-7.1915,-0.02474,0.009163,0.01069,-19.74,-10.86,33.06
6.851,-0.040861,-7.1643,-0.028711,-0.0030543,0.0088575,-19.86,-10.8,33.06
6.7966,-0.054481,-7.1507,-0.037263,0.009163,0.0073304,-19.86,-10.8,32.94
6.8374,-0.10896,-7.0553,-0.030543,0.0064141,0.0058032,-19.98,-10.86,33.06
6.8374,-0.10896,-7.1234,-0.040623,0.015577,0.015882,-19.98,-10.92,33.06
6.7966,-0.12258,-7.1507,-0.03207,0.011606,0.01741,-19.92,-10.74,33.06
6.8783,-0.12258,-7.1643,-0.04215,0.0097738,0.018631,-19.86,-10.8,33.12
6.7966,-0.1362,-7.0826,-0.034208,0.0051924,0.01741,-19.92,-10.86,33.06
6.7829,-0.10896,-7.1507,-0.035125,0.0054978,0.018326,-19.92,-10.86,33.0
6.7966,-0.095342,-7.0962,-0.033903,0.0012217,0.014966,-20.04,-10.86,32.94
6.8647,-0.068102,-7.1915,-0.025656,0.0085521,0.011606,-20.22,-10.98,32.76
6.8919,-0.027241,-7.1915,-0.034514,0.0015272,0.011301,-20.22,-10.86,32.88
6.8374,-0.01362,-7.2052,-0.026573,-0.0018326,0.013439,-20.46,-10.8,32.82
6.9055,0.01362,-7.1643,-0.03207,-0.002138,0.015882,-20.46,-10.74,32.88
6.9191,0.01362,-7.1234,-0.037874,-0.011606,0.018021,-20.52,-10.68,33.06
6.9328,-0.027241,-7.1643,-0.025962,-0.0039706,0.0067195,-20.64,-10.62,32.88
6.8647,-0.12258,-7.0826,-0.03207,-0.0058032,0.017715,-20.76,-10.5,32.7
6.8374,-0.095342,-7.1234,-0.033903,-0.0015272,0.0085521,-20.76,-10.68,32.7
6.8374,-0.14982,-7.1234,-0.037263,0.010385,0.0097738,-20.76,-10.62,32.7
6.851,-0.19068,-7.1779,-0.043677,0.010079,0.016493,-20.76,-10.5,32.7
6.8647,-0.12258,-7.1098,-0.037874,-0.0048869,0.014966,-20.76,-10.44,32.94
6.8919,-0.068102,-7.1915,-0.040012,-0.0064141,0.028711,-20.58,-10.5,33.12
6.8647,-0.040861,-7.1643,-0.041844,-0.012217,0.023213,-20.7,-10.62,33.18
6.7966,-0.040861,-7.0826,-0.042761,-0.014966,0.028405,-20.34,-10.56,33.06
6.8919,-0.040861,-7.069,-0.049175,-0.0088575,0.03146,-20.4,-10.68,33.18
6.9736,0.027241,-7.0281,-0.044288,-0.0094684,0.032376,-20.28,-10.68,33.12
6.9464,-0.054481,-6.9328,-0.036652,-0.021991,0.024129,-20.22,-10.86,33.24
7.0826,-0.027241,-6.6876,-0.036041,-0.019853,0.029322,-20.1,-10.92,33.3
7.2188,-0.01362,-6.7148,-0.007025,-0.10537,0.0076358,-19.98,-10.86,33.48
6.8783,-0.068102,-7.3277,0.0281,-0.24099,-0.018631,-19.98,-10.8,33.24
6.674,-0.16344,-7.4503,0.037263,-0.25137,-0.039706,-19.98,-10.74,33.42
6.2926,-0.19068,-7.6546,0.01069,-0.12737,-0.0281,-19.86,-10.68,33.42
6.2926,-0.14982,-7.4912,-0.0042761,0.010079,-0.014661,-19.86,-10.5,33.36
6.5786,-0.095342,-7.4367,-0.032376,0.059559,-0.0039706,-19.92,-10.5,33.3
6.6059,-0.16344,-7.4095,-0.027794,0.056505,0.0042761,-19.8,-10.38,33.54
6.6059,-0.1362,-7.3686,-0.010385,0.047342,-0.0018326,-19.86,-10.38,33.6
6.6331,-0.10896,-7.3414,-0.0036652,0.043371,-0.012828,-20.1,-10.38,33.78
6.5514,-0.12258,-7.3005,-0.0097738,0.078802,0.0027489,-20.1,-10.38,33.72
6.5922,-0.1362,-7.355,-0.01405,0.10507,-0.0033598,-19.98,-10.32,33.66
6.7966,-0.12258,-7.1371,-0.016799,0.12401,0.0051924,-19.98,-10.26,33.54
7.0281,0.027241,-7.0281,-0.017104,0.1069,0.000611,-20.16,-10.38,33.48
7.0553,0.054481,-7.0553,-0.0061087,0.06017,-0.0027489,-20.04,-10.38,33.54
7.0009,0.040861,-7.1507,0.0012217,0.020769,-0.0085521,-20.1,-10.32,33.36
6.9328,-0.040861,-7.0281,-0.0027489,0.0027489,-0.002138,-20.1,-10.5,33.42
6.8919,-0.054481,-6.9872,-0.0085521,0.011912,-0.0094684,-20.1,-10.56,33.24
6.9055,-0.10896,-7.0962,-0.016799,0.024435,-0.0094684,-20.1,-10.68,33.12
6.7966,-0.12258,-7.2324,-0.022907,0.023213,-0.0015272,-20.1,-10.56,32.94
6.7693,-0.10896,-7.2324,-0.024435,0.037568,0.0024435,-20.04,-10.5,32.94
6.8238,-0.21793,-7.246,-0.034514,0.055894,0.011606,-19.92,-10.56,32.64
6.8238,-0.21793,-7.246,-0.041844,0.047953,0.016493,-19.92,-10.56,32.64
6.8374,-0.19068,-7.1507,-0.042761,0.045509,0.016799,-20.04,-10.62,32.64
6.8919,-0.24517,-7.1098,-0.053451,0.019548,0.032987,-20.16,-10.5,32.58
6.8647,-0.14982,-7.0962,-0.051007,0.007025,0.034819,-20.1,-10.32,32.64
6.8919,-0.068102,-7.1643,-0.055589,-0.0027489,0.036041,-20.04,-10.32,32.76
6.8919,-0.068102,-7.1507,-0.053145,0.0024435,0.03543,-19.86,-10.5,32.94
6.851,-0.054481,-7.2324,-0.042455,-0.002138,0.028405,-19.92,-10.5,32.88
6.8647,-0.027241,-7.1507,-0.033903,0.015882,0.0079412,-19.98,-10.5,32.88
6.851,-0.068102,-7.1915,-0.030238,0.020769,0.0079412,-19.92,-10.5,32.94
6.9328,-0.081722,-7.1507,-0.027794,0.043066,-0.010996,-19.8,-10.5,33.0
6.7966,-0.054481,-7.1234,-0.01741,0.037568,-0.018937,-19.98,-10.56,32.94
6.8647,-0.12258,-7.1098,-0.0061087,0.033292,-0.025351,-20.04,-10.56,32.88
6.7693,-0.095342,-7.1779,-0.0012217,0.047953,-0.030238,-19.74,-10.5,32.88
6.7966,-0.14982,-7.1234,-0.0054978,0.051924,-0.030849,-19.68,-10.44,32.88
6.8647,-0.054481,-7.1234,-0.01069,0.058338,-0.030543,-19.68,-10.62,32.94
6.8647,-0.12258,-7.0553,-0.018021,0.069333,-0.023824,-19.74,-10.74,32.88
6.96,-0.19068,-7.069,-0.02138,0.067195,-0.024435,-19.8,-10.74,32.82
6.9872,-0.10896,-6.9328,-0.019853,0.039401,-0.015577,-19.98,-10.74,32.82
6.8919,-0.28603,-7.0553,0.020769,-0.034208,-0.076969,-20.16,-10.86,32.94
6.7557,0.027241,-6.96,0.0082467,0.019853,-0.061087,-20.16,-10.86,32.88
6.9872,0.027241,-7.0962,0.0039706,0.036346,-0.014661,-20.22,-10.74,32.94
6.9736,0.027241,-7.0553,0.0042761,0.032681,-0.076969,-20.58,-10.86,32.94
6.9872,-0.095342,-7.0009,0.029932,-0.0064141,-0.044593,-20.64,-10.92,32.94
6.9736,-0.095342,-7.0553,0.022907,-0.016799,-0.058948,-20.58,-10.92,33.0
7.0417,-0.027241,-7.0826,0.015272,-0.026267,-0.051313,-20.76,-10.86,32.94
6.9872,-0.027241,-7.0009,0.018631,-0.027184,-0.05284,-20.76,-10.86,33.06
6.9328,-0.068102,-7.0962,0.0082467,-0.0281,-0.041844,-20.82,-10.92,33.0
6.9464,-0.054481,-6.9872,-0.0088575,-0.036041,-0.030543,-20.76,-10.8,32.88
7.069,-0.027241,-7.0962,-0.016493,-0.019548,-0.0045815,-20.64,-10.74,32.82
7.0281,-0.054481,-7.0281,-0.029627,-0.01405,0.010996,-20.4,-10.74,32.82
6.9872,-0.12258,-7.0962,-0.037568,-0.039706,0.026573,-20.4,-10.74,32.64
6.8919,-0.095342,-7.0553,-0.040928,-0.053756,0.036652,-20.46,-10.56,32.58
6.8374,-0.14982,-7.0962,-0.040623,-0.05284,0.036041,-20.4,-10.68,32.52
6.851,-0.095342,-7.1234,-0.045509,-0.046426,0.039095,-20.16,-10.74,32.52
6.8374,-0.095342,-7.0962,-0.045204,-0.041233,0.030543,-20.1,-10.68,32.64
6.8102,-0.095342,-7.1915,-0.039401,-0.042455,0.033292,-20.1,-10.74,32.64
6.8919,0.027241,-7.1371,-0.040623,-0.019548,0.030238,-20.1,-10.98,32.64
6.8919,0.027241,-7.1371,-0.040623,-0.019548,0.030238,-20.1,-10.98,32.64
6.851,-0.040861,-7.0962,-0.041844,-0.015272,0.032681,-20.04,-10.92,32.64
6.8647,-0.068102,-7.0962,-0.043371,-0.010996,0.032681,-20.04,-10.74,32.76
6.8374,-0.054481,-7.0962,-0.043677,-0.0045815,0.030849,-19.98,-10.8,32.76
6.8919,-0.095342,-7.0417,-0.044288,-0.0036652,0.028711,-19.98,-10.8,32.7
6.851,-0.040861,-7.0553,-0.045509,0.0039706,0.030849,-20.04,-10.68,32.76
6.9328,-0.095342,-7.2324,-0.042455,0.0067195,0.03207,-19.68,-10.8,33.18
6.7966,-0.054481,-7.246,-0.041539,0.0033598,0.027489,-19.56,-10.68,33.24
6.8374,-0.10896,-7.1234,-0.04215,0.0036652,0.026878,-19.26,-10.62,33.18
6.8647,-0.081722,-7.1507,-0.027489,0.0018326,0.017104,-19.26,-10.5,33.24
6.9191,-0.054481,-7.1779,-0.030849,0.002138,0.012523,-19.08,-10.44,33.18
6.8919,-0.054481,-7.0417,-0.026573,0.0061087,0.013134,-18.96,-10.5,33.06
6.8647,-0.19068,-7.1234,-0.02474,0.0073304,0.0061087,-18.96,-10.44,33.3
6.8647,-0.14982,-7.1371,-0.025656,0.01069,0.0054978,-19.02,-10.5,33.3
6.8647,0.027241,-7.1779,-0.026573,-0.000305,0.020159,-18.96,-10.56,33.18
6.9328,0.01362,-7.1507,-0.034819,0.0097738,0.02138,-19.32,-10.5,33.12
6.96,-0.081722,-7.1507,-0.034819,0.01069,0.022297,-19.38,-10.32,33.12
6.9055,-0.068102,-7.1779,-0.036346,0.027184,0.023824,-19.44,-10.44,33.12
6.851,-0.081722,-7.0962,-0.038179,0.02474,0.0024435,-19.38,-10.44,33.18
6.7966,-0.068102,-7.2324,-0.033598,0.057421,0.014966,-19.56,-10.38,33.06
6.9055,-0.095342,-7.1098,-0.034819,0.056505,0.0097738,-19.5,-10.38,33.06
6.9191,-0.068102,-7.0281,-0.025656,0.048564,0.010079,-19.5,-10.44,33.0
6.9328,-0.068102,-7.0009,-0.03207,0.02474,0.0033598,-19.68,-10.38,32.88
6.9736,-0.068102,-7.0553,-0.03146,-0.0033598,0.0067195,-19.68,-10.44,32.88
6.8919,-0.054481,-7.2052,-0.029932,-0.018021,0.013439,-19.68,-10.44,32.76
6.8919,-0.027241,-7.1507,-0.033292,-0.019242,0.018021,-19.62,-10.44,32.76
6.8374,-0.095342,-7.1915,-0.039401,-0.01741,0.018021,-19.74,-10.56,32.7
6.8647,-0.095342,-7.1643,-0.040317,-0.022602,0.023518,-19.56,-10.5,32.64
6.9055,-0.081722,-7.0553,-0.046731,-0.023213,0.029627,-19.5,-10.5,32.52
6.8647,-0.054481,-7.1234,-0.035125,-0.022602,0.02474,-19.62,-10.62,32.7
6.8647,-0.054481,-7.1234,-0.029627,-0.019853,0.021686,-19.74,-10.56,32.64
6.9055,-0.027241,-7.0962,-0.032376,-0.0079412,0.018631,-19.8,-10.56,32.52
6.9191,-0.095342,-7.069,-0.029627,-0.0039706,0.018937,-19.74,-10.56,32.64
6.9055,-0.068102,-6.9872,-0.03146,-0.0024435,0.01405,-19.92,-10.68,32.82
6.8647,-0.095342,-7.1234,-0.022907,-0.010996,0.012217,-19.86,-10.68,32.82
6.8374,-0.054481,-7.069,-0.033292,-0.011912,0.01405,-19.86,-10.8,32.82
6.8238,-0.027241,-7.1371,-0.0281,-0.0073304,0.014355,-19.86,-10.74,32.82
6.8374,-0.054481,-7.1507,-0.036957,0.000611,0.0088575,-19.86,-10.68,32.82
6.9328,-0.10896,-7.0962,-0.03879,0.0024435,0.01405,-19.86,-10.68,32.88
6.9736,-0.040861,-7.1371,-0.024129,-0.013134,0.012217,-19.92,-10.68,32.94
6.8647,-0.095342,-7.1371,-0.029932,-0.020464,0.016188,-20.1,-10.74,33.0
6.8783,-0.21793,-7.1234,-0.020159,-0.027489,0.010996,-20.04,-10.68,32.88
6.851,-0.12258,-7.0553,-0.033903,-0.030238,0.017104,-19.98,-10.62,33.12
6.9055,-0.10896,-7.1915,-0.039401,-0.025962,0.019242,-19.86,-10.56,33.12
6.8102,-0.081722,-7.1915,-0.039095,-0.021686,0.026573,-19.8,-10.56,33.18
6.8102,-0.095342,-7.1234,-0.039095,-0.02474,0.027489,-19.92,-10.5,33.0
6.9464,-0.040861,-7.0417,-0.041233,-0.014966,0.02474,-20.04,-10.5,33.12
6.8647,-0.040861,-7.1098,-0.040928,-0.0073304,0.023518,-20.04,-10.62,33.18
6.851,-0.01362,-7.0962,-0.037568,-0.01069,0.025962,-20.22,-10.56,33.18
6.8647,-0.081722,-7.1234,-0.03543,-0.011912,0.019548,-20.16,-10.62,33.12
6.8374,-0.054481,-7.1507,-0.033903,-0.014355,0.01741,-20.1,-10.56,33.12
6.8647,-0.027241,-7.069,-0.03146,-0.010385,0.01069,-19.98,-10.62,33.12
6.7966,-0.068102,-7.2188,-0.029322,-0.022907,0.019242,-19.98,-10.62,33.12
6.8374,-0.12258,-7.1234,-0.037874,-0.02138,0.017104,-19.98,-10.68,33.12
6.7829,-0.1362,-7.1371,-0.038485,-0.014661,0.01405,-19.98,-10.86,33.06
6.8374,-0.14982,-7.1507,-0.034514,-0.011301,0.013439,-19.98,-10.86,33.06
6.8374,-0.12258,-7.2324,-0.04612,-0.000305,0.021991,-20.1,-11.04,33.18
6.8102,-0.12258,-7.1507,-0.041539,-0.0054978,0.021991,-20.1,-11.1,33.24
6.8102,-0.027241,-7.1234,-0.038485,-0.011912,0.022602,-20.16,-11.1,33.3
6.8102,-0.027241,-7.1507,-0.031765,-0.01405,0.019853,-20.1,-10.92,33.24
6.8102,-0.095342,-7.1507,-0.026573,-0.0048869,0.011301,-20.1,-10.92,33.12
6.8374,-0.040861,-7.1643,-0.027489,0.014661,0.016188,-20.16,-10.86,33.3
6.8374,-0.040861,-7.0826,-0.028711,0.014661,0.0097738,-20.1,-10.92,33.3
6.8919,-0.01362,-7.1779,-0.023518,0.0061087,0.013744,-20.1,-10.68,33.36
6.7966,-0.081722,-7.1915,-0.030238,0.0036652,0.0051924,-20.1,-10.74,33.36
6.8102,-0.054481,-7.2324,-0.03207,0.002138,0.01405,-20.22,-10.74,33.42
6.8374,-0.095342,-7.1371,-0.027489,0.002138,0.019242,-20.1,-10.56,33.3
6.851,-0.054481,-7.1507,-0.034208,0.0042761,0.016188,-20.1,-10.62,33.36
6.8647,-0.068102,-7.1371,-0.038179,0.0085521,0.014661,-19.98,-10.56,33.12
6.8647,-0.095342,-7.069,-0.027794,0.0079412,0.010996,-19.8,-10.5,33.06
6.8374,-0.12258,-7.246,-0.028405,0.0024435,0.011606,-19.8,-10.5,33.0
6.8647,-0.081722,-7.1643,-0.026573,0.0064141,0.012523,-19.92,-10.44,32.94
6.8374,-0.054481,-7.1915,-0.033903,-0.000916,0.018326,-19.86,-10.56,33.12
6.8102,-0.040861,-7.1507,-0.035125,-0.0012217,0.01405,-19.86,-10.56,33.06
6.7966,-0.040861,-7.1234,-0.040928,-0.0012217,0.023213,-19.8,-10.56,33.06
6.8647,-0.054481,-7.1779,-0.048564,0.0064141,0.026878,-19.86,-10.62,33.18
6.8102,-0.095342,-7.1371,-0.045204,0.0058032,0.022297,-19.8,-10.62,33.24
6.7693,-0.16344,-7.0962,-0.036957,0.0064141,0.015272,-19.8,-10.62,33.36
6.8374,-0.095342,-7.1234,-0.03879,0.0024435,0.017715,-19.92,-10.62,33.24
6.7966,-0.068102,-7.2052,-0.027794,-0.0036652,0.019242,-20.1,-10.62,33.3
6.8102,-0.081722,-7.1507,-0.040623,0.0015272,0.016799,-20.28,-10.5,33.36
6.8374,-0.068102,-7.0962,-0.03543,0.0061087,0.012523,-20.28,-10.32,33.42
6.8374,-0.040861,-7.1507,-0.036346,0.0094684,0.014966,-20.22,-10.38,33.36
6.851,-0.081722,-7.1098,-0.034819,0.000611,0.018021,-19.92,-10.38,33.54
6.8374,-0.01362,-7.1234,-0.039401,0.0045815,0.016493,-20.04,-10.2,33.42
6.851,-0.027241,-7.1234,-0.039706,0.011301,0.018326,-19.98,-10.14,33.36
6.9055,-0.10896,-7.1234,-0.041233,0.0048869,0.014661,-20.1,-10.08,33.3
6.9055,-0.054481,-7.1779,-0.032376,-0.0064141,0.011912,-19.98,-10.08,33.12
6.8374,-0.081722,-7.1507,-0.029322,-0.0061087,0.0079412,-19.92,-10.02,33.12
6.8374,-0.027241,-7.0962,-0.035125,0.010079,0.015882,-19.92,-10.14,33.0
6.8919,-0.081722,-7.1507,-0.029627,0.015577,0.01069,-19.92,-10.14,33.18
6.9191,-0.081722,-7.1507,-0.039706,0.0042761,0.018631,-19.74,-10.2,33.12
6.8374,-0.081722,-7.1643,-0.043371,-0.000916,0.021075,-19.74,-10.32,33.06
6.8647,-0.081722,-7.1643,-0.036652,0.0015272,0.019853,-19.92,-10.5,33.0
6.851,-0.081722,-7.1643,-0.041844,0.010079,0.03146,-19.86,-10.62,33.0
6.8647,-0.068102,-7.1371,-0.047037,0.0088575,0.02474,-20.1,-10.56,32.82
6.8647,-0.068102,-7.1507,-0.036652,0.007025,0.015577,-20.04,-10.74,32.82
6.8102,-0.068102,-7.1234,-0.038179,0.000916,0.020769,-20.1,-10.98,33.12
6.8374,-0.054481,-7.1643,-0.029932,-0.011912,0.021991,-19.98,-11.22,33.18
6.8647,-0.01362,-7.1234,-0.030238,-0.0018326,0.019548,-20.04,-11.16,33.24
6.8238,-0.040861,-7.1234,-0.040928,0.0033598,0.013134,-20.1,-11.16,33.18
6.9055,-0.027241,-7.1234,-0.030849,0.0067195,0.020464,-20.1,-11.1,33.18
6.8783,-0.01362,-7.1234,-0.02474,0.0015272,0.0076358,-20.1,-10.86,33.3
6.9328,-0.01362,-7.1643,-0.030238,0.0033598,-0.0015272,-20.28,-10.86,33.36
6.9464,-0.040861,-7.1098,-0.023824,0.010996,0.0027489,-20.1,-10.68,33.42
6.9328,0.01362,-7.1098,-0.021991,-0.0033598,0.0058032,-19.98,-10.44,33.54
6.9055,-0.10896,-7.0826,-0.023213,-0.011606,0.000611,-19.98,-10.44,33.48
6.9191,-0.081722,-7.1915,-0.027184,-0.010996,0.018021,-19.86,-10.5,33.72
6.8919,-0.068102,-7.1234,-0.025656,-0.0067195,0.0018326,-19.98,-10.56,33.72
6.9055,-0.12258,-7.0962,-0.023518,-0.013744,0.012523,-19.92,-10.32,33.66
6.7966,-0.054481,-7.2188,-0.032681,-0.021686,0.014661,-19.98,-10.26,33.54
6.7285,-0.12258,-7.2596,-0.0281,-0.016799,0.013439,-19.86,-10.32,33.54
6.7693,-0.12258,-7.2188,-0.036652,-0.000916,0.01405,-19.92,-10.32,33.6
6.8647,-0.1362,-7.2052,-0.024435,-0.0033598,0.0085521,-20.16,-10.32,33.72
6.8374,-0.054481,-7.1643,-0.026573,-0.0054978,0.010996,-20.1,-10.38,33.6
6.7829,-0.027241,-7.2052,-0.036346,-0.0094684,0.014966,-20.04,-10.38,33.72
6.8647,-0.027241,-7.1371,-0.029932,-0.0048869,0.011912,-20.22,-10.38,33.66
6.8919,-0.027241,-7.1779,-0.033903,0.0051924,0.017715,-20.22,-10.38,33.72
6.8374,-0.068102,-7.1915,-0.03207,0.011606,0.015882,-20.34,-10.38,33.78
6.9055,-0.027241,-7.1098,-0.034819,0.0097738,0.017715,-20.58,-10.2,33.78
6.9736,-0.054481,-7.1915,-0.029322,-0.0079412,0.018021,-20.46,-10.14,33.66
6.96,-0.095342,-7.0962,-0.032681,-0.016799,0.017104,-20.52,-10.14,33.66
6.8647,-0.095342,-7.3277,-0.030849,-0.022907,0.020769,-20.46,-9.96,33.66
6.8374,-0.12258,-7.1915,-0.03543,-0.021075,0.021075,-20.52,-10.02,33.6
6.8238,-0.081722,-7.1915,-0.035125,-0.017715,0.019853,-20.52,-10.08,33.48
6.7829,-0.068102,-7.2188,-0.041844,-0.018631,0.017715,-20.22,-10.08,33.24
6.7693,-0.054481,-7.1507,-0.034208,-0.013744,0.020769,-20.22,-10.14,33.3
6.8374,-0.027241,-7.1234,-0.025656,-0.009163,0.012523,-20.22,-10.14,33.18
6.8647,-0.081722,-7.0962,-0.036652,-0.007025,0.019853,-19.98,-10.08,33.24
6.9328,-0.054481,-7.069,-0.032376,-0.0079412,0.023213,-19.92,-10.2,33.12
6.851,-0.040861,-7.2324,-0.037263,-0.010385,0.020159,-19.86,-10.26,33.12
6.8647,-0.068102,-7.1507,-0.034819,-0.0094684,0.019242,-19.98,-10.26,33.0
6.8102,-0.081722,-7.1915,-0.03146,-0.01405,0.012523,-19.86,-10.38,33.12
6.7966,-0.095342,-7.1371,-0.0281,-0.0076358,0.014661,-19.74,-10.44,33.06
6.8647,-0.10896,-7.1371,-0.029627,-0.0076358,0.01069,-19.86,-10.5,33.0
6.851,-0.081722,-7.1507,-0.030543,-0.0088575,0.01069,-19.74,-10.56,33.06
6.8647,-0.12258,-7.0962,-0.028405,-0.017104,0.017715,-19.68,-10.5,33.12
6.8647,-0.12258,-7.246,-0.021075,-0.029322,0.015577,-19.68,-10.62,33.06
6.8374,-0.10896,-7.2188,-0.024129,-0.032681,0.011301,-19.74,-10.56,33.24
6.8102,-0.081722,-7.246,-0.030543,-0.030238,0.020464,-19.68,-10.56,33.18
6.7285,-0.081722,-7.2324,-0.035125,-0.022907,0.026573,-19.74,-10.56,33.24
6.7829,-0.040861,-7.1371,-0.036652,-0.01741,0.017715,-19.8,-10.74,33.18
6.8102,-0.027241,-7.2052,-0.03543,-0.01405,0.020769,-19.74,-10.68,33.12
6.8102,-0.027241,-7.1779,-0.031154,-0.0088575,0.013439,-19.44,-10.68,33.0
6.7966,-0.095342,-7.1779,-0.030849,0.000611,0.018021,-19.38,-10.56,33.0
6.8102,-0.040861,-7.1915,-0.031154,0.009163,0.013744,-19.56,-10.44,32.82
6.7966,-0.095342,-7.1098,-0.027184,0.015272,0.0094684,-19.44,-10.5,32.82
6.8374,-0.095342,-7.1779,-0.027184,0.0045815,0.0048869,-19.68,-10.44,32.94
6.7966,-0.12258,-7.1779,-0.033598,0.000916,0.011912,-19.74,-10.44,32.94
6.7693,-0.095342,-7.1371,-0.029322,0.000305,0.01741,-19.62,-10.5,33.12
6.7693,-0.081722,-7.2052,-0.040012,-0.011606,0.017104,-19.62,-10.5,33.06
6.7421,-0.081722,-7.246,-0.034819,-0.0051924,0.015577,-19.74,-10.56,33.18
6.7148,-0.095342,-7.3005,-0.037874,-0.000611,0.019853,-19.74,-10.5,33.12
6.7557,-0.081722,-7.246,-0.03543,0.0076358,0.014355,-19.8,-10.44,33.06
6.7829,-0.054481,-7.1915,-0.030849,-0.000916,0.0061087,-19.68,-10.38,33.06
6.8647,-0.040861,-7.1779,-0.030849,-0.0082467,0.01069,-19.8,-10.44,33.18
6.8238,-0.081722,-7.1915,-0.036652,-0.0082467,0.018326,-19.86,-10.44,33.12
6.8647,-0.040861,-7.2052,-0.033598,-0.012523,0.0076358,-19.74,-10.74,33.3
6.8102,-0.040861,-7.1915,-0.035736,-0.0045815,0.013134,-19.68,-10.5,33.3
6.7693,-0.095342,-7.2052,-0.031765,-0.0039706,0.014661,-19.5,-10.56,33.18
6.7966,-0.12258,-7.1098,-0.032681,0.000916,0.016799,-19.44,-10.62,33.3
6.851,-0.040861,-7.1371,-0.036346,-0.0030543,0.021686,-19.56,-10.5,33.24
6.7966,-0.068102,-7.2188,-0.034208,-0.018021,0.018021,-19.5,-10.44,33.24
6.8102,-0.040861,-7.1915,-0.03207,-0.012523,0.019242,-19.5,-10.44,33.3
6.7693,-0.081722,-7.1915,-0.039401,-0.0094684,0.023518,-19.68,-10.62,33.24
6.7557,-0.12258,-7.2869,-0.03879,-0.0012217,0.020464,-19.68,-10.56,33.12
6.851,-0.027241,-7.246,-0.040623,-0.0024435,0.015577,-19.56,-10.38,33.42
6.851,-0.027241,-7.1779,-0.031154,-0.015272,0.019853,-19.32,-10.38,33.42
6.7829,-0.095342,-7.1643,-0.026267,-0.016799,0.021991,-19.32,-10.2,33.48
6.7829,-0.081722,-7.0962,-0.034514,-0.010996,0.025656,-19.38,-10.2,33.3
6.8238,-0.095342,-7.1098,-0.03207,-0.014661,0.014661,-19.44,-10.14,33.24
6.7693,-0.054481,-7.2733,-0.029932,-0.0085521,0.015272,-19.5,-9.96,33.3
6.7421,-0.027241,-7.2733,-0.029627,-0.0042761,0.015577,-19.5,-10.02,33.18
6.7966,-0.040861,-7.2188,-0.032987,0.0012217,0.014661,-19.44,-10.02,33.24
6.8374,-0.095342,-7.2188,-0.032376,0.0088575,0.013744,-19.5,-10.08,33.12
6.7829,-0.12258,-7.2324,-0.038179,0.000305,0.018326,-19.5,-10.02,33.12
6.8102,-0.095342,-7.1507,-0.03146,-0.0015272,0.019548,-19.26,-9.84,33.18
6.7829,-0.040861,-7.2188,-0.035736,-0.0088575,0.025656,-19.38,-9.78,33.24
6.7421,-0.068102,-7.2596,-0.036652,-0.0082467,0.01405,-19.32,-9.9,33.06
6.7012,-0.068102,-7.246,-0.038179,0.0030543,0.021991,-19.5,-9.84,33.18
6.7829,-0.12258,-7.1779,-0.032681,0.010079,0.013134,-19.44,-9.96,33.24
6.8102,-0.054481,-7.1507,-0.033598,0.002138,0.01069,-19.38,-10.02,33.36
6.8102,-0.068102,-7.1915,-0.034819,0.0012217,0.013134,-19.38,-10.14,33.36
6.7829,-0.054481,-7.2324,-0.02138,0.000611,0.0039706,-19.38,-10.14,33.48
6.7693,0.01362,-7.0962,-0.028711,0.0012217,0.011301,-19.38,-10.32,33.54
6.8647,0.01362,-7.1915,-0.030849,-0.000305,0.0018326,-19.56,-10.32,33.48
6.7966,-0.027241,-7.246,-0.028711,-0.0030543,0.0094684,-19.5,-10.32,33.36
6.7966,-0.054481,-7.1371,-0.026878,0.000916,0.007025,-19.5,-10.5,33.42
6.7693,-0.16344,-7.1915,-0.027489,0.000611,0.0076358,-19.5,-10.68,33.48
6.7693,-0.081722,-7.1915,-0.034819,0.0027489,0.013744,-19.44,-10.8,33.48
6.7693,-0.12258,-7.2869,-0.036957,-0.0030543,0.019548,-19.5,-10.8,33.48
6.7421,-0.1362,-7.1915,-0.037568,-0.0027489,0.017715,-19.44,-10.8,33.48
6.7285,-0.14982,-7.2052,-0.040317,0.000611,0.018326,-19.5,-10.98,33.54
6.8102,-0.10896,-7.2188,-0.040012,0.0024435,0.026267,-19.5,-10.92,33.48
6.8374,-0.068102,-7.1915,-0.039401,0.0018326,0.02138,-19.68,-10.92,33.42
6.7966,-0.068102,-7.246,-0.034819,0.0015272,0.020769,-19.74,-10.8,33.36
6.8238,-0.054481,-7.1779,-0.036957,0.0015272,0.017715,-19.8,-10.74,33.3
6.7966,-0.027241,-7.2324,-0.034208,0.0042761,0.014355,-19.62,-10.74,33.42
6.851,-0.081722,-7.246,-0.037263,0.0073304,0.013439,-19.74,-10.74,33.42
6.7285,-0.054481,-7.2596,-0.030543,0.000305,0.011912,-19.74,-10.5,33.18
6.7285,-0.1362,-7.2596,-0.028405,-0.0012217,0.018631,-19.8,-10.5,33.24
6.7557,-0.068102,-7.1507,-0.03146,0.0085521,0.012828,-19.68,-10.44,33.3
6.8238,-0.1362,-7.1371,-0.036346,0.016188,0.013134,-19.98,-10.44,33.12
6.8647,-0.14982,-7.2324,-0.040928,0.0088575,0.020464,-20.04,-10.5,33.06
6.8102,-0.054481,-7.1915,-0.036041,0.0054978,0.012217,-19.98,-10.44,33.0
6.7966,-0.095342,-7.1371,-0.040012,-0.0058032,0.017715,-19.86,-10.44,33.12
6.851,-0.054481,-7.1915,-0.036346,-0.0073304,0.020769,-19.68,-10.5,33.18
6.7966,-0.040861,-7.1915,-0.033292,-0.0082467,0.020769,-19.68,-10.5,33.12
6.7285,-0.095342,-7.1915,-0.043066,-0.0027489,0.01741,-19.56,-10.68,33.12
6.7693,-0.054481,-7.2596,-0.029932,0.0088575,0.011606,-19.68,-10.68,33.06
6.7966,-0.040861,-7.2324,-0.039095,0.010079,0.012828,-19.44,-10.68,33.24
6.7557,-0.054481,-7.2188,-0.034208,0.0082467,0.0097738,-19.32,-10.86,33.24
6.851,-0.095342,-7.1507,-0.029016,0.0082467,0.010996,-19.32,-10.86,33.24
6.8919,-0.081722,-7.069,-0.032376,0.000611,0.015577,-19.44,-10.92,33.24
6.7012,-0.068102,-7.1643,-0.034208,-0.0097738,0.01405,-19.26,-10.8,33.36
6.7966,-0.1362,-7.1915,-0.037568,0.0073304,0.013134,-19.32,-10.74,33.36
6.8374,-0.12258,-7.2188,-0.038179,0.012217,0.022602,-19.26,-10.68,33.24
6.7829,-0.12258,-7.1643,-0.03146,0.0088575,0.0094684,-19.32,-10.62,33.36
6.7557,-0.027241,-7.1779,-0.034819,-0.0058032,0.012828,-19.38,-10.62,33.24
6.8102,-0.068102,-7.2188,-0.03207,0.000611,0.0097738,-19.56,-10.5,33.3
6.7966,-0.01362,-7.2188,-0.03879,0.002138,0.020464,-19.62,-10.56,33.42
6.7693,-0.095342,-7.1371,-0.037263,0.0088575,0.012217,-19.56,-10.38,33.36
6.851,-0.095342,-7.2052,-0.040623,0.0067195,0.02138,-19.74,-10.38,33.3
6.8102,-0.095342,-7.1915,-0.030543,0.000611,0.020464,-19.8,-10.26,33.3
6.7966,-0.068102,-7.2188,-0.034514,0.0030543,0.019242,-19.8,-10.2,33.42
6.7693,-0.081722,-7.1915,-0.031154,0.011912,0.018021,-19.68,-10.14,33.36
6.7693,-0.027241,-7.1371,-0.034208,0.016799,0.0094684,-19.68,-10.14,33.36
6.8374,-0.081722,-7.1779,-0.033903,0.022297,0.011606,-19.8,-10.2,33.3
6.7966,-0.10896,-7.1507,-0.029322,0.0064141,0.0085521,-19.86,-10.2,33.48
6.7693,-0.081722,-7.2052,-0.034514,0.0067195,0.014661,-19.8,-10.08,33.36
6.7693,-0.027241,-7.2188,-0.0281,-0.000611,0.012828,-19.74,-10.32,33.48
6.8647,-0.068102,-7.2188,-0.025045,-0.010996,0.011301,-19.86,-10.32,33.42
6.8374,-0.068102,-7.2324,-0.027489,-0.015882,0.0079412,-19.8,-10.2,33.42
6.7829,-0.081722,-7.2188,-0.034208,0.0054978,0.018631,-19.74,-10.32,33.24
6.8647,-0.095342,-7.246,-0.037263,0.013439,0.020464,-19.68,-10.44,33.3
6.8783,-0.28603,-7.0553,-0.039095,0.0048869,0.018631,-19.8,-10.44,33.24
6.8647,-0.054481,-7.1371,-0.038179,-0.000611,0.021686,-19.86,-10.5,33.12
6.851,-0.027241,-7.1915,-0.026878,-0.0051924,0.014661,-19.86,-10.38,33.12
6.7829,-0.068102,-7.1779,-0.036346,0.0030543,0.016799,-19.8,-10.44,33.18
6.8102,-0.040861,-7.1507,-0.035736,-0.0024435,0.014966,-19.68,-10.38,33.24
6.7966,-0.01362,-7.1915,-0.028405,-0.0051924,0.012828,-19.62,-10.32,33.12
6.8238,-0.01362,-7.2324,-0.033598,-0.0094684,0.016493,-19.56,-10.44,33.12
6.7966,-0.12258,-7.1507,-0.028711,-0.013439,0.011301,-19.62,-10.26,33.0
6.7693,-0.081722,-7.246,-0.0281,-0.019548,0.019853,-19.5,-10.32,33.12
6.7829,-0.040861,-7.3141,-0.029016,-0.013744,0.018937,-19.56,-10.32,33.18
6.7693,-0.10896,-7.2188,-0.03543,-0.0012217,0.021686,-19.86,-10.56,33.24
6.7966,-0.10896,-7.1371,-0.043371,0.0048869,0.025656,-19.92,-10.5,33.3
6.7966,-0.040861,-7.1371,-0.0281,0.000611,0.01741,-19.86,-10.56,33.36
6.8647,-0.068102,-7.1234,-0.035736,-0.0079412,0.017104,-19.86,-10.62,33.54
6.851,-0.12258,-7.2052,-0.031154,-0.0073304,0.019548,-19.86,-10.74,33.48
6.8374,-0.054481,-7.2188,-0.030849,-0.000916,0.017104,-19.92,-10.74,33.42
6.7966,-0.040861,-7.1234,-0.040623,-0.0015272,0.014355,-19.86,-10.86,33.24
6.7966,-0.054481,-7.2052,-0.0281,-0.0094684,0.014355,-19.92,-10.8,33.36
6.7557,-0.040861,-7.1779,-0.032987,-0.0058032,0.011606,-19.92,-10.8,33.42
6.7421,-0.054481,-7.246,-0.039095,-0.0051924,0.014355,-19.86,-10.92,33.54
6.7693,-0.095342,-7.246,-0.034514,-0.0042761,0.013744,-19.74,-10.8,33.42
6.7829,-0.12258,-7.1915,-0.032681,0.000305,0.019242,-19.5,-10.62,33.42
6.7829,-0.12258,-7.1915,-0.032681,0.000305,0.019242,-19.5,-10.62,33.42
6.7829,-0.12258,-7.1915,-0.03207,0.0015272,0.015272,-19.5,-10.62,33.42
6.8102,-0.12258,-7.2324,-0.036652,-0.0027489,0.016188,-19.56,-10.68,33.24
6.7693,-0.054481,-7.1643,-0.03543,0.0051924,0.011301,-19.5,-10.68,33.24
6.8102,-0.068102,-7.1779,-0.03543,0.0015272,0.012828,-19.38,-10.56,33.18
6.8374,-0.068102,-7.2188,-0.028711,-0.002138,0.013134,-19.44,-10.68,33.36
6.8783,-0.068102,-7.2052,-0.031154,-0.0030543,0.020464,-19.44,-10.68,33.48
6.7557,-0.10896,-7.1234,-0.033292,-0.0045815,0.020159,-19.56,-10.68,33.3
6.7421,-0.10896,-7.1234,-0.037263,-0.010079,0.01741,-19.56,-10.62,33.42
6.7966,-0.054481,-7.2596,-0.033903,-0.0073304,0.023213,-19.68,-10.5,33.36
6.7421,-0.068102,-7.2188,-0.03879,-0.0051924,0.023518,-19.74,-10.5,33.24
6.7966,-0.027241,-7.3005,-0.032681,-0.0012217,0.017104,-19.8,-10.56,33.3
6.7966,-0.054481,-7.1915,-0.023824,0.0018326,0.014355,-19.86,-10.62,33.24
6.7829,-0.095342,-7.1371,-0.026878,-0.0036652,0.013134,-19.98,-10.5,33.24
6.8374,-0.040861,-7.3005,-0.037263,-0.000916,0.016799,-19.92,-10.68,33.24
6.8102,-0.040861,-7.2052,-0.030849,-0.0073304,0.017715,-19.86,-10.68,33.12
6.7966,-0.10896,-7.1507,-0.034514,-0.010385,0.019853,-19.98,-10.68,33.36
6.8374,-0.081722,-7.1507,-0.031765,-0.0048869,0.017104,-19.92,-10.56,33.36
6.8102,-0.01362,-7.246,-0.030238,-0.0076358,0.019242,-19.86,-10.5,33.3
6.7421,-0.095342,-7.2733,-0.036346,-0.010385,0.014966,-19.62,-10.56,33.36
6.7693,-0.081722,-7.2324,-0.031765,-0.0064141,0.014661,-19.62,-10.5,33.24
6.7966,-0.1362,-7.1507,-0.033598,-0.0064141,0.013744,-19.5,-10.56,33.06
6.7285,-0.040861,-7.1915,-0.036652,-0.000611,0.016188,-19.56,-10.62,33.06
6.7966,-0.054481,-7.1915,-0.034819,-0.0030543,0.016799,-19.5,-10.62,33.0
6.7557,-0.12258,-7.1234,-0.041539,-0.0094684,0.03207,-19.44,-10.56,32.94
6.8374,-0.12258,-7.246,-0.036346,-0.017715,0.014966,-19.38,-10.5,32.94
6.7421,-0.040861,-7.246,-0.043677,-0.010385,0.0281,-19.2,-10.26,33.12
6.7829,-0.027241,-7.1643,-0.041233,-0.0076358,0.02138,-19.26,-10.32,33.24
6.7966,-0.054481,-7.2188,-0.036041,-0.0085521,0.023824,-19.2,-10.32,33.24
6.7693,-0.040861,-7.2188,-0.029322,-0.011912,0.012523,-19.26,-10.56,33.12
6.7012,-0.027241,-7.1507,-0.032987,-0.0048869,0.013744,-19.2,-10.56,33.12
6.7285,-0.054481,-7.2188,-0.026878,-0.010079,0.011606,-19.32,-10.62,33.06
6.7285,-0.10896,-7.2324,-0.036652,-0.0064141,0.01069,-19.44,-10.8,33.12
6.7421,-0.10896,-7.2188,-0.039706,-0.0097738,0.013439,-19.44,-10.8,33.24
6.7829,-0.095342,-7.2733,-0.033598,-0.0054978,0.0079412,-19.32,-10.8,33.3
6.7012,-0.068102,-7.1507,-0.031765,-0.0061087,0.022297,-19.08,-10.74,33.3
6.7693,-0.081722,-7.2324,-0.029016,-0.0079412,0.016799,-19.14,-10.62,33.3
6.7012,-0.12258,-7.2188,-0.032376,-0.0039706,0.012828,-19.26,-10.8,33.48
6.7421,-0.054481,-7.2869,-0.037263,-0.0033598,0.014661,-19.44,-10.74,33.42
6.7966,-0.054481,-7.2188,-0.032376,-0.000305,0.016188,-19.5,-10.68,33.36
6.7693,-0.095342,-7.246,-0.032681,-0.0094684,0.019548,-19.44,-10.62,33.36
6.7693,-0.040861,-7.2188,-0.032987,-0.0058032,0.021075,-19.44,-10.68,33.36
6.7421,-0.040861,-7.2733,-0.03543,-0.0082467,0.011912,-19.62,-10.68,33.36
6.7693,-0.081722,-7.2324,-0.035125,-0.0015272,0.014966,-19.62,-10.62,33.42
6.7421,-0.027241,-7.246,-0.033903,0.000611,0.015577,-19.44,-10.62,33.54
6.7421,-0.040861,-7.2188,-0.034819,0.0048869,0.012217,-19.62,-10.62,33.6
6.7421,-0.01362,-7.2324,-0.025656,-0.0012217,0.016493,-19.62,-10.5,33.54
6.7829,-0.095342,-7.2188,-0.0281,0.0027489,0.0082467,-19.68,-10.56,33.66
6.7148,-0.081722,-7.2324,-0.025656,-0.0024435,0.013439,-19.62,-10.74,33.72
6.7966,-0.054481,-7.0826,-0.027794,0.0018326,0.014966,-19.5,-10.56,33.66
6.7012,-0.10896,-7.3277,-0.025656,-0.0039706,0.01405,-19.44,-10.62,33.6
6.7421,-0.068102,-7.2052,-0.0281,-0.0051924,0.01069,-19.38,-10.62,33.72
6.7285,-0.12258,-7.2596,-0.037263,-0.0012217,0.014966,-19.26,-10.62,33.6
6.7421,-0.12258,-7.1915,-0.040012,-0.000611,0.011301,-19.32,-10.32,33.72
6.8102,-0.095342,-7.2324,-0.028711,0.0027489,0.023518,-19.32,-10.5,33.78
6.7693,-0.17706,-7.2188,-0.039401,-0.0039706,0.02474,-19.26,-10.5,33.84
6.7421,-0.095342,-7.1371,-0.038485,-0.0067195,0.024435,-19.44,-10.32,33.72
6.7693,-0.068102,-7.2188,-0.036652,-0.0067195,0.027489,-19.2,-10.38,33.66
6.8374,-0.054481,-7.2869,-0.03543,-0.0064141,0.025962,-19.26,-10.44,33.54
6.7557,-0.10896,-7.246,-0.029932,-0.0061087,0.010385,-19.44,-10.44,33.72
6.7421,-0.040861,-7.2188,-0.0281,0.000916,0.0097738,-19.5,-10.26,33.48
6.7557,-0.12258,-7.2188,-0.03146,0.016188,0.01405,-19.5,-10.2,33.48
6.7966,-0.054481,-7.1915,-0.031154,0.018631,0.0094684,-19.44,-10.32,33.48
6.7966,-0.081722,-7.1779,-0.033598,0.011912,0.01741,-19.56,-10.44,33.42
6.7693,-0.081722,-7.2052,-0.036041,0.011301,0.016799,-19.68,-10.44,33.42
6.7421,-0.12258,-7.2052,-0.032681,0.002138,0.01405,-19.44,-10.74,33.36
6.7012,-0.16344,-7.1915,-0.033292,0.0033598,0.016493,-19.26,-10.62,33.36
6.7557,-0.12258,-7.2052,-0.032681,0.0088575,0.013439,-19.32,-10.56,33.3
6.7012,-0.1362,-7.3141,-0.031765,0.0030543,0.013439,-19.26,-10.68,33.42
6.7421,-0.095342,-7.1915,-0.029016,0.007025,0.0073304,-19.38,-10.68,33.54
6.7693,-0.040861,-7.2733,-0.037568,0.0015272,0.0088575,-19.32,-10.62,33.6
6.7966,-0.054481,-7.2188,-0.039706,0.0061087,0.011301,-19.26,-10.5,33.42
6.7966,-0.054481,-7.2324,-0.030543,0.0076358,0.01405,-19.32,-10.5,33.48
6.8783,-0.10896,-7.2188,-0.034514,0.000916,0.018937,-19.26,-10.5,33.48
6.851,-0.1362,-7.2052,-0.039706,-0.0048869,0.0082467,-19.2,-10.44,33.66
6.7966,-0.054481,-7.2324,-0.039706,0.0045815,0.012828,-19.08,-10.38,33.54
6.7829,-0.054481,-7.1915,-0.030849,0.0030543,0.020464,-19.14,-10.38,33.66
6.7148,-0.068102,-7.1507,-0.038179,0.0033598,0.013744,-19.26,-10.44,33.66
6.7693,-0.054481,-7.2052,-0.03207,0.0015272,0.015272,-19.38,-10.14,33.48
6.8374,-0.095342,-7.1915,-0.032376,0.0048869,0.012217,-19.44,-10.08,33.36
6.7148,-0.095342,-7.1371,-0.03207,0.0045815,0.021075,-19.32,-9.96,33.3
6.7421,-0.12258,-7.1915,-0.036041,0.0067195,0.026878,-19.26,-9.96,33.0
6.7966,-0.040861,-7.1915,-0.036041,0.0058032,0.013439,-19.32,-10.08,33.06
6.7829,-0.054481,-7.246,-0.04215,0.0015272,0.01405,-19.2,-10.08,33.18
6.7557,-0.054481,-7.1371,-0.034819,0.0039706,0.011912,-19.32,-10.2,33.24
6.7557,-0.068102,-7.1915,-0.031154,0.0058032,0.016799,-19.32,-10.38,33.18
6.7012,-0.054481,-7.2324,-0.03543,0.0085521,0.020769,-19.5,-10.44,33.06
6.7421,-0.054481,-7.1779,-0.033292,0.010385,0.018326,-19.38,-10.32,32.88
6.7829,-0.027241,-7.1234,-0.033903,0.0085521,0.024129,-19.38,-10.32,32.88
6.7966,-0.027241,-7.2324,-0.036652,0.0051924,0.017715,-19.38,-10.32,32.94
6.8374,-0.068102,-7.2596,-0.036041,0.000305,0.01069,-19.5,-10.32,32.82
6.7966,-0.054481,-7.1779,-0.031154,-0.0079412,0.009163,-19.44,-10.26,33.06
6.7693,-0.054481,-7.1643,-0.032987,0.0015272,0.017715,-19.56,-10.44,33.06
6.7693,-0.095342,-7.1507,-0.033903,0.0030543,0.021686,-19.62,-10.5,33.36
6.7966,-0.095342,-7.2596,-0.035125,0.000916,0.020159,-19.68,-10.44,33.24
6.8102,-0.095342,-7.2188,-0.037263,0.0015272,0.017104,-19.56,-10.38,33.24
6.7421,-0.14982,-7.2188,-0.03146,-0.01069,0.015272,-19.62,-10.5,33.18
6.7693,-0.081722,-7.2733,-0.034514,-0.0085521,0.012217,-19.56,-10.5,33.18
6.7285,-0.054481,-7.2052,-0.019548,-0.0051924,0.013134,-19.44,-10.5,33.24
6.6059,-0.054481,-7.2188,-0.036652,0.0061087,0.0097738,-19.56,-10.5,33.18
6.8374,-0.068102,-7.2733,-0.039401,0.011912,0.018326,-19.68,-10.56,33.42
6.8783,-0.12258,-7.1779,-0.039095,0.013134,0.014966,-19.62,-10.5,33.36
6.8647,-0.081722,-7.1779,-0.032987,0.0012217,0.013439,-19.5,-10.56,33.54
6.7693,-0.081722,-7.1915,-0.036041,-0.000611,0.018021,-19.5,-10.68,33.54
6.7966,-0.10896,-7.2324,-0.039401,-0.0064141,0.023213,-19.38,-10.62,33.48
6.6604,-0.14982,-7.1643,-0.032987,-0.0054978,0.017715,-19.44,-10.5,33.42
6.7829,-0.095342,-7.2596,-0.03207,-0.0027489,0.015272,-19.38,-10.5,33.48
6.7421,-0.10896,-7.2869,-0.034514,-0.0067195,0.012217,-19.38,-10.56,33.42
6.7285,-0.10896,-7.246,-0.031154,-0.0036652,0.018021,-19.38,-10.56,33.48
6.7829,-0.054481,-7.2324,-0.042761,0.0018326,0.016493,-19.38,-10.44,33.48
6.7829,-0.027241,-7.2188,-0.039401,-0.0039706,0.016188,-19.5,-10.26,33.42
6.7693,-0.095342,-7.1643,-0.034208,-0.012217,0.014966,-19.38,-10.26,33.54
6.8238,-0.027241,-7.1779,-0.032376,-0.0097738,0.018326,-19.32,-10.38,33.36
6.7285,-0.040861,-7.1507,-0.037568,-0.0045815,0.016188,-19.32,-10.5,33.42
6.7421,-0.081722,-7.2869,-0.031154,-0.0061087,0.013744,-19.14,-10.38,33.42
6.7421,-0.054481,-7.2324,-0.038485,-0.0018326,0.014355,-19.2,-10.44,33.24
6.7557,-0.054481,-7.1371,-0.032376,-0.0042761,0.016188,-19.32,-10.32,33.3
6.7421,-0.054481,-7.2188,-0.036957,-0.0036652,0.02474,-19.44,-10.5,33.18
6.7829,-0.027241,-7.1915,-0.032987,-0.000916,0.019242,-19.38,-10.5,33.24
6.8374,-0.095342,-7.1507,-0.034208,-0.0024435,0.019548,-19.5,-10.56,33.36
6.7966,-0.054481,-7.1779,-0.031154,-0.0067195,0.016799,-19.56,-10.44,33.42
6.7693,-0.095342,-7.2188,-0.033903,-0.0042761,0.019548,-19.62,-10.44,33.36
6.7421,-0.095342,-7.2052,-0.031154,-0.007025,0.016799,-19.5,-10.44,33.48
6.7421,-0.054481,-7.2188,-0.034819,-0.002138,0.015577,-19.38,-10.26,33.36
6.7557,-0.081722,-7.2324,-0.03207,-0.0015272,0.020464,-19.32,-10.26,33.3
6.7693,-0.054481,-7.2188,-0.040012,-0.0024435,0.016799,-19.44,-10.2,33.36
6.7285,-0.068102,-7.2324,-0.037568,-0.002138,0.010996,-19.62,-10.2,33.3
6.7421,-0.027241,-7.1234,-0.022907,0.000611,0.0079412,-19.68,-10.14,33.3
6.7829,-0.10896,-7.1915,-0.03543,-0.009163,0.014355,-19.62,-10.14,33.24
6.7829,-0.095342,-7.2324,-0.032987,-0.0094684,0.015272,-19.62,-10.08,33.12
6.7285,-0.054481,-7.246,-0.036957,-0.0076358,0.011912,-19.62,-9.96,33.24
6.7966,-0.068102,-7.2188,-0.040012,-0.0067195,0.016493,-19.74,-10.02,33.24
6.7421,-0.095342,-7.246,-0.035736,-0.0048869,0.017104,-19.62,-10.08,33.24
6.7285,-0.027241,-7.3277,-0.040012,-0.000916,0.021991,-19.74,-10.26,33.42
6.7012,-0.040861,-7.1507,-0.03543,-0.0073304,0.021991,-19.74,-10.26,33.3
6.7693,-0.081722,-7.2188,-0.027794,-0.0067195,0.01741,-19.8,-10.32,33.36
6.7421,-0.054481,-7.246,-0.033292,-0.0042761,0.015577,-19.8,-10.32,33.36
6.7966,-0.081722,-7.2324,-0.030849,0.0039706,0.015882,-19.8,-10.14,33.42
6.7966,-0.081722,-7.2052,-0.036346,0.0051924,0.01069,-19.86,-10.08,33.48
6.7829,-0.027241,-7.2052,-0.039401,-0.000916,0.015577,-19.86,-10.26,33.3
6.7148,-0.095342,-7.3414,-0.035736,-0.0051924,0.016799,-19.98,-10.26,33.42
6.7557,-0.10896,-7.2869,-0.043982,-0.0073304,0.016799,-19.92,-10.26,33.54
6.7012,-0.14982,-7.3141,-0.041844,-0.0094684,0.013439,-19.92,-10.2,33.72
6.7012,-0.12258,-7.2188,-0.036957,0.0051924,0.020769,-19.8,-10.2,33.66
6.7829,-0.068102,-7.1098,-0.038485,0.0064141,0.018937,-19.8,-10.2,33.54
6.7421,-0.027241,-7.2188,-0.034819,0.0030543,0.015577,-19.56,-10.08,33.48
6.7966,-0.054481,-7.1915,-0.040928,0.0082467,0.010385,-19.56,-10.2,33.48
6.7966,-0.12258,-7.1915,-0.028711,0.000305,0.013134,-19.5,-10.32,33.54
6.7693,-0.01362,-7.246,-0.031154,-0.0039706,0.013439,-19.5,-10.44,33.54
6.7829,-0.054481,-7.2052,-0.031154,-0.0088575,0.016799,-19.38,-10.56,33.6
6.7557,-0.040861,-7.1098,-0.032376,-0.0061087,0.011912,-19.32,-10.62,33.72
6.7829,-0.054481,-7.2052,-0.038485,0.0073304,0.017715,-19.38,-10.56,33.9
6.7421,-0.095342,-7.2596,-0.032681,0.0015272,0.015272,-19.38,-10.68,33.9
6.7012,-0.054481,-7.3005,-0.036957,0.0027489,0.016188,-19.38,-10.68,34.02
6.7012,-0.12258,-7.2733,-0.029932,-0.0054978,0.018326,-19.2,-10.68,34.02
6.674,-0.095342,-7.2052,-0.038179,-0.0027489,0.016188,-19.2,-10.62,34.14
6.7693,-0.095342,-7.1915,-0.030849,0.000916,0.010385,-19.2,-10.74,34.02
6.7557,-0.095342,-7.1507,-0.03207,-0.0064141,0.020159,-19.2,-10.86,34.02
6.7285,-0.095342,-7.2052,-0.027489,-0.0064141,0.009163,-19.26,-10.86,33.96
6.7012,-0.12258,-7.2188,-0.030849,-0.0045815,0.018631,-19.32,-10.8,33.96
6.7012,-0.054481,-7.1915,-0.032376,-0.0027489,0.014661,-19.38,-10.86,33.84
6.7012,-0.081722,-7.2188,-0.036652,-0.0027489,0.014966,-19.5,-10.86,33.72
6.7421,-0.068102,-7.0553,-0.03207,0.0036652,0.01069,-19.5,-10.86,33.72
6.7421,-0.12258,-7.2324,-0.030849,0.0079412,0.014966,-19.26,-11.1,33.66
6.7966,-0.10896,-7.1371,-0.031154,0.012217,0.014661,-19.26,-11.04,33.72
6.7285,-0.068102,-7.1779,-0.035736,0.0064141,0.012217,-19.32,-11.1,33.72
6.7012,-0.027241,-7.1915,-0.034514,0.0048869,0.012523,-19.5,-11.04,33.54
6.7693,-0.040861,-7.246,-0.03543,0.0048869,0.020159,-19.44,-11.1,33.42
6.7829,-0.068102,-7.2324,-0.03146,0.0012217,0.016493,-19.44,-11.04,33.6
6.7966,-0.095342,-7.2324,-0.034208,0.0027489,0.010996,-19.44,-11.04,33.48
6.8374,-0.095342,-7.2733,-0.036041,0.0051924,0.018631,-19.26,-10.8,33.6
6.5922,-0.10896,-7.2733,-0.037568,0.0082467,0.014966,-19.38,-10.8,33.6
6.7966,-0.068102,-7.246,-0.029932,0.0012217,0.017104,-19.32,-10.8,33.6
6.7557,-0.068102,-7.2324,-0.038179,0.010079,0.01741,-19.38,-10.8,33.66
6.7966,-0.027241,-7.2052,-0.034819,0.0027489,0.015882,-19.5,-10.74,33.72
6.7693,-0.068102,-7.246,-0.039095,0.0045815,0.018021,-19.56,-10.68,33.9
6.7829,-0.095342,-7.1507,-0.037263,-0.000305,0.012828,-19.5,-10.62,33.96
6.7693,-0.095342,-7.2188,-0.029016,-0.0027489,0.017715,-19.5,-10.62,33.9
6.7421,-0.095342,-7.3141,-0.030543,0.0064141,0.009163,-19.44,-10.68,34.14
6.851,-0.095342,-7.2188,-0.025045,0.0079412,0.0067195,-19.44,-10.68,34.2
6.7693,-0.081722,-7.1915,-0.033903,0.011301,0.010385,-19.38,-10.68,34.08
6.7966,-0.12258,-7.2188,-0.034819,0.012217,0.01405,-19.32,-10.62,34.08
6.7693,-0.068102,-7.1779,-0.036957,0.0048869,0.015272,-19.32,-10.56,34.08
6.7421,-0.10896,-7.1643,-0.043371,0.0036652,0.018021,-19.32,-10.68,34.2
6.7421,-0.054481,-7.2188,-0.033292,-0.000305,0.018021,-19.38,-10.68,34.08
6.7693,-0.054481,-7.2869,-0.03543,0.002138,0.018326,-19.26,-10.68,34.08
6.7012,-0.095342,-7.2869,-0.036041,0.0033598,0.012523,-19.14,-10.74,34.02
6.7421,-0.054481,-7.1915,-0.035125,0.0076358,0.013744,-19.14,-10.56,33.96
6.7557,-0.054481,-7.2188,-0.03207,0.0073304,0.014966,-19.14,-10.44,33.84
6.7829,-0.054481,-7.1779,-0.034208,0.012828,0.010996,-19.2,-10.5,33.84
6.7829,-0.10896,-7.2188,-0.037874,0.0058032,0.0082467,-19.26,-10.5,33.9
6.7693,-0.10896,-7.1643,-0.038485,0.0058032,0.020159,-19.44,-10.44,33.6
6.8238,-0.054481,-7.246,-0.036957,0.0082467,0.015882,-19.44,-10.38,33.66
6.8919,-0.1362,-7.2188,-0.026878,-0.0036652,0.016188,-19.44,-10.44,33.66
6.7421,-0.054481,-7.2188,-0.025656,0.000916,0.011606,-19.5,-10.38,33.66
6.7693,-0.081722,-7.246,-0.03207,0.0073304,0.018631,-19.56,-10.38,33.54
6.7829,-0.027241,-7.246,-0.036346,0.009163,0.015272,-19.68,-10.5,33.54
6.7829,-0.040861,-7.2324,-0.033903,0.009163,0.01741,-19.68,-10.5,33.54
6.7829,-0.054481,-7.2188,-0.038485,-0.0030543,0.01405,-19.68,-10.5,33.48
6.8238,-0.068102,-7.1779,-0.03543,-0.0027489,0.01069,-19.68,-10.56,33.36
6.7693,-0.1362,-7.2052,-0.033903,-0.0018326,0.015882,-19.68,-10.56,33.3
6.7285,-0.12258,-7.1779,-0.030238,-0.0036652,0.013134,-19.74,-10.5,33.06
6.7693,-0.068102,-7.2052,-0.030849,-0.0024435,0.01741,-19.62,-10.44,33.0
6.8374,-0.054481,-7.1915,-0.031154,0.000305,0.020464,-19.74,-10.44,33.06
6.7966,-0.068102,-7.1507,-0.033292,-0.0024435,0.01741,-19.8,-10.32,33.24
6.8374,-0.095342,-7.2596,-0.028711,-0.0039706,0.010996,-19.86,-10.38,33.18
6.8102,-0.10896,-7.2188,-0.03543,-0.000305,0.011912,-19.86,-10.44,33.18
6.7966,-0.054481,-7.1234,-0.028405,-0.0030543,0.013439,-19.98,-10.5,33.3
6.7966,-0.095342,-7.2324,-0.032987,-0.0015272,0.013439,-19.92,-10.32,33.12
6.851,-0.068102,-7.2052,-0.034208,-0.012217,0.014966,-19.92,-10.38,32.94
6.7966,-0.068102,-7.2188,-0.029016,-0.012828,0.017715,-19.98,-10.2,33.12
6.8238,-0.054481,-7.2052,-0.03146,-0.011912,0.014355,-20.1,-10.14,32.94
6.7421,-0.027241,-7.0553,-0.035125,-0.0051924,0.020769,-20.1,-10.32,33.06
6.7693,-0.068102,-7.1643,-0.032987,-0.0018326,0.017104,-19.98,-10.26,33.06
6.7148,-0.081722,-7.2188,-0.040623,-0.002138,0.02138,-19.92,-10.38,32.94
6.7421,-0.095342,-7.2188,-0.03543,-0.0097738,0.021686,-19.86,-10.32,33.0
6.7421,-0.068102,-7.246,-0.034819,-0.013134,0.018937,-19.92,-10.38,32.82
6.7693,-0.081722,-7.2188,-0.023518,-0.002138,0.0088575,-19.74,-10.14,32.88
6.851,-0.054481,-7.246,-0.031765,0.0076358,0.016799,-19.74,-10.26,32.88
6.851,-0.095342,-7.1643,-0.0281,0.014661,0.0088575,-19.68,-10.26,32.7
6.8647,-0.040861,-7.2596,-0.029627,0.0027489,0.0094684,-19.62,-10.38,32.88
6.7829,-0.068102,-7.2052,-0.035736,-0.0033598,0.014966,-19.62,-10.38,32.94
6.7421,-0.095342,-7.1779,-0.032987,-0.0051924,0.019242,-19.62,-10.44,32.88
6.7966,-0.01362,-7.2869,-0.040012,-0.000305,0.018021,-19.56,-10.5,33.06
6.7693,-0.081722,-7.2869,-0.039095,0.0033598,0.021075,-19.56,-10.5,33.0
6.7966,-0.068102,-7.2869,-0.027794,-0.007025,0.015272,-19.5,-10.5,33.06
6.7829,-0.12258,-7.2188,-0.032376,-0.0079412,0.018937,-19.56,-10.38,33.3
6.7421,-0.12258,-7.1779,-0.037263,-0.0039706,0.011301,-19.62,-10.32,33.3
6.7966,-0.054481,-7.1234,-0.027184,-0.0012217,0.01069,-19.5,-10.44,33.54
6.8238,-0.1362,-7.1779,-0.032987,-0.0058032,0.014661,-19.5,-10.44,33.48
6.7829,-0.10896,-7.1371,-0.03146,-0.0064141,0.019242,-19.44,-10.38,33.42
6.7421,-0.081722,-7.2188,-0.038179,-0.0033598,0.015272,-19.38,-10.26,33.6
6.7557,-0.054481,-7.1234,-0.033903,-0.0051924,0.017715,-19.26,-10.2,33.48
6.7966,-0.10896,-7.1507,-0.032681,-0.0048869,0.016188,-19.2,-10.26,33.66
6.7557,-0.068102,-7.246,-0.037263,-0.0058032,0.017104,-19.14,-10.2,33.84
6.7421,-0.068102,-7.2869,-0.034208,-0.007025,0.014661,-19.02,-10.08,33.78
6.7421,-0.10896,-7.2188,-0.029627,-0.012828,0.014966,-19.14,-10.02,33.84
6.7693,-0.081722,-7.3141,-0.043982,-0.0064141,0.015882,-19.2,-10.02,33.72
6.7693,-0.040861,-7.1643,-0.03207,-0.0048869,0.016188,-19.14,-10.02,33.54
6.7557,-0.068102,-7.1507,-0.036346,-0.0082467,0.015882,-19.2,-10.02,33.6
6.7557,-0.081722,-7.1915,-0.036041,-0.0073304,0.019242,-19.26,-10.08,33.6
6.7285,-0.027241,-7.1507,-0.037874,-0.0018326,0.020464,-19.38,-10.08,33.72
6.7557,-0.054481,-7.1507,-0.035125,-0.0064141,0.021991,-19.5,-10.08,33.6
6.7557,-0.054481,-7.2052,-0.032987,-0.0030543,0.012523,-19.5,-10.08,33.6
6.7829,-0.040861,-7.2052,-0.032376,-0.0061087,0.01741,-19.68,-10.14,33.78
6.7829,-0.081722,-7.246,-0.037568,0.0018326,0.016799,-19.68,-10.08,33.84
6.7421,-0.054481,-7.246,-0.031154,-0.0045815,0.010079,-19.68,-9.96,33.54
6.7421,-0.027241,-7.2324,-0.036346,-0.0036652,0.019548,-19.68,-10.08,33.6
6.7421,-0.081722,-7.2733,-0.03207,-0.010079,0.014661,-19.68,-10.08,33.54
6.7012,-0.12258,-7.2188,-0.03207,-0.0018326,0.014355,-19.56,-10.26,33.72
6.6876,-0.095342,-7.1915,-0.034819,0.011912,0.014661,-19.56,-10.26,33.78
6.7693,-0.095342,-7.2188,-0.036957,0.0073304,0.018021,-19.5,-10.38,33.66
6.7693,-0.027241,-7.2052,-0.036346,-0.000305,0.024129,-19.56,-10.38,33.72
6.7829,-0.054481,-7.246,-0.025351,-0.0015272,0.016188,-19.5,-10.44,33.72
6.7966,-0.068102,-7.1915,-0.026878,0.0054978,0.014355,-19.32,-10.44,33.84
6.7421,-0.054481,-7.1234,-0.035736,0.01069,0.0058032,-19.32,-10.56,33.72
6.8374,-0.10896,-7.1779,-0.037568,0.0051924,0.018326,-19.32,-10.68,33.6
6.7421,-0.027241,-7.246,-0.037263,-0.0036652,0.016493,-19.32,-10.68,33.54
6.7421,-0.081722,-7.246,-0.034514,-0.0058032,0.019853,-19.32,-10.86,33.6
6.674,-0.12258,-7.2324,-0.037568,-0.0076358,0.017715,-19.38,-10.86,33.66
6.674,-0.10896,-7.2188,-0.039401,0.0048869,0.017715,-19.32,-10.86,33.72
6.7148,-0.081722,-7.2324,-0.03543,0.0030543,0.013134,-19.5,-10.92,33.6
6.7693,-0.095342,-7.2733,-0.026878,0.0027489,0.016188,-19.56,-10.86,33.48
6.7693,-0.040861,-7.1507,-0.031765,0.0079412,0.0064141,-19.56,-10.86,33.54
6.7966,-0.027241,-7.1643,-0.037568,0.0012217,0.010996,-19.56,-10.86,33.36
6.7421,-0.054481,-7.2188,-0.034819,-0.0012217,0.016493,-19.56,-10.8,33.36
6.7421,-0.054481,-7.2869,-0.031154,-0.002138,0.015272,-19.62,-10.68,33.42
6.7966,-0.095342,-7.246,-0.034208,0.000305,0.014355,-19.68,-10.62,33.6
6.7693,-0.095342,-7.2188,-0.025962,-0.0033598,0.015577,-19.68,-10.56,33.48
6.7693,-0.1362,-7.1507,-0.033598,0.000916,0.022297,-19.68,-10.68,33.48
6.7693,-0.10896,-7.2596,-0.037874,0.002138,0.020464,-19.8,-10.8,33.54
6.7012,-0.10896,-7.2188,-0.036652,0.0027489,0.016188,-19.62,-10.86,33.42
6.7148,-0.01362,-7.2596,-0.041539,0.0058032,0.021075,-19.56,-10.86,33.48
6.7148,-0.01362,-7.2596,-0.03543,0.0054978,0.011301,-19.56,-10.86,33.48
6.7693,-0.054481,-7.2052,-0.03207,0.0012217,0.016188,-19.56,-10.8,33.48
6.7421,-0.054481,-7.1915,-0.030543,-0.0033598,0.013439,-19.44,-10.8,33.6
6.7421,-0.027241,-7.1915,-0.033292,0.0030543,0.021686,-19.5,-10.86,33.6
6.7966,-0.027241,-7.1643,-0.027184,0.0027489,0.015882,-19.44,-10.86,33.54
6.7557,-0.054481,-7.2188,-0.039095,0.0012217,0.015272,-19.44,-10.86,33.36
6.7557,-0.068102,-7.246,-0.028405,0.0082467,0.009163,-19.5,-10.98,33.24
6.7693,-0.10896,-7.2596,-0.0281,0.0042761,0.01405,-19.44,-11.1,33.3
6.7557,-0.10896,-7.3005,-0.03207,0.0012217,0.01069,-19.5,-11.1,33.3
6.7012,-0.054481,-7.246,-0.031154,0.0073304,0.0085521,-19.44,-11.04,33.36
6.8374,-0.081722,-7.1915,-0.040928,0.0073304,0.019242,-19.56,-10.92,33.3
6.8102,-0.095342,-7.1779,-0.033903,0.0018326,0.013439,-19.68,-10.8,33.36
6.7421,-0.081722,-7.2188,-0.03543,0.0058032,0.01741,-19.8,-10.74,33.42
6.7966,-0.12258,-7.1371,-0.040012,0.0030543,0.023518,-19.8,-10.68,33.42
6.7421,-0.081722,-7.246,-0.037263,0.0042761,0.018021,-19.92,-10.68,33.36
6.7148,-0.040861,-7.246,-0.034208,-0.002138,0.014966,-19.92,-10.68,33.3
6.7557,-0.027241,-7.246,-0.029016,0.010385,0.0097738,-19.98,-10.68,33.42
6.7966,-0.095342,-7.2188,-0.033598,0.0064141,0.012828,-20.04,-10.74,33.48
6.7148,-0.095342,-7.1779,-0.047037,0.012523,0.013744,-20.04,-10.68,33.48
6.8374,-0.10896,-7.1643,-0.029322,0.013744,0.01405,-20.16,-10.62,33.48
6.8374,-0.10896,-7.1643,-0.034514,0.011301,0.024129,-20.16,-10.62,33.48
6.8374,-0.054481,-7.2188,-0.03207,0.01069,0.020769,-20.1,-10.56,33.42
6.7966,-0.16344,-7.2869,-0.034514,0.0064141,0.020464,-20.04,-10.68,33.48
6.7693,-0.12258,-7.246,-0.03146,0.0051924,0.010079,-19.92,-10.68,33.54
6.7421,-0.068102,-7.2596,-0.033292,0.0097738,0.014661,-19.74,-10.74,33.48
6.7557,-0.14982,-7.2188,-0.027794,0.0027489,0.012828,-19.56,-10.74,33.42
6.7421,-0.054481,-7.1915,-0.032681,0.0064141,0.013439,-19.26,-10.8,33.48
6.7829,-0.095342,-7.2733,-0.037568,0.0067195,0.020159,-19.02,-10.86,33.54
6.8647,-0.081722,-7.1915,-0.033903,0.0082467,0.0082467,-18.9,-10.92,33.48
6.8783,-0.095342,-7.2324,-0.030238,0.000305,0.013744,-18.78,-10.8,33.42
6.7557,-0.054481,-7.246,-0.023824,-0.0039706,0.012217,-18.72,-10.8,33.42
6.7285,-0.040861,-7.2188,-0.031154,-0.0024435,0.015882,-18.6,-10.68,33.36
6.7693,-0.068102,-7.246,-0.032987,0.0067195,0.013134,-18.78,-10.8,33.12
6.7557,-0.040861,-7.246,-0.04215,0.0042761,0.015882,-18.9,-10.68,33.0
6.7421,-0.095342,-7.1915,-0.033598,-0.000916,0.019548,-19.02,-10.74,33.12
6.851,-0.095342,-7.1371,-0.035736,-0.010385,0.016493,-19.32,-10.56,33.36
6.7966,-0.054481,-7.1371,-0.039401,-0.0076358,0.015882,-19.38,-10.56,33.24
6.7557,-0.027241,-7.1779,-0.026878,-0.01069,0.011606,-19.56,-10.68,33.42
6.7966,-0.12258,-7.1915,-0.03207,-0.014661,0.021075,-19.56,-10.8,33.42
6.7421,-0.081722,-7.1915,-0.0281,-0.011606,0.01741,-19.5,-10.86,33.54
6.7012,-0.040861,-7.2188,-0.039401,-0.0082467,0.01741,-19.62,-10.92,33.42
6.7693,0.01362,-7.2324,-0.037568,-0.000916,0.014966,-19.56,-10.98,33.3
6.8374,-0.027241,-7.2188,-0.035125,0.0015272,0.018021,-19.5,-11.04,33.54
6.8647,-0.054481,-7.2324,-0.028405,-0.000916,0.012523,-19.5,-10.74,33.48
6.7966,-0.054481,-7.1643,-0.033598,-0.0012217,0.010385,-19.56,-10.8,33.48
6.8102,-0.095342,-7.2188,-0.03879,-0.0048869,0.0061087,-19.5,-10.74,33.6
6.7557,-0.12258,-7.2324,-0.036957,-0.0067195,0.023824,-19.44,-10.74,33.6
6.7829,-0.12258,-7.2188,-0.036652,-0.0073304,0.013134,-19.5,-10.74,33.48
6.7421,-0.068102,-7.2869,-0.035125,-0.0045815,0.011912,-19.26,-10.56,33.42
6.7829,-0.068102,-7.2052,-0.036957,-0.010996,0.021991,-19.44,-10.44,33.36
6.7285,-0.081722,-7.1915,-0.033292,-0.010079,0.01741,-19.38,-10.32,33.3
6.8102,-0.081722,-7.2188,-0.035125,-0.002138,0.0094684,-19.32,-10.2,33.42
6.7421,-0.054481,-7.1915,-0.026573,0.000916,0.011912,-19.26,-10.26,33.3
6.7693,-0.081722,-7.2052,-0.03146,0.0048869,0.01069,-19.44,-10.14,33.3
6.8374,-0.040861,-7.1507,-0.036346,0.0030543,0.012523,-19.44,-10.2,33.12
6.7693,-0.040861,-7.1915,-0.036346,-0.000305,0.01405,-19.38,-10.26,33.3
6.7693,-0.054481,-7.2188,-0.036346,-0.0054978,0.020159,-19.38,-10.26,33.3
6.7012,-0.095342,-7.2188,-0.036346,-0.0094684,0.017715,-19.26,-10.38,33.3
6.7966,-0.10896,-7.246,-0.034208,-0.002138,0.023518,-19.5,-10.44,33.18
6.7966,-0.10896,-7.2188,-0.030238,-0.0064141,0.01069,-19.38,-10.62,33.18
6.6876,-0.081722,-7.1507,-0.034208,-0.0051924,0.012523,-19.38,-10.74,33.3
6.7693,-0.054481,-7.246,-0.034514,-0.0042761,0.014966,-19.38,-10.74,33.24
6.8238,-0.068102,-7.2188,-0.036041,-0.0036652,0.01405,-19.44,-10.68,33.18
6.7557,-0.054481,-7.2052,-0.03543,-0.009163,0.019242,-19.5,-10.86,33.12
6.7966,-0.081722,-7.2188,-0.030238,-0.0085521,0.013134,-19.56,-10.86,33.18
6.7966,-0.054481,-7.1779,-0.030238,-0.0039706,0.016799,-19.68,-10.92,33.18
6.7829,-0.12258,-7.1779,-0.034514,-0.0058032,0.018326,-19.62,-10.98,33.06
6.7829,-0.068102,-7.1779,-0.033292,-0.0051924,0.01741,-19.62,-11.04,33.18
6.8102,-0.095342,-7.1915,-0.03543,-0.0064141,0.014966,-19.62,-11.1,33.12
6.8238,-0.068102,-7.3005,-0.036957,-0.0051924,0.013439,-19.62,-10.92,33.06
6.7829,-0.054481,-7.2596,-0.030849,-0.0048869,0.018937,-19.44,-10.98,33.12
6.7966,-0.095342,-7.2188,-0.037263,-0.0051924,0.014966,-19.44,-10.98,33.24
6.7829,-0.054481,-7.2188,-0.038485,-0.0058032,0.018937,-19.44,-10.74,33.3
6.7693,-0.040861,-7.1779,-0.027794,-0.0067195,0.013744,-19.5,-10.8,33.24
6.7829,-0.054481,-7.2188,-0.036652,-0.0061087,0.0094684,-19.56,-10.8,33.42
6.7148,-0.040861,-7.2596,-0.027794,-0.0012217,0.016188,-19.56,-10.68,33.36
6.7421,-0.054481,-7.2324,-0.033598,-0.000611,0.01405,-19.56,-10.68,33.42
6.7285,-0.095342,-7.246,-0.035125,-0.0051924,0.022602,-19.44,-10.56,33.36
6.7966,-0.027241,-7.1915,-0.033292,-0.0045815,0.015272,-19.44,-10.5,33.42
6.7421,-0.10896,-7.246,-0.03543,0.0015272,0.018631,-19.32,-10.62,33.3
6.7421,-0.054481,-7.2188,-0.040317,-0.000611,0.011606,-19.32,-10.5,33.36
6.7012,-0.027241,-7.2596,-0.033292,-0.0033598,0.014966,-19.32,-10.44,33.3
6.8238,-0.081722,-7.246,-0.038485,-0.0030543,0.015577,-19.5,-10.38,33.3
6.7693,-0.068102,-7.2052,-0.03207,-0.0018326,0.018631,-19.5,-10.44,33.12
6.7012,-0.12258,-7.1915,-0.039706,0.0012217,0.020159,-19.56,-10.44,33.18
6.7693,-0.12258,-7.1643,-0.034208,-0.0012217,0.020464,-19.5,-10.26,33.24
6.7421,-0.081722,-7.1915,-0.034819,-0.010385,0.019242,-19.44,-10.5,33.12
6.7012,-0.10896,-7.2188,-0.03146,-0.0048869,0.016493,-19.38,-10.44,33.3
6.7421,-0.10896,-7.2188,-0.041844,-0.0064141,0.021991,-19.38,-10.44,33.3
6.7966,-0.095342,-7.1234,-0.029932,-0.0073304,0.018326,-19.38,-10.44,33.3
6.7012,-0.040861,-7.3141,-0.036652,-0.014966,0.014355,-19.32,-10.44,33.54
6.7285,-0.040861,-7.2596,-0.029932,-0.007025,0.013134,-19.32,-10.44,33.54
6.7148,-0.095342,-7.2324,-0.03543,-0.0027489,0.021686,-19.32,-10.5,33.48
6.7693,-0.14982,-7.1915,-0.037874,0.0036652,0.015272,-19.2,-10.5,33.54
6.7421,-0.12258,-7.2188,-0.039401,-0.0058032,0.025962,-19.2,-10.56,33.54
6.7966,-0.081722,-7.1507,-0.039706,-0.0082467,0.022907,-19.2,-10.56,33.6
6.6059,-0.081722,-7.2869,-0.037263,-0.007025,0.023518,-19.08,-10.44,33.66
6.7012,-0.081722,-7.3141,-0.043371,-0.0079412,0.025045,-19.08,-10.56,33.66
6.674,-0.095342,-7.2324,-0.042455,0.014661,0.019548,-19.08,-10.44,33.66
6.7693,-0.12258,-7.2188,-0.040012,0.017715,0.016493,-19.2,-10.5,33.42
6.7966,-0.054481,-7.2596,-0.040928,0.013439,0.014966,-19.02,-10.56,33.36
6.7285,-0.01362,-7.2596,-0.032681,-0.0015272,0.016188,-18.96,-10.56,33.48
6.6876,-0.068102,-7.2596,-0.024129,-0.0024435,0.0018326,-19.02,-10.62,33.24
6.7012,-0.027241,-7.3005,-0.035736,0.011301,0.0088575,-19.14,-10.62,33.3
6.7285,-0.054481,-7.2324,-0.035125,0.020769,0.0097738,-19.14,-10.62,33.3
6.8102,-0.068102,-7.1507,-0.042455,0.02474,0.011912,-19.14,-10.56,33.42
6.7966,-0.040861,-7.0962,-0.041844,0.013439,0.020769,-19.32,-10.56,33.42
6.7966,-0.12258,-7.1779,-0.045509,0.011912,0.028405,-19.26,-10.44,33.48
6.7693,-0.14982,-7.1643,-0.060476,0.01405,0.04948,-19.32,-10.68,33.3
6.7012,-0.054481,-7.1915,-0.061697,0.03146,0.045204,-19.26,-10.62,33.42
6.7829,-0.095342,-7.2733,-0.057116,0.03543,0.036652,-19.26,-10.62,33.48
6.8238,-0.027241,-7.1507,-0.051924,0.026878,0.026878,-19.2,-10.62,33.54
6.7966,-0.095342,-7.2188,-0.039095,0.025045,0.021686,-19.2,-10.62,33.42
6.8374,-0.054481,-7.1507,-0.039706,0.018631,0.018631,-19.44,-10.56,33.48
6.8102,-0.10896,-7.1371,-0.043677,0.010385,0.022907,-19.44,-10.68,33.48
6.8647,-0.081722,-7.1234,-0.04612,0.0024435,0.038485,-19.5,-10.56,33.48
6.8783,-0.027241,-7.1915,-0.058338,-0.0076358,0.04948,-19.44,-10.68,33.48
6.8374,-0.01362,-7.2324,-0.057727,-0.01405,0.044899,-19.5,-10.68,33.36
6.7966,-0.095342,-7.1643,-0.06017,-0.011912,0.047647,-19.38,-10.8,33.42
6.7966,-0.10896,-7.1643,-0.054062,-0.010996,0.040623,-19.38,-10.8,33.24
6.7693,-0.068102,-7.1915,-0.045815,-0.016493,0.031765,-19.38,-10.68,33.54
6.8374,-0.12258,-7.2596,-0.051618,-0.007025,0.039706,-19.38,-10.68,33.48
6.7421,-0.054481,-7.3005,-0.051313,-0.0042761,0.040623,-19.32,-10.74,33.6
6.7285,-0.095342,-7.2188,-0.055894,0.000916,0.037263,-19.38,-10.68,33.54
6.7421,-0.095342,-7.2324,-0.057421,-0.0024435,0.044593,-19.5,-10.68,33.66
6.851,-0.01362,-7.246,-0.057116,0.0073304,0.044288,-19.56,-10.68,33.66
6.7693,-0.054481,-7.1507,-0.055894,-0.012217,0.043982,-19.62,-10.5,33.6
6.7285,-0.054481,-7.1234,-0.042455,-0.012523,0.027794,-19.62,-10.5,33.84
6.7148,-0.027241,-7.3141,-0.041233,-0.013439,0.035736,-19.62,-10.44,33.9
6.7421,-0.040861,-7.3005,-0.042455,-0.0033598,0.027794,-19.56,-10.44,33.84
6.7693,-0.12258,-7.2324,-0.035125,0.01405,0.020769,-19.62,-10.44,33.78
6.7966,-0.095342,-7.2188,-0.037568,0.02138,0.020769,-19.62,-10.68,33.9
6.7693,-0.095342,-7.1779,-0.043066,0.014355,0.022297,-19.68,-10.74,33.72
6.7829,-0.10896,-7.2188,-0.048869,0.012523,0.029016,-19.68,-10.68,33.66
6.851,-0.054481,-7.2188,-0.04948,0.016493,0.024129,-19.68,-10.68,33.66
6.7966,-0.027241,-7.1915,-0.046731,0.011912,0.024435,-19.56,-10.68,33.66
6.7966,-0.095342,-7.2324,-0.040317,0.012523,0.014355,-19.32,-10.68,33.54
6.7148,-0.027241,-7.355,-0.046426,0.017104,0.022297,-19.44,-10.62,33.42
6.7012,-0.040861,-7.246,-0.04612,0.019548,0.01741,-19.32,-10.8,33.6
6.7557,-0.068102,-7.1234,-0.041844,0.019853,0.012217,-19.32,-10.74,33.54
6.8238,-0.095342,-7.1779,-0.043982,0.015577,0.015272,-19.32,-10.74,33.6
6.7829,-0.054481,-7.1507,-0.038179,0.013439,0.016188,-19.38,-10.8,33.72
6.7148,-0.068102,-7.1643,-0.031154,0.016799,0.012523,-19.32,-10.56,33.66
6.8374,-0.081722,-7.2052,-0.03146,0.0076358,0.009163,-19.38,-10.62,33.48
6.7693,-0.054481,-7.246,-0.029016,0.014355,0.009163,-19.38,-10.68,33.42
6.7829,-0.054481,-7.0962,-0.036957,0.021075,0.0097738,-19.44,-10.68,33.3
6.7966,-0.01362,-7.2052,-0.032987,0.025351,0.011606,-19.5,-10.68,33.24
6.8238,-0.054481,-7.1779,-0.026267,0.023213,0.0033598,-19.56,-10.74,33.42
6.8783,-0.081722,-7.2596,-0.032987,0.018326,0.0073304,-19.68,-10.56,33.42
6.851,-0.095342,-7.2188,-0.037263,0.025656,0.0079412,-19.62,-10.62,33.54
6.8783,-0.054481,-7.2188,-0.037568,0.026573,0.016493,-19.62,-10.62,33.42
6.8647,-0.095342,-7.1234,-0.030849,0.027489,0.012217,-19.8,-10.62,33.24
6.8238,-0.10896,-7.1234,-0.029932,0.021075,0.011301,-19.86,-10.56,33.12
6.8374,-0.095342,-7.1371,-0.035125,0.022907,0.010996,-19.8,-10.56,32.94
6.8102,-0.081722,-7.1371,-0.029932,0.020769,0.0088575,-19.92,-10.74,32.88
6.8647,-0.040861,-7.1915,-0.029322,0.022297,0.0079412,-19.86,-10.68,33.0
6.851,-0.054481,-7.2188,-0.021991,0.019853,0.0051924,-19.98,-10.56,33.12
6.7829,-0.040861,-7.1234,-0.020159,0.019242,0.0073304,-19.92,-10.8,33.24
6.8374,-0.095342,-7.2324,-0.029627,0.024435,0.009163,-19.98,-10.8,33.12
6.7966,-0.027241,-7.1779,-0.035125,0.0281,0.0054978,-19.98,-10.74,33.06
6.8647,-0.054481,-7.0962,-0.030849,0.025656,0.0045815,-19.92,-10.68,33.06
6.8783,-0.054481,-7.0962,-0.025962,0.032376,0.0045815,-19.92,-10.86,33.0
6.8647,0.01362,-7.0826,-0.029322,0.031765,-0.0024435,-19.98,-10.74,33.06
6.96,-0.054481,-7.069,-0.025045,0.014355,0.0045815,-19.98,-10.74,33.12
6.9328,-0.10896,-7.0962,-0.023824,0.018326,0.0061087,-19.86,-10.8,33.24
6.9328,-0.081722,-7.0962,-0.020159,0.022602,0.0058032,-19.86,-10.8,33.36
6.8374,-0.081722,-7.0962,-0.024129,0.03207,-0.0076358,-19.8,-10.74,33.3
6.9464,-0.081722,-7.0962,-0.026878,0.025656,0.0039706,-19.98,-10.62,33.24
6.9191,-0.081722,-7.0962,-0.030849,0.025656,0.0079412,-19.98,-10.62,33.12
6.9328,-0.10896,-7.0417,-0.034208,0.020159,0.011912,-20.22,-10.56,33.12
6.8374,-0.068102,-7.0281,-0.037874,0.007025,0.023824,-20.22,-10.38,33.24
6.851,-0.027241,-7.1098,-0.037874,0.010079,0.022907,-20.28,-10.44,33.24
6.9055,-0.054481,-7.1098,-0.036346,0.002138,0.023518,-20.4,-10.5,33.24
6.9328,-0.01362,-7.0826,-0.046426,0.0045815,0.024129,-20.4,-10.38,33.24
6.96,-0.01362,-7.0417,-0.042761,0.020159,0.027794,-20.4,-10.5,33.12
6.9328,-0.01362,-6.9736,-0.047037,0.023518,0.025045,-20.34,-10.32,33.12
6.9872,-0.054481,-7.0417,-0.039095,0.0033598,0.020464,-20.52,-10.32,33.0
6.9872,-0.054481,-7.1098,-0.030238,-0.013744,0.018631,-20.58,-10.32,32.94
6.9328,-0.068102,-7.0962,-0.029322,-0.033292,0.011912,-20.58,-10.14,33.0
6.8919,-0.027241,-7.1234,-0.030238,-0.035736,0.012217,-20.7,-10.14,33.06
6.7829,-0.095342,-7.2188,-0.035125,-0.029016,0.014966,-20.4,-10.2,33.12
6.8238,-0.12258,-7.246,-0.043982,-0.012523,0.023824,-20.34,-10.08,33.0
6.8374,-0.095342,-7.1371,-0.050091,0.0067195,0.024129,-20.34,-10.02,33.06
6.851,-0.054481,-7.1779,-0.042455,0.013134,0.018631,-20.28,-9.96,32.94
6.8647,-0.027241,-7.1507,-0.049175,0.014661,0.027184,-20.22,-9.96,33.0
6.9328,-0.027241,-7.1234,-0.040012,0.011912,0.024129,-20.22,-10.14,32.88
6.9055,-0.054481,-7.0962,-0.039706,0.023518,0.014966,-20.16,-10.02,32.82
6.9328,-0.027241,-7.0553,-0.033903,0.01741,0.015577,-20.22,-10.32,32.88
7.0553,-0.040861,-7.2188,-0.030543,-0.0015272,0.010385,-20.22,-10.02,32.82
6.9328,-0.040861,-7.0962,-0.029016,-0.014661,0.011912,-20.04,-10.08,33.12
6.8647,-0.068102,-7.2324,-0.029932,-0.016799,0.0094684,-20.1,-10.14,33.06
6.8647,-0.01362,-7.2324,-0.031765,-0.009163,0.013744,-20.04,-10.14,33.0
6.7966,-0.068102,-7.1234,-0.033292,-0.002138,0.016799,-20.22,-10.32,32.94
6.8374,-0.095342,-7.1098,-0.042455,0.0097738,0.019853,-20.16,-10.38,33.06
6.851,-0.027241,-7.0962,-0.038179,0.01405,0.021991,-20.1,-10.38,33.06
6.96,-0.054481,-7.069,-0.041844,0.020769,0.018021,-20.04,-10.44,33.12
6.8919,-0.027241,-7.069,-0.03879,0.020159,0.014966,-19.98,-10.44,33.24
6.8647,-0.01362,-7.1098,-0.034819,0.018631,0.02138,-19.92,-10.44,33.3
6.9464,-0.027241,-7.0962,-0.035125,0.014661,0.020159,-20.28,-10.5,33.48
6.9055,-0.027241,-6.9872,-0.026573,0.01069,0.0082467,-20.34,-10.44,33.54
6.96,-0.040861,-7.0826,-0.019548,-0.0045815,0.007025,-20.28,-10.56,33.42
6.8919,-0.10896,-7.0962,-0.019853,-0.009163,0.0039706,-20.34,-10.68,33.48
6.851,-0.16344,-7.1234,-0.026267,0.0039706,0.0061087,-20.28,-10.62,33.48
6.8647,-0.1362,-7.069,-0.032681,0.012217,0.009163,-20.28,-10.8,33.42
6.9872,-0.10896,-7.0962,-0.044288,0.009163,0.011606,-20.28,-10.74,33.3
6.8647,-0.054481,-7.0281,-0.033292,-0.0045815,0.019548,-20.34,-10.68,33.24
6.8783,-0.095342,-7.0281,-0.036652,-0.0051924,0.019853,-20.34,-10.62,33.12
6.8238,-0.054481,-7.0962,-0.029016,0.0012217,0.02138,-20.34,-10.74,33.12
6.9464,-0.081722,-7.1371,-0.036957,0.015577,0.010996,-20.4,-10.8,33.0
6.8919,-0.054481,-7.0553,-0.032376,0.01405,0.010385,-20.4,-10.74,32.88
6.9328,-0.081722,-7.0826,-0.039095,0.024129,0.01405,-20.28,-10.68,32.76
7.0281,-0.01362,-7.0281,-0.041539,0.021075,0.010996,-20.4,-10.68,32.58
7.0281,-0.01362,-7.0553,-0.033292,0.0097738,0.0097738,-20.4,-10.68,32.64
6.9464,-0.068102,-7.0417,-0.031154,-0.0082467,0.012523,-20.52,-10.56,32.46
6.9464,-0.068102,-7.0962,-0.023824,-0.009163,0.01069,-20.58,-10.62,32.52
6.9464,-0.068102,-7.0826,-0.024129,-0.010385,0.0079412,-20.46,-10.38,32.64
6.8647,-0.054481,-7.1915,-0.03207,-0.007025,0.011606,-20.46,-10.44,32.64
6.8647,-0.095342,-7.069,-0.031765,0.0024435,0.018937,-20.34,-10.56,32.88
6.96,-0.1362,-7.0962,-0.030238,0.0027489,0.018326,-20.28,-10.74,32.94
6.9328,-0.10896,-7.0281,-0.028405,-0.0033598,0.020769,-20.4,-10.62,32.88
6.8374,-0.027241,-7.0962,-0.037263,-0.0088575,0.026573,-20.4,-10.62,32.82
6.8919,-0.12258,-7.1098,-0.035736,-0.015882,0.023824,-20.4,-10.62,33.0
6.8919,-0.054481,-7.069,-0.042455,-0.002138,0.036957,-20.46,-10.62,33.0
7.0009,-0.040861,-6.9872,-0.046731,-0.0012217,0.030849,-20.22,-10.68,33.12
6.9736,-0.040861,-7.0145,-0.042455,-0.0082467,0.034819,-20.16,-10.92,33.24
6.9055,-0.040861,-7.0962,-0.040317,-0.0076358,0.02474,-20.04,-10.86,33.24
6.9191,-0.01362,-7.0553,-0.036957,-0.0094684,0.024435,-19.92,-10.8,33.36
6.9055,-0.01362,-7.0962,-0.032681,-0.0085521,0.027184,-20.1,-10.92,33.3
6.8919,-0.01362,-7.1098,-0.023213,0.0051924,0.012523,-20.1,-10.8,33.3
6.9464,-0.068102,-7.1371,-0.026573,0.0094684,0.0094684,-20.22,-10.74,33.06
6.9872,-0.054481,-7.0281,-0.036652,0.0033598,0.013134,-20.22,-10.74,33.12
6.9328,-0.081722,-7.0826,-0.031765,-0.011912,0.018937,-20.52,-10.8,33.18
6.8647,-0.027241,-7.1234,-0.031765,-0.0064141,0.013744,-20.4,-10.92,33.18
6.8102,-0.12258,-7.0553,-0.036346,-0.0027489,0.010385,-20.46,-10.98,33.12
6.8647,-0.16344,-7.1507,-0.037568,-0.0033598,0.02474,-20.4,-10.98,33.12
6.851,-0.068102,-7.0962,-0.027794,-0.0042761,0.013134,-20.76,-10.86,33.0
6.8919,-0.095342,-7.1234,-0.030543,-0.0018326,0.014966,-20.82,-10.86,32.94
6.8919,-0.027241,-7.1507,-0.03146,0.0039706,0.017104,-20.82,-10.86,32.88
6.9328,-0.027241,-7.069,-0.033598,0.012828,0.009163,-20.94,-10.98,32.76
6.8919,-0.1362,-7.0417,-0.03543,0.011912,0.01405,-20.7,-11.04,32.82
6.96,-0.027241,-7.069,-0.031765,0.0076358,0.016493,-20.7,-10.98,32.7
6.96,-0.027241,-7.1915,-0.036346,0.000916,0.013744,-20.82,-11.04,32.82
6.9328,-0.027241,-7.1098,-0.043982,-0.0048869,0.025656,-20.88,-11.04,32.82
6.9328,0.054481,-7.0553,-0.034819,-0.010079,0.017104,-20.64,-11.1,32.88
6.9191,-0.068102,-7.1234,-0.026878,-0.0064141,0.016188,-20.52,-10.8,32.82
6.8647,-0.1362,-7.0281,-0.029627,0.0048869,0.016188,-20.46,-10.62,32.82
6.8919,-0.068102,-7.1098,-0.027489,0.011912,0.013439,-20.52,-10.62,32.76
6.8919,-0.095342,-7.0553,-0.028405,0.010996,0.009163,-20.28,-10.62,32.82
6.9191,-0.068102,-7.0417,-0.032681,0.002138,0.011606,-20.22,-10.5,32.82
6.8919,-0.040861,-7.1098,-0.02138,0.0088575,0.0051924,-20.1,-10.44,32.82
6.9191,-0.14982,-7.0553,-0.025962,0.0012217,0.0058032,-20.1,-10.38,32.88
6.9328,-0.068102,-7.0962,-0.033598,0.0039706,0.0097738,-19.98,-10.32,32.88
6.9328,-0.095342,-7.1507,-0.03146,0.000611,0.0097738,-20.1,-10.32,32.94
6.9055,-0.027241,-7.0553,-0.037263,-0.0027489,0.013744,-19.98,-10.38,32.76
6.96,-0.054481,-7.1234,-0.036346,0.0012217,0.022297,-19.98,-10.44,32.88
6.8919,-0.068102,-7.069,-0.034819,0.000916,0.025351,-20.22,-10.5,32.82
6.9328,-0.081722,-7.069,-0.041844,-0.000611,0.019242,-20.1,-10.68,32.94
6.9736,-0.054481,-7.0826,-0.039706,0.0036652,0.019853,-20.28,-10.8,32.88
6.9736,-0.040861,-7.0826,-0.032376,0.000611,0.016493,-20.4,-10.8,33.06
6.96,-0.027241,-7.0553,-0.028405,-0.0030543,0.021075,-20.52,-10.92,33.12
6.8647,-0.01362,-7.0553,-0.032987,-0.01069,0.020159,-20.4,-10.8,33.18
6.9328,-0.027241,-7.1098,-0.03207,-0.0058032,0.018326,-20.52,-10.98,33.18
6.8647,-0.054481,-7.1234,-0.036346,0.000916,0.02138,-20.52,-10.98,33.12
6.8374,-0.054481,-7.0417,-0.033292,0.0039706,0.022297,-20.58,-11.04,33.06
6.8783,-0.027241,-7.0281,-0.036346,0.007025,0.017104,-20.52,-11.04,33.12
6.96,-0.068102,-7.0281,-0.047342,0.009163,0.018021,-20.58,-10.98,33.18
7.0553,-0.054481,-7.0962,-0.029627,-0.010079,0.013134,-20.52,-10.92,33.24
6.9872,-0.095342,-7.0826,-0.034819,-0.016188,0.019548,-20.34,-10.74,33.06
6.8374,-0.095342,-7.069,-0.029932,-0.028405,0.025656,-20.34,-10.62,33.12
6.8919,-0.081722,-7.0553,-0.037263,-0.022907,0.020464,-20.16,-10.56,33.12
6.9055,-0.095342,-7.0281,-0.034208,-0.017715,0.024435,-20.22,-10.5,33.06
6.9328,-0.040861,-7.0826,-0.040928,-0.015577,0.029322,-20.16,-10.44,33.12
6.9191,0.027241,-7.1234,-0.04215,-0.024435,0.034514,-20.28,-10.56,33.24
6.851,-0.095342,-7.2188,-0.035125,-0.039095,0.018631,-20.4,-10.5,33.3
6.8102,-0.12258,-7.1779,-0.046426,-0.023518,0.017715,-20.46,-10.26,33.36
6.8374,-0.12258,-7.0962,-0.052534,0.016799,0.027184,-20.46,-10.32,33.42
6.8919,-0.027241,-7.0281,-0.052534,0.016799,0.027184,-20.46,-10.2,33.24
7.0281,-0.027241,-7.069,-0.059865,-0.014661,0.04612,-20.52,-10.26,33.3
6.851,-0.054481,-7.0962,-0.061697,-0.041844,0.048869,-20.22,-10.32,33.24
6.8238,-0.16344,-7.2596,-0.075136,-0.054978,0.062003,-20.28,-10.32,33.36
6.6331,-0.14982,-7.0553,-0.10385,-0.041233,0.091019,-20.34,-10.32,33.12
6.6604,-0.19068,-7.1507,-0.11668,0.012828,0.10568,-20.34,-10.38,33.12
6.8919,-0.054481,-7.1234,-0.14325,0.034514,0.12095,-20.28,-10.5,32.94
7.0553,-0.095342,-7.0553,-0.12248,-0.000916,0.1463,-20.34,-10.56,32.76
7.0281,-0.040861,-7.0281,-0.11057,-0.032376,0.10812,-20.28,-10.62,32.64
6.9464,-0.095342,-7.1371,-0.097433,-0.048869,0.10415,-20.16,-10.62,32.52
6.7693,-0.068102,-7.2188,-0.083078,-0.053451,0.085827,-20.16,-10.8,32.52
6.851,-0.054481,-7.2869,-0.093462,-0.027489,0.087659,-20.22,-10.86,32.52
6.7966,-0.054481,-7.2052,-0.090103,0.0039706,0.088575,-20.1,-10.86,32.64
7.0962,-0.12258,-7.1643,-0.087048,0.0036652,0.089186,-20.28,-11.04,32.7
7.1371,-0.054481,-7.1915,-0.083689,-0.034819,0.073915,-20.34,-10.92,32.7
6.9191,0.01362,-7.1507,-0.063225,-0.068722,0.065668,-20.22,-10.92,32.7
6.9328,0.027241,-7.2052,-0.049786,-0.094684,0.037568,-20.28,-10.98,32.76
6.8919,-0.068102,-7.355,-0.029627,-0.0956,-0.0039706,-20.34,-10.92,32.88
6.9328,-0.068102,-7.4231,-0.026878,-0.079718,-0.018937,-20.28,-10.92,33.0
7.3141,-0.068102,-7.5048,-0.01405,-0.054367,-0.082467,-20.28,-10.92,33.3
7.3686,-0.054481,-7.5321,-0.007025,-0.11515,-0.11729,-20.4,-10.86,33.36
7.3414,-0.24517,-7.6546,-0.030238,-0.18173,-0.18998,-20.22,-10.98,33.48
7.6002,-0.12258,-7.6138,-0.068722,-0.19212,-0.26145,-20.16,-11.04,33.42
7.7636,-0.10896,-7.5321,-0.13592,0.14875,-0.39706,-19.98,-10.98,33.42
7.7772,0.12258,-7.3958,-0.15394,0.40256,-0.48258,-19.92,-10.92,33.3
7.9543,0.6674,-7.2052,-0.10873,0.52076,-0.61331,-19.86,-10.98,33.3
7.9679,0.92618,-7.3141,-0.068111,0.59682,-0.71471,-19.74,-10.92,33.12
8.2812,1.0488,-7.1915,0.022907,0.61972,-0.79901,-19.8,-11.1,33.18
8.5944,1.185,-7.1234,0.10904,0.57574,-0.90897,-19.68,-11.28,33.0
8.6353,1.2939,-7.0417,0.22633,0.41722,-1.0156,-19.68,-11.34,32.82
8.5127,1.3484,-6.96,0.27978,0.40164,-1.1222,-19.74,-11.4,32.7
8.3084,1.5936,-6.7285,0.33323,0.40164,-1.233,-19.74,-11.64,32.28
8.1858,1.7298,-6.6604,0.36377,0.39951,-1.2947,-19.62,-11.76,31.98
7.9543,1.7434,-6.5514,0.38637,0.40378,-1.3393,-19.68,-11.76,31.68
7.6546,1.757,-6.5514,0.38668,0.38301,-1.3546,-19.74,-11.88,31.5
7.5865,1.9341,-6.2109,0.39645,0.23518,-1.3595,-19.62,-12.18,31.26
7.3958,2.1384,-6.0202,0.40653,0.18662,-1.3415,-19.68,-12.36,31.14
7.3277,1.9613,-5.8976,0.40775,0.23152,-1.3213,-19.56,-12.42,30.96
7.3414,1.9068,-6.1564,0.41783,0.208,-1.2984,-19.32,-12.66,30.78
7.246,1.9477,-6.0747,0.44196,0.15424,-1.2804,-19.26,-12.66,30.66
7.1234,1.7979,-5.9249,0.47647,0.060476,-1.2288,-19.14,-12.84,30.54
6.9872,1.6481,-6.1292,0.46578,0.012523,-1.222,-18.54,-12.84,30.66
6.7148,1.6072,-6.3879,0.44715,0.025962,-1.1848,-18.12,-12.9,30.66
6.5378,1.6344,-6.3335,0.44104,0.016188,-1.1555,-17.94,-13.02,30.54
6.2654,1.7434,-6.2517,0.4105,0.058032,-1.0495,-17.22,-12.9,30.78
5.993,1.7298,-6.3062,0.3937,0.15791,-0.95295,-16.86,-12.96,30.84
5.7342,1.7025,-6.3471,0.37751,0.31704,-0.85399,-16.5,-12.9,30.96
5.7478,1.8115,-6.4424,0.35552,0.478,-0.69486,-16.08,-12.78,30.96
5.9385,1.8115,-6.5786,0.35583,0.6127,-0.57788,-15.84,-12.78,31.02
6.1428,1.8387,-6.3471,0.3488,0.64446,-0.5171,-15.54,-12.84,31.08
6.1019,1.9613,-6.4424,0.35705,0.89858,-0.36041,-15.24,-12.78,31.14
6.3743,1.9886,-6.1428,0.35339,1.0614,-0.26389,-15.12,-12.84,30.96
6.5241,2.0431,-5.8976,0.36927,1.0751,-0.17562,-15.0,-12.66,30.96
7.1507,2.1248,-5.6524,0.37965,0.9053,-0.086743,-15.18,-12.48,30.78
7.4503,2.1656,-5.5707,0.40164,0.66493,-0.032376,-15.36,-12.36,30.72
7.355,2.1929,-5.2711,0.43646,0.31124,-0.0030543,-15.36,-12.3,30.78
7.1915,2.1929,-5.1485,0.48411,-0.10049,0.038179,-15.54,-12.18,30.78
7.1098,2.2474,-5.5299,0.53359,-0.38668,0.10446,-16.02,-11.64,30.48
7.2188,2.1112,-5.7614,0.55314,-0.36988,0.12523,-16.26,-11.46,30.3
7.2188,2.152,-5.9385,0.54336,-0.29535,0.13867,-16.32,-11.28,30.3
6.8647,2.0839,-5.8976,0.52657,-0.16524,0.15699,-16.68,-10.74,30.42
7.0553,1.9205,-5.9657,0.51893,-0.0281,0.197,-16.8,-10.56,30.42
7.3005,1.7162,-6.0338,0.47067,0.038485,0.18448,-16.86,-10.2,30.42
7.5048,1.6344,-6.1155,0.4273,0.0058032,0.17623,-17.04,-9.54,30.54
7.2869,1.5936,-6.0338,0.38454,0.12095,0.16768,-17.1,-9.3,30.72
7.0553,1.6344,-5.9521,0.35308,0.33201,0.16188,-17.1,-9.12,30.78
7.1643,1.6072,-5.9385,0.28741,0.5959,0.16646,-17.04,-8.52,30.84
7.3141,1.4438,-5.8976,0.24679,0.67714,0.19456,-17.1,-8.22,30.96
7.4095,1.4165,-5.9249,0.21777,0.69242,0.20831,-17.16,-7.92,30.96
7.7091,1.185,-6.0474,0.14019,0.75167,0.20647,-17.28,-7.74,30.96
8.1722,0.85808,-6.4833,0.037874,0.95142,0.18662,-17.4,-7.5,30.96
8.4038,0.85808,-6.3743,-0.049786,0.92546,0.13775,-17.64,-7.38,30.84
8.6353,0.99429,-5.9521,-0.080634,0.77977,0.12126,-17.64,-7.2,30.78
8.9213,1.0488,-5.0531,-0.024435,0.58704,0.054367,-18.3,-6.96,30.3
9.0167,1.2667,-4.6309,0.014661,0.4444,0.036041,-18.54,-6.78,30.12
8.8124,1.362,-4.6854,0.11668,0.062614,0.11698,-18.66,-6.72,29.88
7.9951,1.2395,-5.3119,0.14844,0.03543,0.15088,-19.26,-6.54,29.34
8.145,1.185,-5.7614,0.13989,0.094684,0.12339,-19.44,-6.48,29.16
8.4582,1.185,-5.9385,0.08491,0.027489,0.13164,-19.86,-6.36,28.92
8.6353,1.1986,-5.775,0.055283,-0.04612,0.14691,-20.16,-6.3,28.74
8.5808,1.1169,-5.775,0.033598,-0.082772,0.15424,-20.46,-6.18,28.62
8.4719,1.0079,-5.7069,0.020769,-0.083994,0.12889,-20.58,-6.3,28.68
8.3493,1.0079,-5.7342,0.010996,-0.083689,0.12645,-20.64,-6.18,28.74
8.5808,1.0351,-5.5707,0.015882,-0.087659,0.11148,-20.7,-5.88,28.62
8.5808,0.99429,-5.5571,0.01405,-0.11148,0.10782,-20.94,-5.82,28.56
8.2676,1.0079,-5.6797,0.018631,-0.12034,0.1127,-20.94,-5.7,28.56
8.2539,0.92618,-5.6661,-0.0012217,-0.081551,0.10812,-20.88,-5.46,28.68
8.1858,0.84446,-5.6116,0.0039706,-0.074831,0.1179,-20.94,-5.28,28.92
8.2267,0.89894,-5.5162,0.0085521,-0.13378,0.14905,-21.0,-5.28,29.04
8.2676,0.89894,-5.489,0.011606,-0.1686,0.14233,-20.94,-5.16,29.04
8.2539,0.85808,-5.4073,0.03146,-0.22633,0.17868,-20.88,-5.16,28.92
8.0905,0.7355,-5.4209,0.035125,-0.22571,0.18479,-20.76,-4.92,28.92
7.9407,0.83084,-5.4345,0.037874,-0.057727,0.18418,-20.64,-4.86,29.04
8.0088,0.76274,-5.4073,0.040623,-0.0030543,0.17959,-20.64,-4.74,28.92
8.3629,0.72188,-5.5162,0.037568,0.0058032,0.19212,-20.64,-4.92,28.98
8.4446,0.58567,-5.8023,0.0094684,-0.093768,0.18906,-20.52,-4.86,29.04
8.3357,0.64016,-5.775,-0.000916,-0.18234,0.18601,-20.52,-4.8,29.22
8.0224,0.53119,-5.8295,-0.045815,-0.19059,0.17471,-20.52,-4.8,29.22
7.8726,0.50395,-5.9521,-0.069639,-0.13286,0.19548,-20.52,-4.86,29.34
7.8317,0.47671,-5.7478,-0.082467,-0.027489,0.197,-20.58,-4.8,29.28
7.9679,0.64016,-5.7614,-0.079412,-0.041539,0.20159,-20.7,-4.68,29.28
8.0769,0.72188,-5.6388,-0.08827,-0.12309,0.2419,-20.64,-4.56,29.34
7.8453,0.68102,-5.6388,-0.085521,-0.19731,0.26328,-20.76,-4.56,29.4
7.5729,0.69464,-5.993,-0.10599,-0.27886,0.30727,-20.64,-4.56,29.7
7.641,0.65378,-5.993,-0.11851,-0.31521,0.3488,-20.7,-4.68,29.7
7.6274,0.65378,-5.9385,-0.13073,-0.36896,0.39981,-20.58,-4.5,29.76
7.5457,0.61292,-6.0611,-0.1347,-0.35155,0.46884,-20.7,-4.32,30.0
7.641,0.6674,-6.2654,-0.12798,-0.33323,0.49297,-20.82,-4.26,30.0
7.8453,0.57205,-6.4152,-0.11973,-0.43463,0.52137,-20.58,-4.2,30.0
7.75,0.49033,-6.3198,-0.091935,-0.63377,0.60109,-20.52,-4.08,30.06
7.5184,0.51757,-6.2926,-0.055894,-0.66523,0.61178,-20.46,-3.96,30.0
7.5593,0.53119,-6.4969,-0.03879,-0.65668,0.62339,-20.28,-3.96,30.12
7.5048,0.64016,-6.851,0.043982,-0.56322,0.63102,-19.8,-3.66,30.48
7.5184,0.61292,-6.9328,0.10415,-0.52718,0.64477,-19.68,-3.6,30.78
7.5729,0.6674,-7.0553,0.15882,-0.61361,0.66737,-19.44,-3.48,30.96
7.4231,0.24517,-7.1098,0.20372,-0.88392,0.70494,-19.2,-2.88,31.08
7.2188,0.24517,-7.1234,0.19426,-0.88698,0.71349,-18.96,-2.58,31.26
7.1234,-0.21793,-7.0826,0.18295,-0.83933,0.70921,-18.78,-2.46,31.5
6.96,-0.17706,-6.9191,0.13073,-0.76816,0.70555,-18.12,-1.92,31.8
6.7966,-0.29965,-6.7421,0.084605,-0.72296,0.71807,-17.76,-1.62,31.98
6.7012,-0.42223,-6.7012,0.051313,-0.61025,0.72265,-17.58,-1.38,32.4
6.3743,-0.40861,-6.6604,0.024129,-0.49236,0.7251,-16.98,-1.08,32.76
6.3743,-0.34051,-6.5514,0.021075,-0.44502,0.73731,-16.74,-0.78,33.12
6.2926,-0.50395,-6.3471,0.018631,-0.3091,0.75198,-16.56,-0.42,33.3
6.3471,-0.77636,-6.1564,0.0094684,-0.17929,0.74098,-16.08,-0.24,33.72
6.4833,-0.83084,-6.1428,0.039706,-0.19456,0.70647,-15.84,0.12,33.66
6.6331,-0.9398,-6.2654,0.066279,-0.17868,0.65882,-15.66,0.36,34.02
6.6467,-1.1713,-6.0883,0.13256,-0.15821,0.60109,-15.18,0.54,34.32
6.5786,-1.3212,-6.1292,0.16799,-0.15211,0.5791,-15.0,0.78,34.44
6.3471,-1.2803,-6.279,0.20403,-0.17715,0.55589,-14.7,0.96,34.5
6.17,-1.5255,-6.3335,0.23243,-0.13989,0.53603,-14.64,1.26,34.62
6.0883,-1.58,-6.4288,0.25107,-0.16096,0.51465,-14.4,1.32,34.62
5.9657,-1.8387,-6.4152,0.26817,-0.14386,0.51954,-14.22,1.5,34.56
6.1292,-2.2882,-6.5105,0.24648,-0.079412,0.50977,-14.04,2.1,34.92
6.1836,-2.4653,-6.5105,0.27,0.035125,0.48319,-13.8,2.34,34.92
6.2109,-2.5334,-6.6195,0.28527,0.055589,0.46609,-13.68,2.46,34.92
6.2245,-2.6832,-6.6195,0.34178,0.049175,0.42058,-13.44,3.0,34.98
6.1836,-2.8467,-6.5378,0.37721,0.024129,0.39034,-13.26,3.6,35.16
6.0611,-2.9284,-6.5922,0.41356,0.036957,0.35644,-13.2,3.84,35.16
6.1428,-3.2553,-6.6604,0.40989,0.06017,0.32162,-13.32,4.44,35.04
6.2109,-3.337,-6.7421,0.40684,0.069639,0.28466,-13.44,4.74,35.04
6.3198,-3.4596,-6.7148,0.41417,0.069333,0.2532,-13.44,5.1,35.1
6.3062,-3.6366,-6.8374,0.40317,0.072082,0.24221,-13.38,5.4,35.1
6.4152,-3.8137,-6.96,0.39065,0.11148,0.17776,-13.5,5.58,35.1
6.5378,-3.8954,-6.8919,0.37965,0.10812,0.135,-13.68,6.42,35.28
6.565,-3.9635,-6.9464,0.36591,0.070555,0.098655,-13.86,6.72,35.16
6.5514,-3.9771,-7.0417,0.35033,0.054367,0.080329,-13.92,7.32,35.34
6.5786,-4.1406,-6.9736,0.3149,0.033903,0.05681,-14.04,7.56,35.34
6.6195,-4.3313,-6.9872,0.30696,0.032681,0.048564,-14.22,7.74,35.28
6.5922,-4.3994,-7.1234,0.25565,0.0018326,0.013134,-14.58,8.28,35.34
6.456,-4.4675,-6.9736,0.23946,0.044288,0.0036652,-14.76,8.58,35.28
6.3743,-4.4947,-7.0145,0.22724,0.10385,-0.014661,-14.76,8.82,35.34
6.5786,-4.5764,-7.0417,0.20525,0.1237,-0.069333,-14.88,9.24,35.4
6.7693,-4.6854,-6.9328,0.18723,0.034208,-0.091324,-15.06,9.36,35.4
6.7421,-4.6854,-6.9328,0.17959,-0.013134,-0.11026,-15.12,9.48,35.34
6.4969,-4.7944,-6.8102,0.14478,-0.11942,-0.12095,-15.3,9.72,35.4
6.3471,-4.6718,-6.8238,0.10996,-0.15241,-0.13531,-15.42,9.9,35.46
6.3198,-4.5492,-6.9328,0.066279,-0.13073,-0.13561,-15.36,9.96,35.58
6.3198,-4.5764,-6.9872,0.038485,0.035736,-0.11209,-15.72,10.08,35.52
6.3879,-4.6173,-6.9055,0.030238,0.1576,-0.093768,-15.9,10.14,35.58
6.456,-4.5356,-6.8102,0.035125,0.18357,-0.095295,-16.14,10.2,35.7
6.6195,-4.4811,-6.8647,0.050702,0.13225,-0.082161,-16.38,10.2,35.7
6.8783,-4.6173,-7.0417,-0.0067195,0.19914,-0.093157,-16.44,10.26,35.82
6.9328,-4.4402,-6.9464,-0.032987,0.085827,-0.12798,-16.62,10.32,35.94
6.7966,-4.3313,-6.9464,-0.092546,0.021991,-0.11851,-16.86,10.32,36.0
6.7421,-4.2904,-6.8647,-0.13256,0.092546,-0.12859,-16.92,10.38,36.12
6.7421,-4.0861,-6.5786,-0.14203,0.19059,-0.12309,-17.1,10.38,36.36
6.9872,-4.0316,-6.1564,-0.1295,0.22327,-0.10843,-17.22,10.32,36.36
6.96,-3.9227,-6.1836,-0.090713,0.11057,-0.089186,-17.28,10.2,36.3
6.8374,-4.0316,-6.2654,-0.043677,-0.041844,-0.078802,-17.4,10.14,36.24
6.7829,-4.1542,-6.2517,0.01405,-0.061392,-0.094379,-17.52,10.14,36.24
6.9736,-3.9771,-6.4424,0.051007,-0.050091,-0.13103,-17.58,10.2,36.24
6.9464,-3.9908,-6.4697,0.069639,-0.087659,-0.13561,-17.58,10.14,36.18
6.7557,-3.9363,-6.5105,0.061697,-0.087965,-0.14325,-17.7,10.08,36.0
6.8374,-3.9227,-6.565,0.043982,-0.050702,-0.15088,-17.7,10.02,35.94
6.9328,-3.9499,-6.8238,0.020769,-0.04948,-0.13806,-17.7,9.96,35.88
6.6467,-3.8954,-7.069,-0.000611,-0.14936,-0.10079,-17.58,9.78,36.0
6.5786,-3.9635,-7.0281,-0.042761,-0.067195,-0.09163,-17.7,9.72,35.88
6.6467,-3.9635,-7.1234,-0.06689,-0.035125,-0.081245,-17.76,9.72,35.82
6.6604,-3.9908,-7.355,-0.15424,-0.041539,-0.014661,-17.88,9.72,35.88
6.279,-3.9635,-7.5048,-0.18479,-0.13561,0.043677,-17.88,9.72,35.88
5.9249,-4.2359,-7.3958,-0.22785,-0.092241,0.073915,-18.06,9.72,36.06
6.4833,-4.6037,-7.1643,-0.25473,-0.018326,0.07422,-17.88,9.78,36.24
6.5786,-4.8352,-7.2869,-0.24984,-0.1576,0.10415,-17.88,9.78,36.3
6.4833,-5.0804,-7.355,-0.25443,-0.23824,0.12675,-17.88,9.78,36.48
6.1836,-5.4073,-7.355,-0.30849,-0.36133,0.15272,-17.82,9.66,36.54
5.7342,-5.5435,-7.1371,-0.36377,-0.31093,0.17807,-17.76,9.6,36.54
5.4073,-5.1894,-6.8783,-0.41478,-0.22969,0.21777,-17.88,9.66,36.48
5.4073,-4.9169,-6.8783,-0.49938,-0.097738,0.29688,-17.58,9.72,36.6
5.3528,-4.3449,-6.7421,-0.52198,-0.047037,0.39248,-17.1,9.6,36.78
5.2575,-4.0725,-6.7012,-0.5226,0.031154,0.47831,-16.86,9.48,36.96
5.3256,-3.8001,-6.6195,-0.48411,0.095906,0.55955,-16.68,9.36,36.9
5.3528,-3.3097,-6.2654,-0.416,0.1347,0.6411,-16.08,9.36,37.02
5.5162,-3.1054,-6.1019,-0.33628,0.15821,0.70647,-15.84,9.12,36.84
5.9249,-2.9829,-6.279,-0.27947,0.10018,0.71257,-15.78,9.18,36.72
6.5241,-2.833,-6.7421,-0.23854,0.055283,0.69394,-15.42,9.06,36.6
6.565,-2.7649,-6.8647,-0.21961,-0.0036652,0.66951,-15.24,8.82,36.48
6.5105,-2.7241,-6.7829,-0.22205,0.014355,0.64966,-15.06,8.76,36.54
6.6195,-2.656,-6.5786,-0.22297,0.055894,0.61545,-14.88,8.82,36.48
6.6331,-2.6423,-6.4152,-0.20922,0.068722,0.59407,-14.28,8.58,36.42
6.6467,-2.5061,-6.2381,-0.16493,0.065973,0.55405,-14.4,8.46,36.36
6.5922,-2.3427,-6.3607,-0.049786,-0.036652,0.49786,-14.28,8.64,36.06
6.3062,-2.152,-6.4288,0.000305,-0.11362,0.48289,-14.16,8.7,36.0
6.2517,-2.0567,-6.4969,0.10965,-0.29413,0.45723,-13.98,8.82,36.0
6.0202,-2.152,-6.5786,0.2303,-0.62033,0.46395,-13.74,8.94,35.88
5.489,-2.4108,-6.7966,0.30207,-0.79443,0.49052,-13.56,9.0,35.94
5.3528,-2.6832,-7.0962,0.33445,-0.66035,0.47312,-13.26,8.94,36.0
5.5571,-3.0918,-7.5457,0.35675,-0.45357,0.42119,-12.72,9.24,35.94
5.7478,-3.3234,-7.7091,0.35552,-0.17593,0.31337,-12.48,9.36,35.88
5.9521,-3.5413,-7.6138,0.3543,-0.13989,0.24068,-12.24,9.54,35.82
5.993,-3.7728,-7.641,0.33353,-0.24618,0.16799,-11.88,9.78,35.88
5.5162,-3.9635,-7.8045,0.32406,-0.30207,0.1011,-11.28,10.2,35.7
5.1894,-4.0589,-7.8998,0.281,-0.25992,0.045509,-10.98,10.44,35.64
4.9987,-4.1542,-7.8317,0.1799,-0.1014,0.045815,-10.86,10.68,35.64
4.7399,-3.9771,-7.3822,0.15608,-0.05284,0.044288,-10.5,11.16,35.82
4.6445,-4.0316,-7.1234,0.11423,0.064446,-0.022602,-10.32,11.4,35.82
4.7126,-4.0861,-7.0281,0.10568,0.068417,-0.015272,-10.2,11.58,35.82
4.9033,-4.0861,-7.0009,0.10415,0.0030543,-0.0094684,-9.9,11.76,35.88
4.9578,-4.4539,-7.1234,0.11026,-0.055589,-0.0085521,-9.6,12.24,35.7
4.9033,-4.522,-7.1234,0.15241,-0.11393,-0.033903,-9.42,12.42,35.7
4.7944,-4.7399,-6.9736,0.1573,-0.09499,-0.043982,-9.24,12.84,35.82
4.9714,-4.8625,-7.0145,0.1408,0.0281,-0.069333,-9.06,13.02,35.88
5.1213,-5.0259,-7.1779,0.11057,0.12584,-0.11912,-9.0,13.2,35.82
5.2166,-4.9987,-7.355,0.057421,0.15821,-0.15577,-8.94,13.2,35.94
4.985,-4.8352,-7.641,0.009163,0.14783,-0.14783,-9.12,13.32,35.82
4.6445,-4.6037,-7.5321,-0.016799,0.021686,-0.1295,-9.24,13.5,35.7
4.4402,-4.5764,-7.5184,-0.022602,0.014355,-0.11362,-9.18,13.56,35.58
4.6582,-4.4811,-7.3822,-0.019242,0.053756,-0.10537,-9.12,13.5,35.46
5.094,-4.522,-7.3822,-0.0018326,0.15577,-0.087659,-9.18,13.56,35.28
5.1757,-4.4402,-7.2324,0.030238,0.012523,-0.040317,-9.12,13.62,35.28
5.0531,-4.6037,-7.1643,0.055894,-0.044899,-0.010385,-9.18,13.98,35.1
4.9169,-4.5764,-7.1098,0.076053,-0.092546,-0.0094684,-9.24,13.92,35.04
4.8897,-4.6173,-7.1234,0.087659,-0.058948,-0.016799,-9.48,14.04,34.8
5.2438,-4.7807,-7.0962,0.086437,-0.045815,-0.027489,-9.66,14.1,34.74
5.2847,-4.808,-7.1507,0.10018,-0.097128,-0.023824,-9.72,14.16,34.92
5.1213,-4.7399,-7.0553,0.094684,-0.15974,-0.0054978,-9.78,14.16,34.92
4.9306,-4.7807,-7.1779,0.053451,-0.04215,-0.025045,-9.66,14.22,34.98
5.094,-4.6718,-7.3686,0.042455,-0.022907,-0.022602,-9.6,14.16,35.04
5.1213,-4.8625,-7.1915,0.03543,-0.020769,-0.020159,-9.54,14.22,35.16
5.1894,-4.8897,-7.1915,-0.0085521,-0.03207,0.000916,-9.6,14.34,35.16
5.1349,-4.8761,-7.246,-0.015272,-0.050091,0.0045815,-9.6,14.4,35.22
4.9442,-4.9033,-7.1779,-0.030543,-0.074526,0.043371,-9.78,14.64,35.34
4.8488,-4.9169,-7.1915,-0.037874,-0.087048,0.033292,-9.66,14.58,35.46
4.8761,-4.8352,-7.0553,-0.043982,-0.04215,0.016493,-9.72,14.58,35.64
5.4073,-4.8625,-6.9464,-0.068417,0.013744,0.0051924,-9.36,14.52,35.7
5.5435,-4.7944,-6.9328,-0.075747,0.0024435,-0.015577,-9.36,14.52,35.76
5.5843,-4.699,-7.069,-0.08827,-0.017104,-0.066279,-9.42,14.46,35.58
5.4754,-4.4811,-7.1371,-0.074831,-0.11209,-0.074831,-9.48,14.52,35.88
5.3256,-4.3858,-7.3141,-0.06017,-0.09499,-0.061392,-9.48,14.52,35.82
5.1894,-4.5083,-6.9872,-0.042455,-0.059254,-0.0562,-9.3,14.52,35.76
5.2575,-4.4402,-7.2188,-0.044899,-0.10171,-0.076358,-9.3,14.46,35.64
5.3256,-4.5628,-7.3414,-0.058948,-0.14691,-0.06689,-9.36,14.46,35.64
5.2575,-4.6718,-7.3141,-0.01069,-0.24496,-0.036957,-9.3,14.28,35.64
4.8897,-4.5628,-7.2324,-0.028711,-0.20372,-0.017715,-9.12,14.04,35.7
4.7399,-4.5492,-7.2324,-0.042455,-0.090408,-0.030238,-9.24,13.98,35.64
4.7399,-4.5764,-7.246,-0.038485,-0.000611,-0.019853,-9.06,14.1,35.46
4.8761,-4.699,-7.246,-0.030849,0.043371,0.014661,-9.18,13.98,35.58
5.0259,-4.7944,-7.4095,-0.057421,0.085827,0.0012217,-9.06,13.98,35.64
5.1485,-4.8352,-7.4231,-0.062614,0.1124,-0.0097738,-9.0,14.1,35.58
5.2575,-4.8761,-7.355,-0.081245,0.17746,-0.033292,-9.06,14.04,35.58
5.2847,-4.8625,-7.3686,-0.093768,0.17715,-0.042455,-9.06,14.16,35.52
5.4073,-4.8897,-7.3141,-0.097433,0.1014,-0.054367,-9.24,14.16,35.64
5.4754,-4.9033,-7.4095,-0.091324,-0.0082467,-0.079412,-9.3,14.34,35.58
5.5299,-4.9033,-7.4776,-0.093462,-0.10507,-0.10507,-9.18,14.28,35.58
5.5707,-4.9442,-7.4231,-0.087354,-0.11332,-0.11545,-9.18,14.4,35.58
5.4345,-4.9033,-7.5321,-0.072388,-0.1857,-0.14111,-9.18,14.28,35.34
5.3937,-4.8488,-7.6002,-0.07758,-0.18204,-0.13286,-9.24,14.34,35.28
5.2575,-4.8352,-7.4912,-0.077274,-0.12767,-0.14294,-9.18,14.34,35.46
5.4345,-4.8488,-7.5729,-0.092241,-0.10904,-0.14325,-9.36,14.4,35.34
5.4073,-4.8625,-7.5457,-0.094684,-0.15547,-0.14539,-9.48,14.28,35.28
5.3119,-4.8352,-7.5048,-0.094379,-0.17715,-0.14661,-9.3,14.1,35.34
5.3119,-4.9033,-7.5048,-0.10934,-0.21716,-0.15638,-9.3,13.98,35.22
5.094,-4.8352,-7.3686,-0.11698,-0.2361,-0.15547,-9.24,13.62,35.34
4.9987,-4.8352,-7.464,-0.13042,-0.20922,-0.16157,-9.06,13.5,35.28
5.0531,-4.7944,-7.3822,-0.13806,-0.13195,-0.17318,-8.88,13.2,35.34
5.0531,-4.6037,-7.464,-0.13806,-0.10018,-0.17929,-8.76,13.2,35.34
5.0804,-4.6309,-7.4503,-0.16341,-0.034208,-0.16921,-8.64,13.08,35.34
5.1894,-4.6037,-7.4503,-0.16371,-0.031765,-0.16921,-8.64,12.9,35.46
5.3119,-4.6037,-7.4367,-0.17196,-0.092852,-0.1741,-8.58,12.84,35.46
5.4345,-4.4811,-7.4095,-0.16768,-0.19151,-0.18173,-8.7,12.42,35.4
5.4754,-4.413,-7.4503,-0.1689,-0.25656,-0.18326,-8.64,12.24,35.46
5.2575,-4.3449,-7.7636,-0.15608,-0.30757,-0.20708,-8.16,11.94,35.7
5.1757,-4.2768,-7.7364,-0.16646,-0.31124,-0.21655,-8.1,11.82,35.76
5.1621,-4.2223,-7.7364,-0.15119,-0.27886,-0.22969,-7.92,11.82,35.82
5.203,-4.1542,-7.8726,-0.16005,-0.24404,-0.24312,-7.86,11.76,35.82
5.1894,-4.0589,-7.8589,-0.15791,-0.23885,-0.25717,-7.8,11.7,35.94
5.1213,-4.0589,-7.8998,-0.15119,-0.21869,-0.25931,-7.8,11.46,36.0
5.0531,-4.0044,-7.7364,-0.14355,-0.18448,-0.27092,-7.56,10.98,36.12
5.1213,-3.9635,-7.6955,-0.13622,-0.20495,-0.29383,-7.56,10.86,36.18
5.1894,-3.9227,-7.7227,-0.12645,-0.22907,-0.30574,-7.32,10.74,36.18
5.2847,-3.9227,-7.7091,-0.1066,-0.36285,-0.33201,-7.26,10.56,36.3
5.1757,-3.8137,-7.927,-0.11729,-0.4499,-0.37721,-7.02,10.5,36.54
5.0259,-3.7592,-7.9679,-0.13256,-0.45907,-0.40775,-6.84,10.44,36.6
4.9169,-3.5413,-7.8998,-0.15088,-0.45937,-0.43158,-6.84,10.32,36.54
4.8352,-3.4732,-7.8045,-0.18082,-0.38332,-0.45296,-6.6,10.2,36.54
4.8897,-3.337,-7.8998,-0.19151,-0.35552,-0.47647,-6.36,9.9,36.54
4.8488,-3.2961,-7.8862,-0.20311,-0.32315,-0.49052,-6.12,9.72,36.54
4.9033,-3.2553,-7.9134,-0.20159,-0.29352,-0.51313,-5.76,9.66,36.54
4.7399,-3.1054,-7.927,-0.19761,-0.23732,-0.51557,-5.28,9.54,36.66
4.6037,-3.0646,-7.9815,-0.19456,-0.17807,-0.56169,-5.1,9.6,36.66
4.8352,-2.942,-8.1041,-0.19395,-0.18357,-0.57116,-5.04,9.54,36.6
4.8488,-2.8875,-8.0769,-0.19609,-0.20311,-0.58399,-4.68,9.24,36.66
4.7535,-2.833,-8.0905,-0.19212,-0.18967,-0.58765,-4.44,9.24,36.78
4.7944,-2.8058,-8.0905,-0.20006,-0.1799,-0.62064,-4.2,9.06,36.78
4.7671,-2.6015,-8.322,-0.23305,-0.20739,-0.61942,-3.84,8.76,36.42
4.808,-2.5742,-8.4719,-0.27458,-0.21197,-0.62369,-3.66,8.7,36.48
4.3449,-2.3155,-8.1858,-0.3375,-0.13286,-0.63561,-3.48,8.34,36.48
4.1814,-2.261,-7.8317,-0.354,-0.022907,-0.65179,-3.48,8.28,36.48
4.3177,-2.2337,-7.6683,-0.35155,0.10812,-0.62461,-3.42,8.1,36.54
4.5764,-2.1929,-7.8317,-0.31582,0.0562,-0.61087,-3.48,7.56,36.3
4.6445,-2.0567,-8.0632,-0.28375,0.0045815,-0.59346,-3.54,7.26,36.36
4.5356,-1.866,-8.0905,-0.24923,0.041233,-0.56016,-3.36,7.08,36.36
4.6037,-1.8387,-8.1858,-0.2025,0.16707,-0.4945,-3.36,6.72,36.48
4.7671,-2.0431,-8.2539,-0.16554,0.11301,-0.48106,-3.3,6.6,36.6
4.8625,-2.0158,-8.2539,-0.15241,0.013134,-0.47861,-3.24,6.36,36.48
4.8625,-2.0294,-8.322,-0.14569,-0.01741,-0.47617,-3.12,6.06,36.54
4.9578,-2.0703,-8.4174,-0.15821,-0.000305,-0.47159,-3.18,5.82,36.72
5.0531,-2.0839,-8.4446,-0.18143,-0.018021,-0.5058,-3.18,5.52,36.66
4.7944,-1.866,-8.2948,-0.18082,-0.068111,-0.5455,-3.24,5.28,36.54
4.6718,-1.7298,-8.145,-0.18448,-0.082161,-0.55314,-3.18,5.1,36.72
4.6718,-1.4846,-8.2131,-0.18265,-0.05681,-0.58704,-3.12,4.92,36.72
4.6718,-1.1577,-8.2267,-0.16218,-0.024435,-0.57177,-3.12,4.86,37.02
4.2904,-1.0215,-8.322,-0.12339,0.028711,-0.52931,-3.06,4.68,37.02
4.3858,-1.0896,-8.4719,-0.080634,0.069028,-0.489,-3.06,4.56,37.02
4.6173,-0.92618,-8.4719,-0.021686,0.042761,-0.51557,-3.06,4.32,36.96
4.3858,-0.98067,-8.4174,0.0085521,0.075136,-0.51282,-2.88,4.14,36.96
4.2632,-0.91256,-8.2948,0.037568,0.11423,-0.51649,-3.06,4.26,36.96
4.5356,-0.91256,-8.322,0.073915,0.10324,-0.51985,-3.3,4.08,37.02
4.6582,-0.96704,-8.3765,0.09499,0.042455,-0.53603,-3.24,3.96,36.9
4.6445,-0.96704,-8.5127,0.073609,0.062308,-0.60812,-3.3,3.96,36.96
4.3449,-0.69464,-8.2812,0.055283,0.12645,-0.66371,-3.36,4.02,37.02
4.4266,-0.8036,-8.145,0.059559,0.13928,-0.68081,-3.42,3.96,36.9
4.6718,-0.8036,-8.036,0.078496,0.14447,-0.67714,-3.36,3.84,36.96
4.6309,-0.6674,-8.2131,0.12981,0.064752,-0.67226,-3.42,3.6,36.9
4.4402,-0.61292,-8.2539,0.17318,0.029322,-0.63438,-3.54,3.66,36.84
4.4811,-0.61292,-8.1722,0.18967,0.065363,-0.56413,-3.54,3.6,36.96
4.2223,-0.55843,-8.0905,0.23549,0.17074,-0.45571,-3.72,3.66,37.14
4.3313,-0.47671,-8.0632,0.26237,0.20769,-0.38332,-3.9,3.66,36.96
4.6718,-0.7355,-8.0632,0.28191,0.18967,-0.3656,-3.9,3.54,36.84
4.6854,-0.81722,-7.9951,0.281,0.11148,-0.29535,-3.84,3.6,37.14
4.6854,-0.81722,-7.9951,0.27184,0.15302,-0.2813,-3.84,3.6,37.14
4.7944,-0.76274,-7.8998,0.23091,0.23854,-0.2642,-3.96,3.84,36.96
5.0395,-0.77636,-7.8862,0.20403,0.25595,-0.23335,-4.02,3.9,36.96
4.985,-0.7355,-7.8998,0.20159,0.22938,-0.20678,-3.96,3.96,37.08
5.0531,-0.77636,-7.8589,0.19364,0.21105,-0.19761,-4.2,4.44,37.02
5.2438,-0.8036,-7.9543,0.18845,0.11423,-0.2022,-3.96,4.8,37.02
5.2847,-0.85808,-8.145,0.17776,0.022907,-0.18418,-4.26,5.22,36.72
5.1757,-0.96704,-8.1586,0.16738,-0.039095,-0.16005,-4.32,5.46,36.3
5.094,-0.99429,-8.2403,0.16829,0.0030543,-0.15547,-4.5,5.64,36.3
5.1485,-1.076,-8.3493,0.15669,0.093157,-0.14722,-4.38,5.82,36.18
5.3119,-1.0351,-8.1995,0.15211,0.12981,-0.1295,-4.44,5.94,36.3
5.3119,-0.95342,-8.2131,0.14813,0.13042,-0.12034,-4.62,5.94,36.18
5.3937,-0.92618,-8.1177,0.13714,0.1182,-0.10018,-4.74,6.06,35.82
5.4481,-0.92618,-8.2131,0.11026,0.069028,-0.076358,-5.1,6.06,35.88
5.5162,-0.83084,-8.1858,0.094684,-0.000611,-0.053145,-5.28,6.24,35.88
5.5843,-0.9398,-8.431,0.040317,-0.1405,-0.040928,-5.46,6.3,36.0
5.4345,-1.0079,-8.4719,0.021991,-0.16341,-0.02474,-5.58,6.42,36.18
5.2302,-1.1986,-8.4446,-0.031765,-0.059559,-0.007025,-5.64,6.48,36.06
5.2302,-1.1441,-8.322,-0.065668,0.064446,0.009163,-5.76,6.78,36.18
5.3664,-1.1441,-8.1858,-0.079718,0.13317,0.0076358,-5.76,6.66,36.06
5.6933,-1.0488,-8.1177,-0.087048,0.0956,0.011606,-5.76,6.84,36.06
5.8023,-0.99429,-8.0496,-0.072998,-0.051618,0.013744,-6.0,6.96,36.18
5.6661,-0.83084,-7.9951,-0.03146,-0.20892,0.030543,-5.94,7.02,36.06
5.6388,-0.88532,-8.036,-0.009163,-0.25931,0.018021,-6.0,7.14,36.06
5.4345,-0.92618,-8.1586,0.011606,-0.22235,0.038179,-5.76,7.02,36.0
5.203,-0.96704,-8.145,0.031154,-0.029016,0.035736,-5.7,6.96,36.06
5.2847,-1.0215,-8.1313,0.020464,0.12248,0.038485,-5.58,6.78,35.82
5.6797,-1.1032,-8.1722,0.018631,0.13439,0.025656,-5.22,6.72,35.88
5.6388,-1.076,-8.2812,-0.0048869,0.068417,0.044288,-5.34,6.78,35.7
5.6388,-1.1441,-8.2539,-0.037263,0.054672,0.01741,-5.4,6.72,35.76
5.7342,-1.1713,-8.0769,-0.059865,-0.0015272,0.0051924,-5.22,6.72,35.94
5.5026,-1.185,-8.036,-0.089797,-0.0085521,0.0051924,-5.1,6.72,36.0
5.4618,-1.2122,-8.1177,-0.12737,0.058338,0.019242,-4.98,6.72,36.0
5.5707,-1.2258,-8.036,-0.14508,0.08827,-0.000611,-4.92,6.6,35.76
5.6116,-1.1577,-8.1177,-0.15608,0.074831,0.000305,-4.98,6.66,35.52
5.6524,-1.1169,-8.2131,-0.16463,0.058948,0.0012217,-4.92,6.66,35.64
5.7069,-1.0896,-8.1722,-0.15211,0.061697,-0.0051924,-5.16,6.48,35.64
5.7614,-1.185,-8.1586,-0.15027,0.053756,0.0030543,-5.28,6.42,35.58
5.7614,-1.0624,-8.2267,-0.1463,0.062308,0.0024435,-5.4,6.24,35.64
5.8295,-1.0624,-8.2131,-0.1463,0.083689,-0.0054978,-5.52,6.12,35.46
5.7342,-0.77636,-8.2131,-0.14783,0.072082,0.0015272,-5.58,6.18,35.4
5.7478,-0.8036,-7.9679,-0.12584,0.092852,0.01069,-5.46,6.12,35.46
5.7069,-0.8036,-7.9679,-0.11729,0.10751,0.0058032,-5.7,6.24,35.7
5.598,-0.83084,-7.8453,-0.10446,0.1912,0.016799,-5.7,6.12,35.82
5.9112,-0.9398,-7.9951,-0.1014,0.19639,0.010385,-5.88,6.0,35.82
5.8976,-0.99429,-7.9951,-0.1066,0.097738,0.013439,-5.88,6.0,35.82
5.8976,-1.0624,-8.0088,-0.12309,0.083078,0.0030543,-5.94,6.0,35.88
5.9657,-1.2667,-7.9951,-0.15669,0.093768,-0.0067195,-6.06,6.0,35.88
5.6524,-1.4301,-8.1313,-0.23274,0.074831,-0.0088575,-6.12,5.94,35.64
5.5299,-1.5119,-8.1858,-0.30665,0.14997,-0.0039706,-6.0,5.82,35.64
5.7478,-1.6753,-8.0496,-0.3937,0.26848,-0.019853,-6.12,5.58,35.34
5.5707,-1.8387,-7.2596,-0.49541,0.31796,-0.0064141,-6.12,5.4,35.4
5.38,-1.8932,-7.0553,-0.61025,0.36682,0.023518,-6.18,5.22,35.28
5.2302,-2.0158,-6.7012,-0.74128,0.49663,0.045815,-6.42,5.16,35.22
5.4754,-1.471,-6.6059,-0.90958,0.64996,0.064752,-6.78,4.8,35.04
5.6116,-1.185,-6.6604,-0.95784,0.64049,0.10965,-7.08,4.5,35.04
5.8704,-0.76274,-6.8238,-0.99327,0.54795,0.18051,-7.38,3.84,34.92
5.489,-0.35413,-6.9055,-1.0354,0.45723,0.25565,-7.92,3.3,34.8
5.3119,-0.12258,-6.8374,-1.0577,0.52321,0.36285,-8.4,2.76,34.92
5.38,-0.01362,-6.8919,-1.0681,0.6805,0.4499,-8.82,2.4,34.98
5.8704,0.14982,-6.8647,-1.0727,0.78466,0.54611,-9.48,1.68,34.98
5.884,0.12258,-6.8102,-1.1072,0.83597,0.64691,-10.26,0.78,34.92
5.993,0.14982,-6.7421,-1.1457,0.85338,0.72174,-10.56,0.36,34.92
6.1836,0.28603,-6.3198,-1.1832,0.79321,0.80573,-11.04,-0.6,34.86
6.5786,0.38137,-6.0066,-1.2013,0.57879,0.9163,-11.64,-1.38,34.8
6.5786,0.42223,-5.8976,-1.2098,0.014355,1.1002,-12.0,-1.62,34.86
6.4833,0.64016,-5.9657,-1.2037,-0.40103,1.23,-12.48,-2.22,34.74
6.3062,0.9398,-6.0611,-1.1921,-0.69883,1.3427,-12.96,-3.06,34.26
6.0883,1.2122,-6.0883,-1.1622,-0.86773,1.4768,-13.56,-3.72,34.14
5.9249,1.1169,-6.1836,-1.0861,-1.055,1.6444,-13.68,-4.08,33.96
5.993,1.0079,-6.6604,-0.98227,-1.2346,1.8341,-13.74,-4.74,33.66
6.1019,1.0896,-7.1915,-0.87262,-1.3631,1.9413,-14.04,-5.16,33.36
6.1292,1.0624,-7.7364,-0.71227,-1.5824,2.0776,-14.1,-5.64,33.48
6.2517,1.0215,-7.8862,-0.56261,-1.6863,2.1597,-13.8,-5.94,33.72
6.5378,0.61292,-7.9951,-0.41172,-1.7144,2.1683,-13.56,-6.06,33.6
6.8238,-0.1362,-8.8668,-0.32193,-1.6509,2.1011,-13.2,-6.36,33.9
6.9191,-0.35413,-9.2482,-0.2981,-1.3854,1.945,-12.96,-6.48,34.02
6.5514,-0.27241,-9.6704,-0.31124,-0.978,1.7669,-12.3,-6.48,34.2
5.6933,-0.42223,-9.2618,-0.33872,0.014355,1.5944,-11.7,-6.54,34.74
6.0747,-0.25879,-9.1256,-0.33445,0.51618,1.3744,-11.46,-6.48,34.98
5.5707,0.21793,-9.0984,-0.37843,1.0849,1.3164,-11.22,-6.54,35.52
7.7772,0.40861,-10.188,-0.46792,1.223,1.0217,-11.22,-6.66,35.82
11.319,0.21793,-11.877,-0.63316,1.4111,0.63805,-11.46,-6.6,36.12
10.529,-0.21793,-10.215,-0.77305,1.0143,0.23182,-11.88,-6.9,36.12
6.7012,0.19068,-8.0905,-0.76786,0.65515,0.14569,-12.54,-7.08,36.3
4.9033,0.21793,-7.2733,-0.69455,0.65576,0.21105,-12.78,-7.32,36.36
4.3177,-0.24517,-6.9328,-0.59498,0.7926,0.31398,-13.62,-7.62,36.42
5.2847,-0.64016,-7.1234,-0.48991,0.7816,0.28924,-14.76,-7.98,36.18
5.6388,-0.46309,-7.3005,-0.43585,0.67256,0.25626,-16.02,-8.4,35.82
7.0962,-0.34051,-7.5048,-0.43555,0.59284,0.22113,-16.44,-8.64,35.7
7.3822,-0.054481,-7.9815,-0.43188,0.52137,0.18815,-17.22,-9.06,35.22
7.2733,-0.027241,-7.9134,-0.44196,0.5061,0.10507,-17.58,-9.24,35.04
6.8102,0.027241,-7.355,-0.43799,0.48594,0.06353,-18.12,-9.66,34.68
6.4697,0.12258,-7.2052,-0.39859,0.4496,0.087659,-18.72,-9.9,34.32
6.5786,0.31327,-7.5593,-0.24862,0.41417,0.086132,-19.56,-10.2,33.9
7.1234,0.027241,-7.5048,-0.044288,0.33445,0.094073,-19.62,-10.38,33.9
7.0281,-0.20431,-7.0962,0.012217,0.24709,0.076358,-20.1,-10.8,33.84
6.7557,-0.1362,-7.0281,0.0064141,0.17959,-0.0018326,-20.4,-10.92,33.66
6.7285,-0.1362,-7.1507,-0.0061087,0.2364,-0.020464,-20.46,-10.98,33.6
6.7829,0.027241,-7.0962,-0.01405,0.26725,-0.02138,-20.64,-11.16,33.54
7.0145,0.040861,-6.9872,-0.0088575,0.23946,-0.01405,-20.94,-11.22,33.42
7.0417,0.027241,-6.9736,-0.0018326,0.22205,-0.0085521,-21.06,-11.16,33.36
7.1234,0.027241,-7.1098,-0.013744,0.219,-0.019853,-21.3,-11.34,33.48
6.9464,-0.068102,-7.1234,-0.018326,0.19609,0.013134,-21.36,-11.34,33.0
6.9328,-0.068102,-7.1371,-0.038485,0.19395,0.034819,-21.36,-11.22,33.18
6.8919,-0.081722,-7.0009,-0.038179,0.13897,0.027794,-21.6,-11.22,32.76
6.9464,-0.040861,-6.9872,-0.049175,0.14722,0.065668,-21.66,-11.16,32.76
6.9736,-0.12258,-7.0281,-0.040317,0.060781,0.07086,-22.02,-11.16,32.64
6.8238,-0.054481,-7.069,-0.054062,0.018937,0.10476,-22.2,-11.04,32.58
6.7966,-0.12258,-7.0281,-0.081245,0.04948,0.16524,-22.26,-11.04,32.76
6.8647,-0.12258,-6.9872,-0.10629,0.078191,0.18295,-22.5,-11.1,32.7
6.8783,-0.027241,-6.9464,-0.13928,0.14111,0.23732,-22.74,-11.34,32.64
6.9872,-0.081722,-6.9328,-0.15882,0.17929,0.26542,-22.86,-11.46,32.64
7.1507,-0.068102,-6.5922,-0.16829,0.21961,0.25504,-23.16,-11.58,32.76
7.355,-0.068102,-6.5378,-0.17226,0.27642,0.24648,-23.28,-11.64,32.76
7.3822,-0.068102,-6.5378,-0.16585,0.31368,0.23885,-23.4,-11.52,32.76
7.75,-0.027241,-6.3879,-0.16432,0.37141,0.19456,-23.52,-11.58,32.82
7.8317,-0.095342,-6.3607,-0.14844,0.36163,0.17043,-23.7,-11.58,32.76
7.8862,-0.095342,-6.3335,-0.13683,0.30085,0.15394,-23.76,-11.7,32.58
7.8589,-0.19068,-6.3198,-0.11515,0.2364,0.12737,-24.0,-12.0,32.4
7.8317,-0.14982,-6.2654,-0.10354,0.22083,0.11423,-24.24,-12.06,32.22
7.8726,-0.14982,-6.1564,-0.091019,0.20525,0.080329,-24.54,-11.88,32.1
7.9951,-0.14982,-6.2517,-0.064752,0.15485,0.042455,-24.66,-11.76,32.1
7.9951,-0.095342,-6.3471,-0.036957,0.052229,0.021991,-24.78,-11.82,32.04
7.7091,-0.19068,-6.3879,-0.019853,-0.018937,0.015272,-24.84,-11.64,31.98
7.4503,-0.16344,-6.4016,-0.021075,-0.033903,0.010996,-24.9,-11.58,31.62
7.4776,-0.21793,-6.5105,-0.022907,-0.025962,0.014355,-25.08,-11.46,31.56
7.5048,-0.23155,-6.5105,-0.018631,0.0015272,0.0045815,-25.2,-11.76,31.56
7.5865,-0.10896,-6.3198,-0.026573,0.018631,0.010996,-25.32,-11.82,31.32
7.5729,-0.054481,-6.279,-0.0094684,0.046731,0.000916,-25.26,-11.88,31.38
7.5457,-0.027241,-6.2517,-0.000611,0.086437,0.0088575,-25.14,-11.88,31.44
7.6002,-0.16344,-6.4424,0.0015272,0.087048,-0.0054978,-25.44,-11.76,31.32
7.5865,-0.24517,-6.456,0.0048869,0.029627,-0.011301,-25.38,-11.88,31.44
7.5321,-0.23155,-6.5922,0.01405,-0.012828,-0.016799,-25.26,-12.06,31.38
7.5457,-0.24517,-6.5514,0.0045815,-0.018937,-0.015882,-25.2,-12.18,31.2
7.5321,-0.24517,-6.4833,-0.016188,-0.0027489,-0.0033598,-25.32,-12.06,30.96
7.5457,-0.16344,-6.4288,-0.027489,0.0064141,0.0054978,-25.44,-12.12,30.9
7.6138,-0.17706,-6.456,-0.023824,-0.0061087,0.0073304,-25.62,-12.12,31.14
7.5048,-0.12258,-6.5105,-0.01741,-0.022297,0.0085521,-25.62,-12.06,31.02
7.4776,-0.20431,-6.456,-0.022297,-0.016493,0.0045815,-25.44,-11.88,31.02
7.5457,-0.14982,-6.4697,-0.026573,0.0076358,0.009163,-25.44,-11.94,31.02
7.5593,-0.12258,-6.4424,-0.026573,0.022297,0.010079,-25.68,-11.7,31.08
7.5729,-0.12258,-6.3471,-0.019242,0.024129,0.0058032,-25.8,-11.7,31.08
7.6274,-0.1362,-6.3607,-0.02138,0.019242,-0.000611,-25.68,-11.76,31.08
7.5457,-0.28603,-6.4424,-0.012523,0.0097738,-0.000611,-25.68,-11.64,31.14
7.6002,-0.20431,-6.3743,-0.015882,0.0088575,0.0042761,-25.68,-11.76,31.32
7.6274,-0.12258,-6.3471,-0.0097738,0.0097738,-0.0036652,-25.86,-11.76,31.26
7.5593,-0.19068,-6.3198,-0.0018326,0.010385,-0.0073304,-25.68,-11.52,31.32
7.5457,-0.12258,-6.3743,-0.017104,0.012217,-0.0012217,-25.56,-11.52,31.26
7.5729,-0.17706,-6.4016,-0.013439,0.010385,-0.0067195,-25.38,-11.64,31.26
7.5048,-0.27241,-6.4152,-0.021075,0.0097738,-0.0015272,-25.32,-11.58,31.32
7.5321,-0.24517,-6.4152,-0.016188,0.015577,0.0048869,-25.5,-11.58,31.5
7.5593,-0.19068,-6.4424,-0.020159,0.018631,0.007025,-25.5,-11.52,31.56
7.6002,-0.14982,-6.4016,-0.024435,0.01069,0.0048869,-25.44,-11.64,31.44
7.6002,-0.19068,-6.5105,-0.025351,0.0076358,0.0054978,-25.5,-11.64,31.44
7.5729,-0.12258,-6.4016,-0.025045,0.015577,0.0054978,-25.56,-11.64,31.5
7.6138,-0.1362,-6.4152,-0.022907,0.01069,0.0048869,-25.5,-11.7,31.32
7.5457,-0.14982,-6.3607,-0.016188,0.010385,0.0012217,-25.5,-11.76,31.32
7.6138,-0.14982,-6.3743,-0.014966,0.0073304,0.0048869,-25.38,-11.76,31.38
7.5865,-0.16344,-6.3471,-0.021991,0.012523,0.010079,-25.26,-11.82,31.5
7.5865,-0.21793,-6.3607,-0.030238,0.012523,0.0085521,-25.32,-11.82,31.5
7.5729,-0.19068,-6.4016,-0.038179,0.018937,0.012523,-25.38,-11.76,31.56
7.5457,-0.16344,-6.3743,-0.036041,0.0036652,0.017715,-25.56,-11.7,31.5
7.5729,-0.1362,-6.4016,-0.032987,0.0033598,0.016188,-25.44,-11.76,31.5
7.5865,-0.1362,-6.3879,-0.036957,0.0024435,0.0082467,-25.5,-11.82,31.44
7.5593,-0.19068,-6.3198,-0.036652,0.0082467,0.014355,-25.44,-11.82,31.5
7.5457,-0.20431,-6.456,-0.040623,0.011606,0.019853,-25.2,-11.88,31.38
7.5729,-0.14982,-6.279,-0.039706,0.0088575,0.01741,-25.2,-11.82,31.5
7.6274,-0.21793,-6.2517,-0.043677,0.0015272,0.021075,-25.32,-11.7,31.56
7.5865,-0.17706,-6.3471,-0.03879,0.009163,0.020159,-25.38,-11.58,31.5
7.5729,-0.14982,-6.3607,-0.030543,0.010079,0.012217,-25.44,-11.46,31.5
7.6002,-0.095342,-6.3743,-0.02474,0.0079412,0.0073304,-25.56,-11.58,31.56
7.641,-0.1362,-6.4152,-0.018326,0.015577,0.011606,-25.68,-11.64,31.62
7.6274,-0.19068,-6.3335,-0.02138,0.016799,0.0015272,-25.74,-11.7,31.68
7.6274,-0.20431,-6.4152,-0.021991,0.020159,0.0036652,-25.56,-11.76,31.68
7.6138,-0.16344,-6.3198,-0.014661,0.014661,-0.000916,-25.56,-11.82,31.56
7.6002,-0.16344,-6.4152,-0.015577,0.011912,0.009163,-25.56,-11.88,31.62
7.6002,-0.16344,-6.3607,-0.025045,0.013439,0.0045815,-25.5,-11.94,31.62
7.6274,-0.19068,-6.4152,-0.023213,0.010079,0.0058032,-25.62,-11.76,31.56
7.6683,-0.21793,-6.3335,-0.036652,0.0088575,0.01405,-25.56,-11.82,31.38
7.6546,-0.23155,-6.3335,-0.040928,-0.000916,0.017715,-25.62,-12.0,31.26
7.6819,-0.17706,-6.279,-0.046731,-0.011912,0.022907,-25.68,-11.94,31.2
7.641,-0.14982,-6.3198,-0.045204,-0.020159,0.023824,-25.74,-12.12,31.32
7.6138,-0.14982,-6.2926,-0.041233,-0.014661,0.026267,-25.8,-12.0,31.26
7.5457,-0.10896,-6.3743,-0.02474,-0.0030543,0.012523,-25.74,-12.0,31.2
7.5457,-0.12258,-6.2517,-0.029627,0.01405,-0.0024435,-25.68,-11.94,31.14
7.5865,-0.12258,-6.3607,-0.019853,0.016188,0.011912,-25.74,-11.88,31.14
7.6683,-0.14982,-6.4152,-0.026878,0.012217,0.013744,-25.86,-11.7,31.14
7.6955,-0.1362,-6.3471,-0.022602,-0.000611,0.012217,-25.86,-11.64,31.2
7.6955,-0.12258,-6.279,-0.027489,-0.0058032,0.014355,-25.92,-11.58,31.14
7.6002,-0.17706,-6.3335,-0.0281,-0.0039706,0.015272,-26.04,-11.46,31.02
7.6138,-0.19068,-6.3198,-0.029322,0.0027489,0.010385,-26.16,-11.64,31.02
7.6955,-0.19068,-6.279,-0.029627,0.0064141,0.011606,-26.1,-11.64,31.14
7.641,-0.095342,-6.3198,-0.023824,0.012828,0.0058032,-26.04,-11.64,31.32
7.641,-0.12258,-6.3198,-0.02138,0.014661,0.013134,-26.1,-11.58,31.2
7.641,-0.19068,-6.3471,-0.023518,0.01405,0.0082467,-26.04,-11.76,31.14
7.641,-0.21793,-6.3335,-0.029016,0.0085521,0.011912,-26.16,-11.64,30.96
7.6819,-0.095342,-6.3335,-0.044593,0.0033598,0.021991,-26.22,-11.7,30.9
7.641,-0.12258,-6.3198,-0.044288,-0.0094684,0.025656,-26.1,-11.82,30.78
7.5729,-0.12258,-6.3471,-0.044899,-0.020159,0.025351,-26.1,-12.12,30.78
7.6274,-0.095342,-6.3879,-0.046731,-0.0097738,0.023518,-26.1,-12.12,30.84
7.6274,-0.14982,-6.4152,-0.051924,-0.012217,0.023824,-26.04,-12.12,30.84
7.641,-0.19068,-6.4152,-0.033598,-0.011301,0.017715,-25.98,-12.12,30.9
7.641,-0.14982,-6.3879,-0.043371,-0.0045815,0.022297,-25.92,-12.06,31.02
7.6138,-0.19068,-6.3062,-0.035736,-0.016799,0.017104,-25.86,-11.94,31.08
7.6683,-0.12258,-6.2517,-0.028405,-0.014966,0.014355,-25.8,-11.82,31.02
7.5865,-0.14982,-6.2926,-0.024435,-0.011301,0.011912,-25.68,-11.76,31.14
7.6002,-0.14982,-6.3743,-0.024129,-0.0045815,0.014661,-25.56,-11.64,31.08
7.6819,-0.16344,-6.3335,-0.036041,-0.0015272,0.021991,-25.62,-11.82,31.32
7.6546,-0.1362,-6.2517,-0.040317,-0.0045815,0.024435,-25.5,-11.88,31.32
7.6955,-0.20431,-6.2926,-0.034514,-0.016799,0.019548,-25.62,-11.76,31.5
7.6955,-0.21793,-6.4016,-0.045509,-0.010385,0.015882,-25.56,-11.82,31.44
7.5729,-0.20431,-6.3471,-0.04215,-0.0085521,0.016188,-25.62,-11.7,31.32
7.6002,-0.17706,-6.3471,-0.042761,-0.0054978,0.017715,-25.74,-11.82,31.5
7.6002,-0.19068,-6.3607,-0.034514,-0.01069,0.016188,-25.68,-11.76,31.8
7.6138,-0.19068,-6.3607,-0.03879,-0.013134,0.015882,-25.74,-11.82,31.62
7.641,-0.16344,-6.3879,-0.033292,-0.010079,0.018326,-25.8,-11.88,31.56
7.5865,-0.12258,-6.3879,-0.041233,-0.01069,0.018021,-25.74,-12.0,31.5
7.5865,-0.10896,-6.4152,-0.041233,-0.0064141,0.019548,-25.62,-12.12,31.32
7.6002,-0.16344,-6.3743,-0.039706,0.0024435,0.013134,-25.68,-12.0,31.32
7.6138,-0.1362,-6.3743,-0.034208,0.0012217,0.019242,-25.62,-11.94,31.44
7.641,-0.12258,-6.3879,-0.03207,-0.002138,0.013134,-25.62,-11.82,31.38
7.641,-0.16344,-6.4016,-0.028405,-0.0061087,0.015272,-25.62,-11.7,31.38
7.5865,-0.16344,-6.2926,-0.040317,-0.0024435,0.018937,-25.68,-11.52,31.5
7.6955,-0.081722,-6.4016,-0.036041,-0.0073304,0.015272,-25.62,-11.58,31.5
7.6002,-0.12258,-6.4152,-0.022907,-0.0042761,0.010996,-25.68,-11.58,31.44
7.6002,-0.1362,-6.4152,-0.024129,-0.0015272,0.01069,-25.56,-11.64,31.26
7.6683,-0.19068,-6.4288,-0.034514,0.0061087,0.014355,-25.56,-11.58,31.26
7.6955,-0.17706,-6.3062,-0.036652,0.011912,0.010079,-25.56,-11.58,31.26
7.5865,-0.12258,-6.279,-0.029322,-0.0012217,0.01069,-25.74,-11.58,31.14
7.641,-0.16344,-6.3471,-0.03146,-0.012523,0.014355,-25.74,-11.7,31.32
7.5865,-0.21793,-6.4152,-0.039095,-0.012828,0.018631,-25.68,-11.82,31.38
7.641,-0.16344,-6.4152,-0.036346,-0.0097738,0.016799,-25.68,-11.88,31.26
7.5729,-0.12258,-6.3879,-0.040623,0.0079412,0.023824,-25.62,-11.76,31.32
7.6002,-0.1362,-6.2926,-0.042455,0.018326,0.020769,-25.38,-11.88,31.32
7.641,-0.16344,-6.3471,-0.035125,0.002138,0.023518,-25.38,-11.94,31.32
7.5729,-0.16344,-6.3879,-0.034819,-0.01405,0.014966,-25.56,-11.94,31.26
7.5593,-0.12258,-6.2926,-0.032376,-0.0082467,0.015577,-25.5,-11.88,31.32
7.5184,-0.14982,-6.3879,-0.040012,-0.007025,0.015577,-25.5,-11.82,31.44
7.5865,-0.14982,-6.3471,-0.030543,0.012523,0.017104,-25.62,-11.88,31.38
7.6546,-0.14982,-6.3471,-0.032376,0.013439,0.015882,-25.68,-11.94,31.44
7.7091,-0.095342,-6.3335,-0.032987,0.0048869,0.014966,-25.68,-11.94,31.62
7.641,-0.01362,-6.279,-0.033903,-0.0061087,0.019242,-25.62,-11.7,31.44
7.641,-0.21793,-6.3607,-0.036346,-0.011301,0.016799,-25.62,-11.64,31.56
7.5593,-0.16344,-6.4016,-0.040623,-0.01405,0.016799,-25.68,-11.7,31.56
7.6002,-0.16344,-6.3743,-0.040317,-0.0033598,0.014661,-25.8,-11.76,31.5
7.6002,-0.14982,-6.3743,-0.041233,-0.000916,0.020769,-25.92,-11.76,31.32
7.6274,-0.19068,-6.3743,-0.038485,0.002138,0.02138,-25.86,-11.7,31.32
7.5048,-0.21793,-6.2517,-0.030543,0.0033598,0.019242,-25.74,-11.64,31.32
7.5865,-0.17706,-6.3879,-0.032987,0.0048869,0.01405,-25.74,-11.64,31.14
7.5593,-0.1362,-6.4288,-0.032987,0.0051924,0.012217,-25.74,-11.52,31.08
7.5729,-0.14982,-6.4016,-0.033292,0.0079412,0.016799,-25.62,-11.46,31.14
7.5729,-0.24517,-6.3335,-0.030543,0.0054978,0.021075,-25.38,-11.34,31.02
7.5729,-0.14982,-6.4016,-0.028711,0.010385,0.014661,-25.32,-11.4,30.96
7.6138,-0.14982,-6.4152,-0.041539,0.0048869,0.022602,-25.38,-11.46,31.14
7.6138,-0.14982,-6.4152,-0.026878,0.0027489,0.013744,-25.38,-11.46,31.14
7.5729,-0.12258,-6.2926,-0.022602,0.024435,0.0064141,-25.32,-11.4,31.14
7.6002,-0.19068,-6.2381,-0.021075,0.029627,0.0030543,-25.26,-11.4,31.26
7.6683,-0.19068,-6.2926,-0.026878,0.023213,0.010385,-25.14,-11.34,31.38
7.6955,-0.14982,-6.3198,-0.030849,0.009163,0.011912,-25.26,-11.4,31.5
7.6274,-0.14982,-6.279,-0.031765,0.0024435,0.013134,-25.32,-11.46,31.62
7.6002,-0.14982,-6.279,-0.033598,0.0097738,0.013744,-25.5,-11.52,31.56
7.6819,-0.1362,-6.3471,-0.023824,0.0030543,0.016188,-25.32,-11.52,31.62
7.6683,-0.14982,-6.3471,-0.030849,0.0079412,0.016799,-25.44,-11.7,31.62
7.6274,-0.1362,-6.279,-0.03146,0.012828,0.014966,-25.38,-11.64,31.62
7.5729,-0.21793,-6.3743,-0.028405,0.0067195,0.014661,-25.44,-11.7,31.62
7.6546,-0.21793,-6.3879,-0.033292,0.0030543,0.016493,-25.5,-11.64,31.5
7.5865,-0.19068,-6.3743,-0.039401,0.000305,0.014355,-25.5,-11.52,31.56
7.641,-0.14982,-6.3335,-0.028405,-0.0073304,0.013439,-25.74,-11.64,31.32
7.641,-0.17706,-6.3471,-0.033292,-0.0036652,0.013744,-25.8,-11.64,31.32
7.6138,-0.14982,-6.3743,-0.040623,0.0012217,0.019242,-25.86,-11.58,31.2
7.6138,-0.14982,-6.3743,-0.03543,-0.000611,0.015577,-25.86,-11.52,31.14
7.6955,-0.14982,-6.3471,-0.034819,0.0058032,0.01405,-25.86,-11.46,31.02
7.6683,-0.1362,-6.3471,-0.031765,0.0045815,0.018021,-25.74,-11.4,31.08
7.5865,-0.14982,-6.3471,-0.032987,0.000611,0.01741,-25.86,-11.4,31.02
7.641,-0.19068,-6.3471,-0.032987,0.000916,0.01405,-25.8,-11.4,31.08
7.5729,-0.23155,-6.279,-0.036346,0.0018326,0.015882,-25.98,-11.28,30.96
7.6002,-0.21793,-6.2926,-0.030238,0.0015272,0.018937,-26.04,-11.28,31.14
7.6002,-0.21793,-6.279,-0.036957,-0.0015272,0.021075,-26.16,-11.34,31.14
7.6683,-0.20431,-6.4016,-0.032681,0.0018326,0.017715,-26.16,-11.52,31.2
7.641,-0.16344,-6.279,-0.037568,0.0042761,0.023824,-26.1,-11.46,31.5
7.5729,-0.14982,-6.3471,-0.037874,0.0061087,0.014355,-26.22,-11.52,31.5
7.6002,-0.12258,-6.3198,-0.034514,0.002138,0.020464,-26.1,-11.52,31.5
7.6138,-0.14982,-6.3062,-0.040928,0.000611,0.01741,-26.1,-11.7,31.5
7.6002,-0.081722,-6.3471,-0.032681,-0.000611,0.018631,-26.1,-11.7,31.44
7.6274,-0.14982,-6.279,-0.033598,0.0045815,0.015882,-26.1,-11.7,31.32
7.6274,-0.17706,-6.3471,-0.030238,0.0076358,0.013439,-26.1,-11.64,31.5
7.6274,-0.12258,-6.3471,-0.039095,0.0073304,0.015882,-26.16,-11.7,31.5
7.6274,-0.12258,-6.3879,-0.027794,0.007025,0.01741,-26.1,-11.82,31.5
7.6138,-0.14982,-6.3471,-0.036652,0.0082467,0.019242,-26.1,-11.7,31.38
7.5729,-0.14982,-6.2517,-0.03207,0.0018326,0.014661,-26.04,-11.7,31.38
7.641,-0.1362,-6.279,-0.029016,0.012523,0.011606,-26.04,-11.4,31.26
7.6819,-0.14982,-6.4152,-0.032681,0.0054978,0.019242,-25.92,-11.4,31.2
7.6138,-0.14982,-6.3471,-0.031154,0.0088575,0.013439,-25.92,-11.46,31.2
7.6819,-0.19068,-6.3198,-0.035125,0.0048869,0.01405,-25.92,-11.46,31.44
7.6546,-0.14982,-6.279,-0.031154,-0.0042761,0.015272,-25.98,-11.46,31.32
7.641,-0.19068,-6.3198,-0.037874,-0.0030543,0.02474,-25.98,-11.58,31.32
7.6002,-0.16344,-6.4152,-0.037874,-0.0018326,0.016493,-26.04,-11.58,31.5
7.6002,-0.21793,-6.3743,-0.039706,0.0033598,0.022907,-26.04,-11.7,31.44
7.6274,-0.19068,-6.3198,-0.040928,0.0079412,0.019242,-25.92,-11.82,31.44
7.641,-0.21793,-6.3062,-0.036346,0.0042761,0.014966,-26.04,-11.76,31.62
7.6138,-0.095342,-6.4152,-0.03543,0.000916,0.018631,-26.1,-11.88,31.62
7.5865,-0.095342,-6.3607,-0.03146,0.0054978,0.021075,-26.04,-11.76,31.44
7.6683,-0.1362,-6.3198,-0.030849,0.0082467,0.017104,-25.98,-12.12,31.5
7.6546,-0.10896,-6.3198,-0.032987,0.0064141,0.013134,-26.1,-12.24,31.56
7.6546,-0.14982,-6.279,-0.027184,0.0033598,0.009163,-26.04,-12.12,31.38
7.641,-0.19068,-6.3471,-0.027184,0.0036652,0.016799,-25.98,-12.12,31.14
7.641,-0.12258,-6.3471,-0.0281,0.000611,0.009163,-26.04,-12.18,31.14
7.5865,-0.19068,-6.279,-0.033292,0.0030543,0.014355,-26.1,-12.12,31.2
7.641,-0.14982,-6.279,-0.034514,0.002138,0.02138,-25.92,-12.12,31.26
7.6274,-0.21793,-6.2926,-0.033598,0.0030543,0.015272,-25.8,-12.0,31.32
7.6819,-0.1362,-6.3743,-0.035736,0.0045815,0.01741,-25.92,-11.94,31.26
7.641,-0.16344,-6.3198,-0.033292,0.0076358,0.0082467,-25.8,-11.94,31.2
7.6683,-0.095342,-6.3743,-0.036346,-0.000611,0.016493,-25.8,-11.88,31.2
7.641,-0.1362,-6.2654,-0.031154,0.000611,0.014355,-25.74,-11.94,31.26
7.6002,-0.10896,-6.3471,-0.025656,-0.0051924,0.011606,-25.86,-11.88,31.2
7.6274,-0.12258,-6.3198,-0.027489,0.019242,0.0064141,-25.92,-11.88,31.08
7.6955,-0.19068,-6.3198,-0.037874,0.018631,0.0097738,-25.92,-11.82,31.08
7.6819,-0.16344,-6.3198,-0.036652,0.0094684,0.013439,-25.86,-11.7,31.14
7.7091,-0.19068,-6.2926,-0.034819,-0.0048869,0.017104,-25.92,-11.82,31.02
7.6002,-0.16344,-6.3198,-0.035125,-0.010385,0.022297,-25.98,-11.7,31.02
7.5865,-0.14982,-6.3471,-0.034819,-0.0045815,0.011606,-26.04,-11.76,30.96
7.6274,-0.16344,-6.3471,-0.027489,0.0094684,0.013134,-26.16,-11.88,31.02
7.6819,-0.16344,-6.3471,-0.032376,0.013439,0.010996,-25.92,-11.88,31.02
7.6819,-0.19068,-6.3198,-0.037263,0.012523,0.0097738,-25.98,-12.0,31.02
7.6546,-0.12258,-6.2381,-0.037874,-0.0012217,0.018021,-25.92,-11.88,30.9
7.6546,-0.14982,-6.3471,-0.025962,-0.0058032,0.011606,-25.92,-12.0,30.96
7.6138,-0.12258,-6.3607,-0.032987,-0.0018326,0.016493,-25.92,-11.88,30.96
7.641,-0.14982,-6.3335,-0.032987,0.007025,0.018326,-25.68,-11.7,31.08
7.6138,-0.16344,-6.3471,-0.028711,0.0058032,0.01405,-25.74,-11.64,31.08
7.641,-0.14982,-6.3471,-0.03146,0.0048869,0.014966,-25.8,-11.64,31.14
7.6683,-0.12258,-6.3471,-0.032681,0.0048869,0.017104,-25.86,-11.7,31.2
7.6683,-0.17706,-6.3471,-0.022602,0.0027489,0.016188,-25.8,-11.7,31.2
7.641,-0.17706,-6.279,-0.027489,0.010385,0.012217,-25.8,-11.58,31.2
7.6683,-0.14982,-6.3743,-0.034819,0.0058032,0.016188,-25.86,-11.28,31.14
7.6683,-0.14982,-6.2517,-0.035736,-0.0027489,0.01741,-25.92,-11.28,31.2
7.6274,-0.14982,-6.2654,-0.033903,-0.0036652,0.012523,-25.86,-11.34,31.26
7.6002,-0.16344,-6.2517,-0.029932,-0.0018326,0.013134,-25.74,-11.4,31.2
7.6274,-0.14982,-6.279,-0.036957,-0.0030543,0.016493,-25.86,-11.22,31.26
7.6546,-0.10896,-6.3062,-0.036652,-0.0030543,0.017104,-25.8,-11.16,31.32
7.6274,-0.19068,-6.2245,-0.0281,-0.0088575,0.014661,-25.98,-11.34,31.26
7.6274,-0.21793,-6.279,-0.033903,-0.0015272,0.013744,-25.98,-11.34,31.14
7.7091,-0.14982,-6.3198,-0.025045,-0.0012217,0.0094684,-25.92,-11.46,31.2
7.6819,-0.1362,-6.2926,-0.033903,0.007025,0.01405,-25.86,-11.58,31.2
7.6683,-0.1362,-6.3335,-0.029016,0.002138,0.018631,-26.04,-11.52,31.2
7.641,-0.1362,-6.2926,-0.026573,0.0039706,0.012523,-26.04,-11.4,31.2
7.6138,-0.1362,-6.3198,-0.025351,0.011606,0.0082467,-26.04,-11.58,31.02
7.641,-0.17706,-6.2926,-0.022297,0.016188,0.012523,-26.1,-11.52,31.08
7.6955,-0.16344,-6.2926,-0.023824,0.014355,0.01069,-26.1,-11.4,30.96
7.6546,-0.23155,-6.279,-0.025045,-0.0018326,0.010079,-26.1,-11.52,31.02
7.5865,-0.17706,-6.3471,-0.029932,-0.010996,0.0088575,-26.16,-11.64,30.96
7.6683,-0.1362,-6.2926,-0.031154,-0.0018326,0.016188,-26.1,-11.82,30.96
7.5729,-0.10896,-6.4152,-0.021075,0.016188,0.0061087,-25.98,-11.76,30.9
7.641,-0.14982,-6.3335,-0.019548,0.022907,0.0079412,-25.92,-11.88,31.08
7.6002,-0.1362,-6.2245,-0.02138,0.029016,0.0067195,-25.74,-11.88,30.96
7.7636,-0.1362,-6.3062,-0.02474,0.021686,0.010385,-25.92,-11.94,30.96
7.7091,-0.17706,-6.1973,-0.025351,0.018937,0.0058032,-25.86,-12.06,30.9
7.7091,-0.14982,-6.3062,-0.016493,0.012217,0.007025,-25.8,-12.12,30.9
7.6683,-0.14982,-6.279,-0.023518,0.0061087,0.007025,-25.92,-12.18,31.02
7.7091,-0.12258,-6.3607,-0.023518,0.009163,0.0027489,-25.86,-12.24,31.02
7.7364,-0.12258,-6.279,-0.0281,0.011912,0.0097738,-25.98,-12.24,31.14
7.7091,-0.19068,-6.279,-0.026267,0.016188,0.010079,-25.98,-12.3,31.14
7.6683,-0.14982,-6.3335,-0.029627,0.013439,0.015577,-26.04,-12.24,31.02
7.6955,-0.14982,-6.3335,-0.020464,0.0027489,0.0082467,-26.1,-12.12,31.02
7.6274,-0.14982,-6.3607,-0.015882,0.0018326,0.0030543,-26.1,-12.06,31.14
7.6683,-0.14982,-6.3198,-0.011912,-0.0027489,-0.0058032,-26.16,-11.94,31.02
7.641,-0.14982,-6.279,-0.014355,0.0079412,0.0033598,-26.34,-11.82,31.08
7.6683,-0.12258,-6.3062,-0.015272,0.015272,-0.0036652,-26.16,-11.76,31.08
7.6819,-0.14982,-6.2926,-0.0045815,0.01741,-0.0085521,-25.8,-11.58,31.14
7.6955,-0.12258,-6.2245,-0.015577,0.017104,-0.0036652,-25.92,-11.7,31.26
7.6955,-0.14982,-6.2517,-0.0067195,0.014661,-0.010996,-25.92,-11.7,31.2
7.7091,-0.095342,-6.279,-0.010079,0.024129,-0.010996,-25.92,-11.58,30.96
7.6819,-0.14982,-6.2245,-0.0088575,0.019853,-0.014355,-25.92,-11.52,30.9
7.7364,-0.14982,-6.2517,-0.0079412,0.009163,-0.013134,-25.8,-11.4,30.84
7.6819,-0.14982,-6.2926,-0.0054978,0.015577,-0.010079,-25.74,-11.4,31.02
7.6683,-0.12258,-6.2517,-0.0045815,0.015272,-0.01405,-25.92,-11.46,31.02
7.75,-0.1362,-6.2517,0.000611,0.023518,-0.017715,-25.92,-11.4,31.2
7.641,-0.21793,-6.0611,-0.012217,0.026878,-0.015577,-26.1,-11.58,31.08
7.7091,-0.14982,-6.2381,-0.010996,0.026878,-0.013439,-26.1,-11.64,30.96
7.7091,-0.095342,-6.17,-0.0030543,0.026573,-0.013439,-26.22,-11.52,31.02
7.7227,-0.16344,-6.2245,-0.013439,0.019242,0.000916,-26.4,-11.64,31.08
7.7227,-0.17706,-6.1973,-0.020159,0.016493,0.000305,-26.28,-11.52,30.84
7.75,-0.095342,-6.2517,-0.025962,0.0082467,0.0079412,-26.16,-11.4,30.84
7.7227,-0.14982,-6.2926,-0.03207,0.0097738,0.0012217,-26.28,-11.4,30.66
7.6546,-0.16344,-6.2109,-0.03207,0.013134,0.011606,-26.04,-11.58,31.02
7.6819,-0.14982,-6.2245,-0.02138,0.009163,0.007025,-26.1,-11.58,30.96
7.8181,-0.19068,-6.17,-0.026878,0.0054978,0.000305,-26.16,-11.58,31.08
7.7636,-0.16344,-6.2517,-0.031765,0.007025,0.0027489,-26.1,-11.46,30.9
7.7091,-0.12258,-6.2654,-0.020159,0.0094684,0.0015272,-26.16,-11.52,30.9
7.7091,-0.14982,-6.2926,-0.024435,0.0085521,0.0054978,-26.1,-11.46,30.9
7.7364,-0.12258,-6.2381,-0.026878,0.012828,0.0051924,-26.1,-11.4,30.9
7.7091,-0.095342,-6.3198,-0.022297,0.011301,0.0064141,-26.1,-11.46,31.08
7.7227,-0.095342,-6.1973,-0.033292,0.0076358,0.012828,-26.1,-11.46,31.08
