Ax,Ay,Az,Gx,Gy,Gz,Mx,My,Mz
4.2359,-2.2882,-8.9349,0.029627,0.25901,-0.065973,-37.2,7.92,20.34
4.7944,-2.4244,-8.8668,0.071471,0.40775,-0.024435,-37.38,7.74,20.28
4.9987,-2.6968,-8.7987,0.07422,0.41386,-0.022907,-37.62,7.62,19.98
4.9169,-3.2689,-8.1586,0.1014,0.2361,-0.023518,-38.16,7.32,19.5
4.7126,-3.2144,-7.8998,0.12645,0.10354,0.0076358,-38.4,7.2,19.2
4.4811,-3.1599,-7.6138,0.12981,0.15882,0.0082467,-38.52,7.08,19.02
4.6037,-3.1191,-7.7091,0.12126,0.3146,0.0058032,-38.64,7.08,18.9
5.1213,-2.9284,-7.8589,0.11148,0.48717,-0.0097738,-38.82,7.08,18.9
5.4754,-2.6696,-7.8726,0.12126,0.47709,-0.0015272,-38.88,7.02,18.84
5.9249,-2.4108,-7.9951,0.065668,0.34728,-0.022297,-39.0,6.96,19.02
6.1019,-2.1112,-7.7364,0.033903,0.25198,0.041539,-39.24,6.72,18.96
6.2109,-2.0839,-7.8589,-0.047342,0.13989,0.043066,-39.42,6.54,18.72
5.993,-1.8932,-8.0088,-0.071777,0.071777,0.033292,-39.48,6.48,18.72
5.4073,-1.6072,-8.2131,-0.17074,-0.078496,0.041233,-39.84,6.18,18.54
5.094,-1.4165,-8.3629,-0.27458,-0.16524,0.06353,-40.02,6.06,18.78
4.9033,-1.3484,-8.3084,-0.38301,-0.24099,0.14203,-40.14,5.94,18.9
4.7944,-2.0431,-8.0224,-0.39737,-0.16005,0.17318,-40.5,5.52,18.84
5.0531,-2.2474,-8.145,-0.34117,0.000305,0.16738,-40.62,5.52,18.6
4.985,-2.4517,-8.4174,-0.2474,-0.078191,0.1295,-40.98,5.28,18.66
4.413,-2.6287,-8.4174,-0.1689,-0.031154,0.094379,-40.92,4.98,18.78
4.2904,-2.6968,-8.3493,-0.12981,0.069944,0.083383,-41.1,4.98,18.9
4.6173,-2.4789,-8.2539,-0.080023,0.25504,0.054367,-41.22,4.92,18.96
5.2847,-2.3427,-8.1177,-0.075442,0.19975,0.033292,-41.28,4.92,19.08
5.5026,-2.3427,-8.1177,-0.08094,0.1237,0.040623,-41.76,4.92,19.02
5.2847,-2.3427,-8.036,-0.093462,0.074526,0.077885,-41.82,4.92,18.96
5.1485,-2.3563,-8.0632,-0.099571,0.082161,0.082772,-41.88,4.92,19.14
5.1894,-2.4108,-8.1041,-0.11118,0.1124,0.079718,-42.12,4.74,18.9
5.2438,-2.4517,-8.145,-0.097128,0.09499,0.064446,-42.24,4.8,18.78
5.3119,-2.3018,-8.0769,-0.087965,0.05284,0.048564,-42.24,4.86,18.72
5.2302,-2.2746,-8.1177,-0.076664,0.029627,0.03879,-42.36,4.8,18.72
5.1621,-2.2882,-8.145,-0.059559,0.024435,0.039401,-42.36,4.74,18.78
5.1485,-2.3155,-8.1313,-0.054978,0.034514,0.029016,-42.6,4.8,18.6
5.1485,-2.2882,-8.1586,-0.050396,0.041233,0.028711,-42.54,4.8,18.6
5.2847,-2.2746,-8.0905,-0.046731,0.04948,0.027184,-42.6,4.86,18.48
5.2983,-2.3291,-8.0905,-0.046426,0.048258,0.025962,-42.42,4.92,18.42
5.2847,-2.3291,-7.9951,-0.051007,0.045204,0.023518,-42.48,4.86,18.18
5.2302,-2.2882,-8.036,-0.050091,0.030849,0.027489,-42.48,4.74,18.12
5.2438,-2.3155,-8.0088,-0.0562,0.044288,0.028405,-42.36,4.68,17.76
5.3528,-2.3836,-8.0632,-0.054978,0.034514,0.027794,-42.36,4.8,17.7
5.3119,-2.3563,-8.0496,-0.050091,0.021991,0.024435,-42.42,4.86,17.76
5.2575,-2.261,-8.036,-0.04215,0.024435,0.017715,-42.54,4.92,17.88
5.3256,-2.261,-8.0496,-0.035736,0.020159,0.015882,-42.48,4.92,17.94
5.3392,-2.2882,-8.1313,-0.036346,0.010385,0.020159,-42.3,5.04,17.82
5.2575,-2.2882,-8.0496,-0.03543,0.016493,0.017104,-42.48,5.22,17.7
5.2983,-2.3018,-8.0224,-0.027794,0.012828,0.010996,-42.54,5.22,17.58
5.2575,-2.261,-8.0088,-0.028405,0.012523,0.015272,-42.48,5.22,17.64
5.2983,-2.2474,-8.0632,-0.037568,0.01405,0.018326,-42.6,5.28,17.58
5.3119,-2.3427,-8.0224,-0.041233,0.017715,0.018021,-42.6,5.28,17.64
5.3119,-2.3427,-7.9407,-0.035736,0.018326,0.020464,-42.6,5.28,17.64
5.3256,-2.2882,-7.9679,-0.040317,0.014966,0.016493,-42.66,5.34,18.0
5.2847,-2.3018,-8.0769,-0.040623,0.0054978,0.023213,-42.72,5.28,17.94
5.2983,-2.3018,-8.0496,-0.039706,0.0048869,0.019853,-42.54,5.34,17.94
5.2575,-2.2882,-8.0224,-0.043677,0.0076358,0.026573,-42.48,5.22,17.94
5.1894,-2.2882,-7.9134,-0.048869,0.036652,0.027184,-42.42,5.22,17.82
5.3937,-2.3291,-8.0088,-0.054978,0.037263,0.03543,-42.6,5.22,17.7
5.38,-2.3427,-8.036,-0.057727,0.026267,0.029932,-42.6,5.16,17.7
5.2438,-2.3155,-7.9679,-0.047647,0.015577,0.027794,-42.54,5.1,17.7
5.3664,-2.261,-8.036,-0.055283,0.028405,0.029932,-42.6,5.1,17.64
5.2983,-2.261,-8.0224,-0.045509,0.02474,0.027794,-42.6,5.04,17.52
5.2847,-2.2882,-7.9679,-0.041844,0.010996,0.018021,-42.72,4.92,17.64
5.3256,-2.2882,-7.9951,-0.045509,0.0076358,0.019242,-42.66,4.92,17.7
5.3119,-2.2337,-8.0224,-0.05284,0.0061087,0.019242,-42.78,4.86,17.4
5.38,-2.2337,-8.0088,-0.038485,0.014355,0.021075,-42.96,4.86,17.46
5.2847,-2.2882,-8.0224,-0.038485,0.010079,0.022907,-43.02,4.74,17.52
5.2847,-2.3018,-8.0496,-0.038179,0.012217,0.018021,-43.02,4.74,17.46
5.3256,-2.3018,-7.9815,-0.043066,-0.0058032,0.0281,-43.08,4.74,17.52
5.3528,-2.2746,-8.0769,-0.029016,-0.0079412,0.013439,-43.02,4.74,17.52
5.3119,-2.3563,-7.9951,-0.035736,0.002138,0.01405,-42.84,4.8,17.58
5.4073,-2.3427,-7.9407,-0.035125,0.0061087,0.016188,-42.78,4.74,17.64
5.3528,-2.2882,-7.9951,-0.040928,-0.0030543,0.018631,-42.78,4.74,17.64
5.3528,-2.261,-7.927,-0.044899,-0.018631,0.015882,-42.9,4.68,17.64
5.2983,-2.2201,-8.0905,-0.034514,-0.018326,0.015577,-42.78,4.74,17.64
5.2575,-2.2474,-8.036,-0.037874,-0.0061087,0.015882,-43.02,4.92,17.52
5.3119,-2.261,-8.0769,-0.035125,0.0036652,0.013134,-42.9,4.98,17.76
5.3392,-2.2746,-8.036,-0.031154,0.0048869,0.01069,-42.9,4.98,17.58
5.3528,-2.2474,-7.9951,-0.037874,0.0097738,0.019548,-42.9,4.98,17.64
5.3119,-2.2474,-7.9951,-0.030238,0.0097738,0.014661,-42.78,4.98,17.58
5.3528,-2.2882,-7.9951,-0.026267,0.017715,0.015272,-42.66,4.92,17.58
5.3528,-2.2746,-7.9951,-0.024435,0.022297,0.016799,-42.66,4.86,17.58
5.3528,-2.3018,-7.9951,-0.035125,0.024129,0.016188,-42.72,4.8,17.46
5.3664,-2.3155,-8.0224,-0.026573,0.019853,0.018937,-43.02,4.8,17.4
5.3528,-2.261,-8.0224,-0.029932,0.011606,0.019242,-42.96,4.68,17.34
5.3256,-2.2474,-8.0496,-0.032376,0.0088575,0.014661,-42.84,4.74,17.46
5.3664,-2.2474,-7.9679,-0.032376,0.0088575,0.014661,-42.84,4.74,17.46
5.38,-2.2474,-7.927,-0.037568,0.0085521,0.018631,-42.48,4.68,17.34
5.3528,-2.2746,-8.0224,-0.027794,0.0082467,0.013744,-42.48,4.62,17.22
5.2302,-2.2882,-7.9951,-0.032987,0.010996,0.019853,-42.6,4.62,17.16
5.3528,-2.3291,-8.0088,-0.026573,0.0073304,0.019548,-42.54,4.86,17.28
5.3937,-2.3155,-8.0088,-0.025045,0.0061087,0.01069,-42.78,4.92,17.28
5.38,-2.2882,-7.9407,-0.028711,0.0015272,0.011606,-42.9,5.04,17.28
5.3528,-2.3291,-7.9815,-0.025962,0.0027489,0.016493,-42.96,5.1,17.28
5.3664,-2.2882,-8.0632,-0.03146,0.0064141,0.013744,-42.9,5.16,17.28
5.3937,-2.2474,-8.0632,-0.038179,0.0061087,0.019548,-42.9,5.1,17.22
5.3119,-2.2882,-7.9679,-0.030849,-0.0027489,0.025351,-43.02,5.22,17.22
5.3528,-2.2746,-7.9951,-0.03146,-0.0012217,0.015272,-43.02,5.22,17.16
5.3528,-2.2882,-8.0496,-0.034819,0.0073304,0.012217,-43.14,5.22,17.28
5.2983,-2.3155,-7.9679,-0.027489,0.012217,0.012217,-43.26,5.22,17.22
5.3528,-2.2882,-7.9679,-0.020464,0.015882,0.011912,-43.2,5.1,17.16
5.38,-2.261,-7.9679,-0.019242,0.010079,0.0076358,-43.08,5.1,17.28
5.3528,-2.2337,-8.0496,-0.025962,0.0067195,0.0054978,-43.08,5.1,17.16
5.3528,-2.3155,-7.9407,-0.019853,0.019548,0.0088575,-43.08,5.04,17.22
5.4073,-2.3155,-7.9543,-0.031765,0.022602,0.017104,-43.14,5.1,17.16
5.4754,-2.2882,-7.9407,-0.029932,0.013134,0.018937,-43.14,5.04,17.28
5.4073,-2.3563,-8.0224,-0.03879,-0.0012217,0.017104,-42.96,4.98,17.34
5.3392,-2.3018,-7.9815,-0.032681,-0.0042761,0.010385,-42.96,4.86,17.52
5.3392,-2.261,-7.8862,-0.036652,-0.0018326,0.016493,-42.96,4.86,17.58
5.3664,-2.3155,-7.9679,-0.036346,0.0058032,0.012217,-42.84,4.86,17.64
5.38,-2.3291,-7.9407,-0.037874,-0.0024435,0.016799,-42.84,5.04,17.64
5.2847,-2.3427,-7.9815,-0.035125,-0.0076358,0.0076358,-42.84,5.04,17.88
5.3256,-2.3427,-8.0496,-0.036957,-0.002138,0.015272,-42.9,5.1,17.88
5.3528,-2.3155,-7.9815,-0.033903,-0.0015272,0.015577,-42.96,5.1,18.0
5.3528,-2.3155,-8.0224,-0.037263,0.0018326,0.017715,-42.9,5.1,18.12
5.3937,-2.3155,-7.9543,-0.029016,-0.0015272,0.019242,-42.9,5.04,18.06
5.3528,-2.3427,-7.9815,-0.030238,-0.000305,0.016493,-42.96,4.92,18.12
5.4073,-2.3155,-7.9679,-0.02474,-0.0030543,0.015272,-43.08,5.04,18.06
5.3937,-2.2746,-7.9815,-0.033598,0.0058032,0.019548,-43.14,5.04,18.18
5.3664,-2.3018,-8.0224,-0.032376,-0.0058032,0.021075,-43.2,5.04,17.94
5.4073,-2.3155,-8.036,-0.036957,-0.0076358,0.017104,-43.14,4.92,18.0
5.38,-2.3155,-8.0496,-0.033903,-0.0079412,0.017104,-43.08,4.86,17.94
5.3119,-2.3155,-8.0496,-0.030543,-0.0042761,0.01405,-43.14,4.92,17.82
5.4073,-2.3155,-7.9951,-0.031765,-0.0033598,0.020159,-43.08,4.92,17.7
5.3528,-2.2474,-7.9951,-0.036041,-0.0033598,0.010996,-43.08,4.8,17.64
5.38,-2.2882,-7.9679,-0.040317,0.000916,0.010996,-42.96,4.98,17.76
5.3528,-2.2746,-7.9951,-0.034514,-0.000305,0.015272,-42.84,4.92,17.82
5.3528,-2.2882,-7.9951,-0.032987,0.000611,0.015272,-42.72,4.98,17.76
5.3528,-2.2882,-7.9679,-0.035125,0.000916,0.016799,-42.66,4.86,17.76
5.3119,-2.261,-7.9543,-0.030238,-0.0015272,0.012828,-42.54,4.98,17.7
5.3664,-2.261,-7.927,-0.036957,-0.000916,0.015882,-42.48,4.98,17.64
5.3528,-2.3018,-7.9815,-0.037874,-0.0042761,0.01741,-42.48,4.98,17.52
5.3937,-2.3699,-8.036,-0.039706,0.0015272,0.018631,-42.72,4.92,17.46
5.2847,-2.3155,-8.0224,-0.032376,0.0061087,0.015272,-42.78,4.92,17.64
5.3392,-2.3291,-8.036,-0.025962,0.0048869,0.014355,-42.72,4.92,17.7
5.3937,-2.3018,-7.9951,-0.035736,-0.0039706,0.0097738,-42.78,4.8,17.76
5.3392,-2.3155,-8.036,-0.027794,-0.000611,0.015272,-42.84,4.86,17.82
5.3937,-2.2746,-7.927,-0.032987,0.0045815,0.012523,-42.9,4.74,17.7
5.4618,-2.3018,-7.9679,-0.028711,0.0015272,0.0094684,-43.02,4.86,17.64
5.3528,-2.2882,-8.0088,-0.036652,-0.0027489,0.012828,-42.96,4.92,17.64
5.3664,-2.3427,-7.9951,-0.040623,-0.0048869,0.018937,-42.9,4.92,17.64
5.3937,-2.2474,-7.9815,-0.041233,-0.0048869,0.013439,-43.02,4.86,17.64
5.3937,-2.2746,-8.0088,-0.031765,0.0036652,0.016188,-43.08,4.86,17.64
5.3528,-2.3291,-8.036,-0.037263,-0.0012217,0.012217,-43.14,4.86,17.82
5.4345,-2.3563,-7.9679,-0.035736,-0.0054978,0.017104,-42.84,5.04,17.88
5.2983,-2.2882,-7.927,-0.032987,0.000305,0.015882,-42.84,4.98,17.76
5.3528,-2.2882,-7.9679,-0.032376,0.0064141,0.013744,-42.9,5.1,17.64
5.3528,-2.2474,-7.9679,-0.039401,0.01069,0.018326,-43.02,5.1,17.46
5.4345,-2.261,-7.9679,-0.032987,-0.0012217,0.021991,-42.84,5.1,17.28
5.3664,-2.2882,-7.9679,-0.03146,-0.0085521,0.010385,-42.84,5.1,17.34
5.4073,-2.3155,-7.9951,-0.033598,0.000611,0.010079,-42.96,4.92,17.34
5.4209,-2.3155,-8.036,-0.033903,-0.0030543,0.014661,-42.9,4.8,17.4
5.38,-2.3155,-8.0088,-0.033292,-0.0051924,0.013134,-42.9,4.8,17.34
5.3664,-2.2474,-7.9679,-0.04215,-0.0045815,0.023213,-42.72,4.8,17.46
5.38,-2.3291,-7.9951,-0.03879,-0.000611,0.020464,-42.72,4.8,17.52
5.3937,-2.3155,-7.9679,-0.026878,0.0045815,0.016188,-42.66,4.74,17.58
5.4209,-2.2882,-7.9543,-0.037874,0.000611,0.016799,-42.54,4.62,17.52
5.4209,-2.2882,-7.9543,-0.03543,0.000611,0.014355,-42.54,4.62,17.52
5.3528,-2.2882,-8.0224,-0.0281,-0.002138,0.011606,-42.6,4.56,17.46
5.3528,-2.2882,-8.0224,-0.026878,0.0012217,0.012217,-42.6,4.56,17.46
5.38,-2.3155,-7.9679,-0.030543,-0.000305,0.021686,-42.42,4.74,17.46
5.38,-2.3155,-8.0224,-0.035736,0.0045815,0.012523,-42.42,4.74,17.52
5.4073,-2.3155,-7.9951,-0.038485,-0.0036652,0.017104,-42.3,4.92,17.7
5.38,-2.2882,-8.0088,-0.032987,-0.0036652,0.019853,-42.24,5.04,17.88
5.38,-2.2882,-7.9679,-0.037263,0.0039706,0.018937,-42.0,5.04,17.94
5.4073,-2.3427,-7.9951,-0.027489,-0.0024435,0.015272,-42.06,5.04,17.94
5.38,-2.3018,-7.9951,-0.043371,-0.000305,0.021075,-42.06,5.1,18.0
5.3664,-2.2474,-7.9951,-0.033598,-0.0015272,0.016799,-42.0,4.98,17.94
5.38,-2.2746,-8.0905,-0.025656,-0.0018326,0.0097738,-42.18,5.1,17.94
5.38,-2.3155,-8.0224,-0.025656,-0.0042761,0.0067195,-42.18,5.34,17.88
5.3119,-2.3427,-8.0632,-0.022907,0.0036652,0.011606,-42.3,5.46,17.88
5.3664,-2.3427,-7.9951,-0.032987,0.0082467,0.018021,-42.36,5.34,17.94
5.4209,-2.3155,-7.8998,-0.036957,0.0061087,0.013134,-42.36,5.16,17.94
5.3528,-2.261,-7.9679,-0.036652,-0.0085521,0.016493,-42.66,5.04,17.82
5.2847,-2.2882,-8.0224,-0.034819,-0.0027489,0.0097738,-42.66,4.92,17.88
5.3392,-2.2882,-8.0905,-0.032987,0.011912,0.014966,-42.72,4.8,17.64
5.4073,-2.261,-7.9134,-0.03207,0.0082467,0.014661,-42.72,4.86,17.64
5.4073,-2.3155,-7.9407,-0.034819,0.0085521,0.015272,-42.78,4.92,17.52
5.3392,-2.3291,-7.8998,-0.035125,-0.0015272,0.014966,-42.84,5.1,17.28
5.3256,-2.3155,-8.0224,-0.032681,0.000611,0.01405,-42.84,5.04,17.28
5.4073,-2.3291,-8.0224,-0.03543,0.0097738,0.012828,-42.78,4.98,17.22
5.3937,-2.2882,-7.9134,-0.031154,0.011912,0.018326,-42.78,4.8,17.04
5.38,-2.2746,-7.9679,-0.033598,0.0045815,0.017104,-42.72,4.86,17.04
5.38,-2.2746,-7.9679,-0.029627,0.000611,0.014661,-42.72,4.86,17.04
5.4073,-2.3427,-7.9679,-0.039706,0.0097738,0.01405,-42.78,4.92,17.04
5.3937,-2.261,-7.9951,-0.029016,0.0085521,0.016799,-42.54,5.04,17.04
5.3528,-2.3291,-7.9543,-0.029322,-0.0042761,0.018326,-42.54,5.28,17.04
5.3119,-2.2201,-7.9951,-0.0281,-0.0042761,0.021686,-42.42,5.28,16.98
5.3528,-2.3018,-7.9951,-0.034514,-0.0018326,0.024435,-42.6,5.22,16.92
5.4073,-2.3699,-7.9951,-0.033903,0.014355,0.025656,-42.66,5.16,16.92
5.4481,-2.3427,-7.9679,-0.036957,0.010079,0.025351,-42.72,5.1,17.04
5.4073,-2.3291,-8.0088,-0.030238,0.014966,0.011912,-42.78,5.04,17.16
5.4481,-2.2882,-7.9679,-0.04215,0.000611,0.023213,-42.78,4.92,17.34
5.3664,-2.3427,-7.927,-0.034819,0.0045815,0.019853,-42.84,4.92,17.28
5.3256,-2.3427,-7.9543,-0.036346,0.01069,0.022602,-42.78,4.8,17.28
5.4618,-2.3018,-7.9951,-0.034514,0.0076358,0.022907,-42.66,4.86,17.34
5.5026,-2.2882,-7.9951,-0.036957,0.0024435,0.019548,-42.6,4.8,17.4
5.4345,-2.3291,-7.927,-0.041844,-0.0058032,0.020769,-42.78,4.68,17.46
5.2166,-2.2201,-7.9407,-0.034514,-0.0051924,0.02138,-42.84,4.38,17.46
5.3528,-2.2882,-8.1177,-0.037263,0.010079,0.028405,-42.84,4.44,17.46
5.4754,-2.3155,-8.1177,-0.039095,0.023213,0.022602,-42.78,4.5,17.46
5.4345,-2.3291,-7.9407,-0.032681,0.014355,0.018326,-42.72,4.44,17.46
5.3528,-2.2882,-7.8998,-0.036652,-0.000305,0.013134,-42.6,4.56,17.46
5.4481,-2.3699,-8.036,-0.034819,0.0045815,0.015577,-42.6,4.5,17.4
5.4618,-2.2882,-8.0088,-0.040012,-0.0048869,0.014661,-42.6,4.44,17.4
5.3664,-2.3155,-7.9951,-0.028405,0.011912,0.013439,-42.78,4.56,17.4
5.4345,-2.3563,-7.9679,-0.03879,0.01741,0.015882,-42.66,4.56,17.58
5.5435,-2.3291,-7.9951,-0.044288,0.027794,0.012217,-42.84,4.5,17.58
5.2438,-2.261,-7.9679,-0.041844,0.015577,0.011301,-42.72,4.44,17.46
5.2847,-2.152,-7.927,-0.053756,0.013134,0.021991,-42.72,4.56,17.4
5.38,-2.3018,-8.0632,-0.047953,0.021991,0.032376,-42.72,4.56,17.4
5.4481,-2.2474,-7.9815,-0.033598,0.0024435,0.01741,-42.78,4.44,17.28
5.3664,-2.1929,-8.0088,-0.037263,-0.007025,0.018937,-42.84,4.5,17.28
5.2847,-2.2474,-7.9407,-0.036041,0.0058032,0.03207,-42.96,4.5,17.4
5.5162,-2.3155,-7.927,-0.022602,0.026267,0.022602,-42.96,4.5,17.4
5.4618,-2.3018,-7.927,-0.018326,-0.0030543,0.018021,-42.96,4.56,17.46
5.4618,-2.3563,-7.9679,-0.027489,-0.011301,0.019853,-43.08,4.68,17.46
5.5026,-2.3563,-8.0224,-0.021075,0.013439,0.0036652,-42.84,4.74,17.4
5.5026,-2.3155,-7.927,-0.032681,0.0073304,0.0015272,-42.9,4.86,17.34
5.5026,-2.3427,-7.8998,-0.026267,-0.013134,0.016493,-42.9,4.92,17.46
5.3937,-2.2201,-7.9951,-0.039706,-0.013439,0.014355,-42.96,4.92,17.52
5.38,-2.2746,-7.9951,-0.031765,0.000305,0.018937,-42.9,4.98,17.52
5.4073,-2.3427,-8.0224,-0.029016,0.0024435,0.013439,-42.96,5.16,17.64
5.3664,-2.2201,-7.9543,-0.032681,-0.0051924,0.013744,-42.96,5.34,17.7
5.3664,-2.2474,-7.9815,-0.027794,-0.0045815,0.015577,-43.02,5.34,17.58
5.38,-2.3155,-7.9815,-0.027794,0.0027489,0.017715,-42.84,5.34,17.58
5.5026,-2.2882,-7.8862,-0.027489,0.000916,0.015577,-42.9,5.22,17.58
5.38,-2.261,-7.9407,-0.040317,-0.007025,0.016188,-42.96,5.22,17.58
5.4618,-2.3155,-8.0224,-0.037263,-0.0012217,0.0085521,-42.96,5.22,17.58
5.5435,-2.4517,-7.9679,-0.029932,0.028405,-0.000916,-42.84,5.16,17.64
5.7614,-2.2337,-8.0496,-0.047647,-0.0012217,-0.030543,-42.9,5.04,17.7
5.3937,-2.0839,-7.8862,-0.035125,-0.045815,-0.020769,-42.72,4.86,17.7
5.1894,-2.0567,-7.8589,-0.034819,-0.0039706,-0.011912,-42.84,4.86,17.7
5.2711,-2.2337,-8.0632,-0.036957,0.03146,-0.01069,-42.84,4.86,17.64
5.38,-2.4244,-8.0224,-0.041233,0.020464,0.007025,-42.72,4.74,17.52
5.3528,-2.3427,-8.0224,-0.032376,0.011912,-0.0018326,-42.9,4.74,17.64
5.3664,-2.2474,-7.8998,-0.016493,0.019853,0.0030543,-42.84,4.56,17.7
5.5435,-2.2474,-7.9951,-0.022297,0.022907,0.002138,-42.9,4.44,17.76
5.598,-2.2882,-7.9543,-0.026573,0.018326,0.0048869,-42.84,4.68,17.7
5.4073,-2.2201,-7.927,-0.040012,-0.036957,0.0085521,-42.84,4.74,17.64
5.2166,-2.261,-7.9679,-0.029016,-0.024435,0.022907,-42.84,4.56,17.52
5.1485,-2.2882,-8.1041,-0.023213,-0.0067195,0.033903,-42.9,4.44,17.52
5.4073,-2.1929,-8.036,-0.027184,0.0048869,0.043066,-42.96,4.44,17.64
5.5435,-2.2337,-7.9407,-0.022907,0.0054978,0.037568,-43.08,4.44,17.58
5.6524,-2.2882,-7.8726,-0.02474,0.01069,0.034208,-43.02,4.38,17.64
5.6116,-2.3427,-7.9543,-0.037874,-0.019853,0.015577,-43.02,4.44,17.64
5.38,-2.2474,-7.8862,-0.040928,-0.033903,0.016493,-43.02,4.32,17.7
5.1894,-2.2882,-7.9543,-0.030849,-0.016188,0.024129,-42.84,4.32,17.7
5.489,-2.3563,-8.0088,-0.021075,0.024435,0.019853,-42.84,4.38,17.76
5.6116,-2.3427,-7.8726,-0.03146,0.013439,0.019242,-42.9,4.5,17.7
5.5162,-2.3155,-7.927,-0.033903,-0.018326,0.015272,-43.02,4.5,17.76
5.3119,-2.3018,-7.8862,-0.028711,-0.012523,0.012828,-42.9,4.44,17.88
5.4073,-2.3018,-7.9951,-0.033903,-0.0015272,0.016493,-42.9,4.44,17.88
5.5299,-2.3018,-7.927,-0.027794,-0.0064141,0.017715,-42.96,4.68,17.82
5.4073,-2.2201,-7.8726,-0.03879,-0.0097738,0.01069,-42.96,4.8,17.58
5.3528,-2.2201,-7.927,-0.032376,-0.0058032,0.020464,-42.9,4.86,17.52
5.4345,-2.3018,-7.8998,-0.034514,0.0015272,0.020464,-42.96,5.04,17.46
5.4345,-2.3155,-7.9679,-0.034208,0.0033598,0.020769,-43.02,4.86,17.64
5.4481,-2.3018,-7.8998,-0.030849,-0.0042761,0.016493,-43.08,4.92,17.64
5.38,-2.2882,-7.9951,-0.026267,-0.0073304,0.0082467,-43.08,4.74,17.58
5.3528,-2.2882,-7.9407,-0.033598,-0.0054978,0.020769,-43.08,4.92,17.58
5.4754,-2.3018,-8.0224,-0.032987,0.0048869,0.014966,-42.84,4.86,17.52
5.4209,-2.3018,-7.9951,-0.031765,0.000916,0.011606,-42.78,4.74,17.58
5.38,-2.2746,-8.036,-0.029016,-0.0039706,0.013134,-42.78,4.74,17.58
5.3528,-2.2474,-7.8589,-0.029016,-0.0027489,0.015577,-42.72,4.74,17.4
5.4073,-2.2882,-8.0088,-0.037874,-0.0039706,0.0097738,-42.66,4.74,17.4
5.3664,-2.3291,-7.9134,-0.036652,-0.0024435,0.017715,-42.6,4.74,17.52
5.38,-2.3018,-8.0088,-0.037568,-0.0048869,0.018631,-42.6,4.68,17.58
5.4073,-2.2882,-7.8589,-0.030238,-0.0036652,0.011912,-42.54,4.62,17.7
5.4209,-2.2337,-7.9407,-0.032987,0.0027489,0.01405,-42.48,4.74,17.58
5.4209,-2.2882,-8.0088,-0.031765,-0.002138,0.013744,-42.54,4.68,17.46
5.3256,-2.3018,-7.927,-0.027489,-0.0018326,0.011912,-42.54,4.8,17.4
5.4073,-2.3018,-7.9951,-0.033598,0.0024435,0.017715,-42.48,4.62,17.28
5.4073,-2.1793,-7.927,-0.024129,-0.0051924,0.01405,-42.72,4.62,17.28
5.3256,-2.2746,-7.9679,-0.034819,-0.0042761,0.014966,-42.72,4.86,17.22
5.3937,-2.2882,-7.9679,-0.0281,0.0097738,0.0088575,-42.84,4.92,17.16
5.4481,-2.3972,-7.9951,-0.038485,-0.0033598,0.01405,-42.9,5.1,17.22
5.4073,-2.2882,-7.9407,-0.033903,-0.01069,0.014966,-42.96,5.16,17.22
5.3937,-2.2337,-7.9815,-0.036957,-0.0048869,0.01741,-42.9,5.1,17.22
5.4345,-2.3018,-7.9543,-0.030543,0.0064141,0.010996,-42.9,5.1,17.28
5.4481,-2.3291,-7.927,-0.036041,-0.0024435,0.016799,-42.84,5.16,17.28
5.3664,-2.2201,-7.8726,-0.032376,-0.0073304,0.012828,-42.72,5.04,17.4
5.3937,-2.261,-7.9951,-0.042455,-0.0051924,0.014966,-42.78,5.1,17.52
5.3937,-2.2746,-7.9951,-0.030238,0.0045815,0.015882,-42.96,5.1,17.58
5.4209,-2.2746,-7.8998,-0.038485,0.01069,0.015577,-42.9,5.1,17.7
5.4618,-2.3018,-7.8998,-0.035125,0.0036652,0.015272,-42.9,5.04,17.64
5.3937,-2.261,-8.0224,-0.041539,-0.0058032,0.021075,-42.96,4.8,17.76
5.38,-2.3018,-7.9679,-0.037568,-0.010079,0.017715,-42.84,4.74,17.82
5.4481,-2.3155,-7.9679,-0.030238,0.0015272,0.01741,-42.96,4.68,17.82
5.4754,-2.2746,-7.9134,-0.037874,-0.0033598,0.016493,-42.9,4.62,17.82
5.3664,-2.2337,-7.9951,-0.033292,-0.0067195,0.016799,-43.02,4.74,17.94
5.4073,-2.261,-7.9815,-0.029932,-0.0051924,0.015577,-42.9,4.62,18.0
5.5026,-2.3018,-7.9543,-0.031154,0.0033598,0.015272,-43.08,4.68,18.0
5.4209,-2.261,-7.9815,-0.030238,-0.0015272,0.015577,-43.2,4.62,17.88
5.4481,-2.2882,-7.9679,-0.025656,-0.000611,0.016493,-43.14,4.56,17.76
5.3937,-2.3155,-7.9951,-0.029016,-0.002138,0.016493,-43.02,4.56,17.82
5.4481,-2.3427,-7.9679,-0.027794,-0.0054978,0.012523,-42.96,4.56,17.82
5.5026,-2.3155,-7.9543,-0.034208,-0.000305,0.010996,-42.96,4.68,18.0
5.4073,-2.2882,-8.0905,-0.039401,-0.0024435,0.012828,-42.96,4.74,17.88
5.4209,-2.2746,-7.9951,-0.036957,0.0024435,0.016799,-43.02,4.62,17.88
5.4754,-2.438,-7.8589,-0.032376,-0.0015272,0.015272,-42.96,4.62,17.82
5.4345,-2.2882,-7.9134,-0.036041,-0.0030543,0.017715,-42.9,4.56,17.88
5.4209,-2.2474,-8.0224,-0.028405,0.0039706,0.01405,-42.9,4.5,17.7
5.3937,-2.3018,-7.9951,-0.030543,0.0027489,0.013744,-43.08,4.5,17.58
5.3664,-2.2882,-7.927,-0.037263,0.0051924,0.018631,-43.14,4.44,17.58
5.4209,-2.2746,-7.9679,-0.030849,-0.000611,0.012828,-43.08,4.5,17.64
5.4209,-2.3155,-7.9407,-0.033903,-0.0079412,0.013439,-43.02,4.62,17.64
5.4345,-2.261,-8.0224,-0.029932,-0.000305,0.022297,-43.08,4.74,17.64
5.38,-2.2337,-7.9951,-0.03146,-0.002138,0.014355,-43.08,4.74,17.58
5.4345,-2.2746,-7.9679,-0.037263,-0.0036652,0.018326,-43.08,4.68,17.58
5.38,-2.3018,-8.0224,-0.030543,0.0036652,0.012828,-43.08,4.62,17.58
5.3937,-2.2337,-8.0088,-0.032376,0.0012217,0.018021,-42.96,4.68,17.52
5.38,-2.3155,-7.9543,-0.025351,-0.0030543,0.019242,-42.96,4.74,17.58
5.38,-2.2882,-7.9407,-0.034514,-0.0054978,0.0097738,-42.96,4.74,17.64
5.4073,-2.2882,-7.9815,-0.021686,0.0027489,0.010996,-43.08,4.74,17.7
5.4754,-2.2882,-7.9407,-0.038179,0.0073304,0.016799,-43.02,4.56,17.82
5.5026,-2.3291,-7.8317,-0.033598,-0.0045815,0.019242,-42.96,4.62,17.76
5.4754,-2.2882,-7.8998,-0.044899,-0.0076358,0.021075,-43.02,4.68,17.88
5.3664,-2.2882,-7.9815,-0.036957,-0.0067195,0.011301,-43.02,4.68,17.82
5.4073,-2.2882,-7.8998,-0.033292,0.0073304,0.01069,-43.08,4.5,17.82
5.38,-2.2746,-7.9679,-0.04215,0.000916,0.011301,-43.14,4.5,17.88
5.4481,-2.2474,-7.9951,-0.03207,-0.010385,0.0079412,-43.08,4.5,17.94
5.3664,-2.2882,-7.9407,-0.037263,-0.0012217,0.011912,-42.96,4.56,17.94
5.4073,-2.2882,-7.9951,-0.028405,0.009163,0.012828,-43.02,4.68,18.06
5.4481,-2.2474,-7.8589,-0.038179,0.009163,0.019853,-43.14,4.68,18.12
5.4481,-2.2746,-7.9679,-0.032987,0.0054978,0.012217,-43.2,4.62,18.12
5.38,-2.2474,-7.9951,-0.031154,-0.007025,0.014966,-43.2,4.68,18.06
5.3528,-2.261,-8.0224,-0.025656,0.0061087,0.013744,-43.2,4.74,18.18
5.4481,-2.3155,-7.9815,-0.03879,0.010079,0.013134,-43.14,4.86,17.94
5.4481,-2.2882,-7.8998,-0.037263,0.0036652,0.020159,-43.02,4.86,17.82
5.4754,-2.2882,-7.9679,-0.026267,-0.0027489,0.01405,-42.96,4.86,17.94
5.4073,-2.2882,-7.8998,-0.035125,0.0027489,0.015272,-42.9,4.68,17.88
5.4073,-2.3155,-7.8589,-0.030543,0.0085521,0.0088575,-42.84,4.62,17.82
5.4481,-2.3018,-7.8317,-0.034514,0.0058032,0.018021,-42.96,4.68,17.64
5.4073,-2.3291,-7.927,-0.03543,0.000611,0.013744,-43.14,4.74,17.7
5.3392,-2.3018,-7.927,-0.024129,0.0024435,0.010385,-43.26,4.62,17.58
5.3392,-2.3427,-7.927,-0.036652,0.0027489,0.019242,-43.08,4.62,17.4
5.4073,-2.3018,-7.9951,-0.032376,0.0048869,0.018326,-42.96,4.68,17.34
5.4345,-2.2746,-7.9679,-0.032987,0.0061087,0.0088575,-43.08,4.62,17.4
5.4754,-2.2882,-7.9679,-0.032376,0.0030543,0.020769,-43.14,4.68,17.28
5.4073,-2.3563,-7.927,-0.029932,0.0076358,0.01405,-43.02,4.74,17.34
5.4345,-2.3291,-7.9951,-0.033598,0.0067195,0.016188,-43.08,4.74,17.28
5.38,-2.3155,-8.0088,-0.033292,0.0079412,0.012828,-43.14,4.68,17.16
5.3937,-2.3155,-7.9679,-0.029932,0.0042761,0.013744,-43.26,4.8,17.28
5.4073,-2.2474,-7.9815,-0.034514,0.0048869,0.017104,-43.26,4.92,17.28
5.4754,-2.3155,-7.9543,-0.03146,0.0033598,0.014661,-43.26,4.98,17.34
5.4481,-2.3427,-7.9951,-0.032987,0.000916,0.012828,-42.96,4.86,17.34
5.4209,-2.2882,-7.9951,-0.033903,0.0067195,0.01405,-42.96,4.92,17.28
5.38,-2.2882,-7.9679,-0.027794,0.0073304,0.013439,-42.96,4.92,17.52
5.38,-2.2201,-7.8589,-0.023824,0.0061087,0.012828,-42.96,4.86,17.58
5.3664,-2.3018,-7.927,-0.027489,0.0030543,0.018631,-42.96,4.92,17.46
5.489,-2.3018,-7.8317,-0.031154,0.0045815,0.013744,-42.78,4.86,17.46
5.4754,-2.2882,-7.8862,-0.031154,0.011606,0.01741,-42.78,4.86,17.58
5.3937,-2.3155,-7.9407,-0.038485,0.007025,0.022297,-42.72,4.92,17.58
5.4073,-2.2746,-7.8998,-0.027489,0.0073304,0.011301,-42.72,4.74,17.58
5.4073,-2.2882,-7.9815,-0.035125,0.002138,0.01741,-42.66,4.74,17.46
5.4073,-2.2474,-7.9679,-0.029627,0.0036652,0.018937,-42.66,4.86,17.34
5.38,-2.2882,-7.9679,-0.030849,0.0030543,0.0082467,-42.66,4.92,17.4
5.38,-2.3155,-7.9407,-0.029932,0.01069,0.016188,-42.84,4.8,17.4
5.5435,-2.3155,-7.8862,-0.032987,0.011912,0.015577,-42.78,4.68,17.52
5.4481,-2.3155,-7.9134,-0.03879,0.0073304,0.014355,-42.72,4.68,17.64
5.4209,-2.2882,-7.8589,-0.036957,-0.0030543,0.010385,-42.72,4.68,17.58
5.4209,-2.3155,-7.9679,-0.032376,0.0015272,0.014355,-42.78,4.68,17.7
5.38,-2.3155,-7.8998,-0.029627,0.0058032,0.014355,-42.72,4.74,17.7
5.3937,-2.3155,-7.927,-0.037568,0.000916,0.015882,-42.96,4.8,17.7
5.4073,-2.2882,-7.927,-0.032376,-0.0036652,0.016493,-42.9,4.8,17.7
5.38,-2.2201,-7.9679,-0.032681,0.0018326,0.01741,-42.84,4.86,17.76
5.38,-2.2882,-7.8998,-0.030238,0.0024435,0.015882,-42.96,4.86,17.82
5.4754,-2.2882,-7.8589,-0.033903,0.0067195,0.0073304,-43.02,4.86,17.88
5.4754,-2.3155,-7.9679,-0.031154,-0.0085521,0.0073304,-42.96,4.8,17.76
5.4073,-2.3291,-7.9134,-0.026573,-0.007025,0.014966,-42.84,4.8,17.64
5.4481,-2.2474,-7.9543,-0.027489,-0.0054978,0.013439,-42.9,4.92,17.46
5.4618,-2.261,-7.9134,-0.033598,-0.0045815,0.020769,-42.9,4.8,17.34
5.4754,-2.2882,-7.927,-0.032987,-0.007025,0.012217,-42.96,4.74,17.28
5.4618,-2.2882,-7.9407,-0.035125,-0.0018326,0.016799,-42.84,4.86,17.16
5.4073,-2.3155,-7.8998,-0.025962,-0.002138,0.020159,-42.78,4.8,17.1
5.4345,-2.3155,-7.9951,-0.025656,-0.000611,0.017715,-42.66,4.8,17.04
5.4754,-2.2882,-7.9679,-0.030543,-0.0012217,0.014966,-42.72,4.92,17.1
5.489,-2.3155,-8.036,-0.033292,-0.0024435,0.016493,-42.78,5.04,17.1
5.4618,-2.3018,-7.8998,-0.031765,-0.0048869,0.013134,-42.72,4.98,17.16
5.4754,-2.3155,-7.9679,-0.035736,-0.0012217,0.0085521,-42.66,4.86,17.22
5.4073,-2.2746,-8.0496,-0.028711,-0.0027489,0.015577,-42.48,4.8,17.22
5.4073,-2.3018,-7.9407,-0.0281,-0.0073304,0.018326,-42.48,4.86,17.34
5.4481,-2.3018,-7.8998,-0.039706,-0.0024435,0.010996,-42.54,5.1,17.52
5.4073,-2.2474,-7.9134,-0.029932,-0.000611,0.017104,-42.6,5.22,17.58
5.4754,-2.2882,-7.9134,-0.032681,-0.0036652,0.014966,-42.54,5.16,17.58
5.4073,-2.3155,-7.8998,-0.034514,0.000305,0.018326,-42.78,5.1,17.52
5.4073,-2.2882,-7.9951,-0.024129,-0.0039706,0.015272,-42.96,5.1,17.58
5.4209,-2.2337,-7.9815,-0.031765,-0.0067195,0.024129,-42.96,5.16,17.4
5.4618,-2.3018,-7.9679,-0.03146,-0.0024435,0.012523,-43.14,5.22,17.28
5.3664,-2.3155,-7.8998,-0.031154,-0.0012217,0.018937,-43.08,5.22,17.34
5.4073,-2.2882,-8.0224,-0.033903,-0.0045815,0.020159,-43.08,5.34,17.4
5.3937,-2.3018,-7.9407,-0.03207,-0.0042761,0.012523,-43.02,5.34,17.52
5.4073,-2.3155,-7.9815,-0.027489,-0.0012217,0.017104,-43.26,5.34,17.46
5.4754,-2.2746,-7.927,-0.026267,-0.0048869,0.010079,-43.26,5.46,17.34
5.3664,-2.3018,-8.0088,-0.026878,-0.0033598,0.017104,-43.2,5.22,17.22
5.5162,-2.2474,-8.036,-0.025351,-0.0073304,0.014355,-43.2,5.1,17.16
5.4481,-2.2882,-7.9815,-0.023518,-0.0045815,0.014355,-43.14,5.22,17.16
5.4073,-2.3427,-8.0224,-0.027184,0.000916,0.0085521,-43.14,5.16,17.16
5.4481,-2.2746,-7.9951,-0.034208,0.0027489,0.019242,-42.96,5.04,17.22
5.5299,-2.3427,-7.9679,-0.029627,-0.0015272,0.012828,-43.02,5.1,17.22
5.38,-2.2882,-7.9679,-0.041539,-0.0085521,0.013744,-42.9,5.1,17.34
5.4073,-2.2337,-7.8181,-0.033598,-0.0042761,0.0082467,-42.9,4.86,17.28
5.4209,-2.3563,-7.927,-0.032987,-0.0036652,0.018326,-42.9,4.74,17.46
5.4209,-2.3018,-7.927,-0.039401,-0.002138,0.014966,-43.02,4.74,17.52
5.4073,-2.2882,-7.9543,-0.036652,-0.0054978,0.011912,-42.72,4.86,17.4
5.4073,-2.2882,-7.9407,-0.03207,-0.0045815,0.0097738,-42.78,4.8,17.46
5.3937,-2.2474,-8.036,-0.037263,0.0015272,0.011912,-42.78,4.98,17.64
5.4754,-2.2882,-7.927,-0.033903,0.0030543,0.0073304,-42.78,4.98,17.58
5.4618,-2.2882,-8.0632,-0.034819,-0.0058032,0.01405,-42.84,4.92,17.76
5.4481,-2.2882,-7.9951,-0.026878,-0.0045815,0.015272,-42.84,4.8,17.7
5.4481,-2.3155,-7.927,-0.030849,-0.000305,0.017104,-42.9,4.86,17.52
5.4754,-2.3155,-7.9815,-0.03543,0.000611,0.014355,-43.02,4.86,17.58
5.4073,-2.3291,-7.9951,-0.036957,-0.0042761,0.015272,-42.9,4.74,17.58
5.4073,-2.2882,-7.9815,-0.032681,-0.0079412,0.017715,-42.9,4.8,17.7
5.4073,-2.2882,-7.9134,-0.032987,-0.0036652,0.020464,-42.78,4.74,17.52
5.4481,-2.3155,-7.9815,-0.034819,0.0051924,0.019242,-42.9,4.68,17.34
5.4073,-2.2474,-7.9951,-0.033903,-0.0042761,0.014661,-43.08,4.74,17.46
5.3528,-2.2882,-7.9951,-0.036346,-0.000611,0.01741,-43.02,4.56,17.52
5.3528,-2.2474,-7.9543,-0.037263,-0.000305,0.016799,-42.96,4.56,17.28
5.4618,-2.3155,-7.9134,-0.026878,-0.0039706,0.018326,-42.96,4.5,17.22
5.4754,-2.2337,-7.9407,-0.029932,0.0012217,0.018631,-42.96,4.62,17.1
5.4618,-2.438,-7.9679,-0.037568,0.000611,0.020769,-42.9,4.74,17.1
5.4345,-2.2882,-7.9679,-0.029627,-0.0054978,0.015272,-42.9,4.74,17.28
5.4345,-2.3291,-7.9407,-0.032681,-0.0036652,0.015577,-42.78,4.62,17.28
5.4618,-2.2746,-7.9407,-0.040623,-0.0045815,0.017715,-42.96,4.62,17.28
5.4345,-2.3018,-8.1177,-0.027794,0.0039706,0.016493,-42.9,4.62,17.28
5.38,-2.2882,-7.9543,-0.034819,-0.000916,0.014661,-42.96,4.68,17.22
5.489,-2.2746,-7.9679,-0.029627,-0.0033598,0.014661,-42.78,4.62,17.4
5.4481,-2.2882,-7.9951,-0.038485,0.0024435,0.016799,-42.84,4.68,17.4
5.4073,-2.3155,-7.927,-0.029322,0.0012217,0.012523,-42.84,4.68,17.4
5.4481,-2.2882,-7.9679,-0.03543,-0.000611,0.0079412,-42.9,4.74,17.46
5.4073,-2.2746,-7.9679,-0.029932,-0.0036652,0.015272,-43.02,4.74,17.64
5.4073,-2.2882,-7.8998,-0.041233,-0.000305,0.019242,-42.9,4.56,17.76
5.4481,-2.3155,-7.9679,-0.029627,0.0024435,0.013744,-42.84,4.56,17.88
5.4345,-2.3155,-7.9815,-0.028711,-0.0012217,0.014966,-42.84,4.68,17.82
5.4481,-2.3291,-7.9543,-0.033598,-0.0030543,0.013744,-42.78,4.5,17.94
5.4481,-2.3018,-8.0496,-0.029016,-0.0012217,0.01069,-42.78,4.56,17.94
5.4209,-2.3018,-7.9679,-0.033598,-0.000305,0.01405,-42.66,4.74,18.0
5.3937,-2.3155,-7.927,-0.034208,-0.0015272,0.017104,-42.78,4.8,18.06
5.3528,-2.3018,-7.9543,-0.031765,-0.002138,0.015577,-42.78,4.8,17.94
5.4481,-2.2882,-7.9679,-0.034514,0.0030543,0.015882,-42.78,4.86,17.76
5.3664,-2.2882,-7.9407,-0.038179,-0.0024435,0.018021,-42.72,4.92,17.82
5.4209,-2.2882,-7.9134,-0.034514,-0.0036652,0.014966,-42.6,4.86,17.7
5.3664,-2.3018,-7.9543,-0.03207,0.0048869,0.014355,-42.6,4.74,17.7
5.4209,-2.2882,-7.9951,-0.026267,-0.0012217,0.011912,-42.66,4.98,17.7
5.4073,-2.2474,-7.9407,-0.029627,0.0042761,0.012523,-42.78,4.86,17.7
5.4073,-2.2746,-7.9543,-0.033903,0.0076358,0.0094684,-42.78,4.8,17.76
5.5162,-2.3155,-7.9134,-0.025045,0.0039706,0.013439,-42.9,4.86,17.7
5.489,-2.261,-7.9407,-0.039095,-0.0067195,0.014355,-42.72,4.92,17.64
5.3528,-2.3155,-7.9951,-0.028405,0.000305,0.018631,-42.9,4.98,17.64
5.4345,-2.2882,-7.8998,-0.033292,0.0045815,0.015577,-42.9,4.8,17.7
5.4345,-2.3427,-7.9951,-0.036346,0.0036652,0.018937,-42.96,4.86,17.76
5.4345,-2.2882,-7.9679,-0.032987,-0.0097738,0.01069,-42.9,4.8,17.94
5.38,-2.2882,-7.9543,-0.03879,-0.0054978,0.014355,-42.9,4.8,18.0
5.38,-2.3155,-8.1041,-0.029932,0.0042761,0.011606,-42.9,4.8,18.06
5.3664,-2.2746,-7.927,-0.033903,0.0088575,0.015577,-42.9,4.92,18.06
5.4618,-2.3018,-7.9815,-0.027184,-0.0015272,0.010385,-42.96,4.74,18.06
5.4481,-2.3018,-7.927,-0.032376,-0.0012217,0.012523,-42.96,4.86,18.06
5.4073,-2.3155,-7.9543,-0.028711,-0.0024435,0.0085521,-42.96,4.92,17.88
5.4073,-2.3699,-7.9407,-0.03146,0.0042761,0.0097738,-42.84,5.04,17.82
5.4481,-2.3427,-7.9407,-0.034819,0.0030543,0.016188,-42.9,4.92,17.82
5.4073,-2.3018,-8.0769,-0.037263,-0.0064141,0.014661,-42.9,4.98,17.76
5.38,-2.2882,-8.0224,-0.029322,0.000305,0.01405,-42.9,5.04,17.52
5.4073,-2.2882,-7.8726,-0.034819,-0.002138,0.015577,-43.02,4.92,17.64
5.38,-2.261,-7.9679,-0.030849,0.0039706,0.014661,-43.08,4.86,17.52
5.4481,-2.2882,-7.9951,-0.033598,-0.0033598,0.0097738,-43.02,4.8,17.28
5.4481,-2.3155,-7.9951,-0.033903,-0.0045815,0.014966,-43.2,4.74,17.22
5.3528,-2.3155,-8.0224,-0.03543,0.000611,0.016493,-43.2,4.74,17.16
5.4073,-2.261,-7.9815,-0.030543,-0.000611,0.027489,-43.08,4.86,17.1
5.4345,-2.3018,-7.927,-0.029627,0.0015272,0.013744,-42.96,4.86,17.04
5.4618,-2.2746,-7.9407,-0.026573,0.000611,0.019242,-42.9,4.8,17.28
5.4481,-2.3155,-7.927,-0.032376,0.0039706,0.018631,-42.96,4.68,17.46
5.4481,-2.3155,-7.927,-0.032376,0.0045815,0.014966,-42.96,4.68,17.46
5.4209,-2.2882,-7.9815,-0.029932,-0.002138,0.015882,-42.84,4.68,17.16
5.4345,-2.3018,-7.927,-0.032681,-0.0018326,0.012828,-42.66,4.5,17.34
5.4073,-2.2474,-8.0088,-0.040012,0.000611,0.017715,-42.36,4.56,17.28
5.4209,-2.2882,-7.9679,-0.029016,0.0024435,0.014661,-42.06,4.62,17.4
5.4481,-2.3291,-7.927,-0.035125,0.0012217,0.020159,-41.88,4.56,17.58
5.4209,-2.2882,-7.9134,-0.034514,-0.000305,0.01069,-41.94,4.5,17.46
5.4073,-2.2474,-8.0769,-0.032376,0.0033598,0.016188,-41.94,4.38,17.4
5.38,-2.261,-7.9815,-0.033903,0.000916,0.013134,-41.88,4.44,17.4
5.4481,-2.2882,-7.9407,-0.030543,-0.0018326,0.011606,-41.76,4.5,17.58
5.38,-2.3018,-7.9951,-0.030849,0.0030543,0.017104,-41.76,4.44,17.64
5.38,-2.2474,-7.8862,-0.036957,0.000305,0.012217,-41.88,4.56,17.52
5.4345,-2.3291,-7.9543,-0.034208,0.0012217,0.0082467,-42.3,4.56,17.64
5.38,-2.2746,-7.9951,-0.039095,0.002138,0.016493,-42.3,4.44,17.64
5.4209,-2.2746,-8.0088,-0.03146,0.000916,0.014355,-42.42,4.5,17.64
5.4481,-2.261,-8.0088,-0.028711,0.0036652,0.013439,-42.42,4.56,17.64
5.5026,-2.261,-7.9951,-0.036957,0.0045815,0.01741,-42.48,4.62,17.64
5.4618,-2.261,-7.9815,-0.029627,0.0045815,0.015272,-42.6,4.5,17.76
5.4209,-2.2882,-7.9679,-0.033292,-0.0012217,0.014661,-42.6,4.5,17.64
5.4073,-2.261,-7.9679,-0.034514,0.0036652,0.016493,-42.66,4.38,17.46
5.4073,-2.3018,-7.9543,-0.026267,-0.000611,0.018326,-42.72,4.38,17.4
5.4481,-2.2746,-7.9951,-0.029016,0.000611,0.014355,-42.84,4.32,17.46
5.3664,-2.2882,-7.9815,-0.031765,0.011606,0.021686,-42.78,4.38,17.52
5.4073,-2.3155,-7.9543,-0.03207,0.016799,0.016188,-42.9,4.38,17.58
5.4345,-2.2882,-7.9815,-0.037263,0.0039706,0.018021,-42.9,4.44,17.58
5.4209,-2.2201,-8.036,-0.036652,-0.0042761,0.013439,-42.96,4.56,17.46
5.4073,-2.2746,-7.9679,-0.039706,0.0015272,0.014966,-42.9,4.56,17.46
5.4481,-2.2474,-7.8726,-0.027794,0.012217,0.012523,-43.08,4.38,17.4
5.4618,-2.2746,-7.9134,-0.037263,0.014355,0.012523,-43.02,4.38,17.46
5.5162,-2.2882,-7.9134,-0.037568,0.0012217,0.012217,-42.96,4.56,17.34
5.4209,-2.3018,-8.036,-0.036957,0.0039706,0.014355,-42.96,4.8,17.4
5.4481,-2.3155,-7.9407,-0.036957,0.015272,0.012828,-43.02,4.86,17.46
5.4073,-2.3155,-7.8998,-0.032681,0.012828,0.011606,-43.08,4.74,17.52
5.4345,-2.2882,-7.9679,-0.032376,0.0042761,0.013744,-43.08,4.68,17.52
5.4073,-2.2882,-7.9815,-0.025045,0.000305,0.009163,-43.08,4.68,17.4
5.4481,-2.2746,-7.927,-0.027794,0.0054978,0.014661,-42.96,4.62,17.34
5.4073,-2.2882,-7.927,-0.033903,0.012523,0.017104,-42.9,4.68,17.28
5.4345,-2.261,-7.927,-0.03543,0.0061087,0.016799,-42.9,4.74,17.4
5.4754,-2.3155,-7.8726,-0.040012,-0.0015272,0.01741,-43.08,4.92,17.46
5.4754,-2.3155,-7.927,-0.03543,-0.0015272,0.019242,-43.08,4.92,17.34
5.5026,-2.261,-7.9951,-0.03879,0.0024435,0.013744,-43.14,4.98,17.28
5.4209,-2.3291,-7.927,-0.032376,0.0036652,0.0085521,-43.2,4.98,17.4
5.4754,-2.2882,-7.9951,-0.036652,0.000611,0.013134,-43.2,4.74,17.34
5.4481,-2.2882,-7.8726,-0.030849,0.0018326,0.015272,-43.02,4.74,17.4
5.4209,-2.2746,-7.9679,-0.026267,-0.0036652,0.012523,-42.96,4.86,17.28
5.4345,-2.2474,-7.8998,-0.032681,0.0012217,0.018021,-42.96,5.04,17.28
5.4481,-2.2746,-7.8045,-0.03207,0.0012217,0.017104,-43.02,5.04,17.4
5.4481,-2.2474,-7.8589,-0.026573,0.0045815,0.012523,-42.9,5.1,17.46
5.4209,-2.2746,-7.9407,-0.033292,-0.0024435,0.019548,-42.9,5.1,17.46
5.4073,-2.2882,-7.9134,-0.027489,-0.0067195,0.015577,-42.96,4.98,17.46
5.4209,-2.3018,-8.0224,-0.025656,-0.0027489,0.013134,-42.9,4.86,17.4
5.4618,-2.2882,-8.0632,-0.035125,-0.0061087,0.022602,-42.84,4.8,17.58
5.4754,-2.3155,-7.9407,-0.027489,-0.0012217,0.016493,-42.72,4.74,17.52
5.489,-2.2882,-7.8589,-0.036346,-0.0012217,0.013134,-42.6,4.68,17.58
5.4481,-2.2882,-7.927,-0.030238,-0.0048869,0.018631,-42.66,4.68,17.7
5.4073,-2.2882,-8.0088,-0.025351,-0.0039706,0.016493,-42.54,4.74,17.52
5.3937,-2.3155,-7.927,-0.033292,-0.0018326,0.021075,-42.6,4.74,17.64
5.4073,-2.3427,-7.9543,-0.035736,-0.0045815,0.014355,-42.54,4.56,17.52
5.4073,-2.3018,-7.927,-0.038179,-0.0036652,0.022602,-42.6,4.44,17.46
5.4481,-2.2474,-7.8998,-0.028405,-0.0027489,0.011301,-42.66,4.5,17.46
5.4481,-2.2201,-7.9815,-0.035125,-0.0061087,0.012828,-42.78,4.44,17.4
5.4073,-2.2882,-7.927,-0.028711,-0.0033598,0.014661,-42.84,4.5,17.34
5.4754,-2.261,-7.927,-0.030543,-0.0061087,0.0082467,-42.84,4.5,17.4
5.4481,-2.2882,-7.9679,-0.035736,0.000305,0.014661,-42.78,4.44,17.4
5.3528,-2.3018,-7.8998,-0.026878,-0.0076358,0.010996,-42.84,4.56,17.4
5.4073,-2.3018,-7.8726,-0.026573,0.000611,0.011606,-42.84,4.5,17.16
5.3937,-2.3427,-7.9679,-0.031154,0.0082467,0.019242,-42.84,4.5,17.1
5.489,-2.2882,-7.8862,-0.032681,0.0033598,0.02138,-42.84,4.5,17.22
5.5299,-2.2882,-7.9815,-0.042761,-0.0076358,0.020464,-42.96,4.44,17.1
5.489,-2.3291,-7.927,-0.04215,-0.0061087,0.010079,-43.08,4.44,17.1
5.4481,-2.3018,-7.9543,-0.033292,0.0027489,0.014966,-43.26,4.56,17.16
5.4345,-2.3155,-7.927,-0.032987,0.000305,0.013134,-43.08,4.5,17.16
5.4073,-2.3155,-7.9543,-0.03879,-0.0030543,0.014355,-42.96,4.56,17.22
5.4209,-2.2882,-7.9951,-0.031154,-0.0061087,0.011301,-42.96,4.5,17.22
5.38,-2.3836,-8.0224,-0.036346,-0.0024435,0.018021,-42.9,4.56,17.1
5.4345,-2.3155,-7.927,-0.032681,0.002138,0.015577,-42.9,4.62,16.92
5.4481,-2.2746,-7.927,-0.035125,0.0027489,0.017715,-42.9,4.38,16.98
5.489,-2.2882,-7.927,-0.034514,-0.0027489,0.014966,-42.9,4.44,16.98
5.4073,-2.3427,-7.927,-0.033903,0.000916,0.01741,-42.9,4.32,16.92
5.4073,-2.3018,-7.927,-0.033903,0.0012217,0.025351,-42.72,4.32,16.86
5.4481,-2.2882,-7.9543,-0.03207,-0.0033598,0.013134,-42.6,4.44,16.86
5.5026,-2.3155,-7.9951,-0.037568,-0.0042761,0.015272,-42.54,4.44,16.92
5.4073,-2.3427,-8.0088,-0.03879,0.0054978,0.020159,-42.3,4.38,16.86
5.5299,-2.2882,-7.8998,-0.03207,0.0061087,0.021991,-42.48,4.26,16.92
5.5162,-2.2882,-7.9407,-0.03543,0.0094684,0.024129,-42.48,4.2,16.8
5.4618,-2.2882,-7.927,-0.040317,0.0085521,0.013134,-42.54,4.2,16.86
5.4209,-2.261,-7.8589,-0.037568,0.010385,0.016799,-42.36,4.26,16.74
5.4481,-2.2882,-7.8998,-0.036041,0.0076358,0.018021,-42.36,4.32,16.74
5.4073,-2.3018,-7.9543,-0.038179,0.014661,0.017715,-42.48,4.32,16.86
5.4481,-2.3155,-7.8862,-0.042761,0.029932,0.023213,-42.72,4.38,17.04
5.4209,-2.3018,-7.9543,-0.041233,0.027794,0.025656,-42.72,4.5,17.16
5.4618,-2.2882,-7.9951,-0.044593,0.027489,0.025656,-42.72,4.62,17.22
5.4481,-2.2746,-7.927,-0.034819,0.019242,0.017715,-42.9,4.62,17.22
5.4618,-2.2474,-7.9407,-0.041539,0.019548,0.017104,-42.9,4.8,17.34
5.489,-2.2474,-7.927,-0.03543,0.020464,0.012523,-42.96,4.86,17.4
5.4209,-2.3291,-7.927,-0.045815,0.030543,0.018937,-43.02,5.04,17.34
5.4481,-2.2746,-7.927,-0.036957,0.029322,0.019853,-42.96,4.98,17.46
5.4209,-2.2474,-7.8453,-0.032987,0.025962,0.018631,-42.9,4.98,17.52
5.4754,-2.3155,-7.8726,-0.03543,0.013134,0.021075,-43.14,4.98,17.58
5.4209,-2.2882,-7.8181,-0.035736,0.002138,0.012523,-43.08,4.98,17.64
5.5162,-2.2746,-7.8589,-0.035736,-0.0018326,0.01405,-43.02,4.92,17.58
5.38,-2.2746,-7.927,-0.039706,-0.007025,0.027184,-42.78,5.04,17.58
5.4481,-2.2882,-7.927,-0.029016,-0.014966,0.014966,-42.78,5.04,17.58
5.489,-2.3018,-7.8589,-0.0281,-0.015577,0.015882,-42.84,4.92,17.64
5.5026,-2.3155,-7.9134,-0.030543,-0.028711,0.015577,-42.9,4.86,17.7
5.489,-2.152,-7.9679,-0.022602,-0.027489,0.017715,-42.84,4.62,17.64
5.4345,-2.2746,-7.9951,-0.026267,-0.031765,0.016188,-42.78,4.5,17.64
5.3937,-2.2474,-8.0769,-0.0281,-0.014966,0.012828,-42.84,4.38,17.58
5.4073,-2.2474,-7.9134,-0.03543,-0.0061087,0.011912,-42.9,4.38,17.46
5.4345,-2.2474,-7.9407,-0.0281,-0.0018326,0.012217,-42.9,4.5,17.46
5.5026,-2.3018,-7.8998,-0.034514,-0.000305,0.019242,-42.9,4.56,17.58
5.5162,-2.3291,-7.927,-0.032681,-0.0094684,0.014966,-42.96,4.5,17.64
5.38,-2.2474,-7.8862,-0.03879,-0.01405,0.020464,-42.9,4.62,17.7
5.4073,-2.2746,-8.0088,-0.034819,-0.0039706,0.015577,-43.08,4.56,17.7
5.4345,-2.2882,-7.9679,-0.036041,0.010996,0.014355,-43.14,4.62,17.76
5.4618,-2.2746,-7.927,-0.029932,0.0058032,0.01405,-43.08,4.56,17.7
5.4209,-2.2882,-7.8998,-0.039095,-0.0097738,0.016188,-43.02,4.62,17.64
5.4073,-2.2882,-7.9951,-0.036346,-0.0030543,0.015577,-43.08,4.74,17.7
5.4073,-2.3155,-7.9407,-0.034819,0.0079412,0.01405,-43.14,4.92,17.7
5.3937,-2.3155,-8.036,-0.040928,0.024435,0.016799,-43.08,5.16,17.82
5.4754,-2.2882,-7.927,-0.040317,0.031154,0.017715,-43.02,5.28,17.82
5.4481,-2.2746,-7.8998,-0.038179,0.045815,0.019548,-42.9,5.28,17.82
5.489,-2.2474,-7.927,-0.040317,0.032681,0.019853,-42.9,5.16,17.64
5.4754,-2.2882,-7.8317,-0.038179,0.030849,0.023213,-42.96,5.22,17.52
5.4754,-2.2882,-7.8726,-0.049786,0.007025,0.01741,-42.96,5.16,17.4
5.4754,-2.3427,-7.9134,-0.039095,0.000305,0.020464,-42.9,5.28,17.28
5.4618,-2.2474,-7.8589,-0.034514,0.0033598,0.017104,-42.96,5.1,17.34
5.4481,-2.3018,-7.9134,-0.036652,0.010385,0.018937,-42.9,5.16,17.16
5.5707,-2.2474,-7.9815,-0.032376,0.017104,0.012828,-42.9,5.28,17.46
5.5707,-2.261,-7.927,-0.029627,-0.000916,0.019853,-42.96,5.28,17.4
5.4481,-2.2746,-7.8998,-0.036041,-0.0094684,0.015882,-43.02,5.28,17.46
5.489,-2.152,-7.8998,-0.028711,-0.009163,0.013134,-42.96,5.1,17.22
5.5026,-2.2882,-7.8726,-0.029932,-0.011912,0.014661,-42.9,5.04,17.22
5.4754,-2.2337,-7.8998,-0.03207,-0.014355,0.01405,-42.9,4.98,17.16
5.5707,-2.2882,-7.8998,-0.030849,-0.027794,0.0042761,-42.84,5.04,17.1
5.5299,-2.3155,-7.8998,-0.034208,-0.03543,0.0061087,-42.84,4.92,17.16
5.4754,-2.3155,-8.0088,-0.023213,-0.039401,0.012828,-42.84,4.8,17.34
5.4345,-2.3018,-7.9815,-0.026878,-0.027184,0.010079,-42.96,4.8,17.34
5.4618,-2.2746,-7.9951,-0.030849,-0.014966,0.013439,-42.84,4.86,17.16
5.4209,-2.3155,-8.0088,-0.033903,-0.0079412,0.0094684,-42.72,4.92,17.22
5.4618,-2.3155,-7.9951,-0.028711,0.0045815,0.021686,-42.72,4.8,17.04
5.4073,-2.2882,-7.9407,-0.03543,0.0024435,0.023518,-42.84,4.86,16.8
5.4345,-2.3155,-7.9407,-0.0281,0.0033598,0.01405,-42.84,4.86,16.74
5.5026,-2.4244,-7.9815,-0.033598,0.0067195,0.015272,-42.78,4.8,16.8
5.4073,-2.261,-7.9543,-0.033903,0.0042761,0.011912,-42.78,4.92,16.74
5.4073,-2.3018,-7.9951,-0.026573,0.0030543,0.013134,-42.84,4.8,16.86
5.4481,-2.3155,-7.9679,-0.036652,-0.000916,0.020769,-42.84,4.74,16.98
5.4481,-2.2882,-7.8998,-0.03543,-0.000916,0.01405,-43.08,4.8,16.98
5.5435,-2.2746,-7.8998,-0.032681,0.0027489,0.020159,-43.14,4.68,16.98
5.4481,-2.2882,-7.9815,-0.034514,0.000305,0.016188,-43.08,4.86,16.98
5.4345,-2.2746,-7.9543,-0.033598,0.0058032,0.015577,-43.08,4.86,17.04
5.4754,-2.3018,-7.9679,-0.030238,0.0045815,0.012828,-43.02,4.86,17.04
5.4754,-2.3155,-7.9543,-0.025351,-0.0027489,0.0085521,-43.14,4.86,17.16
5.5026,-2.2882,-7.9134,-0.025351,0.000916,0.014355,-43.02,4.8,17.1
5.489,-2.2882,-7.8726,-0.031765,0.014966,0.018021,-42.96,4.68,17.16
5.5162,-2.3699,-7.8862,-0.040012,0.013439,0.01405,-43.08,4.68,17.22
5.5162,-2.3427,-7.8998,-0.034208,-0.0048869,0.014355,-43.14,4.74,17.22
5.4345,-2.3155,-7.927,-0.03543,-0.0042761,0.011606,-43.14,4.68,17.16
5.4073,-2.261,-7.9543,-0.040012,0.011301,0.015577,-43.08,4.74,17.28
5.38,-2.2746,-7.927,-0.034514,0.013439,0.012828,-42.96,4.68,17.22
5.489,-2.261,-7.9679,-0.037568,0.0064141,0.016188,-42.9,4.86,17.16
5.4073,-2.2474,-7.9407,-0.041844,-0.0024435,0.015272,-42.84,4.86,17.22
5.4618,-2.2746,-7.8998,-0.033292,0.0051924,0.016188,-42.72,4.74,17.22
5.489,-2.2882,-7.8726,-0.034208,0.0036652,0.020464,-42.84,4.56,17.28
5.5026,-2.3155,-7.8726,-0.034208,0.012217,0.010996,-42.78,4.56,17.34
5.4754,-2.2474,-7.8862,-0.025962,0.000305,0.010996,-42.78,4.68,17.46
5.4754,-2.3018,-7.9407,-0.032376,-0.0024435,0.016493,-42.9,4.92,17.34
5.4209,-2.3018,-7.9543,-0.024435,0.0064141,0.017715,-42.9,4.92,17.22
5.5435,-2.3018,-7.927,-0.030238,0.0042761,0.016493,-42.96,4.92,17.34
5.5162,-2.3563,-7.927,-0.036346,-0.0054978,0.018021,-42.84,4.8,17.28
5.5435,-2.2882,-7.9543,-0.036346,-0.0045815,0.01405,-43.02,4.8,17.22
5.4754,-2.3018,-7.927,-0.036957,-0.0024435,0.023824,-43.08,4.68,17.34
5.4754,-2.3018,-7.8589,-0.043677,0.0027489,0.011606,-43.14,4.8,17.34
5.4618,-2.3291,-7.8862,-0.034208,0.0051924,0.013744,-43.14,4.92,17.34
5.4754,-2.3427,-7.9543,-0.032376,0.0051924,0.017104,-43.2,4.98,17.34
5.4618,-2.2474,-7.927,-0.032987,0.000916,0.016188,-43.32,5.1,17.22
5.5162,-2.3155,-7.8589,-0.042761,0.000611,0.019548,-43.32,5.16,17.04
5.4481,-2.261,-7.9134,-0.032681,0.000305,0.01405,-43.32,5.16,16.98
5.4481,-2.2882,-7.8726,-0.037874,-0.0012217,0.01405,-43.2,4.92,17.16
5.4209,-2.3018,-7.8998,-0.030849,-0.0027489,0.013439,-43.14,4.92,17.1
5.4618,-2.2882,-7.8862,-0.032987,-0.0064141,0.012828,-43.08,5.04,17.1
5.4754,-2.3018,-7.8862,-0.032376,0.0048869,0.019853,-43.2,5.16,17.28
5.489,-2.261,-7.8317,-0.030238,0.0039706,0.010996,-43.02,4.98,17.22
5.5026,-2.3155,-7.927,-0.027489,0.0027489,0.009163,-42.9,5.04,17.16
5.5026,-2.3155,-7.927,-0.033903,-0.000305,0.015577,-42.84,4.86,17.16
5.4481,-2.3155,-7.9951,-0.031765,-0.000305,0.018021,-42.84,4.74,16.92
5.4481,-2.261,-7.9951,-0.040012,-0.0051924,0.018021,-42.84,4.56,16.8
5.5026,-2.2882,-7.8862,-0.029016,-0.002138,0.016188,-42.84,4.62,16.98
5.5162,-2.2201,-7.9407,-0.03207,-0.0054978,0.01405,-42.78,4.5,17.04
5.4754,-2.2746,-7.927,-0.031154,-0.0058032,0.01405,-42.72,4.56,17.1
5.4481,-2.3018,-7.8998,-0.031765,-0.0039706,0.017715,-42.72,4.74,17.1
5.5026,-2.3155,-7.927,-0.033292,0.0015272,0.013439,-42.78,4.74,17.16
5.4754,-2.2746,-7.9679,-0.029322,-0.0076358,0.015272,-42.72,4.68,17.28
5.3937,-2.3018,-7.8862,-0.026573,-0.0076358,0.012828,-42.66,4.5,17.16
5.4073,-2.2882,-7.8998,-0.030238,0.000611,0.014966,-42.66,4.68,17.28
5.5026,-2.3155,-7.8589,-0.037568,0.0042761,0.014355,-42.9,4.56,17.28
5.5162,-2.3155,-7.8589,-0.03543,-0.0027489,0.018021,-43.08,4.56,17.22
5.4754,-2.2746,-7.927,-0.036346,-0.009163,0.015882,-43.08,4.5,17.22
5.4073,-2.3427,-7.927,-0.032376,-0.0076358,0.015272,-43.14,4.5,17.28
5.4618,-2.2882,-7.8998,-0.036652,0.0030543,0.0085521,-43.08,4.44,17.16
5.4209,-2.261,-7.8862,-0.031765,0.0030543,0.011301,-43.08,4.56,17.28
5.4754,-2.2882,-7.9407,-0.034208,-0.007025,0.016188,-43.08,4.5,17.22
5.4209,-2.261,-7.927,-0.036041,-0.0097738,0.017104,-43.14,4.44,17.22
5.4754,-2.2882,-7.9951,-0.036041,-0.0018326,0.012217,-43.26,4.44,17.22
5.4481,-2.2474,-7.9951,-0.034208,0.0048869,0.015577,-43.2,4.38,17.04
5.5299,-2.3155,-7.9134,-0.027184,-0.000611,0.015577,-43.26,4.5,17.1
5.4754,-2.2474,-7.927,-0.032681,-0.0085521,0.017715,-43.32,4.56,17.1
5.4481,-2.2882,-7.9134,-0.032681,-0.0061087,0.019548,-43.2,4.62,17.22
5.5162,-2.2882,-7.9134,-0.029322,0.0015272,0.015882,-43.08,4.5,17.4
5.489,-2.2882,-7.9679,-0.029627,-0.0088575,0.0082467,-43.08,4.56,17.34
5.5026,-2.2882,-7.9679,-0.029932,-0.0085521,0.0094684,-43.02,4.56,17.46
5.4618,-2.2882,-7.9679,-0.03207,-0.0067195,0.014355,-43.02,4.56,17.28
5.5026,-2.2882,-7.8998,-0.030849,0.000916,0.018937,-43.26,4.56,17.28
5.5026,-2.3018,-7.9543,-0.03543,-0.0039706,0.020769,-43.32,4.44,17.28
5.4754,-2.2882,-7.927,-0.026573,-0.0051924,0.0088575,-43.32,4.38,17.16
5.4754,-2.3155,-7.9134,-0.030849,-0.000611,0.015577,-43.14,4.38,17.22
5.4618,-2.2882,-7.9134,-0.024129,-0.000611,0.014355,-43.26,4.38,17.16
5.5026,-2.3291,-7.9679,-0.030238,0.0018326,0.0073304,-43.32,4.44,17.28
5.4754,-2.2882,-7.9679,-0.029322,-0.0048869,0.012523,-43.32,4.44,17.34
5.4345,-2.2337,-7.9679,-0.036957,0.000611,0.015882,-43.26,4.56,17.28
5.5435,-2.2474,-7.9679,-0.030849,0.000611,0.011912,-43.2,4.62,17.16
5.4345,-2.3018,-7.8862,-0.025656,-0.002138,0.013134,-43.02,4.8,17.34
5.4618,-2.2882,-7.927,-0.037874,0.0030543,0.01405,-43.08,4.86,17.34
5.4073,-2.3155,-7.9407,-0.029322,-0.000611,0.015882,-43.02,5.04,17.64
5.4618,-2.2882,-7.8862,-0.031154,-0.0012217,0.012217,-42.96,4.98,17.76
5.5162,-2.3155,-7.9407,-0.034208,0.0015272,0.01741,-42.96,5.1,17.7
5.4754,-2.3155,-7.8181,-0.029932,-0.0012217,0.014355,-42.84,4.98,17.7
5.4754,-2.3155,-7.8045,-0.032681,-0.0027489,0.013134,-42.72,4.98,17.76
5.4481,-2.3291,-7.927,-0.030849,-0.0027489,0.016188,-42.66,4.92,17.82
5.4481,-2.3291,-7.927,-0.030238,-0.0045815,0.010996,-42.66,5.04,17.76
5.4345,-2.2474,-7.8862,-0.031154,-0.002138,0.014966,-42.6,4.86,17.64
5.4754,-2.3155,-7.8998,-0.026267,-0.000305,0.020159,-42.72,4.74,17.64
5.4754,-2.2882,-7.9407,-0.031154,-0.0012217,0.019548,-42.78,4.74,17.7
5.4209,-2.3018,-7.9407,-0.033292,-0.000611,0.013439,-42.84,4.8,17.64
5.4481,-2.2746,-8.036,-0.026573,-0.0024435,0.015882,-42.9,4.86,17.7
5.4618,-2.2474,-7.9407,-0.025351,-0.0018326,0.011912,-42.84,4.68,17.52
5.4754,-2.2746,-7.9951,-0.026878,0.0088575,0.0097738,-42.66,4.68,17.46
5.5435,-2.3155,-7.8998,-0.029322,0.011912,0.010079,-42.72,4.62,17.52
5.489,-2.2746,-7.9407,-0.039401,-0.013134,0.017104,-42.72,4.62,17.52
5.4073,-2.3155,-7.8998,-0.036346,-0.0085521,0.016188,-42.9,4.68,17.46
5.38,-2.261,-7.9815,-0.029932,-0.0036652,0.013744,-42.84,4.8,17.52
5.4754,-2.2746,-7.9679,-0.040928,0.0064141,0.010996,-43.02,4.8,17.52
5.4754,-2.261,-8.0224,-0.032376,-0.0097738,0.012828,-42.9,4.86,17.46
5.4481,-2.2882,-7.9407,-0.02138,-0.0067195,0.011912,-42.9,4.92,17.52
5.3256,-2.3836,-7.9543,-0.033598,-0.0042761,0.01405,-42.84,4.98,17.46
5.3937,-2.3018,-7.927,-0.032987,0.0088575,0.010996,-42.9,4.86,17.46
5.4754,-2.2201,-7.9543,-0.027489,0.0064141,0.017104,-42.84,4.86,17.34
5.5707,-2.3018,-7.927,-0.034208,-0.0067195,0.017715,-42.84,4.86,17.34
5.4754,-2.261,-7.9815,-0.030238,-0.0058032,0.012217,-42.9,4.8,17.4
5.4073,-2.261,-7.8998,-0.029322,0.0024435,0.012828,-42.84,4.8,17.4
5.4481,-2.2882,-7.9407,-0.036041,-0.0018326,0.018021,-42.9,4.92,17.46
5.4481,-2.2882,-7.9815,-0.028711,-0.002138,0.01405,-42.84,4.92,17.58
5.4073,-2.3155,-7.9951,-0.033903,-0.0015272,0.019242,-42.9,4.86,17.52
5.4345,-2.2882,-7.9679,-0.036652,-0.0036652,0.018631,-42.66,4.92,17.58
5.3937,-2.2882,-7.927,-0.033903,0.002138,0.014966,-42.72,4.92,17.58
5.3937,-2.2882,-7.927,-0.033903,0.002138,0.014966,-42.72,4.92,17.58
5.3937,-2.3155,-7.9951,-0.034208,0.000305,0.018937,-42.78,4.86,17.52
5.3937,-2.3155,-7.9951,-0.034208,0.000305,0.018937,-42.78,4.86,17.52
5.4345,-2.2882,-7.927,-0.037263,0.0027489,0.016799,-42.72,4.98,17.58
5.3937,-2.2746,-7.9407,-0.028405,0.0054978,0.014355,-42.66,4.92,17.64
5.4481,-2.2746,-7.9543,-0.032376,0.002138,0.021075,-42.9,4.8,17.52
5.4481,-2.2882,-7.8998,-0.039401,0.0030543,0.015272,-42.9,4.86,17.64
5.5026,-2.3155,-7.8998,-0.029627,-0.000916,0.012523,-43.02,4.92,17.52
5.4209,-2.2882,-7.9134,-0.036346,0.0051924,0.016493,-43.14,4.98,17.4
5.4481,-2.2746,-7.9134,-0.029627,-0.0061087,0.018937,-43.08,4.98,17.4
5.4754,-2.3291,-7.8589,-0.029322,-0.000305,0.016188,-43.08,5.04,17.4
5.4481,-2.2201,-7.927,-0.03207,0.0030543,0.010079,-43.2,5.04,17.46
5.5026,-2.3155,-7.8317,-0.034514,-0.0030543,0.020769,-43.14,5.1,17.28
5.5026,-2.2882,-7.927,-0.034819,-0.002138,0.013744,-43.2,5.1,17.28
5.4481,-2.3155,-7.9679,-0.033903,0.002138,0.012523,-43.26,5.1,17.04
5.4618,-2.3427,-7.9679,-0.025351,0.0024435,0.012523,-43.32,5.04,17.04
5.4481,-2.3018,-7.9951,-0.034208,-0.0048869,0.014355,-43.32,5.04,16.98
5.4073,-2.261,-7.9407,-0.033292,0.000305,0.022602,-43.26,5.16,16.92
5.4481,-2.2882,-7.9679,-0.040623,0.0015272,0.0082467,-43.26,5.28,16.8
5.4618,-2.3155,-7.927,-0.035736,0.0030543,0.01741,-43.2,5.4,17.04
5.5571,-2.2882,-7.8998,-0.034208,-0.0045815,0.0094684,-43.08,5.28,17.28
5.4481,-2.3155,-7.9543,-0.031154,-0.0015272,0.015577,-43.14,5.22,17.28
5.4345,-2.3018,-7.927,-0.022907,-0.0045815,0.014966,-43.08,5.1,17.4
5.4754,-2.261,-7.9815,-0.030238,0.009163,0.010079,-43.02,4.98,17.22
5.3937,-2.3155,-7.9815,-0.0281,-0.0027489,0.0094684,-43.08,4.8,17.28
5.3937,-2.2882,-7.9134,-0.03543,0.0094684,0.012217,-42.96,4.8,17.28
5.5162,-2.3155,-7.9543,-0.037263,0.0079412,0.013439,-42.78,4.56,17.46
5.4754,-2.2201,-7.927,-0.031765,-0.0058032,0.018326,-42.9,4.5,17.52
5.4073,-2.2882,-7.9134,-0.032376,-0.011606,0.012523,-42.96,4.56,17.58
5.5162,-2.2065,-7.8998,-0.033292,0.010079,0.011606,-42.9,4.5,17.64
5.489,-2.2474,-7.9815,-0.033292,0.0061087,0.010079,-42.84,4.32,17.76
5.5299,-2.2746,-7.8589,-0.035125,-0.0012217,0.01405,-42.78,4.26,17.64
5.4209,-2.3427,-7.927,-0.038485,0.000916,0.016799,-42.84,4.44,17.52
5.4618,-2.3291,-7.9951,-0.035125,0.000916,0.017104,-42.72,4.5,17.64
5.4481,-2.3427,-7.9679,-0.028711,0.0064141,0.0097738,-42.66,4.44,17.46
5.4754,-2.2746,-7.9134,-0.034208,0.0051924,0.019853,-42.72,4.62,17.52
5.5162,-2.2746,-7.8589,-0.043982,0.000916,0.016799,-42.72,4.56,17.58
5.4754,-2.261,-7.8862,-0.028711,-0.000305,0.013744,-42.72,4.5,17.64
5.4345,-2.3018,-7.8998,-0.030849,0.0036652,0.015577,-42.9,4.62,17.64
5.4754,-2.3427,-7.9679,-0.030543,0.009163,0.016799,-42.96,4.62,17.7
5.489,-2.3018,-7.9951,-0.033292,0.000916,0.013439,-42.96,4.56,17.76
5.4073,-2.2065,-7.8998,-0.03543,-0.0027489,0.013134,-42.9,4.56,17.64
5.4209,-2.2746,-7.8998,-0.037874,0.000305,0.019548,-42.9,4.62,17.64
5.4481,-2.2882,-7.927,-0.024435,0.0012217,0.018326,-42.96,4.68,17.58
5.4345,-2.3018,-7.9679,-0.029016,0.0015272,0.013744,-43.02,4.38,17.7
5.4481,-2.3427,-7.8726,-0.038179,0.0058032,0.016188,-42.96,4.5,17.58
5.4481,-2.2882,-7.8998,-0.030543,-0.0027489,0.015882,-43.14,4.56,17.64
5.4754,-2.2882,-7.8998,-0.032376,0.0033598,0.011301,-43.14,4.5,17.7
5.5162,-2.3291,-7.927,-0.033903,0.0015272,0.01405,-43.14,4.62,17.64
5.4754,-2.3155,-7.8181,-0.030543,0.0024435,0.010079,-43.02,4.8,17.64
5.5162,-2.2474,-7.9679,-0.038485,0.0024435,0.011301,-43.02,4.86,17.76
5.4481,-2.2882,-7.927,-0.032681,0.0039706,0.020464,-43.08,4.98,17.76
5.4345,-2.3291,-7.927,-0.032376,0.0024435,0.012523,-43.02,4.92,17.76
5.4073,-2.2201,-7.9407,-0.029322,0.0054978,0.014661,-43.02,4.86,17.7
5.5026,-2.3018,-7.8998,-0.033292,-0.000611,0.014355,-42.9,4.92,17.64
5.4481,-2.3155,-7.9815,-0.034819,0.0082467,0.018937,-42.9,4.86,17.52
5.5026,-2.2882,-7.9407,-0.031765,0.0073304,0.022602,-42.96,4.86,17.46
5.4618,-2.2882,-7.9679,-0.038485,0.000611,0.021075,-43.14,4.86,17.4
5.4209,-2.2474,-7.8453,-0.028405,0.0015272,0.015577,-43.14,4.86,17.4
5.4481,-2.2882,-7.9543,-0.028405,0.0015272,0.017104,-43.14,4.86,17.52
5.4754,-2.2882,-7.927,-0.039401,-0.0012217,0.01741,-43.14,4.74,17.52
5.5026,-2.3018,-7.8726,-0.032681,0.0039706,0.01405,-43.26,4.56,17.4
5.4754,-2.3018,-7.8998,-0.036957,0.0027489,0.014355,-43.26,4.38,17.34
5.4481,-2.2474,-7.9679,-0.040012,0.0018326,0.011301,-43.08,4.26,17.28
5.4481,-2.3155,-7.927,-0.038485,0.0012217,0.015882,-43.02,4.2,17.34
5.4754,-2.3018,-7.8998,-0.029627,-0.0012217,0.017715,-43.02,4.2,17.22
5.489,-2.3291,-7.8998,-0.029322,-0.0030543,0.012523,-43.14,4.14,17.22
5.4481,-2.3155,-7.927,-0.031765,-0.0015272,0.013439,-43.08,4.2,17.34
5.4754,-2.3699,-7.9134,-0.035125,-0.0039706,0.011912,-43.26,4.44,17.46
5.5162,-2.3155,-7.9951,-0.03146,-0.0076358,0.01069,-43.14,4.44,17.46
5.4481,-2.3155,-8.0088,-0.029322,0.000916,0.014355,-43.08,4.5,17.4
5.5162,-2.3155,-7.927,-0.031154,0.0064141,0.015272,-42.96,4.44,17.52
5.5707,-2.2474,-7.9407,-0.031154,0.0061087,0.020159,-42.96,4.5,17.58
5.4481,-2.261,-7.9679,-0.034208,-0.0097738,0.017715,-42.78,4.56,17.64
5.4754,-2.2882,-7.9407,-0.025962,-0.0058032,0.010996,-42.78,4.56,17.58
5.4481,-2.2882,-7.9679,-0.031765,-0.0012217,0.016799,-42.78,4.68,17.46
5.4481,-2.2746,-8.0088,-0.035736,-0.000611,0.0094684,-42.72,4.74,17.4
5.4754,-2.3018,-7.8317,-0.040012,-0.0079412,0.013134,-42.78,4.86,17.52
5.4754,-2.2746,-7.9951,-0.033598,-0.0076358,0.014661,-42.72,4.74,17.46
5.4754,-2.3155,-7.8726,-0.033903,0.002138,0.021075,-42.78,4.5,17.28
5.5162,-2.2882,-7.8589,-0.033292,0.0054978,0.015272,-42.54,4.44,17.28
5.4754,-2.2882,-7.8045,-0.028405,0.000916,0.014966,-42.66,4.44,17.28
5.4754,-2.2882,-7.8998,-0.031154,-0.0039706,0.012828,-42.6,4.38,17.1
5.4209,-2.2882,-7.8998,-0.029627,-0.0076358,0.013744,-42.48,4.56,16.98
5.4209,-2.3155,-7.8862,-0.032987,-0.0045815,0.010385,-42.6,4.56,16.92
5.4618,-2.3018,-7.8317,-0.027794,-0.002138,0.01405,-42.72,4.62,16.92
5.4481,-2.3699,-7.8726,-0.029627,-0.0058032,0.012828,-42.66,4.68,16.98
5.489,-2.3018,-7.8998,-0.034819,-0.0042761,0.012523,-42.72,4.62,16.98
5.4618,-2.3018,-7.9407,-0.029016,0.000611,0.014355,-42.9,4.56,16.92
5.4481,-2.2474,-7.9679,-0.025962,-0.000305,0.011301,-43.02,4.5,16.92
5.4618,-2.3018,-7.9951,-0.033903,-0.0027489,0.0097738,-43.14,4.68,16.86
5.4345,-2.3427,-7.9815,-0.037874,-0.000305,0.015272,-43.2,4.8,16.86
5.4754,-2.3291,-7.8998,-0.033598,-0.0036652,0.017104,-43.2,4.92,16.86
5.489,-2.2882,-7.8998,-0.03207,-0.0064141,0.012217,-43.2,4.92,16.74
5.4754,-2.2882,-7.9134,-0.037568,-0.0030543,0.015577,-43.2,4.98,16.8
5.489,-2.261,-7.9134,-0.030543,-0.0073304,0.013134,-43.32,4.92,16.74
5.4345,-2.2882,-7.8998,-0.034208,-0.0030543,0.015272,-43.32,4.86,16.68
5.5026,-2.2882,-7.8862,-0.032987,-0.0012217,0.01405,-43.32,4.92,16.68
5.4754,-2.2746,-7.9134,-0.029627,0.0027489,0.014355,-43.44,4.86,16.62
5.4481,-2.2746,-7.927,-0.03146,-0.002138,0.014661,-43.5,4.92,16.68
5.489,-2.2474,-7.9134,-0.028711,-0.000305,0.016188,-43.38,4.92,16.86
5.4618,-2.3155,-7.8589,-0.028711,-0.0058032,0.018631,-43.32,4.92,16.62
5.4754,-2.2882,-7.9134,-0.027794,-0.009163,0.015272,-43.2,4.86,16.8
5.4345,-2.3155,-7.8862,-0.033292,-0.0064141,0.014355,-43.14,4.8,16.68
5.4754,-2.3155,-7.927,-0.028405,0.0018326,0.011912,-43.02,4.62,16.8
5.5026,-2.3155,-7.9679,-0.037568,0.0030543,0.017715,-42.96,4.5,16.92
5.4481,-2.3291,-7.927,-0.033598,-0.000916,0.018937,-42.9,4.56,17.1
5.4754,-2.3155,-7.927,-0.033903,-0.0048869,0.017715,-43.02,4.56,17.22
5.4209,-2.2882,-7.9679,-0.038179,-0.0018326,0.014355,-43.14,4.44,17.4
5.4618,-2.3018,-7.8589,-0.032376,-0.0027489,0.017715,-43.2,4.44,17.4
5.4345,-2.3291,-8.0224,-0.037874,-0.0012217,0.014355,-43.02,4.44,17.46
5.4754,-2.2882,-7.9134,-0.040317,-0.0073304,0.018631,-42.9,4.5,17.46
5.4345,-2.3155,-7.9407,-0.0281,-0.0051924,0.014661,-42.84,4.5,17.52
5.4481,-2.2474,-7.927,-0.031765,-0.000916,0.018021,-42.84,4.5,17.46
5.5162,-2.3155,-7.9679,-0.029322,-0.0036652,0.016799,-42.78,4.5,17.4
5.4481,-2.2337,-7.9679,-0.033598,-0.0064141,0.013134,-42.78,4.38,17.58
5.4073,-2.2882,-7.927,-0.030238,-0.0036652,0.015272,-42.96,4.38,17.46
5.489,-2.3155,-7.9407,-0.029627,0.0033598,0.013439,-43.14,4.32,17.46
5.5435,-2.261,-7.9543,-0.036652,0.0015272,0.019548,-43.26,4.32,17.22
5.4073,-2.2474,-7.9679,-0.036957,-0.010079,0.015272,-43.08,4.32,17.28
5.3937,-2.2337,-7.9134,-0.03879,-0.0073304,0.017715,-43.02,4.5,17.34
5.4481,-2.3155,-7.9679,-0.032376,-0.0015272,0.016188,-42.96,4.44,17.46
5.489,-2.2882,-7.9407,-0.034208,-0.000305,0.012828,-43.08,4.44,17.34
5.4481,-2.3155,-7.9134,-0.036041,-0.009163,0.0085521,-43.14,4.32,17.28
5.3937,-2.2474,-7.9951,-0.029627,-0.0094684,0.014661,-43.08,4.38,17.22
5.4073,-2.261,-7.9679,-0.025962,0.0030543,0.013744,-43.08,4.38,17.34
5.4754,-2.2882,-7.8589,-0.029016,0.0061087,0.014661,-43.2,4.56,17.4
5.4073,-2.3155,-7.8726,-0.034208,-0.000305,0.01405,-43.32,4.68,17.34
5.5162,-2.2746,-7.8862,-0.041539,-0.0054978,0.016188,-43.26,4.74,17.22
5.4209,-2.2065,-7.8998,-0.031154,-0.0015272,0.012217,-43.14,4.86,17.34
5.4754,-2.2882,-7.9815,-0.036041,0.000916,0.0076358,-42.96,4.86,17.58
5.4481,-2.2882,-7.9407,-0.036346,0.000916,0.015882,-42.9,4.8,17.52
5.5026,-2.261,-7.927,-0.033292,-0.0048869,0.011912,-43.02,4.92,17.52
5.5571,-2.3155,-7.9679,-0.033598,-0.0039706,0.011912,-42.96,4.86,17.16
5.489,-2.3291,-7.8998,-0.035125,0.0018326,0.013439,-43.02,4.86,17.28
5.4754,-2.3155,-7.8453,-0.037568,-0.000305,0.012828,-42.84,4.98,17.34
5.5162,-2.2474,-7.9134,-0.040317,-0.0030543,0.018326,-43.02,5.04,17.16
5.4073,-2.2746,-7.9543,-0.035736,-0.000916,0.0097738,-43.02,5.1,17.16
5.4209,-2.261,-7.9543,-0.025045,-0.000611,0.013439,-42.9,4.92,17.22
5.4209,-2.3018,-7.8589,-0.036652,-0.0015272,0.018631,-42.9,5.04,17.16
5.4345,-2.3155,-7.8726,-0.03207,-0.000305,0.011912,-42.9,5.16,17.4
5.4481,-2.2474,-7.927,-0.032987,0.0027489,0.017104,-43.08,5.28,17.34
5.4481,-2.2882,-7.9679,-0.036652,-0.0042761,0.013439,-43.08,5.28,17.16
5.3937,-2.261,-7.8998,-0.037568,-0.0048869,0.016799,-43.26,5.34,17.34
5.4481,-2.2882,-7.9679,-0.035125,-0.0012217,0.01069,-43.14,5.22,17.28
5.4481,-2.2882,-7.9951,-0.031765,0.002138,0.017104,-43.32,5.1,17.52
5.4618,-2.2882,-7.9679,-0.030543,0.0039706,0.012523,-43.38,4.98,17.52
5.4754,-2.261,-7.9815,-0.038485,-0.0015272,0.01405,-43.44,4.86,17.46
5.489,-2.3018,-7.9543,-0.030849,-0.0018326,0.016799,-43.32,4.8,17.58
5.489,-2.261,-7.9679,-0.033903,0.0024435,0.016188,-43.32,4.74,17.52
5.5162,-2.3018,-7.9543,-0.031154,-0.0027489,0.012217,-43.44,4.68,17.46
5.5299,-2.261,-7.9543,-0.029016,-0.0039706,0.0067195,-43.5,4.5,17.58
5.4073,-2.3018,-7.9407,-0.034514,-0.002138,0.013439,-43.26,4.38,17.28
5.4754,-2.3427,-8.0088,-0.030543,0.0027489,0.013744,-43.32,4.38,17.28
5.4754,-2.2882,-7.9543,-0.030849,0.000305,0.013134,-43.26,4.32,17.34
5.4618,-2.3155,-7.9543,-0.029627,0.000305,0.016493,-43.08,4.26,17.1
5.5026,-2.3155,-7.9951,-0.034514,-0.002138,0.014355,-42.96,4.32,17.16
5.4481,-2.3018,-7.9679,-0.024129,-0.0027489,0.011606,-43.02,4.5,17.04
5.4754,-2.2882,-7.9134,-0.032376,0.000916,0.013439,-42.84,4.56,17.04
5.4754,-2.3155,-7.927,-0.041233,-0.0024435,0.014966,-42.9,4.56,17.1
5.4209,-2.3155,-7.9134,-0.029627,-0.002138,0.022907,-42.96,4.56,17.1
5.4481,-2.2882,-7.927,-0.033903,-0.000611,0.023213,-42.96,4.56,17.28
5.3937,-2.3427,-7.9543,-0.033598,0.0018326,0.013439,-42.84,4.68,17.4
5.5026,-2.3155,-7.927,-0.036346,-0.0012217,0.016188,-42.78,4.68,17.34
5.4481,-2.2474,-7.8998,-0.0281,-0.0073304,0.014966,-42.84,4.68,17.52
5.4209,-2.2882,-7.9679,-0.029016,0.0012217,0.017715,-42.9,4.68,17.52
5.4481,-2.3427,-7.8998,-0.026267,0.0030543,0.012217,-42.78,4.68,17.52
5.4481,-2.3155,-8.0088,-0.033903,-0.000611,0.012217,-42.84,4.74,17.64
5.4209,-2.3018,-7.9951,-0.034208,0.0015272,0.0073304,-42.84,4.68,17.76
5.4481,-2.3018,-7.9407,-0.027489,0.0039706,0.018021,-42.84,4.68,17.64
5.4345,-2.3427,-7.927,-0.03146,0.0045815,0.016799,-42.84,4.68,17.7
5.4618,-2.3155,-7.8998,-0.040012,-0.0048869,0.01069,-42.9,4.74,17.82
5.38,-2.2882,-7.9134,-0.030849,-0.0058032,0.013744,-42.9,4.74,17.82
5.3937,-2.2746,-7.927,-0.037263,0.01069,0.014355,-42.9,4.8,17.82
5.4481,-2.2746,-7.9543,-0.033292,0.0079412,0.016493,-42.9,4.74,17.82
5.4618,-2.2882,-7.927,-0.039095,-0.0012217,0.01405,-43.02,4.74,17.88
5.4618,-2.2746,-7.927,-0.027489,0.000305,0.013439,-43.14,4.8,17.76
5.4618,-2.2746,-7.8998,-0.026267,0.0033598,0.014355,-42.96,4.74,17.88
5.4481,-2.2882,-7.9134,-0.0281,0.0073304,0.010996,-43.14,4.8,17.88
5.5162,-2.3155,-7.9815,-0.032987,0.0085521,0.012217,-43.32,4.86,17.82
5.489,-2.2746,-7.9543,-0.036346,0.0054978,0.017104,-43.26,4.92,17.94
5.5162,-2.261,-7.9543,-0.032681,-0.0015272,0.017104,-43.32,4.92,17.82
5.5026,-2.2882,-7.9134,-0.034208,0.0015272,0.01069,-43.38,4.92,17.7
5.4754,-2.2474,-7.9134,-0.036652,0.0027489,0.013744,-43.26,4.98,17.7
5.489,-2.3836,-7.9951,-0.035125,0.000305,0.020769,-43.26,4.92,17.46
5.4481,-2.3155,-7.927,-0.038179,-0.002138,0.015272,-43.08,4.98,17.28
5.3937,-2.261,-7.8726,-0.037263,0.0042761,0.018326,-43.08,5.1,17.22
5.4481,-2.2882,-7.9951,-0.0281,0.0042761,0.014661,-42.96,5.04,17.22
5.4754,-2.3155,-7.8181,-0.032376,0.0082467,0.014661,-43.02,5.04,17.1
5.4618,-2.3155,-7.8998,-0.03543,0.0039706,0.018631,-42.96,5.04,17.1
5.4618,-2.3563,-7.8453,-0.026573,0.0058032,0.015577,-42.96,5.1,17.16
5.4754,-2.3427,-8.0088,-0.034514,0.0012217,0.014966,-42.78,5.1,17.1
5.4481,-2.3155,-7.9679,-0.03207,0.0015272,0.012217,-42.72,5.04,17.16
5.4754,-2.3155,-7.9407,-0.039095,0.0018326,0.018937,-42.66,5.04,17.1
5.489,-2.3155,-7.8998,-0.034819,0.0054978,0.018326,-42.66,5.1,17.16
5.4618,-2.2882,-7.927,-0.040012,0.0024435,0.016493,-42.72,5.16,17.1
5.4754,-2.2882,-7.927,-0.025351,0.002138,0.010996,-42.78,5.1,17.16
5.4618,-2.2337,-7.9679,-0.023213,0.0033598,0.014661,-42.72,4.98,17.22
5.4618,-2.3018,-7.8998,-0.03146,0.0012217,0.01405,-43.08,4.92,17.16
5.4618,-2.261,-7.8998,-0.033292,0.000305,0.019853,-43.14,4.92,17.22
5.4754,-2.2746,-7.9951,-0.03207,0.0033598,0.013744,-43.02,4.74,17.34
5.5299,-2.3427,-7.9815,-0.030849,-0.0015272,0.011912,-43.02,4.8,17.22
5.4754,-2.3427,-7.9951,-0.036346,-0.0015272,0.0097738,-42.96,4.74,17.22
5.489,-2.3018,-7.9134,-0.036346,0.0018326,0.016493,-43.02,4.74,17.28
5.489,-2.261,-7.9679,-0.029932,-0.002138,0.014966,-43.08,4.8,16.98
5.5026,-2.2882,-7.927,-0.025656,-0.000611,0.013439,-43.02,4.86,16.98
5.4754,-2.261,-7.8589,-0.033903,-0.000611,0.016493,-43.08,4.92,17.16
5.4754,-2.2882,-7.9679,-0.026878,-0.0039706,0.013439,-42.96,4.8,17.16
5.4754,-2.2882,-7.8726,-0.031765,-0.0030543,0.018326,-42.96,4.86,17.16
5.4618,-2.2882,-7.9951,-0.033598,-0.0048869,0.015882,-43.08,4.92,17.16
5.4754,-2.2337,-7.9679,-0.032376,-0.0015272,0.011301,-42.96,4.98,17.34
5.4754,-2.3018,-7.927,-0.032681,0.000916,0.012523,-42.96,5.04,17.34
5.5162,-2.2882,-7.8181,-0.033292,-0.0024435,0.018326,-42.9,5.16,17.4
5.4345,-2.2474,-8.0088,-0.028711,-0.002138,0.012828,-42.96,5.16,17.46
5.38,-2.2474,-7.8317,-0.029322,-0.0048869,0.011301,-42.9,5.1,17.46
5.4209,-2.3018,-7.9679,-0.024435,0.0067195,0.013744,-42.78,5.04,17.58
5.489,-2.3427,-7.9134,-0.031154,0.0058032,0.018021,-42.84,4.92,17.58
5.5435,-2.3155,-7.927,-0.033292,0.0033598,0.014355,-42.9,4.86,17.76
5.5299,-2.2474,-7.8589,-0.033903,-0.0058032,0.013439,-42.78,4.98,17.58
5.4754,-2.2474,-7.9679,-0.032376,-0.0061087,0.015577,-42.9,4.98,17.58
5.4481,-2.261,-7.9134,-0.035736,0.0058032,0.0094684,-42.96,4.86,17.58
5.5707,-2.2746,-7.9951,-0.03543,-0.0051924,0.012828,-42.96,4.92,17.52
5.5707,-2.261,-7.8998,-0.032681,-0.0073304,0.013439,-42.78,4.92,17.7
5.4073,-2.3427,-7.927,-0.033598,-0.0045815,0.024129,-42.78,4.98,17.64
5.4618,-2.3018,-7.9134,-0.030543,0.0067195,0.0085521,-42.84,4.92,17.58
5.4618,-2.3291,-7.9134,-0.035736,0.0067195,0.021991,-43.08,4.8,17.46
5.5162,-2.2474,-7.8998,-0.034514,0.0042761,0.01741,-43.14,4.86,17.4
5.5026,-2.2746,-7.9951,-0.028405,-0.0076358,0.013439,-43.2,4.92,17.28
5.4481,-2.3291,-7.9679,-0.023824,-0.0054978,0.014355,-43.14,4.92,17.34
5.5162,-2.2474,-7.9407,-0.035736,0.0064141,0.014355,-43.2,5.04,17.4
5.4754,-2.3155,-7.9679,-0.034208,-0.000611,0.015882,-43.32,4.92,17.46
5.4481,-2.2474,-7.8453,-0.029322,-0.011912,0.012217,-43.26,4.92,17.58
5.4618,-2.2882,-7.8998,-0.029932,-0.0030543,0.0076358,-43.2,5.1,17.52
5.5435,-2.2746,-7.9543,-0.036346,0.0012217,0.013134,-43.14,5.1,17.4
5.4754,-2.2882,-7.9679,-0.026878,0.0015272,0.0082467,-43.32,5.04,17.22
5.4754,-2.3291,-7.8998,-0.038485,-0.0033598,0.018021,-43.26,4.92,17.28
5.4481,-2.3155,-7.927,-0.033598,-0.0024435,0.011301,-43.26,4.86,17.22
5.4073,-2.2882,-7.8998,-0.039401,-0.0018326,0.018326,-43.2,4.86,17.16
5.4073,-2.3699,-7.9543,-0.034514,0.000305,0.016188,-43.2,4.8,17.16
5.3664,-2.2201,-7.9407,-0.032376,-0.002138,0.017104,-43.2,4.86,17.34
5.4754,-2.261,-7.9134,-0.031765,-0.002138,0.01405,-43.2,4.8,17.22
5.4618,-2.2882,-7.8726,-0.029932,-0.007025,0.015882,-43.26,4.74,17.1
5.4618,-2.2882,-7.8998,-0.032681,-0.0061087,0.016799,-43.26,4.74,17.16
5.4209,-2.2882,-7.8862,-0.033903,-0.0027489,0.016493,-43.08,4.62,17.16
5.4345,-2.2882,-7.9679,-0.032376,-0.0033598,0.020769,-43.02,4.5,17.16
5.4618,-2.3155,-7.9407,-0.03146,-0.0033598,0.013744,-43.14,4.5,17.04
5.489,-2.2882,-7.9134,-0.03543,-0.0012217,0.01069,-43.14,4.5,17.04
5.4209,-2.3291,-7.8998,-0.035736,-0.0051924,0.01069,-43.14,4.68,16.98
5.4754,-2.3563,-7.9134,-0.034208,-0.0030543,0.014355,-43.2,4.86,16.98
5.4481,-2.2882,-7.9543,-0.029932,-0.0012217,0.010079,-43.08,4.8,17.16
5.5435,-2.261,-7.9951,-0.034819,-0.000305,0.016493,-43.2,4.86,17.16
5.4618,-2.3018,-8.0224,-0.026573,-0.000611,0.011301,-43.26,4.98,17.16
5.5162,-2.3291,-7.9543,-0.032681,-0.0012217,0.015882,-43.26,4.86,17.22
5.4618,-2.2882,-7.927,-0.036346,0.000305,0.019853,-43.2,4.86,17.22
5.4481,-2.2337,-7.9134,-0.030543,-0.0045815,0.014966,-43.2,4.62,17.22
5.5026,-2.2882,-7.9134,-0.030238,-0.002138,0.016188,-43.5,4.74,17.16
5.4754,-2.2474,-7.9679,-0.037568,-0.0042761,0.011606,-43.5,4.8,17.16
5.5162,-2.3155,-7.9134,-0.027489,-0.000611,0.011912,-43.32,4.68,17.34
5.5026,-2.261,-7.9951,-0.02474,-0.0073304,0.0094684,-43.2,4.68,17.46
5.4345,-2.3699,-8.0632,-0.026878,-0.0030543,0.015272,-43.2,4.62,17.58
5.3937,-2.2882,-7.9407,-0.024435,0.0064141,0.016799,-43.2,4.44,17.58
5.5162,-2.3563,-7.927,-0.037874,0.016188,0.0088575,-43.08,4.62,17.58
5.6524,-2.261,-7.8317,-0.037568,0.0094684,0.022297,-42.9,4.68,17.58
5.4345,-2.2882,-7.8862,-0.039401,0.0027489,0.016188,-42.78,4.8,17.64
5.4481,-2.2474,-8.0088,-0.038179,0.0064141,0.014355,-42.66,4.8,17.58
5.5162,-2.3291,-7.9679,-0.032681,0.016493,0.010385,-42.72,4.68,17.64
5.4618,-2.2746,-7.8862,-0.034208,0.0097738,0.016493,-42.72,4.8,17.64
5.4073,-2.2882,-7.9543,-0.043066,-0.000305,0.014355,-42.6,4.74,17.76
5.4345,-2.2882,-7.9134,-0.031765,-0.0012217,0.017104,-42.6,4.74,17.88
5.4618,-2.2882,-7.927,-0.031154,0.0051924,0.010996,-42.6,4.8,17.88
5.4754,-2.3018,-7.8589,-0.030238,0.0088575,0.012217,-42.54,4.8,17.58
5.5026,-2.2474,-7.927,-0.033598,-0.0045815,0.01405,-42.54,4.74,17.64
5.5162,-2.2201,-7.9679,-0.030238,-0.0094684,0.009163,-42.48,4.86,17.58
5.489,-2.2474,-7.9543,-0.029932,-0.0048869,0.0079412,-42.66,4.92,17.58
5.489,-2.2882,-7.927,-0.036346,-0.0012217,0.01741,-42.72,4.92,17.52
5.5435,-2.3291,-8.0224,-0.040317,-0.0051924,0.017104,-42.78,4.74,17.46
5.5707,-2.2201,-7.9815,-0.037568,-0.01405,0.0097738,-42.84,4.68,17.34
5.4481,-2.2882,-7.927,-0.031765,-0.0076358,0.011606,-42.78,4.74,17.34
5.4481,-2.2882,-7.9407,-0.034514,0.000305,0.017715,-42.84,4.86,17.22
5.4754,-2.3155,-7.9679,-0.0281,-0.0027489,0.02138,-42.9,5.1,16.92
5.489,-2.3291,-7.9543,-0.029322,-0.0015272,0.020159,-42.96,5.16,16.98
5.4481,-2.2474,-7.8998,-0.039095,0.000611,0.015272,-42.9,5.22,17.04
5.4481,-2.3291,-7.9543,-0.033292,0.0039706,0.014661,-42.84,5.46,17.16
5.4481,-2.261,-7.8862,-0.037568,0.0033598,0.016799,-42.78,5.52,17.16
5.489,-2.261,-7.927,-0.030849,0.0073304,0.013439,-42.78,5.46,17.22
5.489,-2.2882,-7.8453,-0.028711,0.000916,0.015882,-42.72,5.28,17.22
5.4481,-2.261,-7.927,-0.029016,-0.0039706,0.015272,-42.78,5.28,17.22
5.489,-2.261,-7.9815,-0.036652,-0.0051924,0.012828,-42.84,5.34,17.22
5.4345,-2.3291,-7.927,-0.03207,0.0042761,0.017104,-42.84,5.28,17.1
5.5162,-2.2746,-7.9134,-0.03207,-0.0024435,0.015272,-42.84,5.28,17.04
5.4754,-2.2882,-7.9543,-0.029932,-0.0033598,0.012523,-42.72,5.16,17.22
5.4209,-2.2065,-7.927,-0.035736,0.0015272,0.020159,-42.66,5.16,17.16
5.4209,-2.2882,-7.9134,-0.03207,0.0018326,0.013134,-42.54,5.1,17.16
5.5162,-2.3699,-7.8998,-0.033598,-0.0030543,0.0073304,-42.54,4.92,16.92
5.4481,-2.2882,-7.9134,-0.036957,0.0015272,0.016188,-42.66,4.74,17.04
5.489,-2.261,-7.8589,-0.037263,-0.0036652,0.01405,-42.66,4.56,17.1
5.4754,-2.2882,-7.9679,-0.032376,0.000916,0.009163,-42.66,4.56,16.98
5.5162,-2.2882,-7.9679,-0.034514,-0.0030543,0.018937,-42.84,4.56,17.04
5.4209,-2.2746,-7.9407,-0.029627,-0.0036652,0.016799,-42.66,4.5,17.16
5.5162,-2.2882,-7.9407,-0.039095,0.0018326,0.014966,-42.66,4.38,17.28
5.4481,-2.3155,-7.9543,-0.032681,-0.0024435,0.015577,-42.78,4.44,17.4
5.4754,-2.3155,-7.9951,-0.026878,-0.0036652,0.016493,-42.72,4.5,17.34
5.5026,-2.3427,-7.927,-0.036957,0.000916,0.016799,-42.66,4.56,17.28
5.4481,-2.261,-7.9407,-0.03146,-0.0024435,0.010079,-42.66,4.5,17.52
5.4209,-2.438,-8.0224,-0.034819,0.002138,0.017715,-42.72,4.38,17.64
5.5026,-2.3427,-7.8998,-0.028711,0.0018326,0.021686,-42.72,4.38,17.82
5.5162,-2.2882,-7.927,-0.040012,-0.0024435,0.019853,-42.84,4.38,17.7
5.489,-2.2065,-7.927,-0.039095,-0.0097738,0.01405,-42.96,4.44,17.7
5.4481,-2.2746,-7.9679,-0.037874,-0.000611,0.011606,-42.78,4.44,17.88
5.5162,-2.3155,-7.9815,-0.031765,0.0064141,0.012523,-42.72,4.56,17.82
5.5026,-2.2882,-7.8998,-0.032681,0.0024435,0.010385,-42.84,4.62,17.88
5.4481,-2.2474,-7.8862,-0.034208,0.000916,0.015882,-42.9,4.68,17.82
5.4618,-2.2337,-7.8998,-0.029627,-0.0082467,0.016493,-42.78,4.62,17.76
5.3937,-2.3155,-7.8317,-0.028405,0.0027489,0.01741,-42.78,4.56,17.7
5.4618,-2.2882,-7.8589,-0.033292,0.0085521,0.015577,-42.84,4.44,17.64
5.5162,-2.261,-7.9679,-0.036957,0.0088575,0.018326,-42.78,4.56,17.52
5.5299,-2.3018,-7.927,-0.029016,-0.0024435,0.012523,-42.9,4.74,17.28
5.5299,-2.1929,-7.9679,-0.035736,-0.0045815,0.014355,-42.9,4.74,17.22
5.4481,-2.261,-7.8998,-0.028711,0.0042761,0.016188,-42.96,4.68,17.1
5.4754,-2.3427,-7.927,-0.036652,0.0033598,0.015882,-42.9,4.92,16.92
5.4618,-2.2201,-7.8998,-0.037263,-0.0076358,0.014966,-43.08,4.86,16.86
5.489,-2.3018,-7.927,-0.033903,-0.002138,0.014966,-43.14,4.8,16.8
5.4345,-2.2882,-7.8998,-0.032681,-0.000916,0.010079,-42.9,4.8,16.62
5.5435,-2.3155,-7.9679,-0.032681,0.0027489,0.017104,-42.78,4.8,16.44
5.5026,-2.3836,-7.9951,-0.029627,0.0051924,0.010996,-42.9,4.86,16.56
5.4754,-2.2474,-7.8998,-0.029627,0.0015272,0.019853,-42.96,5.04,16.74
5.4754,-2.2882,-7.9679,-0.034819,0.0030543,0.017715,-42.96,5.22,16.86
5.4754,-2.3427,-7.927,-0.034819,0.0024435,0.014355,-43.02,5.22,16.68
5.4481,-2.3155,-7.8589,-0.041844,0.0015272,0.017715,-42.9,5.28,16.68
5.5026,-2.2474,-7.9134,-0.034514,0.002138,0.017104,-42.9,5.28,16.74
5.4754,-2.3427,-7.8453,-0.03146,0.0030543,0.0082467,-42.84,5.28,16.8
5.4481,-2.2882,-7.9407,-0.03146,0.0064141,0.013439,-42.96,5.28,16.98
5.4481,-2.261,-7.9951,-0.038179,0.0048869,0.016493,-42.9,5.28,16.86
5.4618,-2.2746,-7.9407,-0.032681,0.0012217,0.011301,-42.9,5.34,16.92
5.489,-2.3155,-7.9407,-0.036041,0.007025,0.0088575,-42.96,5.28,16.92
5.4754,-2.3155,-7.9679,-0.036652,0.0012217,0.012828,-43.02,5.04,16.98
5.489,-2.3018,-7.927,-0.03146,0.0015272,0.018937,-42.9,5.1,16.98
5.4618,-2.2882,-7.8862,-0.030238,0.0042761,0.015882,-42.9,4.86,16.86
5.4754,-2.3427,-7.9543,-0.032376,0.0061087,0.01741,-42.9,4.68,16.92
5.4618,-2.3291,-7.8998,-0.032987,0.0042761,0.013744,-42.9,4.68,17.04
5.5162,-2.2882,-7.927,-0.027489,0.0027489,0.016188,-43.02,4.74,17.04
5.5162,-2.3427,-8.0496,-0.03543,0.0033598,0.016188,-43.2,4.56,16.98
5.4481,-2.3427,-7.9134,-0.040317,0.0018326,0.016188,-43.26,4.56,17.16
5.4345,-2.3291,-7.8453,-0.036652,0.0039706,0.0082467,-43.08,4.56,17.16
5.4481,-2.3018,-7.9543,-0.030543,0.0067195,0.014355,-43.14,4.68,17.22
5.4481,-2.2882,-7.927,-0.029932,0.000916,0.018937,-43.14,4.62,17.16
5.5026,-2.261,-7.8726,-0.034819,0.0054978,0.012217,-43.08,4.62,17.04
5.5026,-2.2882,-7.9407,-0.036346,0.010996,0.018631,-42.96,4.86,17.16
5.5162,-2.3155,-7.8998,-0.039095,0.0085521,0.016799,-42.96,4.8,17.1
5.5435,-2.2201,-7.9407,-0.038485,-0.0054978,0.024435,-43.08,4.92,17.16
5.4209,-2.2882,-7.9134,-0.035125,-0.0054978,0.020159,-43.02,5.04,17.04
5.4754,-2.2474,-7.8998,-0.03543,0.0030543,0.01405,-42.96,4.86,17.04
5.5026,-2.3155,-7.927,-0.03146,0.0061087,0.01069,-42.96,4.8,17.04
5.6252,-2.3155,-7.927,-0.03879,-0.0015272,0.016188,-42.72,4.86,17.1
5.4754,-2.2474,-7.9815,-0.037263,-0.0088575,0.014661,-42.6,4.74,17.04
5.4754,-2.261,-7.927,-0.030238,-0.0033598,0.01405,-42.54,4.5,17.22
5.5026,-2.2474,-7.9407,-0.027794,0.0036652,0.017104,-42.48,4.5,17.16
5.5162,-2.2746,-7.9679,-0.025351,0.0033598,0.014661,-42.42,4.44,17.28
5.5026,-2.3018,-7.9134,-0.03543,-0.000305,0.020159,-42.36,4.32,17.4
5.4481,-2.2746,-7.8589,-0.026573,-0.010996,0.011912,-42.3,4.44,17.46
5.489,-2.3018,-7.9679,-0.040012,-0.0015272,0.016188,-42.6,4.62,17.52
5.5435,-2.3155,-7.9407,-0.030543,0.0015272,0.019242,-42.66,4.68,17.58
5.4618,-2.3155,-7.927,-0.030849,-0.0082467,0.014966,-42.6,4.68,17.7
5.5162,-2.2746,-7.8453,-0.033903,-0.0036652,0.016188,-42.6,4.92,17.64
5.4481,-2.2474,-7.9951,-0.031765,0.002138,0.013134,-42.54,4.86,17.58
5.4481,-2.2882,-7.9951,-0.034514,-0.000916,0.011301,-42.48,4.86,17.52
5.4618,-2.3155,-7.927,-0.039706,-0.0048869,0.014355,-42.78,4.86,17.58
5.5026,-2.3155,-7.8726,-0.033598,-0.0033598,0.018631,-42.9,4.92,17.58
5.5435,-2.3155,-7.9543,-0.032987,-0.0030543,0.012828,-43.08,4.98,17.46
5.5026,-2.3155,-7.9679,-0.026267,-0.0036652,0.02138,-43.08,5.04,17.52
5.4481,-2.2882,-7.9679,-0.030238,-0.0061087,0.016188,-43.14,5.04,17.52
5.5162,-2.2746,-7.9407,-0.027184,-0.0039706,0.016493,-43.08,5.04,17.46
5.489,-2.3155,-7.8998,-0.036041,-0.0051924,0.01405,-43.02,4.92,17.52
5.4754,-2.3155,-7.8862,-0.030238,-0.0058032,0.010385,-43.08,4.92,17.46
5.4754,-2.2337,-8.0224,-0.034208,0.0012217,0.014355,-43.08,4.86,17.28
5.4345,-2.3018,-7.8726,-0.033903,0.0027489,0.015272,-43.08,4.86,17.4
5.489,-2.3155,-7.8998,-0.03146,-0.0012217,0.016188,-43.14,4.86,17.52
5.5026,-2.2746,-7.8862,-0.029322,-0.0015272,0.013134,-43.26,4.86,17.64
5.4754,-2.3018,-7.8317,-0.034514,-0.0061087,0.020769,-43.14,4.92,17.64
5.4754,-2.2882,-7.9407,-0.026267,-0.0051924,0.012828,-43.2,5.04,17.52
5.4073,-2.2337,-7.927,-0.037263,-0.0054978,0.018326,-43.14,5.1,17.4
5.5162,-2.3155,-7.9407,-0.029932,-0.0033598,0.012828,-43.02,5.04,17.46
5.5026,-2.2746,-7.9134,-0.033903,-0.0054978,0.015272,-43.02,4.98,17.52
5.4754,-2.2746,-7.927,-0.030849,-0.0039706,0.016493,-42.9,4.98,17.4
5.4481,-2.2882,-7.9815,-0.0281,-0.0030543,0.011912,-43.02,4.92,17.46
5.5026,-2.2746,-7.9407,-0.025351,-0.0042761,0.0051924,-42.78,4.86,17.52
5.4481,-2.2882,-7.8726,-0.026878,-0.002138,0.0082467,-42.72,4.74,17.64
5.5026,-2.3018,-7.8862,-0.030849,0.0027489,0.010996,-42.78,4.62,17.64
5.5707,-2.3291,-7.8589,-0.037263,-0.0036652,0.017715,-42.54,4.68,17.58
5.5026,-2.3155,-7.8998,-0.035125,-0.011301,0.016188,-42.24,4.56,17.58
5.4618,-2.2474,-7.8998,-0.029627,-0.011912,0.01405,-42.24,4.38,17.46
5.4481,-2.3018,-7.9134,-0.027794,0.0033598,0.014661,-42.3,4.56,17.28
5.5162,-2.3427,-7.927,-0.028405,0.0051924,0.011606,-42.3,4.5,17.28
5.489,-2.3291,-7.9679,-0.040928,-0.0027489,0.016188,-42.18,4.5,17.28
5.489,-2.2882,-7.9407,-0.03543,-0.0042761,0.014661,-42.24,4.74,16.92
5.4481,-2.3155,-7.8998,-0.026878,0.000916,0.01069,-42.3,4.8,16.98
5.4481,-2.3155,-7.9815,-0.029932,0.0048869,0.016799,-42.24,4.74,16.98
5.4754,-2.3155,-7.927,-0.032987,0.002138,0.016188,-42.24,4.56,17.16
5.4618,-2.261,-7.9679,-0.038485,-0.0039706,0.021991,-42.24,4.38,17.28
5.4754,-2.2882,-7.927,-0.029322,-0.0027489,0.013439,-42.36,4.68,17.34
5.4754,-2.3018,-7.8998,-0.025962,-0.0036652,0.015882,-42.48,4.74,17.46
5.4345,-2.3018,-7.8998,-0.031154,-0.0018326,0.013134,-42.48,4.68,17.76
5.5707,-2.2882,-7.9679,-0.034514,-0.0036652,0.018021,-42.6,4.86,17.64
5.4754,-2.261,-7.9951,-0.034208,0.000611,0.018631,-42.66,4.8,17.64
5.4618,-2.2474,-7.8998,-0.03146,0.0039706,0.014966,-42.78,4.92,17.58
5.4481,-2.1793,-7.927,-0.031154,-0.000611,0.021075,-42.72,4.8,17.58
5.4754,-2.2882,-7.8726,-0.030849,0.0039706,0.009163,-42.6,4.92,17.46
5.4618,-2.2746,-7.9679,-0.03207,-0.000611,0.013744,-42.78,5.04,17.46
5.4345,-2.3155,-7.8998,-0.032987,0.000305,0.0067195,-42.84,4.86,17.46
5.6252,-2.2882,-7.927,-0.033598,0.000305,0.018021,-42.72,4.92,17.28
5.4345,-2.261,-7.9679,-0.035125,-0.0012217,0.01069,-42.78,4.86,17.1
5.4754,-2.2882,-7.8998,-0.031154,0.000611,0.016493,-42.78,4.8,17.16
5.489,-2.2065,-7.9543,-0.032376,0.0048869,0.015272,-42.72,4.74,17.4
5.5026,-2.2882,-7.8998,-0.025351,-0.0027489,0.012828,-42.66,4.56,17.28
5.4345,-2.3291,-7.8317,-0.030543,-0.000305,0.012523,-42.72,4.5,17.4
5.4073,-2.3018,-7.9815,-0.033292,-0.0027489,0.0094684,-42.84,4.68,17.4
5.4209,-2.3155,-7.8862,-0.029627,-0.000611,0.013134,-42.9,4.62,17.28
5.4618,-2.2882,-7.927,-0.033598,-0.0033598,0.014661,-42.9,4.74,17.16
5.4481,-2.2882,-7.9134,-0.027794,0.000611,0.011301,-42.9,4.92,17.28
5.489,-2.2337,-7.9679,-0.034514,-0.0036652,0.014355,-42.84,5.1,17.46
5.4618,-2.3291,-7.9543,-0.023213,-0.000916,0.014966,-42.78,4.98,17.64
5.4754,-2.3155,-7.927,-0.031765,-0.000305,0.015577,-42.9,4.92,17.52
5.4209,-2.2474,-7.8862,-0.032681,-0.000611,0.01741,-42.84,4.92,17.46
5.4618,-2.261,-7.9543,-0.03543,-0.0015272,0.017715,-42.84,4.92,17.46
5.4754,-2.261,-7.927,-0.031154,0.0024435,0.012217,-42.9,4.86,17.52
5.489,-2.3018,-7.8726,-0.035736,0.0073304,0.01069,-42.96,4.98,17.7
5.4754,-2.3018,-7.9407,-0.031765,0.000305,0.025351,-43.02,4.68,17.76
5.4073,-2.3155,-7.8998,-0.027489,-0.0024435,0.01405,-42.96,4.74,17.82
5.4209,-2.2882,-7.927,-0.027794,0.007025,0.012828,-42.84,4.68,17.64
5.5299,-2.2201,-8.0632,-0.026878,0.0048869,0.017715,-42.84,4.56,17.52
5.5435,-2.2474,-7.9951,-0.036346,-0.0024435,0.016188,-42.78,4.68,17.34
5.4754,-2.2882,-7.9407,-0.036041,-0.0082467,0.013439,-42.72,4.68,17.4
5.4209,-2.2746,-7.9951,-0.030238,-0.0033598,0.010385,-42.6,4.62,17.4
5.4618,-2.2882,-7.927,-0.033598,0.0082467,0.014355,-42.48,4.56,17.46
5.5162,-2.2474,-7.9679,-0.030849,-0.002138,0.014661,-42.3,4.62,17.34
5.5026,-2.3155,-7.9679,-0.038179,-0.011301,0.016799,-42.24,4.5,17.28
5.3937,-2.2882,-7.9407,-0.032681,-0.0058032,0.017715,-42.24,4.56,17.34
5.489,-2.2882,-7.9679,-0.027794,-0.000611,0.0085521,-42.24,4.5,17.4
5.489,-2.3291,-7.8726,-0.029932,0.0067195,0.01405,-42.6,4.62,17.4
5.489,-2.3155,-7.9407,-0.039706,-0.000916,0.018021,-42.48,4.5,17.34
5.4481,-2.3155,-7.9679,-0.029322,-0.0076358,0.015882,-42.54,4.62,17.58
5.4345,-2.3018,-7.9543,-0.036652,-0.000305,0.018937,-42.54,4.56,17.64
5.5026,-2.3155,-7.9679,-0.026267,0.0015272,0.020464,-42.66,4.62,17.64
5.489,-2.3155,-7.927,-0.033598,-0.002138,0.021075,-42.84,4.68,17.46
5.4481,-2.3155,-7.8998,-0.040012,-0.0054978,0.020464,-42.84,4.68,17.58
5.4754,-2.3291,-7.8998,-0.036041,0.0012217,0.013439,-42.84,4.68,17.46
5.4618,-2.3155,-7.8998,-0.029932,0.0024435,0.014661,-42.72,4.56,17.1
5.4209,-2.2746,-7.9951,-0.037568,-0.0030543,0.018631,-42.54,4.62,17.28
5.4345,-2.2882,-7.9679,-0.027184,-0.0033598,0.015272,-42.54,4.68,17.28
5.4618,-2.3155,-7.927,-0.027794,-0.0018326,0.014355,-42.6,4.5,17.46
5.4481,-2.3291,-7.927,-0.039706,-0.000611,0.017104,-42.78,4.62,17.22
5.4073,-2.2746,-7.9679,-0.036346,-0.0054978,0.013134,-42.84,4.56,17.34
5.5026,-2.2882,-7.9407,-0.026573,0.000305,0.012217,-42.72,4.62,17.22
5.4481,-2.3018,-7.8317,-0.03543,0.002138,0.012217,-42.72,4.62,17.22
5.5026,-2.2746,-7.9407,-0.027794,0.002138,0.016799,-42.72,4.56,17.28
5.5026,-2.2746,-7.9815,-0.040317,0.0036652,0.018631,-42.6,4.68,17.28
5.4618,-2.2882,-7.9543,-0.033598,0.000305,0.016493,-42.72,4.56,17.22
5.4209,-2.3018,-7.927,-0.027184,0.0015272,0.015577,-42.78,4.62,17.04
5.4754,-2.3018,-7.9407,-0.039706,0.000611,0.018021,-42.48,4.62,16.74
5.4754,-2.3155,-7.9951,-0.036346,0.0024435,0.019853,-42.42,4.56,16.74
5.489,-2.2882,-7.9951,-0.027184,-0.0048869,0.016799,-42.36,4.56,16.8
5.4345,-2.3155,-7.9679,-0.032376,0.0030543,0.015272,-42.54,4.5,16.86
5.4618,-2.3155,-7.8317,-0.037263,0.0054978,0.013439,-42.42,4.38,16.8
5.5026,-2.2882,-7.8589,-0.036346,0.0015272,0.015882,-42.48,4.5,16.62
5.5162,-2.2882,-7.9679,-0.036957,0.002138,0.017715,-42.66,4.62,16.56
5.489,-2.3018,-7.8589,-0.029016,0.0048869,0.017715,-42.72,4.56,16.8
5.4754,-2.3155,-7.927,-0.037263,0.0039706,0.013744,-42.66,4.5,16.92
5.4754,-2.261,-7.8998,-0.031765,0.0033598,0.012217,-42.72,4.44,16.98
5.4481,-2.3291,-7.9815,-0.029322,0.0027489,0.011606,-42.72,4.56,17.28
5.4754,-2.2474,-7.9407,-0.033292,0.0027489,0.015882,-42.72,4.74,16.98
5.489,-2.3427,-7.9679,-0.033292,-0.0067195,0.016799,-42.72,4.74,17.04
5.4073,-2.3018,-7.9679,-0.026878,0.0061087,0.014966,-42.6,4.8,16.86
5.5571,-2.2474,-7.8998,-0.035736,0.014661,0.015882,-42.48,4.74,17.22
5.5162,-2.3018,-7.927,-0.039095,-0.0015272,0.018937,-42.3,4.68,17.1
5.4481,-2.2882,-7.9951,-0.041539,-0.0027489,0.018326,-42.48,4.74,17.1
5.4345,-2.2474,-7.9815,-0.035125,0.0058032,0.0082467,-42.54,4.86,17.04
5.5162,-2.2474,-7.8862,-0.026573,0.010079,0.012523,-42.54,4.98,17.16
5.5162,-2.2882,-7.8181,-0.037568,0.0051924,0.019548,-42.54,4.98,17.1
5.489,-2.2474,-7.8589,-0.037874,0.000611,0.014966,-42.72,4.86,17.4
5.4209,-2.2882,-7.8862,-0.032376,0.000305,0.011301,-42.84,4.68,17.4
5.4618,-2.2882,-7.927,-0.032681,0.0076358,0.018021,-42.9,4.68,17.52
5.4754,-2.2474,-7.8726,-0.032376,0.0073304,0.017715,-43.02,4.8,17.46
5.5026,-2.3018,-7.927,-0.032376,0.000611,0.012523,-43.02,4.92,17.52
5.4754,-2.2882,-7.9951,-0.028405,0.0018326,0.015577,-43.14,4.86,17.64
5.489,-2.2882,-7.9407,-0.028405,0.0045815,0.010385,-43.08,4.92,17.7
5.5299,-2.2746,-7.9134,-0.032681,0.0024435,0.020464,-43.2,4.8,17.7
5.4754,-2.3018,-7.8181,-0.03543,-0.0039706,0.020464,-43.38,4.74,17.64
5.5162,-2.2882,-8.0088,-0.036346,-0.000916,0.01405,-43.38,4.62,17.4
5.5026,-2.3155,-7.9815,-0.038179,-0.000305,0.022907,-43.32,4.68,17.34
5.4481,-2.2474,-7.9134,-0.032987,-0.000611,0.009163,-43.38,4.62,17.4
5.4481,-2.2746,-7.9134,-0.03543,-0.000916,0.013134,-43.32,4.62,17.4
5.489,-2.3155,-7.8726,-0.029932,-0.000305,0.016188,-43.26,4.62,17.4
5.489,-2.2746,-7.8862,-0.037263,-0.0012217,0.019548,-43.2,4.56,17.34
5.4754,-2.2882,-7.9134,-0.034208,-0.0024435,0.0079412,-43.14,4.56,17.34
5.4618,-2.2474,-7.9134,-0.029627,-0.0027489,0.01069,-42.96,4.5,17.22
5.4754,-2.3018,-7.9134,-0.03146,0.000305,0.0097738,-42.9,4.38,17.1
5.4754,-2.261,-7.8589,-0.034208,-0.002138,0.020464,-42.72,4.38,16.98
5.5299,-2.2882,-7.8726,-0.027794,-0.002138,0.010385,-42.6,4.44,16.86
5.4481,-2.3427,-7.8726,-0.033292,-0.002138,0.016799,-42.54,4.44,16.8
5.4754,-2.3291,-7.927,-0.036041,-0.0033598,0.012523,-42.42,4.62,16.92
5.4481,-2.2746,-7.8998,-0.026878,0.002138,0.014661,-42.54,4.62,16.8
5.5162,-2.261,-7.927,-0.030238,0.000916,0.020464,-42.48,4.74,16.74
5.4754,-2.2882,-8.0088,-0.025962,-0.0061087,0.014355,-42.6,4.5,16.68
5.4209,-2.2474,-7.8726,-0.029322,-0.000611,0.015577,-42.48,4.5,16.74
5.5299,-2.261,-7.9407,-0.027794,-0.000916,0.021075,-42.6,4.56,16.74
5.489,-2.2882,-8.0224,-0.031765,-0.0048869,0.017715,-42.6,4.68,16.8
5.5435,-2.3427,-8.0088,-0.038179,-0.0030543,0.014966,-42.66,4.68,16.68
5.4481,-2.261,-7.8998,-0.035736,-0.0015272,0.018021,-42.72,4.62,16.68
5.5026,-2.3155,-7.8589,-0.036346,-0.0027489,0.016188,-42.84,4.74,16.68
5.489,-2.3018,-7.927,-0.031154,-0.0036652,0.0082467,-42.84,4.8,16.74
5.4481,-2.3155,-7.9407,-0.03207,-0.0054978,0.01405,-42.9,4.86,16.98
5.4754,-2.3155,-7.8726,-0.026878,-0.0045815,0.015882,-42.96,4.92,16.92
5.4481,-2.3018,-7.8998,-0.025962,-0.0015272,0.015577,-42.96,4.86,17.04
5.5571,-2.3018,-7.8998,-0.032681,-0.0012217,0.016493,-43.08,4.98,17.28
5.489,-2.2882,-7.8998,-0.033598,-0.000611,0.015882,-43.02,4.98,17.16
5.4481,-2.3018,-7.927,-0.03879,-0.012828,0.01405,-43.08,5.1,17.28
5.4754,-2.261,-7.927,-0.029627,-0.0058032,0.01405,-43.02,5.16,17.22
5.4618,-2.3155,-7.8862,-0.032681,-0.000305,0.01405,-43.08,4.98,17.28
5.4754,-2.3155,-7.8998,-0.034514,-0.0018326,0.014966,-43.08,5.1,17.46
5.4754,-2.2882,-8.0224,-0.036346,-0.0051924,0.016493,-43.14,5.22,17.34
5.4209,-2.2474,-8.0632,-0.03207,-0.0073304,0.012828,-42.9,5.04,17.34
5.4481,-2.261,-7.9543,-0.034208,0.0030543,0.011606,-42.96,4.92,17.16
5.5026,-2.2882,-7.9407,-0.032681,-0.0015272,0.023213,-42.9,5.04,16.92
5.4345,-2.2474,-7.9815,-0.036346,-0.0015272,0.012217,-42.9,5.04,16.98
5.4481,-2.2882,-7.9543,-0.034208,-0.0048869,0.015882,-42.9,5.1,16.98
5.4481,-2.2474,-7.9679,-0.032376,-0.0036652,0.016493,-42.78,4.98,16.92
5.4481,-2.3018,-7.927,-0.032987,-0.0039706,0.015272,-42.66,4.98,16.98
5.489,-2.3155,-7.9815,-0.033903,-0.0042761,0.01405,-42.6,4.92,16.8
5.4481,-2.2882,-7.9407,-0.033903,-0.0082467,0.010385,-42.72,4.86,16.86
5.4618,-2.261,-7.9815,-0.03207,-0.0039706,0.015882,-42.78,4.86,16.86
5.4345,-2.2882,-7.9951,-0.035125,-0.000611,0.014966,-42.78,4.8,16.8
5.4754,-2.3155,-7.9543,-0.023518,-0.0051924,0.014966,-42.84,4.8,16.8
5.5162,-2.2882,-7.927,-0.034819,-0.0012217,0.020769,-42.84,4.92,16.92
5.4073,-2.2474,-7.8862,-0.034514,-0.0027489,0.014661,-43.08,5.1,17.1
5.4754,-2.3018,-7.9407,-0.037568,0.000305,0.015577,-43.08,4.98,17.16
5.4754,-2.2746,-7.8862,-0.031765,-0.0015272,0.01405,-43.08,4.86,17.28
5.4481,-2.2474,-7.9407,-0.037263,0.0042761,0.01405,-42.96,4.62,17.22
5.4073,-2.3291,-8.036,-0.029322,-0.0061087,0.018021,-42.9,4.62,17.16
5.489,-2.3018,-7.8998,-0.031154,-0.0054978,0.013134,-42.9,4.68,17.28
5.4481,-2.261,-7.927,-0.032681,0.000305,0.018021,-43.14,4.68,17.16
5.4209,-2.3018,-7.8998,-0.038179,0.000305,0.016799,-43.02,4.68,17.16
5.4754,-2.2882,-7.927,-0.036041,0.000611,0.020159,-42.96,4.74,17.1
5.5299,-2.3699,-7.9679,-0.03879,-0.0036652,0.020464,-42.96,4.68,17.16
5.4481,-2.2882,-7.8862,-0.028711,0.0030543,0.01405,-42.78,4.5,17.1
5.4754,-2.261,-7.9134,-0.03146,-0.0015272,0.016799,-42.78,4.56,17.16
5.38,-2.2882,-7.8998,-0.030849,-0.0048869,0.0085521,-42.78,4.56,17.22
5.4618,-2.2474,-7.8998,-0.032376,-0.0048869,0.013744,-42.96,4.62,17.16
5.4618,-2.2474,-7.927,-0.038485,0.002138,0.011606,-42.9,4.74,17.04
5.4754,-2.261,-7.927,-0.032376,-0.0012217,0.014355,-42.84,4.8,17.16
5.4618,-2.3155,-7.9951,-0.025351,-0.0045815,0.016188,-42.84,4.8,17.28
5.4481,-2.3155,-7.8998,-0.035736,-0.0027489,0.017715,-42.9,4.8,17.28
5.4481,-2.3155,-7.9407,-0.032376,-0.0058032,0.01069,-42.78,4.86,17.28
5.4754,-2.3155,-7.9679,-0.033292,-0.0012217,0.013439,-42.78,4.8,17.46
5.4481,-2.2474,-7.927,-0.025045,-0.0015272,0.016493,-42.72,4.8,17.34
5.4481,-2.3018,-7.927,-0.033598,0.0048869,0.015882,-42.66,5.04,17.46
5.5162,-2.3291,-7.9951,-0.029627,0.007025,0.016188,-42.84,5.16,17.4
5.4754,-2.3155,-8.0224,-0.034208,-0.0033598,0.0097738,-42.72,5.04,17.34
5.4754,-2.3427,-7.927,-0.021991,0.000916,0.0073304,-42.9,4.98,17.34
5.489,-2.2882,-7.8862,-0.03207,0.0085521,0.009163,-42.72,4.98,17.4
5.5571,-2.3427,-7.8589,-0.042761,0.0033598,0.016188,-42.6,5.1,17.64
5.4754,-2.3291,-7.9679,-0.035125,-0.0097738,0.018326,-42.66,5.22,17.52
5.38,-2.3291,-7.927,-0.03879,-0.0051924,0.012217,-42.6,5.22,17.46
5.4481,-2.2201,-7.927,-0.042761,0.0079412,0.018937,-42.72,5.28,17.4
5.489,-2.261,-7.8726,-0.040012,-0.0027489,0.014966,-42.66,5.1,17.4
5.489,-2.2474,-7.8181,-0.036957,-0.01069,0.016493,-42.66,5.22,17.34
5.38,-2.261,-7.9815,-0.029016,-0.0039706,0.01069,-42.72,5.28,17.34
5.4754,-2.3018,-7.8726,-0.02474,0.0033598,0.014355,-42.84,5.04,17.34
5.4754,-2.3155,-7.9407,-0.037263,0.0061087,0.0076358,-42.72,4.86,17.46
5.5026,-2.3155,-7.8998,-0.037568,0.0039706,0.014966,-42.84,4.98,17.52
5.489,-2.3018,-7.8998,-0.031765,-0.0054978,0.0085521,-42.6,4.92,17.4
5.4481,-2.3155,-7.9543,-0.036041,-0.0018326,0.012523,-42.6,4.86,17.4
5.5162,-2.3155,-7.9407,-0.03207,0.0015272,0.016799,-42.84,4.74,17.34
5.5299,-2.2201,-7.8862,-0.033598,-0.0061087,0.015272,-42.78,4.68,17.34
5.4754,-2.3155,-7.8998,-0.032681,-0.0042761,0.014661,-42.84,4.8,17.28
5.4209,-2.3155,-7.9679,-0.033598,-0.0018326,0.015272,-42.84,4.86,17.46
5.4073,-2.3155,-7.9134,-0.032987,0.0036652,0.015882,-42.96,4.8,17.4
5.4754,-2.261,-7.8726,-0.029627,0.0024435,0.012523,-42.96,4.8,17.4
5.4481,-2.2474,-7.9134,-0.038179,-0.0027489,0.012828,-43.02,4.68,17.4
5.489,-2.2882,-7.8862,-0.035125,-0.0033598,0.019548,-43.02,4.86,17.46
5.4481,-2.2882,-7.8862,-0.038485,0.0027489,0.014966,-43.02,4.98,17.52
5.4481,-2.261,-7.927,-0.035125,0.000305,0.017715,-43.02,4.98,17.4
5.4754,-2.2882,-7.9407,-0.040012,0.0015272,0.0076358,-43.02,5.04,17.34
5.4754,-2.2746,-7.9134,-0.037263,-0.0015272,0.015272,-43.14,5.04,17.28
5.4481,-2.3155,-7.8998,-0.026878,0.0012217,0.0088575,-43.2,4.98,17.28
5.5162,-2.2882,-7.9679,-0.035125,-0.0033598,0.016188,-43.14,4.92,17.34
5.4481,-2.2201,-7.8998,-0.036346,-0.0024435,0.022602,-43.14,4.8,17.22
5.4481,-2.2474,-7.8862,-0.032376,-0.0036652,0.013134,-43.2,4.8,17.16
5.4481,-2.2746,-7.8862,-0.025656,-0.0012217,0.01741,-43.2,4.86,17.34
5.5435,-2.261,-7.9679,-0.030238,-0.000305,0.013744,-43.14,4.74,17.28
5.489,-2.3155,-7.8862,-0.034819,-0.0012217,0.021075,-43.02,4.74,17.34
5.4481,-2.2882,-7.8589,-0.032376,0.0015272,0.01741,-42.96,4.68,17.22
5.4754,-2.2882,-7.9543,-0.039095,-0.0042761,0.019853,-42.84,4.62,17.22
5.4618,-2.261,-7.8998,-0.037263,-0.000305,0.017104,-42.72,4.68,17.22
5.4073,-2.2882,-7.927,-0.033598,0.0054978,0.019548,-42.72,4.68,17.34
5.5162,-2.261,-7.9815,-0.037874,0.0018326,0.012523,-42.72,4.8,17.34
5.4754,-2.3155,-7.8998,-0.030849,-0.0018326,0.018021,-42.72,4.86,17.46
5.4481,-2.3155,-7.927,-0.036346,0.000305,0.018631,-42.72,4.8,17.46
5.4481,-2.2474,-7.8998,-0.039095,0.007025,0.018021,-42.84,4.8,17.64
5.4754,-2.2474,-7.9134,-0.036346,0.0048869,0.0097738,-42.72,4.74,17.64
5.4754,-2.2882,-7.9543,-0.038179,0.0033598,0.017104,-42.84,4.74,17.52
5.489,-2.2746,-7.9543,-0.038485,0.0061087,0.022602,-42.84,4.74,17.46
5.4754,-2.3018,-7.9543,-0.029627,0.0018326,0.019242,-42.78,4.74,17.58
5.4618,-2.3155,-7.927,-0.036041,0.0039706,0.017715,-42.78,4.74,17.4
5.5299,-2.261,-7.9543,-0.029627,0.0048869,0.016188,-42.84,4.74,17.34
5.4754,-2.2474,-7.8589,-0.027184,-0.0054978,0.018326,-42.96,4.74,17.28
5.489,-2.3427,-7.9134,-0.029627,0.0012217,0.020464,-42.9,4.68,17.34
5.5026,-2.2201,-7.8998,-0.038485,0.01069,0.011912,-42.9,4.38,17.34
5.5435,-2.2474,-7.8862,-0.03207,0.0033598,0.01741,-42.78,4.44,17.4
5.4754,-2.2882,-7.9407,-0.040928,0.0012217,0.015577,-42.78,4.38,17.28
5.4481,-2.3155,-7.9679,-0.032376,0.0051924,0.016493,-42.78,4.5,17.1
5.4481,-2.3018,-7.8998,-0.025656,0.0051924,0.011912,-42.78,4.56,17.16
5.5026,-2.3018,-7.8862,-0.033292,0.0033598,0.015882,-42.66,4.56,17.28
5.4754,-2.3291,-7.9134,-0.032681,-0.0036652,0.014355,-42.66,4.44,17.34
5.4073,-2.261,-7.8998,-0.03543,0.010079,0.016188,-42.66,4.44,17.46
5.4754,-2.3018,-7.8589,-0.033292,0.0027489,0.012523,-42.66,4.32,17.46
5.4754,-2.3427,-7.8726,-0.041844,0.0030543,0.01741,-42.72,4.44,17.58
5.4754,-2.3155,-7.9679,-0.037874,0.0058032,0.016188,-42.66,4.5,17.58
5.4481,-2.2882,-7.9543,-0.036346,0.000916,0.012523,-42.66,4.62,17.64
5.4073,-2.3155,-7.8998,-0.029322,0.0045815,0.016188,-42.6,4.62,17.64
5.5162,-2.3155,-7.8589,-0.032987,0.0027489,0.016493,-42.6,4.68,17.64
5.4345,-2.2882,-7.9543,-0.041233,-0.0036652,0.021686,-42.54,4.86,17.52
5.3937,-2.2474,-7.8998,-0.032681,-0.0030543,0.020159,-42.42,4.8,17.46
5.4481,-2.2337,-7.9543,-0.037263,0.0033598,0.016799,-42.42,4.86,17.46
5.5026,-2.2337,-7.927,-0.028711,0.007025,0.011301,-42.36,4.74,17.52
5.5162,-2.261,-7.9543,-0.030849,0.0027489,0.013744,-42.42,4.92,17.46
5.4345,-2.3018,-7.8589,-0.032681,-0.0024435,0.018021,-42.54,5.04,17.16
5.5026,-2.261,-7.8998,-0.034514,0.0015272,0.010385,-42.66,5.1,17.22
5.489,-2.3018,-7.9407,-0.030238,0.0027489,0.014661,-42.66,5.16,17.04
5.4754,-2.2474,-7.9407,-0.0281,-0.0058032,0.0097738,-42.6,5.04,17.04
5.489,-2.2746,-7.9679,-0.045509,0.0012217,0.014966,-42.66,5.04,17.1
5.4618,-2.2882,-7.927,-0.027489,0.000305,0.015272,-42.72,4.98,17.04
5.5435,-2.2882,-7.9543,-0.032987,-0.0048869,0.01405,-42.84,5.04,16.98
5.4754,-2.2882,-7.927,-0.037263,-0.0061087,0.0094684,-42.9,4.98,17.1
5.5162,-2.2201,-8.0224,-0.032681,0.0027489,0.01069,-42.9,4.92,17.04
5.4345,-2.2474,-7.9951,-0.028711,-0.0039706,0.01405,-42.9,4.98,17.1
5.4345,-2.2474,-7.9951,-0.0281,-0.0042761,0.013134,-42.9,4.98,17.1
5.4481,-2.2882,-7.9679,-0.037874,-0.0018326,0.019242,-42.66,5.04,16.98
5.4481,-2.2882,-7.8045,-0.0281,-0.0033598,0.016799,-42.48,5.04,17.04
5.4754,-2.2882,-7.8453,-0.026267,-0.0015272,0.014661,-42.42,4.98,17.04
5.489,-2.3155,-7.9679,-0.031765,-0.0033598,0.01741,-42.48,4.92,17.22
5.489,-2.2882,-7.8589,-0.032987,-0.0024435,0.015272,-42.42,4.92,17.28
5.4209,-2.2474,-7.9679,-0.032987,-0.0045815,0.01405,-42.54,5.04,17.28
5.5435,-2.3291,-7.9407,-0.040928,-0.0015272,0.01405,-42.42,4.98,17.28
5.4481,-2.3155,-7.9543,-0.032987,0.000916,0.018937,-42.54,5.04,17.22
5.4209,-2.2882,-7.927,-0.034514,-0.002138,0.016493,-42.6,4.74,17.1
5.4754,-2.2882,-7.8998,-0.030849,-0.0054978,0.014661,-42.72,4.8,17.4
5.4754,-2.3155,-7.9679,-0.033598,-0.0061087,0.013134,-42.72,4.92,17.16
5.4754,-2.3427,-7.9679,-0.031765,-0.0012217,0.012523,-42.78,4.68,17.34
5.4618,-2.3018,-7.9679,-0.027489,-0.0064141,0.014661,-43.02,4.8,17.34
5.5026,-2.3155,-7.9951,-0.030849,-0.0058032,0.014355,-43.2,4.8,17.46
5.5026,-2.3291,-7.8589,-0.029932,0.0015272,0.019548,-43.2,4.68,17.46
5.5435,-2.2882,-7.9407,-0.036652,-0.0042761,0.015272,-43.2,4.8,17.52
5.4754,-2.2882,-7.9679,-0.040317,-0.011606,0.018937,-43.2,4.8,17.34
5.4073,-2.3155,-8.0224,-0.035736,-0.0045815,0.016493,-43.14,4.86,17.1
5.4481,-2.261,-7.9679,-0.027794,0.0015272,0.0051924,-43.14,4.74,17.04
5.5435,-2.1384,-7.927,-0.038179,-0.002138,0.015882,-42.96,4.56,17.1
5.489,-2.3018,-7.8589,-0.032681,-0.0082467,0.016188,-42.84,4.74,16.98
5.4481,-2.3427,-7.8589,-0.030849,-0.0094684,0.021686,-42.96,4.74,16.86
5.5299,-2.3155,-7.927,-0.034819,-0.0064141,0.017104,-42.9,4.62,16.98
5.5026,-2.3155,-7.9679,-0.025656,0.0042761,0.013439,-42.9,4.8,16.92
5.6252,-2.3155,-7.9543,-0.037874,-0.0036652,0.015272,-42.78,4.62,16.98
5.5162,-2.3155,-7.9407,-0.031154,-0.0048869,0.013439,-42.78,4.68,16.8
5.4345,-2.3563,-7.9679,-0.029322,-0.0079412,0.01069,-42.78,4.74,16.56
5.4209,-2.3018,-7.9815,-0.032376,-0.002138,0.013744,-42.72,4.68,16.5
5.4754,-2.3018,-7.8998,-0.034514,-0.0042761,0.015577,-42.6,4.74,16.68
5.5162,-2.3155,-7.8998,-0.033903,-0.0085521,0.01741,-42.6,4.56,16.8
5.4481,-2.3018,-7.9951,-0.030543,-0.0012217,0.015577,-42.54,4.74,16.86
5.4345,-2.3155,-7.927,-0.030238,0.0033598,0.015882,-42.66,4.92,16.8
5.4754,-2.3291,-7.9679,-0.028405,0.0036652,0.013744,-42.66,4.86,16.98
5.4618,-2.3427,-7.927,-0.038485,-0.0027489,0.016493,-42.48,4.8,16.92
5.4754,-2.261,-7.9407,-0.034514,-0.0024435,0.016188,-42.6,4.86,16.92
5.4618,-2.2882,-7.9679,-0.034208,-0.0012217,0.011912,-42.54,4.8,16.74
5.5162,-2.3427,-7.9951,-0.032987,-0.000916,0.016188,-42.6,4.86,16.74
5.5299,-2.2882,-7.927,-0.032681,-0.0033598,0.018631,-42.66,4.86,16.86
5.4481,-2.3155,-7.8726,-0.033598,0.0024435,0.017715,-42.66,4.8,17.16
5.5162,-2.2882,-7.927,-0.033903,-0.002138,0.021075,-42.78,4.92,17.16
5.4754,-2.3291,-7.927,-0.027489,0.0012217,0.022297,-42.84,5.04,17.16
5.4754,-2.2882,-8.036,-0.039095,-0.000305,0.017715,-42.96,5.04,17.22
5.489,-2.2882,-7.927,-0.032681,-0.0012217,0.019242,-43.08,4.92,17.22
5.489,-2.3018,-7.9134,-0.031765,0.0048869,0.014661,-43.14,4.92,17.22
5.4618,-2.2474,-7.9543,-0.027184,-0.0018326,0.017715,-43.02,4.86,17.16
5.4481,-2.3155,-7.927,-0.029016,-0.0042761,0.017104,-43.08,4.92,17.16
5.5026,-2.3427,-7.9407,-0.028711,-0.0015272,0.010385,-43.14,4.98,17.16
5.489,-2.2882,-7.8998,-0.036346,-0.0033598,0.016799,-43.14,4.92,17.28
5.489,-2.2882,-7.927,-0.025045,-0.0015272,0.011606,-43.02,4.86,17.34
5.4345,-2.2882,-7.927,-0.02474,0.000916,0.015272,-43.02,4.8,17.1
5.4754,-2.3155,-7.8317,-0.032681,0.0012217,0.018937,-43.02,4.8,17.1
5.4754,-2.2474,-7.8862,-0.027489,-0.0030543,0.016188,-43.02,4.68,16.92
5.4618,-2.261,-7.8589,-0.033598,-0.000611,0.014661,-42.9,4.68,17.04
5.5299,-2.3155,-7.8589,-0.03543,-0.000305,0.017715,-42.96,4.68,17.04
5.4073,-2.3155,-7.8589,-0.028711,0.0012217,0.020159,-42.96,4.74,16.98
5.4481,-2.3018,-8.0088,-0.041233,0.0027489,0.011912,-43.02,4.8,17.04
5.4481,-2.2474,-7.9679,-0.029322,0.0018326,0.019242,-43.02,4.74,17.22
5.4481,-2.2474,-7.9407,-0.032376,-0.0039706,0.010385,-42.9,4.8,17.22
5.5162,-2.3155,-8.0088,-0.031765,-0.000305,0.017104,-42.84,4.86,17.34
5.4345,-2.261,-8.036,-0.031765,-0.000916,0.016188,-42.78,4.86,17.34
5.4481,-2.3155,-7.9951,-0.028405,0.000305,0.016188,-42.9,4.74,17.28
5.5162,-2.3563,-7.8862,-0.036346,0.0082467,0.015882,-42.84,4.86,17.52
5.5162,-2.3018,-7.8317,-0.038485,-0.0088575,0.012523,-42.78,4.8,17.52
5.4073,-2.3291,-7.927,-0.03543,0.0012217,0.018937,-42.78,4.74,17.64
5.4073,-2.3291,-7.8998,-0.032376,0.0042761,0.015577,-42.84,4.74,17.58
5.4618,-2.3018,-7.9951,-0.041844,0.002138,0.010996,-42.9,4.86,17.58
5.4209,-2.2882,-7.8589,-0.033292,-0.0027489,0.012828,-42.96,4.92,17.64
5.4481,-2.3018,-7.9543,-0.0281,-0.0027489,0.018631,-42.96,4.92,17.46
5.4618,-2.3018,-7.8998,-0.024435,0.0033598,0.014355,-42.96,4.98,17.46
5.4618,-2.3155,-7.8998,-0.0281,0.0051924,0.012523,-42.96,5.04,17.46
5.4754,-2.3427,-7.927,-0.032376,0.0030543,0.015882,-43.14,4.98,17.28
5.4481,-2.3427,-7.9679,-0.036652,-0.0064141,0.017104,-43.32,4.92,17.16
5.4481,-2.3427,-7.9679,-0.033903,-0.0018326,0.014661,-43.26,5.04,17.16
5.4209,-2.2746,-7.9134,-0.036957,0.000916,0.01405,-43.32,5.1,17.16
5.489,-2.3155,-7.9134,-0.024129,0.0024435,0.012523,-43.44,5.16,17.04
5.489,-2.3018,-7.8589,-0.034208,0.0039706,0.018937,-43.5,5.28,16.92
5.5026,-2.2882,-8.0088,-0.029932,-0.0024435,0.014355,-43.44,5.16,16.92
5.4754,-2.3291,-7.9543,-0.034819,0.0039706,0.017104,-43.32,5.16,16.86
5.4618,-2.3155,-7.927,-0.029016,0.0015272,0.015577,-43.26,4.92,16.86
5.4073,-2.3018,-7.9134,-0.033903,-0.000611,0.010996,-43.14,5.04,16.86
5.4209,-2.2746,-7.927,-0.028711,0.000611,0.013439,-43.2,4.92,16.86
5.5162,-2.3155,-7.9815,-0.033292,0.0033598,0.02138,-43.26,4.86,16.68
5.4618,-2.3018,-7.8317,-0.029932,0.0045815,0.016799,-43.08,4.92,16.8
5.489,-2.2201,-7.8453,-0.033903,0.0067195,0.012828,-42.9,4.98,16.98
5.4754,-2.3155,-7.927,-0.03146,-0.0024435,0.009163,-42.9,5.1,17.04
5.4481,-2.2746,-7.927,-0.036957,0.0033598,0.014966,-42.78,5.1,16.98
5.489,-2.2474,-7.9951,-0.032376,0.0018326,0.020769,-42.78,5.16,16.98
5.4345,-2.2474,-7.8726,-0.033292,0.0039706,0.0097738,-42.78,5.04,17.1
5.4209,-2.2882,-7.9134,-0.032681,0.0064141,0.021075,-42.78,5.1,17.1
5.4754,-2.2882,-7.927,-0.035736,0.0027489,0.020159,-42.9,5.1,17.16
5.489,-2.2882,-7.8998,-0.030849,0.0061087,0.01741,-42.9,5.1,17.16
5.4481,-2.2882,-7.8589,-0.03146,0.0012217,0.016493,-42.9,4.98,17.16
5.489,-2.3018,-7.8726,-0.029627,0.0064141,0.0097738,-42.96,4.98,17.16
5.4481,-2.2882,-7.8998,-0.032987,0.002138,0.015272,-42.72,4.86,17.22
5.4618,-2.2882,-8.036,-0.030543,0.0061087,0.016493,-42.78,4.86,17.16
5.4345,-2.2882,-8.0224,-0.029627,0.0024435,0.01741,-42.78,4.92,17.16
5.4618,-2.3018,-7.9407,-0.034514,0.0054978,0.01069,-42.78,4.74,17.28
5.489,-2.261,-7.8998,-0.03543,0.0045815,0.015272,-42.66,4.68,17.34
5.5026,-2.3155,-7.9543,-0.036041,0.0061087,0.021075,-42.66,4.62,17.4
5.4618,-2.3155,-7.8998,-0.030849,-0.0012217,0.012217,-42.6,4.68,17.4
5.4073,-2.2882,-7.8998,-0.03146,0.0015272,0.0088575,-42.54,4.68,17.46
5.4754,-2.2746,-7.8998,-0.026267,0.0024435,0.01405,-42.48,4.56,17.4
5.5026,-2.3155,-7.8998,-0.025045,-0.000305,0.012217,-42.48,4.62,17.34
5.4481,-2.2882,-7.9679,-0.027794,0.0088575,0.013134,-42.54,4.56,17.4
5.489,-2.3699,-7.927,-0.027489,0.022907,0.016188,-42.78,4.68,17.46
5.5435,-2.3427,-7.927,-0.032987,0.012828,0.016188,-42.84,4.68,17.46
5.5435,-2.3018,-7.9679,-0.042761,-0.0051924,0.01741,-42.9,4.56,17.52
5.4073,-2.261,-7.9543,-0.034208,-0.0024435,0.014661,-42.96,4.44,17.46
5.4209,-2.2882,-8.0088,-0.029627,0.0036652,0.010385,-42.9,4.68,17.4
5.4754,-2.2746,-7.9679,-0.032376,0.0073304,0.015882,-43.08,4.68,17.28
5.4209,-2.2882,-7.9543,-0.029932,0.0027489,0.021991,-43.08,4.74,17.1
5.5026,-2.2474,-7.9134,-0.032681,-0.002138,0.014966,-43.2,4.74,16.98
5.489,-2.3018,-7.927,-0.038485,0.0036652,0.019548,-43.26,4.8,17.04
5.5162,-2.2474,-7.9134,-0.036346,0.0064141,0.017104,-43.2,4.74,16.98
5.5299,-2.2337,-7.8862,-0.0281,0.0054978,0.012523,-43.26,4.68,16.92
5.4481,-2.2474,-7.8862,-0.039706,-0.0012217,0.018631,-43.14,4.8,16.92
5.489,-2.2882,-7.8589,-0.021075,0.0039706,0.009163,-43.08,4.8,17.04
5.5162,-2.3018,-7.8998,-0.034819,0.000611,0.021991,-43.08,4.92,17.04
5.4754,-2.1929,-7.8181,-0.030849,0.0036652,0.01741,-43.26,4.92,16.98
5.4754,-2.2882,-7.8726,-0.035736,-0.0039706,0.018326,-43.2,4.86,17.04
5.5162,-2.2882,-7.8317,-0.035125,-0.0018326,0.018326,-43.14,4.68,16.98
5.489,-2.3018,-7.8998,-0.03207,0.0018326,0.0097738,-43.14,4.68,17.1
5.4345,-2.2882,-7.9951,-0.022907,0.0015272,0.015577,-43.08,4.56,17.34
5.5435,-2.2882,-7.9543,-0.033903,0.0051924,0.0067195,-42.96,4.5,17.34
5.5843,-2.3155,-7.8862,-0.033292,0.000611,0.022297,-42.9,4.5,17.4
5.4754,-2.3155,-7.8589,-0.032681,-0.0039706,0.013744,-42.9,4.56,17.46
5.4345,-2.261,-7.9951,-0.030849,-0.000611,0.012523,-42.84,4.68,17.58
5.5162,-2.2882,-7.9815,-0.03207,0.0042761,0.014355,-42.9,4.74,17.52
5.5435,-2.3427,-7.927,-0.034514,-0.000611,0.017104,-42.9,4.68,17.4
5.4754,-2.3427,-7.8998,-0.03543,-0.0061087,0.012523,-42.84,4.56,17.34
5.4618,-2.3155,-7.927,-0.022602,-0.0054978,0.01069,-42.78,4.62,17.46
5.489,-2.2882,-7.8726,-0.034208,0.000611,0.016799,-42.78,4.92,17.34
5.4345,-2.261,-7.8589,-0.03207,0.0027489,0.012828,-42.78,5.04,17.28
5.489,-2.261,-7.8726,-0.031765,-0.0012217,0.01741,-42.78,5.22,17.28
5.4618,-2.2882,-7.9543,-0.029627,-0.0061087,0.010996,-42.96,5.28,17.22
5.5026,-2.3155,-7.927,-0.03207,-0.0027489,0.012828,-42.9,5.28,17.28
5.4754,-2.2746,-7.9543,-0.027184,0.002138,0.012523,-42.9,5.28,17.28
5.3528,-2.2746,-7.9679,-0.037263,-0.0015272,0.012217,-42.96,5.34,17.1
5.5026,-2.261,-7.8726,-0.038179,-0.0051924,0.017104,-43.08,5.28,17.04
5.4481,-2.3155,-7.8998,-0.029322,-0.0061087,0.015577,-43.08,5.28,17.16
5.5162,-2.3155,-7.8998,-0.027794,-0.000611,0.010385,-43.14,5.28,17.04
5.5162,-2.261,-7.9407,-0.03146,-0.0054978,0.0094684,-43.02,5.4,17.1
5.4754,-2.2882,-7.9134,-0.027184,-0.0088575,0.015577,-43.14,5.34,17.22
5.4481,-2.2474,-7.927,-0.025045,-0.0054978,0.0094684,-43.02,5.22,17.28
5.5162,-2.3018,-7.9407,-0.034819,0.0030543,0.01405,-43.08,5.16,17.22
5.4618,-2.3291,-7.9951,-0.041233,-0.0024435,0.018021,-43.08,5.04,17.28
5.489,-2.261,-7.9407,-0.033903,-0.0030543,0.020159,-42.9,4.92,17.28
5.4345,-2.3155,-7.8589,-0.031154,-0.011301,0.0082467,-42.78,4.98,17.22
5.4618,-2.2474,-8.036,-0.040317,-0.0045815,0.012828,-42.66,4.86,17.16
5.489,-2.3155,-7.9407,-0.033903,0.0030543,0.013744,-42.66,4.86,17.34
5.4481,-2.3427,-8.0224,-0.034819,-0.01069,0.017715,-42.6,4.8,17.46
5.4618,-2.2746,-7.8317,-0.039706,-0.0094684,0.011301,-42.54,4.74,17.34
5.4618,-2.2746,-7.8589,-0.037263,-0.0045815,0.01741,-42.6,4.56,17.4
5.4754,-2.2882,-7.9543,-0.030238,0.0073304,0.014966,-42.72,4.56,17.46
5.489,-2.261,-7.8998,-0.03146,0.0027489,0.01405,-42.72,4.56,17.4
5.5162,-2.2882,-7.8998,-0.037568,-0.0064141,0.012523,-42.78,4.62,17.34
5.5162,-2.3155,-7.8998,-0.03207,-0.0036652,0.012217,-42.78,4.44,17.58
5.4754,-2.2746,-7.9679,-0.033903,0.002138,0.014355,-42.84,4.44,17.52
5.4618,-2.2746,-7.9679,-0.034819,-0.0012217,0.014966,-42.9,4.44,17.52
5.4073,-2.3155,-7.8998,-0.032681,-0.0018326,0.014661,-43.08,4.38,17.46
5.4754,-2.3018,-7.9543,-0.0281,-0.0064141,0.016188,-43.14,4.44,17.28
5.5162,-2.3155,-8.0224,-0.03207,0.0012217,0.016799,-43.08,4.38,17.28
5.5435,-2.2882,-7.8589,-0.034819,0.0018326,0.016799,-43.14,4.32,17.22
5.4209,-2.3155,-7.9679,-0.032681,-0.0054978,0.013439,-43.14,4.38,17.16
5.489,-2.3155,-7.9407,-0.032681,-0.0042761,0.013439,-43.08,4.5,17.22
5.5162,-2.2882,-7.8998,-0.034514,-0.0024435,0.019242,-43.14,4.5,17.4
5.489,-2.2882,-7.8317,-0.036041,-0.0030543,0.017715,-43.2,4.56,17.34
5.5162,-2.2882,-7.8589,-0.029016,-0.0045815,0.014355,-43.14,4.5,17.34
5.4754,-2.3155,-7.8589,-0.034208,-0.0033598,0.016493,-42.96,4.68,17.22
5.4618,-2.3427,-7.9951,-0.034819,-0.000611,0.016188,-43.02,4.62,17.22
5.4481,-2.3155,-7.8998,-0.022602,0.0012217,0.0073304,-43.2,4.68,17.1
5.4073,-2.3018,-7.9407,-0.029016,-0.000916,0.017715,-43.2,4.68,17.22
5.4754,-2.3699,-7.9134,-0.036957,-0.0027489,0.013439,-43.14,4.74,17.46
5.5162,-2.3018,-7.8726,-0.026573,-0.0039706,0.01069,-43.14,4.86,17.46
5.4345,-2.2474,-7.9679,-0.031154,-0.0064141,0.015272,-43.08,4.92,17.46
5.4754,-2.261,-7.9543,-0.037263,-0.0042761,0.017104,-43.2,5.04,17.52
5.4618,-2.3018,-8.0224,-0.035736,-0.0030543,0.018631,-43.14,5.04,17.46
5.3937,-2.2201,-7.9679,-0.034208,0.0015272,0.016799,-42.96,4.92,17.34
5.4754,-2.2746,-7.9134,-0.040928,-0.002138,0.019548,-42.84,4.92,17.1
5.4481,-2.3155,-8.0224,-0.036652,-0.0030543,0.020464,-42.78,4.86,17.16
5.4209,-2.3427,-7.9134,-0.033903,-0.002138,0.012828,-42.84,4.92,17.16
5.4073,-2.3155,-7.927,-0.027794,-0.000611,0.010996,-42.72,4.98,17.04
5.4618,-2.2746,-7.9951,-0.033903,-0.000611,0.012828,-42.6,5.04,17.22
5.489,-2.2882,-7.9407,-0.028405,-0.0033598,0.015272,-42.48,5.1,17.16
5.4754,-2.3155,-7.9543,-0.034819,0.0058032,0.015272,-42.48,5.04,16.92
5.5435,-2.3018,-7.9679,-0.035125,-0.0012217,0.018631,-42.54,5.04,16.98
5.5299,-2.2201,-7.9543,-0.03207,-0.0064141,0.014355,-42.48,5.04,16.86
5.4345,-2.2882,-7.9951,-0.04215,-0.0076358,0.013744,-42.3,4.98,16.86
5.4481,-2.2882,-8.0088,-0.027794,0.0058032,0.017104,-42.3,5.04,16.92
5.4754,-2.3155,-7.9679,-0.036957,0.0045815,0.020464,-42.42,5.04,16.92
5.4345,-2.3018,-7.9679,-0.033598,-0.0030543,0.013439,-42.54,4.92,17.04
5.3937,-2.2882,-7.927,-0.036652,-0.0048869,0.015577,-42.66,4.92,17.04
5.3937,-2.3291,-8.0224,-0.034208,0.000611,0.012523,-42.66,4.86,17.1
5.4481,-2.2882,-7.9815,-0.030543,0.007025,0.014966,-42.9,4.74,17.16
5.5026,-2.2746,-7.8317,-0.035736,0.0036652,0.01741,-42.9,4.74,17.16
5.4481,-2.3018,-7.8998,-0.032681,-0.0036652,0.016188,-43.08,4.62,17.16
5.4345,-2.2474,-7.9679,-0.031765,-0.0033598,0.013439,-43.08,4.74,17.4
5.4345,-2.3018,-7.9407,-0.033292,0.0036652,0.021991,-43.02,4.62,17.34
5.489,-2.3155,-7.927,-0.03207,0.0012217,0.018937,-43.14,4.68,17.34
5.4481,-2.2746,-7.9134,-0.040623,-0.0012217,0.020159,-43.26,4.62,17.46
5.4481,-2.2474,-7.9543,-0.04215,-0.0048869,0.01741,-43.26,4.56,17.4
5.4754,-2.2882,-7.9543,-0.032376,-0.0027489,0.016493,-43.32,4.56,17.46
5.5162,-2.2882,-7.8589,-0.030543,0.002138,0.014355,-43.32,4.68,17.52
5.4618,-2.2882,-7.8589,-0.029627,-0.000305,0.01069,-43.2,4.68,17.52
5.4481,-2.2746,-7.8726,-0.03146,-0.0027489,0.013744,-43.14,4.68,17.58
5.4618,-2.3155,-7.8453,-0.023518,-0.002138,0.01069,-43.08,4.68,17.46
5.489,-2.3427,-7.8726,-0.032987,-0.0012217,0.015577,-43.02,4.68,17.4
5.4345,-2.3291,-7.8998,-0.03543,-0.000916,0.018021,-42.96,4.74,17.28
5.5026,-2.261,-7.9407,-0.035125,-0.0018326,0.010385,-43.02,4.68,17.1
5.4754,-2.3427,-7.8998,-0.034208,-0.0061087,0.014355,-43.02,4.68,17.1
5.4618,-2.2746,-7.9679,-0.034208,-0.000611,0.011301,-42.9,4.56,16.98
5.4481,-2.1384,-7.9407,-0.030238,-0.0054978,0.016188,-42.84,4.74,16.92
5.4481,-2.2746,-7.8998,-0.032681,-0.000611,0.014355,-42.96,4.74,16.98
5.4481,-2.3155,-7.8998,-0.034514,-0.000611,0.01741,-43.02,4.8,17.04
5.4481,-2.3018,-7.8726,-0.034819,0.0018326,0.011301,-43.08,4.8,17.04
5.4481,-2.2882,-7.8998,-0.03146,0.0018326,0.014661,-43.08,4.8,16.98
5.4618,-2.2065,-7.9679,-0.027184,0.0067195,0.016799,-43.14,4.74,16.98
5.5162,-2.2746,-7.9134,-0.032681,0.0039706,0.014355,-43.32,4.92,17.04
5.4345,-2.2746,-7.9951,-0.031765,0.0033598,0.016799,-43.38,4.92,17.1
5.4754,-2.3155,-7.9407,-0.037568,0.0076358,0.015577,-43.38,4.92,17.22
5.489,-2.3018,-7.9134,-0.029322,0.0015272,0.013134,-43.32,4.86,17.28
5.4481,-2.3155,-7.9134,-0.040317,0.0030543,0.013744,-43.26,4.92,17.34
5.4754,-2.2882,-7.8998,-0.033598,0.0088575,0.015882,-43.26,4.98,17.34
5.4754,-2.3018,-7.9815,-0.02138,0.0024435,0.01741,-43.26,4.98,17.16
5.489,-2.2882,-8.0224,-0.033292,0.000611,0.019242,-43.26,5.1,17.04
5.4073,-2.3427,-7.8317,-0.029932,0.014661,0.015272,-43.08,5.04,16.98
5.489,-2.3155,-7.8862,-0.037263,0.013134,0.017715,-43.14,4.86,16.98
5.5299,-2.2337,-7.927,-0.034208,-0.0036652,0.014661,-43.02,4.86,16.92
5.4754,-2.3018,-7.9679,-0.037874,-0.0054978,0.017715,-42.96,4.86,17.04
5.5299,-2.2474,-7.9679,-0.036652,0.0048869,0.015882,-42.9,4.8,16.92
5.4481,-2.3018,-7.8589,-0.037874,0.011912,0.017104,-42.84,4.68,17.1
5.489,-2.2746,-7.8998,-0.033292,0.0073304,0.013134,-42.9,4.74,16.92
5.4209,-2.261,-7.9679,-0.025962,-0.0018326,0.01405,-42.96,4.74,17.04
5.489,-2.3291,-7.8726,-0.029322,0.0015272,0.010996,-42.96,4.62,16.86
5.4481,-2.2474,-7.8317,-0.030849,0.0097738,0.014966,-43.02,4.56,17.04
5.5162,-2.2882,-7.8862,-0.036652,0.0042761,0.018937,-43.08,4.56,17.4
5.4073,-2.2746,-7.8998,-0.029016,0.0012217,0.014966,-43.14,4.44,17.52
5.4209,-2.2882,-7.8589,-0.026573,0.0012217,0.014966,-43.2,4.44,17.58
5.4481,-2.2882,-7.8998,-0.024435,0.0076358,0.014661,-43.26,4.5,17.58
5.5162,-2.3291,-7.8589,-0.033598,0.0033598,0.015272,-43.32,4.56,17.7
5.489,-2.3155,-7.8862,-0.039095,-0.0054978,0.016188,-43.32,4.56,17.7
5.5162,-2.2746,-8.0224,-0.036346,-0.0012217,0.016188,-43.32,4.56,17.7
5.5571,-2.261,-7.8998,-0.030543,0.000611,0.016188,-43.26,4.62,17.64
5.5162,-2.261,-7.927,-0.03146,0.000305,0.0048869,-43.32,4.62,17.76
5.4481,-2.2882,-7.8862,-0.029016,0.000305,0.010385,-43.26,4.56,17.76
5.4754,-2.2882,-7.9134,-0.029932,0.0079412,0.010996,-43.26,4.74,17.82
5.4754,-2.2474,-7.8045,-0.036346,0.0079412,0.018326,-43.32,4.86,17.76
5.5026,-2.2882,-7.8998,-0.040012,-0.0012217,0.016493,-43.38,4.8,17.82
5.4754,-2.3155,-7.8181,-0.033598,0.0033598,0.019242,-43.26,4.86,17.64
5.5435,-2.261,-7.8998,-0.035736,0.0039706,0.014355,-43.14,4.74,17.76
5.489,-2.2746,-7.8726,-0.032376,-0.000305,0.013439,-43.2,4.8,17.76
5.4754,-2.2746,-7.9134,-0.027489,0.0015272,0.010385,-43.26,4.86,17.64
5.5299,-2.2474,-7.9679,-0.025045,0.0027489,0.01405,-43.14,4.8,17.58
5.5162,-2.2882,-7.8862,-0.039401,0.0051924,0.018937,-43.2,4.86,17.58
5.5571,-2.2201,-7.927,-0.033903,0.000305,0.015272,-43.2,4.92,17.64
5.489,-2.2882,-7.9679,-0.029627,0.000611,0.011912,-43.2,4.86,17.64
5.5435,-2.3018,-7.8998,-0.028405,0.0073304,0.016188,-43.14,4.86,17.58
5.5162,-2.3018,-7.927,-0.032987,0.000611,0.020464,-43.08,4.86,17.58
5.4754,-2.2882,-7.8726,-0.037263,0.000611,0.018021,-43.08,4.74,17.58
5.4618,-2.2882,-7.8317,-0.03543,-0.0030543,0.012217,-43.02,4.8,17.52
5.4754,-2.2474,-7.8589,-0.03146,0.0015272,0.014661,-43.14,4.68,17.4
5.4481,-2.2882,-7.927,-0.027489,-0.002138,0.012523,-43.14,4.74,17.34
5.4209,-2.261,-7.9134,-0.033903,-0.0042761,0.015882,-43.14,4.8,17.46
5.4481,-2.3018,-7.9407,-0.029932,0.000305,0.016799,-43.08,4.8,17.52
5.5571,-2.3155,-7.9679,-0.03146,0.0061087,0.01405,-43.14,4.92,17.46
5.5026,-2.2746,-7.927,-0.029932,-0.0015272,0.01405,-43.14,4.92,17.34
5.4618,-2.3836,-7.9134,-0.034819,-0.0076358,0.014355,-43.26,4.86,17.16
5.4754,-2.261,-8.0496,-0.038485,-0.0012217,0.013134,-43.2,4.92,17.28
5.5299,-2.2882,-7.9679,-0.029627,-0.0012217,0.01069,-43.26,4.74,17.34
5.4618,-2.3018,-7.8453,-0.029322,0.000305,0.01405,-43.38,4.8,17.28
5.3664,-2.3155,-7.927,-0.03207,-0.0042761,0.015882,-43.38,4.8,17.22
5.4481,-2.2746,-7.8862,-0.0281,-0.0018326,0.014966,-43.44,4.68,17.1
5.4754,-2.3018,-7.927,-0.027184,-0.0036652,0.010079,-43.44,4.92,17.28
5.489,-2.261,-7.9134,-0.028405,0.000611,0.010996,-43.44,4.86,17.16
5.5435,-2.2337,-7.8998,-0.029016,-0.0039706,0.011912,-43.38,4.86,17.1
5.5162,-2.2746,-7.927,-0.029932,-0.0033598,0.012523,-43.32,4.86,17.04
5.5026,-2.3018,-7.8998,-0.02474,-0.0015272,0.011606,-43.26,4.86,17.1
5.4481,-2.3427,-7.8726,-0.030543,-0.0012217,0.01069,-43.32,4.86,17.1
5.4618,-2.3155,-7.927,-0.031765,-0.0024435,0.014966,-43.26,4.98,17.1
5.5162,-2.1929,-7.9407,-0.0281,-0.0067195,0.01741,-43.32,5.1,16.92
5.5026,-2.2474,-7.9134,-0.037874,-0.0067195,0.012828,-43.26,5.16,16.92
5.5162,-2.3018,-7.927,-0.029016,-0.0015272,0.010385,-43.26,5.1,16.86
5.5435,-2.2882,-7.9543,-0.029932,-0.0024435,0.016493,-43.26,4.98,16.8
5.4618,-2.2882,-8.0224,-0.032681,-0.000916,0.016188,-43.26,4.98,16.98
5.5026,-2.2882,-7.8998,-0.032987,-0.007025,0.01741,-43.32,4.86,16.92
5.4754,-2.2882,-7.8998,-0.030849,-0.0051924,0.014661,-43.2,4.92,17.04
5.4754,-2.3291,-7.9407,-0.03207,-0.0012217,0.015882,-43.26,4.8,16.92
5.4754,-2.3155,-7.8998,-0.029932,-0.0033598,0.013439,-43.26,4.74,17.04
5.4618,-2.2882,-7.9134,-0.030543,-0.0067195,0.011301,-43.32,4.68,17.04
5.4073,-2.2474,-7.8589,-0.027794,-0.0018326,0.018021,-43.2,4.68,17.16
5.4754,-2.2882,-7.9407,-0.032376,0.0012217,0.017715,-43.2,4.56,17.16
5.5162,-2.2201,-7.8589,-0.030849,-0.002138,0.012217,-43.14,4.44,17.34
5.4073,-2.2882,-7.927,-0.035125,0.000916,0.019242,-43.2,4.44,17.22
5.4481,-2.2882,-7.9407,-0.033903,-0.0036652,0.018326,-43.08,4.38,17.28
5.4618,-2.2065,-7.8589,-0.033292,-0.0039706,0.011301,-43.14,4.62,17.34
5.5026,-2.3427,-7.8317,-0.028711,-0.0033598,0.013134,-42.96,4.8,17.4
5.5435,-2.2474,-7.8998,-0.027489,0.000305,0.013744,-42.96,4.68,17.34
5.4754,-2.3155,-7.8998,-0.031154,-0.0058032,0.01741,-42.84,4.74,17.28
5.4618,-2.3427,-7.8998,-0.034514,-0.0048869,0.013439,-42.9,4.74,17.1
5.38,-2.2746,-7.927,-0.03146,-0.0018326,0.019853,-43.02,4.92,17.16
5.5026,-2.261,-7.8317,-0.026573,-0.000305,0.010079,-42.9,4.92,17.22
5.4618,-2.2882,-7.927,-0.025962,-0.002138,0.016493,-42.9,5.1,17.34
5.4754,-2.2882,-7.9134,-0.029627,0.000916,0.011301,-42.84,5.16,17.34
5.4754,-2.3291,-7.927,-0.027184,0.0036652,0.020464,-42.84,5.16,17.34
5.4481,-2.2882,-7.8589,-0.03543,-0.0097738,0.016493,-42.84,5.16,17.4
5.4618,-2.261,-7.8998,-0.035125,-0.0082467,0.015882,-42.9,5.22,17.46
5.4073,-2.2882,-7.927,-0.038179,-0.0054978,0.01741,-42.9,5.1,17.28
5.4754,-2.2337,-7.8589,-0.034208,0.0018326,0.017715,-43.02,5.16,17.28
5.5435,-2.3155,-7.8998,-0.030543,-0.0045815,0.017715,-42.9,5.34,17.34
5.5299,-2.2882,-7.927,-0.030849,-0.0094684,0.013744,-42.96,5.34,17.28
5.4754,-2.2882,-8.0224,-0.035125,-0.0039706,0.01741,-42.96,5.46,17.46
5.5162,-2.2746,-7.9407,-0.030238,0.007025,0.0067195,-42.9,5.28,17.34
5.4345,-2.3018,-7.9951,-0.028405,0.0051924,0.014966,-43.08,5.28,17.28
5.5162,-2.2474,-7.9407,-0.026573,-0.0054978,0.014661,-43.14,5.28,16.98
5.4345,-2.261,-7.9815,-0.029627,-0.0033598,0.022907,-43.2,5.22,16.86
5.4209,-2.3291,-7.9679,-0.030543,0.0045815,0.0064141,-43.08,5.22,16.98
5.4481,-2.3155,-7.9134,-0.033903,-0.0033598,0.018631,-43.02,5.04,16.98
5.4073,-2.2201,-7.927,-0.032987,-0.0085521,0.02138,-43.08,5.1,16.8
5.4481,-2.2337,-7.8998,-0.03146,-0.0030543,0.013744,-43.02,5.04,16.8
5.4618,-2.2746,-7.927,-0.036346,0.000611,0.020464,-42.84,4.92,16.86
5.489,-2.2337,-7.8862,-0.027184,0.002138,0.011912,-42.84,4.98,16.74
5.4618,-2.261,-7.9543,-0.03543,0.000611,0.018021,-42.84,5.04,16.74
5.4754,-2.2746,-7.9679,-0.034819,-0.0051924,0.011912,-42.78,4.98,16.56
5.4754,-2.2746,-7.9134,-0.029627,-0.0073304,0.010385,-42.78,4.92,16.56
5.4481,-2.3155,-7.9407,-0.0281,-0.0027489,0.01741,-42.72,4.92,16.56
5.5026,-2.2746,-7.8181,-0.036957,0.0051924,0.01069,-42.72,4.8,16.5
5.4754,-2.2474,-7.927,-0.03207,0.000305,0.014966,-42.72,4.74,16.62
5.4481,-2.3155,-7.8998,-0.036041,-0.0015272,0.015882,-42.96,4.68,16.56
5.4345,-2.2882,-7.9543,-0.033292,-0.000916,0.011606,-42.96,4.74,16.44
5.4754,-2.2882,-7.8453,-0.037568,-0.0012217,0.01741,-42.84,4.92,16.56
5.4754,-2.3427,-8.0224,-0.031765,-0.0018326,0.011301,-42.9,4.92,16.62
5.4754,-2.3155,-7.9951,-0.032376,-0.0015272,0.013744,-43.02,4.92,16.44
5.4754,-2.3018,-7.9679,-0.03879,0.000305,0.015882,-43.14,4.86,16.74
5.4618,-2.3155,-7.8453,-0.036652,-0.0039706,0.014661,-43.2,4.86,16.74
5.4481,-2.2746,-7.927,-0.03146,0.002138,0.016799,-43.32,4.86,16.86
5.4754,-2.2746,-7.9134,-0.036041,0.0042761,0.019548,-43.32,5.04,16.86
5.5299,-2.2882,-7.9134,-0.040317,-0.0024435,0.015272,-43.08,5.04,16.92
5.4481,-2.3018,-7.9543,-0.033598,-0.000916,0.012217,-42.96,5.04,16.86
5.4209,-2.261,-7.8726,-0.028711,-0.000916,0.012828,-42.72,5.1,16.86
5.4618,-2.2474,-7.927,-0.031765,-0.0027489,0.014661,-42.54,5.1,17.04
5.4481,-2.261,-7.927,-0.03543,-0.000305,0.015272,-42.54,5.04,16.98
5.4345,-2.2882,-7.9134,-0.026573,-0.0036652,0.011301,-42.6,4.8,17.16
5.4618,-2.2882,-7.8998,-0.026878,-0.0039706,0.014966,-42.54,4.86,17.16
5.4481,-2.3155,-7.9134,-0.034819,0.0048869,0.013439,-42.6,4.86,17.34
5.4345,-2.3427,-7.9951,-0.037568,0.0033598,0.016799,-42.6,4.86,17.34
5.4754,-2.2746,-7.927,-0.037874,-0.0058032,0.016799,-42.6,4.86,17.4
5.3664,-2.2337,-7.927,-0.035125,-0.002138,0.018021,-42.6,4.86,17.34
5.3664,-2.3018,-7.8998,-0.029932,0.000611,0.023824,-42.66,4.74,17.4
5.5299,-2.2746,-7.9815,-0.035125,0.0082467,0.01405,-42.9,4.56,17.46
5.4481,-2.2746,-7.9134,-0.031765,-0.000305,0.016799,-42.96,4.56,17.46
5.4209,-2.261,-7.9407,-0.03207,-0.0045815,0.018021,-43.08,4.62,17.52
5.4481,-2.261,-7.9679,-0.034514,0.0073304,0.014661,-43.44,4.56,17.34
5.4481,-2.2474,-7.9543,-0.029322,0.007025,0.013134,-43.38,4.56,17.4
5.5571,-2.2746,-7.8998,-0.031154,0.0036652,0.010385,-43.32,4.56,17.22
5.4618,-2.261,-7.9543,-0.030238,0.002138,0.01741,-43.38,4.68,17.28
5.4618,-2.261,-7.8862,-0.03543,0.0012217,0.0094684,-43.26,4.74,17.22
5.4209,-2.2746,-7.9951,-0.028711,0.0094684,0.019242,-43.02,4.8,17.28
5.5435,-2.3155,-7.8453,-0.040012,0.0051924,0.021686,-42.9,4.68,17.28
5.4754,-2.2474,-7.9679,-0.032376,-0.010996,0.014355,-42.84,4.68,17.4
5.4481,-2.2474,-7.8998,-0.030849,0.0018326,0.014355,-42.84,4.8,17.4
5.4618,-2.3155,-8.0088,-0.030543,0.011912,0.016493,-42.72,4.92,17.22
5.5435,-2.2882,-7.9543,-0.032681,0.0039706,0.019853,-42.66,4.98,17.22
5.489,-2.2882,-7.8862,-0.041539,0.000305,0.013134,-42.54,4.98,17.28
5.5162,-2.3155,-7.927,-0.032681,0.009163,0.012523,-42.42,4.92,17.28
5.4073,-2.2882,-7.9134,-0.03207,0.0042761,0.016493,-42.36,4.92,17.22
5.489,-2.3155,-7.8998,-0.034208,0.000611,0.01741,-42.48,4.98,17.34
5.5026,-2.3155,-7.8998,-0.034208,0.0064141,0.013439,-42.48,4.98,17.4
5.4618,-2.2882,-7.927,-0.03146,0.0027489,0.01405,-42.3,4.74,17.34
5.5299,-2.2882,-7.9679,-0.027794,0.0015272,0.015882,-42.42,4.62,17.28
5.4754,-2.2746,-7.9679,-0.033292,0.000916,0.020464,-42.36,4.62,17.22
5.5299,-2.2882,-7.9407,-0.026878,0.0012217,0.011912,-42.36,4.5,17.22
5.5026,-2.2474,-7.927,-0.03207,0.0054978,0.016493,-42.42,4.5,17.16
5.5026,-2.2474,-7.927,-0.036957,0.0054978,0.015577,-42.42,4.5,17.16
5.489,-2.2337,-7.8862,-0.029627,0.0061087,0.019548,-42.48,4.38,17.16
5.4754,-2.2882,-7.927,-0.032376,0.0079412,0.015272,-42.54,4.5,17.22
5.4345,-2.3427,-7.9543,-0.034819,-0.0015272,0.014355,-42.78,4.38,17.04
5.5026,-2.3018,-7.8998,-0.034208,0.0027489,0.015272,-42.78,4.5,16.98
