Ax,Ay,Az,Gx,Gy,Gz,Mx,My,Mz
9.5206,-1.1441,-2.833,-0.030543,-0.01069,0.016799,-55.2,-14.16,33.3
9.4798,-1.1169,-2.6968,-0.022297,-0.0079412,0.022297,-55.14,-13.98,33.24
9.5751,-1.1713,-2.7241,-0.02474,-0.0033598,0.021991,-55.08,-13.92,33.3
9.5479,-1.1441,-2.6968,-0.030849,-0.0085521,0.028405,-55.2,-13.98,33.3
9.4389,-1.1713,-2.6696,-0.01741,-0.01069,0.022297,-55.2,-13.92,33.36
9.4798,-1.1986,-2.7377,-0.029016,-0.0088575,0.023213,-55.08,-13.8,33.42
9.507,-1.1441,-2.7649,-0.032376,-0.0088575,0.02474,-54.84,-13.74,33.6
9.4389,-1.1577,-2.6968,-0.03543,0.0064141,0.023518,-54.72,-13.74,33.54
9.4934,-1.1577,-2.8194,-0.034819,0.01069,0.020464,-54.78,-13.8,33.6
9.5342,-1.1713,-2.8058,-0.026267,0.018937,0.018631,-54.78,-13.74,33.6
9.6432,-1.1577,-2.7104,-0.032376,0.024129,0.028711,-54.72,-13.74,33.6
9.616,-1.1577,-2.656,-0.028405,0.000916,0.016799,-54.72,-13.68,33.66
9.507,-1.1169,-2.6423,-0.035125,-0.015882,0.031154,-54.72,-13.5,33.54
9.4525,-1.1169,-2.6832,-0.034208,-0.022602,0.024129,-54.72,-13.5,33.72
9.4117,-1.1713,-2.6968,-0.022907,-0.01741,0.016188,-54.66,-13.5,33.72
9.4934,-1.2395,-2.8603,-0.018021,0.0097738,0.011606,-54.6,-13.32,33.78
9.4934,-1.2122,-2.8194,-0.031154,0.029322,0.0061087,-54.54,-13.26,33.78
9.507,-1.2122,-2.7513,-0.029322,0.051618,-0.0039706,-54.78,-13.38,33.72
9.6432,-1.1713,-2.6968,-0.044288,0.043371,0.0085521,-54.96,-13.32,33.6
9.616,-1.2122,-2.6423,-0.039095,0.025962,0.01405,-54.96,-13.2,33.66
9.5751,-1.1577,-2.5334,-0.037263,0.0076358,0.0064141,-54.96,-13.08,33.66
9.4661,-1.1713,-2.7377,-0.037263,-0.012828,0.010079,-54.9,-13.32,33.72
9.4661,-1.1577,-2.7513,-0.036346,-0.0073304,0.0064141,-55.02,-13.2,33.78
9.5206,-1.1032,-2.6968,-0.043677,0.014661,0.0045815,-54.84,-13.32,33.78
9.5206,-1.1986,-2.6832,-0.042455,0.025962,-0.0033598,-54.9,-13.5,33.72
9.5615,-1.1713,-2.6151,-0.040928,0.029016,-0.000305,-54.96,-13.56,33.72
9.5751,-1.185,-2.6832,-0.032376,0.019853,0.012523,-54.96,-13.5,33.72
9.5342,-1.1986,-2.6696,-0.039706,0.018326,0.0067195,-54.96,-13.56,33.72
9.5615,-1.1169,-2.6696,-0.0281,0.018937,0.0042761,-55.02,-13.56,33.66
9.507,-1.1577,-2.6968,-0.036652,0.016493,0.0036652,-54.9,-13.44,33.6
9.5751,-1.1305,-2.656,-0.0281,0.018937,0.0039706,-55.02,-13.56,33.84
9.4389,-1.1032,-2.7649,-0.0281,0.020464,0.0097738,-55.14,-13.74,33.78
9.4389,-1.1032,-2.7104,-0.026573,0.037263,-0.0061087,-55.14,-13.68,33.78
9.507,-1.1169,-2.6696,-0.022602,0.03543,0.0018326,-55.32,-13.74,33.72
9.5751,-1.1032,-2.6832,-0.023824,0.040317,0.0076358,-55.2,-13.8,33.66
9.5751,-1.1713,-2.5879,-0.018326,0.040928,0.014661,-55.38,-13.92,33.78
9.5751,-1.2258,-2.6696,-0.037874,0.018937,0.01069,-55.44,-13.86,33.9
9.6432,-1.1986,-2.6287,-0.034514,0.010079,0.018631,-55.38,-13.8,33.78
9.5751,-1.1441,-2.5742,-0.037263,-0.000305,0.015272,-55.44,-13.8,33.78
9.5206,-1.1441,-2.5742,-0.036652,-0.0015272,0.014966,-55.56,-13.62,33.84
9.5342,-1.1305,-2.6968,-0.032376,-0.000916,0.0045815,-55.56,-13.74,33.84
9.5751,-1.1441,-2.7377,-0.032681,0.0033598,0.000611,-55.56,-13.86,33.9
9.6023,-1.1169,-2.7377,-0.037263,0.017715,0.0018326,-55.56,-13.68,33.84
9.5479,-1.1032,-2.656,-0.03879,0.021991,0.0051924,-55.44,-13.5,33.9
9.616,-1.1169,-2.7104,-0.036957,0.019242,0.011301,-55.56,-13.62,33.84
9.6023,-1.1577,-2.5198,-0.045509,-0.0067195,0.012523,-55.62,-13.56,33.84
9.5751,-1.1441,-2.6015,-0.051007,-0.016493,0.010385,-55.62,-13.68,33.78
9.5751,-1.1169,-2.6968,-0.041539,-0.018021,0.012523,-55.74,-13.5,33.66
9.5206,-1.2122,-2.6015,-0.04215,-0.002138,0.016493,-55.62,-13.44,33.66
9.5479,-1.2531,-2.6696,-0.04215,0.0051924,0.0079412,-55.68,-13.44,33.72
9.5751,-1.0896,-2.5742,-0.043677,0.009163,0.011606,-55.56,-13.5,33.72
9.5887,-1.1441,-2.6287,-0.043371,0.0033598,0.01741,-55.5,-13.56,33.6
9.6432,-1.185,-2.6015,-0.038179,-0.0058032,0.017104,-55.44,-13.56,33.48
9.6296,-1.0896,-2.6696,-0.043371,-0.000916,0.013439,-55.32,-13.32,33.48
9.507,-1.1577,-2.6015,-0.039401,-0.0015272,0.013439,-55.26,-13.5,33.42
9.5751,-1.1713,-2.6423,-0.039706,0.000305,0.015272,-55.2,-13.44,33.36
9.5479,-1.1032,-2.6015,-0.037874,-0.0024435,0.014355,-55.14,-13.5,33.48
9.6023,-1.1169,-2.6696,-0.034208,0.0088575,0.017104,-54.78,-13.56,33.72
9.6296,-1.1441,-2.6151,-0.029627,0.0088575,0.010385,-54.54,-13.62,33.66
9.5342,-1.0215,-2.6423,-0.03207,0.0033598,0.018326,-54.54,-13.68,33.6
9.5206,-1.1577,-2.6015,-0.034819,0.0033598,0.0094684,-54.54,-13.74,33.54
9.5751,-1.076,-2.547,-0.037568,-0.0054978,0.015577,-54.36,-13.68,33.6
9.5887,-1.0624,-2.6151,-0.041844,-0.011606,0.021075,-54.42,-13.98,33.72
9.5479,-1.1441,-2.6015,-0.04215,-0.0085521,0.013744,-54.42,-14.1,33.72
9.5751,-1.0215,-2.6832,-0.033292,-0.011606,0.013744,-54.36,-14.22,33.78
9.4934,-1.1577,-2.656,-0.03879,-0.0045815,0.012828,-54.54,-14.04,33.78
9.5479,-1.185,-2.6287,-0.03146,0.014661,0.000305,-54.66,-13.86,33.78
9.5751,-1.0896,-2.6423,-0.029932,0.032987,0.010385,-54.66,-14.04,33.66
9.507,-1.1169,-2.6015,-0.028405,0.029322,0.014661,-54.6,-14.34,33.72
9.5887,-1.0215,-2.6423,-0.033903,0.018631,0.016188,-54.54,-14.34,33.84
9.6023,-1.076,-2.6423,-0.032376,0.0042761,0.020159,-54.66,-14.4,33.84
9.5479,-1.0624,-2.656,-0.040623,0.0018326,0.020769,-54.72,-14.1,33.78
9.5479,-1.1169,-2.6423,-0.032681,0.0030543,0.01741,-54.66,-13.98,33.78
9.5887,-1.1169,-2.6015,-0.03879,0.000916,0.01405,-54.78,-14.1,33.54
9.5479,-1.0624,-2.5606,-0.032376,0.0036652,0.014966,-54.84,-14.04,33.42
9.5342,-1.1305,-2.6696,-0.040928,0.0024435,0.018631,-54.9,-14.1,33.36
9.5479,-1.1169,-2.5879,-0.034514,0.0079412,0.015882,-54.78,-14.16,33.54
9.5342,-1.1032,-2.656,-0.027184,0.0061087,0.01069,-54.84,-14.1,33.66
9.5751,-1.0488,-2.6423,-0.0281,0.0051924,0.012828,-54.96,-14.16,33.72
9.5887,-1.1713,-2.6423,-0.036346,0.0085521,0.022907,-55.2,-14.22,33.9
9.5615,-1.1305,-2.6015,-0.043371,0.0015272,0.020769,-55.26,-14.34,33.9
9.5615,-1.076,-2.5334,-0.033598,-0.0027489,0.011606,-55.38,-14.34,33.9
9.507,-1.1032,-2.6423,-0.033292,0.007025,0.019548,-55.38,-14.34,33.9
9.6296,-1.0896,-2.5606,-0.035125,0.015882,0.01405,-55.38,-14.22,33.96
9.6432,-1.0896,-2.547,-0.028711,0.007025,0.011912,-55.38,-14.4,34.08
9.5887,-1.0351,-2.6696,-0.028405,-0.011301,0.010385,-55.38,-14.4,33.96
9.5479,-1.1169,-2.5198,-0.031154,-0.024435,0.01741,-55.44,-14.22,33.84
9.5342,-1.1032,-2.656,-0.030238,-0.02138,0.018326,-55.26,-14.1,33.78
9.5615,-1.1032,-2.6015,-0.027184,-0.019853,0.014355,-55.32,-13.92,33.54
9.5479,-1.0624,-2.656,-0.034208,-0.015577,0.011301,-54.9,-13.92,33.3
9.5342,-1.0351,-2.6423,-0.030849,-0.018021,0.017104,-54.84,-13.98,33.42
9.4661,-1.076,-2.6696,-0.029932,-0.0094684,0.013744,-54.78,-13.8,33.42
9.5342,-1.1032,-2.7377,-0.030238,0.0082467,0.014661,-54.6,-13.92,33.6
9.4934,-1.1577,-2.6287,-0.03543,0.021991,0.020769,-54.54,-13.74,33.48
9.5206,-1.1713,-2.6423,-0.027489,0.027489,0.018326,-54.48,-13.62,33.54
9.5206,-1.0896,-2.6015,-0.025351,0.0097738,0.028711,-54.66,-13.68,33.66
9.5751,-1.0351,-2.6423,-0.034208,0.0036652,0.022602,-54.72,-13.8,33.6
9.5751,-1.0624,-2.6423,-0.030849,-0.0018326,0.021686,-54.66,-13.86,33.66
9.6296,-1.1441,-2.6015,-0.032681,-0.0048869,0.023518,-54.78,-13.74,33.6
9.5887,-1.1305,-2.6287,-0.033292,-0.0067195,0.023824,-54.78,-13.62,33.6
9.5342,-1.1169,-2.6015,-0.034819,-0.0067195,0.021075,-54.84,-13.74,33.6
9.5479,-1.1169,-2.6423,-0.030849,-0.0036652,0.026573,-54.96,-13.62,33.42
9.5887,-1.1577,-2.5879,-0.032376,-0.000611,0.019242,-55.02,-13.68,33.54
9.5342,-1.0896,-2.5742,-0.027184,-0.0061087,0.021686,-55.14,-13.86,33.36
9.5342,-1.0896,-2.6015,-0.024129,-0.0073304,0.021991,-55.08,-13.86,33.36
9.6023,-1.0896,-2.6287,-0.025045,-0.0079412,0.022602,-54.9,-14.1,33.36
9.5887,-1.1032,-2.7104,-0.025656,-0.013439,0.022907,-55.02,-13.86,33.42
9.507,-1.1169,-2.7104,-0.024129,-0.019853,0.022907,-55.08,-13.74,33.42
9.5479,-1.1169,-2.5742,-0.029016,-0.0067195,0.025656,-55.08,-13.86,33.48
9.5751,-1.1305,-2.6423,-0.019548,0.007025,0.024435,-55.14,-13.8,33.54
9.507,-1.1169,-2.5061,-0.03207,0.000916,0.027489,-55.02,-13.92,33.6
9.616,-1.185,-2.6696,-0.025351,-0.0042761,0.029932,-54.84,-13.86,33.54
9.5615,-1.185,-2.656,-0.030238,-0.020464,0.031765,-54.72,-13.8,33.6
9.5479,-1.1305,-2.6423,-0.036957,-0.025962,0.034819,-54.6,-13.86,33.72
9.4798,-1.1305,-2.7104,-0.027794,-0.025962,0.0281,-54.72,-13.68,33.84
9.5751,-1.0896,-2.6696,-0.03207,-0.022907,0.023824,-54.72,-13.86,33.96
9.5342,-1.1713,-2.6696,-0.02138,-0.014355,0.021991,-54.6,-13.92,33.78
9.5751,-1.1441,-2.6968,-0.017715,-0.0033598,0.014966,-54.72,-14.16,33.84
9.5479,-1.1577,-2.7104,-0.026878,0.012523,0.021075,-54.84,-14.16,33.66
9.6432,-1.1305,-2.7104,-0.029016,0.019853,0.023518,-54.9,-14.1,33.66
9.5887,-1.1713,-2.6696,-0.029932,0.0039706,0.024435,-54.9,-13.86,33.66
9.5615,-1.1441,-2.6015,-0.030849,-0.017715,0.032681,-54.96,-13.92,33.72
9.5479,-1.1986,-2.6423,-0.036041,-0.027489,0.033598,-55.08,-13.92,33.9
9.5479,-1.185,-2.6968,-0.034819,-0.028405,0.029932,-55.2,-13.8,33.96
9.5479,-1.1032,-2.6696,-0.025962,-0.018021,0.024129,-55.08,-13.92,33.9
9.5342,-1.1441,-2.7104,-0.027184,0.0027489,0.021991,-55.32,-13.8,33.96
9.4798,-1.1577,-2.6015,-0.025045,0.012828,0.025656,-55.2,-13.68,33.96
9.5479,-1.0896,-2.6423,-0.029627,0.0061087,0.018631,-55.14,-13.44,33.72
9.507,-1.185,-2.6151,-0.029016,-0.0045815,0.025962,-55.02,-13.5,33.72
9.5615,-1.1713,-2.6423,-0.036957,-0.010079,0.023518,-54.96,-13.74,33.72
9.5206,-1.1169,-2.656,-0.039095,-0.011912,0.020464,-55.14,-13.68,33.54
9.5479,-1.185,-2.7649,-0.029627,-0.011606,0.028405,-55.26,-13.56,33.54
9.507,-1.185,-2.7377,-0.026573,-0.0012217,0.030238,-55.14,-13.8,33.18
9.4934,-1.2258,-2.7513,-0.026878,0.0015272,0.027794,-55.32,-13.68,33.18
9.5479,-1.2258,-2.7377,-0.026878,-0.0033598,0.02138,-54.96,-13.56,33.24
9.4798,-1.2531,-2.6287,-0.020769,0.014661,0.025045,-55.02,-13.5,33.24
9.5615,-1.1032,-2.6423,-0.022297,0.01405,0.021075,-54.9,-13.56,33.54
9.5342,-1.2258,-2.6968,-0.022602,0.021075,0.020769,-55.14,-13.44,33.66
9.6023,-1.2258,-2.6968,-0.033903,0.01741,0.018631,-55.08,-13.38,33.72
9.507,-1.185,-2.6832,-0.033903,0.0085521,0.015272,-55.08,-13.56,33.78
9.5206,-1.185,-2.5742,-0.036957,0.0051924,0.0094684,-54.78,-13.56,33.66
9.507,-1.2395,-2.6696,-0.038485,0.011301,0.0033598,-54.72,-13.44,33.78
9.5479,-1.2258,-2.7377,-0.033292,0.030238,-0.0079412,-54.54,-13.56,33.6
9.6023,-1.1577,-2.6968,-0.042455,0.029932,-0.01069,-54.6,-13.38,33.6
9.4934,-1.1713,-2.6423,-0.040317,0.045815,0.0012217,-54.84,-13.38,33.42
9.6432,-1.1305,-2.5606,-0.041844,0.044899,-0.0015272,-54.84,-13.32,33.24
9.6296,-1.1441,-2.6015,-0.043677,0.03146,0.0085521,-54.9,-13.44,33.24
9.6023,-1.1577,-2.5742,-0.045204,0.0042761,0.012217,-55.26,-13.56,33.3
9.5342,-1.1441,-2.6287,-0.03879,-0.025045,0.013439,-55.26,-13.32,33.24
9.4389,-1.185,-2.6968,-0.030238,-0.011912,0.0079412,-55.32,-13.26,33.24
9.507,-1.2122,-2.7377,-0.027794,0.015272,0.0045815,-55.44,-13.26,33.12
9.5887,-1.2258,-2.6423,-0.024129,0.03543,0.0030543,-55.44,-13.32,33.54
9.5751,-1.1713,-2.7241,-0.031154,0.038179,0.007025,-55.56,-13.56,33.54
9.507,-1.1441,-2.6696,-0.029932,0.035736,0.0030543,-55.38,-13.5,33.42
9.5479,-1.1169,-2.6832,-0.032376,0.03146,0.0094684,-55.38,-13.62,33.66
9.6023,-1.1577,-2.6015,-0.038179,0.020769,0.0079412,-55.32,-13.68,33.78
9.5615,-1.1577,-2.5742,-0.032987,0.020159,0.010996,-55.08,-13.68,33.72
9.5479,-1.1032,-2.6696,-0.036652,0.01741,0.0079412,-55.02,-13.74,33.66
9.6023,-1.1169,-2.6015,-0.034819,0.026267,0.0061087,-54.96,-13.86,33.72
9.5479,-1.0896,-2.656,-0.025045,0.021991,0.000611,-54.9,-13.98,33.96
9.5342,-1.1441,-2.5606,-0.025656,0.021991,0.0097738,-54.84,-13.8,33.9
9.5751,-1.0896,-2.5742,-0.016493,0.036652,0.0030543,-54.9,-13.74,33.66
9.6432,-1.1032,-2.5879,-0.024435,0.030238,0.0042761,-55.08,-13.8,33.9
9.6296,-1.2258,-2.5742,-0.017715,0.026878,0.0097738,-55.02,-13.92,33.78
9.6023,-1.1577,-2.5198,-0.024129,0.02474,0.0088575,-55.08,-13.98,33.54
9.5751,-1.1169,-2.5334,-0.032376,0.014966,0.018326,-55.14,-13.98,33.72
9.5751,-1.0896,-2.5606,-0.036957,0.0076358,0.018631,-55.2,-13.98,33.66
9.5479,-1.1577,-2.547,-0.043371,0.0054978,0.017715,-55.32,-13.98,33.66
9.5342,-1.1713,-2.6015,-0.03879,0.011912,0.009163,-55.32,-14.04,33.54
9.5751,-1.0896,-2.6151,-0.035125,0.01741,0.0015272,-55.32,-13.92,33.48
9.507,-1.1169,-2.6287,-0.036041,0.036041,0.0015272,-55.44,-13.8,33.36
9.6023,-1.1032,-2.547,-0.029932,0.047037,0.0033598,-55.5,-13.86,33.36
9.616,-1.0624,-2.5061,-0.025045,0.043677,0.0024435,-55.56,-13.8,33.24
9.6432,-1.0896,-2.4517,-0.031765,0.030543,0.0064141,-55.62,-13.74,33.18
9.6296,-1.1169,-2.5879,-0.028405,0.0054978,0.012217,-55.68,-13.56,33.06
9.5615,-1.0624,-2.5334,-0.022907,-0.0027489,0.0094684,-55.68,-13.44,33.12
9.5751,-1.1169,-2.5334,-0.030238,0.0027489,0.010996,-55.8,-13.5,33.12
9.507,-1.0896,-2.5334,-0.030849,0.019853,0.0064141,-55.8,-13.5,33.0
9.5479,-1.1169,-2.5061,-0.041844,0.041233,0.0033598,-55.74,-13.38,32.94
9.6296,-1.0896,-2.5061,-0.027489,0.025045,0.0073304,-55.74,-13.5,33.06
9.6432,-1.076,-2.4789,-0.033292,0.018937,0.007025,-55.86,-13.44,33.18
9.5615,-1.0624,-2.4789,-0.030849,0.0051924,0.012217,-55.8,-13.44,33.18
9.6023,-1.0215,-2.547,-0.035125,-0.007025,0.011912,-55.74,-13.56,33.24
9.5615,-1.076,-2.5742,-0.023824,-0.012217,0.012217,-55.86,-13.62,33.36
9.5206,-1.1032,-2.5606,-0.032376,-0.000305,0.012523,-55.8,-13.56,33.3
9.5751,-1.1169,-2.547,-0.034819,-0.000916,0.021686,-55.74,-13.62,33.12
9.6023,-1.1305,-2.5198,-0.026878,0.0073304,0.013134,-55.86,-13.74,33.18
9.6023,-1.0624,-2.4517,-0.031154,0.014661,0.014355,-55.8,-13.8,33.12
9.6432,-1.1169,-2.5061,-0.03543,0.0058032,0.012523,-55.68,-13.68,33.12
9.6432,-1.1032,-2.5061,-0.03207,0.0058032,0.015272,-55.62,-13.8,33.18
9.616,-1.1169,-2.5061,-0.036652,0.0085521,0.016493,-55.68,-13.98,33.18
9.6432,-1.1169,-2.547,-0.039706,0.000611,0.014966,-55.74,-13.92,33.06
9.5751,-1.0896,-2.5606,-0.029932,-0.000916,0.016188,-55.74,-13.98,33.06
9.5751,-1.1169,-2.4925,-0.036346,-0.0054978,0.0097738,-55.8,-14.04,33.12
9.5751,-1.1032,-2.5606,-0.038179,-0.010996,0.015882,-55.92,-14.04,33.06
9.5479,-1.1032,-2.4925,-0.029322,-0.012217,0.012828,-55.98,-14.04,33.0
9.5206,-1.0896,-2.547,-0.036652,0.0076358,0.012523,-55.98,-14.16,33.12
9.5615,-1.1305,-2.4789,-0.026267,0.0079412,0.014966,-55.98,-14.1,33.3
9.6023,-1.076,-2.4789,-0.032681,0.007025,0.01069,-55.86,-14.16,33.36
9.5751,-1.1441,-2.5198,-0.03146,-0.0012217,0.015272,-55.92,-14.28,33.48
9.6432,-1.1169,-2.547,-0.033598,-0.013439,0.022602,-55.86,-14.22,33.42
9.5751,-1.1169,-2.4653,-0.045509,-0.012217,0.018326,-55.86,-13.98,33.36
9.5751,-1.0896,-2.5606,-0.034819,-0.017715,0.013134,-55.62,-14.04,33.36
9.5342,-1.1441,-2.4925,-0.041539,-0.019853,0.013439,-55.5,-14.1,33.36
9.6023,-1.1441,-2.547,-0.043371,-0.014355,0.023518,-55.44,-13.98,33.36
9.5751,-1.1169,-2.5061,-0.034208,-0.009163,0.015577,-55.44,-13.98,33.36
9.616,-1.0896,-2.547,-0.039095,-0.0094684,0.017104,-55.38,-13.92,33.42
9.5887,-1.1169,-2.547,-0.036957,-0.0012217,0.012828,-55.44,-13.92,33.36
9.6296,-1.0624,-2.6423,-0.032681,-0.0027489,0.01069,-55.38,-13.86,33.24
9.6296,-1.076,-2.4789,-0.036346,0.0061087,0.014355,-55.44,-13.8,33.24
9.616,-1.0896,-2.5061,-0.033598,-0.000916,0.0085521,-55.38,-13.86,33.3
9.6023,-1.1169,-2.6015,-0.03146,-0.0030543,0.01741,-55.44,-13.98,33.42
9.5751,-1.0351,-2.5879,-0.026267,-0.0073304,0.010385,-55.38,-14.04,33.48
9.5751,-1.076,-2.547,-0.025962,0.0094684,0.015882,-55.44,-13.98,33.48
9.616,-1.0896,-2.5334,-0.03146,0.0076358,0.02138,-55.5,-14.1,33.42
9.6432,-1.0351,-2.438,-0.033903,-0.0058032,0.02474,-55.56,-14.04,33.42
9.6432,-1.1305,-2.5061,-0.037568,-0.016799,0.019548,-55.5,-14.1,33.54
9.5615,-1.1169,-2.4517,-0.034514,-0.017715,0.023518,-55.32,-14.22,33.6
9.6023,-1.1169,-2.6151,-0.034208,-0.012828,0.016493,-55.32,-14.04,33.54
9.4798,-1.1305,-2.5198,-0.036652,-0.011606,0.015882,-55.26,-14.22,33.78
9.5342,-1.1032,-2.5879,-0.042761,0.0033598,0.026573,-55.2,-14.22,33.6
9.5751,-1.1169,-2.5742,-0.040928,0.016799,0.014355,-55.14,-14.22,33.54
9.5206,-1.1577,-2.5606,-0.032987,0.021991,0.014661,-55.14,-13.98,33.54
9.5887,-1.0624,-2.6015,-0.036346,0.032987,0.016188,-55.08,-14.04,33.6
9.6296,-1.1169,-2.5606,-0.033292,0.023824,0.016493,-55.02,-14.1,33.6
9.6704,-1.0896,-2.5198,-0.034208,0.012523,0.019548,-55.26,-14.16,33.66
9.6432,-1.0896,-2.547,-0.025351,-0.0042761,0.018326,-55.26,-14.16,33.78
9.6023,-1.0215,-2.547,-0.027184,-0.012828,0.026878,-55.26,-14.16,33.72
9.5479,-1.0896,-2.4925,-0.023824,-0.0088575,0.025351,-55.26,-14.22,33.72
9.6296,-1.0896,-2.5606,-0.028405,-0.0061087,0.029627,-55.5,-14.16,33.72
9.6432,-1.1169,-2.4517,-0.027794,-0.0058032,0.022907,-55.5,-14.34,33.72
9.6023,-1.1713,-2.5061,-0.028405,-0.0051924,0.023213,-55.38,-14.1,33.78
9.5751,-1.0896,-2.547,-0.025962,-0.018326,0.021991,-55.38,-14.1,33.84
9.616,-1.1305,-2.5742,-0.034514,-0.021075,0.020159,-55.26,-14.22,33.66
9.6432,-1.1305,-2.547,-0.038179,-0.02474,0.029627,-55.38,-14.28,33.72
9.5751,-1.1169,-2.4653,-0.035125,-0.026878,0.033292,-55.56,-14.16,33.6
9.5751,-1.1441,-2.5742,-0.036652,-0.022297,0.029016,-55.38,-14.04,33.66
9.616,-1.1169,-2.5334,-0.046426,-0.023824,0.029322,-55.32,-14.04,33.54
9.507,-1.1169,-2.5742,-0.029016,-0.027184,0.027184,-55.44,-13.92,33.48
9.5342,-1.185,-2.5198,-0.024435,-0.021075,0.021686,-55.56,-13.8,33.54
9.5479,-1.1713,-2.5879,-0.020159,-0.013134,0.030543,-55.62,-13.68,33.48
9.6023,-1.1169,-2.547,-0.019853,-0.011301,0.02474,-55.5,-13.74,33.42
9.5479,-1.1032,-2.5742,-0.030543,-0.000611,0.036346,-55.5,-13.68,33.48
9.6432,-1.185,-2.547,-0.02474,-0.016493,0.03207,-55.74,-13.8,33.36
9.6023,-1.1032,-2.5334,-0.039401,-0.024129,0.034208,-55.8,-13.8,33.42
9.5342,-1.185,-2.5061,-0.033903,-0.025045,0.032376,-55.8,-13.8,33.54
9.4798,-1.185,-2.547,-0.029322,-0.025656,0.032681,-55.68,-13.68,33.48
9.4934,-1.1986,-2.5334,-0.019548,-0.024129,0.023518,-55.5,-13.68,33.54
9.507,-1.1577,-2.6287,-0.017715,-0.0088575,0.022602,-55.56,-13.68,33.42
9.507,-1.1577,-2.6968,-0.025045,0.011912,0.010079,-55.62,-13.8,33.42
9.5479,-1.1305,-2.656,-0.021991,0.033598,0.016493,-55.56,-13.8,33.54
9.6568,-1.2258,-2.6015,-0.021991,0.032376,0.025962,-55.56,-13.92,33.36
9.6023,-1.1577,-2.4653,-0.026878,0.0061087,0.036346,-55.5,-14.04,33.3
9.6704,-1.1305,-2.5061,-0.027184,-0.020159,0.036957,-55.5,-13.98,33.3
9.5342,-1.185,-2.5606,-0.029627,-0.039095,0.038179,-55.5,-13.98,33.3
9.5615,-1.185,-2.5742,-0.033292,-0.031765,0.030238,-55.56,-13.98,33.3
9.5206,-1.185,-2.6423,-0.020464,-0.025351,0.030238,-55.44,-14.04,33.3
9.507,-1.1986,-2.6287,-0.025351,-0.010385,0.025045,-55.5,-14.16,33.18
9.5479,-1.1305,-2.6423,-0.025045,-0.0079412,0.029016,-55.62,-13.98,33.24
9.5342,-1.2258,-2.656,-0.024435,-0.0073304,0.034819,-55.8,-14.04,33.18
9.5887,-1.1713,-2.6015,-0.027184,-0.011606,0.029932,-55.68,-14.04,33.24
9.6023,-1.2531,-2.656,-0.033598,-0.018631,0.028405,-55.8,-13.98,33.36
9.5751,-1.2258,-2.6423,-0.032987,-0.018937,0.024435,-55.8,-13.86,33.36
9.5206,-1.2258,-2.6423,-0.042761,-0.014661,0.021991,-55.92,-13.8,33.42
9.5479,-1.2531,-2.6696,-0.040317,0.0024435,0.013744,-55.98,-13.68,33.54
9.5479,-1.1986,-2.6696,-0.036041,0.012523,0.009163,-55.92,-13.74,33.48
9.5479,-1.185,-2.5742,-0.043982,0.025962,0.0064141,-55.8,-13.74,33.42
9.5479,-1.1169,-2.5606,-0.031765,0.025962,0.0042761,-55.86,-13.68,33.36
9.6432,-1.1441,-2.6832,-0.030543,0.018937,0.013134,-55.86,-13.68,33.36
9.616,-1.1713,-2.6015,-0.036652,0.0076358,0.015577,-56.04,-13.62,33.36
9.6432,-1.2531,-2.6423,-0.033903,-0.012828,0.016799,-55.98,-13.86,33.36
9.4934,-1.1577,-2.656,-0.034514,-0.018937,0.014355,-55.92,-13.74,33.36
9.4253,-1.1577,-2.6696,-0.036957,-0.018326,0.007025,-55.74,-13.62,33.18
9.5479,-1.1577,-2.6423,-0.034208,-0.0033598,0.0036652,-55.74,-13.68,33.18
9.4934,-1.1577,-2.6015,-0.032987,0.018631,-0.0073304,-55.74,-13.68,33.12
9.507,-1.1577,-2.6423,-0.043982,0.033292,-0.011301,-55.74,-13.74,33.12
9.5206,-1.185,-2.6968,-0.043982,0.053451,0.0030543,-55.68,-13.74,33.12
9.5342,-1.185,-2.6015,-0.045204,0.052229,0.0054978,-55.68,-13.68,33.18
9.6296,-1.2395,-2.5198,-0.041539,0.029627,0.010996,-55.68,-13.68,33.24
9.616,-1.185,-2.5061,-0.045815,0.0051924,0.012217,-55.56,-13.74,33.24
9.4934,-1.0624,-2.5061,-0.043371,-0.011606,0.01069,-55.56,-13.68,33.12
9.507,-1.1577,-2.5198,-0.033903,-0.000916,0.010079,-55.38,-13.74,33.0
9.5751,-1.1577,-2.5742,-0.035736,0.020159,0.0042761,-55.5,-13.68,32.94
9.5479,-1.185,-2.6151,-0.030543,0.026573,0.000611,-55.44,-13.8,32.82
9.5615,-1.1713,-2.5879,-0.027184,0.029932,-0.000611,-55.68,-13.86,32.82
9.616,-1.1441,-2.5742,-0.030849,0.018021,0.0033598,-55.8,-13.74,32.88
9.616,-1.1441,-2.6832,-0.033598,0.0079412,0.007025,-55.8,-13.8,32.82
9.6432,-1.1577,-2.5879,-0.036346,0.0058032,0.0036652,-55.68,-13.68,32.76
9.5751,-1.1577,-2.6015,-0.033292,0.0085521,0.0030543,-55.5,-13.68,32.82
9.5479,-1.1577,-2.5198,-0.03879,0.0039706,0.0058032,-55.5,-13.62,32.64
9.5342,-1.1305,-2.6015,-0.03543,0.0076358,0.012217,-55.32,-13.68,32.64
9.616,-1.1986,-2.547,-0.033292,0.0058032,0.009163,-55.32,-13.68,32.76
9.5615,-1.1441,-2.6423,-0.032681,0.014355,0.0027489,-55.32,-13.68,32.82
9.5887,-1.1305,-2.547,-0.026267,0.021686,0.010385,-55.32,-13.68,32.94
9.5887,-1.1986,-2.5879,-0.029932,0.014661,0.017715,-55.2,-13.68,33.06
9.6023,-1.1441,-2.5606,-0.033598,0.010996,0.0094684,-55.08,-13.74,33.3
9.5887,-1.1305,-2.5334,-0.032681,0.002138,0.0097738,-55.14,-13.86,33.42
9.6023,-1.0896,-2.6423,-0.039706,-0.0030543,0.018021,-55.14,-13.86,33.3
9.6023,-1.1441,-2.547,-0.036041,-0.0064141,0.010996,-55.26,-13.86,33.48
9.5479,-1.1713,-2.5742,-0.041233,-0.0094684,0.011606,-55.2,-14.04,33.66
9.5479,-1.1305,-2.6423,-0.042761,-0.0094684,0.0073304,-55.5,-14.1,33.66
9.5751,-1.1713,-2.6287,-0.032987,0.010996,0.0058032,-55.56,-13.98,33.72
9.6432,-1.1577,-2.5742,-0.035125,0.018326,0.0027489,-55.56,-14.1,33.6
9.5887,-1.1441,-2.5606,-0.040623,0.028711,0.000611,-55.68,-14.22,33.42
9.6432,-1.0624,-2.5742,-0.038485,0.025045,-0.0082467,-55.68,-14.16,33.42
9.5887,-1.1032,-2.5742,-0.040623,0.018631,0.0067195,-55.74,-14.1,33.3
9.6568,-1.1169,-2.547,-0.038485,-0.0012217,0.0064141,-55.68,-13.98,33.36
9.6568,-1.1169,-2.547,-0.039706,-0.0012217,0.0064141,-55.68,-13.98,33.36
9.6023,-1.076,-2.5334,-0.038485,-0.0039706,0.011912,-55.56,-13.98,33.36
9.6023,-1.076,-2.5334,-0.038485,-0.0039706,0.011912,-55.56,-13.98,33.36
9.4798,-1.1169,-2.5606,-0.040012,-0.0036652,0.017104,-55.56,-14.1,33.24
9.507,-1.076,-2.4789,-0.045509,0.0073304,0.014661,-55.5,-13.92,33.24
9.5479,-1.0896,-2.4789,-0.038179,0.01405,0.010079,-55.38,-14.1,33.3
9.507,-1.0896,-2.5061,-0.034819,0.015272,0.012523,-55.5,-14.1,33.18
9.5615,-1.0351,-2.5742,-0.034819,0.018631,0.015882,-55.62,-14.16,33.24
9.6023,-1.1577,-2.4789,-0.038179,0.011301,0.016493,-55.62,-14.04,33.36
9.6023,-1.1577,-2.5742,-0.034208,-0.0027489,0.021686,-55.68,-13.98,33.48
9.616,-1.1169,-2.5606,-0.034208,-0.0067195,0.022297,-55.62,-14.1,33.48
9.5615,-1.0896,-2.6015,-0.033598,-0.0079412,0.016188,-55.74,-14.04,33.42
9.507,-1.1169,-2.6287,-0.039401,0.000611,0.01405,-55.74,-14.04,33.42
9.5479,-1.0896,-2.6015,-0.038485,0.011606,0.012523,-55.68,-13.98,33.3
9.6023,-1.1713,-2.5742,-0.032987,0.014355,0.011912,-55.56,-13.92,33.42
9.6296,-1.1169,-2.6287,-0.033598,0.01069,0.010996,-55.5,-13.86,33.3
9.5751,-1.1441,-2.4925,-0.043982,0.0058032,0.019548,-55.56,-14.04,33.18
9.5342,-1.1577,-2.5606,-0.03879,-0.0051924,0.017104,-55.56,-14.04,33.12
9.507,-1.1441,-2.4517,-0.03879,-0.0088575,0.015577,-55.38,-14.04,33.18
9.5479,-1.0896,-2.6287,-0.037568,-0.0079412,0.012828,-55.26,-13.8,33.24
9.5479,-1.1305,-2.6015,-0.033598,-0.0045815,0.012828,-55.14,-13.8,33.24
9.5751,-1.1305,-2.4653,-0.038485,0.0079412,0.0058032,-55.14,-13.8,33.18
9.6023,-1.1169,-2.5334,-0.036957,0.012828,0.01069,-55.08,-13.92,33.12
9.5342,-1.1305,-2.4653,-0.038179,0.0073304,0.013439,-55.14,-14.04,33.06
9.6296,-1.0896,-2.5334,-0.027794,-0.0018326,0.014355,-55.14,-13.98,33.0
9.5751,-1.0896,-2.5198,-0.034208,-0.010079,0.016799,-55.14,-13.86,33.0
9.5751,-1.0215,-2.5198,-0.040623,-0.017715,0.022907,-55.32,-13.8,33.0
9.5479,-1.1032,-2.547,-0.037874,-0.016799,0.017715,-55.26,-13.86,33.18
9.5751,-1.1577,-2.547,-0.040012,-0.0064141,0.016799,-55.26,-13.8,33.18
9.5751,-1.1032,-2.5061,-0.040012,-0.000916,0.013744,-55.32,-13.68,33.36
9.5751,-1.1169,-2.547,-0.040012,0.0030543,0.015882,-55.5,-13.44,33.42
9.5751,-1.1305,-2.547,-0.04612,-0.0061087,0.012523,-55.5,-13.5,33.36
9.5342,-1.1305,-2.5742,-0.034819,-0.0027489,0.018326,-55.56,-13.5,33.24
9.507,-1.1169,-2.4789,-0.033598,-0.0036652,0.01405,-55.68,-13.44,33.3
9.6296,-1.0624,-2.5742,-0.037568,-0.0018326,0.015577,-55.8,-13.44,33.18
9.5479,-1.1169,-2.5742,-0.035125,-0.0079412,0.0097738,-55.74,-13.26,33.24
9.5887,-1.0896,-2.547,-0.03543,-0.0018326,0.014355,-55.74,-13.38,33.24
9.5887,-1.0488,-2.547,-0.038485,0.000305,0.018326,-55.68,-13.56,33.3
9.5615,-1.0896,-2.5879,-0.03879,-0.0036652,0.021686,-55.62,-13.74,33.36
9.5887,-1.1169,-2.547,-0.03207,0.0036652,0.010385,-55.74,-13.92,33.06
9.5751,-1.0624,-2.6423,-0.029016,0.016188,0.017715,-55.74,-13.8,33.06
9.5615,-1.1169,-2.6015,-0.030238,0.023824,0.012523,-55.62,-13.92,33.0
9.6023,-1.0488,-2.547,-0.025351,0.0039706,0.013134,-55.5,-14.04,32.94
9.5751,-1.0896,-2.547,-0.023824,0.0015272,0.017715,-55.5,-14.16,32.94
9.6023,-1.0896,-2.5742,-0.032987,0.0015272,0.023518,-55.56,-14.22,33.06
9.5887,-1.1032,-2.5742,-0.037263,-0.000916,0.018326,-55.44,-14.22,33.0
9.5479,-1.1032,-2.547,-0.037263,-0.0088575,0.020769,-55.44,-14.22,33.24
9.5479,-1.1305,-2.656,-0.039401,-0.0018326,0.021991,-55.44,-14.34,33.24
9.507,-1.0896,-2.5742,-0.028405,0.020464,0.0082467,-55.44,-14.1,33.18
9.5751,-1.0896,-2.547,-0.024435,0.042761,0.012828,-55.62,-14.1,33.18
9.5615,-1.1441,-2.5334,-0.0281,0.040012,0.015272,-55.56,-14.1,33.18
9.6432,-1.0896,-2.4517,-0.033292,0.026573,0.021075,-55.5,-13.98,33.24
9.6704,-1.1169,-2.4789,-0.033598,0.0018326,0.018631,-55.56,-13.98,33.42
9.6296,-1.1032,-2.4925,-0.03146,-0.025351,0.023518,-55.56,-13.92,33.36
9.5615,-1.0896,-2.5742,-0.025656,-0.045509,0.029016,-55.56,-13.92,33.3
9.616,-1.1441,-2.5606,-0.027794,-0.036041,0.030849,-55.62,-13.86,33.3
9.4389,-1.185,-2.6015,-0.031765,-0.029627,0.025656,-55.62,-13.74,33.36
9.5479,-1.1577,-2.6015,-0.032376,-0.02474,0.020464,-55.68,-13.8,33.36
9.5206,-1.1169,-2.6287,-0.029016,-0.0018326,0.017104,-55.68,-13.8,33.42
9.5479,-1.185,-2.5061,-0.023213,0.0051924,0.023824,-55.74,-13.74,33.48
9.6432,-1.0896,-2.5198,-0.027184,-0.0039706,0.021686,-55.68,-13.86,33.6
9.616,-1.1169,-2.4517,-0.032376,-0.021991,0.027184,-55.62,-13.98,33.66
9.6432,-1.1032,-2.5742,-0.029016,-0.029932,0.036041,-55.62,-13.86,33.66
9.6432,-1.1032,-2.6015,-0.029627,-0.030238,0.030238,-55.56,-13.86,33.6
9.5751,-1.1441,-2.5742,-0.042761,-0.015272,0.030849,-55.5,-13.86,33.54
9.5887,-1.1169,-2.547,-0.03543,-0.000916,0.029932,-55.56,-13.86,33.54
9.616,-1.1577,-2.438,-0.040623,0.0027489,0.029932,-55.74,-13.68,33.72
9.616,-1.2122,-2.5606,-0.036041,-0.009163,0.029627,-55.74,-13.8,33.66
9.6023,-1.1441,-2.547,-0.037263,-0.01405,0.026267,-55.62,-13.74,33.48
9.5615,-1.1305,-2.547,-0.028405,-0.016799,0.012523,-55.62,-13.68,33.48
9.5751,-1.1441,-2.6015,-0.034819,0.0067195,0.02138,-55.5,-13.62,33.36
9.6296,-1.185,-2.6696,-0.025351,0.0082467,0.020769,-55.38,-13.62,33.3
9.6432,-1.185,-2.5879,-0.031765,0.01405,0.028405,-55.38,-13.62,33.24
9.6432,-1.1577,-2.5198,-0.035125,-0.0018326,0.029627,-55.44,-13.62,33.3
9.5751,-1.1986,-2.5742,-0.026267,-0.015272,0.030543,-55.44,-13.68,33.42
9.6023,-1.185,-2.4925,-0.024129,-0.021075,0.027794,-55.56,-13.62,33.48
9.507,-1.1577,-2.5879,-0.019242,-0.011301,0.018021,-55.5,-13.56,33.6
9.507,-1.185,-2.6015,-0.019548,0.0024435,0.010996,-55.5,-13.68,33.54
9.5751,-1.1577,-2.656,-0.025351,0.014966,0.0048869,-55.38,-13.86,33.42
9.5751,-1.1032,-2.6015,-0.025656,0.029932,0.01069,-55.32,-13.74,33.48
9.6296,-1.1305,-2.5742,-0.02474,0.023824,0.020159,-55.44,-13.8,33.54
9.616,-1.1305,-2.5061,-0.03207,0.010079,0.035125,-55.44,-13.86,33.78
9.6568,-1.1441,-2.4653,-0.032987,-0.011301,0.027184,-55.5,-13.86,33.66
9.616,-1.1713,-2.5061,-0.025656,-0.023518,0.037263,-55.38,-13.86,33.66
9.5479,-1.1986,-2.6015,-0.0281,-0.016799,0.026878,-55.5,-13.86,33.66
9.5479,-1.185,-2.547,-0.029627,0.000916,0.027489,-55.56,-13.74,33.6
9.5206,-1.1986,-2.5742,-0.027184,0.023518,0.015272,-55.5,-13.74,33.48
9.4934,-1.1441,-2.6015,-0.035736,0.026267,0.010079,-55.5,-13.68,33.36
9.5479,-1.185,-2.5742,-0.028711,0.018937,0.0079412,-55.62,-13.74,33.36
9.5479,-1.1441,-2.5061,-0.038485,0.0082467,0.0085521,-55.56,-13.62,33.36
9.6023,-1.1577,-2.5742,-0.035736,-0.0018326,0.0076358,-55.56,-13.62,33.3
9.616,-1.185,-2.5879,-0.040317,0.0061087,0.0012217,-55.68,-13.62,33.24
9.5615,-1.2258,-2.6696,-0.036652,-0.0018326,0.0048869,-55.56,-13.62,33.42
9.5751,-1.1169,-2.5061,-0.033903,-0.000916,0.007025,-55.56,-13.5,33.36
9.5615,-1.0896,-2.6015,-0.038485,-0.000611,0.013439,-55.56,-13.44,33.48
9.6023,-1.1169,-2.5742,-0.03543,0.0048869,0.015882,-55.68,-13.44,33.42
9.6023,-1.1305,-2.5742,-0.036652,-0.0033598,0.010996,-55.74,-13.32,33.48
9.507,-1.2395,-2.4653,-0.038485,-0.0012217,0.0094684,-55.62,-13.44,33.42
9.5479,-1.185,-2.5061,-0.034819,0.011606,0.012523,-55.56,-13.32,33.42
9.6023,-1.1577,-2.5742,-0.033292,0.013439,0.0082467,-55.68,-13.44,33.42
9.6023,-1.2667,-2.4244,-0.034208,0.015882,0.011606,-55.74,-13.44,33.42
9.6023,-1.1577,-2.5334,-0.032376,0.0064141,0.019242,-55.74,-13.56,33.42
9.6296,-1.1713,-2.4789,-0.036957,-0.0064141,0.019853,-55.68,-13.56,33.54
9.5479,-1.1577,-2.5606,-0.039706,-0.013439,0.015882,-55.68,-13.56,33.6
9.6023,-1.1305,-2.5606,-0.04612,-0.010996,0.0042761,-55.62,-13.56,33.54
9.6023,-1.185,-2.6696,-0.036346,-0.0018326,0.0051924,-55.68,-13.62,33.36
9.507,-1.2395,-2.6287,-0.033598,0.0064141,0.0012217,-55.56,-13.74,33.42
9.507,-1.1305,-2.6423,-0.033598,0.026267,-0.000611,-55.62,-13.56,33.36
9.5342,-1.1305,-2.547,-0.043371,0.03879,0.0042761,-55.56,-13.68,33.24
9.6023,-1.1305,-2.6423,-0.042455,0.046426,0.0064141,-55.62,-13.74,33.24
9.5751,-1.1713,-2.4925,-0.02474,0.021686,0.0088575,-55.8,-13.74,33.36
9.6296,-1.1713,-2.4653,-0.034819,0.012217,0.010385,-55.68,-13.68,33.36
9.5615,-1.1577,-2.547,-0.04215,-0.0064141,0.010385,-55.68,-13.68,33.36
9.616,-1.1713,-2.5742,-0.03543,0.002138,0.0097738,-55.68,-13.62,33.24
9.5615,-1.1577,-2.6423,-0.036041,0.01405,0.0067195,-55.86,-13.74,33.24
9.6023,-1.185,-2.4925,-0.033903,0.020159,0.010079,-55.86,-13.68,33.18
9.6704,-1.1169,-2.5334,-0.027184,0.0036652,0.0088575,-55.86,-13.98,33.06
9.6296,-1.1169,-2.547,-0.03207,-0.000916,0.012523,-55.74,-13.92,33.0
9.6432,-1.185,-2.5334,-0.041539,-0.0036652,0.012217,-55.8,-13.98,32.94
9.6023,-1.1305,-2.547,-0.033292,0.000611,0.01405,-55.8,-14.1,32.88
9.507,-1.1305,-2.5606,-0.02474,0.0039706,0.01741,-55.86,-14.16,32.94
9.5887,-1.1441,-2.5742,-0.032987,0.014661,0.016188,-55.68,-14.1,33.0
9.5751,-1.1441,-2.547,-0.033598,0.022602,0.013744,-55.74,-14.16,32.82
9.6023,-1.1577,-2.547,-0.028405,0.016493,0.012523,-55.74,-14.28,32.76
9.5887,-1.1986,-2.6968,-0.032987,0.012217,0.015272,-55.62,-14.28,32.94
9.5206,-1.1032,-2.5198,-0.037874,0.0097738,0.0076358,-55.38,-14.16,32.94
9.5751,-1.1441,-2.5198,-0.036957,0.0082467,0.01405,-55.32,-13.98,32.88
9.5751,-1.1169,-2.5879,-0.043066,0.012523,0.013134,-55.38,-13.98,32.88
9.5751,-1.1169,-2.4789,-0.034514,-0.002138,0.015577,-55.38,-13.86,32.88
9.6023,-1.1169,-2.4789,-0.039095,-0.0073304,0.014661,-55.38,-13.98,33.0
9.5887,-1.1577,-2.547,-0.031154,-0.012828,0.017104,-55.5,-13.92,33.0
9.6296,-1.185,-2.547,-0.037568,-0.019853,0.017104,-55.5,-13.92,33.06
9.5615,-1.1441,-2.5061,-0.04215,-0.020769,0.010385,-55.5,-13.8,33.06
9.5206,-1.0896,-2.5879,-0.041539,-0.018326,0.010996,-55.62,-13.98,33.12
9.4934,-1.1169,-2.5742,-0.043371,-0.0030543,0.0051924,-55.62,-13.98,33.18
9.5479,-1.1169,-2.5606,-0.03879,0.021686,0.0097738,-55.68,-13.92,33.24
9.5206,-1.1032,-2.5061,-0.029627,0.018937,0.013134,-55.8,-13.98,33.12
9.6023,-1.1032,-2.4517,-0.034208,0.0085521,0.014355,-55.92,-14.22,33.12
9.6296,-1.1169,-2.547,-0.03146,-0.0073304,0.017715,-55.98,-14.22,33.18
9.616,-1.1305,-2.5198,-0.033598,-0.013744,0.014966,-55.92,-14.22,33.3
9.5342,-1.1169,-2.547,-0.037568,-0.018631,0.016799,-55.86,-14.28,33.3
9.5887,-1.1441,-2.5334,-0.037568,-0.01069,0.018021,-55.86,-14.1,33.36
9.6296,-1.1305,-2.4925,-0.037263,0.0073304,0.019242,-55.8,-14.04,33.42
9.6023,-1.0896,-2.4925,-0.039401,0.0042761,0.0094684,-55.68,-14.16,33.36
9.6432,-1.1305,-2.4925,-0.033292,0.0042761,0.015882,-55.74,-14.1,33.42
9.6023,-1.1169,-2.4789,-0.031765,0.0064141,0.0094684,-55.8,-13.92,33.3
9.5751,-1.1169,-2.5879,-0.029016,0.0048869,0.0085521,-55.92,-13.92,33.36
9.5887,-1.1441,-2.5061,-0.032987,0.0079412,0.012217,-55.92,-13.86,33.3
9.5342,-1.1169,-2.547,-0.037874,0.009163,0.011912,-55.8,-13.8,33.3
9.507,-1.1169,-2.5061,-0.031154,0.011912,0.013744,-55.68,-13.68,33.12
9.6023,-1.1032,-2.547,-0.034514,0.0051924,0.012828,-55.62,-13.62,33.24
9.5479,-1.1032,-2.547,-0.03207,0.0015272,0.018937,-55.62,-13.62,33.24
9.6023,-1.1169,-2.5061,-0.032376,0.0045815,0.014661,-55.56,-13.62,33.24
9.5751,-1.1169,-2.5334,-0.039401,0.0097738,0.015272,-55.68,-13.68,33.12
9.6432,-1.1032,-2.547,-0.029016,0.0039706,0.012523,-55.62,-13.74,33.24
9.6432,-1.0896,-2.656,-0.033292,0.0048869,0.015577,-55.56,-13.74,33.24
9.5342,-1.1577,-2.5198,-0.024435,0.0061087,0.013439,-55.38,-13.8,33.3
9.5751,-1.1169,-2.547,-0.03879,0.0012217,0.01741,-55.44,-13.86,33.3
9.6432,-1.0896,-2.5606,-0.032376,-0.0097738,0.01741,-55.32,-13.86,33.24
9.5751,-1.1169,-2.547,-0.033598,-0.023213,0.016188,-55.08,-13.8,33.42
9.5479,-1.0624,-2.547,-0.03543,-0.020769,0.017715,-55.08,-13.8,33.42
9.5615,-1.076,-2.5334,-0.041844,-0.018326,0.018631,-55.2,-13.92,33.6
9.5479,-1.076,-2.547,-0.036346,-0.015882,0.015577,-55.14,-13.86,33.42
9.5751,-1.1577,-2.5061,-0.033903,-0.012217,0.013744,-55.14,-13.92,33.24
9.5206,-1.076,-2.4925,-0.037568,-0.013134,0.024129,-55.14,-13.92,33.24
9.4798,-1.0624,-2.5606,-0.035125,-0.011912,0.018326,-55.02,-13.92,33.24
9.5342,-0.92618,-2.5061,-0.028405,0.000611,0.014966,-55.08,-13.92,33.18
9.5887,-1.0624,-2.5606,-0.025045,0.0015272,0.018021,-55.14,-14.04,33.3
9.5751,-1.1032,-2.5606,-0.023824,-0.002138,0.019853,-55.2,-14.1,33.36
9.616,-1.1305,-2.547,-0.037263,-0.0036652,0.023213,-55.2,-14.1,33.3
9.5751,-1.1305,-2.6696,-0.030543,-0.0039706,0.021075,-55.26,-13.98,33.3
9.5479,-1.1713,-2.547,-0.039401,-0.009163,0.022602,-55.26,-13.98,33.3
9.616,-1.1441,-2.6151,-0.034819,-0.0015272,0.018937,-55.32,-14.1,33.12
9.6296,-1.1305,-2.547,-0.03146,0.012217,0.018937,-55.38,-14.04,33.18
9.6023,-1.1577,-2.5606,-0.029016,0.013744,0.018937,-55.38,-13.98,33.42
9.6296,-1.076,-2.5742,-0.034208,0.010385,0.016799,-55.44,-13.98,33.3
9.616,-1.1713,-2.5606,-0.036041,0.0094684,0.015272,-55.5,-13.98,33.42
9.5751,-1.0896,-2.5334,-0.038179,-0.009163,0.023518,-55.5,-14.04,33.42
9.5751,-1.0896,-2.5334,-0.039706,-0.025045,0.026267,-55.56,-13.92,33.42
9.507,-1.0351,-2.6287,-0.027184,-0.022602,0.020159,-55.56,-13.68,33.24
9.5751,-1.1169,-2.6015,-0.027794,-0.007025,0.022602,-55.56,-13.62,33.12
9.5751,-1.0896,-2.547,-0.03146,0.0030543,0.022602,-55.5,-13.74,33.12
9.5751,-1.1032,-2.6423,-0.028711,0.01069,0.026267,-55.44,-13.86,33.24
9.5751,-1.0624,-2.5879,-0.020769,0.0045815,0.019853,-55.38,-13.74,33.18
9.5887,-1.1713,-2.547,-0.025962,-0.0027489,0.019548,-55.44,-13.56,33.36
9.6023,-1.1441,-2.6015,-0.025962,-0.01405,0.029016,-55.26,-13.56,33.3
9.5751,-1.2122,-2.5742,-0.030849,-0.013744,0.023213,-55.32,-13.8,33.18
9.5751,-1.1577,-2.6423,-0.027794,-0.022297,0.014355,-55.26,-13.56,33.3
9.5479,-1.1577,-2.5742,-0.036041,-0.01741,0.022602,-55.2,-13.5,33.48
9.5479,-1.1169,-2.6423,-0.029932,-0.0024435,0.022907,-55.32,-13.44,33.54
9.5615,-1.1305,-2.5606,-0.034819,-0.0012217,0.023518,-55.14,-13.62,33.72
9.5751,-1.1169,-2.5606,-0.027184,-0.000611,0.034514,-55.08,-13.68,33.96
9.6568,-1.1713,-2.5879,-0.036041,-0.0076358,0.021991,-54.96,-13.62,34.08
9.5615,-1.1577,-2.6151,-0.036652,-0.02138,0.023518,-55.02,-13.44,33.9
9.5342,-1.1577,-2.5606,-0.034819,-0.03146,0.030849,-55.08,-13.44,33.9
9.5342,-1.0351,-2.6423,-0.032987,-0.020464,0.026573,-55.26,-13.56,33.96
9.4798,-1.2122,-2.656,-0.025351,-0.0085521,0.013439,-55.44,-13.62,33.9
9.5751,-1.1577,-2.6151,-0.02474,0.0051924,0.015272,-55.44,-13.68,34.02
9.507,-1.1577,-2.5742,-0.026878,0.01741,0.014966,-55.44,-13.5,34.02
9.6023,-1.1169,-2.6423,-0.025656,0.021075,0.02138,-55.32,-13.68,34.08
9.6432,-1.1713,-2.5061,-0.03207,0.010996,0.026573,-55.44,-13.68,33.9
9.6704,-1.1713,-2.5606,-0.040928,-0.0033598,0.026878,-55.38,-13.8,34.08
9.5751,-1.1986,-2.7377,-0.034819,-0.027794,0.030849,-55.32,-13.86,33.6
9.507,-1.1577,-2.6423,-0.029016,-0.026878,0.023518,-55.38,-13.86,33.48
9.5342,-1.1577,-2.6015,-0.027794,-0.018326,0.025045,-55.38,-13.92,33.42
9.5479,-1.1986,-2.6968,-0.03543,-0.0015272,0.02474,-55.5,-14.1,33.3
9.5479,-1.1577,-2.6696,-0.029932,0.007025,0.013134,-55.62,-14.04,33.3
9.5479,-1.1577,-2.6696,-0.029932,0.0088575,0.02138,-55.5,-13.98,33.36
9.6296,-1.1577,-2.5879,-0.02474,0.000305,0.022907,-55.26,-13.92,33.24
9.616,-1.1169,-2.6287,-0.025351,-0.007025,0.026267,-55.44,-13.8,33.36
9.5887,-1.0351,-2.5742,-0.027489,-0.0085521,0.029322,-55.5,-13.92,33.42
9.5479,-1.1441,-2.5879,-0.022297,-0.000916,0.028711,-55.56,-13.98,33.36
9.5479,-1.1441,-2.7377,-0.029627,0.0048869,0.025962,-55.56,-13.98,33.36
9.5342,-1.2122,-2.6151,-0.0281,0.0018326,0.021991,-55.5,-13.8,33.18
9.5751,-1.2122,-2.6423,-0.031765,0.016493,0.017715,-55.62,-13.68,33.42
9.5615,-1.2258,-2.5742,-0.027794,0.019853,0.015882,-55.62,-13.62,33.24
9.6023,-1.2531,-2.6015,-0.030543,0.020464,0.013134,-55.56,-13.56,33.24
9.5751,-1.2122,-2.5742,-0.043677,0.025962,0.011606,-55.5,-13.32,33.42
9.5479,-1.1713,-2.5606,-0.039706,0.010079,0.0067195,-55.44,-13.32,33.42
9.5342,-1.185,-2.5061,-0.037568,0.0097738,-0.0030543,-55.44,-13.38,33.3
9.6023,-1.1441,-2.6015,-0.036957,0.014355,-0.0012217,-55.44,-13.32,33.3
9.616,-1.1305,-2.6151,-0.031765,0.014966,0.0018326,-55.38,-13.44,33.12
9.6023,-1.076,-2.6423,-0.041233,0.0097738,0.0082467,-55.38,-13.44,33.06
9.5887,-1.185,-2.5879,-0.042761,-0.0033598,0.017715,-55.38,-13.38,32.94
9.5751,-1.1713,-2.547,-0.038485,-0.019242,0.018021,-55.38,-13.5,32.94
9.5751,-1.1441,-2.6015,-0.042761,-0.014966,0.014355,-55.38,-13.62,33.06
9.5342,-1.185,-2.6015,-0.03879,-0.0051924,0.0054978,-55.38,-13.68,33.18
9.507,-1.185,-2.6968,-0.039401,0.022297,-0.000305,-55.5,-13.74,33.36
9.5615,-1.1441,-2.5742,-0.033903,0.03879,-0.0024435,-55.74,-13.74,33.42
9.5751,-1.1577,-2.6423,-0.036041,0.041539,-0.0012217,-55.86,-13.92,33.42
9.5615,-1.1169,-2.6151,-0.030238,0.043371,0.014661,-55.86,-13.92,33.42
9.6023,-1.1577,-2.547,-0.033903,0.027794,0.0094684,-55.92,-13.92,33.42
9.6296,-1.1169,-2.5061,-0.038485,0.0079412,0.012217,-55.86,-14.04,33.6
9.5479,-1.1032,-2.5061,-0.036346,-0.013134,0.018326,-55.86,-13.92,33.48
9.5479,-1.1169,-2.4789,-0.03146,-0.014355,0.0085521,-55.92,-13.86,33.48
9.6023,-1.1169,-2.6015,-0.030543,0.0051924,0.016493,-55.86,-13.98,33.6
9.507,-1.1986,-2.5742,-0.026573,0.016188,0.016188,-55.86,-14.04,33.6
9.5615,-1.1577,-2.4789,-0.028711,0.020464,0.009163,-55.92,-14.04,33.48
9.6023,-1.1441,-2.5061,-0.034514,0.022297,0.01069,-55.92,-13.92,33.36
9.6568,-1.0624,-2.5334,-0.032376,0.0097738,0.013744,-55.92,-14.04,33.3
9.6296,-1.1169,-2.5742,-0.032987,0.007025,0.0061087,-55.86,-13.98,33.24
9.5615,-1.1577,-2.5742,-0.031765,0.0094684,0.011912,-55.74,-13.92,33.12
9.5751,-1.1305,-2.6015,-0.040317,0.011301,0.01741,-55.62,-13.92,33.0
9.5751,-1.185,-2.547,-0.036346,0.009163,0.013439,-55.62,-13.98,32.94
9.5751,-1.1305,-2.5334,-0.034208,0.016799,0.011301,-55.74,-13.92,32.94
9.5479,-1.1441,-2.5742,-0.030849,0.017715,0.020159,-55.74,-14.1,32.94
9.5887,-1.1169,-2.5198,-0.029016,0.013134,0.012217,-55.8,-14.1,33.0
9.6432,-1.1169,-2.5198,-0.029016,0.012828,0.013439,-55.68,-13.98,33.0
9.5479,-1.0896,-2.4925,-0.040928,0.0036652,0.0085521,-55.74,-13.92,33.18
9.5479,-1.1577,-2.4653,-0.033292,0.0058032,0.014661,-55.8,-13.92,33.24
9.5751,-1.1169,-2.5334,-0.035125,0.0042761,0.014355,-55.98,-13.8,33.36
9.5751,-1.1169,-2.4925,-0.036346,-0.0018326,0.018021,-55.92,-13.98,33.36
9.507,-1.1577,-2.5742,-0.036652,-0.0015272,0.0076358,-55.98,-13.98,33.42
9.6023,-1.1305,-2.4653,-0.037874,-0.0027489,0.018326,-56.1,-13.98,33.42
9.616,-1.1032,-2.4789,-0.044899,-0.0079412,0.015882,-56.04,-13.92,33.6
9.6023,-1.076,-2.547,-0.043677,-0.014966,0.017104,-56.04,-13.98,33.48
9.6023,-1.1713,-2.4517,-0.043066,-0.019242,0.009163,-55.98,-13.98,33.36
9.5479,-1.1577,-2.5742,-0.04612,-0.010996,0.0094684,-55.98,-14.04,33.36
9.507,-1.1305,-2.5742,-0.043677,0.002138,0.010385,-56.04,-13.98,33.36
9.5751,-1.1305,-2.5198,-0.040012,0.012828,0.0079412,-56.04,-14.1,33.3
9.6023,-1.0896,-2.5879,-0.03146,0.017715,0.0076358,-55.98,-13.98,33.24
9.6432,-1.1441,-2.5061,-0.034514,0.020769,0.013134,-55.98,-13.98,33.24
9.5887,-1.185,-2.5198,-0.032681,0.0042761,0.018021,-55.98,-14.1,33.12
9.6023,-1.1441,-2.5061,-0.037874,-0.0042761,0.011301,-55.98,-13.8,33.3
9.5751,-1.1169,-2.5061,-0.034208,-0.011301,0.020159,-55.86,-13.86,33.3
9.5615,-1.1032,-2.6287,-0.041844,-0.0067195,0.018937,-55.8,-13.86,33.3
9.616,-1.1032,-2.547,-0.039706,0.0067195,0.01405,-55.74,-13.74,33.3
9.5751,-1.1577,-2.5198,-0.034208,0.014966,0.012523,-55.74,-13.74,33.42
9.5342,-1.1032,-2.5061,-0.022297,0.020464,0.0088575,-55.74,-13.86,33.48
9.6296,-1.1305,-2.5198,-0.023518,0.025962,0.01069,-55.62,-13.74,33.42
9.5751,-1.185,-2.5334,-0.029322,0.015577,0.014355,-55.56,-13.8,33.42
9.6296,-1.1713,-2.5742,-0.038179,0.0073304,0.015272,-55.74,-13.74,33.54
9.5751,-1.1577,-2.4789,-0.034819,0.0027489,0.018326,-55.74,-13.74,33.42
9.6023,-1.0624,-2.4789,-0.034819,-0.0015272,0.018021,-55.68,-13.8,33.42
9.5751,-1.1305,-2.4925,-0.036346,-0.0094684,0.0094684,-55.56,-13.74,33.3
9.5751,-1.1441,-2.547,-0.040928,-0.0054978,0.018326,-55.56,-13.92,33.24
9.5342,-1.1169,-2.4925,-0.035736,-0.0039706,0.015272,-55.62,-13.92,33.24
9.5615,-1.1032,-2.5061,-0.042761,-0.0061087,0.020159,-55.68,-13.98,33.3
9.5751,-1.1169,-2.5879,-0.040623,-0.010079,0.012523,-55.86,-14.04,33.12
9.5615,-1.1169,-2.6015,-0.037874,0.0048869,0.018326,-55.86,-14.16,33.12
9.5751,-1.1305,-2.4517,-0.031765,0.0064141,0.010385,-55.98,-14.16,33.12
9.6023,-1.1305,-2.5061,-0.03207,0.0027489,0.019853,-55.98,-14.04,33.24
9.6296,-1.076,-2.6151,-0.034819,-0.01741,0.009163,-55.98,-14.04,33.18
9.6296,-1.0624,-2.6015,-0.031765,-0.011606,0.020769,-55.86,-14.04,33.06
9.6432,-1.0896,-2.5742,-0.043066,-0.012828,0.019242,-55.92,-14.1,33.18
9.5479,-1.1169,-2.5198,-0.036346,-0.0076358,0.011912,-55.92,-14.1,33.18
9.5615,-1.1305,-2.6287,-0.041844,-0.0058032,0.016799,-55.8,-14.22,33.18
9.6296,-1.1305,-2.5198,-0.040623,0.002138,0.012217,-55.8,-14.22,33.18
9.5479,-1.1169,-2.4653,-0.032987,0.0058032,0.015577,-55.74,-14.16,33.06
9.5479,-1.1169,-2.4925,-0.030849,0.012217,0.01405,-55.62,-14.16,33.12
9.6023,-1.0624,-2.5061,-0.0281,0.01069,0.012523,-55.68,-14.28,33.18
9.6023,-1.1169,-2.4925,-0.02474,0.000916,0.019853,-55.56,-14.16,33.18
9.6023,-1.1032,-2.5061,-0.027489,-0.0064141,0.025962,-55.62,-14.22,33.24
9.6023,-1.1577,-2.5061,-0.030238,-0.015272,0.025045,-55.68,-14.22,33.24
9.5479,-1.076,-2.5879,-0.032987,-0.022297,0.025656,-55.74,-14.22,33.18
9.5751,-1.1169,-2.6287,-0.037568,-0.014661,0.020464,-55.74,-14.34,33.24
9.5342,-1.0896,-2.4789,-0.038179,-0.01405,0.021686,-55.56,-14.16,33.24
9.5206,-1.0896,-2.6423,-0.033903,0.000305,0.015272,-55.44,-14.16,33.24
9.5615,-1.1169,-2.5061,-0.040012,0.0085521,0.017715,-55.38,-14.22,33.36
9.5615,-1.1169,-2.4789,-0.036041,0.012217,0.014966,-55.5,-14.28,33.48
9.5479,-1.1305,-2.4789,-0.03146,0.0048869,0.019853,-55.38,-14.22,33.48
9.6023,-1.1577,-2.438,-0.032376,-0.000611,0.02474,-55.38,-14.22,33.54
9.6432,-1.1441,-2.5879,-0.03543,-0.022907,0.023824,-55.2,-14.16,33.66
9.6568,-1.1441,-2.5061,-0.039401,-0.029322,0.030543,-55.26,-14.1,33.6
9.6023,-1.1169,-2.5742,-0.029627,-0.029016,0.018937,-55.14,-14.04,33.48
9.5342,-1.1169,-2.656,-0.029932,-0.027489,0.019242,-55.02,-14.04,33.42
9.5615,-1.1441,-2.6015,-0.029932,-0.021991,0.025351,-54.84,-13.98,33.36
9.5479,-1.185,-2.6423,-0.027794,-0.014966,0.02138,-54.78,-13.92,33.42
9.507,-1.1713,-2.6151,-0.031154,-0.013439,0.024129,-55.02,-14.04,33.42
9.5479,-1.1986,-2.5742,-0.033292,-0.0064141,0.015882,-55.02,-14.16,33.48
9.5342,-1.1441,-2.5606,-0.036346,0.0048869,0.017104,-55.14,-13.98,33.42
9.5479,-1.1305,-2.4789,-0.033903,0.010996,0.020769,-54.96,-13.98,33.36
9.6432,-1.0896,-2.5198,-0.03146,0.0051924,0.015272,-54.96,-13.92,33.54
9.6841,-1.185,-2.656,-0.037874,-0.012523,0.023824,-55.32,-13.86,33.48
9.7113,-1.1441,-2.6151,-0.035736,-0.026878,0.023213,-55.32,-13.74,33.48
9.5479,-1.1305,-2.6015,-0.033903,-0.0281,0.030543,-55.32,-13.74,33.3
9.5479,-1.1577,-2.5879,-0.029322,-0.025656,0.023213,-55.14,-13.8,33.48
9.4389,-1.185,-2.5879,-0.0281,-0.013134,0.018937,-55.2,-13.86,33.42
9.507,-1.1986,-2.6015,-0.027184,-0.0051924,0.018937,-55.2,-13.98,33.48
9.5479,-1.1032,-2.6696,-0.021991,0.011912,0.010996,-55.38,-13.92,33.42
9.5479,-1.1577,-2.6696,-0.030543,0.02474,0.021075,-55.2,-13.8,33.3
9.5751,-1.1986,-2.6015,-0.027489,0.027184,0.024129,-55.2,-13.68,33.24
9.6023,-1.1441,-2.5334,-0.036652,0.0085521,0.029627,-55.14,-13.74,33.18
9.6432,-1.1986,-2.5061,-0.032376,-0.014661,0.034819,-55.26,-13.8,33.12
9.5615,-1.1577,-2.5879,-0.043677,-0.029932,0.029627,-55.14,-13.86,33.0
9.5206,-1.1986,-2.6423,-0.031765,-0.029627,0.027794,-54.96,-13.98,33.18
9.4798,-1.185,-2.547,-0.02474,-0.018937,0.023518,-55.08,-14.04,33.06
9.5342,-1.1577,-2.6015,-0.034514,-0.011301,0.026878,-55.08,-14.16,33.18
9.6296,-1.1032,-2.6287,-0.030543,-0.0073304,0.030543,-55.08,-14.04,33.24
9.6023,-1.185,-2.5742,-0.030543,-0.017715,0.034208,-55.2,-13.98,33.3
9.6023,-1.1305,-2.5334,-0.027794,-0.030849,0.039095,-55.2,-13.92,33.18
9.5206,-1.1169,-2.6423,-0.031154,-0.051007,0.037263,-55.32,-14.1,33.3
9.4661,-1.185,-2.6423,-0.026573,-0.048869,0.040623,-55.26,-14.04,33.48
9.507,-1.1441,-2.7377,-0.023518,-0.041539,0.036957,-55.32,-13.98,33.48
9.4798,-1.2258,-2.7377,-0.031765,-0.015882,0.030543,-55.5,-13.98,33.72
9.4117,-1.2531,-2.6968,-0.027794,0.0073304,0.031765,-55.44,-13.8,33.6
9.4798,-1.2803,-2.7377,-0.02474,0.037568,0.02138,-55.44,-13.86,33.42
9.4798,-1.3076,-2.6151,-0.025351,0.054978,0.018631,-55.5,-13.68,33.18
9.6023,-1.2258,-2.6015,-0.017104,0.053756,0.01069,-55.44,-13.68,33.24
9.6023,-1.2258,-2.547,-0.026267,0.032987,0.0085521,-55.62,-13.56,33.18
9.5479,-1.185,-2.6015,-0.029932,0.024129,-0.0015272,-55.62,-13.68,33.12
9.5887,-1.1577,-2.6696,-0.036346,0.014966,0.0045815,-55.68,-13.86,33.0
9.6704,-1.1305,-2.5879,-0.032681,0.014661,0.0051924,-55.74,-13.86,33.12
9.6432,-1.185,-2.6968,-0.045509,-0.0051924,0.0042761,-55.68,-13.8,33.18
9.6432,-1.2122,-2.6015,-0.04215,-0.026267,0.0061087,-55.62,-13.68,33.12
9.507,-1.1713,-2.6015,-0.037568,-0.029627,0.0088575,-55.68,-13.74,33.06
9.4798,-1.2531,-2.6423,-0.036652,-0.012523,0.0085521,-55.56,-13.8,32.94
9.4934,-1.2531,-2.7241,-0.038485,0.01069,0.0073304,-55.56,-13.74,33.0
9.5751,-1.2667,-2.6696,-0.044899,0.025962,0.0067195,-55.62,-13.74,33.06
9.5751,-1.1169,-2.6832,-0.044593,0.035125,0.000611,-55.74,-13.8,33.24
9.5206,-1.185,-2.5742,-0.034208,0.041233,0.0027489,-55.8,-13.86,33.24
9.6023,-1.0896,-2.4789,-0.03543,0.039095,0.012828,-55.62,-13.86,33.36
9.6432,-1.1577,-2.547,-0.040317,0.018326,0.019548,-55.62,-13.86,33.24
9.5751,-1.1713,-2.5742,-0.034514,0.0036652,0.013744,-55.56,-13.74,33.6
9.5479,-1.1441,-2.6287,-0.036041,-0.000611,0.011606,-55.62,-13.68,33.66
9.4934,-1.2122,-2.6151,-0.03543,0.014966,0.0061087,-55.56,-13.74,33.66
9.5887,-1.3076,-2.6015,-0.029627,0.033292,0.0097738,-55.56,-13.98,33.42
9.6704,-1.1986,-2.6696,-0.036652,0.036957,0.0079412,-55.56,-13.8,33.54
9.6023,-1.185,-2.547,-0.030543,0.029627,0.007025,-55.5,-13.8,33.48
9.5887,-1.1713,-2.5742,-0.036346,0.01069,0.0051924,-55.56,-13.74,33.6
9.5479,-1.1305,-2.6015,-0.042455,0.0073304,0.013744,-55.44,-13.98,33.54
9.616,-1.1577,-2.6015,-0.040928,0.0082467,0.0085521,-55.14,-14.04,33.6
9.6023,-1.185,-2.547,-0.046426,0.01069,0.013439,-55.08,-13.92,33.54
9.5615,-1.185,-2.5334,-0.035736,0.0064141,0.010079,-55.14,-13.92,33.54
9.5615,-1.1305,-2.5334,-0.031765,0.0036652,0.01069,-54.96,-13.68,33.42
9.507,-1.1305,-2.6015,-0.037568,0.0054978,0.014661,-54.78,-13.74,33.06
9.5887,-1.1169,-2.5879,-0.033292,0.0042761,0.013134,-55.02,-13.74,33.36
9.6023,-1.1169,-2.5198,-0.026573,0.0061087,0.0085521,-55.02,-13.68,33.24
9.5479,-1.1441,-2.5879,-0.032987,0.0067195,0.017715,-55.02,-13.62,33.24
9.507,-1.185,-2.4789,-0.027794,0.016188,0.012828,-55.14,-13.44,33.24
9.6023,-1.1577,-2.5742,-0.037568,0.031154,0.012217,-55.38,-13.38,33.24
9.5615,-1.1441,-2.547,-0.021991,0.027184,0.015272,-55.5,-13.5,33.36
9.5887,-1.1441,-2.6151,-0.036346,0.022602,0.016493,-55.62,-13.74,33.12
9.6023,-1.1986,-2.5742,-0.035125,0.019548,0.007025,-55.86,-13.86,33.18
9.6704,-1.1169,-2.5742,-0.040928,0.000611,0.015882,-55.8,-13.74,33.24
9.6704,-1.185,-2.5334,-0.037568,-0.018326,0.010079,-55.68,-13.68,33.0
9.507,-1.185,-2.5606,-0.040623,-0.019242,0.012523,-55.68,-13.68,33.12
9.4934,-1.185,-2.5606,-0.041233,-0.018326,0.0088575,-55.74,-13.68,33.06
9.5342,-1.1713,-2.5198,-0.034819,0.0085521,0.0082467,-55.74,-13.68,33.06
9.5479,-1.1577,-2.5334,-0.041844,0.017104,0.0036652,-55.74,-13.68,33.18
9.5751,-1.1305,-2.547,-0.034819,0.025351,0.011301,-55.68,-13.68,33.12
9.5751,-1.1577,-2.547,-0.039095,0.014661,0.013134,-55.56,-13.68,33.06
9.5751,-1.1986,-2.547,-0.036346,0.0061087,0.0085521,-55.38,-13.56,33.18
9.5479,-1.1577,-2.3836,-0.041844,-0.0054978,0.01741,-55.5,-13.5,33.3
9.5751,-1.185,-2.4925,-0.044899,-0.015882,0.016493,-55.26,-13.32,33.66
9.4934,-1.1441,-2.547,-0.043677,-0.0088575,0.018631,-55.26,-13.32,33.72
9.5479,-1.185,-2.5334,-0.037263,-0.000305,0.022602,-55.32,-13.38,33.48
9.5887,-1.1577,-2.4925,-0.027794,0.0085521,0.015272,-55.44,-13.32,33.42
9.6023,-1.1713,-2.4925,-0.03146,-0.0027489,0.013439,-55.38,-13.38,33.36
9.5887,-1.1577,-2.5334,-0.034514,-0.0082467,0.0097738,-55.38,-13.5,33.54
9.5751,-1.185,-2.4108,-0.031765,-0.0051924,0.009163,-55.5,-13.44,33.54
9.5751,-1.1032,-2.6151,-0.035125,-0.0039706,0.012217,-55.38,-13.44,33.48
9.5479,-1.1169,-2.5334,-0.036346,0.0054978,0.014355,-55.5,-13.32,33.54
9.5887,-1.1169,-2.5606,-0.029016,0.0082467,0.013134,-55.38,-13.56,33.54
9.5615,-1.1441,-2.5198,-0.026878,0.0085521,0.011912,-55.38,-13.62,33.3
9.616,-1.1713,-2.547,-0.032376,0.015882,0.016188,-55.38,-13.86,33.18
9.5887,-1.185,-2.5198,-0.034514,0.014966,0.012828,-55.44,-13.92,33.18
9.5751,-1.1441,-2.547,-0.039401,0.010385,0.010385,-55.44,-13.98,33.18
9.5615,-1.1032,-2.5061,-0.036041,0.0042761,0.0079412,-55.44,-13.98,33.3
9.5479,-1.0896,-2.5198,-0.033903,0.018021,0.0079412,-55.44,-14.16,33.42
9.5751,-1.1577,-2.547,-0.032376,0.019853,0.012217,-55.38,-14.22,33.48
9.6023,-1.1441,-2.4517,-0.034208,0.0076358,0.013134,-55.26,-14.04,33.24
9.6841,-1.1305,-2.5334,-0.036957,-0.0054978,0.018021,-55.14,-14.1,33.24
9.6023,-1.185,-2.4925,-0.039706,-0.013439,0.018021,-55.26,-13.92,33.24
9.6023,-1.1441,-2.4789,-0.035736,-0.0281,0.023518,-55.26,-14.04,33.18
9.6023,-1.1169,-2.5061,-0.043677,-0.018326,0.0085521,-55.38,-13.92,33.06
9.4934,-1.185,-2.5334,-0.047037,-0.012828,0.014661,-55.32,-13.92,33.3
9.6023,-1.185,-2.5742,-0.040012,0.0048869,0.017104,-55.44,-13.8,33.3
9.5615,-1.185,-2.5061,-0.041539,0.010996,0.013439,-55.5,-13.62,33.12
9.616,-1.185,-2.5606,-0.047037,0.002138,0.012828,-55.5,-13.56,33.36
9.5479,-1.1169,-2.5742,-0.037874,0.0018326,0.016188,-55.44,-13.56,33.3
9.5751,-1.1577,-2.4789,-0.048869,-0.0097738,0.017715,-55.62,-13.44,33.12
9.6296,-1.1032,-2.547,-0.045509,-0.013744,0.017104,-55.62,-13.44,33.24
9.5479,-1.185,-2.5879,-0.044593,-0.015577,0.012217,-55.68,-13.5,33.3
9.5887,-1.1169,-2.6423,-0.04612,-0.012828,0.014661,-55.74,-13.5,33.3
9.6023,-1.1577,-2.5742,-0.037874,-0.0076358,0.021991,-55.68,-13.56,33.42
9.6841,-1.1305,-2.5606,-0.044288,-0.0061087,0.011606,-55.56,-13.44,33.42
9.5206,-1.1169,-2.5061,-0.033598,-0.010079,0.013439,-55.62,-13.2,33.24
9.507,-1.1305,-2.547,-0.032987,-0.000611,0.014355,-55.68,-13.32,33.12
9.5615,-1.0896,-2.5879,-0.033903,0.0036652,0.018937,-55.8,-13.5,33.12
9.5615,-1.1032,-2.4789,-0.023824,0.0039706,0.011912,-55.74,-13.62,33.24
9.6023,-1.1032,-2.4789,-0.024129,-0.0018326,0.017715,-55.74,-13.74,33.12
9.5751,-1.1441,-2.6015,-0.032681,-0.0045815,0.025656,-55.8,-13.68,33.12
9.6296,-1.1032,-2.5742,-0.021686,-0.0012217,0.021991,-55.92,-13.68,33.3
9.5751,-1.1577,-2.6015,-0.029932,0.01069,0.020159,-55.98,-13.74,33.24
9.5479,-1.1169,-2.5742,-0.032681,0.014966,0.012217,-55.86,-13.8,33.12
9.5887,-1.1441,-2.6015,-0.03146,0.027489,0.017104,-55.98,-13.86,33.06
9.6023,-1.185,-2.4789,-0.033598,0.027184,0.020159,-55.98,-13.98,33.18
9.5751,-1.1713,-2.5061,-0.032681,0.01069,0.020464,-55.98,-14.1,33.18
9.616,-1.185,-2.5061,-0.037263,-0.0073304,0.019853,-55.8,-14.28,33.18
9.6023,-1.1577,-2.4789,-0.037874,-0.0073304,0.010996,-55.8,-14.22,33.24
9.5887,-1.1169,-2.3018,-0.030543,-0.0036652,0.012523,-55.68,-14.16,33.3
9.6023,-1.1032,-2.4517,-0.029322,-0.0073304,0.017715,-55.74,-14.22,33.3
9.6296,-1.1169,-2.5198,-0.025351,-0.011912,0.018631,-55.8,-14.22,33.42
9.6023,-1.1305,-2.547,-0.03207,-0.026573,0.026573,-55.74,-14.22,33.42
9.5479,-1.1577,-2.5879,-0.030849,-0.037568,0.026878,-55.62,-14.16,33.36
9.4934,-1.1713,-2.5879,-0.032987,-0.044899,0.034208,-55.68,-14.1,33.36
9.4934,-1.1577,-2.5742,-0.030543,-0.03207,0.0281,-55.86,-14.1,33.36
9.5479,-1.185,-2.6968,-0.032987,-0.014355,0.020159,-55.74,-14.16,33.42
9.5342,-1.185,-2.6015,-0.028711,-0.0039706,0.013439,-55.74,-14.16,33.3
9.507,-1.0896,-2.4789,-0.027489,0.018937,0.015577,-55.74,-14.1,33.36
9.5751,-1.0896,-2.5061,-0.03207,0.012217,0.020464,-55.86,-14.04,33.54
9.6023,-1.1577,-2.4925,-0.03146,0.000611,0.023824,-55.8,-13.92,33.66
9.6023,-1.185,-2.5742,-0.025962,-0.0054978,0.022907,-55.8,-13.86,33.66
9.6023,-1.1577,-2.547,-0.033903,-0.017715,0.025351,-55.86,-13.8,33.48
9.6023,-1.1713,-2.6015,-0.025351,-0.0281,0.026573,-55.74,-13.92,33.42
9.5342,-1.185,-2.6696,-0.028405,-0.022602,0.029322,-55.8,-13.98,33.54
9.5342,-1.185,-2.6423,-0.026878,-0.0076358,0.023518,-55.74,-13.98,33.6
9.6023,-1.2258,-2.6015,-0.026878,0.012828,0.017715,-55.56,-13.92,33.6
9.5479,-1.1577,-2.547,-0.033598,0.0067195,0.020769,-55.62,-13.98,33.72
9.5751,-1.2395,-2.5334,-0.027184,0.0058032,0.014661,-55.62,-13.86,33.78
9.5479,-1.185,-2.6015,-0.029322,-0.0039706,0.02138,-55.62,-13.8,33.66
9.5479,-1.0896,-2.547,-0.033903,-0.010996,0.028405,-55.62,-13.74,33.6
9.6432,-1.1577,-2.5606,-0.025962,-0.0088575,0.022602,-55.56,-13.8,33.6
9.6023,-1.1441,-2.5606,-0.025962,0.0039706,0.021991,-55.8,-13.86,33.48
9.5479,-1.1577,-2.6015,-0.025656,0.0064141,0.021075,-55.74,-13.92,33.54
9.5887,-1.1986,-2.6287,-0.022297,0.0061087,0.023213,-55.68,-13.86,33.66
9.5479,-1.1577,-2.656,-0.026267,0.000611,0.023213,-55.56,-13.86,33.66
9.5479,-1.1305,-2.5742,-0.020769,-0.0027489,0.016493,-55.56,-13.86,33.66
9.5479,-1.2803,-2.6696,-0.029322,0.0012217,0.026267,-55.56,-13.8,33.72
9.5342,-1.2395,-2.6423,-0.02138,0.0018326,0.02138,-55.74,-13.86,33.66
9.5751,-1.1441,-2.6015,-0.027184,-0.0073304,0.022907,-55.5,-13.86,33.6
9.5479,-1.1577,-2.656,-0.029932,-0.0097738,0.021991,-55.56,-13.74,33.48
9.6704,-1.2122,-2.6015,-0.024435,0.0039706,0.025962,-55.74,-13.74,33.6
9.6023,-1.1713,-2.547,-0.02138,0.011912,0.020159,-55.8,-13.8,33.6
9.6296,-1.185,-2.6151,-0.023518,0.013744,0.023518,-55.8,-13.8,33.6
9.616,-1.2258,-2.6696,-0.025656,0.009163,0.036652,-55.56,-13.68,33.54
9.5751,-1.1986,-2.5879,-0.024435,-0.016493,0.034819,-55.68,-13.68,33.54
9.5479,-1.1986,-2.547,-0.031765,-0.024129,0.036957,-55.56,-13.56,33.66
9.5615,-1.2122,-2.6151,-0.028405,-0.020159,0.027794,-55.56,-13.62,33.72
9.5751,-1.2122,-2.6423,-0.023824,-0.0097738,0.020159,-55.5,-13.62,33.66
9.4798,-1.2122,-2.5879,-0.026878,0.0033598,0.0094684,-55.5,-13.62,33.54
9.507,-1.2258,-2.6696,-0.028405,0.031154,0.014661,-55.5,-13.5,33.54
9.5479,-1.2258,-2.6015,-0.041233,0.030543,0.013439,-55.56,-13.38,33.54
9.5479,-1.2395,-2.5606,-0.035736,0.025045,0.01405,-55.62,-13.38,33.6
9.6023,-1.2258,-2.547,-0.036957,0.0076358,0.013439,-55.62,-13.44,33.72
9.5751,-1.3076,-2.6832,-0.043982,-0.011301,0.0088575,-55.68,-13.38,33.6
9.5479,-1.2803,-2.5606,-0.040012,-0.011301,0.0082467,-55.62,-13.5,33.6
9.5615,-1.2122,-2.6423,-0.037263,-0.002138,0.0082467,-55.74,-13.8,33.84
9.5887,-1.2122,-2.6423,-0.038485,0.012217,0.002138,-55.74,-13.8,33.78
9.5751,-1.2395,-2.6287,-0.039401,0.016188,0.0064141,-55.8,-13.8,33.72
9.6023,-1.2258,-2.5879,-0.03879,0.011606,0.0067195,-56.1,-13.62,33.48
9.6023,-1.1577,-2.5198,-0.043066,-0.0027489,0.0073304,-56.1,-13.62,33.48
9.5479,-1.2258,-2.6151,-0.044593,0.0039706,0.010996,-56.1,-13.8,33.6
9.5479,-1.1713,-2.6696,-0.040012,0.0079412,0.010385,-56.04,-13.92,33.54
9.5751,-1.2531,-2.547,-0.039095,0.019548,0.0094684,-56.16,-14.04,33.6
9.6023,-1.2258,-2.6015,-0.032681,0.024435,0.010996,-56.04,-14.34,33.42
9.5479,-1.185,-2.5742,-0.03543,0.035125,0.011606,-55.86,-14.34,33.42
9.5479,-1.185,-2.4925,-0.03543,0.029016,0.0036652,-55.86,-14.34,33.54
9.5887,-1.1577,-2.4925,-0.035125,0.025045,0.013134,-55.74,-14.22,33.36
9.616,-1.1577,-2.4789,-0.033598,0.021686,0.0076358,-55.62,-14.16,33.36
9.5751,-1.2258,-2.5334,-0.028405,0.010996,0.0094684,-55.56,-14.22,33.42
9.5479,-1.1577,-2.5879,-0.033292,0.01405,0.0073304,-55.56,-14.16,33.6
9.5887,-1.2395,-2.5742,-0.031765,0.024435,0.011912,-55.5,-14.04,33.6
9.6023,-1.1713,-2.5742,-0.025351,0.022907,0.007025,-55.56,-13.92,33.66
9.6023,-1.2803,-2.4789,-0.030543,0.030849,0.012828,-55.38,-13.98,33.66
9.6023,-1.2258,-2.5879,-0.031765,0.02138,0.009163,-55.44,-13.98,33.72
9.5887,-1.2122,-2.6423,-0.040317,0.0024435,0.016493,-55.2,-13.92,33.72
9.5887,-1.1986,-2.5742,-0.043677,-0.0039706,0.012217,-55.2,-13.92,33.66
9.5479,-1.1713,-2.5606,-0.041539,-0.011606,0.015272,-55.38,-13.92,33.66
9.5751,-1.1441,-2.5606,-0.037874,0.0018326,0.0067195,-55.38,-13.86,33.6
9.5751,-1.185,-2.6015,-0.036041,0.0082467,0.010385,-55.62,-13.8,33.78
9.5751,-1.1441,-2.6015,-0.037568,0.018021,0.0012217,-55.74,-13.92,33.72
9.6568,-1.1169,-2.5061,-0.029627,0.026267,0.002138,-55.74,-13.92,33.66
9.6023,-1.1305,-2.547,-0.035736,0.020159,0.011606,-55.86,-14.04,33.72
9.616,-1.1305,-2.5334,-0.037568,0.012217,0.010385,-55.86,-14.16,33.84
9.5887,-1.1577,-2.4653,-0.034819,-0.0030543,0.012523,-55.86,-14.22,33.84
9.6568,-1.1305,-2.547,-0.048258,-0.009163,0.016493,-56.1,-14.16,33.84
9.507,-1.1577,-2.4789,-0.036041,-0.016188,0.01069,-56.1,-14.16,33.66
9.5615,-1.1169,-2.6015,-0.035736,-0.0045815,0.007025,-56.16,-14.16,33.78
9.5479,-1.1577,-2.5198,-0.037568,0.0085521,0.016188,-56.28,-14.16,33.96
9.5751,-1.1169,-2.5061,-0.033598,0.017104,0.012217,-56.28,-14.04,33.9
9.6296,-1.1713,-2.5334,-0.040623,0.010996,0.016799,-56.28,-14.1,33.96
9.6568,-1.1305,-2.547,-0.030849,0.010079,0.016188,-56.22,-14.1,33.78
9.5887,-1.0896,-2.547,-0.03543,0.01741,0.009163,-56.16,-14.04,33.9
9.5615,-1.1305,-2.5606,-0.034514,0.010385,0.010996,-56.04,-14.1,33.84
9.6704,-1.1441,-2.547,-0.031154,0.012523,0.009163,-55.98,-14.16,33.78
9.5615,-1.1577,-2.4789,-0.0281,0.011912,0.01405,-55.92,-13.98,33.6
9.5887,-1.1577,-2.4925,-0.036041,0.016799,0.015882,-56.04,-14.04,33.42
9.5751,-1.1441,-2.4517,-0.030238,0.0097738,0.016188,-56.04,-14.04,33.42
9.6432,-1.0896,-2.4517,-0.035125,0.0079412,0.017104,-55.86,-14.16,33.6
9.5615,-1.1441,-2.4925,-0.033598,-0.0048869,0.015882,-55.86,-14.1,33.54
9.5615,-1.1169,-2.5606,-0.03879,-0.0097738,0.012523,-55.92,-14.16,33.42
9.4934,-1.0896,-2.5061,-0.037568,0.0048869,0.014966,-55.68,-14.22,33.06
9.5751,-1.1169,-2.4925,-0.034514,0.010996,0.013134,-55.62,-14.34,33.12
9.6296,-1.1032,-2.5061,-0.037874,0.014966,0.015882,-55.56,-14.22,33.06
9.6432,-1.2122,-2.438,-0.031765,0.0015272,0.016493,-55.56,-14.16,32.94
9.6023,-1.1577,-2.4789,-0.031765,-0.0088575,0.022297,-55.68,-13.98,32.94
9.5887,-1.1577,-2.5061,-0.041233,-0.017715,0.018326,-55.8,-13.92,32.88
9.6023,-1.1577,-2.5061,-0.038485,-0.01741,0.02474,-55.8,-14.1,33.0
9.5887,-1.2258,-2.5061,-0.045509,-0.0061087,0.018937,-55.86,-14.04,32.94
9.5751,-1.1305,-2.4517,-0.044593,-0.000916,0.015577,-55.68,-13.98,33.06
9.5751,-1.1169,-2.5061,-0.032681,0.0061087,0.013439,-55.74,-13.92,33.12
9.5751,-1.1441,-2.547,-0.035736,0.0079412,0.014661,-55.98,-13.92,33.18
9.6023,-1.1305,-2.5198,-0.03207,0.0036652,0.010996,-55.98,-13.74,33.48
9.6023,-1.1441,-2.547,-0.03207,0.0036652,0.010996,-56.1,-13.8,33.6
9.6568,-1.1305,-2.547,-0.036346,-0.007025,0.01741,-56.04,-13.74,33.54
9.5887,-1.1305,-2.5334,-0.043371,-0.0048869,0.015577,-56.04,-13.74,33.6
9.6432,-1.2667,-2.547,-0.036041,-0.0067195,0.014355,-56.16,-13.8,33.6
9.5751,-1.1032,-2.547,-0.036041,-0.0036652,0.015272,-56.16,-13.98,33.54
9.6023,-1.1032,-2.5334,-0.038179,0.002138,0.013744,-56.1,-14.1,33.36
9.5479,-1.1577,-2.5061,-0.033292,0.0042761,0.010996,-56.04,-14.04,33.3
9.5206,-1.1577,-2.5742,-0.028405,0.0085521,0.012828,-55.86,-14.1,33.42
9.6296,-1.185,-2.5198,-0.025962,0.014355,0.010385,-55.92,-14.16,33.24
9.5887,-1.1305,-2.5061,-0.029016,0.0058032,0.017715,-55.98,-14.22,33.18
9.5479,-1.1169,-2.4925,-0.029016,0.0036652,0.013744,-55.8,-14.1,33.06
9.5206,-1.1169,-2.5606,-0.03207,-0.015577,0.02138,-55.74,-14.16,32.88
9.616,-1.1577,-2.3836,-0.022297,-0.010079,0.02138,-55.8,-14.1,32.94
9.5342,-1.2258,-2.4517,-0.031765,-0.0097738,0.027184,-55.68,-14.04,32.88
9.5342,-1.1441,-2.5061,-0.022602,-0.000916,0.01741,-55.68,-14.28,32.94
9.6023,-1.1441,-2.4653,-0.026878,0.007025,0.017715,-55.68,-14.22,32.94
9.5751,-1.1169,-2.4925,-0.034208,0.010079,0.016799,-55.56,-14.16,33.06
9.5342,-1.1305,-2.4789,-0.039401,0.0281,0.0082467,-55.5,-13.92,33.36
9.5479,-1.1441,-2.547,-0.047342,0.027184,0.0073304,-55.5,-13.98,33.24
9.5751,-1.1713,-2.5061,-0.039706,0.011606,0.01069,-55.5,-13.98,33.24
9.5751,-1.076,-2.547,-0.033598,0.0085521,0.022907,-55.5,-13.92,33.24
9.5887,-1.1169,-2.4925,-0.032987,-0.0027489,0.030238,-55.56,-13.98,33.24
9.5887,-1.185,-2.5061,-0.027489,-0.0073304,0.030849,-55.62,-14.04,33.36
9.5615,-1.1169,-2.5742,-0.036652,-0.0058032,0.025656,-55.74,-14.16,33.42
9.6023,-1.0896,-2.4925,-0.033903,-0.01069,0.027794,-55.62,-14.1,33.42
9.5751,-1.185,-2.5879,-0.027489,-0.013439,0.025351,-55.8,-14.1,33.48
9.5887,-1.1305,-2.4925,-0.028711,-0.014966,0.018326,-55.74,-14.04,33.54
9.5751,-1.2803,-2.6015,-0.021991,-0.013439,0.021686,-55.8,-13.92,33.54
9.6023,-1.1577,-2.4789,-0.031154,-0.013134,0.020464,-55.92,-13.98,33.48
9.5751,-1.0896,-2.5879,-0.027489,-0.018631,0.028405,-56.04,-14.1,33.24
9.616,-1.185,-2.5879,-0.038179,-0.0097738,0.023824,-56.04,-14.1,33.3
9.5751,-1.1713,-2.5334,-0.031154,-0.0097738,0.018937,-56.1,-14.04,33.24
9.5751,-1.1305,-2.5742,-0.035125,-0.0088575,0.023824,-56.04,-13.92,33.36
9.5479,-1.1577,-2.547,-0.034819,-0.011301,0.023518,-56.04,-13.92,33.42
9.5615,-1.1577,-2.5061,-0.035736,-0.0061087,0.021991,-55.98,-13.92,33.36
9.6296,-1.1577,-2.4517,-0.027489,-0.010996,0.016799,-55.98,-13.86,33.42
9.5479,-1.1986,-2.5742,-0.027794,-0.01405,0.018631,-55.98,-13.92,33.36
9.507,-1.1441,-2.4789,-0.021686,0.0012217,0.012828,-55.92,-13.98,33.36
9.5479,-1.1577,-2.4925,-0.022602,0.011912,0.025962,-56.04,-13.86,33.36
9.5751,-1.1577,-2.4789,-0.019242,0.0079412,0.018631,-55.98,-13.92,33.42
9.616,-1.1713,-2.547,-0.026267,0.0064141,0.023518,-55.92,-13.92,33.42
9.6704,-1.2258,-2.5061,-0.0281,-0.000305,0.020464,-55.86,-13.98,33.54
9.6296,-1.2122,-2.4789,-0.035125,-0.02474,0.024129,-55.92,-13.92,33.54
9.5751,-1.1441,-2.438,-0.035125,-0.023213,0.026573,-55.86,-13.86,33.6
9.507,-1.1986,-2.6015,-0.035125,-0.015272,0.020159,-55.74,-13.92,33.6
9.5342,-1.2667,-2.6423,-0.025045,-0.0051924,0.017715,-55.68,-13.92,33.6
9.5479,-1.2258,-2.6287,-0.018326,0.010996,0.013439,-55.86,-13.92,33.6
9.5479,-1.185,-2.6015,-0.02474,0.020464,0.020159,-55.74,-13.74,33.72
9.5206,-1.185,-2.5606,-0.029322,0.025351,0.018937,-55.8,-13.86,33.66
9.6296,-1.2531,-2.4789,-0.025656,0.019242,0.02474,-55.74,-13.98,33.6
9.6432,-1.2531,-2.4653,-0.03879,-0.002138,0.027489,-55.62,-13.98,33.6
9.5751,-1.2258,-2.4244,-0.034208,-0.016799,0.029932,-55.62,-14.04,33.48
9.5751,-1.1986,-2.5742,-0.031765,-0.026267,0.021075,-55.68,-14.1,33.6
9.5887,-1.1986,-2.547,-0.03207,-0.021991,0.025962,-55.74,-13.98,33.42
9.5342,-1.185,-2.5334,-0.026267,-0.017104,0.019548,-55.86,-13.98,33.3
9.4934,-1.2531,-2.5061,-0.029016,-0.0094684,0.020464,-55.98,-13.86,33.24
9.5751,-1.185,-2.5198,-0.028711,0.0027489,0.025962,-56.04,-13.86,33.18
9.5615,-1.2395,-2.547,-0.027794,-0.000611,0.027794,-56.04,-13.74,33.18
9.6432,-1.1986,-2.5198,-0.024129,-0.002138,0.031154,-55.98,-13.8,33.36
9.6023,-1.2258,-2.5606,-0.02138,-0.0064141,0.025045,-55.98,-13.86,33.24
9.5479,-1.1577,-2.6287,-0.031765,-0.014355,0.028405,-55.98,-13.74,33.12
9.4798,-1.185,-2.6287,-0.0281,0.000305,0.019853,-56.04,-13.74,33.24
9.5887,-1.2258,-2.6015,-0.032376,0.016493,0.010079,-56.04,-13.86,33.18
9.5479,-1.2258,-2.5879,-0.028405,0.023213,0.0082467,-56.04,-13.68,33.36
9.5342,-1.2395,-2.5061,-0.029322,0.036652,0.0039706,-56.1,-13.56,33.3
9.5751,-1.2803,-2.4517,-0.033903,0.044899,0.0079412,-55.86,-13.62,33.42
9.5479,-1.2395,-2.4517,-0.030849,0.032376,0.0015272,-55.86,-13.5,33.42
9.6023,-1.2258,-2.4925,-0.039095,0.016799,0.0048869,-55.74,-13.56,33.36
9.6023,-1.2395,-2.6015,-0.040317,0.0051924,0.0067195,-55.62,-13.5,33.48
9.6023,-1.185,-2.5198,-0.041233,-0.0033598,0.013134,-55.68,-13.68,33.24
9.5887,-1.185,-2.6423,-0.045509,-0.007025,0.011912,-55.74,-13.68,33.18
9.5887,-1.1713,-2.5742,-0.042455,-0.0085521,0.0048869,-55.86,-13.62,33.0
9.5751,-1.1305,-2.5061,-0.044899,-0.0018326,0.0097738,-55.8,-13.44,33.06
9.5479,-1.1577,-2.5606,-0.036041,0.020159,0.0088575,-55.8,-13.32,33.0
9.5479,-1.185,-2.4789,-0.035736,0.023824,0.012523,-56.04,-13.32,32.94
9.5751,-1.1577,-2.5334,-0.036652,0.022602,0.015577,-56.04,-13.32,32.94
9.6432,-1.1577,-2.5742,-0.033292,0.017715,0.014966,-55.98,-13.56,33.06
9.5887,-1.1577,-2.5198,-0.04215,0.0051924,0.016493,-56.04,-13.56,33.06
9.6296,-1.185,-2.547,-0.036041,-0.0051924,0.019853,-56.22,-13.62,33.06
9.6432,-1.1713,-2.547,-0.041539,-0.015577,0.018631,-56.28,-13.68,33.12
9.616,-1.2122,-2.6015,-0.037568,-0.016188,0.010996,-56.4,-13.74,33.12
9.616,-1.2122,-2.6015,-0.033903,-0.010996,0.010996,-56.4,-13.74,33.12
9.5479,-1.185,-2.5061,-0.032376,0.017715,0.0012217,-56.04,-13.68,33.48
9.616,-1.1713,-2.5606,-0.044899,0.029627,0.0061087,-56.1,-13.8,33.66
9.5887,-1.1169,-2.547,-0.03543,0.030238,0.0054978,-56.16,-13.86,33.66
9.6432,-1.1577,-2.4789,-0.03543,0.032681,0.019242,-55.92,-13.86,33.84
9.5887,-1.2258,-2.4244,-0.03879,0.01741,0.010996,-55.92,-13.8,33.78
9.6023,-1.1169,-2.5061,-0.039401,-0.000611,0.019242,-55.74,-13.86,33.78
9.5479,-1.1577,-2.5061,-0.042761,-0.0024435,0.013439,-55.92,-13.62,33.78
9.5887,-1.1577,-2.5061,-0.038179,-0.000305,0.014966,-55.74,-13.74,33.78
9.6023,-1.185,-2.4925,-0.042761,0.0030543,0.020769,-55.56,-13.86,33.54
9.6432,-1.1441,-2.5061,-0.043982,0.0036652,0.0097738,-55.44,-13.92,33.42
9.5479,-1.1713,-2.547,-0.03543,0.0027489,0.011301,-55.62,-14.04,33.24
9.5206,-1.1577,-2.5061,-0.035125,-0.002138,0.0088575,-55.62,-14.16,33.18
9.5751,-1.1713,-2.5334,-0.035125,-0.0018326,0.01741,-55.62,-14.16,33.18
9.5479,-1.2258,-2.5334,-0.036346,-0.0033598,0.015577,-55.62,-14.22,33.24
9.5751,-1.1577,-2.5061,-0.040928,0.0012217,0.014355,-55.74,-14.34,33.24
9.5751,-1.2803,-2.5061,-0.036652,-0.0030543,0.01405,-55.62,-14.34,33.06
9.616,-1.1032,-2.5334,-0.040317,-0.0027489,0.013439,-55.8,-14.22,32.94
9.6023,-1.1441,-2.5061,-0.039095,-0.0036652,0.0097738,-55.8,-14.28,32.88
9.6023,-1.1713,-2.547,-0.047342,0.000305,0.016188,-55.74,-14.22,32.88
9.6023,-1.1305,-2.5334,-0.03879,0.0027489,0.01405,-55.68,-14.04,32.88
9.6023,-1.1305,-2.5061,-0.036652,0.0024435,0.010079,-55.8,-13.98,32.94
9.616,-1.1577,-2.547,-0.036957,0.002138,0.018631,-55.68,-13.8,33.06
9.6023,-1.1713,-2.5606,-0.038179,0.0076358,0.011606,-55.8,-13.8,33.0
9.6023,-1.1305,-2.4789,-0.027184,0.0048869,0.016493,-55.92,-13.68,32.94
9.5751,-1.1986,-2.4653,-0.0281,0.0024435,0.019242,-55.86,-13.74,33.0
9.6023,-1.1577,-2.547,-0.030238,-0.0024435,0.01405,-55.56,-13.62,33.0
9.6023,-1.1441,-2.4789,-0.037263,-0.010996,0.017104,-55.56,-13.56,33.12
9.616,-1.1713,-2.4789,-0.040012,-0.010079,0.017715,-55.44,-13.68,33.18
9.5751,-1.185,-2.4789,-0.037874,-0.017104,0.011606,-55.56,-13.74,33.24
9.5751,-1.2122,-2.5061,-0.032681,-0.016799,0.016493,-55.56,-13.74,33.24
9.5479,-1.185,-2.5061,-0.045204,-0.011606,0.011912,-55.38,-13.86,33.3
9.5615,-1.1713,-2.5334,-0.034819,-0.0030543,0.011301,-55.62,-13.92,33.42
9.5615,-1.1441,-2.5742,-0.041233,0.0015272,0.012523,-55.62,-13.92,33.42
9.5342,-1.1441,-2.5606,-0.034208,0.0094684,0.014661,-55.62,-13.92,33.54
9.5751,-1.185,-2.547,-0.035125,0.0033598,0.018326,-55.38,-13.8,33.48
9.6023,-1.1169,-2.5198,-0.032681,0.0027489,0.014355,-55.5,-13.86,33.6
9.5479,-1.1577,-2.5198,-0.040012,-0.0024435,0.011301,-55.44,-13.74,33.54
9.5615,-1.1577,-2.4789,-0.037568,-0.011606,0.01741,-55.56,-13.5,33.6
9.5615,-1.1441,-2.6015,-0.037263,-0.0067195,0.018021,-55.68,-13.56,33.48
9.5479,-1.1441,-2.5606,-0.032681,0.000916,0.013134,-55.74,-13.44,33.48
9.6023,-1.1713,-2.6151,-0.033903,0.012828,0.0054978,-55.74,-13.44,33.42
9.507,-1.0896,-2.6423,-0.030849,0.010996,0.014661,-55.68,-13.32,33.54
9.5751,-1.1169,-2.5879,-0.033292,0.018326,0.015577,-55.74,-13.32,33.36
9.5615,-1.1305,-2.547,-0.033903,0.025656,0.014966,-55.62,-13.32,33.36
9.6023,-1.1441,-2.4925,-0.027184,0.019242,0.014661,-55.44,-13.38,33.24
9.5751,-1.185,-2.5061,-0.036652,0.0088575,0.0094684,-55.38,-13.38,33.18
9.6023,-1.185,-2.5061,-0.028711,0.0027489,0.016799,-55.8,-13.5,33.3
9.5887,-1.1169,-2.4789,-0.034208,-0.0039706,0.013134,-55.62,-13.44,33.24
9.507,-1.2258,-2.5198,-0.034208,-0.0030543,0.011301,-55.74,-13.56,33.24
9.6296,-1.1441,-2.5606,-0.033292,0.0027489,0.013744,-55.74,-13.8,33.18
9.6432,-1.185,-2.5061,-0.031765,0.0045815,0.0088575,-55.74,-13.74,33.12
9.6023,-1.1305,-2.5742,-0.036957,0.000305,0.020159,-55.8,-13.86,33.12
9.5615,-1.2258,-2.6151,-0.035125,-0.0039706,0.014661,-55.68,-13.92,33.24
9.5751,-1.1713,-2.5061,-0.03146,-0.0039706,0.018021,-55.62,-13.92,33.24
9.6023,-1.185,-2.4517,-0.039095,-0.009163,0.020159,-55.62,-13.92,33.3
9.6296,-1.2122,-2.547,-0.037568,-0.0064141,0.019242,-55.86,-13.92,33.36
9.5615,-1.1169,-2.547,-0.034208,-0.011606,0.017104,-55.92,-14.04,33.48
9.5887,-1.0896,-2.4108,-0.036957,0.0033598,0.013439,-56.04,-14.04,33.36
9.5751,-1.1032,-2.4517,-0.025656,0.0030543,0.016799,-55.86,-13.92,33.3
9.6023,-1.1169,-2.5061,-0.027489,-0.0024435,0.019853,-55.86,-13.98,33.24
9.5479,-1.1305,-2.5742,-0.029016,-0.0094684,0.016188,-55.86,-13.92,33.24
9.616,-1.1441,-2.5334,-0.027489,-0.015882,0.022297,-55.68,-13.86,33.24
9.5615,-1.1169,-2.5606,-0.038179,-0.017715,0.026267,-55.62,-14.1,33.12
9.5615,-1.1986,-2.656,-0.038179,-0.011606,0.020464,-55.62,-14.04,33.24
9.5342,-1.1305,-2.547,-0.036346,-0.013439,0.015577,-55.62,-14.04,33.24
9.4934,-1.185,-2.5742,-0.034819,0.0097738,0.015577,-55.68,-14.16,33.18
9.5206,-1.1713,-2.5606,-0.036652,0.022297,0.016493,-55.62,-14.22,33.18
9.6296,-1.1577,-2.547,-0.039401,0.034208,0.015272,-55.5,-14.22,33.12
9.5479,-1.0896,-2.5334,-0.024435,0.029016,0.015577,-55.44,-14.28,33.06
9.5751,-1.0896,-2.5061,-0.029016,0.024129,0.01741,-55.32,-14.28,33.24
9.6023,-1.1441,-2.5334,-0.027184,0.02138,0.018326,-55.32,-14.22,33.06
9.6023,-1.1577,-2.4925,-0.0281,0.015577,0.022602,-55.32,-14.28,33.06
9.5342,-1.1169,-2.4653,-0.026573,0.013134,0.025656,-55.26,-14.34,32.94
9.5751,-1.2122,-2.4925,-0.026573,0.011912,0.019242,-55.32,-14.34,32.94
9.6023,-1.2122,-2.5606,-0.018631,0.0033598,0.017715,-55.38,-14.22,33.12
9.6704,-1.1441,-2.4925,-0.027489,-0.0030543,0.017104,-55.32,-14.22,33.0
9.6568,-1.1441,-2.6015,-0.025351,-0.0082467,0.021686,-55.44,-14.1,33.0
9.6023,-1.1305,-2.6015,-0.0281,-0.0064141,0.022907,-55.38,-14.16,32.94
9.616,-1.1305,-2.5198,-0.032681,-0.0094684,0.024435,-55.5,-14.16,33.0
9.6023,-1.1577,-2.6015,-0.032681,-0.020159,0.031765,-55.5,-14.16,33.12
9.5615,-1.1713,-2.5742,-0.041844,-0.027184,0.029932,-55.56,-14.1,33.12
9.6023,-1.2122,-2.5061,-0.029932,-0.031765,0.0281,-55.56,-14.1,33.06
9.6023,-1.185,-2.547,-0.032681,-0.03207,0.026878,-55.56,-14.16,33.06
9.5615,-1.1577,-2.5742,-0.036041,-0.026878,0.030849,-55.62,-14.16,33.12
9.6023,-1.1441,-2.5334,-0.037568,-0.033903,0.026878,-55.74,-13.98,33.18
9.507,-1.185,-2.5198,-0.03146,-0.03146,0.031765,-55.98,-14.16,33.18
9.5479,-1.1577,-2.5879,-0.033598,-0.031765,0.023213,-55.92,-14.1,33.12
9.5887,-1.1713,-2.6287,-0.0281,-0.029322,0.023213,-55.92,-13.98,33.24
9.507,-1.2258,-2.4925,-0.03207,-0.023213,0.029627,-55.8,-13.92,33.18
9.5342,-1.1577,-2.547,-0.032376,-0.028405,0.031765,-55.92,-13.86,33.3
9.5479,-1.1713,-2.6423,-0.028711,-0.026573,0.029016,-55.98,-13.86,33.3
9.507,-1.1441,-2.547,-0.03146,-0.019242,0.022907,-55.98,-13.86,33.3
9.507,-1.1577,-2.6151,-0.021075,0.0012217,0.016799,-55.92,-13.86,33.24
9.6023,-1.2258,-2.6287,-0.026573,0.010996,0.027489,-55.86,-13.8,33.18
9.6568,-1.1713,-2.5879,-0.0281,0.0088575,0.029016,-55.86,-13.86,33.12
9.6296,-1.1986,-2.6151,-0.036041,-0.0088575,0.029627,-55.68,-13.8,33.12
9.5206,-1.1577,-2.6015,-0.03543,-0.0097738,0.034208,-55.56,-13.62,33.24
9.507,-1.1577,-2.5742,-0.029016,-0.019853,0.029016,-55.62,-13.62,33.3
9.4661,-1.2122,-2.5742,-0.021991,-0.011301,0.01405,-55.68,-13.68,33.36
9.5479,-1.2258,-2.6151,-0.022297,0.0054978,0.016188,-55.62,-13.68,33.24
9.5751,-1.2258,-2.6287,-0.020769,0.021075,0.0082467,-55.62,-13.86,33.3
9.5479,-1.1577,-2.6696,-0.03207,0.032987,0.012523,-55.44,-13.8,33.18
9.6023,-1.1986,-2.5606,-0.03146,0.029016,0.018326,-55.38,-13.8,33.24
9.6977,-1.1577,-2.5606,-0.031765,0.016188,0.023518,-55.44,-13.74,33.18
9.6432,-1.1577,-2.6287,-0.039095,-0.0054978,0.023518,-55.5,-13.68,33.24
9.5479,-1.2258,-2.5061,-0.035125,-0.02474,0.027794,-55.56,-13.68,33.36
9.507,-1.185,-2.5198,-0.039401,-0.032376,0.02138,-55.68,-13.44,33.54
9.4389,-1.1577,-2.5879,-0.036041,-0.0085521,0.018631,-55.68,-13.62,33.48
9.6296,-1.2531,-2.6696,-0.0281,-0.009163,0.013744,-55.56,-13.5,33.42
9.5479,-1.1986,-2.5742,-0.03146,-0.0045815,0.029627,-55.5,-13.5,33.3
9.5887,-1.185,-2.6151,-0.032987,-0.0076358,0.020769,-55.56,-13.38,33.24
9.5751,-1.2531,-2.5742,-0.037263,-0.0045815,0.023824,-55.62,-13.44,33.18
9.4934,-1.2803,-2.6015,-0.037874,0.0039706,0.018937,-55.62,-13.26,33.18
9.5479,-1.2395,-2.6968,-0.034514,0.007025,0.014355,-55.74,-13.38,33.12
9.5206,-1.2531,-2.5742,-0.041539,0.015882,0.013134,-55.8,-13.38,33.36
9.5751,-1.1986,-2.4789,-0.034514,0.027794,0.011606,-55.74,-13.44,33.42
9.5751,-1.2258,-2.5334,-0.033903,0.027489,0.014355,-55.68,-13.44,33.36
9.616,-1.2531,-2.5742,-0.030543,0.022907,0.016188,-55.8,-13.56,33.3
9.5887,-1.2122,-2.5879,-0.032987,0.014966,0.010385,-55.68,-13.56,33.24
9.5751,-1.2258,-2.547,-0.037568,0.0027489,0.01069,-55.8,-13.56,33.12
9.5342,-1.2122,-2.6151,-0.039401,-0.0088575,0.0030543,-55.68,-13.68,33.0
9.507,-1.2258,-2.6015,-0.042455,0.0079412,0.012523,-55.86,-13.86,33.06
9.507,-1.1577,-2.5061,-0.036041,0.01741,0.0094684,-55.8,-13.92,33.12
9.6023,-1.185,-2.5606,-0.034208,0.014661,0.01069,-55.74,-13.92,33.24
9.5751,-1.2258,-2.5061,-0.034819,0.017715,0.013744,-55.86,-14.04,33.18
9.6841,-1.1986,-2.5334,-0.037874,0.000305,0.018326,-55.86,-14.04,33.0
9.507,-1.1577,-2.5742,-0.036957,-0.01741,0.016799,-55.98,-13.8,32.88
9.5615,-1.2122,-2.5879,-0.038179,-0.015882,0.016493,-55.98,-13.86,32.82
9.5479,-1.2258,-2.6832,-0.039401,-0.012828,0.010385,-55.98,-13.86,32.88
9.5342,-1.2258,-2.6423,-0.03879,0.009163,0.0012217,-55.92,-13.92,32.76
9.4798,-1.2258,-2.6015,-0.03543,0.022602,0.000611,-55.92,-13.92,32.76
9.507,-1.1441,-2.4925,-0.033598,0.027489,-0.0018326,-55.8,-13.86,32.94
9.5479,-1.1441,-2.547,-0.028405,0.029016,0.010385,-55.86,-14.04,33.0
9.5751,-1.185,-2.5198,-0.026573,0.010079,0.012217,-55.68,-14.04,33.0
9.5751,-1.1305,-2.547,-0.040317,0.0039706,0.023518,-55.68,-14.04,32.88
9.5751,-1.2122,-2.547,-0.037263,0.0048869,0.016493,-55.62,-14.1,32.88
9.5751,-1.1986,-2.6015,-0.034819,0.007025,0.01405,-55.56,-14.1,32.94
9.4798,-1.1713,-2.6151,-0.039095,0.016799,0.014966,-55.68,-13.98,33.06
9.5479,-1.2122,-2.5742,-0.031154,0.016799,0.011301,-55.5,-14.22,33.06
9.5887,-1.2258,-2.4925,-0.036957,0.022907,0.0085521,-55.44,-14.1,33.12
9.6023,-1.185,-2.5879,-0.035125,0.017715,0.0061087,-55.56,-14.16,33.12
9.5751,-1.185,-2.5606,-0.03207,0.015577,0.011301,-55.5,-14.1,33.24
9.5887,-1.2395,-2.6015,-0.039095,0.011301,0.009163,-55.62,-14.1,33.36
9.5751,-1.185,-2.6423,-0.033598,0.012217,0.0088575,-55.56,-14.1,33.42
9.5751,-1.2531,-2.5061,-0.03879,0.020769,0.0067195,-55.56,-13.98,33.42
9.6296,-1.1986,-2.5061,-0.035125,0.015272,0.01741,-55.68,-14.04,33.42
9.6296,-1.2258,-2.6287,-0.036957,0.013134,0.018326,-55.68,-13.92,33.48
9.616,-1.2258,-2.4789,-0.039706,0.010996,0.016188,-55.8,-13.98,33.42
9.5479,-1.0896,-2.5198,-0.037263,0.0030543,0.0097738,-55.74,-14.04,33.42
9.616,-1.1577,-2.5742,-0.039095,0.0018326,0.012828,-55.74,-14.16,33.42
9.6023,-1.1169,-2.5742,-0.032681,-0.010996,0.015882,-55.62,-14.1,33.48
9.5751,-1.1577,-2.5742,-0.036652,-0.01405,0.015577,-55.62,-14.16,33.48
9.616,-1.185,-2.5879,-0.036041,-0.011912,0.013134,-55.56,-14.22,33.6
9.5887,-1.1986,-2.4789,-0.039401,-0.0024435,0.018631,-55.62,-14.16,33.78
9.5615,-1.2531,-2.5198,-0.03146,0.0067195,0.013439,-55.56,-14.16,33.66
9.5479,-1.2531,-2.547,-0.034208,0.0012217,0.012828,-55.68,-14.28,33.6
9.6023,-1.1986,-2.5742,-0.040317,-0.0036652,0.011912,-55.74,-14.46,33.72
9.5887,-1.1169,-2.4925,-0.04612,-0.0051924,0.018631,-55.68,-14.46,33.66
9.6023,-1.0896,-2.4925,-0.041233,-0.016493,0.024129,-55.62,-14.58,33.6
9.5342,-1.1577,-2.5198,-0.051618,-0.020769,0.02138,-55.56,-14.46,33.48
9.507,-1.0896,-2.5061,-0.038485,-0.02138,0.013439,-55.56,-14.4,33.42
9.5342,-1.1577,-2.547,-0.040317,-0.0073304,0.011912,-55.44,-14.28,33.6
9.507,-1.1032,-2.4789,-0.041844,0.009163,0.010996,-55.5,-14.34,33.36
9.5751,-1.1169,-2.4789,-0.032681,0.013744,0.0097738,-55.56,-14.4,33.42
9.5342,-1.1577,-2.5061,-0.034514,0.014355,0.0088575,-55.5,-14.22,33.42
9.5615,-1.1577,-2.5334,-0.032681,0.0073304,0.0088575,-55.62,-14.22,33.3
9.5751,-1.1577,-2.547,-0.03207,0.0039706,0.014355,-55.56,-14.22,33.24
9.6296,-1.1577,-2.6015,-0.03543,0.000916,0.014661,-55.44,-14.16,33.24
9.5615,-1.1577,-2.547,-0.032681,-0.002138,0.019242,-55.44,-13.92,33.24
9.616,-1.1577,-2.6015,-0.032681,-0.000305,0.018937,-55.38,-13.74,33.18
9.5751,-1.1713,-2.5606,-0.036957,0.0054978,0.018937,-55.44,-13.68,33.24
9.5751,-1.1441,-2.5879,-0.032987,0.012523,0.013439,-55.38,-13.74,33.3
9.6432,-1.1169,-2.5879,-0.035736,0.0076358,0.0097738,-55.32,-13.86,33.36
9.616,-1.0896,-2.4517,-0.037568,0.012217,0.014966,-55.38,-13.86,33.12
9.6023,-1.1713,-2.5198,-0.034208,0.009163,0.012828,-55.5,-13.74,33.24
9.616,-1.185,-2.5198,-0.031765,-0.0033598,0.017104,-55.44,-13.74,33.24
9.5615,-1.1713,-2.5742,-0.041539,-0.000305,0.014966,-55.56,-13.74,33.24
9.6432,-1.1169,-2.5879,-0.040012,-0.007025,0.022297,-55.56,-13.74,33.48
9.5751,-1.0624,-2.5879,-0.030238,0.000611,0.01741,-55.56,-13.74,33.54
9.6023,-1.2258,-2.5334,-0.031765,0.0088575,0.01405,-55.62,-13.92,33.54
9.5479,-1.2258,-2.4517,-0.030543,0.0076358,0.0097738,-55.5,-13.92,33.42
9.6023,-1.1441,-2.4789,-0.036346,0.000305,0.01069,-55.62,-14.1,33.24
9.5751,-1.185,-2.547,-0.035736,0.0024435,0.014661,-55.56,-14.22,33.3
9.5751,-1.1577,-2.5606,-0.03207,0.000916,0.023213,-55.68,-14.04,33.24
9.5751,-1.1713,-2.6015,-0.037874,-0.007025,0.016188,-55.68,-14.1,33.3
9.5751,-1.2258,-2.5742,-0.033598,-0.002138,0.010996,-55.74,-14.22,33.24
9.5751,-1.1441,-2.4925,-0.027184,-0.0012217,0.023213,-55.62,-14.34,33.3
9.616,-1.1577,-2.547,-0.031765,-0.0015272,0.013744,-55.5,-14.34,33.06
9.5751,-1.185,-2.5061,-0.036041,-0.0048869,0.014966,-55.56,-14.34,33.06
9.5479,-1.185,-2.5334,-0.027489,-0.0051924,0.013744,-55.56,-14.34,32.94
9.5751,-1.185,-2.5742,-0.030849,-0.0094684,0.015882,-55.5,-14.22,33.0
9.5615,-1.1577,-2.656,-0.036957,-0.0067195,0.021075,-55.62,-14.16,32.94
9.5751,-1.1169,-2.5742,-0.030238,-0.0085521,0.014355,-55.68,-14.16,32.94
9.5479,-1.1169,-2.6423,-0.0281,0.010385,0.013134,-55.74,-14.22,33.18
9.5206,-1.2122,-2.547,-0.027489,0.027489,0.018021,-55.74,-14.1,33.12
9.5479,-1.1577,-2.6015,-0.025962,0.027794,0.018021,-55.86,-14.16,33.24
9.6704,-1.1305,-2.4925,-0.028711,0.019853,0.020159,-55.92,-14.04,33.3
9.6432,-1.1577,-2.4653,-0.030849,0.0033598,0.020464,-55.86,-13.8,33.42
9.6432,-1.1577,-2.4517,-0.03146,-0.0082467,0.026267,-55.98,-13.86,33.36
9.4934,-1.2258,-2.5061,-0.036957,-0.021075,0.024129,-56.04,-13.92,33.48
9.5206,-1.185,-2.547,-0.037263,-0.031154,0.022297,-55.92,-13.92,33.54
9.4798,-1.1713,-2.5742,-0.03146,-0.015882,0.011301,-55.8,-13.92,33.48
9.4798,-1.1713,-2.6423,-0.034208,-0.0085521,0.010079,-55.86,-14.04,33.66
9.5887,-1.185,-2.6423,-0.029016,0.014355,0.015577,-55.86,-14.04,33.54
9.6023,-1.1169,-2.5742,-0.0281,0.015577,0.015882,-55.98,-13.92,33.66
9.5887,-1.0896,-2.4517,-0.027184,0.0039706,0.019242,-55.8,-13.98,33.66
9.6296,-1.1169,-2.5742,-0.039401,-0.015272,0.022907,-55.92,-13.98,33.78
9.5887,-1.1713,-2.547,-0.034819,-0.022602,0.027489,-55.86,-13.92,33.66
9.5479,-1.1713,-2.6015,-0.033903,-0.022907,0.033598,-55.86,-13.86,33.6
9.5887,-1.1441,-2.4789,-0.039706,-0.016799,0.023518,-55.86,-14.04,33.54
9.5479,-1.1577,-2.5061,-0.028711,-0.0088575,0.029627,-56.04,-14.04,33.36
9.5887,-1.1577,-2.6423,-0.025656,-0.016188,0.02138,-55.98,-13.98,33.3
9.5615,-1.1577,-2.5742,-0.027489,-0.0067195,0.018937,-56.04,-14.04,33.12
9.5615,-1.1441,-2.6423,-0.029016,-0.0064141,0.016188,-55.98,-13.86,33.18
9.5479,-1.1169,-2.5742,-0.03207,-0.0033598,0.018937,-55.98,-13.86,33.12
9.5751,-1.1713,-2.6423,-0.025656,-0.011606,0.015882,-55.92,-13.98,33.3
9.5887,-1.1713,-2.6287,-0.029322,-0.0097738,0.019548,-55.8,-13.98,33.12
9.5479,-1.185,-2.6287,-0.029627,-0.012523,0.027794,-55.92,-13.98,33.24
9.4934,-1.1577,-2.6287,-0.031765,-0.0027489,0.022602,-55.8,-13.92,33.18
9.5751,-1.1713,-2.6015,-0.030849,0.0039706,0.020464,-55.74,-13.92,33.24
9.5479,-1.2122,-2.5742,-0.03207,0.01069,0.02138,-55.8,-13.98,33.3
9.5751,-1.1577,-2.5742,-0.026573,0.009163,0.023213,-55.62,-13.74,33.36
9.5479,-1.185,-2.5742,-0.025656,0.0015272,0.022602,-55.5,-13.8,33.42
9.5751,-1.2667,-2.547,-0.027184,-0.0048869,0.021686,-55.44,-13.92,33.6
9.5751,-1.1577,-2.5334,-0.03146,-0.0097738,0.024129,-55.68,-13.74,33.66
9.5751,-1.2667,-2.4789,-0.027184,0.000611,0.01741,-55.62,-13.98,33.72
9.6023,-1.1986,-2.6015,-0.029627,-0.000611,0.018021,-55.62,-13.92,33.6
9.5751,-1.185,-2.5879,-0.029016,-0.000305,0.020769,-55.74,-13.8,33.48
9.5479,-1.2258,-2.5061,-0.03543,-0.0045815,0.018631,-55.8,-13.74,33.54
9.5206,-1.2122,-2.5061,-0.030238,-0.0048869,0.021075,-55.8,-13.74,33.6
9.6023,-1.1305,-2.6151,-0.025962,0.011912,0.012523,-55.86,-13.74,33.6
9.6023,-1.1577,-2.547,-0.026573,0.0085521,0.023518,-55.86,-13.74,33.42
9.6432,-1.2258,-2.5742,-0.02138,0.0097738,0.023213,-55.86,-13.74,33.42
9.6432,-1.2395,-2.5061,-0.023518,-0.011912,0.027794,-55.86,-13.92,33.6
9.5479,-1.2122,-2.547,-0.03146,-0.023213,0.03146,-55.98,-13.74,33.54
9.5479,-1.1577,-2.5334,-0.026878,-0.027184,0.025962,-56.04,-13.68,33.48
9.507,-1.2395,-2.5742,-0.031154,-0.007025,0.018937,-55.68,-13.8,33.3
9.4389,-1.2667,-2.5061,-0.023213,0.015882,0.0082467,-55.74,-13.68,33.24
9.5615,-1.2531,-2.6696,-0.021991,0.02474,0.0088575,-55.74,-13.62,33.24
9.5887,-1.1986,-2.6151,-0.036041,0.033903,0.011301,-55.56,-13.56,33.42
9.5751,-1.1441,-2.6287,-0.034819,0.034819,0.018937,-55.56,-13.56,33.48
9.616,-1.2395,-2.5198,-0.034819,0.016799,0.014661,-55.5,-13.5,33.48
9.6432,-1.2531,-2.5334,-0.034514,-0.002138,0.014661,-55.62,-13.68,33.42
9.5479,-1.1986,-2.6015,-0.034514,-0.013134,0.011301,-55.68,-13.68,33.66
9.5751,-1.2122,-2.4925,-0.034819,-0.0024435,0.017715,-55.5,-13.62,33.48
9.5615,-1.2258,-2.5742,-0.039095,-0.0024435,0.01741,-55.38,-13.56,33.24
9.5751,-1.2122,-2.4789,-0.029016,0.013439,0.0036652,-55.38,-13.74,33.18
9.6432,-1.1305,-2.6832,-0.029322,0.017715,0.0030543,-55.44,-13.74,33.18
9.5342,-1.1577,-2.6151,-0.034208,0.002138,0.0085521,-55.86,-13.8,33.24
9.5479,-1.185,-2.6015,-0.041233,0.0033598,0.0094684,-55.86,-13.98,33.3
9.5479,-1.1032,-2.5742,-0.035736,0.000611,0.015272,-55.92,-14.1,33.36
9.507,-1.1577,-2.6287,-0.034208,0.0094684,0.013134,-56.04,-14.1,33.36
9.4661,-1.1305,-2.6423,-0.036957,0.0076358,0.015882,-56.16,-14.16,33.3
9.4934,-1.2258,-2.5742,-0.033598,0.024129,0.011301,-56.28,-14.1,33.3
9.5615,-1.1577,-2.547,-0.038179,0.032987,0.011301,-56.22,-13.92,33.36
9.5615,-1.185,-2.5606,-0.024129,0.029016,0.0079412,-56.16,-13.92,33.24
9.6977,-1.1441,-2.547,-0.026878,0.027489,0.0073304,-56.22,-14.1,33.36
9.5887,-1.1305,-2.5061,-0.029627,0.013439,0.0073304,-56.28,-14.1,33.48
9.6023,-1.1713,-2.5334,-0.032987,0.0042761,0.010996,-56.34,-13.98,33.6
9.5615,-1.185,-2.4925,-0.034208,0.002138,0.0036652,-56.1,-13.92,33.72
9.5887,-1.1577,-2.4925,-0.031154,0.0097738,0.012523,-55.98,-13.8,33.72
9.5615,-1.2122,-2.5334,-0.044288,0.013134,0.016188,-55.98,-13.62,33.66
9.5479,-1.185,-2.5334,-0.037874,0.019548,0.007025,-55.98,-13.68,33.72
9.6023,-1.185,-2.6151,-0.037874,0.020159,0.0067195,-55.92,-13.68,33.66
9.5751,-1.185,-2.5879,-0.030238,0.025656,0.007025,-55.74,-13.74,33.6
9.6296,-1.1713,-2.547,-0.029932,0.020769,0.0079412,-55.62,-13.86,33.54
9.6432,-1.2258,-2.5334,-0.031154,0.011606,0.015272,-55.62,-13.86,33.6
9.6023,-1.185,-2.4789,-0.034819,-0.0027489,0.014966,-55.68,-13.92,33.6
9.6023,-1.2258,-2.5606,-0.04215,-0.013439,0.015577,-55.8,-13.8,33.6
9.5751,-1.1305,-2.4789,-0.038179,-0.023824,0.020769,-55.86,-13.8,33.42
9.5479,-1.2122,-2.6015,-0.041539,-0.024435,0.010996,-55.92,-13.86,33.18
9.5887,-1.1305,-2.6151,-0.040928,-0.0088575,0.015272,-55.8,-13.92,33.24
9.5887,-1.2122,-2.5334,-0.031154,0.0033598,0.0073304,-55.68,-13.98,33.18
9.5479,-1.1577,-2.547,-0.043066,0.014355,0.018937,-55.8,-13.92,33.18
9.6296,-1.1577,-2.4925,-0.043066,0.010385,0.014966,-55.74,-13.74,33.3
9.5751,-1.1441,-2.5061,-0.040012,-0.0039706,0.013439,-55.74,-13.74,33.24
9.6568,-1.1577,-2.3972,-0.037568,-0.010079,0.016493,-55.8,-13.8,33.12
9.5751,-1.185,-2.547,-0.035736,-0.011301,0.016188,-55.74,-13.92,33.06
9.5751,-1.2122,-2.5879,-0.036346,-0.011606,0.017104,-55.8,-13.92,33.06
9.5751,-1.1577,-2.5334,-0.03543,-0.0042761,0.010079,-55.68,-14.04,33.12
9.5887,-1.185,-2.5198,-0.029627,-0.000611,0.0097738,-55.56,-14.04,33.18
9.6296,-1.1986,-2.5606,-0.03207,-0.0018326,0.020464,-55.38,-13.98,33.3
9.6023,-1.1577,-2.5742,-0.032376,0.0018326,0.011912,-55.32,-13.98,33.42
9.5615,-1.1169,-2.6696,-0.037568,-0.0012217,0.0045815,-55.44,-13.98,33.3
9.6023,-1.1305,-2.4789,-0.038485,0.0018326,0.0097738,-55.44,-14.04,33.24
9.616,-1.1713,-2.5879,-0.034819,-0.002138,0.015272,-55.14,-14.1,33.06
9.5751,-1.1577,-2.5198,-0.044288,0.007025,0.017104,-55.2,-14.1,33.0
9.5887,-1.1986,-2.5742,-0.030238,0.0042761,0.011301,-55.2,-14.1,33.06
9.5751,-1.1032,-2.5742,-0.03207,-0.0024435,0.018021,-55.26,-13.92,33.24
9.5887,-1.185,-2.5198,-0.032987,0.0054978,0.018326,-55.14,-13.92,33.3
9.5615,-1.1577,-2.5606,-0.029016,0.0073304,0.011606,-55.26,-13.8,33.42
9.6432,-1.185,-2.5334,-0.027489,0.012217,0.0073304,-55.26,-13.74,33.24
9.6432,-1.185,-2.547,-0.031765,0.010079,0.01069,-55.5,-13.68,33.24
9.6023,-1.1169,-2.4789,-0.032376,0.011606,0.014661,-55.44,-13.8,33.12
9.5479,-1.1305,-2.4789,-0.0281,0.010385,0.013744,-55.5,-13.8,33.18
9.5206,-1.1441,-2.5742,-0.041233,0.0054978,0.018021,-55.38,-13.74,33.3
9.5887,-1.1577,-2.5334,-0.034208,0.0045815,0.01741,-55.38,-13.56,33.48
9.6296,-1.1441,-2.4653,-0.038179,-0.0030543,0.013134,-55.38,-13.56,33.42
9.6023,-1.185,-2.5879,-0.03543,-0.0042761,0.013744,-55.44,-13.62,33.3
9.6432,-1.185,-2.5879,-0.039706,-0.0082467,0.01405,-55.38,-13.86,33.3
9.5751,-1.1713,-2.4517,-0.034514,-0.0012217,0.012828,-55.32,-13.86,33.24
9.4798,-1.1713,-2.5334,-0.030543,0.009163,0.014661,-55.38,-13.74,33.12
9.616,-1.2122,-2.5334,-0.032987,0.0076358,0.011912,-55.38,-13.74,33.18
9.5751,-1.1441,-2.5198,-0.027489,0.013744,0.009163,-55.32,-13.68,33.18
9.5887,-1.1441,-2.5606,-0.031765,-0.0012217,0.011606,-55.26,-13.74,33.18
9.6296,-1.1305,-2.5334,-0.039095,-0.0045815,0.014661,-55.26,-13.5,33.24
9.6432,-1.1986,-2.5334,-0.034514,-0.016188,0.0085521,-55.26,-13.56,33.12
9.5479,-1.1169,-2.6015,-0.04215,-0.013744,0.016188,-55.44,-13.62,32.82
9.5751,-1.1441,-2.5879,-0.036652,-0.0097738,0.011912,-55.5,-13.62,32.88
9.5887,-1.1169,-2.6696,-0.038485,-0.0042761,0.01405,-55.5,-13.68,33.0
9.4934,-1.1577,-2.547,-0.036652,0.007025,0.0045815,-55.56,-13.56,33.06
9.5479,-1.1577,-2.547,-0.036652,0.015882,0.011301,-55.62,-13.56,33.0
9.6023,-1.185,-2.4789,-0.038485,0.013134,0.015272,-55.56,-13.44,33.0
9.5887,-1.1713,-2.547,-0.031765,0.0048869,0.014355,-55.62,-13.38,32.94
9.5751,-1.1577,-2.5061,-0.032376,0.0058032,0.022297,-55.56,-13.44,32.82
9.5887,-1.1305,-2.547,-0.032987,-0.000916,0.019548,-55.62,-13.56,32.76
9.6432,-1.0896,-2.547,-0.034819,0.0039706,0.022602,-55.68,-13.74,32.7
9.616,-1.185,-2.4925,-0.032987,-0.0064141,0.017715,-55.74,-14.04,32.7
9.5342,-1.185,-2.5061,-0.03543,-0.0054978,0.020769,-55.68,-14.04,32.82
9.5751,-1.1305,-2.5879,-0.03543,-0.0042761,0.016493,-55.62,-14.16,33.0
9.6023,-1.1169,-2.5606,-0.028711,0.0024435,0.013744,-55.68,-14.1,33.0
9.6023,-1.1305,-2.5879,-0.029932,0.013439,0.014355,-55.74,-14.22,33.12
9.5887,-1.185,-2.5879,-0.029016,0.021075,0.020159,-55.62,-14.4,33.18
9.5615,-1.2122,-2.6015,-0.029322,0.012523,0.017104,-55.62,-14.28,33.18
9.5887,-1.1305,-2.5198,-0.034819,0.0073304,0.018631,-55.68,-14.52,33.18
9.616,-1.185,-2.4517,-0.033292,-0.0054978,0.021075,-55.62,-14.52,33.24
9.6023,-1.1577,-2.6015,-0.030238,-0.02138,0.018326,-55.68,-14.52,33.24
9.5887,-1.1986,-2.4517,-0.033598,-0.015882,0.021991,-55.62,-14.46,33.3
9.4934,-1.1441,-2.5061,-0.033598,-0.019242,0.02138,-55.44,-14.4,33.3
9.507,-1.1577,-2.4789,-0.032376,-0.0085521,0.017104,-55.38,-14.22,33.42
9.5479,-1.1032,-2.5061,-0.029932,-0.010996,0.021991,-55.44,-14.16,33.36
9.5342,-1.1713,-2.5061,-0.027184,-0.0073304,0.018937,-55.5,-14.28,33.18
9.5751,-1.2258,-2.6015,-0.030238,-0.0054978,0.022602,-55.56,-14.4,33.24
9.5479,-1.2122,-2.547,-0.027184,0.000916,0.017104,-55.5,-14.34,33.12
9.6023,-1.1713,-2.547,-0.0281,0.0039706,0.013744,-55.62,-14.1,32.94
9.5751,-1.1305,-2.5742,-0.031765,-0.0061087,0.020159,-55.5,-14.04,33.0
9.6296,-1.1577,-2.5742,-0.034208,-0.013439,0.023518,-55.62,-13.92,33.12
9.5342,-1.1441,-2.5334,-0.028405,-0.014355,0.023213,-55.56,-14.04,33.18
9.5751,-1.1986,-2.4925,-0.027489,-0.011606,0.022602,-55.56,-14.04,33.24
9.5479,-1.1032,-2.5742,-0.030238,-0.0058032,0.015272,-55.62,-13.98,33.42
9.5615,-1.1169,-2.547,-0.031765,0.000305,0.016188,-55.8,-14.04,33.42
9.5615,-1.1441,-2.547,-0.026573,-0.011301,0.015577,-55.92,-13.98,33.3
9.5206,-1.185,-2.5606,-0.029322,-0.0088575,0.018937,-55.98,-14.04,33.36
9.5206,-1.1986,-2.5606,-0.030238,0.0039706,0.02138,-55.92,-14.04,33.48
9.5479,-1.1305,-2.5334,-0.022602,0.012523,0.0281,-55.86,-14.1,33.48
9.6432,-1.1577,-2.547,-0.026573,0.013439,0.016188,-55.98,-13.98,33.54
9.6704,-1.1577,-2.4108,-0.03207,-0.0051924,0.025962,-55.92,-14.16,33.54
9.6023,-1.1986,-2.547,-0.036957,-0.020769,0.026267,-55.92,-14.1,33.48
9.5342,-1.1713,-2.6015,-0.036957,-0.023213,0.029322,-55.92,-14.04,33.36
9.507,-1.1713,-2.5606,-0.0281,-0.018021,0.02474,-55.92,-13.92,33.42
9.5751,-1.1577,-2.6423,-0.029932,-0.0061087,0.017104,-55.86,-13.98,33.3
9.5206,-1.1441,-2.6151,-0.023824,0.0061087,0.010996,-55.8,-13.98,33.12
9.6023,-1.185,-2.5198,-0.027794,0.018326,0.017715,-55.74,-13.74,33.24
9.6023,-1.1169,-2.547,-0.029932,0.012523,0.01741,-55.56,-13.74,33.24
9.5887,-1.185,-2.5198,-0.029016,0.0082467,0.020769,-55.56,-13.68,33.3
9.5479,-1.185,-2.5606,-0.026573,-0.0048869,0.022297,-55.56,-13.62,33.42
9.6023,-1.1577,-2.5061,-0.039095,-0.010079,0.025351,-55.56,-13.62,33.36
9.5615,-1.1986,-2.5742,-0.036652,-0.013439,0.018326,-55.44,-13.5,33.36
9.5615,-1.185,-2.5061,-0.036346,-0.012828,0.021075,-55.26,-13.74,33.66
9.5751,-1.2258,-2.6015,-0.03146,-0.0045815,0.028405,-55.26,-13.74,33.78
9.5615,-1.1577,-2.6287,-0.03543,-0.0048869,0.023213,-55.2,-13.8,33.9
9.5615,-1.1577,-2.5606,-0.028405,-0.0033598,0.020464,-55.44,-13.8,33.78
9.5887,-1.1986,-2.5606,-0.033598,-0.0073304,0.018631,-55.44,-13.86,33.72
9.5342,-1.185,-2.6151,-0.036041,-0.01069,0.018631,-55.32,-13.8,33.72
9.5887,-1.185,-2.6423,-0.03543,-0.010996,0.016188,-55.32,-13.86,33.78
9.5751,-1.1577,-2.6287,-0.037263,-0.0042761,0.014966,-55.38,-13.86,33.6
9.5206,-1.1441,-2.5742,-0.035125,0.0061087,0.022602,-55.56,-13.92,33.66
9.5479,-1.1986,-2.6015,-0.029627,0.019242,0.016799,-55.5,-13.86,33.6
9.6432,-1.2122,-2.6423,-0.027794,0.029322,0.017715,-55.74,-13.86,33.24
9.5479,-1.1305,-2.5742,-0.026573,0.023824,0.016188,-55.62,-13.74,33.12
9.5887,-1.2258,-2.5742,-0.024435,0.022602,0.015272,-55.56,-13.8,33.3
9.6023,-1.2258,-2.5061,-0.030238,0.019548,0.018326,-55.44,-13.86,33.12
9.5751,-1.185,-2.4789,-0.031154,0.0082467,0.0082467,-55.5,-13.86,33.12
9.5751,-1.1986,-2.5061,-0.034819,0.002138,0.011301,-55.44,-13.74,33.06
9.5479,-1.1986,-2.547,-0.038179,-0.011912,0.0064141,-55.44,-13.86,33.24
9.5479,-1.2258,-2.5198,-0.035736,-0.0073304,0.0030543,-55.38,-13.86,33.18
9.5615,-1.1986,-2.5879,-0.042455,0.0088575,0.0045815,-55.68,-13.92,33.12
9.6023,-1.1986,-2.5606,-0.029016,0.015272,0.010385,-55.68,-13.98,33.3
9.5751,-1.1577,-2.5742,-0.034208,0.021991,0.007025,-55.74,-13.98,33.18
9.6568,-1.1986,-2.5061,-0.037263,0.011606,0.015577,-55.74,-14.04,33.12
9.6023,-1.2122,-2.4244,-0.036041,-0.022297,0.021686,-55.92,-13.8,33.24
9.5751,-1.185,-2.5198,-0.040928,-0.030238,0.020464,-56.04,-13.86,33.3
9.5479,-1.2258,-2.6151,-0.03207,-0.027794,0.016188,-55.92,-13.92,33.3
9.507,-1.2258,-2.6287,-0.030238,-0.013744,0.010079,-55.8,-13.92,33.18
9.5342,-1.1577,-2.547,-0.040623,0.0012217,0.0076358,-55.8,-13.86,33.36
9.616,-1.1713,-2.5742,-0.040012,0.011606,0.0033598,-55.62,-13.74,33.3
9.6704,-1.1577,-2.547,-0.037263,0.0048869,0.010385,-55.56,-13.62,33.18
9.6023,-1.1577,-2.5061,-0.031765,-0.018937,0.012828,-55.56,-13.74,33.24
9.6432,-1.1305,-2.5742,-0.031154,-0.03543,0.012828,-55.5,-13.62,33.36
9.5751,-1.1577,-2.5198,-0.030543,-0.045815,0.025045,-55.32,-13.74,33.36
9.5887,-1.185,-2.5742,-0.029322,-0.055283,0.021686,-55.32,-13.92,33.36
9.6432,-1.185,-2.5879,-0.032681,-0.064141,0.0073304,-55.32,-13.98,33.3
9.6432,-1.2258,-2.4653,-0.025656,-0.059254,0.0048869,-55.32,-14.04,33.36
9.4798,-1.1169,-2.6015,-0.023213,-0.047342,0.0036652,-55.38,-14.1,33.42
9.4253,-1.1032,-2.7241,-0.017715,-0.020464,0.0094684,-55.32,-13.98,33.54
9.4798,-1.3212,-2.7377,-0.013134,-0.01405,0.015882,-55.44,-13.98,33.66
9.6023,-1.185,-2.6287,-0.030849,-0.014661,0.0067195,-55.38,-14.1,33.78
9.6023,-1.185,-2.6423,-0.037263,-0.016188,0.0094684,-55.32,-14.16,33.66
9.5887,-1.1986,-2.6696,-0.043371,-0.044899,0.013134,-55.38,-14.16,33.66
9.507,-1.185,-2.6015,-0.03543,-0.049175,0.01405,-55.38,-13.98,33.72
9.4798,-1.1577,-2.6968,-0.03207,-0.044593,0.022907,-55.38,-13.92,33.48
9.5206,-1.185,-2.7649,-0.042455,-0.029627,0.016799,-55.44,-13.92,33.66
9.5479,-1.2122,-2.6696,-0.030849,-0.019242,0.0097738,-55.32,-13.8,33.48
9.5479,-1.1713,-2.6423,-0.034819,-0.014966,0.013134,-55.32,-13.68,33.48
9.616,-1.1713,-2.6968,-0.031154,-0.027489,0.010385,-55.32,-13.56,33.48
9.6023,-1.1169,-2.6423,-0.029932,-0.037263,0.010079,-55.2,-13.44,33.6
9.4934,-1.1713,-2.7377,-0.033292,-0.038485,0.0082467,-55.02,-13.62,33.9
9.4525,-1.1713,-2.6968,-0.031154,-0.033292,0.009163,-55.14,-13.62,33.96
9.4525,-1.1577,-2.7922,-0.034208,-0.021686,0.013134,-55.14,-13.74,33.9
9.4525,-1.1305,-2.7377,-0.032376,-0.01069,0.014966,-55.02,-13.74,33.96
9.4798,-1.1986,-2.7786,-0.035736,0.0076358,0.011606,-54.96,-13.68,33.96
9.4934,-1.1713,-2.7377,-0.031765,0.021075,0.0076358,-54.9,-13.74,34.08
9.5479,-1.1577,-2.7377,-0.029016,0.023518,0.010385,-54.84,-13.68,34.02
9.5751,-1.1577,-2.7377,-0.030849,0.015882,0.01069,-54.84,-13.8,34.02
9.4798,-1.1986,-2.656,-0.039095,0.0082467,0.01069,-54.72,-13.8,33.96
9.5342,-1.1577,-2.7377,-0.044899,-0.0045815,0.021991,-54.78,-13.56,33.9
9.5206,-1.1169,-2.7104,-0.051618,-0.015272,0.025962,-54.72,-13.74,33.78
9.5479,-1.185,-2.7377,-0.051618,-0.023213,0.022602,-54.54,-13.56,33.6
9.5615,-1.1577,-2.7649,-0.053451,-0.032376,0.025045,-54.48,-13.5,33.6
9.4525,-1.2258,-2.7513,-0.043371,-0.022602,0.014661,-54.42,-13.56,33.66
9.507,-1.1577,-2.7922,-0.048564,-0.007025,0.016493,-54.48,-13.5,33.6
9.4525,-1.1305,-2.7241,-0.049175,0.0012217,0.015272,-54.48,-13.5,33.78
9.4117,-1.1169,-2.6696,-0.051618,0.010385,0.012828,-54.54,-13.44,33.78
9.507,-1.1169,-2.833,-0.043066,0.025656,0.0097738,-54.6,-13.56,33.72
9.5751,-1.1169,-2.6968,-0.040928,0.024435,0.022907,-54.72,-13.74,33.9
9.5342,-1.1169,-2.7104,-0.040012,0.021075,0.02474,-54.9,-13.74,33.96
9.5342,-1.185,-2.6968,-0.043982,0.022297,0.02138,-55.02,-13.74,33.96
9.5751,-1.185,-2.6968,-0.041233,0.01741,0.026267,-55.08,-13.8,34.08
9.5342,-1.1986,-2.7377,-0.043371,0.011606,0.019548,-55.2,-13.8,34.02
9.507,-1.185,-2.6968,-0.046426,0.014661,0.020769,-55.2,-13.74,34.08
9.5615,-1.2258,-2.6968,-0.044288,0.018021,0.01405,-55.38,-13.68,33.9
9.5479,-1.1577,-2.6151,-0.040317,0.015577,0.013744,-55.56,-13.56,33.72
9.5479,-1.1577,-2.6968,-0.047647,0.016188,0.012523,-55.56,-13.62,33.66
9.5479,-1.1169,-2.6696,-0.043677,0.026267,0.011301,-55.38,-13.56,33.66
9.507,-1.1577,-2.7104,-0.043371,0.03207,0.0079412,-55.14,-13.5,33.36
9.4934,-1.1169,-2.6968,-0.034514,0.037263,0.0088575,-55.02,-13.62,33.42
9.5206,-1.0624,-2.6696,-0.032987,0.040012,0.013744,-55.02,-13.56,33.48
9.6023,-1.1441,-2.6696,-0.023824,0.036346,0.018021,-55.02,-13.56,33.6
9.5206,-1.0896,-2.6968,-0.026267,0.034819,0.018937,-55.02,-13.62,33.6
9.6023,-1.1305,-2.6696,-0.023824,0.032681,0.020159,-54.84,-13.8,33.66
9.5887,-1.1577,-2.7104,-0.026267,0.020159,0.022602,-54.72,-13.8,33.66
9.5342,-1.1577,-2.656,-0.026878,0.014966,0.018021,-54.66,-13.98,33.72
9.5615,-1.185,-2.6696,-0.031154,0.012217,0.0281,-54.6,-13.98,33.66
9.5751,-1.1441,-2.6287,-0.025962,0.010996,0.023213,-54.78,-13.98,33.84
9.5615,-1.1577,-2.6696,-0.022297,0.016188,0.019548,-54.72,-13.86,33.78
9.507,-1.1305,-2.6696,-0.031765,0.016188,0.020159,-54.6,-13.74,33.66
9.5479,-1.1577,-2.5879,-0.040012,0.013439,0.022602,-54.66,-13.68,33.54
9.5615,-1.1305,-2.547,-0.036041,-0.000916,0.017715,-54.72,-13.62,33.54
9.5615,-1.1986,-2.6287,-0.039706,-0.000305,0.021075,-54.84,-13.56,33.48
9.6023,-1.2122,-2.547,-0.040317,-0.010996,0.029627,-55.08,-13.5,33.6
9.5751,-1.1441,-2.4925,-0.04612,-0.015882,0.029322,-55.14,-13.38,33.72
9.5342,-1.185,-2.6287,-0.039095,-0.022297,0.022602,-55.26,-13.38,33.9
9.4525,-1.1577,-2.6968,-0.032987,-0.018021,0.017715,-55.32,-13.44,33.84
9.5479,-1.1986,-2.6832,-0.030238,0.0012217,0.024435,-55.32,-13.62,33.6
9.5479,-1.1169,-2.656,-0.030849,0.01069,0.026267,-55.5,-13.74,33.72
9.6704,-1.1032,-2.6151,-0.029932,0.0039706,0.023824,-55.5,-13.8,33.72
9.6023,-1.2122,-2.5742,-0.028711,-0.015882,0.026267,-55.5,-13.86,33.84
9.5479,-1.1577,-2.6287,-0.041539,-0.033598,0.031154,-55.56,-13.74,33.96
9.5615,-1.185,-2.6832,-0.036957,-0.050702,0.030543,-55.32,-13.86,34.08
9.6023,-1.2395,-2.6832,-0.033598,-0.037263,0.029932,-55.38,-13.74,34.02
9.4798,-1.1441,-2.7513,-0.033598,-0.026878,0.02138,-55.08,-13.86,33.9
9.4389,-1.1441,-2.6968,-0.029932,0.0015272,0.013439,-55.02,-13.86,33.96
9.4798,-1.1441,-2.6832,-0.032681,0.015272,0.015577,-55.14,-13.68,33.96
9.507,-1.185,-2.6696,-0.032987,0.020159,0.01069,-55.26,-13.68,33.96
9.5206,-1.1441,-2.6696,-0.032376,0.0094684,0.019853,-55.2,-13.68,33.96
9.507,-1.185,-2.6423,-0.034514,0.0042761,0.02474,-55.08,-13.68,34.08
9.5615,-1.185,-2.656,-0.036041,-0.0018326,0.022297,-54.96,-13.86,33.78
9.5751,-1.185,-2.656,-0.031765,-0.0058032,0.022602,-55.02,-13.8,33.78
9.507,-1.185,-2.656,-0.026878,-0.0048869,0.022602,-55.02,-13.8,33.6
9.5206,-1.1713,-2.7377,-0.026267,0.0079412,0.023824,-54.96,-13.98,33.54
9.4798,-1.1986,-2.7104,-0.022602,0.010079,0.019548,-55.02,-13.8,33.54
9.507,-1.1986,-2.6015,-0.025045,0.016188,0.016493,-55.32,-13.8,33.6
9.5887,-1.2258,-2.6015,-0.029322,0.0073304,0.021991,-55.26,-13.8,33.6
9.5479,-1.185,-2.6696,-0.031765,-0.000916,0.018937,-55.26,-13.98,33.42
9.4798,-1.2803,-2.6015,-0.024435,-0.0012217,0.016799,-55.26,-13.74,33.54
9.507,-1.1986,-2.6968,-0.0281,-0.0064141,0.021991,-55.38,-13.92,33.6
9.5206,-1.185,-2.6287,-0.021991,-0.0027489,0.018937,-55.38,-13.92,33.72
9.5479,-1.1986,-2.6696,-0.031154,0.0054978,0.025045,-55.5,-13.68,33.66
9.5615,-1.2258,-2.6015,-0.037874,0.0079412,0.025656,-55.5,-13.68,33.78
9.5751,-1.2531,-2.6696,-0.027794,0.0058032,0.018021,-55.5,-13.68,33.84
9.5751,-1.2531,-2.6696,-0.028711,-0.000916,0.023824,-55.5,-13.5,33.9
9.5479,-1.2531,-2.6696,-0.028711,0.0042761,0.022297,-55.62,-13.44,33.9
9.5751,-1.2258,-2.6696,-0.027184,0.007025,0.022602,-55.5,-13.44,33.9
9.5342,-1.2122,-2.7377,-0.028405,0.0036652,0.025351,-55.44,-13.5,33.9
9.5206,-1.2531,-2.6968,-0.031154,0.0051924,0.023213,-55.44,-13.56,33.96
9.507,-1.2258,-2.7377,-0.02474,-0.000916,0.017715,-55.56,-13.32,34.14
9.507,-1.185,-2.6151,-0.023213,0.012523,0.021991,-55.44,-13.5,34.08
9.5751,-1.2122,-2.6287,-0.020464,0.026573,0.016188,-55.38,-13.38,33.96
9.5342,-1.2531,-2.6015,-0.028405,0.02138,0.020769,-55.5,-13.5,33.66
9.5751,-1.2667,-2.6151,-0.030543,0.018326,0.02138,-55.38,-13.56,33.72
9.6296,-1.2258,-2.6423,-0.030543,0.012523,0.022907,-55.56,-13.62,33.6
9.4934,-1.2939,-2.5879,-0.037874,-0.0030543,0.011606,-55.56,-13.92,33.66
9.5342,-1.2395,-2.656,-0.02474,0.0064141,0.0054978,-55.56,-14.04,33.54
9.5206,-1.1441,-2.6015,-0.03543,0.014966,-0.000611,-55.62,-13.98,33.6
9.507,-1.2258,-2.7104,-0.039401,0.021686,-0.0018326,-55.8,-13.98,33.66
9.5615,-1.185,-2.6151,-0.043982,0.025045,0.0018326,-55.68,-14.1,33.66
9.5615,-1.185,-2.656,-0.035736,0.023824,0.0061087,-55.74,-13.92,33.48
9.5751,-1.1577,-2.6015,-0.04215,0.017715,0.0094684,-55.62,-14.16,33.42
9.5342,-1.1305,-2.6696,-0.040623,0.013744,0.015272,-55.62,-14.16,33.54
9.6023,-1.185,-2.6287,-0.034514,0.0027489,0.013134,-55.74,-14.16,33.54
9.5751,-1.185,-2.656,-0.03543,-0.0012217,0.012828,-55.74,-14.1,33.66
9.5206,-1.2122,-2.6423,-0.034514,0.019242,0.013439,-55.68,-14.04,33.72
9.507,-1.2258,-2.6015,-0.032376,0.036041,0.0094684,-55.74,-14.04,33.66
9.507,-1.2258,-2.7241,-0.026267,0.035125,0.0048869,-55.74,-14.04,33.54
9.5206,-1.2258,-2.5879,-0.034208,0.039401,0.0027489,-55.8,-13.8,33.48
9.5615,-1.1577,-2.4789,-0.026878,0.0281,0.0067195,-55.8,-13.68,33.6
9.5751,-1.185,-2.6015,-0.039706,0.021991,0.0039706,-55.68,-13.56,33.6
9.5479,-1.1577,-2.5879,-0.027184,0.010385,0.0042761,-55.5,-13.74,33.48
9.5751,-1.185,-2.6015,-0.029016,0.011301,0.0042761,-55.38,-13.92,33.6
9.5751,-1.1577,-2.5606,-0.031765,0.011912,0.017104,-55.5,-13.86,33.66
9.5479,-1.1577,-2.6696,-0.031154,0.01741,0.012523,-55.56,-13.86,33.54
9.5751,-1.1986,-2.6015,-0.0281,0.022297,0.013134,-55.44,-13.98,33.54
9.6023,-1.1169,-2.5061,-0.029932,0.023824,0.015882,-55.5,-13.92,33.6
9.5206,-1.2122,-2.5606,-0.030849,0.023213,0.015272,-55.74,-13.98,33.48
9.6023,-1.2122,-2.6151,-0.031765,0.025962,0.0082467,-55.74,-13.92,33.54
9.6432,-1.1986,-2.5061,-0.037568,0.025962,0.015272,-55.62,-13.92,33.66
9.5751,-1.185,-2.5334,-0.032681,0.02138,0.010385,-55.74,-14.04,33.6
9.6023,-1.1713,-2.4244,-0.027184,0.010385,0.0085521,-55.74,-14.16,33.54
9.7658,-1.1713,-2.5198,-0.037263,0.0054978,0.02474,-55.92,-14.28,33.48
9.6023,-1.2258,-2.5334,-0.040317,0.0018326,0.01405,-55.92,-14.16,33.54
9.6023,-1.2258,-2.5334,-0.037263,-0.0030543,0.0082467,-55.92,-14.16,33.54
9.5751,-1.185,-2.5742,-0.033903,0.0024435,0.0073304,-56.04,-14.1,33.6
9.5751,-1.185,-2.5742,-0.037568,0.012217,0.0082467,-56.04,-14.1,33.6
9.6296,-1.1577,-2.4925,-0.0281,0.023213,0.0054978,-55.62,-14.1,33.6
9.5887,-1.1441,-2.5061,-0.032376,0.021991,0.0067195,-55.2,-14.16,33.9
9.6023,-1.1441,-2.5061,-0.034514,0.023518,0.0088575,-54.9,-14.1,33.78
9.6023,-1.2122,-2.4925,-0.038485,0.014355,0.013744,-54.84,-14.16,33.72
9.6432,-1.1577,-2.5061,-0.039095,0.000611,0.009163,-54.96,-14.16,33.72
9.5615,-1.1577,-2.5334,-0.043982,-0.01069,0.016799,-54.84,-14.16,33.72
9.5342,-1.185,-2.6423,-0.036346,-0.017715,0.01069,-54.66,-14.22,33.6
9.5479,-1.1169,-2.6151,-0.036346,-0.014355,0.014966,-54.66,-14.1,33.3
9.507,-1.1441,-2.5742,-0.033598,0.0042761,0.0045815,-55.08,-14.04,33.42
9.5751,-1.1713,-2.5742,-0.029016,0.012523,0.01069,-55.32,-13.98,33.18
9.5342,-1.1577,-2.5198,-0.035736,0.018937,0.011606,-55.68,-13.98,32.94
9.5615,-1.1441,-2.5061,-0.03543,0.0085521,0.0085521,-55.86,-14.16,33.12
9.6432,-1.2258,-2.547,-0.035736,0.0033598,0.013134,-55.74,-14.16,33.24
9.6432,-1.1577,-2.4789,-0.035125,-0.0036652,0.014355,-55.68,-13.98,33.12
9.5751,-1.1577,-2.5606,-0.041539,-0.0097738,0.021075,-55.74,-13.86,33.24
9.5342,-1.1577,-2.5061,-0.042455,-0.011301,0.016799,-55.68,-13.98,33.24
9.5342,-1.1577,-2.547,-0.039401,-0.0067195,0.017715,-55.74,-13.98,33.18
9.5479,-1.1577,-2.5606,-0.03543,-0.0048869,0.017715,-55.8,-14.1,33.36
9.507,-1.1305,-2.5742,-0.023824,0.0045815,0.009163,-55.86,-13.98,33.18
9.5615,-1.1169,-2.547,-0.03146,0.009163,0.014355,-55.92,-13.98,33.36
9.5751,-1.185,-2.5606,-0.027489,0.011301,0.010079,-55.8,-13.92,33.24
9.5751,-1.1986,-2.547,-0.03207,0.009163,0.012828,-55.74,-13.98,33.36
9.5751,-1.185,-2.5061,-0.038179,0.0048869,0.017715,-55.68,-13.92,33.36
9.5615,-1.1169,-2.6015,-0.034819,0.000611,0.019242,-55.74,-13.86,33.24
9.5751,-1.1577,-2.5061,-0.033903,-0.0012217,0.016799,-55.56,-13.86,33.24
9.507,-1.1169,-2.5061,-0.040012,0.0018326,0.018937,-55.56,-13.92,33.18
9.5615,-1.1169,-2.5334,-0.032987,0.0036652,0.011301,-55.32,-13.92,32.94
9.5887,-1.1986,-2.5879,-0.036041,0.0067195,0.013134,-55.44,-13.86,33.12
9.5751,-1.1169,-2.5742,-0.030849,0.0039706,0.015272,-55.38,-13.8,33.18
9.5887,-1.1713,-2.6015,-0.030543,0.0033598,0.013134,-55.44,-13.74,33.24
9.5615,-1.1305,-2.5334,-0.038485,-0.0018326,0.01069,-55.32,-13.92,33.3
9.6023,-1.1577,-2.5198,-0.034208,0.0024435,0.018326,-55.44,-13.98,33.18
9.5479,-1.2258,-2.6015,-0.033292,-0.0012217,0.01405,-55.44,-13.98,33.12
9.507,-1.1169,-2.5606,-0.026573,0.0048869,0.019242,-55.32,-13.8,33.12
9.5479,-1.1032,-2.5742,-0.032987,0.0036652,0.020769,-55.26,-13.62,33.12
9.5751,-1.2803,-2.5606,-0.028405,-0.0033598,0.013134,-55.32,-13.68,33.12
9.6023,-1.1713,-2.5061,-0.031765,-0.009163,0.017715,-55.62,-13.8,33.24
9.7385,-1.1169,-2.4108,-0.023824,-0.038179,0.016188,-55.74,-13.74,33.42
9.8475,-1.1577,-2.3563,-0.010079,-0.11057,0.0097738,-55.86,-13.68,33.48
9.6977,-1.0488,-2.4244,0.020769,-0.1799,0.029627,-55.86,-13.74,33.36
9.4525,-1.0488,-2.5198,0.082467,-0.16402,0.04215,-55.92,-13.92,33.3
10.229,-1.1169,-2.152,0.17287,-0.057116,0.044899,-55.92,-13.8,33.3
10.896,-1.2258,-2.0431,0.28497,-0.26786,-0.048869,-55.86,-13.68,33.3
11.482,-1.2122,-2.2065,0.33078,-0.55161,-0.10324,-55.74,-13.56,33.36
11.414,-1.185,-2.438,0.40592,-0.78221,-0.18234,-55.74,-13.56,33.3
11.06,-1.0079,-2.6423,0.45448,-0.91599,-0.25107,-55.74,-13.44,33.36
10.855,-0.44947,-2.8603,0.55986,-0.98166,-0.41111,-55.62,-13.32,33.6
10.038,-0.16344,-2.3563,0.63622,-0.37507,-0.73212,-55.38,-13.14,33.78
10.052,-0.027241,-2.4108,0.70158,0.27428,-0.79382,-55.08,-12.96,33.72
10.488,0.01362,-3.1872,0.75106,0.63347,-0.82222,-54.36,-12.48,33.3
11.06,0.27241,-3.5277,0.68906,0.49388,-0.89309,-54.3,-12.24,33.12
10.637,0.24517,-3.4051,0.6243,0.13286,-1.0217,-53.64,-11.94,32.52
9.8066,0.24517,-3.2144,0.52901,-0.044899,-1.0229,-53.16,-11.7,32.22
9.4661,0.095342,-3.0646,0.49297,0.068417,-1.022,-52.44,-11.64,31.74
9.6704,0.10896,-3.1191,0.46334,0.095295,-1.044,-51.36,-11.34,30.6
9.7385,-0.01362,-3.1735,0.42119,0.090713,-1.0366,-50.64,-11.22,29.94
9.6704,-0.12258,-3.3097,0.36896,0.053145,-1.0314,-49.8,-11.04,29.4
9.6704,-0.35413,-3.3778,0.27275,-0.11973,-1.0299,-48.0,-10.92,27.9
9.4117,-0.40861,-3.1735,0.20861,-0.30665,-1.0131,-46.98,-10.74,27.12
9.2074,-0.44947,-3.2144,0.17379,-0.3766,-0.99479,-46.02,-10.56,26.34
8.5127,-0.58567,-3.0918,0.094684,-0.46426,-0.90805,-44.04,-10.2,25.32
8.2131,-0.61292,-3.0646,0.057421,-0.45448,-0.84269,-42.9,-10.02,24.84
7.8726,-0.5993,-3.0237,0.029932,-0.40164,-0.74281,-41.82,-9.84,24.6
7.5321,-0.57205,-3.0782,-0.014355,-0.34453,-0.55955,-39.6,-9.42,24.24
7.3414,-0.50395,-3.1599,-0.0281,-0.34147,-0.43494,-38.46,-9.18,24.06
7.2324,-0.50395,-3.1463,-0.047342,-0.35675,-0.30146,-37.62,-8.88,24.18
7.1915,-0.44947,-3.4596,-0.069639,-0.35858,-0.1576,-35.7,-8.4,24.24
7.1643,-0.32689,-3.6366,-0.082467,-0.37018,-0.025656,-34.98,-8.16,24.36
7.1371,-0.24517,-3.8409,-0.10965,-0.36011,0.10904,-34.26,-7.86,24.72
7.3414,0.040861,-4.1678,-0.15608,-0.33811,0.2642,-33.18,-7.44,25.26
7.2324,0.17706,-4.1678,-0.22694,-0.31979,0.48564,-32.82,-7.38,25.44
7.1507,0.31327,-4.2904,-0.2364,-0.31154,0.57085,-32.52,-7.38,25.8
7.1915,0.54481,-4.1951,-0.27367,-0.20525,0.82894,-31.98,-7.38,26.1
7.4095,0.51757,-4.2087,-0.31979,-0.10843,0.98869,-31.8,-7.44,26.16
8.0632,0.28603,-4.2632,-0.36805,-0.064752,1.0999,-31.74,-7.62,26.28
8.4174,0.14982,-4.1133,-0.40745,-0.093157,1.1774,-31.74,-7.62,26.4
8.6489,0.01362,-3.8546,-0.41844,-0.13836,1.2569,-32.4,-7.86,26.4
8.717,0.01362,-3.8001,-0.39156,-0.12217,1.3097,-32.76,-7.98,26.58
8.9349,-0.027241,-3.8137,-0.37965,-0.019548,1.3421,-33.42,-8.16,26.64
9.2891,-0.16344,-3.732,-0.35186,0.12645,1.3253,-34.86,-8.58,26.88
9.3572,-0.12258,-3.732,-0.31551,0.097738,1.2822,-35.88,-8.64,26.94
9.7658,-0.25879,-3.6911,-0.3036,0.06689,1.2657,-36.78,-8.76,27.24
10.202,-0.47671,-3.8546,-0.29566,0.15363,1.266,-39.06,-9.0,27.84
11.346,0.068102,-3.2416,-0.30788,0.20556,1.2025,-40.26,-9.06,28.32
11.904,0.6674,-2.9829,-0.19853,0.69883,0.89339,-41.58,-9.3,28.98
11.904,0.6674,-2.9829,-0.19853,0.69883,0.89339,-41.58,-9.3,28.98
13.375,-0.19068,-3.0646,-0.084605,0.32193,0.12584,-45.84,-9.9,30.66
11.073,0.23155,-2.5061,-0.061392,-0.33537,-0.012828,-47.22,-10.08,31.14
8.1858,0.16344,-2.438,-0.0048869,-0.80481,0.081551,-48.54,-10.2,31.62
6.8783,-0.88532,-2.9692,0.043066,-0.85888,0.15882,-50.58,-10.26,32.52
7.5593,-1.2122,-3.4596,0.062614,-0.48991,0.24404,-51.42,-10.38,32.94
8.826,-1.6072,-3.8682,0.014966,-0.1014,0.18204,-52.14,-10.38,33.3
10.351,-1.7025,-4.1814,-0.054367,0.01741,0.076358,-53.46,-10.68,34.2
10.093,-1.5391,-3.9499,-0.094073,-0.05681,0.011301,-54.0,-10.62,34.56
8.7851,-1.185,-3.6639,-0.10537,-0.1292,-0.032681,-54.66,-10.8,34.92
8.5536,-1.1577,-3.6366,-0.09499,-0.090408,-0.035125,-54.9,-10.86,35.28
8.826,-1.0351,-3.7592,-0.091935,0.032376,-0.0088575,-54.9,-10.74,35.22
9.1393,-1.1032,-3.732,-0.09896,0.14416,0.013744,-54.96,-10.74,35.1
9.3436,-1.076,-3.623,-0.094379,0.16035,0.012523,-54.66,-10.68,35.46
9.3299,-1.0896,-3.3915,-0.077885,0.14997,0.018021,-54.54,-10.56,35.46
9.3436,-1.1577,-3.4187,-0.068722,0.12706,0.0281,-54.36,-10.56,35.58
9.2618,-1.1169,-3.4323,-0.05681,0.080023,0.033598,-54.42,-10.8,35.76
9.3027,-1.2122,-3.4732,-0.040317,0.062614,0.029627,-54.48,-10.8,35.76
9.3163,-1.2258,-3.514,-0.047342,0.040317,0.033292,-54.6,-10.98,35.94
9.2891,-1.2258,-3.5413,-0.043677,0.022297,0.03146,-54.66,-10.98,35.76
9.2618,-1.185,-3.514,-0.039095,0.016188,0.029932,-54.72,-11.16,35.76
9.2346,-1.185,-3.4732,-0.046731,0.03146,0.019548,-54.9,-11.28,35.88
9.1937,-1.1713,-3.5277,-0.057116,0.043371,0.014966,-55.02,-11.4,35.64
9.2346,-1.1032,-3.5277,-0.045204,0.049175,0.0094684,-55.32,-11.58,35.64
9.221,-1.1577,-3.514,-0.055894,0.062919,0.011606,-55.38,-11.64,35.82
9.3844,-1.1169,-3.514,-0.048258,0.081856,0.013134,-55.56,-11.7,35.58
9.3163,-1.1441,-3.3778,-0.04948,0.088575,0.01405,-55.74,-11.82,35.7
9.3163,-1.1169,-3.3915,-0.055894,0.086743,0.014966,-55.8,-11.94,35.7
9.3436,-1.1441,-3.3506,-0.047037,0.051313,0.010385,-55.8,-11.88,35.82
9.3027,-1.1986,-3.3234,-0.046731,0.044288,0.012217,-55.8,-11.94,35.94
9.3163,-1.185,-3.4459,-0.040623,0.03146,0.015577,-55.86,-11.88,35.82
9.3163,-1.2258,-3.3506,-0.050396,0.029932,0.013134,-55.86,-12.0,36.0
9.221,-1.1441,-3.3915,-0.038179,0.047647,0.012217,-55.92,-12.06,35.94
9.221,-1.185,-3.4187,-0.041539,0.065363,0.011912,-55.86,-12.06,35.94
9.3436,-1.1577,-3.3778,-0.04612,0.072388,0.0048869,-55.98,-12.0,36.0
9.3436,-1.1577,-3.3234,-0.053145,0.08094,0.011606,-55.92,-12.06,35.94
9.3299,-1.0896,-3.2553,-0.057727,0.074831,0.010996,-55.98,-11.94,35.94
9.3572,-1.1032,-3.228,-0.061392,0.059865,0.0079412,-56.04,-12.0,35.88
9.398,-1.076,-3.1599,-0.048564,0.048869,0.0061087,-56.1,-12.0,35.82
9.398,-1.1577,-3.2689,-0.051313,0.022907,0.000611,-56.22,-12.0,35.64
9.3572,-1.1577,-3.2689,-0.053145,0.021991,0.0039706,-56.34,-12.24,35.46
9.3027,-1.1169,-3.3234,-0.048564,0.025656,-0.000916,-56.4,-12.3,35.4
9.3163,-1.1713,-3.2825,-0.058032,0.034819,0.0039706,-56.4,-12.42,35.28
9.3299,-1.1441,-3.4323,-0.055283,0.045509,0.0018326,-56.4,-12.48,35.1
9.4389,-1.1577,-3.2825,-0.056505,0.046426,-0.000305,-56.28,-12.36,35.1
9.4389,-1.1169,-3.2553,-0.052229,0.037568,0.0045815,-56.34,-12.48,35.04
9.3844,-1.1441,-3.228,-0.04948,0.02138,0.0058032,-56.4,-12.48,34.92
9.2755,-1.0624,-3.1872,-0.043371,0.012523,0.01405,-56.4,-12.36,34.74
9.3299,-1.0896,-3.2961,-0.039095,0.015882,0.020769,-56.28,-12.48,34.5
9.3163,-1.0896,-3.3097,-0.0281,0.012523,0.01741,-56.22,-12.54,34.56
9.4389,-1.1169,-3.2144,-0.030849,0.0076358,0.015272,-56.22,-12.72,34.56
9.3844,-1.1032,-3.2825,-0.031765,0.000916,0.019242,-56.28,-12.66,34.62
9.3299,-1.1169,-3.2825,-0.036041,-0.002138,0.020159,-56.22,-12.66,34.56
9.2891,-1.0896,-3.2144,-0.031154,-0.0048869,0.012523,-56.28,-12.66,34.5
9.2891,-1.1169,-3.2553,-0.032987,-0.002138,0.016799,-56.22,-12.54,34.56
9.3436,-1.1032,-3.2416,-0.042761,-0.0036652,0.016799,-56.34,-12.6,34.62
9.3299,-1.1169,-3.2825,-0.034514,-0.0048869,0.021686,-56.52,-12.66,34.5
9.3844,-1.1305,-3.2144,-0.034514,-0.013134,0.018326,-56.46,-12.6,34.38
9.3844,-1.1169,-3.1872,-0.030543,-0.022907,0.021991,-56.58,-12.6,34.62
9.398,-1.0624,-3.2553,-0.013134,-0.03146,0.026878,-56.34,-12.66,34.62
9.2891,-1.1305,-3.2825,-0.014355,-0.035736,0.027184,-56.52,-12.66,34.74
9.4117,-1.1169,-3.3097,-0.015577,-0.040928,0.034514,-56.52,-12.72,34.92
9.3708,-1.1577,-3.2825,-0.021075,-0.037874,0.034514,-56.46,-12.66,35.04
9.3027,-1.1713,-3.3097,-0.026878,-0.033292,0.032987,-56.46,-12.66,35.22
9.3299,-1.2258,-3.337,-0.029322,-0.025351,0.027794,-56.4,-12.66,35.16
9.2482,-1.1986,-3.3506,-0.03543,-0.0058032,0.022602,-56.34,-12.72,35.22
9.2618,-1.185,-3.3642,-0.035125,0.0085521,0.017104,-56.22,-12.72,35.22
9.3163,-1.1577,-3.2961,-0.035736,0.021991,0.01405,-56.16,-12.66,35.28
9.3572,-1.1169,-3.2689,-0.03207,0.026573,0.011606,-56.28,-12.54,35.4
9.3027,-1.0624,-3.3097,-0.0281,0.021075,0.007025,-56.34,-12.54,35.52
9.3572,-1.0896,-3.3097,-0.039095,0.016493,0.01741,-56.4,-12.42,35.52
9.3708,-1.1577,-3.2825,-0.035125,0.0097738,0.020464,-56.28,-12.48,35.46
9.4525,-1.0896,-3.2553,-0.03543,0.0088575,0.024435,-56.22,-12.42,35.52
9.3572,-1.0896,-3.3097,-0.026878,0.0088575,0.0281,-56.22,-12.36,35.4
9.3436,-1.1713,-3.2825,-0.019242,-0.0064141,0.031154,-56.34,-12.3,35.34
9.3299,-1.2395,-3.2825,-0.016493,-0.0030543,0.028405,-56.22,-12.24,35.22
9.3572,-1.2667,-3.4187,-0.020464,-0.0033598,0.033292,-56.28,-12.3,35.22
9.3436,-1.1441,-3.2825,-0.02138,-0.0051924,0.025962,-56.58,-12.18,35.34
9.398,-1.185,-3.2553,-0.028405,-0.0079412,0.031154,-56.58,-12.18,35.52
9.4253,-1.1441,-3.2416,-0.027489,-0.025351,0.028711,-56.52,-12.12,35.46
9.3436,-1.1441,-3.2008,-0.025656,-0.051007,0.040928,-56.4,-12.12,35.4
9.2482,-1.2258,-3.2416,-0.034514,-0.053756,0.025962,-56.34,-12.06,35.34
9.2755,-1.1713,-3.4187,-0.034819,-0.035736,0.017715,-56.34,-12.0,35.28
9.2346,-1.1441,-3.337,-0.030849,-0.0094684,0.011912,-56.58,-12.12,35.28
9.3708,-1.1986,-3.3778,-0.028711,0.018021,0.0082467,-56.46,-12.06,35.28
9.3572,-1.1713,-3.3506,-0.03879,0.037874,0.012523,-56.52,-12.0,35.34
9.3844,-1.1169,-3.4187,-0.030238,0.040928,0.016188,-56.52,-11.88,35.1
9.398,-1.1577,-3.2825,-0.02138,0.031154,0.029016,-56.64,-11.94,35.1
9.4389,-1.2122,-3.2553,-0.028711,0.015577,0.03146,-56.76,-12.06,35.16
9.4117,-1.1986,-3.3097,-0.01741,-0.014661,0.032376,-56.58,-12.12,35.28
9.3844,-1.2122,-3.2961,-0.025656,-0.017715,0.037874,-56.64,-12.12,35.1
9.2891,-1.2258,-3.2961,-0.020159,-0.015577,0.031154,-56.7,-12.06,35.1
9.3163,-1.2122,-3.2416,-0.024435,-0.015272,0.024435,-56.76,-12.06,35.1
9.3708,-1.2258,-3.3234,-0.026573,-0.0088575,0.025045,-56.88,-12.18,35.1
9.2891,-1.1986,-3.2961,-0.03146,-0.0054978,0.023518,-56.88,-12.12,35.22
9.3163,-1.1577,-3.3915,-0.029932,-0.007025,0.022602,-56.88,-12.06,35.16
9.3299,-1.2122,-3.2416,-0.031765,-0.0015272,0.014966,-56.94,-12.12,35.1
9.2618,-1.1441,-3.2961,-0.027794,-0.0018326,0.027184,-56.88,-12.06,34.98
9.3436,-1.2258,-3.3234,-0.022602,0.011606,0.025962,-56.7,-12.06,35.16
9.3299,-1.1713,-3.3506,-0.025656,0.011606,0.028405,-56.7,-12.06,35.28
9.3436,-1.2803,-3.2961,-0.024129,0.0054978,0.02138,-56.58,-11.94,35.04
9.3163,-1.1986,-3.2825,-0.022907,0.017715,0.026267,-56.64,-11.88,34.92
9.3163,-1.185,-3.2825,-0.026573,0.021991,0.026878,-56.64,-11.76,34.92
9.2891,-1.1577,-3.3778,-0.031154,0.019853,0.020464,-56.58,-11.82,34.92
9.3436,-1.1577,-3.3234,-0.025962,0.021075,0.021991,-56.46,-11.76,34.92
9.3436,-1.1713,-3.2961,-0.021686,0.0082467,0.021075,-56.4,-11.7,34.92
9.3708,-1.2667,-3.2416,-0.032376,0.010385,0.02474,-56.46,-11.76,34.74
9.3436,-1.2939,-3.2553,-0.030849,0.01405,0.016493,-56.34,-11.76,34.98
9.3436,-1.2803,-3.1872,-0.036041,0.017104,0.012828,-56.22,-11.7,34.98
9.3299,-1.185,-3.2553,-0.030849,0.019853,0.0030543,-56.28,-11.82,35.04
9.3436,-1.185,-3.3234,-0.027794,0.023824,0.0073304,-56.58,-11.76,35.04
9.3299,-1.185,-3.2689,-0.038179,0.033292,0.010079,-56.58,-11.7,34.92
9.3299,-1.1713,-3.3097,-0.030849,0.043371,0.0048869,-56.58,-11.64,34.98
9.4117,-1.2122,-3.2553,-0.037874,0.029322,0.0064141,-56.46,-11.52,35.1
9.3027,-1.2531,-3.2144,-0.031765,0.010079,0.01741,-56.52,-11.46,35.16
9.2618,-1.1577,-3.0918,-0.031765,0.010079,0.013134,-56.58,-11.52,35.16
9.3299,-1.3076,-3.1735,-0.037263,0.0082467,0.0048869,-56.46,-11.64,35.22
9.2891,-1.1986,-3.228,-0.03543,0.025656,0.0015272,-56.52,-11.64,35.22
9.3436,-1.1986,-3.2689,-0.037874,0.0281,0.0027489,-56.52,-11.58,35.4
9.3163,-1.185,-3.2825,-0.039706,0.041844,-0.0012217,-56.64,-11.58,35.34
9.3708,-1.1986,-3.228,-0.031154,0.053145,0.0054978,-56.7,-11.7,35.28
9.3436,-1.185,-3.1872,-0.03207,0.052229,0.0079412,-56.76,-11.64,35.34
9.4525,-1.1986,-3.1599,-0.031154,0.039706,0.015882,-56.58,-11.7,35.46
9.4389,-1.1577,-3.0918,-0.030543,0.029322,0.01405,-56.58,-11.82,35.4
9.4253,-1.1713,-3.1735,-0.034514,0.02138,0.016188,-56.7,-11.94,35.4
9.3844,-1.1713,-3.1191,-0.029932,0.01069,0.021075,-56.88,-12.06,35.28
9.3163,-1.2395,-3.1872,-0.024129,0.009163,0.012523,-56.76,-12.06,35.28
9.3436,-1.2667,-3.1191,-0.035736,0.013439,0.0048869,-56.7,-12.18,35.28
9.3844,-1.2122,-3.1191,-0.031765,0.021075,0.0082467,-57.0,-12.06,35.22
9.3844,-1.185,-3.2144,-0.034819,0.020159,0.012828,-57.06,-12.12,35.1
9.3299,-1.2122,-3.1872,-0.036041,0.018021,0.011301,-57.06,-12.24,34.98
9.3572,-1.185,-3.2144,-0.035125,0.019242,0.010079,-57.12,-12.18,34.74
9.4117,-1.1713,-3.1599,-0.031154,0.014355,0.019242,-57.18,-12.18,34.74
9.398,-1.1986,-3.1872,-0.036041,0.0073304,0.016493,-57.12,-12.24,34.68
9.4117,-1.1986,-3.1327,-0.03146,0.0088575,0.023213,-57.18,-12.3,34.56
9.3299,-1.1441,-3.1599,-0.034819,0.0076358,0.014966,-57.18,-12.3,34.56
9.3708,-1.1713,-3.1872,-0.029627,0.018937,0.011606,-57.12,-12.24,34.62
9.3436,-1.2258,-3.2553,-0.036346,0.019242,0.015577,-57.18,-12.24,34.74
9.3027,-1.185,-3.1599,-0.029932,0.027184,0.016799,-57.3,-12.42,34.56
9.3436,-1.2122,-3.2008,-0.029932,0.025351,0.01741,-57.24,-12.42,34.5
9.398,-1.1577,-3.1054,-0.023824,0.033598,0.010996,-57.12,-12.54,34.5
9.3436,-1.1986,-3.1191,-0.030238,0.031765,0.010079,-57.12,-12.48,34.5
9.3436,-1.2122,-3.1327,-0.029016,0.03207,0.0097738,-57.06,-12.54,34.56
9.4117,-1.1577,-3.0782,-0.029932,0.027489,0.0067195,-57.06,-12.6,34.56
9.398,-1.1986,-3.1327,-0.040012,0.030238,0.012217,-56.88,-12.42,34.5
9.3844,-1.185,-3.1191,-0.039706,0.02138,0.010079,-56.76,-12.48,34.5
9.3844,-1.1577,-3.0918,-0.031154,0.018631,0.010385,-56.88,-12.54,34.62
9.4389,-1.1986,-2.9965,-0.034819,0.0097738,0.024435,-57.06,-12.48,34.5
9.3436,-1.2258,-3.1599,-0.030849,0.0042761,0.011912,-57.0,-12.48,34.44
9.3436,-1.1577,-3.1191,-0.037874,0.0088575,0.011912,-56.88,-12.54,34.38
9.4389,-1.2122,-3.1872,-0.036346,0.01405,0.0085521,-57.06,-12.54,34.26
9.4117,-1.185,-3.1599,-0.03543,0.014661,0.012217,-57.0,-12.48,34.32
9.4934,-1.1577,-3.0782,-0.034208,0.0061087,0.022297,-57.12,-12.48,34.32
9.398,-1.1441,-3.1191,-0.031154,-0.0073304,0.017715,-57.06,-12.36,34.44
9.3844,-1.1577,-3.1191,-0.029932,-0.0094684,0.022297,-57.12,-12.42,34.44
9.3844,-1.2258,-3.1191,-0.031765,-0.014355,0.013744,-57.06,-12.54,34.62
9.4117,-1.2122,-3.1054,-0.025045,-0.0085521,0.012523,-57.18,-12.42,34.56
9.4253,-1.185,-3.0918,-0.035736,0.0067195,0.0079412,-57.24,-12.54,34.62
9.3844,-1.185,-3.1599,-0.039401,0.020769,0.0067195,-57.12,-12.48,34.62
9.3844,-1.185,-3.0782,-0.03146,0.03207,0.0082467,-57.12,-12.6,34.62
9.4117,-1.185,-3.0918,-0.034819,0.033903,0.010385,-57.0,-12.66,34.86
9.3844,-1.1577,-2.9965,-0.031154,0.026573,0.01405,-57.12,-12.54,34.92
9.4253,-1.185,-3.0373,-0.029627,0.017715,0.015882,-57.06,-12.72,34.8
9.3027,-1.1577,-3.0646,-0.030543,0.0085521,0.015882,-56.88,-12.72,34.86
9.3844,-1.1577,-3.0918,-0.032681,0.0085521,0.013744,-56.88,-12.72,34.8
