Ax,Ay,Az,Gx,Gy,Gz,Mx,My,Mz
2.2746,-9.112,-2.9148,-0.036652,0.029016,0.01741,-13.44,41.52,-5.22
2.261,-9.0575,-2.8603,-0.033292,0.014966,0.026267,-13.38,41.58,-4.98
2.2201,-9.1256,-2.8603,-0.036957,0.01069,0.021075,-13.32,41.58,-5.04
2.2882,-9.1393,-2.9556,-0.021991,0.0033598,0.027794,-13.32,41.58,-5.16
2.261,-9.1256,-2.8603,-0.026267,0.0045815,0.0281,-13.32,41.58,-5.22
2.2474,-9.1937,-2.8875,-0.03146,0.0097738,0.025656,-13.14,41.7,-5.16
2.3155,-9.1256,-2.9011,-0.036346,0.011301,0.025351,-13.32,41.7,-5.16
2.3563,-9.1256,-2.833,-0.030238,0.0097738,0.024129,-13.14,41.7,-5.22
2.2746,-9.0984,-2.8739,-0.035125,0.0051924,0.020464,-13.02,41.7,-5.1
2.2746,-9.112,-2.8467,-0.037568,0.0027489,0.023518,-12.9,41.88,-5.22
2.3155,-9.0848,-2.9148,-0.039706,0.0018326,0.017104,-12.84,41.82,-5.34
2.3427,-9.1529,-2.9284,-0.041844,0.000611,0.012217,-12.72,41.7,-5.22
2.3155,-9.1256,-2.8603,-0.040623,0.0061087,0.012828,-12.6,41.76,-5.34
2.2746,-9.112,-2.8467,-0.036957,0.0027489,0.012828,-12.66,41.82,-5.4
2.2882,-9.1937,-2.8603,-0.047647,0.0073304,0.011912,-12.66,41.82,-5.4
2.2474,-9.0848,-2.9148,-0.045509,-0.000916,0.011606,-12.66,41.88,-5.4
2.2474,-9.112,-2.8739,-0.047647,-0.0073304,0.01405,-12.78,41.82,-5.34
2.2201,-9.0712,-2.8058,-0.046426,-0.0051924,0.017715,-12.72,41.94,-5.46
2.2065,-9.1937,-2.8194,-0.048258,0.0033598,0.013744,-12.72,42.0,-5.46
2.2882,-9.0984,-2.9011,-0.036957,-0.000305,0.026878,-12.78,42.0,-5.4
2.2474,-9.1393,-2.8194,-0.032681,-0.012217,0.031154,-12.78,41.94,-5.4
2.1929,-9.1801,-2.8603,-0.038179,-0.0048869,0.017715,-12.72,41.94,-5.34
2.1793,-9.1393,-2.8603,-0.045815,-0.0051924,0.022602,-12.78,41.94,-5.34
2.261,-9.1529,-2.8467,-0.04948,0.011912,0.023213,-12.96,42.12,-5.28
2.2201,-9.1256,-2.7649,-0.041539,0.013744,0.018631,-13.02,42.12,-5.22
2.2746,-9.0848,-2.8058,-0.042761,0.007025,0.031154,-12.96,42.3,-5.04
2.2474,-9.0848,-2.8603,-0.041844,0.009163,0.023824,-13.08,42.3,-5.1
2.2201,-9.0303,-2.7241,-0.043982,0.012217,0.01741,-13.02,42.3,-4.92
2.2474,-8.9758,-2.6968,-0.037263,0.026573,0.018021,-12.96,42.3,-4.8
2.1793,-8.8668,-2.5742,-0.020159,0.044899,0.009163,-13.08,42.12,-4.62
2.2474,-8.9486,-2.6015,0.011912,0.04215,0.007025,-12.96,42.06,-4.5
2.3155,-8.9622,-2.8058,0.066584,-0.0030543,0.012828,-12.9,42.06,-4.38
1.8932,-8.8532,-2.8194,0.11851,-0.03543,0.014355,-13.02,42.06,-4.5
1.6617,-8.6762,-2.8739,0.12492,0.0018326,0.013439,-13.14,41.94,-4.5
1.6344,-8.6081,-2.9148,0.14416,0.043677,0.029627,-13.08,41.76,-4.56
1.757,-8.5672,-2.9284,0.18234,0.017715,0.065057,-13.02,41.88,-4.62
1.7025,-8.7715,-2.8603,0.23274,-0.03207,0.13439,-12.78,41.7,-4.74
1.6481,-8.8941,-2.7377,0.28833,-0.012828,0.28894,-12.78,41.4,-4.92
1.6344,-8.8941,-2.8194,0.33201,0.026573,0.32926,-12.54,41.34,-4.98
1.9613,-8.9622,-2.7649,0.42944,0.11606,0.45357,-12.54,41.34,-5.22
2.1112,-9.0303,-2.6968,0.45051,0.11759,0.48747,-12.3,41.28,-5.46
2.2474,-8.7851,-2.5606,0.53665,0.075442,0.51557,-11.94,41.46,-5.76
2.2474,-8.6625,-2.4517,0.59346,0.032987,0.51007,-11.7,41.52,-6.12
2.1656,-8.5944,-2.4108,0.66218,-0.03146,0.51129,-11.34,41.46,-6.48
2.1929,-8.8124,-2.5198,0.77244,-0.20495,0.59651,-10.92,41.4,-6.96
2.152,-9.0575,-2.6968,0.80451,-0.30604,0.67684,-10.5,41.4,-7.26
2.0703,-9.3299,-2.8058,0.80695,-0.29658,0.73976,-10.2,41.4,-7.5
2.0567,-10.256,-2.9829,0.75656,-0.19609,0.75014,-9.36,41.16,-8.1
2.3427,-10.556,-3.0782,0.66096,-0.072388,0.72265,-9.06,41.22,-8.52
2.656,-10.842,-3.1327,0.5565,-0.041539,0.66706,-8.58,41.22,-8.82
2.8058,-10.992,-3.2144,0.3653,-0.073915,0.52046,-7.8,41.22,-9.9
2.7513,-11.128,-3.1463,0.23702,-0.067195,0.40959,-7.26,41.16,-10.32
2.7377,-11.155,-3.0918,0.11393,-0.053756,0.28436,-7.08,41.1,-10.74
2.6287,-11.305,-3.0101,-0.033903,-0.050396,0.16096,-6.6,41.04,-11.22
2.3563,-11.319,-2.8603,-0.18937,-0.010996,0.034208,-5.94,40.98,-11.88
2.152,-11.101,-2.7104,-0.34331,0.095906,-0.09499,-5.7,41.04,-12.12
1.975,-10.706,-2.547,-0.47312,0.19975,-0.2306,-5.34,41.1,-12.3
1.8932,-10.515,-2.3836,-0.6243,0.25381,-0.36621,-4.98,41.04,-12.72
1.8387,-10.447,-2.2882,-0.70708,0.20892,-0.43249,-4.74,41.28,-12.84
1.7298,-10.324,-2.1248,-0.79015,0.19578,-0.52748,-4.74,41.28,-12.9
1.471,-9.7522,-1.6753,-0.85155,0.22266,-0.63011,-4.8,41.46,-12.9
1.4846,-9.5887,-1.6344,-0.88789,0.24068,-0.7309,-5.04,41.64,-12.84
1.4982,-9.2482,-1.2667,-0.85155,0.16829,-0.78802,-5.22,41.64,-12.72
0.99429,-8.6489,-1.3212,-0.81092,0.11729,-0.759,-5.7,41.88,-12.12
0.6674,-8.3084,-1.1032,-0.65851,0.028405,-0.58246,-5.88,42.06,-11.76
0.38137,-7.9679,-1.0215,-0.51832,0.0076358,-0.41814,-6.3,42.12,-11.58
0.14982,-7.4776,-0.96704,-0.36805,-0.010385,-0.21075,-7.02,42.24,-10.92
0.10896,-7.3958,-1.1169,-0.17715,-0.040317,0.0085521,-7.38,42.3,-10.56
0.24517,-7.4367,-1.2258,0.013439,-0.077885,0.20372,-7.62,42.42,-10.26
0.54481,-7.4912,-1.5119,0.24679,-0.13286,0.43127,-8.34,42.66,-9.72
0.70826,-7.7772,-1.8387,0.36835,-0.13806,0.52809,-8.64,42.6,-9.36
0.83084,-7.927,-2.0022,0.4444,-0.13836,0.57788,-8.7,42.66,-9.18
0.99429,-8.2131,-2.2882,0.49908,-0.11545,0.60048,-8.94,42.66,-8.82
1.1577,-8.4446,-2.6151,0.5342,-0.097128,0.62644,-9.0,42.66,-8.34
1.2803,-8.6625,-2.8467,0.54092,-0.052229,0.6466,-8.82,42.42,-8.04
1.3757,-8.8668,-3.1735,0.5455,0.022907,0.67195,-8.76,42.48,-7.92
1.5391,-8.9349,-3.3097,0.54123,0.12126,0.68509,-8.52,42.36,-7.74
1.7434,-8.9622,-3.4459,0.51191,0.31979,0.68234,-8.28,42.36,-7.56
1.866,-8.9894,-3.514,0.47586,0.48167,0.64477,-7.98,42.24,-7.5
2.6968,-9.1256,-3.7047,0.46976,0.63408,0.5962,-7.02,41.94,-7.62
3.2553,-9.0575,-3.9227,0.42241,0.69028,0.50335,-6.66,41.82,-7.74
4.522,-9.0575,-4.3449,0.30574,0.54214,0.41294,-5.46,41.64,-7.92
5.3528,-8.7715,-4.4811,0.28039,0.3036,0.2474,-4.98,41.58,-7.92
5.6797,-8.6081,-4.5764,0.24557,0.1576,0.1573,-4.44,41.52,-7.86
5.7342,-7.8726,-4.7671,0.072693,0.036652,-0.12431,-3.18,41.34,-8.04
5.6252,-7.5593,-5.0123,-0.053451,0.19853,-0.38454,-2.7,41.16,-8.16
5.9657,-7.355,-4.6037,-0.19884,0.40714,-0.64904,-2.28,41.16,-8.16
6.4697,-6.7148,-4.4947,-0.32987,0.55283,-0.91783,-1.62,40.92,-8.22
6.7693,-7.1371,-4.5083,-0.38485,0.52534,-1.1576,-1.38,40.74,-8.16
6.9872,-7.3822,-4.7671,-0.44013,0.0082467,-1.4236,-1.2,40.68,-8.28
7.4231,-8.3901,-5.0123,-0.48472,-0.58826,-1.5669,-1.38,40.68,-7.92
7.1643,-9.6432,-4.6718,-0.58704,-1.1564,-1.6997,-1.8,40.8,-7.62
6.7148,-11.414,-4.6718,-0.74067,-1.4303,-1.7871,-2.1,40.74,-7.38
6.4152,-15.309,-4.3313,-0.88911,-1.4737,-1.8363,-3.3,40.74,-6.48
6.456,-17.243,-3.4459,-0.92332,-1.4539,-1.8375,-3.96,40.8,-6.18
6.4016,-17.924,-2.9284,-0.88301,-1.3002,-1.8656,-4.8,40.8,-5.82
5.8295,-18.306,-2.3291,-0.7199,-1.2523,-1.8928,-6.72,40.92,-4.98
5.7342,-17.788,-2.1248,-0.4499,-1.4633,-1.8641,-7.68,40.86,-4.44
5.5707,-17.203,-1.3484,-0.1405,-1.8738,-1.69,-8.58,40.74,-3.84
3.8546,-16.167,-0.57205,0.07025,-2.3308,-1.3604,-10.32,40.74,-2.76
2.8603,-14.369,-0.14982,0.20556,-2.5797,-1.0052,-11.16,40.74,-2.28
2.1929,-13.021,0.21793,0.34453,-2.6628,-0.66462,-12.0,40.74,-1.8
-0.51757,-7.3005,1.5391,0.50519,-2.2822,-0.3427,-13.26,40.68,-0.96
-1.9886,-4.3177,2.0839,0.61087,-1.726,-0.36133,-13.68,40.5,-0.6
-2.8058,-2.0022,2.6696,0.68783,-1.04,-0.39767,-14.16,40.5,-0.24
-3.5413,0.23155,2.5879,0.7984,-0.52687,-0.3372,-14.94,40.38,-0.3
-2.9829,-0.01362,2.3972,0.89431,-0.22602,-0.09163,-15.3,40.38,-0.48
-2.8058,-0.6674,2.1793,0.8885,-0.16738,0.034514,-15.48,40.44,-0.66
-2.7377,-1.1169,2.1656,0.75472,-0.040012,0.47525,-15.66,40.62,-0.96
-3.0646,-2.8194,1.7162,0.56902,0.17807,0.81245,-16.02,41.04,-1.8
-2.8875,-5.0259,1.1441,0.38026,0.6182,1.138,-16.26,41.16,-2.64
-2.2337,-8.3084,-0.76274,0.23243,1.011,1.5327,-16.62,41.34,-3.3
1.0351,-18.578,-1.3757,0.10446,1.7028,2.1756,-17.28,41.64,-4.74
6.0066,-19.477,-3.2553,-0.023213,2.3753,2.1347,-17.4,41.76,-5.34
9.0712,-19.518,-4.2223,0.013439,2.9871,1.42,-17.46,41.76,-5.88
12.49,-19.532,-4.6445,-0.021991,3.4352,0.56444,-17.58,41.58,-6.84
11.618,-18.36,-4.6037,-0.17501,3.1741,-0.17532,-17.34,41.4,-7.2
10.474,-14.07,-5.6116,-0.050091,2.032,-0.7645,-16.32,41.04,-6.9
8.0224,-6.2517,-5.6116,-0.072082,1.2052,-0.42669,-15.42,40.8,-6.48
6.6195,-3.1191,-5.38,-0.19334,0.80176,0.19761,-14.52,40.68,-6.18
5.8159,-1.4574,-5.5571,-0.34086,0.9166,0.42822,-13.44,40.14,-6.0
4.6173,3.0918,-5.8023,-0.53451,1.2538,0.24709,-10.86,39.72,-5.4
4.699,5.5435,-5.7614,-0.71196,1.4291,-0.047953,-9.6,39.6,-4.98
4.6309,7.2869,-5.203,-0.5962,1.091,-0.50396,-6.78,39.0,-4.2
3.4459,7.2869,-4.699,-0.43555,0.51404,-0.79901,-5.34,38.82,-3.84
3.4459,6.2517,-4.9987,-0.3821,0.13347,-0.9557,-4.2,38.58,-3.66
4.0316,5.3256,-4.9442,-0.40653,-0.25504,-1.1054,-3.24,38.52,-3.54
4.8488,4.3177,-5.1349,-0.3879,-0.81978,-1.346,-2.46,38.46,-3.48
6.9191,0.99429,-5.6252,-0.39554,-1.3833,-1.5944,-1.62,38.34,-3.24
7.8589,-1.3757,-6.1155,-0.41692,-1.8937,-2.0027,-1.74,38.22,-3.42
10.815,-8.3901,-6.8102,-0.39095,-2.065,-2.1261,-3.36,37.92,-3.72
13.157,-14.233,-6.9055,-0.24312,-1.6881,-2.1945,-4.56,37.62,-3.84
14.969,-17.952,-6.9191,-0.1127,-1.8515,-1.96,-6.18,37.56,-3.72
18.565,-19.504,-7.0553,0.055589,-2.1863,-1.8308,-9.84,37.08,-3.72
18.156,-19.532,-6.6331,0.21564,-2.5559,-1.5446,-11.58,36.84,-3.54
16.971,-19.532,-5.5162,0.17104,-2.762,-1.2407,-13.5,36.6,-3.3
10.91,-19.532,-1.866,-0.17501,-2.4694,-0.94165,-16.98,36.42,-3.0
8.6353,-19.218,-0.64016,-0.32926,-2.1958,-0.81001,-18.42,36.24,-2.82
4.7263,-15.091,1.1169,-0.57024,-1.6909,-0.70616,-19.98,36.0,-2.46
0.35413,-8.5944,2.1248,-0.54062,-1.0525,-1.0195,-22.08,35.7,-1.74
-1.7706,-4.1814,2.438,-0.41386,-0.66401,-1.138,-22.98,35.52,-1.62
-2.6968,-2.261,2.7786,-0.2981,-0.21686,-0.94195,-24.24,35.34,-1.26
-3.0782,-1.2122,3.2961,-0.27336,-0.087965,-0.75259,-24.54,35.16,-1.26
-3.0918,-1.4301,3.7728,-0.29169,-0.011606,-0.60537,-24.66,35.04,-1.14
-3.0373,-1.4438,3.9227,-0.32193,-0.025045,-0.50824,-24.6,34.86,-1.08
-3.0918,-1.2122,3.732,-0.40012,0.068417,-0.12492,-24.24,34.5,-1.02
-3.0918,-1.5663,3.5685,-0.39859,0.26389,0.15119,-24.18,34.44,-1.26
-2.8194,-2.7922,2.9011,-0.32315,0.46823,0.41478,-23.76,34.2,-1.5
-2.2337,-6.0202,0.76274,-0.23457,0.45998,0.64843,-23.52,33.66,-2.28
-2.1112,-7.8589,0.6674,0.030238,0.35583,0.87018,-23.64,33.54,-2.64
-1.5936,-15.827,0.43585,0.18051,0.55772,1.1533,-23.64,33.24,-3.24
4.522,-19.423,-4.2495,0.59193,2.043,2.1249,-24.18,32.7,-4.92
16.031,-19.532,-9.616,0.86499,2.7965,1.8973,-24.6,32.46,-6.06
19.096,-19.532,-12.095,1.0168,3.6756,1.4679,-25.02,32.1,-7.2
19.532,-18.387,-9.3844,-0.56505,1.9881,0.97616,-26.46,30.54,-8.94
15.159,-12.994,-9.1529,-1.1017,1.3476,0.3036,-27.18,29.82,-9.3
11.931,-9.1256,-8.1995,-1.3176,2.3699,0.45693,-27.6,29.22,-9.24
3.2689,1.3484,-6.9328,-1.7837,4.4028,1.022,-27.12,28.98,-8.4
5.6252,5.6524,-6.1292,-1.613,3.8042,1.3085,-26.64,28.86,-7.92
8.1586,8.7306,-5.4481,-1.8787,3.5653,1.2135,-26.16,29.16,-7.56
6.4288,9.6432,-3.2961,-1.8503,2.3976,0.67562,-24.66,29.46,-6.6
6.0611,9.8066,-2.6015,-1.6225,0.23335,0.020769,-23.94,29.58,-6.18
3.0918,10.283,-1.4982,-1.4963,-0.31398,-0.32009,-23.16,29.88,-5.64
0.8036,9.6841,-1.7979,-1.3262,-0.19426,-0.46548,-21.36,30.42,-3.84
1.6072,7.7636,-2.0839,-1.1335,0.24038,-0.7028,-20.46,30.6,-2.82
3.5004,6.2926,-2.3155,-0.85002,0.35797,-1.1771,-19.68,30.96,-1.56
7.0417,3.9363,-2.8739,-0.48991,-0.009163,-1.6368,-17.82,31.86,0.6
9.1665,2.0158,-2.9965,0.0048869,-0.97402,-2.2892,-17.16,32.22,1.14
11.591,-0.24517,-3.0782,0.18112,-1.1979,-2.5198,-17.04,32.34,1.08
18.496,-7.6546,-4.9987,0.89278,-1.0843,-2.8799,-18.42,31.56,0.66
19.409,-13.389,-5.7342,1.565,-1.223,-2.8808,-19.5,30.96,-0.54
19.518,-18.483,-5.5843,2.3454,-1.5101,-3.1664,-20.7,30.18,-1.08
19.532,-19.518,-4.6445,2.6615,-3.0668,-2.5268,-23.28,28.62,-1.92
19.014,-19.532,-3.6094,2.0259,-3.3976,-2.2361,-24.6,27.78,-2.1
14.519,-19.218,-2.5879,1.8256,-2.9083,-2.2633,-25.8,26.88,-2.22
9.7794,-16.862,-1.8251,1.4991,-1.74,-2.0727,-27.0,25.98,-2.52
3.7865,-10.774,-0.65378,1.4276,-0.76847,-1.4303,-29.28,24.3,-2.7
1.4301,-8.1858,-0.10896,1.4862,-1.033,-1.1405,-30.12,23.4,-3.0
-0.77636,-5.598,0.64016,1.423,-1.6591,-1.0721,-31.32,21.78,-3.06
-6.0883,-1.6753,2.2201,1.2666,-1.5598,-1.1258,-31.92,21.06,-3.06
-8.7306,-0.99429,2.6423,1.1255,-1.1533,-0.9218,-32.16,20.52,-2.88
-10.215,-0.61292,2.5061,1.014,-0.85063,-0.69578,-32.28,20.1,-2.64
-8.5263,0.38137,2.0839,0.6295,0.28619,0.034819,-31.86,19.32,-1.92
-6.2654,-0.027241,2.0839,0.43982,0.86468,0.55619,-31.62,18.84,-1.56
-4.6445,-2.5742,1.2258,0.28191,1.1002,1.1167,-31.5,18.3,-1.26
-1.6753,-4.8897,-0.027241,0.0058032,0.86926,1.74,-30.66,17.76,-0.9
-0.64016,-7.5321,0.040861,-0.090408,0.66615,1.8787,-30.3,17.52,-1.08
0.027241,-10.746,0.34051,-0.44013,0.56566,2.3973,-30.0,17.46,-1.5
8.9077,-19.286,-3.8001,-0.84544,1.5082,2.6664,-29.46,17.52,-2.7
17.284,-19.504,-7.0553,-0.45082,2.5339,2.1845,-29.28,17.76,-3.66
19.246,-19.532,-7.9951,0.10446,4.182,1.6448,-29.04,18.0,-4.8
19.532,-19.532,-7.1234,-0.74678,1.3149,1.306,-28.32,18.12,-7.74
17.924,-16.222,-7.2869,-1.5241,1.1787,0.84788,-28.44,17.64,-8.88
13.321,-10.896,-7.2052,-1.4734,1.5559,0.74403,-28.62,17.1,-9.66
9.2482,-4.1814,-5.2166,-1.58,2.1243,1.1261,-29.22,16.5,-9.9
6.7012,-0.38137,-3.5822,-1.8314,2.3427,1.3528,-29.22,16.68,-9.6
4.1951,2.3836,-4.2768,-2.4361,3.4083,1.3598,-29.1,17.22,-9.12
3.9227,6.8647,-3.3097,-2.0766,1.8305,1.7452,-28.74,18.54,-8.46
3.8818,7.75,-3.0101,-1.8821,1.1338,1.8726,-28.38,19.26,-7.92
3.1872,7.8726,-2.4789,-1.7205,0.3769,1.4465,-28.08,19.98,-7.14
1.9613,8.0496,-0.84446,-1.6182,-0.048564,1.2175,-27.66,20.82,-6.6
1.4029,9.5342,-0.44947,-1.3375,-0.64691,0.91569,-26.7,21.96,-4.56
1.2258,9.9701,-0.57205,-1.0427,-0.4948,0.5681,-26.28,22.68,-3.36
2.0158,9.1256,-1.471,-0.70127,-0.19884,0.03543,-25.8,23.58,-1.86
4.8352,7.1915,-2.1793,-0.37385,0.19823,-0.6915,-24.48,26.22,1.08
7.3277,6.5378,-2.6968,-0.069333,-0.18051,-1.1267,-23.7,27.66,2.16
9.6296,5.8704,-3.0918,0.3375,-0.79351,-1.4734,-22.98,29.04,2.7
15.827,3.0101,-4.4811,0.9444,-1.0922,-1.6903,-22.44,29.94,2.88
19.409,-5.8295,-7.0281,1.6026,-1.2526,-2.0253,-22.38,30.6,2.46
19.532,-16.916,-5.884,2.4422,-1.3021,-3.5821,-22.86,30.6,2.16
19.532,-19.45,-6.5241,2.4236,-3.5977,-4.7712,-23.4,30.36,1.98
19.532,-19.532,-5.9657,2.3534,-3.9636,-3.864,-25.44,29.4,1.02
18.033,-19.532,-4.3858,2.0027,-3.5122,-3.5479,-26.4,28.74,0.84
14.22,-19.532,-3.3642,1.3818,-2.5928,-3.2773,-27.3,27.96,0.54
5.5026,-15.704,-0.85808,0.967,-1.9148,-2.6209,-29.28,26.34,0.72
2.9556,-12.667,-0.85808,0.73762,-1.5879,-2.3433,-30.36,25.32,0.9
-2.1929,-7.2596,2.6151,0.5397,-1.7828,-2.0446,-32.46,22.98,1.38
-4.9714,-5.2166,4.0589,0.43799,-1.7397,-1.7791,-33.42,21.66,1.74
-7.1098,-4.2223,4.6854,0.41264,-1.5779,-1.6484,-34.26,20.34,2.1
-7.1098,-4.2223,4.6854,0.31093,-0.95081,-1.3683,-34.26,20.34,2.1
-7.1098,-4.2223,4.6854,0.2025,0.37782,-0.9893,-34.26,20.34,2.1
-11.25,-0.92618,4.5083,0.21258,1.569,0.2251,-34.98,19.14,2.52
-7.4503,-1.866,3.6639,0.25809,1.9884,1.0898,-35.52,17.94,3.18
-2.7104,-5.0668,2.0975,0.24587,1.8485,1.4435,-36.36,15.96,4.26
-1.866,-6.2109,1.3893,0.19364,0.86101,2.3185,-36.36,15.18,4.8
-1.5391,-10.093,-0.49033,0.10018,0.36805,2.6426,-35.64,14.1,6.42
0.55843,-17.57,-3.5004,-0.16402,0.52443,2.9123,-34.86,13.74,7.32
4.5764,-19.041,-9.1393,-0.13531,3.0925,2.8897,-33.42,13.98,6.66
18.96,-19.532,-10.828,-0.029016,3.3894,2.5922,-32.46,14.34,5.58
19.504,-19.532,-10.828,-0.72296,3.5894,2.0742,-30.48,15.06,2.28
19.532,-19.314,-9.6704,-2.0058,0.11637,2.2104,-28.32,15.24,-2.16
18.21,-12.817,-6.3471,-2.3741,0.70769,2.0339,-27.06,14.58,-6.36
13.184,-4.4539,-7.5729,-3.4975,4.8778,0.95326,-26.34,13.26,-9.3
14.247,5.3256,-4.1406,-3.029,5.8744,0.42211,-26.16,11.88,-11.82
13.566,10.474,-2.8194,-3.1628,3.6554,0.66096,-26.52,10.56,-13.44
9.3163,10.243,-2.2882,-2.5501,0.3149,0.27245,-27.42,9.42,-14.16
4.6718,5.6524,-1.471,-2.6163,-1.2798,-0.4835,-29.1,8.16,-13.26
3.051,4.5083,-0.88532,-2.2914,-3.3451,-0.31337,-30.06,7.8,-12.06
-0.39499,4.4402,0.57205,-1.9539,-3.109,0.13683,-32.22,7.92,-8.28
-4.127,6.1292,1.8524,-2.0562,-2.2413,0.20097,-33.9,9.42,-3.84
-5.6116,8.54,2.6151,-1.7397,-1.1423,-0.85613,-34.26,10.56,-1.68
-4.5083,9.0848,2.0567,-1.2917,-0.22174,-1.2486,-34.5,12.96,2.04
-1.8251,8.1313,1.4982,-0.97708,0.42638,-1.0782,-34.8,14.16,3.9
1.2122,7.5729,0.6674,-0.7422,0.52412,-1.1472,-34.74,14.94,5.28
5.6252,6.5922,-2.8603,0.18509,0.46945,-1.9117,-34.68,15.66,6.54
11.632,4.3177,-7.7364,0.81428,-0.027794,-1.97,-34.92,16.62,7.62
18.878,-1.58,-10.924,1.2999,-0.51862,-1.2407,-34.98,17.04,7.92
19.45,-9.1937,-8.2812,2.4722,0.24496,-2.3839,-35.1,17.94,8.04
19.504,-13.934,-7.9951,3.299,-0.63072,-3.7009,-35.22,18.36,7.92
19.532,-17.189,-9.6432,4.0827,-3.6252,-4.6817,-35.22,18.36,7.44
19.532,-19.286,-10.243,2.8708,-2.4786,-3.5406,-34.98,17.88,6.66
14.846,-16.835,-7.3822,1.9358,-1.7135,-3.091,-35.52,16.92,5.76
8.2812,-10.365,-4.2495,1.6423,-1.0785,-2.9163,-35.7,16.02,5.34
4.0316,-8.9622,-2.3155,1.5421,-0.63133,-2.3149,-36.12,15.18,5.22
1.3893,-7.7364,-0.76274,1.3192,-0.76847,-1.5018,-36.6,14.4,6.18
-2.6015,-5.1485,0.78998,1.1848,-0.87079,-0.9331,-36.78,13.08,7.74
-5.8704,-4.0997,2.3155,1.054,-0.67287,-0.65973,-36.6,11.28,9.3
-8.3493,-3.5413,3.5004,0.89736,-0.46487,-0.44043,-36.72,9.84,10.38
-9.0167,-2.2882,3.9363,0.68447,-0.14813,-0.18204,-36.9,8.64,11.22
-8.4719,-1.2803,3.909,0.47495,0.4331,0.35339,-36.84,8.28,11.76
-7.2733,-1.2531,3.6639,0.42883,0.60445,0.73487,-36.78,7.74,11.94
-5.0259,-2.6832,2.9965,0.4047,0.85307,1.6142,-36.84,7.56,12.06
-1.185,-6.7966,1.1032,0.34606,0.6466,2.5446,-36.9,7.44,11.82
-0.57205,-8.7306,-0.50395,0.15882,0.39645,2.8906,-36.84,7.56,11.76
0.62654,-11.85,-2.438,-0.19151,0.4105,3.1121,-36.54,7.8,11.58
14.288,-19.286,-9.6023,-0.36408,2.7764,2.9389,-35.52,8.76,10.62
18.878,-19.504,-11.319,-0.17013,4.3882,2.5812,-34.98,9.54,9.66
19.45,-19.532,-11.741,-0.74128,5.0421,2.0788,-34.14,10.26,8.4
19.532,-17.57,-10.406,-2.2675,0.79168,1.2877,-32.88,11.04,5.58
18.932,-11.291,-8.8941,-2.0818,0.5171,1.1664,-32.1,11.16,4.44
12.967,-4.6309,-7.5729,-1.6842,0.81337,1.2584,-31.38,11.28,3.54
5.8295,2.6015,-4.522,-1.5293,1.1738,1.2425,-30.9,11.46,2.16
3.0237,6.2654,-3.8001,-1.47,1.3085,1.2379,-30.84,11.82,1.8
1.9205,8.1177,-3.4868,-1.3619,1.3381,1.4029,-30.84,12.48,1.68
2.9965,8.2676,-5.1349,-1.3302,1.2611,1.7697,-30.36,14.1,1.86
2.8875,7.7636,-3.5549,-1.5412,0.71807,1.405,-30.18,14.82,1.92
1.6753,8.0224,-1.4846,-1.2565,-0.07025,0.73457,-30.06,15.54,2.1
-1.7025,9.1801,-0.68102,-1.1344,-0.54978,0.15485,-30.18,16.5,2.64
-2.2201,9.8066,-0.62654,-0.92882,-0.76267,-0.028405,-30.24,16.8,3.36
-1.3484,9.1801,-1.0215,-0.82161,-0.74098,-0.0956,-30.54,17.04,4.44
1.4982,7.2596,-2.547,-0.57269,-0.37629,-0.37415,-31.14,18.18,6.72
3.4732,6.5105,-3.8273,-0.32681,-0.58307,-0.70555,-31.56,18.84,7.68
7.9134,4.8761,-5.775,-0.12034,-1.0058,-1.0342,-31.86,19.44,8.58
17.57,1.471,-8.9486,0.10446,-1.1081,-1.3106,-32.1,20.34,9.0
19.041,-0.65378,-12.081,0.79596,-0.29199,-1.7517,-32.1,20.76,8.52
19.504,-7.5048,-13.266,1.0809,-0.39828,-2.3842,-32.22,21.0,7.8
19.532,-17.679,-13.757,2.5525,-3.0522,-5.3417,-32.82,20.64,6.3
19.532,-19.3,-12.231,1.8436,-3.7055,-5.2406,-33.18,20.28,5.58
19.532,-19.504,-10.256,1.4022,-3.3179,-3.7354,-33.6,19.8,5.22
11.182,-15.159,-5.5026,0.63866,-1.8928,-3.0158,-34.14,18.66,5.28
7.1779,-13.253,-3.732,0.56413,-0.76511,-3.0027,-34.56,17.94,5.52
3.9771,-11.468,-2.0567,0.5623,-0.15516,-2.6188,-34.98,17.16,5.58
0.12258,-7.9543,0.27241,0.63163,-0.046731,-2.1096,-35.94,15.42,5.94
-1.7298,-6.1292,1.4438,0.68661,-0.061087,-1.7828,-36.3,14.64,6.24
-4.2495,-4.4266,3.0101,0.69333,0.0024435,-1.6231,-36.6,13.86,6.54
-7.5048,-3.2553,4.0997,0.60659,0.022907,-1.0953,-37.14,12.6,7.62
-8.1995,-3.0782,4.3449,0.40775,0.026573,-0.61423,-37.38,11.64,8.46
-8.1313,-2.3427,4.5764,0.32193,0.13195,-0.15058,-37.32,10.68,9.42
-6.9464,-0.84446,4.0316,0.32895,0.31857,0.48686,-37.44,8.7,11.16
-5.6388,-1.8796,3.6503,0.39492,0.73579,1.285,-37.38,7.98,11.88
-4.6718,-3.1327,3.2825,0.45632,0.95417,2.1017,-37.44,7.32,12.42
-2.4925,-7.3277,1.0215,0.46976,0.9557,2.7025,-37.62,6.42,12.78
-2.0839,-9.221,0.61292,0.055894,1.2376,2.7941,-37.56,6.42,12.48
1.0215,-14.669,-1.58,-0.19884,2.9691,2.9062,-37.62,6.6,12.24
18.115,-19.45,-9.0712,-0.092241,4.5363,2.5042,-37.26,7.5,11.1
19.355,-19.518,-11.809,0.025962,4.9737,1.7541,-36.96,8.22,9.9
19.518,-19.532,-11.141,-0.67165,3.3506,2.3133,-36.48,8.88,8.46
19.382,-12.381,-9.8748,-1.496,-0.027184,1.8433,-35.46,10.02,5.4
15.8,-8.8941,-9.2618,-1.2819,1.4029,1.7746,-34.74,10.44,3.78
11.155,-3.8954,-6.9328,-1.332,1.631,1.908,-34.44,10.68,2.28
9.9973,-1.5527,-5.2575,-1.6228,2.0543,2.1426,-34.14,10.68,1.02
7.1915,3.7865,-3.6094,-1.7003,1.9609,2.0986,-34.08,11.46,0.12
6.3198,6.2654,-3.2144,-1.6967,1.5266,2.0663,-33.9,12.36,-0.18
5.8023,7.5457,-4.6445,-1.8937,1.4762,1.8198,-33.66,13.56,-0.48
2.9556,7.927,-3.3506,-1.6228,0.53634,1.2028,-33.3,15.66,-1.26
0.61292,7.5048,-2.1248,-1.5015,0.15211,0.54734,-32.88,16.62,-1.38
-0.081722,7.75,-1.0624,-1.2749,-0.61056,0.24496,-32.52,17.52,-1.26
-1.471,9.3027,-0.53119,-1.0815,-0.74312,0.072998,-32.34,19.2,-0.3
-0.76274,9.0167,-0.72188,-0.87659,-0.65546,0.069944,-32.34,20.04,0.66
0.5993,8.2812,-1.5255,-0.6127,-0.54459,-0.16952,-32.28,21.0,1.74
4.413,6.6331,-4.0589,-0.19151,-0.62217,-0.85368,-32.4,22.74,4.2
7.355,5.1894,-5.7069,-0.072998,-0.75992,-1.0821,-32.4,23.7,5.34
12.926,3.1599,-7.9951,0.1295,-1.1335,-1.3247,-32.46,24.78,6.06
19.286,-3.4459,-11.319,0.58124,-0.39737,-1.1723,-32.58,25.86,5.52
19.504,-9.3708,-10.474,1.2226,-0.61667,-2.1915,-32.7,25.86,4.86
19.532,-14.683,-10.665,2.0983,-2.3888,-4.2699,-33.06,25.56,4.08
19.532,-19.15,-10.774,2.3149,-3.0036,-4.3051,-33.96,24.72,2.94
19.532,-19.504,-8.1722,2.3436,-3.4248,-3.3839,-34.5,24.06,2.58
18.442,-18.319,-6.565,2.0895,-3.416,-3.0607,-34.92,23.28,2.28
8.0905,-13.648,-1.9886,1.547,-2.4279,-2.3295,-35.76,21.24,2.28
4.0316,-11.809,-0.64016,1.3042,-1.7675,-1.7911,-36.36,20.16,2.4
1.2531,-9.3844,0.65378,1.0565,-1.3842,-1.3967,-36.96,19.02,2.52
-3.5958,-5.1485,3.4596,0.81612,-1.1325,-1.3155,-38.22,16.8,2.82
-5.1894,-4.018,4.0589,0.697,-1.1338,-1.3295,-38.7,15.96,3.06
-6.9055,-2.833,4.5492,0.71624,-0.85552,-1.1387,-39.12,15.06,3.6
-7.355,-1.6889,5.1213,0.69272,-0.32193,-0.64874,-39.3,13.32,5.22
-6.7693,-1.1169,5.2847,0.62858,0.1295,-0.1011,-39.6,12.3,6.24
-5.884,-1.0351,4.9169,0.62736,0.49877,0.3879,-39.6,11.34,7.44
-3.6366,-2.7377,3.9635,0.62003,0.7926,1.3635,-39.48,9.48,9.6
-1.7979,-4.4266,3.0646,0.5455,0.60079,1.9187,-39.54,8.7,10.26
-1.2939,-5.3528,2.656,0.50396,0.44471,2.1203,-39.6,8.16,10.68
-1.6344,-10.515,1.185,0.38607,0.28191,2.5861,-39.54,7.5,11.1
-1.5527,-16.086,-0.43585,0.24007,0.96822,2.9932,-39.24,7.44,10.92
2.1929,-19.096,-4.0861,0.2474,2.7147,3.5806,-38.88,7.5,10.62
18.537,-19.532,-12.531,0.48106,3.0937,3.5336,-37.98,8.22,9.12
19.409,-19.532,-14.233,0.8885,4.4355,3.1029,-37.32,8.52,8.04
19.518,-19.532,-13.77,-0.079718,3.1389,2.9832,-36.54,8.88,6.72
19.532,-18.987,-12.612,-2.2202,0.57574,2.186,-36.0,9.06,5.22
12.749,-7.5865,-8.9758,-2.2028,1.6683,1.8952,-35.34,9.72,3.12
9.7385,-3.0782,-6.9872,-2.1835,2.5192,2.0965,-35.1,10.14,2.28
8.2948,0.47671,-4.6718,-2.0766,2.8011,2.3359,-34.26,11.76,1.5
7.3686,5.8023,-3.9499,-1.9847,2.3039,2.1808,-33.72,12.9,1.2
6.4833,6.7966,-3.623,-1.9966,1.7214,1.7846,-33.06,14.1,1.08
5.0123,7.246,-3.1054,-1.7956,0.89583,1.1683,-32.4,15.36,0.78
2.5879,7.8998,-1.0215,-1.6805,0.26389,0.49205,-31.38,17.76,0.36
0.88532,9.4117,-1.0215,-1.5262,0.079107,-0.0076358,-30.96,18.84,0.54
-1.1305,11.959,0.40861,-1.2272,0.092852,-0.40378,-30.48,20.64,1.62
-1.362,12.095,0.040861,-0.93462,0.27122,-0.63805,-30.42,21.54,2.46
1.58,9.1937,-0.51757,-0.77549,0.35888,-0.75289,-30.48,22.5,3.48
3.1872,8.2539,-0.98067,-0.42913,0.24526,-1.139,-30.36,23.4,4.62
6.5378,6.5105,-2.5742,0.13439,-0.63805,-1.9218,-29.52,25.26,6.3
8.3901,5.1757,-3.6094,0.41508,-0.81734,-2.3338,-29.16,25.98,6.84
11.904,3.5685,-7.2324,0.68234,-0.19151,-2.449,-28.98,26.28,7.14
19.327,-5.2302,-10.12,1.1671,0.82192,-2.1765,-29.04,25.8,7.14
19.504,-12.64,-9.7385,1.9187,0.69303,-2.8863,-29.46,25.32,6.84
19.532,-17.706,-11.278,3.1698,-3.0238,-5.8851,-30.0,24.72,6.36
19.532,-19.477,-10.992,2.7513,-3.6713,-5.2159,-31.26,23.46,5.04
19.532,-19.532,-9.0167,2.1637,-3.3051,-4.1041,-31.98,22.74,4.62
15.241,-18.878,-6.279,1.3964,-2.4447,-3.744,-32.4,21.72,4.26
7.6002,-14.41,-2.8739,0.78924,-1.1255,-3.0659,-33.42,20.04,4.26
5.1349,-13.048,-1.7706,0.59346,-0.79474,-2.4697,-34.02,19.02,4.26
1.0215,-9.5887,0.081722,0.61575,-0.69211,-1.93,-34.5,18.06,4.38
-3.4868,-5.5162,2.3563,0.63835,-0.51801,-1.5562,-35.82,15.84,4.62
-5.6933,-5.0668,3.4868,0.65332,-0.56933,-1.2443,-36.24,14.82,4.56
-7.1915,-4.9033,4.0997,0.63683,-0.47342,-0.79535,-36.66,13.98,4.62
-7.464,-3.228,4.413,0.5681,-0.16524,-0.3204,-37.44,12.42,5.34
-7.3686,-2.4925,3.9363,0.50916,-0.049175,0.058032,-37.62,11.7,5.88
-7.1234,-2.4244,3.2825,0.5116,0.23732,0.96028,-37.74,10.92,6.84
-3.514,-5.3392,2.4244,0.51099,0.43891,1.9059,-37.32,9.42,8.64
-1.7979,-7.1779,1.6344,0.45204,0.37263,2.4606,-37.14,8.88,9.3
-0.65378,-9.1937,0.44947,0.22785,0.23732,2.8051,-37.02,8.58,9.78
0.10896,-13.062,-2.9692,-0.26725,0.54306,3.007,-36.3,8.28,9.84
1.7979,-16.276,-4.4947,-0.42638,2.1389,3.4138,-35.76,8.58,9.72
11.468,-19.327,-8.7987,-0.53115,2.9315,3.747,-35.04,9.18,9.24
19.286,-19.532,-12.749,-0.49938,4.0522,3.5949,-33.3,10.56,7.8
19.518,-19.532,-12.898,-1.4707,2.5128,3.594,-32.46,11.34,6.66
19.532,-17.911,-12.354,-2.1069,0.74923,3.0571,-31.62,11.94,5.46
15.241,-9.4661,-8.2812,-2.0046,1.0394,2.2571,-30.36,12.48,3.06
11.387,-5.2166,-5.8431,-2.0925,1.6628,2.1295,-29.82,12.66,2.34
9.4798,-2.5061,-4.6173,-2.0546,1.9609,2.2541,-29.22,13.14,1.98
7.7091,4.2632,-2.9011,-1.8506,2.1472,2.7055,-27.96,14.7,1.86
8.1586,6.0202,-2.7104,-1.7333,1.6777,2.5711,-27.12,15.72,1.74
7.641,6.3607,-2.3291,-1.6197,1.2498,1.9749,-26.4,16.68,1.62
4.4266,6.7012,-0.8036,-1.5589,0.8491,0.99143,-24.78,18.48,1.68
3.4459,7.5593,-0.1362,-1.3851,0.55222,0.49694,-24.06,19.26,1.74
1.6072,10.61,0.7355,-1.1933,0.47006,0.098044,-23.52,19.86,2.04
-0.24517,13.389,1.3348,-0.86101,0.36866,-0.16616,-22.68,20.88,3.06
0.28603,11.25,0.84446,-0.47709,0.27519,-0.32345,-22.38,21.42,4.02
2.3563,8.7851,0.6674,-0.10507,0.3204,-0.64477,-21.96,22.02,5.1
5.7205,7.0826,-0.54481,0.30116,0.15516,-1.1814,-21.0,23.82,7.02
7.9679,5.8976,-1.8796,0.83536,-0.2364,-1.8815,-20.4,24.66,7.62
11.087,4.3585,-3.2144,1.1658,-0.093462,-2.0427,-20.1,25.08,7.98
19.218,-3.514,-8.4446,1.639,0.32742,-1.9264,-20.04,24.84,7.98
19.491,-12.272,-8.3357,2.2342,-0.029932,-2.8576,-20.4,24.3,7.62
19.532,-18.483,-8.9894,2.5443,-1.8173,-5.0723,-21.0,23.88,7.08
19.532,-19.518,-9.6023,2.5666,-2.3766,-4.8313,-22.68,22.8,5.4
19.532,-19.355,-8.1177,2.2223,-2.0589,-4.5757,-23.34,22.26,4.56
17.284,-18.442,-7.3277,2.0653,-1.9511,-4.7342,-23.88,21.6,3.9
12.463,-16.848,-6.1019,1.7431,-1.5626,-4.1756,-24.36,21.06,3.48
5.9793,-12.272,-3.1735,1.3079,-1.0403,-2.7397,-25.5,19.02,3.18
3.3778,-10.215,-1.5255,1.1072,-0.85185,-2.1961,-26.28,18.12,2.88
-0.31327,-8.2676,0.081722,0.967,-0.78924,-1.9059,-26.82,17.1,2.7
-4.2904,-5.2575,1.9341,0.92241,-0.84025,-1.4911,-28.32,14.88,2.22
-6.8374,-4.8625,3.1191,0.87904,-0.90347,-1.0922,-28.8,14.04,2.04
-7.5593,-4.5492,3.5277,0.81489,-0.89431,-0.86621,-29.28,13.02,1.86
-8.1858,-2.942,3.7592,0.59315,-0.65301,-0.44685,-30.0,11.52,2.28
-9.0575,-1.9886,3.3506,0.45143,-0.33139,-0.13714,-30.06,10.56,2.76
-7.9679,-2.5879,2.6696,0.38546,0.24312,0.86071,-30.0,9.96,3.48
-2.7241,-5.7342,1.7434,0.32009,0.70616,2.2553,-30.0,8.82,5.22
-1.5527,-7.0281,0.96704,0.16402,0.48228,2.6863,-30.24,8.4,5.88
-1.4982,-7.7364,0.21793,0.06689,0.3766,2.8592,-30.3,8.28,6.18
-0.50395,-13.348,-2.6151,-0.4722,0.95417,3.2752,-30.06,8.76,5.94
6.1564,-18.442,-5.7205,-0.6576,2.8051,3.5241,-29.76,9.12,5.7
17.175,-19.395,-9.8748,-0.42699,3.3738,3.0696,-29.16,9.66,5.34
19.504,-19.532,-11.182,0.1408,5.1209,2.5305,-27.36,11.34,3.48
19.532,-19.286,-9.6704,-2.3323,-0.75442,2.2575,-26.64,11.94,2.1
19.532,-14.397,-9.2074,-2.3259,-0.41264,1.9545,-25.74,12.66,0.72
15.445,-9.221,-7.927,-2.0006,0.93615,1.6478,-24.9,12.9,-0.72
10.501,-1.8524,-4.7399,-1.9517,1.4419,1.8357,-24.06,13.32,-2.22
8.8124,1.1441,-3.6503,-1.9062,1.3787,1.7749,-23.82,13.5,-2.76
5.0259,5.7478,-2.2474,-1.6842,1.1072,1.8946,-23.16,14.4,-2.52
4.0861,6.3471,-1.975,-1.5076,0.96486,1.9939,-22.74,15.3,-2.4
3.4459,6.0611,-2.2337,-1.5073,1.0247,1.908,-22.26,15.9,-2.28
2.8058,6.1564,-1.8932,-1.5299,0.91691,1.4817,-21.9,16.68,-2.1
0.98067,8.2267,-1.185,-1.4328,0.45387,0.68539,-21.3,17.88,-1.44
0.31327,9.8748,-0.50395,-1.2315,0.25748,0.34483,-21.3,18.42,-0.96
0.1362,11.06,-0.095342,-0.80359,0.20769,0.13134,-21.84,19.44,1.08
1.7706,9.1529,-1.1305,-0.44776,0.13592,-0.2135,-21.9,20.16,2.46
3.5004,7.1234,-2.1112,-0.24526,0.083994,-0.64843,-22.08,21.0,3.84
4.8625,6.1292,-2.5879,-0.14997,0.0061087,-1.051,-22.14,22.02,5.04
10.801,4.4811,-3.4732,-0.047342,-0.03879,-1.4755,-21.9,23.88,6.48
14.764,3.3778,-4.5492,0.19456,0.32498,-1.9868,-21.96,24.48,6.78
18.755,1.2122,-6.7693,0.78954,0.72326,-2.4447,-22.08,24.72,6.48
19.518,-9.2891,-6.7421,2.0962,-0.039706,-3.4526,-23.16,24.3,4.5
19.532,-13.607,-6.851,3.2764,-2.3747,-4.9605,-23.94,24.12,3.36
19.532,-16.181,-7.9815,3.6508,-3.5366,-5.0018,-24.66,23.76,2.4
19.532,-19.545,-7.5593,2.583,-3.1243,-3.9068,-26.4,22.44,0.84
16.331,-16.808,-6.0883,1.9786,-2.6695,-3.1343,-27.36,21.66,0.36
12.313,-11.509,-3.4051,1.4618,-1.9749,-2.6957,-28.08,20.82,-0.06
5.094,-9.6023,-1.9477,1.2553,-1.1478,-2.2239,-29.7,18.54,-0.24
2.2201,-8.1586,-0.68102,1.0229,-1.0415,-1.6722,-30.72,17.22,-0.36
0.54481,-6.8919,-0.027241,0.93249,-0.97311,-1.2672,-31.8,16.2,-0.24
-3.7728,-4.3994,1.5391,0.9502,-0.9444,-1.0751,-33.6,14.1,-0.12
-5.3937,-3.9227,2.2474,0.96853,-0.93279,-0.91202,-34.32,13.26,0.06
-6.5105,-3.732,3.051,0.88973,-0.75625,-0.68173,-34.98,12.48,0.54
-7.4776,-2.6832,4.1406,0.57024,-0.27886,-0.37477,-35.64,10.74,2.28
-7.5457,-2.1248,3.8818,0.46609,-0.074831,-0.24099,-35.94,9.72,3.48
-7.0417,-2.3836,3.6366,0.30085,0.44838,0.35155,-36.24,8.7,4.62
-4.0316,-4.8352,3.0237,0.089797,1.1524,1.6558,-36.72,7.14,6.36
-1.9341,-6.7012,1.975,-0.039095,1.0348,2.3027,-36.78,6.78,6.78
-1.1169,-7.4095,1.2258,-0.085827,0.81153,2.8048,-36.84,6.48,7.2
-0.054481,-12.749,-2.1248,-0.28924,1.0751,3.5824,-36.84,6.66,7.14
4.0452,-18.306,-5.203,-0.43646,2.6683,4.1594,-36.6,7.08,6.96
13.116,-19.382,-8.1858,-0.42333,3.3103,4.1453,-36.18,7.5,6.48
19.436,-19.532,-9.1256,0.0051924,6.6606,3.1588,-34.86,8.94,4.74
19.518,-19.532,-8.8124,-2.1478,2.6063,2.0042,-33.96,9.6,3.48
19.532,-15.677,-8.1722,-2.521,0.61423,1.7385,-33.06,10.32,2.04
16.126,-5.8567,-6.8647,-2.313,1.241,1.3693,-31.92,11.1,-0.78
13.076,-2.547,-5.0259,-2.5253,1.744,1.2162,-31.32,11.46,-1.92
10.351,0.46309,-3.623,-2.4661,1.792,1.292,-30.84,11.82,-2.94
6.7693,4.6309,-1.4165,-1.894,1.0763,1.5895,-30.06,12.96,-3.84
4.9033,6.1564,-0.96704,-1.5791,0.63591,1.5046,-29.7,13.74,-3.96
3.6503,6.3198,-0.77636,-1.3641,0.2306,1.1658,-29.4,14.58,-4.08
1.5936,6.5786,-0.99429,-1.2996,0.028405,0.8207,-28.5,16.32,-4.14
1.5936,7.6546,-0.85808,-1.3537,0.21747,0.5229,-28.14,17.16,-3.96
-1.3212,9.4934,-0.85808,-1.3635,0.32009,0.46823,-27.9,17.76,-3.72
-1.6072,12.136,0.55843,-1.1136,0.54275,0.28222,-27.96,18.66,-2.4
-0.21793,11.441,1.3212,-0.60964,0.44043,0.12859,-28.08,19.2,-1.32
-0.21793,11.441,1.3212,-0.085521,0.2981,-0.15669,-28.08,19.2,-1.32
2.3563,8.7987,0.6674,0.35491,0.047342,-0.56383,-28.2,19.68,-0.18
5.9112,6.8102,-1.185,0.93615,-0.11881,-1.014,-28.26,20.76,2.1
9.3163,5.5299,-1.8387,1.0599,0.020464,-1.0623,-28.26,21.18,2.82
18.605,1.362,-1.9886,1.5916,1.3381,-0.85002,-28.38,21.72,2.94
19.504,-11.741,-0.8036,2.8475,1.6206,-1.8378,-28.86,21.66,1.2
19.532,-15.84,-0.84446,4.9217,-1.3094,-4.9746,-29.28,21.42,-0.24
19.532,-19.205,0.98067,6.3157,-4.4853,-5.7058,-30.48,21.0,-2.94
19.532,-19.504,-0.85808,7.0286,-3.9361,-3.5259,-31.5,20.28,-4.86
17.407,-19.532,-0.21793,2.4789,-2.5241,-2.2306,-32.16,19.44,-6.06
11.196,-16.549,-0.98067,0.8436,-1.6817,-3.0702,-32.94,18.18,-7.02
6.8238,-11.005,-0.12258,0.60598,-1.0064,-3.5461,-33.72,17.1,-7.26
2.1112,-8.1858,0.70826,0.88881,-0.83566,-3.0308,-34.56,16.08,-6.96
-1.4165,-7.0553,1.0215,0.82528,-0.97525,-1.9749,-34.98,14.88,-5.88
-4.0316,-5.6661,1.2667,0.45815,-1.3338,-0.87445,-34.92,13.2,-3.12
-5.0259,-5.0395,1.471,0.23457,-1.4419,-0.69975,-34.74,12.12,-1.62
-7.0281,-3.9499,2.0294,0.23824,-1.2953,-0.63835,-34.86,10.08,0.84
-9.6296,-3.2961,2.5606,0.24038,-0.83108,-0.38729,-35.16,8.28,2.76
-10.924,-2.3563,2.7377,0.060476,-0.12278,0.076969,-35.58,6.84,4.38
-8.7715,-2.2882,2.3291,0.032376,0.58215,0.69852,-35.94,5.88,5.58
-5.6252,-4.0589,2.0431,0.22358,1.168,1.5067,-36.06,5.64,6.06
-4.1814,-5.1349,1.9613,0.3036,1.1432,2.2929,-35.88,5.82,6.42
-2.0839,-7.3141,1.5391,0.19884,0.90072,2.9966,-35.1,6.84,6.72
-2.2474,-8.4446,1.58,0.46884,1.0241,3.2773,-34.44,8.34,6.18
0.24517,-14.996,-1.0215,1.2214,1.923,3.9581,-34.02,9.3,5.88
14.615,-19.246,-4.2087,1.2236,3.8054,4.4611,-32.46,11.64,4.8
19.382,-19.532,-2.2065,0.22724,6.0277,2.73,-30.48,14.28,2.46
19.518,-19.532,-1.866,-3.7147,0.063835,1.9755,-27.66,16.8,-1.32
19.532,-15.99,-2.2746,-3.4642,0.90622,2.5992,-24.96,18.42,-5.94
18.129,-10.311,-2.6968,-3.4645,2.1606,1.4181,-23.04,18.84,-10.32
14.655,-4.3449,-1.5255,-3.8179,2.1383,0.63377,-22.14,18.24,-13.26
11.182,0.24517,-0.20431,-4.78,2.5708,0.61789,-22.38,17.7,-14.16
6.1564,7.0417,1.1441,-4.4022,1.763,1.1457,-22.32,17.76,-13.5
3.8001,10.692,0.61292,-2.211,1.336,1.6707,-22.56,18.18,-11.88
2.7377,10.992,-0.84446,-1.6518,0.84116,1.4401,-22.62,18.3,-10.74
1.7843,8.5808,-2.2065,-1.4817,0.57574,0.93065,-23.58,18.84,-7.56
1.0624,7.9679,-2.7241,-1.335,0.3262,0.63683,-24.12,19.2,-5.7
-0.068102,9.4934,-1.3757,-1.2721,0.20189,0.43585,-25.26,20.4,-1.14
-0.31327,11.7,-0.081722,-1.0476,0.14355,0.2361,-25.68,22.68,3.3
1.7979,10.12,0.068102,-0.59773,0.14783,0.035125,-25.56,25.86,6.36
3.1872,8.9349,0.01362,0.1124,0.1237,-0.43646,-25.14,27.36,7.2
7.2188,6.3743,-1.2939,0.54611,-0.19181,-0.89553,-24.3,29.16,7.68
11.278,4.0452,-1.9477,1.0281,-0.80268,-1.4661,-24.36,29.64,7.08
15.5,2.8194,-2.3836,1.4539,-1.1545,-1.9261,-24.9,29.52,6.54
19.395,-3.5958,-3.8682,1.9615,-0.9221,-2.0543,-26.34,28.98,5.1
19.532,-12.367,-2.152,2.704,-0.79443,-2.5653,-28.62,28.14,2.82
19.532,-16.835,-2.1384,4.0513,-3.0626,-4.6398,-29.88,27.84,1.68
19.532,-19.368,-4.7944,4.1068,-3.8686,-3.9538,-32.46,27.06,-1.02
19.532,-19.518,-3.5958,2.7394,-3.1163,-2.8934,-34.68,25.68,-3.24
17.448,-17.693,-2.0294,1.6576,-2.387,-2.6625,-35.82,25.02,-4.08
11.06,-13.729,-0.42223,1.2532,-1.7544,-2.7214,-37.98,23.4,-5.04
4.1814,-10.828,0.28603,1.2373,-1.6038,-2.6933,-39.96,21.72,-5.52
0.55843,-8.1586,1.0624,1.1173,-1.9945,-2.2342,-41.64,19.8,-5.1
-1.866,-6.1019,1.8524,0.85552,-2.3952,-1.4526,-42.24,18.72,-4.56
-5.3528,-4.2359,2.9829,0.80573,-2.0827,-1.1854,-43.02,16.74,-2.64
-8.1586,-3.9908,4.1814,0.71563,-1.5302,-0.85155,-43.14,14.88,0.24
-8.7034,-4.0725,4.4811,0.4328,-0.75289,-0.45387,-43.14,13.92,1.98
-9.6977,-3.4868,4.3449,0.10293,-0.26114,-0.28222,-43.2,12.12,5.16
-8.5808,-2.6151,3.5004,-0.05681,0.13134,-0.099571,-43.2,10.62,7.68
-5.4345,-4.1542,2.9011,-0.0079412,0.89339,1.1646,-43.14,9.36,9.06
-3.2553,-6.0202,2.4108,-0.11851,0.80298,1.9584,-43.2,8.94,9.66
-1.7979,-7.75,0.99429,-0.39034,0.62156,2.3558,-42.96,8.88,10.5
-1.1713,-10.46,-1.6481,-0.68173,0.72052,2.5168,-42.42,9.54,10.44
0.36775,-13.77,-2.8058,-0.94195,1.4203,2.8442,-42.0,9.96,10.32
11.346,-19.327,-6.2245,-0.98533,2.744,3.3989,-40.92,11.34,9.24
19.028,-19.518,-6.7148,-0.63133,5.1624,3.8811,-39.3,13.2,7.08
19.477,-19.532,-7.9679,-1.6945,4.1301,2.6683,-38.28,14.04,5.34
19.532,-19.382,-8.5808,-2.8023,0.068722,2.0889,-36.18,15.66,1.74
19.191,-11.468,-8.1586,-2.6133,0.36346,2.0598,-34.32,16.5,-1.92
16.222,-7.0962,-6.7557,-2.5339,0.74892,2.0458,-33.72,16.74,-3.18
11.836,-1.7025,-3.7592,-2.657,0.9444,2.167,-32.7,17.28,-4.68
7.75,3.732,-2.3836,-2.7443,1.193,2.014,-31.68,18.66,-5.1
4.304,9.3708,-1.7162,-2.3796,1.0513,1.9804,-30.48,20.46,-4.86
3.3506,10.91,-1.0624,-2.0097,0.53481,2.1264,-30.06,21.12,-4.74
2.9556,8.8668,-0.29965,-1.5727,0.14539,1.9978,-29.22,22.44,-3.9
1.4438,7.5457,0.92618,-1.3384,-0.18784,1.6093,-28.98,23.7,-1.74
0.68102,8.3629,1.5119,-1.193,-0.15882,1.1448,-28.98,24.66,-0.3
-0.50395,10.515,2.0839,-0.67684,0.076969,0.57299,-28.92,26.88,2.82
-0.17706,10.351,2.0022,-0.23305,0.11179,0.55008,-27.96,29.58,5.34
1.0488,9.1256,1.7434,0.16952,0.15149,0.42211,-27.24,30.9,6.0
3.1599,7.0962,0.46309,0.52198,0.07422,0.040012,-25.92,32.64,6.36
6.6467,4.3177,-2.1112,0.72174,0.25443,-0.49724,-25.08,33.24,6.18
11.305,2.1248,-3.6094,1.0959,0.019548,-0.91019,-24.9,33.48,5.88
16.195,-0.19068,-4.7399,1.3372,-0.42241,-1.117,-25.02,33.24,5.76
19.327,-5.6388,-6.1564,1.8176,-0.46792,-1.6567,-25.08,32.94,5.04
19.518,-14.478,-5.7342,2.0495,-0.22785,-2.8928,-25.68,31.98,4.68
19.532,-19.355,-6.6195,2.0794,-0.86834,-4.0241,-26.94,30.42,3.42
19.532,-19.491,-7.4095,2.1588,-1.3311,-3.3509,-27.78,29.64,2.7
19.532,-19.45,-6.0883,2.0238,-1.6182,-4.1792,-29.64,28.08,0.6
13.797,-17.638,-4.5083,1.9981,-1.357,-4.1734,-31.02,26.58,-1.56
11.25,-15.881,-4.2495,2.0024,-1.1203,-3.4896,-31.62,25.92,-2.46
7.4503,-12.708,-3.0101,1.9062,-1.2908,-2.8979,-32.88,24.3,-3.78
2.5198,-10.46,-1.7025,1.7587,-1.4676,-2.456,-33.96,22.86,-4.38
0.61292,-9.4117,-1.362,1.595,-1.5757,-2.1405,-34.68,21.84,-4.56
-3.623,-5.9112,-0.44947,1.408,-1.6084,-1.9199,-35.82,19.8,-4.5
-7.0145,-3.8682,0.61292,1.058,-1.4532,-1.4936,-36.66,17.88,-4.38
-9.3027,-3.4459,1.6072,0.77305,-1.0724,-0.9612,-36.96,16.44,-3.24
-9.5342,-3.337,1.9886,0.44929,-0.29474,-0.37721,-36.96,15.54,-2.34
-9.4798,-2.9556,2.3155,0.097738,0.34208,-0.030849,-37.38,13.92,-0.24
-6.7829,-3.4459,2.152,-0.17165,0.92638,0.28527,-38.28,12.12,1.44
-4.018,-4.6718,1.4301,-0.4105,1.2437,0.88667,-38.94,10.86,2.52
-2.2746,-6.0202,0.6674,-0.57116,0.88789,1.5211,-39.18,10.2,2.76
-0.96704,-9.0848,-0.36775,-0.69852,0.39218,2.4089,-39.12,9.9,2.7
1.9341,-14.519,-1.2803,-0.88362,0.88667,3.2015,-38.94,10.02,2.58
14.764,-19.191,-4.4539,-1.004,2.0177,3.7205,-37.92,10.8,1.44
19.382,-19.518,-7.7636,-0.37354,2.832,2.6725,-36.66,11.7,-0.24
19.504,-19.532,-7.9951,-0.74617,3.0748,1.813,-36.06,12.18,-1.44
19.532,-17.243,-7.0281,-2.2691,-0.45632,1.6182,-34.5,13.14,-4.02
15.323,-9.1665,-5.6116,-2.222,0.41844,1.496,-32.7,13.8,-6.42
13.076,-6.3743,-5.0395,-2.4419,0.74984,1.784,-31.92,14.04,-7.62
10.42,-1.8932,-2.9965,-2.5699,1.1142,2.0073,-31.14,13.92,-9.3
8.0632,0.85808,-0.85808,-2.5409,1.1836,1.9786,-30.96,13.92,-9.66
5.2302,3.5685,-0.28603,-2.3002,1.0791,2.0229,-31.14,14.58,-8.88
4.3177,4.5764,-0.5993,-1.9929,1.1799,2.2688,-31.26,15.12,-8.1
3.3778,6.0338,-1.1986,-1.5678,1.0705,2.284,-31.44,15.72,-7.14
2.5742,6.7012,-0.76274,-1.0754,-0.13347,1.5107,-31.8,17.34,-5.16
1.185,7.1915,-0.76274,-0.78618,-0.69578,1.0122,-32.04,18.18,-3.9
-0.49033,8.4174,0.54481,-0.5452,-0.93249,0.81337,-32.28,18.9,-2.64
-1.9341,11.073,0.31327,-0.30391,-0.79779,0.72907,-32.64,20.94,-0.12
-0.98067,10.869,-0.12258,-0.045204,-0.40989,0.66554,-32.88,21.96,1.2
0.84446,9.4798,-0.7355,0.21686,-0.14905,0.36927,-32.76,23.22,2.58
3.8954,7.6138,-2.6423,0.54245,0.090408,-0.42638,-31.98,26.04,5.04
6.4288,6.9055,-3.8137,0.69608,-0.021075,-0.79962,-31.44,27.42,5.76
11.904,5.598,-4.9578,0.79412,-0.066279,-1.004,-30.96,28.5,6.42
19.068,0.64016,-7.3822,1.1267,0.44349,-1.1359,-30.3,29.52,6.78
19.504,-9.2891,-7.4776,2.2782,0.75839,-2.4468,-30.54,29.28,6.42
19.532,-13.906,-6.6331,3.7703,-1.6335,-4.9822,-30.96,28.8,5.94
19.532,-19.368,-8.2403,3.244,-3.4505,-5.5241,-32.82,27.54,3.78
19.532,-19.504,-6.96,2.7419,-3.5491,-4.2736,-33.66,26.94,2.4
19.436,-19.45,-5.6388,1.886,-3.2858,-3.5458,-34.26,26.52,1.2
11.414,-16.985,-2.7649,1.3118,-1.9658,-3.2807,-35.34,25.02,-0.06
8.7034,-14.696,-1.2395,0.9108,-1.263,-2.7055,-35.88,24.18,-0.48
6.2245,-11.55,0.054481,0.68111,-1.1191,-2.102,-36.72,23.04,-0.6
1.3484,-7.355,1.9341,0.58551,-1.266,-1.7416,-38.34,20.58,-1.02
-1.6481,-5.4073,2.6696,0.69791,-1.2208,-1.6548,-39.18,19.32,-1.14
-4.5356,-4.127,3.5413,0.8488,-1.0263,-1.6448,-39.9,18.06,-1.38
-7.75,-3.0918,4.3994,0.91447,-0.88484,-1.2963,-41.16,15.6,-1.5
-7.6683,-2.7377,4.8352,0.83994,-0.46242,-0.97891,-41.52,14.7,-1.08
-7.1779,-1.8796,5.0531,0.81031,-0.27886,-0.81215,-41.58,13.98,-0.48
-6.456,-1.9886,4.2495,0.80298,0.29016,0.037263,-40.8,12.36,2.34
-5.2438,-3.6094,3.514,0.84819,0.64385,0.87934,-40.68,11.34,3.9
-3.7184,-4.9033,2.8058,0.84788,0.71257,1.5824,-40.68,10.44,5.34
-1.6344,-7.927,2.9011,0.8543,0.41386,2.1848,-40.68,9.3,6.78
-2.1793,-10.692,3.051,0.89278,0.44288,3.1182,-40.5,9.18,6.96
-2.5606,-13.648,0.84446,0.80634,0.84574,3.4957,-40.32,9.12,6.84
2.0158,-19.055,-3.7728,0.37935,2.5592,4.123,-39.96,9.42,6.6
18.864,-19.532,-5.6116,1.1848,5.3976,3.4166,-38.46,10.2,4.56
19.45,-19.532,-6.8647,-0.43768,5.8051,1.9138,-37.56,10.5,3.06
19.518,-19.532,-7.1643,-2.7742,0.44593,2.4936,-36.48,10.74,1.38
17.911,-12.272,-6.4424,-2.9639,2.5424,1.9254,-34.74,10.56,-1.8
16.481,-6.6331,-6.96,-4.076,4.0488,0.89278,-34.14,10.32,-3.06
16.794,-2.4244,-5.2847,-4.7819,4.3582,-0.04612,-33.6,10.2,-4.2
12.122,5.4618,-3.6775,-4.1646,2.9578,0.53359,-32.94,11.34,-5.94
8.5808,8.6625,-1.3484,-2.7975,-0.14569,1.5385,-32.64,12.3,-6.48
3.7047,9.0439,-0.6674,-1.952,-1.4762,1.5418,-32.34,13.62,-6.72
-2.4108,7.3414,0.44947,-1.4478,-1.8045,0.79168,-31.68,16.08,-6.72
-4.1951,7.069,0.25879,-1.4679,-1.5693,0.72998,-31.38,17.16,-6.6
-5.2847,8.1858,1.58,-1.3931,-1.2288,0.73182,-31.08,18.12,-6.24
-5.2847,11.141,1.2395,-1.1484,0.73487,0.208,-31.14,20.04,-4.26
-3.6911,10.774,1.2531,-0.69914,0.92882,0.13622,-31.5,21.24,-2.7
-1.3212,9.2891,0.57205,-0.26786,1.1555,0.25259,-31.74,22.56,-0.96
3.9227,6.6467,-1.3212,0.058338,0.91111,-0.11545,-31.74,25.92,1.68
7.2733,5.6252,-2.0839,0.55314,0.05681,-0.63561,-31.56,27.54,2.58
11.359,4.7671,-3.3097,0.72693,-0.14569,-0.87262,-31.44,28.98,3.3
16.276,1.8524,-4.7671,1.2272,-0.11973,-1.4355,-31.38,29.94,3.9
19.477,-6.1019,-6.5786,1.7526,-0.079718,-2.3802,-31.32,30.54,3.3
19.532,-10.992,-6.0611,2.5317,-0.31704,-4.2031,-31.74,30.0,2.52
19.532,-16.93,-6.4833,3.7046,-2.2819,-5.4587,-33.06,28.62,0.42
19.532,-19.368,-8.1858,4.3396,-3.0189,-4.6649,-33.72,27.84,-0.6
19.532,-19.491,-5.6116,2.0156,-2.927,-4.2043,-34.56,26.88,-1.56
18.551,-19.532,-3.7592,1.1921,-1.9294,-3.3817,-35.28,25.68,-2.28
10.488,-14.724,-1.9205,0.8543,-0.98105,-2.6374,-36.84,22.92,-3.12
7.1643,-12.803,-1.1169,0.87109,-0.49572,-2.3787,-37.62,21.36,-3.48
3.1191,-10.065,-0.32689,0.74953,-0.61636,-2.1673,-38.58,19.62,-3.84
-1.1169,-6.0747,0.068102,0.8885,-0.50946,-1.8424,-40.32,16.44,-4.02
-4.2223,-3.9363,0.84446,0.99754,-0.29535,-1.6472,-41.28,14.76,-3.9
-5.5707,-3.4459,1.3076,1.0223,-0.26725,-1.2721,-41.82,13.2,-3.9
-7.1643,-2.9556,2.0567,0.92516,-0.22297,-0.78099,-42.84,10.44,-2.76
-6.7421,-2.5198,2.3699,0.73273,-0.0048869,-0.53756,-43.02,9.12,-1.98
-6.2654,-2.0158,2.656,0.52321,0.20678,-0.39615,-43.2,7.86,-1.02
-6.0066,-2.0703,2.2337,0.35552,0.47281,0.064141,-43.44,5.46,0.72
-4.9442,-3.2416,1.7979,0.24496,0.82375,1.1438,-43.32,4.62,1.44
-3.9635,-4.3177,1.4438,0.18479,0.77122,1.6979,-43.26,3.9,1.68
-1.6753,-8.1586,-0.21793,0.053451,0.72235,2.1527,-43.26,3.18,1.68
0.14982,-10.665,-1.58,-0.23976,0.99205,2.5421,-43.14,3.06,1.5
5.6388,-15.486,-5.0804,-0.32467,2.7694,2.7892,-42.6,3.42,0.78
19.068,-19.463,-4.7944,0.039706,4.5913,2.6948,-42.06,3.84,0.78
19.504,-19.532,-5.7886,-1.12,3.5937,1.9221,-41.22,4.38,-1.02
19.532,-19.532,-5.5571,-2.2684,-0.11759,1.3665,-40.56,4.92,-2.04
19.532,-16.222,-5.5162,-3.054,0.11912,1.3619,-39.6,5.52,-3.06
14.206,-7.8181,-4.522,-3.434,1.036,1.397,-37.5,6.78,-5.46
10.869,-4.4811,-3.1872,-3.9529,1.1658,1.2599,-36.24,7.14,-6.72
5.9793,2.9692,-0.99429,-4.5082,1.317,1.3137,-34.02,7.56,-8.88
3.7456,7.3141,0.24517,-4.215,1.503,1.5021,-33.72,7.32,-9.42
3.5822,8.9349,-0.57205,-2.4202,0.83078,1.9456,-33.48,7.32,-9.42
3.514,7.8726,-0.27241,-1.9606,0.49877,1.4691,-33.36,7.74,-9.24
1.2395,5.4073,-0.95342,-1.7999,-0.26512,0.87262,-33.3,8.94,-8.58
-0.68102,6.8238,-0.1362,-1.6701,-0.5229,0.57696,-33.3,9.54,-8.22
-2.7377,8.826,0.6674,-1.376,0.025656,0.2306,-33.48,10.62,-6.84
-3.4187,10.351,1.4574,-1.1567,0.19609,0.17135,-33.84,11.22,-5.88
-1.471,9.4253,1.2803,-0.52168,0.57269,0.053145,-34.08,11.7,-4.8
0.6674,8.6353,0.85808,-0.073915,0.45662,-0.31307,-34.68,12.0,-3.72
4.1678,7.3958,-0.5993,0.42608,0.048869,-0.84391,-35.82,12.66,-1.2
6.674,6.4288,-1.866,0.86621,-0.26328,-1.3182,-36.6,13.08,0.12
16.208,3.7728,-4.3994,1.2401,-0.34086,-1.6435,-37.68,13.68,1.92
19.123,-0.40861,-6.3062,2.0898,0.33964,-1.5324,-37.74,14.16,1.74
19.436,-5.0395,-5.2575,2.9764,0.1347,-2.5177,-37.68,14.58,0.72
19.532,-12.967,-6.6059,3.9337,-3.3106,-3.5613,-37.38,14.7,-2.28
19.532,-14.669,-6.279,4.4104,-4.2168,-3.1854,-37.2,14.64,-3.36
19.532,-15.99,-5.2983,4.4889,-3.0949,-2.4981,-37.02,14.34,-4.26
13.539,-18.837,-3.0646,3.1408,-1.4908,-1.6472,-36.54,13.02,-5.34
10.515,-16.985,-1.866,0.75595,-1.4707,-1.1555,-36.36,12.3,-5.64
6.8374,-10.215,-0.8036,0.42486,-1.4597,-1.153,-36.24,11.52,-5.7
1.8251,-5.6252,0.99429,0.67012,-1.5736,-1.4209,-36.12,10.2,-5.76
-2.4517,-4.2223,1.975,1.303,-1.8085,-1.2254,-36.06,9.48,-5.64
-5.1213,-4.3858,2.1248,1.4331,-1.8011,-0.60628,-36.06,8.94,-5.4
-7.4095,-4.2495,2.6696,0.84819,-1.1811,0.12431,-36.0,8.52,-4.32
-7.3277,-3.3642,2.8194,0.4609,-0.61728,0.042455,-35.7,8.46,-3.12
-7.0553,-2.8467,2.8875,0.33781,-0.33903,0.029322,-35.34,8.28,-1.56
-6.1292,-2.3018,2.4517,0.08491,0.354,0.88789,-34.98,7.86,0.36
-3.1463,-4.699,2.0431,-0.025045,0.48686,1.846,-34.2,7.14,3.48
-1.6753,-6.0066,1.5119,-0.24068,0.41722,2.4774,-33.84,6.96,4.5
-0.74912,-7.0009,0.78998,-0.5339,0.34483,2.7455,-33.3,7.02,5.34
-1.1441,-9.0848,0.27241,-0.70494,0.51862,3.2571,-32.04,7.68,5.82
1.185,-13.253,-2.7649,-0.37049,1.3857,4.061,-31.32,8.22,5.58
5.2575,-17.339,-5.6388,-0.489,1.8509,4.3995,-30.36,8.82,5.1
19.055,-19.504,-9.6023,0.0042761,4.1331,4.0222,-28.38,10.26,3.18
19.477,-19.532,-10.801,-0.76908,3.6924,2.6725,-27.3,10.92,1.62
19.532,-19.532,-9.2482,-2.0363,0.84177,2.4166,-26.46,11.46,0.24
16.739,-11.128,-8.1858,-2.1741,1.1054,1.6582,-25.2,12.06,-2.64
12.149,-4.9578,-6.9055,-2.3204,1.3433,1.0134,-24.84,12.24,-3.54
10.283,-2.152,-6.279,-2.7975,1.4132,0.79962,-24.48,12.6,-3.96
6.1836,6.4424,-3.7865,-1.948,2.2297,1.2663,-23.82,13.98,-3.84
5.8431,7.3277,-3.1327,-1.5293,2.1218,1.6008,-23.34,14.88,-3.6
6.1292,6.2926,-2.261,-1.262,1.106,1.6313,-23.1,15.84,-3.54
5.2711,6.0611,-2.4789,-0.90805,-0.094073,1.0916,-22.56,17.7,-3.0
2.8058,6.8374,-1.7843,-0.90347,-0.65668,0.20281,-22.32,18.42,-2.58
1.1713,7.4503,-1.076,-0.88056,-0.7083,-0.38851,-22.32,18.96,-2.16
-1.8251,9.5615,0.40861,-0.6857,-0.29505,-0.57421,-22.44,20.4,0.06
-1.6617,10.311,0.69464,-0.48136,0.12339,-0.56322,-22.5,21.18,1.56
-0.35413,9.9565,0.57205,-0.12737,0.32681,-0.66432,-22.68,22.02,3.0
4.0044,6.96,-1.5119,0.23488,0.219,-0.92027,-22.44,23.88,5.58
6.9191,5.2575,-2.9011,0.5003,-0.10599,-1.2569,-22.26,24.72,6.48
11.114,3.6911,-4.018,0.7477,-0.38149,-1.5302,-22.08,25.14,6.6
19.0,-2.3699,-8.6081,1.6396,-0.25748,-1.5049,-22.62,24.72,5.64
19.504,-12.776,-6.9736,2.5849,-0.31765,-2.6539,-23.16,24.18,4.8
19.532,-17.706,-7.0145,4.4886,-2.8292,-4.6621,-23.82,23.76,4.08
19.532,-19.504,-9.0303,3.6655,-3.4328,-3.9422,-25.38,22.38,2.28
19.532,-19.532,-7.1507,2.1997,-2.9514,-3.4092,-26.16,21.9,1.38
17.706,-19.15,-6.2381,1.2883,-2.4768,-3.277,-26.76,21.3,0.72
9.4934,-12.803,-3.2961,1.1463,-1.9703,-3.1191,-27.78,19.86,-0.18
5.9385,-11.713,-2.1248,1.0754,-1.7532,-2.8335,-28.38,19.02,-0.48
3.3234,-10.392,-0.5993,0.78863,-1.8598,-2.3143,-28.86,18.18,-0.66
-1.471,-6.4424,2.0294,0.55375,-1.6762,-1.762,-30.06,16.38,-0.78
-3.5413,-5.1349,2.6968,0.5568,-1.5177,-1.6234,-30.66,15.6,-0.9
-7.2869,-3.2553,3.7865,0.53451,-1.2596,-1.3958,-31.2,14.94,-0.84
-8.7579,-2.152,4.699,0.5006,-0.57696,-1.0287,-31.68,13.92,0.24
-9.0848,-1.9613,4.6854,0.36408,-0.10904,-0.44838,-31.8,13.26,1.14
-7.8317,-1.6208,4.1814,0.22571,0.36041,0.25626,-31.92,12.54,2.04
-4.5083,-3.0237,3.3097,0.18295,0.81398,1.3512,-31.92,11.22,4.08
-3.0782,-4.3177,2.6015,0.10996,0.62461,2.0189,-31.92,10.56,5.16
-2.3972,-5.0259,2.1112,0.071777,0.48319,2.2773,-32.04,10.14,5.88
-1.7843,-6.2926,1.0624,0.010996,0.27733,2.6563,-32.46,9.72,6.18
-1.9613,-9.1256,-2.9692,-0.075747,0.54734,3.1258,-32.52,9.9,6.36
2.7241,-16.808,-7.3686,-0.16371,1.565,3.6026,-32.4,10.14,6.0
10.583,-19.191,-13.511,-0.11179,2.8335,3.9328,-32.1,10.5,5.52
19.382,-19.532,-13.144,0.073915,5.4947,3.0259,-31.26,11.82,3.84
19.518,-19.532,-12.19,-2.0006,2.1619,1.9193,-30.72,12.36,2.58
19.532,-18.905,-11.959,-2.4349,0.92607,1.6408,-30.24,13.08,1.2
18.837,-12.49,-10.937,-2.1344,1.0864,1.3442,-29.88,13.5,-0.36
11.414,-4.0044,-6.8102,-2.0259,0.96669,1.3668,-29.46,14.1,-2.94
8.6625,-0.61292,-5.1621,-1.8271,1.3149,1.3338,-29.4,14.4,-3.6
5.3119,5.1213,-3.4459,-1.6973,1.3528,1.2984,-29.34,15.42,-3.78
3.9635,7.3005,-2.3836,-1.5266,1.4487,1.3415,-29.1,16.02,-3.72
3.7865,7.246,-1.8932,-1.2226,1.2263,1.3241,-28.68,16.92,-3.48
3.2416,7.0553,-1.8524,-1.1316,1.0186,0.82222,-28.44,17.64,-3.3
2.7377,7.3958,-1.1032,-1.08,0.57208,0.12523,-28.26,18.18,-3.06
-0.23155,12.354,0.42223,-0.85888,0.096211,-0.41142,-28.32,19.44,-2.22
-1.1305,12.871,0.61292,-0.27428,-0.094073,-0.62186,-28.5,19.8,-1.5
0.16344,8.4174,-1.5119,-0.01069,-0.20372,-0.58368,-28.74,20.04,-0.42
2.6423,5.993,-3.1327,0.20678,0.24343,-0.70066,-29.4,20.58,2.1
5.8295,4.8352,-5.1213,0.1967,0.57879,-1.1017,-29.76,20.94,3.48
10.569,3.732,-6.8102,0.18357,0.67531,-1.4731,-30.18,21.18,4.56
19.246,-1.3757,-6.7693,1.0128,0.67653,-2.1176,-30.9,21.42,4.74
19.518,-7.3822,-7.2733,2.0827,-0.71624,-3.6548,-31.32,21.6,3.72
19.532,-10.379,-7.4367,3.0962,-2.6979,-4.9886,-31.8,21.42,2.46
19.532,-16.031,-8.4582,4.233,-3.1545,-4.6633,-32.58,21.06,1.32
19.532,-19.409,-9.3027,2.8482,-2.5137,-3.4398,-34.26,19.56,-0.18
17.666,-18.96,-6.3607,1.9731,-2.4227,-2.8204,-35.04,18.54,-0.6
12.395,-14.383,-3.8273,1.1371,-2.1371,-2.4725,-35.7,17.28,-0.66
4.3858,-9.8339,-1.2395,0.84758,-1.5427,-1.9945,-37.02,14.76,-0.84
1.6481,-8.2812,-0.47671,0.85949,-1.2269,-1.8127,-37.68,13.38,-0.72
0.20431,-7.2869,0.25879,0.90439,-1.1316,-1.7025,-38.34,11.94,-0.54
-4.2495,-5.4618,2.8467,0.95509,-1.1222,-1.0369,-39.36,9.54,-0.3
-6.4016,-4.8352,4.0725,0.83872,-1.0318,-0.52687,-39.78,8.64,0.42
-7.7636,-3.8818,4.8625,0.72418,-0.67042,-0.1573,-39.9,7.74,1.2
-9.4389,-2.6832,4.522,0.67592,-0.07758,0.47281,-40.14,5.76,4.02
-8.5944,-2.8467,4.0997,0.58949,0.69394,1.273,-40.02,4.74,5.52
-5.1349,-3.5958,3.4732,0.53603,1.2544,2.043,-39.96,3.9,6.9
-2.3291,-5.4073,2.4789,0.44349,1.2941,2.5192,-39.84,2.82,8.76
-1.7706,-6.456,1.2803,0.36346,1.2517,2.8356,-39.9,2.64,9.36
-1.4165,-7.75,0.054481,0.25076,1.2315,3.0742,-39.6,2.7,9.6
1.3484,-14.261,-3.5685,0.099876,1.4142,3.2211,-39.0,3.36,9.06
6.8374,-18.701,-6.1973,-0.19395,2.6872,3.4279,-38.52,4.02,8.22
12.708,-19.327,-8.0632,-0.22174,3.0684,3.2956,-38.16,4.74,6.9
19.109,-19.518,-10.433,0.4215,5.1853,2.3436,-37.86,5.28,5.52
19.518,-19.532,-9.6977,-1.3833,2.1273,2.1115,-37.32,6.36,2.16
19.532,-17.38,-8.5263,-2.3359,0.23579,2.0284,-37.2,6.9,0.66
17.543,-12.19,-7.641,-2.3711,1.0678,1.4575,-37.02,7.5,-0.72
11.319,-3.2144,-5.3937,-2.9001,1.587,1.182,-37.32,8.64,-3.0
8.6489,0.70826,-3.2553,-3.0962,2.0436,1.007,-37.26,9.36,-3.6
6.8102,3.6094,-1.5119,-2.4651,2.0339,1.0125,-37.26,10.02,-3.96
4.3858,8.1313,-0.25879,-2.0009,1.6032,1.127,-37.14,10.98,-4.14
2.833,8.6353,-0.65378,-1.7171,1.4096,0.99266,-36.9,12.84,-4.38
1.7706,7.9543,-0.83084,-1.5809,0.93493,0.41997,-36.72,13.86,-4.32
-0.054481,9.3572,-1.0079,-1.6362,0.94073,0.25717,-36.96,15.54,-3.3
-0.85808,10.202,-0.61292,-1.5003,0.99999,0.025962,-36.96,16.38,-2.4
-0.77636,10.215,-0.12258,-1.208,1.0809,-0.047953,-36.96,17.22,-1.38
0.9398,8.7443,-0.14982,-0.86101,1.1652,-0.28802,-36.78,19.38,1.14
3.3506,7.7636,-1.4029,-0.53084,1.1823,-0.68264,-36.6,20.16,2.34
6.1428,7.0145,-2.9148,0.032681,0.95112,-1.1836,-36.42,21.36,4.14
15.323,4.0997,-3.6775,0.56994,0.59193,-1.3552,-36.6,21.72,4.44
19.0,0.43585,-4.3177,1.0091,0.39859,-1.496,-36.9,21.6,3.9
19.409,-3.2825,-5.4754,2.1942,-0.17593,-2.2852,-37.38,21.36,2.88
19.532,-12.34,-5.2847,4.2965,-1.8326,-4.9269,-37.86,20.94,1.38
19.532,-17.815,-6.6331,5.4785,-3.7956,-4.8466,-39.48,20.04,-2.28
19.532,-19.423,-7.6819,4.3035,-3.5238,-3.2614,-40.08,19.44,-3.6
18.129,-18.605,-4.7263,3.0442,-3.2266,-2.6808,-40.5,18.78,-4.74
11.427,-13.961,-2.1793,1.5336,-2.6001,-2.2941,-41.34,16.86,-5.88
7.1234,-11.863,-1.3348,1.1597,-2.1237,-1.8014,-41.76,15.78,-6.0
4.4402,-10.951,-0.77636,0.71166,-1.93,-1.3653,-42.24,14.52,-6.0
-1.8796,-6.4424,1.4165,0.35247,-1.6444,-1.0938,-43.26,12.0,-6.18
-5.094,-3.8682,2.3427,0.31246,-1.1243,-1.1023,-43.56,10.98,-6.24
-9.6977,-2.2065,3.909,0.45051,-0.65943,-0.77366,-43.68,9.12,-5.58
-10.011,-2.0703,4.3721,0.36927,-0.11637,-0.012217,-43.56,8.58,-4.74
-9.221,-1.8387,4.4266,0.31246,0.12737,0.30574,-43.38,7.92,-3.6
-6.1836,-2.4517,4.1678,0.29841,0.70799,0.97586,-42.66,6.6,-0.24
-4.699,-3.6503,3.5685,0.30391,0.81459,1.6405,-42.36,5.88,1.62
-2.9965,-5.0531,2.8058,0.32773,0.81092,2.3427,-42.12,5.22,3.06
-0.054481,-9.0303,1.1169,0.36469,0.81489,2.9474,-42.0,4.62,4.62
0.92618,-11.046,-0.32689,0.31918,0.83566,3.0549,-41.82,4.62,4.62
4.3994,-16.876,-3.9227,0.089492,1.1173,3.1472,-41.52,4.74,4.26
16.576,-19.45,-7.0009,-0.067195,2.9541,3.1197,-40.62,5.64,2.7
19.314,-19.518,-6.8919,-0.20036,4.6056,2.4664,-40.14,6.06,1.68
19.504,-19.532,-7.8862,-1.6078,2.5992,1.905,-39.66,6.48,0.3
19.532,-15.132,-8.2539,-2.3396,-0.10415,2.0983,-38.64,7.38,-2.22
17.611,-11.25,-7.7364,-2.2171,0.47342,1.1047,-38.22,7.8,-3.42
13.184,-7.4095,-6.3198,-2.3656,0.63744,0.9838,-37.98,8.16,-4.44
7.1915,0.1362,-2.4244,-2.9224,1.3995,0.9276,-37.92,8.94,-5.46
4.5764,4.9714,-0.99429,-2.5583,2.0598,0.95539,-37.8,9.48,-5.64
3.2825,8.7579,-0.6674,-2.0372,2.2269,1.1481,-37.68,10.32,-5.7
2.4517,9.4389,-2.0975,-1.6289,1.6591,1.3958,-37.08,12.18,-5.4
2.3699,7.9951,-2.3155,-1.2758,0.83475,1.1099,-36.9,13.14,-4.98
1.2258,7.6138,-1.8115,-1.2263,0.5733,0.55192,-36.6,14.1,-4.5
-1.0896,9.5751,-0.54481,-1.1588,0.74831,0.13011,-36.18,15.84,-3.3
-1.471,10.174,0.14982,-0.85765,0.83811,0.013134,-36.06,16.8,-2.34
-0.27241,8.9894,0.47671,-0.45082,0.88423,0.013744,-35.94,17.64,-1.26
3.2825,7.5593,0.28603,-0.086743,0.82314,-0.68722,-35.7,19.62,0.54
4.808,7.2596,-0.12258,0.63988,0.56994,-1.39,-35.64,20.34,1.44
8.3901,6.3062,-0.78998,1.2361,0.12553,-1.9426,-35.46,20.88,2.1
17.734,2.547,-3.5413,1.865,-0.080634,-2.2297,-35.28,21.0,1.14
19.314,-2.2882,-5.7069,2.6707,-0.17349,-2.5565,-35.64,20.64,-0.48
19.504,-9.5751,-4.7807,3.6383,-0.2868,-3.9318,-36.06,20.1,-2.58
19.532,-18.578,-4.7263,5.8756,-4.4544,-4.7547,-37.26,18.96,-7.38
19.532,-19.3,-7.6819,3.5644,-3.7968,-2.9786,-37.62,18.18,-9.42
19.532,-19.504,-4.7399,1.9792,-2.5485,-2.5232,-37.98,17.28,-10.92
13.893,-13.77,-2.6015,0.86071,-1.7758,-2.5021,-38.34,15.42,-12.84
10.025,-10.733,-1.3757,0.81795,-1.4071,-2.3451,-38.7,14.04,-13.56
4.8761,-9.902,-0.72188,0.9389,-1.3222,-2.0675,-38.94,12.9,-14.1
-0.35413,-7.7091,0.65378,0.90286,-1.3088,-1.4343,-39.66,10.32,-14.64
-1.9886,-6.1836,1.8524,0.78099,-1.0895,-0.6634,-39.84,9.18,-14.94
-5.8295,-3.7047,3.2961,0.80604,-1.1246,-0.45387,-40.14,8.22,-15.18
-9.9701,-2.833,4.0861,0.76144,-0.90713,-0.10812,-40.08,7.08,-13.98
-10.61,-2.8058,3.9227,0.6973,-0.48167,0.32376,-39.78,6.66,-12.6
-10.052,-2.833,3.623,0.57024,-0.0076358,0.83108,-39.42,6.18,-10.68
-8.1041,-3.3778,3.3234,0.51893,0.53451,1.5696,-39.0,5.4,-8.52
-3.732,-6.6059,1.5255,0.42699,0.77488,2.7495,-38.64,4.5,-4.56
-1.7162,-8.717,0.027241,0.24923,0.75167,3.2504,-38.52,4.32,-3.42
0.21793,-10.76,-1.3484,0.12675,0.77946,3.3995,-38.46,4.14,-2.58
7.3414,-18.442,-5.2847,-0.3427,1.7492,3.7153,-37.86,4.98,-1.92
16.44,-19.395,-7.4095,-0.54275,2.8433,3.708,-37.32,5.58,-2.22
19.15,-19.518,-7.0553,-0.52198,4.8295,3.0754,-36.72,6.12,-2.94
19.532,-18.919,-6.3879,-2.2184,2.8237,1.6521,-35.52,7.26,-5.1
19.532,-16.154,-6.1973,-3.1322,0.39859,1.3366,-34.8,7.92,-5.82
18.905,-11.959,-5.6661,-2.9899,1.1411,0.92668,-34.32,8.52,-6.78
11.496,-4.5628,-3.1463,-3.0907,1.339,0.7199,-33.42,9.48,-8.28
9.0848,-1.3893,-1.1577,-3.2144,1.507,0.74648,-33.3,9.84,-8.88
5.8295,3.6094,-0.12258,-2.999,1.8277,1.0079,-33.18,10.32,-9.18
2.833,8.5127,-0.01362,-1.9126,1.2489,1.3552,-32.94,11.82,-8.7
2.3836,8.9486,-0.62654,-1.3848,0.821,1.16,-32.88,12.66,-8.22
1.6889,8.7987,-0.31327,-1.215,0.72937,0.91752,-32.7,13.62,-7.68
-0.61292,9.902,-1.185,-1.0553,0.30085,0.051007,-33.12,15.18,-6.3
-1.58,11.605,-0.6674,-0.78832,0.15974,-0.3317,-33.42,15.72,-5.22
-2.3018,12.354,-0.6674,-0.40775,0.15608,-0.6127,-33.78,16.62,-3.78
-0.8036,10.188,0.46309,0.1014,0.062614,-0.7367,-34.8,18.0,-0.96
1.0624,8.5808,-0.21793,0.62064,0.31551,-1.0825,-35.28,18.54,0.36
3.5004,7.2869,-1.3212,0.76236,0.36408,-1.3173,-35.7,18.96,1.62
11.931,4.0997,-4.2495,1.1634,0.26817,-1.93,-36.6,18.84,2.76
18.347,0.28603,-4.8625,1.7281,0.32773,-1.9988,-36.96,18.78,2.04
19.463,-8.0905,-4.9987,2.6615,0.37874,-3.0992,-37.5,18.96,0.84
19.532,-14.928,-4.9578,3.9502,-1.4939,-4.7272,-38.82,18.96,-2.76
19.532,-16.004,-4.522,4.6902,-3.3704,-3.4511,-39.42,18.54,-4.38
19.532,-19.028,-6.0474,4.4984,-2.595,-2.9639,-39.96,17.88,-5.82
17.693,-17.992,-2.5742,1.3635,-1.1683,-2.7355,-40.56,15.96,-7.44
14.465,-12.258,-2.0294,0.91752,-0.7196,-2.5207,-40.92,14.76,-8.1
11.223,-9.2482,-0.88532,1.1545,-0.82894,-2.2379,-41.28,13.44,-8.58
7.355,-8.4174,-0.095342,1.6744,-1.0421,-1.8656,-41.52,12.18,-9.0
-1.4982,-7.8998,1.6208,1.3949,-1.2168,-0.83902,-42.06,9.66,-9.3
-5.6933,-6.3335,2.5334,1.1533,-1.1191,-0.38423,-42.12,8.58,-9.54
-8.7715,-4.3449,3.051,1.0357,-0.97647,-0.38607,-42.18,7.98,-9.48
-11.782,-1.9341,3.1735,1.0046,-0.51771,-0.53817,-42.12,7.32,-7.32
-11.196,-1.7979,2.6423,0.88362,-0.19731,-0.033903,-41.76,6.6,-5.52
-8.4991,-3.4187,1.5119,0.67684,0.26328,0.98533,-41.16,5.7,-3.72
-4.7535,-5.1213,0.96704,0.34422,0.30299,2.2831,-40.38,3.84,-0.36
-3.4051,-6.7012,0.70826,0.081245,0.38362,3.058,-40.2,3.3,0.9
-2.2474,-8.3084,0.68102,-0.041233,0.49694,3.404,-40.08,2.94,1.56
-0.12258,-13.471,-0.14982,-0.2868,1.0125,4.1924,-39.48,3.66,2.4
3.1054,-18.17,-3.5822,-0.70585,1.4908,4.4257,-39.0,4.26,2.34
14.329,-19.45,-5.993,-0.6915,2.8824,3.9825,-38.1,5.34,2.04
19.382,-19.532,-4.3585,-0.36744,5.977,1.8552,-35.88,7.08,-0.12
19.518,-19.532,-4.6854,-1.4896,4.539,1.3815,-34.74,7.56,-1.44
19.518,-19.532,-4.6854,-2.4031,1.8204,1.6515,-34.74,7.56,-1.44
19.532,-12.272,-5.1894,-2.7602,0.28314,1.8436,-32.82,8.28,-4.08
13.838,-4.7399,-5.1485,-3.2926,0.97464,0.86896,-32.16,8.46,-5.16
8.5127,1.3348,-2.7377,-3.3836,1.5021,0.26725,-31.5,9.12,-6.36
3.623,7.4912,-0.70826,-2.3332,1.5876,0.49999,-30.84,10.68,-6.66
2.5879,8.7579,-0.19068,-1.7178,0.7984,0.75381,-30.42,11.52,-6.6
0.76274,8.1858,-0.51757,-1.3879,0.19761,0.51038,-29.76,13.26,-6.42
-1.5527,7.9951,-0.42223,-1.2175,-0.25565,0.1689,-29.82,14.28,-6.0
-3.8273,10.351,0.35413,-1.3152,-0.067195,-0.13378,-30.36,15.12,-4.62
-4.413,11.713,0.72188,-1.2688,0.23152,-0.32406,-30.9,15.66,-3.24
-4.127,12.626,1.4846,-0.94562,0.56933,-0.36285,-32.16,17.46,-0.54
-2.0703,11.482,1.3757,-0.2419,0.6466,-0.37202,-32.64,19.5,1.8
1.1441,9.4389,-0.027241,0.16402,0.61056,-0.59254,-32.4,21.42,2.7
5.1213,7.7091,-2.1929,0.48075,0.45601,-0.95417,-32.22,22.02,2.58
11.809,5.4754,-3.3234,0.77488,0.3204,-1.2452,-32.28,21.42,1.98
19.205,-1.8932,-3.7184,1.2688,0.64446,-1.361,-32.58,20.22,0.84
19.504,-11.196,-2.0839,2.365,1.328,-2.6967,-33.06,18.84,-1.68
19.532,-13.661,-2.0703,4.5705,-3.1169,-5.9171,-33.36,18.06,-3.06
19.532,-17.162,-3.0782,5.003,-3.7864,-5.6273,-33.72,17.46,-4.38
19.532,-19.382,-4.4402,4.4327,-1.81,-3.2718,-34.32,15.96,-6.78
19.532,-19.504,-2.7922,2.7474,-2.3176,-2.8479,-34.56,15.06,-7.74
12.449,-13.416,-0.64016,1.8998,-2.1298,-2.4319,-34.98,13.02,-8.94
7.7364,-11.809,0.027241,1.7972,-1.4193,-1.7944,-35.22,11.7,-9.18
3.7184,-11.06,0.19068,1.7514,-0.8882,-1.2028,-35.46,10.5,-9.36
-1.6481,-7.9951,1.0896,1.555,-1.0583,-0.75198,-36.06,8.22,-9.66
-4.5356,-6.565,2.1793,1.3418,-1.3738,-0.67623,-36.36,7.2,-9.36
-6.7012,-5.993,2.7922,1.0574,-1.6405,-0.71502,-36.54,6.12,-9.0
-11.087,-4.9987,3.5685,0.68997,-1.1118,-0.3598,-37.14,4.38,-7.2
-12.408,-4.4402,3.3642,0.26909,-0.04612,0.47403,-37.32,3.42,-5.82
-9.9701,-3.3506,2.833,-0.18082,0.31246,0.7871,-37.26,1.68,-2.88
-6.9328,-4.522,2.5742,-0.37049,1.2248,1.5595,-37.26,1.02,-1.44
-4.9442,-5.8295,2.2201,-0.56352,1.525,2.4462,-37.26,0.54,-0.36
-0.12258,-9.9973,0.6674,-0.88728,1.3152,3.4627,-37.08,0.3,0.72
1.6617,-13.593,0.027241,-0.99724,1.3726,3.9838,-36.84,0.3,0.84
5.5843,-18.496,-0.8036,-1.2682,2.3277,4.4334,-36.42,0.78,0.72
19.014,-19.518,-0.96704,-0.98838,5.018,3.5332,-35.22,2.1,-0.54
19.477,-19.532,-2.2474,-2.0568,4.9052,1.4783,-34.56,2.76,-1.62
19.532,-19.532,-3.0646,-2.9578,2.5821,1.1561,-33.66,3.42,-3.0
19.532,-15.078,-3.6503,-3.105,0.83261,2.2181,-32.94,4.08,-4.26
15.037,-6.2517,-3.0918,-3.2266,1.449,1.5131,-31.26,4.8,-6.66
11.645,-2.152,-1.9477,-3.8472,1.5327,1.0632,-30.6,5.1,-7.68
7.6002,5.6252,0.23155,-3.8347,2.7156,1.397,-30.06,6.18,-9.0
5.8023,10.896,0.99429,-2.2975,2.3445,1.9639,-29.82,7.08,-9.48
5.6661,11.782,0.38137,-1.6561,1.6762,1.6655,-29.4,8.22,-9.54
3.5004,9.3163,-2.547,-1.3809,1.3134,0.55222,-28.44,10.62,-9.66
2.3018,9.9973,-2.6968,-1.4575,0.31429,-0.23457,-28.14,11.7,-9.6
0.57205,11.836,-2.1248,-1.138,0.073915,-0.57941,-28.08,12.54,-9.42
-1.7979,12.177,-0.6674,-0.81123,-0.059559,-0.821,-28.14,13.8,-8.4
-1.2531,11.06,-0.40861,-0.2306,-0.069028,-0.76602,-28.2,14.46,-7.44
0.57205,9.7385,-0.47671,-0.024435,0.18937,-0.97341,-28.5,15.18,-6.36
5.2983,8.322,-1.2258,0.39309,0.093768,-1.3338,-29.04,16.62,-4.26
8.6898,6.6876,-1.7979,0.86193,-0.32865,-1.6942,-29.22,17.1,-3.72
15.949,3.8273,-1.5255,1.295,-0.4328,-2.0036,-29.28,17.28,-3.6
19.423,-2.656,-2.3836,1.8854,-0.33995,-2.4074,-29.04,17.52,-5.52
19.504,-6.3743,-2.5198,3.4963,-0.90316,-4.1514,-28.98,17.34,-7.08
19.532,-14.601,-1.2803,4.2602,-1.9655,-4.8148,-29.04,17.1,-8.64
19.532,-19.286,-4.4811,5.2067,-3.4111,-3.5149,-29.76,15.9,-10.74
19.532,-19.504,-1.7025,2.2856,-2.178,-2.448,-30.06,15.12,-11.34
18.129,-17.597,-1.2939,1.3595,-1.6374,-2.4331,-30.42,14.28,-11.76
9.8475,-9.6977,0.12258,1.1765,-1.1396,-2.0137,-31.2,12.48,-12.24
5.9657,-9.1393,0.35413,1.5956,-0.99815,-1.5754,-31.86,11.58,-12.24
2.3699,-9.112,0.8036,1.6484,-1.0892,-1.2324,-32.46,10.56,-12.24
-0.38137,-8.1177,1.4438,1.507,-1.4007,-0.21502,-33.12,9.54,-12.24
-4.9169,-5.4073,2.7922,1.4795,-1.7309,-0.0097738,-34.26,8.1,-11.76
-7.7227,-3.8273,3.4051,1.4801,-1.7639,0.024435,-34.92,7.8,-10.98
-10.529,-2.9965,3.8682,1.3647,-1.2043,0.14447,-36.12,6.9,-8.04
-12.19,-2.547,3.5004,0.92699,-0.53115,0.82864,-36.72,6.48,-6.18
-11.577,-2.6423,3.0918,0.77702,-0.21105,1.1979,-37.2,5.82,-4.44
-8.6898,-3.732,2.6015,0.59254,0.87965,2.1093,-37.62,5.28,-3.0
-4.6037,-6.0474,2.261,0.23396,1.2309,3.1985,-37.92,5.04,-1.86
-0.40861,-9.221,0.83084,-0.023518,1.0663,3.587,-38.1,5.04,-0.6
1.1032,-11.182,-0.77636,-0.34239,0.91783,3.8054,-37.98,5.34,-0.3
5.7614,-18.156,-3.7456,-0.67409,1.2868,3.8032,-36.96,6.78,-0.6
16.835,-19.45,-3.3097,-0.75595,3.8185,3.7712,-36.12,7.44,-1.14
18.864,-19.504,-1.9613,-0.67776,4.9404,3.5503,-35.16,8.28,-2.1
19.518,-19.463,-5.2438,-1.602,3.9691,1.9303,-33.24,9.54,-4.26
19.532,-15.405,-6.0883,-2.0375,-0.35491,1.81,-32.46,10.02,-5.16
19.532,-11.741,-5.8023,-1.8601,-0.25626,1.2413,-31.68,10.68,-5.82
11.959,-4.8761,-4.1678,-2.5339,0.65149,0.70311,-30.3,12.3,-6.72
9.0439,-1.975,-2.8467,-3.2119,1.3048,0.58277,-29.64,13.38,-6.9
6.3198,1.5119,-1.8115,-3.5708,2.0562,0.44227,-29.22,14.52,-7.02
2.8875,8.8396,-0.65378,-3.2248,2.3527,0.27703,-28.26,16.68,-7.02
2.5198,11.482,-1.7843,-2.4532,1.7397,0.27061,-27.96,17.7,-6.96
2.1248,11.482,-0.61292,-1.941,0.32834,-0.13653,-27.78,19.44,-6.36
-0.53119,10.828,0.47671,-1.7174,-0.26695,-0.63683,-27.84,20.1,-5.76
-2.3155,12.149,1.4438,-1.635,-0.19426,-0.80634,-28.08,21.06,-4.86
-2.8739,12.681,1.7706,-1.3656,0.29474,-0.99205,-28.5,21.78,-3.6
-2.3836,11.931,1.866,-0.49938,0.48411,-0.9557,-29.46,23.4,-1.02
-0.31327,9.8066,1.3212,0.12126,0.6298,-0.87415,-29.82,24.36,-0.06
2.2337,7.9679,0.99429,0.58063,0.70799,-1.1051,-30.24,25.02,0.72
9.3844,5.5299,-0.35413,1.0965,0.68722,-1.6014,-30.9,25.2,1.56
15.609,3.9499,-0.85808,1.8937,0.78832,-1.5656,-31.2,24.6,1.32
19.014,2.1656,-0.77636,2.3305,0.77274,-1.5134,-31.56,23.7,0.18
19.477,-5.6252,-0.61292,4.4135,0.72113,-3.1246,-31.98,22.92,-1.56
19.532,-18.047,-1.3757,6.0974,-3.0018,-4.711,-32.7,21.72,-5.34
19.532,-19.355,-3.6639,7.0634,-4.0561,-3.8543,-33.3,20.94,-6.84
19.327,-19.532,-2.7241,3.1307,-2.1695,-2.7565,-34.2,18.96,-8.52
15.5,-15.228,-2.9556,2.7156,-1.7926,-2.8005,-34.62,17.7,-9.12
10.787,-9.9156,-1.866,1.836,-1.3509,-2.6597,-35.22,16.32,-9.72
7.1643,-8.54,-1.1713,2.1145,-1.5983,-2.445,-35.7,14.88,-10.02
4.699,-8.2812,-0.83084,1.9291,-1.8891,-1.927,-36.12,13.32,-10.26
-2.3155,-6.279,0.96704,1.5644,-2.0327,-1.3192,-37.08,10.2,-10.5
-4.3177,-5.4754,1.5255,1.1237,-2.058,-0.8491,-37.56,8.82,-10.32
-8.0632,-3.051,3.4051,0.96853,-1.9908,-0.78649,-37.86,7.8,-10.14
-9.4798,-2.3291,3.9908,0.70341,-1.4578,-0.75442,-38.52,6.12,-7.8
-10.719,-2.0839,4.1678,0.4667,-0.92302,-0.64416,-38.7,5.22,-5.46
-10.855,-2.4517,4.127,0.018937,0.020464,0.4499,-38.88,4.08,-2.94
-6.6059,-4.0861,4.1406,-0.15821,0.92699,1.3696,-39.12,1.5,1.02
-4.127,-5.7342,3.8546,-0.29871,0.99693,2.3903,-39.24,0.6,2.58
-0.89894,-10.256,2.6287,-0.41508,0.8097,2.9871,-39.6,-0.6,4.2
-0.5993,-13.879,1.6072,-0.48594,1.0806,3.6542,-39.6,-0.54,4.74
0.47671,-17.597,0.54481,-0.64416,1.4572,4.1188,-39.3,-0.24,5.1
16.944,-19.504,-1.8251,-0.84391,3.821,4.9364,-38.64,0.96,4.98
19.218,-19.532,-1.757,-0.043371,6.8722,4.007,-38.1,1.92,4.14
19.491,-17.366,-3.3506,-2.8136,1.0959,2.0323,-36.42,3.6,1.08
19.532,-12.585,-4.5356,-2.4914,0.32834,2.8769,-35.64,4.26,-0.84
18.02,-7.6819,-4.7399,-2.2669,1.0831,2.5137,-34.8,4.68,-3.0
15.677,-5.3119,-4.3177,-2.4835,1.1124,2.317,-34.44,4.92,-4.92
12.994,-2.2882,-2.7922,-3.3732,1.7819,1.9768,-34.26,5.04,-6.36
8.0632,4.699,-0.40861,-3.3854,2.6997,2.0501,-34.32,6.96,-7.5
6.7966,8.3901,-0.31327,-2.5271,2.8191,2.4514,-34.02,8.52,-8.04
5.5435,10.42,-1.9068,-2.3955,2.1221,2.5672,-32.94,11.94,-8.82
4.7944,10.447,-1.2258,-1.8485,0.57269,1.3961,-32.28,13.44,-9.06
3.6366,10.924,-0.83084,-1.7379,0.34178,0.91049,-31.86,15.0,-9.48
-0.32689,13.757,1.3893,-1.4734,0.23976,0.009163,-31.14,17.58,-9.78
-1.4165,14.138,1.9477,-1.0492,0.32467,-0.23274,-30.96,18.6,-9.36
-1.866,13.784,2.6423,-0.197,0.36621,-0.70891,-31.2,20.82,-7.2
1.5936,10.093,1.9613,0.29291,0.65973,-1.0299,-31.56,22.02,-5.88
4.7671,8.1177,1.2395,0.74128,0.66462,-1.4322,-31.86,23.46,-4.56
6.8102,7.355,0.72188,1.2358,0.44379,-1.8017,-31.86,24.96,-3.54
13.157,6.3743,-0.96704,1.7657,0.34972,-1.7614,-31.86,26.16,-2.94
19.314,-2.833,-1.7025,2.7159,0.86651,-1.5375,-31.98,25.92,-4.2
19.504,-13.416,1.0896,4.0473,1.1842,-3.5488,-32.64,25.14,-5.88
19.532,-19.355,-2.833,6.0011,-4.0607,-5.5048,-33.48,24.3,-8.16
19.532,-19.504,-2.3836,3.587,-3.2831,-4.0207,-35.64,22.8,-12.66
19.532,-19.532,-1.9341,2.5947,-2.4441,-3.6893,-36.12,21.9,-13.92
18.483,-17.475,-1.2667,1.6713,-2.0803,-3.2678,-36.72,20.7,-14.64
8.1858,-14.274,1.0079,1.5464,-1.8247,-2.9664,-38.04,17.46,-15.12
5.2166,-13.702,1.7025,1.186,-1.9096,-2.4664,-38.82,15.54,-15.12
1.2803,-11.414,3.3642,0.48686,-1.9652,-1.4478,-39.54,13.62,-15.12
-6.1564,-5.7478,4.7535,0.3149,-1.8738,-1.2504,-40.98,9.9,-14.64
-8.8532,-3.9499,4.9442,0.46151,-1.4083,-1.1319,-41.64,8.04,-14.22
-13.021,-3.228,4.9306,0.63316,-0.77366,-0.94134,-41.94,6.54,-13.68
-14.533,-2.833,4.7807,0.52534,-0.40042,-0.2981,-42.3,5.46,-12.84
-10.12,-1.8387,3.5277,0.55894,0.44043,0.39034,-42.3,3.54,-9.78
-7.2052,-3.4051,2.9965,0.62492,0.956,1.7938,-42.12,2.4,-7.26
-3.3778,-7.3958,2.0975,0.47006,0.79229,2.7813,-41.7,-0.18,-2.22
-1.7843,-9.4525,1.4301,0.24893,0.81184,3.394,-41.82,-1.26,-0.6
-1.076,-10.42,0.62654,0.1127,0.78282,3.5528,-41.76,-1.74,0.42
3.8954,-17.448,-3.2825,-0.41508,1.1005,3.6768,-41.1,-1.38,0.84
11.659,-19.259,-3.7456,-0.51465,2.4829,3.755,-40.56,-0.72,0.42
18.551,-19.504,-2.2201,-0.24343,4.8045,3.5094,-39.42,-0.06,-0.3
19.518,-19.532,-2.2474,-1.9786,3.7666,0.90225,-36.48,0.78,-3.6
19.532,-16.998,-2.5879,-2.7477,0.83414,0.9389,-35.1,0.78,-5.34
19.532,-14.805,-2.7513,-2.8567,0.35522,1.6515,-34.26,0.78,-6.96
14.274,-7.5593,-1.5527,-3.2028,1.0684,1.3854,-32.88,0.84,-9.6
10.706,-3.7047,-0.54481,-3.74,1.4401,1.1719,-32.52,1.02,-10.44
8.2539,0.19068,1.7706,-4.204,2.0895,1.0901,-32.52,1.44,-10.98
3.9635,9.4934,2.2201,-2.8854,2.6127,1.5718,-32.34,3.72,-11.1
3.8682,12.422,-0.44947,-2.2202,1.7758,1.7544,-32.22,5.04,-11.1
4.2223,12.204,-0.96704,-1.6341,0.6918,1.3008,-32.28,6.3,-11.04
1.6753,11.7,-1.3212,-1.2303,-0.066279,0.35216,-32.64,8.58,-10.68
-0.91256,12.449,-0.76274,-1.0809,-0.17196,-0.45357,-32.94,9.54,-10.08
-2.656,12.776,-0.027241,-0.87232,0.12645,-0.72846,-33.72,10.44,-9.12
-1.7162,12.04,0.84446,-0.3488,0.56413,-0.57727,-35.82,13.14,-5.64
1.5391,10.161,0.96704,0.14661,0.89339,-0.65424,-36.84,15.06,-3.78
3.7592,8.717,1.1305,0.69058,0.7422,-1.1066,-37.44,16.8,-2.16
10.896,5.7614,0.8717,1.4407,0.12462,-1.7413,-38.58,19.62,0.18
15.173,3.7728,0.16344,2.1441,-0.48442,-2.332,-38.94,20.4,0.3
18.891,0.29965,0.14982,2.974,-0.71196,-2.6304,-38.88,20.58,-0.54
19.518,-13.103,2.6423,3.857,-0.50946,-3.2083,-39.36,19.98,-4.86
19.532,-16.944,2.0975,5.4147,-2.0638,-4.0213,-39.66,19.8,-7.2
19.532,-19.096,-0.78998,6.0763,-3.591,-2.8592,-39.9,19.38,-9.0
19.532,-19.518,0.35413,2.7471,-2.0097,-1.4591,-40.32,18.48,-11.28
17.489,-14.206,0.35413,1.7199,-1.8738,-1.8564,-40.56,17.82,-11.82
12.721,-10.937,0.31327,1.5953,-1.8659,-1.9975,-40.8,16.92,-12.12
4.0044,-9.1256,0.85808,1.8885,-2.0754,-1.5864,-41.28,14.64,-12.78
0.54481,-9.0575,1.6481,1.4276,-2.0592,-0.81917,-41.46,13.44,-12.9
-1.471,-8.3629,2.1248,0.66218,-1.7199,-0.15944,-41.64,12.36,-13.2
-6.9191,-4.3449,2.9556,0.2474,-1.4536,-0.049786,-41.76,10.8,-12.9
-8.3493,-2.4789,2.7377,0.35186,-0.96425,-0.35125,-41.82,10.62,-12.3
-9.6568,-1.7434,2.4925,0.56139,-0.37415,-0.58093,-41.88,10.62,-10.8
-8.1041,-2.547,1.757,0.36957,-0.069639,0.54764,-41.52,10.08,-6.12
-6.8238,-3.1327,1.6208,0.069028,0.57024,1.4132,-41.28,9.3,-3.78
-4.8352,-5.0531,1.7843,-0.028405,0.62064,1.7761,-41.22,8.64,-1.8
-2.7649,-7.2324,2.1793,-0.43341,0.52901,2.7486,-41.04,7.74,0.78
-1.8251,-8.9758,1.7706,-0.63927,0.47434,3.2061,-40.74,7.8,1.32
-1.2531,-11.496,-0.027241,-0.7138,0.4945,3.4801,-40.2,7.98,1.74
4.4947,-18.905,-3.732,-1.0101,2.1472,3.8405,-38.34,9.18,1.5
15.255,-19.45,-1.6617,-0.81215,3.9343,3.9941,-37.02,9.78,0.66
18.469,-19.504,1.5527,-0.63255,6.7418,3.2428,-35.64,10.08,-0.3
19.518,-18.088,-3.5549,-2.3292,2.5128,1.7248,-33.18,9.66,-2.76
19.532,-13.198,-3.8273,-2.3534,-1.0611,2.262,-32.22,9.48,-3.54
19.532,-10.011,-5.6797,-2.5128,1.4285,1.6148,-31.62,9.36,-4.2
15.432,-3.6366,-3.3506,-2.9981,0.9615,0.27917,-30.6,10.08,-4.92
9.7522,-0.9398,-1.076,-3.1148,0.43219,0.7141,-30.3,10.86,-4.74
5.4345,2.2474,-0.57205,-2.9019,0.6857,0.91477,-29.76,11.88,-4.62
2.6696,5.884,-1.0215,-2.3769,1.0437,1.0907,-29.22,12.96,-4.38
1.8932,8.2131,-0.95342,-2.0721,1.4239,0.93401,-28.08,15.18,-3.78
1.2122,8.3765,-0.68102,-1.6808,1.1625,0.63041,-27.78,16.2,-3.42
-1.0896,12.177,0.99429,-1.4523,0.62003,0.24221,-27.72,17.22,-2.94
-1.7162,13.634,1.7025,-0.77916,0.80176,-0.33781,-28.2,19.02,-1.08
-1.975,13.348,2.0294,-0.1069,0.67378,-0.51374,-28.68,20.22,0.42
-0.99429,11.618,1.8387,0.30299,0.45112,-0.51282,-28.98,22.02,1.8
3.8409,7.3141,-0.17706,1.0837,0.31734,-0.75503,-29.34,25.74,3.96
7.2188,5.0531,-1.2531,1.4224,0.29016,-1.2004,-29.04,27.3,4.56
12.217,3.0237,-0.61292,1.8021,0.01741,-1.493,-29.04,28.38,5.22
19.355,-3.9499,-0.61292,2.8466,-0.343,-2.047,-29.1,29.1,4.62
19.504,-8.8396,-1.1169,3.6838,-1.1047,-3.4929,-29.46,28.62,3.72
19.532,-12.503,-1.2803,5.0384,-2.4859,-4.678,-30.18,27.96,2.22
19.532,-19.232,-5.1894,6.1419,-3.6603,-3.7965,-32.28,26.34,-1.68
19.532,-19.504,-2.8603,3.299,-3.1285,-2.4129,-33.24,25.62,-3.66
19.532,-16.481,-1.6344,1.3922,-2.2431,-2.1319,-34.92,24.0,-6.54
12.871,-12.871,-0.91256,1.0919,-1.9096,-1.9114,-35.7,23.04,-7.32
6.9736,-11.278,-0.38137,1.1634,-1.8372,-1.8607,-36.48,21.96,-8.04
4.2223,-10.161,0.040861,1.1781,-2.065,-1.4218,-37.44,20.88,-8.46
-1.1169,-7.355,1.6753,1.0971,-2.0754,-0.98502,-39.24,18.3,-9.24
-5.2575,-4.8761,3.1054,0.99815,-1.9086,-0.75045,-40.14,17.04,-9.54
-7.6002,-3.4732,3.6775,1.1011,-1.7068,-0.62553,-40.74,15.96,-9.6
-10.011,-2.7104,3.6775,1.2306,-1.0342,-0.29199,-41.76,14.4,-9.0
-10.311,-2.5606,3.6366,1.1212,-0.56505,-0.12278,-42.12,13.86,-8.16
-9.5342,-2.3018,3.4187,0.88789,-0.069944,0.30421,-42.12,13.44,-6.6
-5.8023,-2.5742,2.9556,0.70036,0.81367,1.2251,-41.88,12.54,-2.88
-3.9908,-3.7728,2.5061,0.58765,0.89919,1.971,-41.76,12.06,-1.02
-2.4653,-5.4481,2.2746,0.39828,0.80726,2.6118,-41.76,11.76,0.24
-0.54481,-9.4389,1.1305,0.082772,0.59101,3.0262,-41.52,11.46,1.56
0.17706,-11.346,0.57205,-0.12645,1.0733,3.0122,-41.04,11.7,1.5
3.0918,-17.992,-0.61292,-0.21594,2.4398,3.2813,-40.44,12.06,1.26
16.358,-19.477,-1.8932,-0.14294,3.7379,3.5384,-38.64,12.78,-0.6
19.341,-19.532,-1.9613,0.28558,5.587,3.0226,-37.68,13.08,-2.1
19.504,-19.532,-3.5413,-1.2413,2.2541,1.5104,-36.84,13.08,-3.72
19.532,-15.949,-5.4754,-2.1231,-0.083689,1.6625,-35.52,12.9,-6.48
16.576,-11.891,-5.8431,-2.7917,1.9196,1.0843,-35.04,13.02,-7.5
14.465,-8.5263,-4.8488,-2.8808,1.8473,0.63041,-34.68,13.2,-8.34
11.673,-2.7241,-3.0646,-3.7434,1.1832,0.53115,-34.5,13.8,-8.76
6.9736,3.0646,-1.4438,-4.1133,2.0745,0.45204,-33.9,15.78,-8.76
2.8739,8.7715,-1.7843,-3.1008,2.2675,0.45907,-33.54,16.92,-8.64
2.2474,10.215,-1.7025,-2.434,0.90652,0.5791,-33.0,19.08,-7.8
0.40861,7.5457,-0.42223,-1.9548,0.11301,0.22419,-32.94,19.98,-7.32
-1.0624,7.4095,0.31327,-1.8008,-0.073609,-0.15699,-32.88,20.94,-6.6
-2.4653,8.6353,0.64016,-1.8021,0.65454,-0.54917,-33.06,22.08,-5.52
-4.2223,12.258,1.1577,-1.4279,1.1243,-0.75686,-33.9,24.24,-2.1
-2.8194,11.605,0.85808,-0.80756,1.0079,-0.37813,-34.26,25.56,-0.24
2.9284,7.2596,-0.10896,-0.23915,0.88117,0.0281,-34.56,27.12,1.38
5.993,6.17,-0.47671,0.4667,0.49938,-0.56139,-34.56,29.64,3.96
9.6432,5.3119,-0.50395,0.97708,0.11912,-1.1628,-34.38,30.54,4.56
14.955,3.6094,-0.6674,1.5785,-0.026267,-1.3775,-34.26,30.84,4.8
18.946,0.16344,-0.054481,2.4477,-0.22052,-2.0433,-34.5,30.6,4.32
19.532,-12.967,-0.36775,3.6206,-0.26878,-3.5387,-35.1,29.58,2.88
19.532,-16.835,-0.51757,5.1004,-2.624,-4.4627,-35.7,28.68,1.56
19.532,-19.164,-4.2904,3.8891,-3.0027,-2.6686,-36.3,27.84,0.18
19.532,-19.055,-1.8932,3.1377,-2.6282,-2.3515,-36.9,27.12,-0.96
16.903,-14.41,-1.7025,1.8094,-1.8332,-2.2639,-37.68,25.02,-2.76
13.021,-11.645,-1.4165,1.7645,-1.4441,-2.1997,-38.1,23.94,-3.36
5.2438,-9.3163,-0.16344,1.8439,-1.5137,-2.0308,-38.76,21.54,-4.26
3.0918,-8.5808,0.35413,1.6689,-1.854,-1.58,-39.18,20.22,-4.68
0.28603,-7.0553,1.1577,1.5351,-2.04,-1.1277,-39.54,18.96,-4.86
-6.5786,-4.1542,2.8603,1.4933,-2.1838,-1.0831,-40.38,16.62,-4.98
-6.5786,-4.1542,2.8603,1.4933,-2.1838,-1.0831,-40.38,16.62,-4.98
-11.904,-3.2553,3.623,1.2062,-1.2456,-0.75625,-40.74,14.7,-4.02
-13.13,-3.0918,3.4459,0.82803,-0.66981,-0.2587,-40.62,13.8,-3.24
-10.283,-2.4789,2.9965,0.56627,0.18357,0.40012,-40.74,12.42,-0.66
-6.9736,-3.8273,2.9284,0.44776,1.0852,1.201,-40.68,11.76,0.9
-2.2065,-7.2869,1.8524,0.19792,0.95417,2.0064,-40.86,10.62,3.06
0.19068,-9.9973,0.64016,-0.27031,0.56749,2.7828,-40.8,10.5,3.78
2.1929,-13.28,-1.4574,-0.6408,0.67959,2.9496,-40.62,10.56,4.26
4.2904,-17.121,-2.8739,-1.0012,1.9951,3.1295,-40.32,10.8,4.32
18.074,-19.504,-2.6968,-1.1826,3.8613,3.1117,-39.18,11.58,3.6
19.355,-19.532,-2.4789,-1.1466,6.0561,2.3781,-38.4,12.18,2.7
19.532,-16.44,-3.6366,-2.4086,2.9157,0.9838,-36.72,13.2,0.24
19.532,-13.062,-4.699,-2.5934,-0.099266,1.1237,-35.58,13.62,-0.96
19.532,-11.196,-5.0531,-2.2217,0.27642,1.1661,-34.56,13.92,-2.4
13.021,-5.4618,-3.4187,-2.5968,0.46029,1.047,-32.88,14.34,-5.22
9.5887,-2.5606,-2.3155,-2.9774,0.93004,0.83017,-32.22,14.34,-6.54
6.7829,4.1678,-0.38137,-2.9126,1.4832,0.7367,-31.56,14.1,-7.62
2.0294,7.5457,0.21793,-2.1484,1.0296,0.98716,-31.56,14.22,-7.38
1.1169,8.9622,0.054481,-1.5635,0.58826,1.2123,-31.56,14.58,-6.9
0.42223,8.3493,-0.38137,-1.2596,0.58215,0.98563,-31.62,15.12,-6.36
-1.2531,7.2869,-0.99429,-1.2113,0.60537,0.5455,-31.74,16.14,-4.74
-2.4108,8.7306,-0.8036,-1.1182,0.40653,0.208,-32.1,16.68,-3.72
-2.6423,9.9292,-0.44947,-0.91905,0.5959,0.0018326,-32.58,16.98,-2.34
0.21793,9.0984,-0.77636,-0.64721,0.69975,0.11454,-33.42,18.0,0.6
2.9556,7.4503,-1.7162,-0.23763,0.66645,0.079107,-34.2,18.66,1.98
5.3664,6.3471,-2.4108,-0.16035,0.58093,-0.10873,-34.92,19.38,3.48
11.332,4.3177,-2.6423,0.26878,0.37965,-0.82345,-35.52,19.8,5.1
18.782,0.99429,-3.1327,0.8827,0.1408,-1.609,-36.66,20.4,6.96
19.491,-1.9068,-3.7047,1.5846,-0.74648,-3.2312,-37.2,20.64,6.66
19.532,-6.5786,-3.051,2.8885,-1.3402,-3.6127,-37.92,20.94,3.9
19.532,-11.155,-2.6423,4.1881,-1.6539,-3.2046,-38.16,20.64,1.8
19.532,-15.146,-2.9692,4.89,-1.8494,-2.8216,-38.52,20.04,-0.24
19.532,-19.3,-2.942,3.7791,-2.6145,-2.0846,-39.06,18.84,-3.48
16.317,-18.279,-1.4438,2.5388,-2.5812,-1.8637,-39.12,18.0,-4.56
11.713,-13.321,-0.65378,1.6524,-1.602,-1.5143,-39.54,16.2,-6.0
4.8625,-9.6432,0.21793,1.748,-1.2028,-1.3155,-39.84,15.18,-6.54
2.0158,-9.1801,0.38137,1.5424,-1.033,-0.87048,-40.02,14.04,-7.02
0.46309,-8.3493,0.65378,1.3485,-1.0165,-0.6295,-40.14,12.96,-7.32
-3.2961,-4.9987,1.7979,0.87842,-0.92913,-0.39737,-40.5,11.7,-7.8
-5.6797,-4.0316,2.4517,0.74159,-0.7871,-0.52748,-40.32,11.4,-7.44
-7.8998,-3.2416,2.3018,0.5623,-0.42974,-0.43799,-39.96,11.1,-6.6
-8.2403,-2.6968,2.2201,0.055283,0.41783,0.082772,-39.24,10.32,-3.72
-6.7557,-2.3972,2.0158,-0.14478,1.0266,0.5452,-38.76,9.96,-2.16
-4.9987,-3.0918,1.7434,-0.2022,1.2049,0.85552,-38.28,9.6,-0.84
-1.6344,-5.9249,1.1713,-0.39309,1.226,1.8747,-37.92,8.88,1.14
0.5993,-8.4719,0.44947,-0.58949,1.0834,2.3268,-37.62,8.7,1.5
2.5742,-10.883,-2.3836,-0.84513,1.003,2.4499,-37.2,8.7,1.32
10.093,-18.347,-2.833,-1.1023,2.2581,2.1631,-35.82,9.0,0.36
17.461,-19.382,-2.1656,-1.1848,3.0482,2.0107,-34.92,9.3,-0.54
19.014,-19.504,-1.7162,-1.532,4.8264,1.7874,-34.2,9.54,-1.68
19.504,-19.491,-2.8058,-2.1637,2.7794,1.748,-33.12,9.6,-3.06
19.532,-14.901,-4.3994,-2.4914,-0.18784,1.3467,-31.38,9.54,-6.18
19.532,-11.414,-4.4811,-2.4862,-0.014661,0.83047,-30.54,9.54,-7.62
13.552,-6.6604,-2.6696,-2.937,0.52321,0.68356,-29.34,8.82,-10.5
9.6023,-3.0646,-0.99429,-3.5833,1.2196,0.6802,-29.28,8.52,-11.4
7.246,-0.095342,0.29965,-3.5656,1.751,0.5962,-29.4,8.52,-11.64
5.6116,2.152,0.95342,-3.0296,1.952,0.58735,-29.46,8.82,-11.52
2.9284,6.5105,0.65378,-2.3411,1.5177,0.73854,-29.64,9.36,-11.16
2.9284,6.5105,0.65378,-1.813,1.1493,0.84452,-29.64,9.36,-11.16
1.2122,8.8124,-0.92618,-1.4343,0.52779,0.67287,-29.94,10.2,-10.56
-1.5936,10.379,-0.58567,-1.0324,0.35858,0.22663,-30.72,11.94,-9.3
-2.6287,11.795,0.054481,-0.61392,0.36163,-0.31307,-31.32,12.6,-8.52
-2.3836,11.046,0.35413,-0.0281,0.1518,-0.33934,-32.7,14.28,-6.36
-0.76274,9.1937,-0.027241,0.4722,0.025962,-0.29474,-33.42,15.3,-4.98
0.96704,8.0632,-0.28603,0.77672,0.11668,-0.62766,-34.14,16.56,-3.66
5.4209,7.1234,-0.58567,1.1353,0.13561,-1.2058,-35.7,18.12,-0.96
8.2812,6.3879,-0.96704,1.5904,-0.027489,-1.4258,-36.54,18.9,0.06
15.895,3.8818,-2.2882,2.1057,0.16371,-1.1277,-36.96,19.56,0.48
19.477,-8.9213,-0.47671,3.0791,1.2605,-2.2587,-36.9,19.68,-1.8
19.532,-14.261,0.64016,4.4725,-2.3812,-4.1188,-36.54,19.62,-4.38
19.532,-16.549,0.027241,5.1081,-4.3283,-3.3778,-36.06,19.2,-6.78
19.532,-19.436,-1.4165,2.532,-1.7846,-1.9713,-35.7,18.3,-10.5
17.57,-14.547,-1.58,2.0232,-1.3665,-2.2648,-35.58,17.46,-11.4
14.928,-10.978,-1.2667,1.7257,-1.3305,-2.2749,-35.52,16.68,-12.18
9.5751,-8.54,-0.12258,2.2468,-1.3922,-1.9001,-35.64,15.72,-12.9
3.514,-9.1937,0.50395,2.0339,-1.3741,-1.095,-36.24,13.5,-14.1
0.76274,-8.1041,1.0079,1.6469,-1.5385,-0.31307,-36.54,12.18,-14.34
-4.4947,-4.1814,2.2065,1.4896,-1.7162,-0.16493,-37.08,10.56,-15.0
-7.5729,-3.3506,2.7241,1.3964,-1.6539,-0.59346,-37.26,9.96,-14.94
-9.8611,-2.9556,3.1327,1.3118,-1.4255,-0.66493,-37.38,9.54,-14.46
-11.85,-2.2474,3.4323,1.0134,-0.78954,-0.50396,-37.68,9.36,-13.44
-10.011,-0.21793,2.8875,0.60903,0.15791,0.33598,-38.7,8.58,-9.18
-6.7421,-1.3757,2.833,0.56872,0.98044,1.299,-39.3,8.1,-7.26
-3.6639,-3.5549,2.656,0.40225,0.90164,2.2089,-39.84,7.32,-5.64
-0.20431,-7.1915,1.7979,0.10324,0.5058,3.0195,-40.26,6.66,-4.26
0.46309,-9.2891,1.1713,0.0067195,0.46578,3.1481,-40.08,6.72,-3.9
1.3212,-13.048,-0.17706,-0.31398,0.61514,3.251,-39.78,6.9,-3.9
8.7306,-19.191,-2.2065,-0.8436,2.5198,3.4438,-38.34,7.92,-4.32
18.633,-19.491,-0.7355,-0.79046,4.0946,3.237,-37.2,8.46,-5.1
19.423,-19.532,-1.9068,-1.2669,5.9123,2.0152,-35.94,9.0,-6.24
19.532,-17.38,-3.4459,-2.9829,-0.29352,1.8955,-32.76,9.66,-9.24
19.532,-13.648,-4.699,-2.7868,0.31246,1.9505,-31.5,9.6,-10.92
17.107,-10.992,-4.5083,-2.8051,0.72113,1.6197,-30.3,9.36,-12.36
9.793,-3.3506,-2.6287,-3.4108,1.2935,1.2294,-29.04,8.64,-14.4
8.0905,0.61292,-2.2201,-3.5778,2.0305,1.1032,-28.92,8.82,-14.46
5.9249,7.5321,-1.6889,-3.2706,2.4276,1.1765,-28.56,9.66,-14.34
5.4345,8.9758,-2.3018,-2.4276,1.4419,1.4795,-28.14,10.74,-13.98
3.9771,8.8532,-1.6889,-2.0656,0.71013,1.3482,-27.24,12.96,-13.2
1.9477,8.1858,-0.31327,-1.3647,-0.61331,0.095906,-27.0,13.98,-12.66
-0.46309,8.9758,0.8717,-1.1808,-0.65912,-0.67317,-26.82,14.82,-12.06
-3.8273,12.762,1.7025,-0.90958,0.026573,-1.0473,-27.24,16.62,-10.26
-4.3585,13.579,2.0431,-0.46578,0.4499,-1.0785,-27.78,17.46,-8.7
-2.9965,12.64,1.7706,0.68875,0.43921,-0.58582,-28.62,18.42,-6.96
2.4108,7.4367,-0.64016,0.99663,0.50519,-0.47709,-30.24,20.76,-3.42
6.7012,4.7671,-1.4574,1.6032,0.15119,-0.9615,-30.84,22.02,-1.92
6.7012,4.7671,-1.4574,2.0009,0.51038,-1.303,-30.84,22.02,-1.92
19.368,-3.6775,-0.78998,2.5253,0.87506,-2.044,-31.14,24.0,-0.84
19.518,-9.4934,-1.9613,3.4654,-0.27458,-3.5656,-31.26,24.18,-1.98
19.532,-12.994,-1.8387,4.3298,-3.1444,-3.843,-31.38,23.88,-3.84
19.532,-19.246,-3.9227,4.9673,-2.9248,-2.8518,-31.86,22.2,-7.62
19.532,-19.504,-1.6889,2.153,-2.6499,-2.7574,-32.16,21.24,-9.0
19.518,-19.504,-1.8115,1.8995,-2.251,-2.7428,-32.4,20.22,-10.02
10.76,-10.474,-0.19068,1.2123,-1.6625,-2.2788,-33.18,18.06,-11.1
6.0611,-9.7658,0.70826,1.4025,-1.9346,-2.2162,-33.72,16.92,-11.46
1.7979,-9.6023,2.6287,1.4019,-2.3469,-1.6725,-34.62,14.28,-11.76
-5.2983,-6.7421,3.6639,1.2391,-2.1698,-1.1912,-35.16,13.08,-11.82
-7.9951,-4.9169,4.2495,1.0773,-1.7929,-0.92546,-35.64,11.82,-11.76
-10.338,-3.8273,4.7944,0.95112,-1.1139,-0.79748,-36.0,10.74,-11.58
-13.089,-2.942,4.8761,0.67226,-0.55528,-0.42058,-36.66,9.42,-10.2
-10.134,-2.0567,4.4539,0.45937,0.22388,0.25259,-36.84,8.94,-8.76
-7.2869,-2.1112,3.7184,0.37446,1.0033,1.0281,-36.78,8.34,-6.78
-2.8875,-4.5764,2.8058,0.13317,0.86193,2.3402,-37.2,7.44,-2.88
-1.5255,-6.6331,2.1929,-0.058948,0.68722,3.0256,-37.5,7.02,-1.32
-1.0624,-7.355,1.6753,-0.18204,0.6243,3.2364,-37.68,6.72,-0.36
0.34051,-12.476,-0.24517,-0.73854,0.67226,3.4618,-37.56,6.66,0.66
4.9987,-18.224,-1.6208,-1.1716,2.0223,3.6276,-37.02,7.08,0.78
15.064,-19.368,-2.8194,-1.0791,3.7846,3.4841,-36.3,7.68,0.36
19.463,-19.532,-2.1384,-0.51282,6.4645,2.7929,-33.9,8.58,-1.62
19.532,-19.532,-2.833,-2.0223,3.9169,1.1423,-32.4,8.76,-3.0
19.532,-15.895,-3.7047,-2.7929,-0.73457,1.4725,-30.96,8.76,-4.44
16.481,-9.7794,-4.3721,-2.7767,0.29719,1.0269,-28.8,8.22,-7.08
12.272,-6.0883,-3.4868,-3.0901,0.75808,0.75992,-28.02,7.98,-7.86
8.6353,-2.1656,-1.3893,-3.4056,1.2733,0.54428,-27.72,7.8,-8.4
4.0316,3.4323,-0.027241,-3.6212,1.7162,0.51924,-27.42,8.58,-8.34
2.0703,8.0088,-0.91256,-2.8818,1.6991,0.87659,-27.24,9.12,-8.22
2.2474,8.8941,-1.471,-2.6478,1.3289,1.0131,-27.12,9.96,-7.86
1.0215,7.75,-0.58567,-1.9123,0.062614,0.88514,-26.88,11.46,-7.44
-1.0079,7.927,-0.58567,-1.5773,-0.5678,0.36713,-26.88,11.94,-7.08
-3.2825,9.8066,0.99429,-1.533,-0.42669,-0.090713,-27.24,12.48,-6.42
-5.0395,13.007,1.7979,-1.2761,0.17165,-0.35522,-28.8,13.74,-3.6
-4.7671,13.375,2.0294,-0.5116,0.61178,-0.17471,-29.88,14.76,-1.98
-2.3155,11.713,1.6481,-0.15424,0.68997,-0.026878,-31.02,15.9,-0.3
2.9284,8.2948,1.0215,0.77122,0.50641,-0.1295,-32.1,18.84,2.64
6.6059,7.246,-0.10896,1.3522,0.1689,-0.66401,-32.34,20.4,3.6
13.702,5.3528,-0.35413,1.8457,0.45968,-1.0611,-32.4,21.24,4.32
19.341,-2.547,-1.0488,3.0278,1.7788,-1.4035,-32.34,21.42,3.9
19.477,-8.8668,0.054481,4.5033,1.3638,-3.5207,-32.58,20.82,2.64
19.532,-16.249,-0.19068,5.9834,-4.0797,-4.7425,-33.18,19.98,0.6
19.532,-19.436,-2.547,4.1224,-3.9828,-3.6548,-33.96,19.02,-3.48
19.532,-19.518,-1.9886,3.0131,-2.8527,-3.2849,-34.26,18.72,-4.86
18.878,-16.249,-0.99429,1.6933,-2.3326,-3.2089,-34.2,18.18,-5.7
9.793,-13.634,0.28603,1.292,-1.6179,-2.7941,-34.62,16.68,-6.6
5.5299,-12.939,1.4301,1.0916,-1.6979,-2.2159,-34.98,15.72,-6.78
1.6072,-11.986,2.7104,0.90347,-2.0024,-1.6304,-35.4,14.64,-6.96
-4.5628,-8.3357,4.1951,0.8488,-1.8998,-1.3424,-36.54,12.12,-7.02
-7.3822,-6.674,4.1133,1.0027,-1.5693,-1.2947,-37.08,10.68,-7.02
-9.793,-5.3528,3.909,1.1154,-1.1402,-1.2257,-37.38,9.9,-6.9
-11.278,-4.4947,3.8682,1.0095,-0.57146,-0.51588,-38.1,8.64,-5.76
-10.27,-2.9829,3.623,0.63102,0.093157,0.15241,-38.28,8.16,-4.32
-9.3844,-2.6015,3.4732,0.52779,0.45021,0.56169,-38.16,7.74,-2.04
-7.5184,-3.051,2.9829,0.31948,0.92302,2.0128,-38.04,7.02,0.42
-3.4323,-6.4424,1.7434,0.19823,0.81948,2.7043,-38.4,5.16,4.14
-1.866,-7.3958,0.7355,0.11026,0.54398,3.0171,-38.82,4.62,5.22
0.12258,-9.3844,-1.471,-0.031765,0.51557,3.098,-38.7,4.38,6.24
5.7478,-17.352,-4.6718,-0.49999,1.463,3.0827,-38.22,4.62,6.36
14.288,-19.259,-4.7671,-0.55925,2.3775,2.9801,-37.62,4.98,6.3
18.878,-19.504,-3.1327,-0.53695,3.97,2.7675,-36.84,5.46,5.94
19.518,-19.532,-4.0861,-1.773,3.507,2.2278,-34.56,6.3,4.2
19.532,-15.5,-5.1485,-2.2074,-0.43555,2.3011,-33.6,6.42,3.24
19.532,-11.959,-5.4073,-2.0424,-0.38423,1.934,-32.58,6.36,2.16
13.511,-5.775,-3.5413,-2.4499,0.36438,1.5996,-30.96,6.48,0.6
10.651,-2.8467,-2.6423,-2.8286,0.86224,1.4594,-30.54,6.48,0.18
8.4446,-0.17706,-1.9068,-2.9951,1.1133,1.3644,-30.3,6.84,0.18
4.7807,5.0804,-0.054481,-2.6325,1.3564,1.2685,-29.7,8.16,0.24
3.7184,7.2188,-0.89894,-2.0604,0.9728,1.4087,-29.4,8.88,0.3
2.942,7.1371,-0.44947,-1.7092,0.65882,1.3369,-28.98,9.54,0.36
1.4165,7.246,0.32689,-1.2526,0.38485,0.53542,-28.5,10.8,0.42
-0.40861,9.1665,1.5391,-1.1435,0.42516,0.26573,-28.5,11.46,0.6
-1.2531,10.801,1.6753,-0.56749,0.68234,-0.25565,-28.74,11.94,1.02
-1.8387,13.225,1.58,-0.0094684,0.69883,-0.38087,-29.52,13.44,2.58
-0.21793,10.896,1.1032,0.67409,0.65424,-0.42058,-29.82,14.28,3.3
1.9341,6.4424,0.57205,1.2477,0.56597,-0.56719,-30.3,16.26,4.56
6.9328,5.0259,0.8036,1.9126,0.12095,-1.1383,-30.42,17.04,4.8
10.488,4.522,0.57205,2.0944,-0.039401,-1.3668,-30.24,17.46,4.74
13.471,4.018,-0.70826,2.4096,0.12034,-1.781,-30.18,17.22,4.44
19.382,-1.1305,-2.6696,3.087,0.66187,-2.302,-30.6,14.52,1.62
19.518,-9.4661,-0.77636,4.1185,0.50946,-3.4285,-31.14,12.9,-1.44
19.532,-16.453,0.32689,5.8927,-2.7428,-4.9052,-31.5,11.88,-5.22
19.532,-19.436,-3.7865,6.1902,-4.9721,-4.0687,-31.62,10.98,-10.74
19.273,-19.532,-1.076,1.4481,-2.2984,-3.1179,-31.26,10.02,-11.76
15.459,-16.317,-1.1032,0.34972,-1.1188,-2.9581,-30.96,8.88,-12.42
12.231,-10.924,0.054481,0.197,-1.2007,-2.7532,-30.9,7.44,-12.96
5.5435,-8.4991,1.7025,0.55467,-1.5852,-2.3387,-31.14,4.62,-13.86
1.5527,-8.4855,2.3018,0.42516,-1.6099,-1.4569,-31.14,3.0,-14.22
-1.9341,-7.7364,2.6287,0.58704,-1.39,-0.35461,-31.14,0.24,-14.7
-5.4754,-6.0611,2.6696,0.78924,-1.4988,-0.09163,-31.08,-0.72,-14.82
-7.6138,-4.9169,2.5198,0.82314,-1.5782,0.073915,-30.96,-1.44,-14.94
-8.0905,-4.2223,2.8603,0.74281,-1.2932,0.2025,-30.66,-1.56,-14.46
-9.902,-3.3506,3.4051,0.38087,-0.89034,0.76236,-29.4,-1.2,-10.56
-9.902,-3.0646,3.337,-0.015577,-0.44532,1.3115,-29.04,-1.74,-7.14
-5.775,-3.8001,2.9011,-0.24343,0.33445,2.0101,-28.92,-2.82,-4.02
-2.6968,-6.1973,2.2882,-0.52809,0.87476,3.1029,-29.46,-4.68,-1.44
-1.0896,-7.8589,1.1441,-0.69119,0.69272,3.7437,-29.52,-4.98,-1.02
-0.44947,-9.6568,-0.76274,-0.67684,0.51832,4.1429,-29.4,-4.74,-0.9
0.53119,-16.154,-2.4517,-0.697,1.0473,4.6866,-28.8,-3.9,-1.08
4.9578,-19.109,-1.975,-1.1457,3.0262,5.3469,-28.26,-3.36,-1.38
17.448,-19.477,-0.96704,-1.744,4.3289,4.8665,-27.54,-2.58,-1.92
19.477,-19.532,-2.261,-1.5898,6.3359,2.4251,-25.68,-1.32,-4.32
19.532,-17.965,-3.3506,-2.6084,2.0143,2.2562,-24.6,-1.08,-5.82
19.532,-14.533,-3.4732,-2.4557,-0.1237,2.1597,-24.0,-0.84,-7.08
19.532,-9.507,-3.5277,-2.6658,-0.14539,1.4939,-23.58,-0.48,-8.04
13.157,-1.7706,-1.4301,-3.379,0.23488,1.0892,-22.98,1.26,-9.24
9.6704,1.5391,0.27241,-3.3448,1.5962,0.83078,-22.62,2.46,-9.54
4.2768,8.9622,-0.57205,-2.3137,1.4172,0.79932,-21.84,5.22,-10.2
3.0237,10.256,0.19068,-1.7764,0.11209,0.64355,-21.54,6.66,-10.5
2.1793,9.9837,0.40861,-1.1561,-1.0348,0.25748,-21.24,7.92,-10.68
-1.5936,8.6081,1.2803,-0.79321,-1.5,-0.07758,-20.76,10.2,-10.5
-3.337,9.9565,1.1441,-0.95051,-1.2584,-0.079107,-20.76,11.34,-10.26
-4.3721,12.735,1.2803,-1.0354,-0.17349,-0.091019,-21.18,12.42,-9.78
-5.5707,17.325,1.0351,-0.41386,0.19945,-0.49388,-22.2,14.94,-7.5
-5.2847,15.187,0.61292,-0.16249,0.15547,-0.3989,-22.74,16.56,-6.12
-0.8036,9.0031,1.2803,0.12401,0.67653,0.03207,-22.74,18.24,-4.92
7.4231,7.3141,0.44947,0.81031,1.4496,-0.76175,-22.56,20.64,-3.54
14.07,6.1019,-2.152,1.4664,1.3677,-1.1332,-22.5,21.0,-3.3
18.851,2.9965,-4.5083,2.1368,1.2495,-1.1075,-22.8,20.94,-3.54
19.518,-14.71,-1.866,3.6765,1.4444,-4.7095,-23.46,20.46,-4.38
19.532,-18.796,-1.2258,4.5659,-1.6176,-6.2614,-24.24,19.86,-5.58
19.532,-19.355,-5.9657,4.2296,-5.057,-5.4077,-25.08,19.38,-7.32
19.532,-19.532,-3.4459,2.551,-3.0439,-4.0372,-26.4,18.72,-9.78
18.66,-18.183,-2.3563,1.1707,-1.8766,-3.674,-26.94,18.12,-10.38
14.247,-15.377,-1.6753,0.7926,-1.0934,-3.6844,-27.3,17.22,-10.68
7.3277,-14.928,-0.23155,0.82161,-0.68722,-3.5751,-28.62,15.0,-11.1
5.4073,-13.416,0.43585,1.011,-0.8998,-3.051,-29.52,13.56,-11.04
1.2803,-9.9565,2.1248,1.2501,-1.4661,-2.3848,-30.42,12.0,-10.98
-5.1894,-6.9191,4.0997,1.5134,-2.4074,-1.5501,-32.34,8.94,-10.68
-9.2891,-5.3528,5.2166,1.5006,-2.5748,-1.1924,-33.24,7.74,-10.32
-12.435,-4.8897,5.993,1.3583,-1.8845,-0.91569,-34.02,6.66,-9.78
-16.576,-1.9341,5.1894,1.0678,-0.94837,-0.1628,-35.1,4.38,-7.44
-13.321,-0.91256,4.4675,1.0846,0.22602,0.66035,-35.22,3.54,-5.46
-10.351,-1.2803,4.1133,1.117,1.0116,1.9505,-35.4,2.52,-3.06
-5.0668,-3.5004,3.4323,1.0556,0.61545,3.1105,-35.76,1.5,-1.2
-1.6753,-6.4424,1.7298,0.96944,0.19426,3.8023,-36.66,0.12,1.44
-2.0839,-8.5127,0.77636,0.85185,0.18601,4.2486,-37.02,0.12,2.1
-2.152,-16.154,-2.8875,0.26725,-0.054062,4.5965,-37.14,0.18,2.64
3.0237,-19.314,-5.9657,-0.68417,2.3353,5.1096,-36.6,1.62,3.0
10.283,-19.477,-6.3607,-0.81367,3.3478,5.2418,-36.0,2.82,2.58
18.347,-19.532,-7.355,-0.6411,6.1725,3.6643,-35.22,4.14,1.5
19.518,-19.532,-5.2575,-1.8024,5.3829,1.901,-33.3,6.48,-1.86
19.532,-19.532,-5.4481,-2.7297,1.3152,1.6845,-32.64,7.2,-4.08
19.532,-16.44,-4.2904,-2.6683,-0.22694,2.1609,-32.1,7.74,-6.0
13.634,-5.8704,-2.6423,-2.7868,0.89553,1.7853,-31.8,9.06,-8.28
8.8396,-0.44947,-1.1441,-2.8634,2.3384,1.3253,-31.62,10.14,-8.46
6.7421,2.6832,-0.21793,-2.7135,3.1747,1.0174,-31.2,11.46,-8.22
2.547,10.706,-0.25879,-2.6927,3.4306,0.92027,-30.12,14.52,-7.8
1.975,12.449,-0.40861,-2.4257,2.5656,1.4068,-29.58,16.26,-7.68
1.6481,12.217,-0.31327,-1.8677,1.1084,0.95631,-28.86,18.84,-7.56
-0.21793,12.994,0.89894,-1.6982,0.98258,0.51221,-28.56,19.8,-7.08
-0.20431,14.955,1.4438,-1.4166,1.1756,0.33842,-28.5,20.7,-6.36
-0.21793,16.099,1.8115,-1.2428,1.219,0.22297,-28.68,21.42,-5.1
0.44947,13.334,1.1986,-0.41692,0.96822,-0.27703,-29.16,23.46,-1.02
2.2882,9.7385,0.31327,-0.0061087,0.9954,-0.62308,-29.4,24.84,1.14
5.0259,8.1858,-0.74912,0.56566,0.88362,-1.1677,-29.34,26.64,3.3
11.005,6.4697,-1.185,1.4743,0.24312,-1.6014,-28.92,29.52,5.82
18.129,3.909,-2.152,1.9722,-0.12217,-1.6744,-28.8,30.18,6.3
19.191,1.8387,-2.5606,2.2901,-0.11423,-1.9422,-29.28,29.76,6.48
19.491,-10.025,-1.757,4.3411,0.19639,-5.6377,-30.66,28.44,5.7
19.532,-17.638,0.8036,3.843,-2.4758,-6.4898,-34.62,26.64,1.68
19.532,-19.3,-2.0839,3.8778,-5.4559,-4.6548,-36.24,26.46,-0.3
19.532,-19.123,-0.44947,2.7568,-3.9285,-3.5131,-38.28,25.2,-2.22
14.833,-15.514,0.44947,1.2156,-1.6347,-3.2077,-39.24,24.06,-2.58
11.346,-14.165,0.58567,1.1964,-0.98991,-3.3365,-40.08,22.62,-2.64
4.4811,-11.577,1.3348,1.5501,-0.53573,-3.2779,-41.94,19.32,-2.76
1.7298,-9.7113,1.8796,1.7657,-1.0571,-2.7129,-42.72,17.4,-2.52
-0.57205,-7.9134,2.4108,1.9251,-1.5287,-2.0809,-43.44,15.42,-2.58
-4.9714,-5.7069,2.6423,1.9221,-2.0137,-1.408,-44.64,11.58,-2.52
-6.6467,-5.2847,2.6423,1.7104,-2.0397,-0.91538,-45.12,9.9,-2.52
-7.4095,-5.1076,2.7649,1.5443,-1.8506,-0.65668,-45.12,8.88,-2.46
-8.5263,-4.6582,3.1599,0.81703,-0.92516,0.089492,-44.4,8.4,-1.38
-11.659,-3.6775,2.8058,0.28191,-0.32651,0.59926,-41.82,6.18,3.48
-11.278,-3.8001,2.1384,-0.011912,0.27458,1.2132,-40.92,4.38,5.88
-6.7557,-4.8488,1.5119,-0.14386,1.1524,2.0983,-40.44,2.88,7.62
-3.0918,-8.431,0.40861,-0.25779,1.3583,2.8992,-40.02,1.2,9.42
-1.7706,-10.842,-1.5936,-0.33109,1.2917,3.8891,-39.9,0.96,9.66
0.19068,-13.348,-3.1191,-0.4893,1.4887,4.4046,-39.42,0.9,9.78
11.237,-19.436,-3.1599,-0.55772,3.1628,4.9117,-37.8,1.98,9.18
18.496,-19.504,-1.58,-0.84758,4.1459,4.777,-36.96,2.64,8.4
19.409,-19.532,-4.3177,-1.4337,5.3912,3.2706,-35.64,3.42,7.32
19.532,-14.792,-5.7069,-2.3405,0.40348,2.4221,-33.24,4.2,3.66
19.532,-11.904,-5.6524,-1.8668,0.35675,2.1411,-32.46,4.2,1.92
19.532,-10.052,-4.9306,-2.1496,0.96272,1.529,-31.92,4.32,0.42
12.326,-4.4811,-2.1248,-2.7458,1.2663,1.3311,-31.32,5.1,-1.5
9.5479,-1.8932,-0.47671,-3.328,1.6249,1.1897,-31.08,5.82,-1.98
7.0962,5.0395,1.4438,-3.2128,2.4196,1.0299,-30.36,7.98,-2.7
3.228,7.8589,0.92618,-2.2177,2.2046,1.117,-30.06,9.3,-3.12
2.4517,9.0848,0.43585,-1.7947,1.562,1.3476,-29.64,10.56,-3.48
1.7162,8.717,0.35413,-1.3845,1.127,1.1564,-29.28,11.82,-3.72
0.21793,7.7772,0.29965,-1.2333,0.94837,0.71349,-29.22,13.62,-4.02
-0.8717,9.7113,0.50395,-1.1463,1.0198,0.44838,-29.28,14.46,-3.6
-1.0624,11.741,0.44947,-0.69547,0.84055,0.25901,-29.94,16.8,-1.8
-0.21793,12.34,0.46309,-0.22144,0.45173,0.10873,-30.3,18.36,-0.6
0.99429,10.052,0.027241,0.29719,0.022602,-0.092852,-30.18,20.16,0.48
1.8524,8.826,-0.054481,0.45723,-0.10415,-0.21533,-29.94,21.9,1.2
5.4754,7.7091,-1.2258,0.6973,-0.13011,-0.84208,-28.92,24.36,1.62
9.7658,7.355,-2.6696,0.85491,0.0015272,-1.1035,-28.5,25.14,1.44
17.352,5.4345,-3.0646,1.3399,1.2135,-0.95295,-28.14,25.2,0.66
19.504,-7.6138,-1.3212,2.4581,1.3179,-3.5055,-28.2,24.54,-0.12
19.532,-13.797,0.77636,3.3036,-1.4694,-5.1847,-28.32,23.7,-1.38
19.532,-17.38,2.6423,4.9007,-5.4645,-5.97,-28.62,22.86,-3.12
19.532,-19.463,-2.1384,4.3112,-2.105,-3.656,-28.86,21.48,-5.82
19.532,-19.532,-1.4301,2.5549,-2.1582,-3.4938,-28.8,20.64,-6.84
15.772,-12.926,0.21793,1.9007,-2.0207,-3.3405,-28.98,19.74,-7.62
6.8783,-12.844,0.9398,2.1371,-1.9145,-3.1032,-29.58,17.52,-8.28
3.228,-12.749,1.1577,2.1829,-1.887,-2.6237,-30.0,16.38,-8.46
1.6344,-11.659,1.2803,1.5495,-2.1573,-1.8445,-30.6,15.06,-8.64
-2.6696,-6.851,2.3427,0.82742,-2.3747,-1.4923,-31.56,12.6,-8.82
-5.8567,-5.4073,2.8603,0.54978,-2.3014,-1.7144,-31.98,11.34,-8.76
-7.7364,-4.7126,2.8058,0.37293,-1.1616,-1.5647,-32.76,9.12,-8.28
-10.815,-3.7047,2.7377,-0.051313,-0.40287,-0.99876,-33.0,8.28,-7.62
-10.42,-2.656,2.9011,-0.34544,0.3259,-0.42241,-33.3,7.62,-6.12
-8.0632,-2.4789,2.9011,-0.36102,0.78893,-0.12828,-33.54,6.78,-4.44
-4.413,-4.2904,2.6287,-0.38057,1.4261,0.89186,-34.2,5.16,-1.8
-2.0294,-5.38,1.8796,-0.39859,1.1466,1.5669,-34.68,4.56,-0.96
-0.98067,-5.9385,0.8036,-0.31124,0.89767,2.0556,-34.86,3.96,-0.54
1.6889,-8.9622,-2.2746,-0.12401,1.5773,2.6912,-35.1,3.48,-0.36
5.4073,-12.572,-3.228,-0.25962,2.5107,3.2293,-35.1,3.48,-0.54
15.01,-16.467,-3.2825,-0.37874,3.8347,3.5372,-34.86,3.72,-0.84
19.463,-19.477,-2.8875,-0.7535,5.8631,2.7248,-34.08,4.38,-2.4
19.532,-17.924,-3.4323,-2.6252,0.85277,1.591,-33.54,4.98,-3.54
19.532,-14.138,-4.0725,-2.8918,0.24129,1.9795,-32.58,5.82,-4.86
18.033,-5.4073,-4.018,-3.2611,1.5342,1.5892,-30.36,7.38,-7.68
15.854,-3.3506,-3.3234,-3.7904,1.4978,1.3839,-28.92,7.98,-9.66
13.293,-0.081722,-1.6344,-4.0222,1.5498,1.4151,-27.72,8.1,-11.4
9.507,7.8317,0.54481,-3.0614,1.8405,2.0177,-27.0,7.8,-13.2
8.3765,10.869,0.35413,-2.2901,0.85765,2.1035,-27.36,8.1,-13.02
6.7285,10.515,-0.51757,-1.7605,0.43158,1.2147,-27.6,8.82,-12.42
3.5277,8.0088,-3.5958,-1.6353,-0.28863,-0.025351,-28.02,10.26,-11.16
1.471,8.717,-2.7649,-1.4911,-1.0308,-0.83994,-28.26,10.74,-10.68
-1.1169,10.733,-1.9341,-1.4548,-0.73029,-1.0681,-28.62,10.92,-10.14
-4.2359,12.967,-0.068102,-1.1191,-0.62156,-1.0519,-29.58,11.04,-7.98
-2.6832,11.087,0.29965,-0.53237,-0.4047,-0.67409,-30.12,10.86,-6.72
0.34051,8.8124,0.16344,-0.17349,-0.054978,-0.55833,-30.96,10.44,-5.4
8.1177,6.8647,-1.6889,0.1912,0.22052,-1.5128,-32.52,9.42,-3.12
11.836,6.3879,-2.6423,0.92057,0.41753,-2.1896,-33.18,9.36,-2.16
17.802,4.8761,-3.9363,1.456,0.13744,-2.5534,-33.72,10.02,-1.32
19.504,-0.96704,-2.9965,2.3815,-0.67042,-3.2504,-33.36,12.06,-0.84
19.532,-5.4754,-3.6775,3.4297,-2.2318,-4.4886,-32.94,12.48,-1.2
19.532,-10.774,-4.2495,4.1771,-4.0146,-4.711,-32.58,12.24,-1.8
19.532,-13.103,-4.4402,4.7693,-3.7904,-3.6111,-32.28,11.7,-2.16
18.837,-15.377,-3.6775,4.167,-1.8152,-1.6875,-31.98,10.08,-2.46
16.181,-15.65,-3.1463,2.3222,-1.0226,-1.055,-31.86,9.54,-2.16
8.4991,-9.9701,-1.1305,1.3916,-0.894,-0.88056,-31.5,8.46,-2.22
5.7614,-7.2869,-0.64016,1.4404,-0.81276,-0.98319,-31.26,8.16,-2.16
2.9829,-6.3062,0.027241,2.0061,-0.90316,-0.85063,-31.2,7.8,-2.1
-2.1248,-6.17,1.0215,2.1411,-1.1002,-0.18082,-31.44,7.32,-1.08
-3.623,-6.0202,1.6753,1.6313,-1.0565,0.96914,-31.86,6.9,-0.06
-6.851,-4.8216,3.2144,1.4319,-0.97616,1.1356,-32.28,6.3,1.08
-7.5593,-4.1133,3.5277,0.93065,-0.46365,1.0742,-32.64,5.7,2.22
-9.6432,-2.4517,3.6366,0.40989,0.40867,0.76816,-32.94,4.98,3.12
-8.8805,-1.2939,2.656,0.20708,1.0794,1.4591,-32.88,4.26,4.44
-4.4811,-2.4789,2.2882,0.11179,1.7956,2.5433,-32.76,4.2,4.8
-0.88532,-4.9442,1.3757,0.0281,1.518,3.3197,-31.98,5.04,4.74
-0.35413,-6.8783,0.54481,-0.17226,1.0336,4.1017,-31.44,5.64,4.56
-0.70826,-8.6762,-0.64016,-0.36621,1.0773,4.3659,-30.84,6.24,4.38
-0.32689,-10.869,-2.261,-0.7025,1.7031,4.5876,-30.0,7.08,4.02
10.134,-19.109,-6.3607,-0.93707,3.2132,4.7379,-28.2,8.88,2.58
18.279,-19.477,-5.6116,-0.73548,4.9569,4.2257,-27.24,9.72,1.38
19.382,-19.532,-5.1076,-1.4297,6.7766,2.6512,-26.28,10.44,0.24
19.532,-16.44,-5.6797,-3.4871,0.39462,2.0635,-24.48,11.4,-1.98
19.532,-12.667,-5.7342,-3.0,0.77091,1.6683,-23.64,11.82,-2.82
18.129,-8.6353,-5.2575,-2.7593,1.1387,1.1616,-22.98,12.42,-3.3
14.574,-4.522,-4.6173,-3.1356,1.0351,1.0186,-22.44,12.96,-3.54
8.9077,3.1872,-1.4301,-3.0931,1.7727,1.0403,-21.18,14.7,-3.54
6.3471,7.0009,-1.1169,-1.4771,1.54,1.0241,-20.4,15.66,-3.24
3.3097,10.324,-2.438,-1.4933,1.0931,0.81948,-19.26,17.7,-2.22
1.471,11.169,-2.7649,-1.1787,0.1744,0.0054978,-18.9,18.6,-1.62
-0.027241,12.122,-2.3155,-1.0214,-0.8656,-1.2504,-18.84,19.38,-1.02
-3.9771,15.99,-1.6344,-0.90683,-0.69578,-1.3937,-18.9,20.64,0.72
-4.8625,15.568,-0.91256,-0.67684,-0.25076,-1.0131,-18.96,21.3,2.16
1.4165,10.733,-2.4789,-0.24893,-0.19884,-0.48778,-19.38,22.92,5.16
6.7148,7.1915,-4.2904,-0.080329,0.55833,-0.60018,-19.62,23.76,6.24
11.169,5.6388,-4.9442,0.033598,0.77519,-0.9276,-19.86,24.36,7.2
18.755,1.5391,-5.4073,0.42272,0.76328,-1.7859,-19.86,24.72,7.62
19.504,-4.5764,-5.0668,1.398,-0.60353,-3.9114,-20.4,25.26,6.72
19.532,-9.6568,-5.5707,2.3253,-2.1249,-5.2382,-20.76,25.14,6.06
19.532,-13.116,-4.5083,3.6557,-3.4138,-4.7718,-22.2,24.48,4.62
19.532,-19.109,-5.094,5.0143,-2.8717,-3.5042,-23.1,23.82,4.08
19.532,-19.477,-3.9771,3.0302,-1.7596,-2.6472,-23.94,23.16,3.54
18.837,-19.518,-2.1248,1.7972,-1.7779,-2.5412,-24.84,22.38,3.24
10.951,-11.509,-0.92618,1.2126,-1.3103,-2.5745,-26.94,20.7,2.64
7.2188,-9.7249,0.20431,1.6857,-1.3024,-2.6114,-27.9,19.74,2.4
3.1872,-9.507,0.65378,2.19,-1.2376,-2.1872,-28.74,18.78,2.16
-2.8603,-8.3901,2.4925,1.5214,-1.179,-0.91905,-30.48,16.98,1.68
-5.4618,-6.6331,3.1327,1.0721,-1.2569,-0.60109,-31.2,16.26,1.68
-7.7908,-4.8488,3.6094,0.78374,-1.1771,-0.73701,-31.98,15.54,1.92
-11.21,-2.9284,3.6775,0.7367,-0.33842,-0.78069,-33.48,13.74,3.24
-12.367,-2.4789,3.3506,0.4893,0.30665,-0.062308,-34.02,12.78,4.02
-9.1801,-3.051,2.9556,0.20159,1.0733,1.2385,-34.5,12.0,4.8
-3.7047,-4.4402,2.3972,0.098044,1.405,2.5733,-34.86,10.98,5.76
-2.0975,-6.2926,1.8932,0.01405,1.2425,2.8928,-35.1,10.68,6.06
-1.471,-7.1915,1.6481,-0.12339,0.88514,3.4263,-35.04,10.68,6.06
-1.2803,-11.741,-0.38137,-0.22999,0.66493,3.9657,-34.5,11.22,6.06
-0.24517,-16.426,-2.4789,-0.4948,1.3586,4.2751,-34.08,11.58,5.58
3.6639,-19.15,-4.127,-0.64232,3.0424,4.5635,-33.6,12.18,5.16
18.701,-19.532,-5.2711,-0.31826,4.1563,4.0003,-32.22,13.56,3.6
18.701,-19.532,-5.2711,0.0082467,5.0708,4.0003,-32.22,13.56,3.6
19.532,-18.565,-8.0496,-2.0959,0.83536,2.299,-30.48,15.42,0.9
19.532,-13.607,-7.1915,-2.3207,0.16218,2.3506,-29.88,16.32,0.36
13.784,-6.9328,-4.3177,-2.5235,0.9053,1.8589,-28.68,18.42,-0.72
10.515,-1.4438,-3.2144,-2.9413,1.4835,1.7058,-27.18,20.46,-0.9
9.1529,2.7649,-2.3291,-3.0003,2.2651,1.529,-26.34,21.66,-0.78
7.355,6.7012,-1.9613,-2.2975,2.4322,1.6105,-24.48,23.82,-0.36
6.1564,8.5944,-0.72188,-1.9319,1.2917,1.3601,-23.4,25.8,0.48
3.909,9.902,0.21793,-1.4945,0.26786,0.42394,-22.56,27.72,1.74
0.76274,13.157,1.1169,-1.2996,-0.48411,-0.62583,-21.54,29.88,3.66
-1.9205,16.549,0.70826,-1.08,-0.4554,-1.1692,-20.58,31.86,5.46
-3.5685,16.957,0.6674,-0.86499,-0.31246,-1.1145,-19.86,33.3,6.72
-3.051,14.247,0.50395,0.051618,-0.51893,-0.41203,-19.56,33.72,7.44
1.6753,7.9815,-2.9284,0.081551,0.061087,-0.23732,-19.38,34.5,8.16
9.6977,3.1599,-6.2109,-0.048258,1.3237,-0.63163,-19.74,34.44,8.64
18.701,-2.5742,-4.6037,0.20739,2.1628,-1.3812,-20.4,33.96,9.06
19.504,-7.8181,-4.4811,1.0815,1.4135,-3.8023,-21.78,32.76,8.94
19.532,-9.7658,-4.7126,1.8778,-1.2737,-6.2962,-23.76,30.9,7.8
19.532,-11.768,-4.1542,2.6661,-2.1142,-6.6969,-24.72,29.82,6.78
19.532,-18.932,-5.598,3.4847,-2.1188,-5.8906,-26.52,27.78,4.86
19.532,-19.382,-5.1485,2.7129,-1.241,-4.2666,-27.24,26.7,4.08
18.701,-15.091,-3.8001,2.4022,-1.2846,-3.397,-29.1,24.24,2.58
12.544,-11.101,-2.4244,2.2639,-1.3806,-3.1313,-31.02,21.48,1.38
9.9973,-10.488,-1.9613,2.3717,-1.0363,-3.1172,-33.06,18.54,0.36
5.7614,-9.7658,-1.6208,2.4334,-0.7871,-2.7913,-33.96,17.04,0.36
1.7298,-8.1586,-0.14982,2.365,-0.7871,-2.1157,-35.7,14.1,-0.84
-1.185,-7.1098,1.0624,2.1652,-1.1139,-1.3381,-36.72,11.82,-0.24
-3.8273,-6.4833,2.2882,1.909,-1.2306,-1.0922,-37.08,10.74,0.42
-7.2596,-5.1757,3.1872,1.5513,-1.2526,-0.94776,-37.86,8.82,2.04
-10.733,-3.1191,3.3097,1.2682,-1.0125,-1.0525,-38.64,6.9,3.6
-12.177,-2.438,3.1599,0.98441,-0.71929,-0.96547,-38.94,6.06,4.2
-10.569,-1.4982,2.547,0.80451,-0.068722,0.77519,-39.48,4.74,5.04
-4.8352,-3.8682,2.6423,0.63347,1.1225,1.9716,-39.6,3.84,5.7
-3.2825,-5.1213,2.3563,0.43921,0.87109,2.7043,-39.6,3.54,5.7
-1.6072,-7.5865,0.64016,0.25381,0.48564,3.1114,-39.42,3.6,5.7
0.99429,-13.266,-4.0997,0.18815,0.4948,3.4761,-39.0,4.32,5.4
3.9771,-17.189,-5.8159,0.049786,1.3702,4.0363,-38.64,4.86,5.28
16.998,-19.463,-5.2166,-0.24312,3.0668,4.463,-37.44,6.42,4.5
19.382,-19.532,-3.7047,-1.5937,5.1105,3.0812,-36.12,8.22,2.64
19.504,-19.532,-4.3721,-2.996,4.558,0.58368,-35.46,9.0,1.56
19.532,-13.525,-5.38,-3.4639,2.157,1.4032,-33.78,10.56,-1.02
19.532,-9.0712,-5.1213,-3.0714,1.0516,2.2327,-32.04,11.94,-3.78
18.251,-7.0826,-4.5356,-3.0934,0.78618,2.084,-31.32,12.48,-4.86
13.457,-1.7706,-2.4925,-3.2883,0.81428,1.9355,-30.06,13.32,-6.42
9.6977,3.1191,-0.83084,-2.8964,1.7788,1.7862,-29.52,14.4,-6.78
8.3493,4.6037,-0.88532,-2.3772,1.7,1.6426,-29.4,14.94,-6.6
6.0202,6.5922,-1.2258,-2.0782,0.98135,1.3219,-29.16,16.26,-5.82
2.7649,8.5127,-1.3076,-1.7535,0.14019,0.76938,-28.92,17.7,-4.26
-1.1169,10.501,0.40861,-1.4291,-0.54428,0.085521,-28.8,19.5,-2.1
-2.6151,12.149,0.50395,-1.051,-0.82711,-0.89125,-29.04,20.4,-0.78
-4.5356,13.866,0.54481,-0.65088,-0.55253,-1.0351,-29.46,22.08,1.98
-4.7399,13.688,0.99429,-0.21777,-0.42852,-0.67409,-29.76,23.76,4.68
-2.6015,11.482,0.77636,0.20708,-0.030543,-0.1182,-30.06,24.78,5.94
2.6832,8.7715,-0.35413,0.51068,0.31215,-0.16463,-29.88,26.1,7.44
7.0145,7.2869,-2.4244,0.83658,0.20036,-0.58643,-29.7,26.4,7.68
16.739,3.8137,-5.6116,1.0431,0.45418,-0.63866,-29.58,26.16,7.02
19.45,-7.1915,-3.3915,1.8375,1.9658,-1.4505,-30.6,25.8,5.4
19.532,-15.568,-2.2201,3.2648,-0.42455,-4.2538,-31.86,25.26,3.06
19.532,-17.952,-3.1327,3.9468,-3.6921,-5.2547,-32.58,24.96,1.98
19.532,-19.436,-2.4789,1.7856,-1.8088,-3.8875,-33.72,24.3,0.9
18.183,-14.724,-1.8387,1.8744,-0.3656,-2.9682,-34.74,23.34,-1.5
16.072,-11.087,-1.2667,1.8524,-0.46304,-2.6841,-35.28,22.74,-2.34
10.719,-10.869,-0.40861,2.5824,-0.37415,-2.6438,-36.48,21.12,-3.54
7.9815,-11.891,0.61292,2.5498,-0.6243,-1.8179,-37.92,19.44,-4.5
6.1292,-10.447,1.076,2.4859,-0.87904,-1.1616,-38.58,18.72,-4.44
1.2939,-8.4446,0.98067,2.4422,-1.0553,-1.0574,-39.48,17.04,-3.96
-3.3778,-7.3958,1.4574,2.3109,-1.0308,-1.0974,-39.66,14.58,-2.34
-8.4991,-4.9578,1.5391,2.003,-0.78435,-1.0852,-40.14,11.94,-0.48
-11.087,-3.4187,1.3212,1.5925,-0.46456,-1.1136,-40.32,10.74,0.42
-13.852,-1.866,0.89894,0.94257,0.82192,-0.93646,-40.74,8.34,1.56
-13.28,-1.3893,0.92618,0.52993,2.0168,-0.069333,-40.92,7.32,2.04
-7.3141,-2.1384,1.4438,0.15699,3.291,1.0357,-41.04,5.64,2.46
-3.3097,-4.4675,0.21793,-0.21991,3.7232,1.7202,-41.1,4.38,2.46
-1.9613,-5.4754,-0.85808,-0.60262,4.0989,2.1841,-40.56,4.08,1.68
-1.0896,-5.9249,-1.3757,-0.94776,3.7513,2.5977,-40.14,4.14,1.26
3.5413,-9.3844,-1.3893,-1.4154,1.6197,2.9499,-38.82,4.56,-0.3
12.667,-16.835,-1.4574,-1.631,0.69578,2.0363,-36.9,5.4,-1.92
18.524,-19.191,0.78998,-2.1594,0.89706,0.65088,-35.64,5.76,-2.82
19.477,-19.504,3.5277,-3.1478,1.2236,0.66309,-32.1,6.48,-5.58
19.532,-19.191,2.3427,-3.5268,1.7678,2.1988,-28.02,6.42,-9.0
19.532,-15.473,0.8717,-3.3668,-0.36377,2.4761,-26.1,6.18,-10.8
19.518,-12.422,0.49033,-2.9948,0.77274,0.69914,-23.1,5.16,-13.8
15.514,-7.6138,1.1577,-3.2055,1.0501,0.67409,-21.78,3.96,-15.96
12.0,-1.975,2.2882,-3.8069,1.004,1.1075,-21.66,3.3,-16.38
9.793,2.9011,2.9556,-3.992,1.0809,1.3567,-22.8,3.54,-15.24
8.5127,5.2983,2.7649,-3.0861,1.3986,1.2859,-23.7,4.14,-14.58
4.9578,8.6762,1.0624,-2.1771,0.81551,0.86651,-25.56,5.4,-13.08
1.6072,9.507,0.58567,-1.5006,-0.26053,-0.30055,-28.32,7.32,-10.98
-0.040861,10.052,0.64016,-1.2306,-0.67562,-0.9615,-30.0,8.52,-9.54
-3.4868,12.585,0.01362,-1.2156,-0.43097,-1.1857,-33.18,11.64,-6.3
-5.884,15.445,1.5391,-1.1344,0.029016,-1.0162,-35.76,15.12,-3.0
-5.6116,14.669,2.1929,-0.6689,0.15363,-0.5959,-36.48,16.74,-1.26
-0.054481,9.7113,2.1384,0.0058032,0.096517,0.16096,-37.02,19.5,0.9
4.6718,7.3822,1.4438,0.51435,0.46976,0.14569,-36.72,21.24,1.2
9.3027,6.1019,0.8717,1.0421,0.50396,-0.52321,-36.42,21.24,1.02
17.788,3.5822,1.6208,1.3723,0.62736,-0.82925,-36.36,20.76,-0.3
19.477,-4.3177,5.5162,2.1628,0.80573,-0.92821,-36.72,19.74,-2.16
19.518,-9.507,5.1213,3.6692,0.32926,-2.3845,-37.02,19.32,-3.42
19.532,-17.924,5.6524,4.8255,-3.4361,-4.7095,-37.44,18.54,-5.88
19.532,-19.436,2.7649,7.1096,-3.2761,-3.5739,-38.04,17.52,-7.5
19.532,-19.518,1.471,4.4694,-2.0461,-2.065,-38.04,16.98,-8.16
15.936,-19.409,0.96704,2.5754,-2.1084,-1.9392,-38.34,15.6,-9.54
9.7385,-11.891,0.42223,2.0061,-2.0482,-2.2281,-38.64,13.86,-10.08
5.5707,-10.529,1.0896,2.4877,-2.2339,-2.1628,-39.18,12.12,-10.08
3.1599,-10.447,1.2667,2.8888,-2.4019,-1.4755,-39.36,11.16,-9.66
-3.0782,-9.221,1.7706,1.7535,-2.2061,-0.12065,-39.6,9.42,-7.8
-7.5729,-5.9249,1.8932,0.8604,-2.3363,0.17043,-39.78,7.74,-5.04
-9.7794,-3.7047,2.1656,0.52382,-1.9337,-0.2416,-39.84,6.72,-3.36
-14.206,-1.1441,1.6072,0.94623,-1.2422,-0.79229,-39.84,4.86,-0.66
-13.416,-1.1169,1.1986,0.905,-0.43066,-0.24068,-39.72,4.14,0.42
-7.6683,-2.8058,1.3076,0.52443,0.75686,1.321,-39.84,3.0,2.34
-5.4754,-3.8001,1.3212,0.35949,0.97433,2.5525,-39.72,2.7,3.12
-2.261,-5.8976,1.2395,0.1518,0.82528,3.178,-39.66,2.7,3.54
-0.69464,-8.2131,0.77636,-0.18448,0.50457,3.4929,-39.06,3.6,4.32
-0.38137,-9.5206,0.1362,-0.42028,0.35827,3.5281,-38.52,4.2,4.32
3.8001,-16.617,-4.7671,-0.49083,0.77977,3.5772,-36.96,6.0,3.84
7.6955,-18.796,-5.1894,-0.56413,2.4661,3.6447,-35.82,7.02,2.94
18.905,-19.504,-1.7706,-0.69791,4.3882,3.4291,-33.84,8.52,0.3
19.491,-19.532,-1.5936,-1.8546,5.2537,2.3692,-32.94,9.06,-1.38
19.518,-19.532,-2.2201,-3.8271,0.73548,1.8891,-32.28,9.42,-3.12
19.532,-15.146,-3.3642,-3.368,1.1041,2.0397,-31.62,10.08,-5.94
17.325,-11.564,-3.0646,-3.3124,1.7306,1.4584,-31.44,10.62,-7.14
12.912,-5.0259,-1.5936,-3.7269,1.6918,1.1625,-31.26,11.16,-7.86
10.992,0.20431,-0.68102,-4.3332,1.7217,1.2251,-30.78,12.54,-8.1
9.6023,5.0259,1.2939,-4.3546,2.2941,1.4746,-30.42,13.26,-8.04
8.3765,7.7091,0.43585,-1.9777,1.4536,1.3686,-30.12,13.92,-7.62
5.5435,11.101,0.57205,-1.4902,0.20769,0.33139,-29.76,15.48,-6.54
2.833,11.046,0.095342,-0.87476,-0.52107,-0.94562,-29.82,16.02,-5.88
-1.7434,12.149,0.19068,-0.75198,-0.70677,-1.4557,-30.54,16.98,-3.3
-3.1191,12.64,0.39499,-0.42608,-0.28405,-0.98166,-30.84,17.7,-1.56
-2.7241,11.632,0.74912,-0.12126,-0.037263,-0.67837,-31.2,18.6,0.24
-1.5119,10.556,0.81722,0.12859,0.38637,-0.63438,-31.32,19.44,2.04
3.2961,9.0712,0.8717,0.42608,0.48014,-0.89889,-31.2,21.42,5.16
6.1836,7.75,0.054481,0.93035,0.24893,-1.4053,-30.96,21.96,6.3
14.315,4.4811,-2.1929,1.3638,-0.012523,-1.7459,-30.72,22.32,6.84
19.205,-0.83084,-3.1327,1.9258,-0.12614,-1.7688,-31.02,22.08,6.06
19.491,-8.5263,-2.0839,3.0216,0.17471,-2.916,-31.62,21.78,5.04
19.518,-14.233,-2.2474,3.839,-0.64446,-4.0323,-32.16,21.66,3.78
19.532,-19.3,-1.757,5.8588,-4.9248,-4.7006,-33.6,20.58,1.8
19.532,-19.504,-4.1406,5.6746,-3.3866,-3.4511,-34.14,20.16,1.02
11.863,-19.409,-0.70826,1.6585,-2.2037,-2.4587,-35.1,18.6,-0.24
8.7987,-13.729,-0.32689,1.0565,-1.5238,-2.2895,-35.46,17.82,-0.54
5.884,-9.6023,0.50395,1.328,-1.1796,-2.0986,-35.88,16.86,-0.78
4.5628,-8.7579,0.92618,1.6539,-1.1115,-1.8781,-36.18,16.14,-1.02
1.6889,-7.7091,1.6889,1.8683,-1.3998,-0.81734,-36.6,15.18,-1.32
-2.547,-6.4152,2.4108,1.6246,-1.6304,-0.26389,-37.38,13.74,-1.5
-5.9793,-5.1213,2.7104,1.1475,-1.7159,-0.15211,-37.62,13.2,-1.2
-10.338,-2.0294,3.3506,1.0064,-1.0931,-0.3317,-37.68,12.48,0.42
-12.503,-0.99429,3.1735,1.0299,-0.46853,-0.26695,-37.62,11.88,1.62
-12.898,-0.70826,2.6832,0.84208,0.27306,0.58429,-37.5,11.1,3.0
-7.0145,-2.8467,2.1656,0.65668,1.2822,1.8213,-37.08,10.08,5.16
-3.9908,-4.8352,1.7979,0.51435,1.4276,2.6817,-37.02,9.78,5.94
-1.7025,-6.674,0.84446,0.36774,1.2987,3.0919,-36.78,9.96,6.42
1.58,-11.032,-1.7706,0.26481,1.1228,3.3057,-35.82,10.62,6.42
4.8488,-14.628,-4.1542,0.21014,1.4316,3.3888,-35.04,11.28,6.18
8.0088,-18.673,-5.203,-0.14936,2.5229,3.3277,-34.2,11.82,5.46
18.701,-19.504,-3.514,-0.6857,4.0818,2.9438,-32.16,12.72,3.24
19.477,-19.532,-4.1814,-1.8732,4.2257,2.0763,-31.2,12.96,1.98
19.532,-18.851,-5.4073,-2.4224,1.0027,1.6335,-29.7,13.56,-0.6
19.532,-14.519,-5.5571,-2.0482,0.78313,1.3711,-29.04,13.56,-1.86
16.276,-11.713,-4.3858,-2.5268,1.1414,1.0284,-28.56,13.8,-3.12
13.702,-9.4525,-4.8625,-3.0045,1.4719,0.89828,-28.26,14.1,-4.14
9.5751,-1.5255,-2.6287,-3.9554,2.1994,0.65851,-27.72,14.64,-4.92
9.221,3.2144,-0.6674,-3.8378,2.7278,0.77122,-27.36,15.18,-4.8
8.0224,7.3277,-0.49033,-2.0849,3.065,0.88239,-27.18,15.54,-4.44
4.3449,9.1393,-2.2474,-1.6839,1.6918,0.22633,-27.3,16.56,-3.3
2.6696,9.4117,-2.4925,-0.95081,-0.64171,-1.0898,-27.6,16.98,-2.58
0.55843,9.5479,-1.5663,-0.80909,-0.90591,-1.5183,-28.2,17.52,-1.62
-3.1191,11.128,-1.0215,-0.58887,-0.40225,-1.4154,-29.16,18.66,1.32
-3.8682,11.536,-0.76274,-0.43097,0.16432,-0.9783,-29.82,19.38,2.82
-1.3484,9.7385,-0.57205,-0.12645,0.67776,-0.45632,-30.42,20.04,4.44
5.6252,6.5105,-1.4301,0.31337,0.88178,-0.56841,-31.44,21.18,7.32
11.032,4.7126,-1.3212,0.5342,0.87109,-0.8937,-31.74,21.66,8.4
16.644,2.6423,-1.3757,0.99632,0.49327,-1.8528,-31.86,21.78,9.24
19.491,-1.9068,-1.7706,1.8705,-1.0681,-3.7782,-32.28,21.72,8.46
19.532,-4.1951,-2.8603,2.46,-1.9722,-4.4144,-32.58,21.36,7.32
19.532,-8.1177,-2.6423,3.0965,-2.131,-4.0827,-33.0,21.0,6.3
19.532,-15.65,-0.20431,4.6081,-2.1035,-2.5482,-33.9,19.74,4.68
19.532,-17.189,-0.9398,4.0974,-1.8702,-1.8738,-34.38,19.02,3.9
19.314,-19.355,-0.91256,3.2266,-1.6368,-1.8262,-34.62,18.36,3.48
13.334,-12.721,-0.7355,1.697,-1.0064,-1.9966,-35.52,16.56,2.58
10.12,-7.7636,-0.1362,1.6454,-0.52168,-1.8289,-35.88,15.66,2.1
8.2267,-6.1564,0.36775,2.2071,-0.42883,-1.3302,-36.12,14.82,1.86
3.9908,-6.17,0.36775,2.762,-0.83291,-0.50732,-36.66,13.5,1.08
1.3212,-6.2245,0.55843,2.5409,-1.2278,-0.2251,-36.96,12.96,1.02
-0.76274,-5.9249,1.1577,2.1038,-1.5782,-0.14478,-37.2,12.6,1.08
-8.7715,-4.1951,1.9341,1.4798,-1.6982,-0.19151,-37.68,11.82,2.58
-11.387,-2.8058,1.471,0.84147,-1.2178,-0.27764,-38.04,11.34,3.6
-12.599,-1.185,1.3212,0.51191,-0.22144,-0.29902,-38.1,10.92,4.68
-8.2812,-0.81722,0.96704,0.20617,1.2932,0.95356,-38.04,10.14,6.18
-4.7944,-2.8875,1.0624,0.023518,1.4077,2.0971,-37.86,9.96,6.84
-1.7979,-5.2166,0.46309,-0.064446,1.2819,2.522,-37.74,9.78,7.14
0.40861,-7.4095,-0.36775,-0.47495,0.94654,2.9709,-37.62,9.78,7.14
3.2689,-9.7658,-1.9477,-0.82681,0.80573,2.6579,-37.32,10.02,6.96
11.223,-16.508,-5.1213,-1.0174,1.069,2.1237,-36.36,10.8,6.12
17.911,-19.15,-4.6718,-1.3063,3.5097,1.2468,-36.0,11.34,5.52
19.477,-19.518,-2.0703,-2.4114,3.7858,1.1472,-35.22,12.24,3.48
19.532,-19.477,-2.3427,-2.8747,2.8213,1.3127,-34.98,12.66,2.4
19.532,-17.148,-3.2553,-2.5586,1.0269,1.2871,-34.44,12.96,1.32
19.123,-13.866,-4.4947,-2.2122,1.0052,0.51832,-33.54,13.56,-0.72
14.737,-9.3299,-4.127,-2.5556,1.398,0.39828,-33.24,13.62,-1.74
11.645,-3.8409,-3.1191,-3.2538,1.7333,0.84849,-33.24,13.62,-2.4
10.474,0.57205,-0.12258,-3.5733,2.2675,1.4856,-33.72,14.04,-3.0
8.3765,9.3299,-0.31327,-2.6903,2.5601,1.547,-33.96,14.46,-2.94
7.1779,11.605,-0.46309,-1.4813,1.3827,1.2672,-34.2,15.0,-2.64
4.6718,10.42,-1.9341,-0.81886,-0.37507,-0.15821,-34.44,15.6,-2.28
-1.4982,9.4798,-3.1872,-0.83291,-1.492,-0.81642,-35.4,16.38,-0.84
-3.4459,11.223,-2.6696,-1.2697,-1.0159,-1.1622,-35.82,16.56,-0.84
-5.9249,13.634,-1.4982,-1.6985,0.27672,-0.95264,-36.3,16.86,1.02
-6.5105,13.552,0.081722,-1.6218,0.5116,-0.64996,-36.6,17.04,2.28
-0.76274,9.9292,-0.29965,-1.4737,1.2511,0.20892,-37.8,17.34,4.56
4.7399,9.1665,-0.64016,-1.284,1.6102,-0.039095,-38.4,17.52,5.34
7.8317,9.1256,-1.3212,-0.81734,1.8961,-0.85765,-38.76,17.64,5.82
19.137,3.8001,-1.2939,-0.20495,2.0724,-1.6985,-39.18,18.12,4.98
19.436,0.92618,-0.14982,1.5098,2.2669,-3.5971,-39.06,18.42,3.9
19.518,-4.2632,0.095342,2.2358,1.6582,-4.5897,-38.88,18.72,2.58
19.532,-14.383,1.1441,4.8924,-3.7519,-4.9694,-39.0,18.18,0.54
19.532,-18.319,-0.01362,6.7238,-3.7938,-3.3411,-39.42,17.34,-0.12
19.532,-19.382,-2.1248,4.2895,-2.1362,-2.0226,-39.84,16.32,-0.84
11.727,-13.961,-2.2474,3.4709,-1.8842,-1.587,-40.44,14.1,-2.16
9.9292,-10.351,-1.9886,2.9667,-1.3702,-1.6845,-40.74,12.96,-2.7
6.3743,-8.4582,-1.3348,3.3289,-1.2523,-1.6371,-41.22,11.88,-3.12
2.2201,-9.8748,-0.85808,2.9291,-1.1387,-0.19853,-41.4,9.72,-3.84
0.53119,-8.8532,0.83084,2.4618,-1.1945,0.38454,-41.64,8.76,-3.96
-1.5391,-7.3958,1.6753,1.5397,-1.3424,0.8323,-41.88,7.92,-3.78
-8.5808,-4.5628,2.547,1.0205,-1.3366,0.63499,-42.54,6.42,-1.8
-11.659,-3.1872,2.6968,0.56963,-0.53115,0.38301,-42.9,5.4,-0.48
-13.906,-1.3757,2.2201,0.23824,0.2416,0.90713,-43.44,3.48,2.16
-10.106,-1.4301,1.9886,0.065057,1.4789,2.1041,-43.44,2.88,3.06
-5.993,-2.8058,2.0975,-0.094073,1.8485,3.164,-43.32,2.7,3.72
-0.99429,-5.7342,0.98067,-0.27978,1.5525,3.8662,-42.9,3.36,4.38
0.68102,-7.246,0.027241,-0.53481,1.4926,4.1117,-42.42,3.96,4.32
1.5663,-8.4991,-2.9556,-0.81245,0.95112,3.8579,-40.74,5.82,3.36
6.5786,-14.969,-5.8159,-0.89919,0.91844,3.7128,-39.54,6.9,2.52
12.286,-18.796,-5.993,-1.0944,1.8579,3.3564,-38.58,7.86,1.2
17.284,-19.355,-4.6445,-1.4908,4.2932,2.609,-37.68,8.52,-0.12
19.504,-19.532,-1.1986,-2.5391,4.4245,1.9929,-36.6,9.6,-2.94
19.532,-18.796,-2.3155,-3.153,2.3109,1.9111,-36.18,10.26,-4.14
19.532,-13.048,-4.6582,-2.3683,0.56016,2.1386,-35.46,11.7,-6.0
19.532,-10.447,-4.6582,-2.1237,0.27642,1.8619,-35.1,12.66,-6.6
17.366,-7.4912,-4.1542,-2.3277,-0.20556,1.201,-34.86,13.8,-7.2
14.424,-4.3313,-3.8409,-2.8952,-0.39065,1.1237,-34.5,14.94,-7.44
11.782,-0.85808,-3.2825,-3.1121,-0.26725,1.0919,-34.02,16.2,-7.32
6.4288,7.6002,-2.5742,-1.9025,0.55497,0.61178,-33.12,18.42,-6.36
2.942,9.4117,-2.4244,-1.6591,0.032376,-0.69761,-33.0,19.26,-5.64
-1.5391,9.3572,-1.2395,-1.4041,-0.5003,-0.92149,-33.66,20.94,-3.0
-2.6423,9.5751,-0.85808,-1.3628,-0.72815,-0.61239,-33.96,22.02,-1.38
-3.3915,10.147,-0.77636,-1.4884,-0.29016,-0.45418,-34.02,23.16,0.42
-4.7944,11.414,0.39499,-1.5852,0.97525,-0.41508,-33.78,25.5,4.32
-4.0589,10.283,1.1713,-1.306,1.3259,-0.40592,-33.6,26.46,5.82
-2.0431,8.6625,1.3076,-1.0085,1.4664,-0.31948,-33.42,27.3,7.14
2.833,7.3141,0.21793,-0.65973,1.4994,-0.47983,-33.12,28.02,9.06
5.4345,6.7966,-1.4301,-0.14752,1.4398,-0.8491,-33.0,27.9,9.6
10.42,5.7614,-4.8761,0.32162,1.2672,-1.1698,-33.12,27.6,9.18
19.137,-3.4051,-6.4016,1.3231,2.266,-1.0394,-34.08,26.94,7.56
19.504,-16.399,-4.7807,3.1661,3.0583,-3.8478,-34.68,26.58,6.0
19.532,-17.992,-4.7671,4.3182,-0.49755,-5.557,-35.28,26.34,4.68
19.532,-19.504,-7.75,4.5442,-2.8268,-3.7391,-36.42,24.48,2.52
17.012,-19.532,-5.2711,4.5442,-2.8268,-3.7391,-36.9,23.22,1.92
13.879,-19.532,-5.2438,2.2611,-2.4648,-3.0574,-37.56,22.14,1.2
9.7385,-12.531,-4.1951,1.4279,-1.6402,-3.1728,-37.92,20.82,0.42
4.7399,-9.2346,-1.6344,1.8155,-1.347,-2.9343,-39.06,18.18,-0.9
1.4438,-9.7794,-1.1032,1.573,-0.95692,-1.8958,-39.54,16.86,-1.5
-1.7298,-6.7148,0.44947,1.1945,-0.81215,-0.88392,-40.2,14.4,-2.16
-2.9965,-5.2847,1.2258,1.069,-0.79535,-0.61209,-40.44,13.5,-2.22
-6.6059,-3.0782,2.7377,1.0397,-0.80146,-0.81428,-40.62,12.54,-1.8
-10.134,-2.0975,3.9499,0.90194,-0.48045,-0.73151,-40.5,10.02,-0.24
-12.108,-1.0896,3.9908,0.65729,-0.087354,-0.021075,-40.44,8.58,1.2
-10.896,-0.64016,3.8137,0.51526,0.54398,0.92332,-40.2,7.32,2.46
-5.4754,-2.6968,3.2961,0.52718,1.5128,2.2852,-39.72,5.88,3.9
-2.6968,-4.7263,2.6151,0.43891,1.2333,3.0161,-39.48,5.52,4.08
-0.99429,-6.5922,1.4846,0.40287,1.0284,3.2938,-39.18,5.4,4.14
0.65378,-12.681,-1.9886,0.31673,0.37782,3.9211,-38.34,5.76,3.84
2.7377,-18.02,-4.6037,0.061697,0.66493,4.3399,-37.56,6.24,3.48
7.3958,-19.355,-6.1564,-0.19181,2.0314,4.777,-36.72,6.84,2.76
19.123,-19.532,-7.246,-0.76083,4.3857,4.4486,-35.1,8.1,0.3
19.477,-19.532,-8.8668,-1.7828,3.0171,4.0009,-34.38,8.52,-1.02
19.532,-19.532,-9.7794,-2.1728,1.1451,4.233,-33.66,8.88,-2.4
18.428,-17.352,-8.54,-2.1374,-0.61636,4.0335,-32.94,10.14,-4.2
14.192,-13.307,-5.3256,-2.2315,0.34789,3.6221,-32.46,11.28,-4.74
11.795,-6.9736,-4.1814,-2.6692,1.2706,3.4551,-31.8,12.48,-4.98
12.667,0.51757,-2.1929,-2.8607,2.8787,3.0439,-29.82,15.96,-4.98
12.612,5.8295,-1.9477,-1.7776,2.9661,2.6493,-28.62,17.76,-4.68
12.177,7.5048,-1.8932,-1.5049,2.2513,2.2749,-27.42,19.32,-4.32
9.0712,8.4174,0.040861,-0.69303,-0.22083,0.63011,-26.22,20.82,-4.02
3.9635,9.0031,2.833,-0.27978,-1.0724,-0.36194,-24.36,23.82,-2.94
0.89894,10.665,2.8194,-0.020769,-0.65363,-0.91172,-23.7,25.14,-1.98
-0.44947,11.768,1.9613,0.23427,-0.061087,-1.0385,-23.16,26.46,-0.78
0.10896,9.4117,-0.62654,0.4612,0.39615,-0.75595,-21.9,29.16,1.98
2.0703,7.1234,-0.85808,0.63102,0.78405,-0.96792,-21.18,30.66,3.48
3.5685,5.8976,-0.99429,0.91844,0.58979,-1.2654,-20.28,32.04,4.38
5.993,4.2495,-1.9613,1.1038,-0.1011,-1.4416,-19.32,33.0,4.98
9.5887,0.85808,-5.2438,1.1322,-0.53145,-1.8604,-18.78,33.78,5.52
16.058,-4.1951,-8.0224,1.0767,0.35675,-2.4816,-18.9,33.48,5.58
19.423,-16.562,-10.597,1.1084,0.64904,-2.7843,-20.46,32.04,5.28
19.518,-19.164,-10.351,1.2562,0.56474,-3.9047,-21.72,30.84,4.86
19.532,-19.491,-9.7658,1.1985,-0.45937,-3.3989,-23.22,29.28,3.9
19.532,-19.532,-8.3357,1.1255,-0.76969,-2.9236,-26.16,25.8,1.14
18.578,-19.45,-7.2869,1.2181,-1.113,-3.5192,-27.24,24.18,-0.78
14.397,-15.663,-5.1894,1.3659,-1.2617,-3.3161,-27.96,22.74,-2.34
6.9872,-13.375,-2.8739,1.3268,-1.3289,-2.8054,-28.98,19.98,-4.68
3.5685,-11.863,-1.0351,1.2312,-1.2679,-2.3451,-29.64,18.66,-5.34
1.1441,-10.733,-0.21793,1.1631,-1.2358,-2.0491,-30.36,17.46,-5.64
-5.489,-6.0338,1.866,0.97983,-1.2031,-1.4532,-31.62,15.0,-6.0
-7.8998,-3.9227,2.5742,0.84238,-1.226,-1.4154,-32.04,13.74,-5.94
-10.093,-2.2882,3.3506,0.65271,-0.84422,-1.4285,-32.52,12.66,-6.12
-14.029,0.081722,3.1872,0.45479,-0.59987,-1.0696,-32.64,10.74,-5.94
-11.836,0.69464,2.8603,0.33384,-0.047037,-0.010385,-32.28,10.2,-5.46
-8.0769,-0.24517,2.8467,0.23915,0.95295,1.2752,-31.8,10.14,-4.5
-3.3778,-2.6968,2.438,-0.0015272,1.1295,2.5232,-30.84,10.2,-2.1
-1.7979,-3.7865,1.3484,-0.18631,0.86499,2.9581,-30.48,10.26,-0.48
