Ax,Ay,Az,Gx,Gy,Gz,Mx,My,Mz
12.558,-16.562,0.69464,0.73487,-1.5195,-1.7565,-11.1,37.56,-6.36
11.4,-15.718,0.47671,0.8097,-1.1906,-1.3082,-13.14,37.2,-7.2
8.7715,-14.519,0.027241,0.96822,-0.93035,-0.9163,-14.94,36.96,-7.98
6.7421,-13.92,-0.38137,1.1246,-0.71013,-0.046426,-18.66,36.06,-9.6
5.0531,-13.062,-0.6674,1.0473,-0.79077,0.47739,-20.04,35.7,-10.32
3.9771,-12.326,-0.70826,0.91538,-0.98777,0.90011,-21.48,35.22,-11.04
2.2337,-10.215,-0.32689,0.78924,-1.1408,1.2153,-23.64,34.56,-12.9
0.47671,-8.0496,0.17706,0.68173,-1.2205,1.4642,-24.48,34.32,-13.86
-1.6753,-5.2575,0.40861,0.62858,-1.1985,1.6163,-24.84,34.2,-14.88
-2.7104,-3.6639,0.55843,0.61606,-1.1057,1.4215,-24.84,34.68,-16.74
-3.3506,-3.3778,0.88532,0.57482,-0.9502,1.1719,-24.24,34.98,-17.58
-3.9227,-3.337,1.0079,0.48991,-0.7422,1.0574,-23.58,35.4,-18.24
-4.5492,-4.3585,1.1169,0.31734,-0.43433,1.0342,-22.44,35.94,-19.08
-4.1542,-4.7671,0.7355,0.073609,0.034819,1.0021,-22.2,36.12,-19.62
-2.5061,-5.7342,0.23155,-0.19395,0.56108,0.94806,-22.26,36.48,-20.28
-1.0351,-9.3572,0.83084,-0.478,1.3518,0.82589,-22.44,36.36,-20.58
-0.40861,-12.762,1.2258,-0.55986,2.1014,1.168,-22.86,36.24,-20.76
4.8625,-18.197,1.1305,-0.50488,2.7981,1.7315,-23.34,36.06,-20.1
7.7636,-17.094,-0.16344,-0.39798,3.3653,1.7211,-23.34,35.82,-19.62
10.188,-18.374,-1.1577,-0.1066,3.9196,1.7068,-23.1,35.88,-18.72
14.764,-19.518,-2.1384,-0.12553,4.0653,1.6154,-21.84,36.0,-17.16
16.29,-19.518,-2.1248,-0.4893,2.4343,1.0516,-20.94,36.12,-16.44
17.311,-17.679,-1.7162,-0.63163,1.0143,0.75198,-20.16,36.24,-15.48
13.974,-12.367,-1.6753,-0.74312,0.31215,0.5003,-18.3,36.48,-13.8
12.286,-9.6023,-1.471,-0.84391,0.38118,0.23457,-17.22,36.78,-12.72
11.032,-5.993,-1.0624,-0.92577,0.69944,-0.04215,-16.2,37.14,-11.76
10.637,-4.413,-0.88532,-0.85796,0.91721,-0.22144,-13.56,37.68,-10.02
9.8339,0.14982,-1.0624,-0.60109,1.0403,-0.39126,-12.0,38.34,-9.24
9.5615,1.3893,-1.2939,-0.38393,0.93646,-0.65668,-10.44,38.82,-8.52
9.2755,4.2904,-1.5255,-0.18845,0.58582,-1.1127,-7.68,39.9,-8.1
9.2482,4.3858,-1.2258,-0.011301,0.085216,-1.5892,-6.78,40.44,-8.16
9.0439,3.4459,-0.95342,0.14691,-0.39584,-2.036,-6.12,40.86,-8.58
8.5672,1.6889,-0.40861,0.33109,-0.89034,-2.4722,-6.18,41.22,-8.76
8.2131,1.3212,-0.21793,0.65943,-1.3998,-3.0974,-6.72,41.16,-8.76
7.7091,0.8036,-0.027241,0.77244,-1.4942,-3.3149,-7.38,41.16,-8.82
9.9429,-1.7298,0.28603,0.97922,-1.7984,-3.8332,-9.3,40.86,-8.22
12.708,-5.4618,0.28603,0.93218,-2.0302,-3.6374,-10.68,40.32,-7.92
14.111,-7.8862,0.24517,0.82772,-2.1646,-3.1014,-12.3,39.36,-7.44
14.451,-12.204,0.61292,0.79779,-2.1386,-2.7303,-16.26,37.02,-7.8
13.797,-12.83,0.47671,0.85918,-1.2449,-2.3185,-20.04,34.8,-9.18
13.825,-12.708,0.068102,0.94134,-1.1726,-1.7617,-21.78,33.78,-9.96
12.926,-12.885,-0.21793,0.98135,-1.2685,-1.4694,-23.4,32.82,-10.62
11.931,-12.926,-0.25879,0.97036,-1.0275,-0.67623,-24.84,31.8,-11.16
6.9328,-11.741,-0.40861,0.90561,-0.62369,-0.055894,-27.72,30.06,-12.06
4.7399,-10.855,-0.12258,0.7981,-0.51526,0.47189,-28.86,29.28,-12.48
1.2939,-9.8339,0.095342,0.60812,-0.62492,1.2165,-30.66,27.84,-13.14
-0.01362,-9.2074,0.19068,0.48594,-0.71929,1.5992,-31.38,27.24,-13.5
-0.74912,-8.7715,0.17706,0.43555,-0.74251,1.7126,-31.74,26.94,-14.1
-2.6968,-6.6331,0.21793,0.27275,-0.76786,1.7291,-31.38,26.94,-15.42
-3.4732,-5.5843,0.40861,0.22388,-0.74098,1.5721,-30.66,27.36,-15.72
-4.1542,-4.9714,0.91256,0.19059,-0.65088,1.4273,-29.76,27.96,-15.6
-4.7944,-4.699,1.3212,0.1066,-0.23274,1.3787,-28.56,29.04,-15.12
-4.4947,-4.7263,1.1577,-0.085521,0.30696,1.3903,-28.2,29.46,-14.88
-3.6094,-4.8625,0.81722,-0.25443,0.90469,1.3613,-28.02,29.76,-14.82
-0.55843,-6.674,0.68102,-0.3653,1.3839,1.2617,-28.02,29.88,-14.94
1.6753,-11.523,1.5391,-0.52626,1.9132,1.2147,-28.14,29.7,-14.94
6.7012,-18.633,1.5255,-0.76297,2.7046,2.0149,-28.44,29.58,-14.64
10.147,-18.891,0.89894,-0.91294,2.9624,2.3607,-28.62,29.58,-14.22
10.147,-18.891,0.89894,-0.57482,3.6765,1.7782,-28.62,29.58,-14.22
10.147,-18.891,0.89894,-0.55039,3.7574,1.6994,-28.62,29.58,-14.22
18.101,-18.96,-1.975,-0.75595,2.1698,1.1805,-28.08,29.88,-13.5
17.965,-13.934,-1.6208,-0.82894,0.98044,1.0256,-26.4,30.96,-12.24
14.124,-9.2618,-1.185,-0.80665,0.65546,0.81551,-24.9,32.16,-10.86
12.558,-5.5843,-1.3757,-0.7422,0.96303,0.56933,-23.4,33.24,-9.48
12.163,-3.2825,-1.5527,-0.68783,1.3002,0.32284,-21.84,34.08,-7.74
11.782,-0.89894,-1.5391,-0.60934,1.2233,0.20831,-19.74,35.04,-5.82
11.291,0.28603,-1.4438,-0.45143,0.9331,-0.057421,-18.84,35.64,-4.74
9.793,2.9148,-1.58,-0.25687,0.55467,-0.38759,-16.44,37.44,-3.24
8.2131,4.3858,-1.7025,-0.10324,0.17349,-0.70799,-13.98,39.0,-2.64
7.5048,4.985,-1.6344,0.044593,-0.22052,-1.0849,-13.26,39.54,-2.7
7.4503,3.8954,-1.3484,0.31215,-0.60842,-1.591,-13.14,39.54,-2.58
7.4503,2.3155,-1.185,0.42944,-0.72174,-1.7584,-13.56,39.54,-2.4
7.5729,1.6072,-1.0079,0.67745,-0.95081,-2.1554,-13.92,39.66,-2.1
7.7364,0.69464,-0.98067,0.99968,-1.3292,-2.8433,-14.22,39.72,-1.92
12.449,-2.6696,0.31327,1.1649,-1.722,-3.1915,-15.48,39.18,-1.02
14.928,-6.8374,0.35413,1.1875,-1.7614,-2.9667,-16.5,38.7,-0.42
16.644,-11.891,0.89894,1.2068,-1.8949,-2.5372,-19.26,37.08,-0.12
15.541,-13.13,1.2258,1.2046,-1.8066,-2.4514,-20.88,36.06,-0.66
15.296,-13.688,0.99429,1.149,-1.431,-2.3002,-22.32,35.16,-1.62
14.996,-14.056,0.76274,1.0159,-1.6273,-1.5067,-23.64,34.44,-2.76
12.027,-13.974,0.68102,0.93249,-1.7413,-0.92913,-26.22,33.0,-5.1
8.9486,-13.007,0.68102,0.8433,-1.2636,-0.26328,-27.3,32.46,-6.18
2.942,-9.1665,0.054481,0.85796,-0.82681,0.80756,-29.22,31.44,-8.1
1.1577,-7.8998,-0.19068,0.8717,-1.0101,1.3463,-30.0,30.96,-9.0
0.29965,-7.5457,-0.27241,0.85521,-1.0913,1.5434,-30.72,30.36,-9.96
-0.72188,-7.5048,0.28603,0.75808,-1.0626,1.912,-32.04,29.94,-12.24
-1.5255,-6.7421,0.9398,0.68936,-1.0259,1.9499,-32.16,30.06,-13.68
-2.8194,-5.4345,1.6753,0.5849,-1.1035,1.7972,-32.04,30.42,-15.18
-3.8273,-4.6037,1.8115,0.3934,-0.90439,1.4841,-30.78,31.74,-17.46
-3.8954,-4.7944,1.7706,0.22846,-0.3882,1.3421,-29.94,32.52,-17.82
-3.7456,-5.1621,1.6072,0.11393,-0.074831,1.3295,-29.52,33.12,-18.12
-2.8058,-5.8704,1.0351,-0.21716,0.88239,1.3237,-29.28,33.72,-18.12
-1.7298,-6.5241,0.72188,-0.42364,1.4337,1.2425,-29.28,34.14,-18.24
1.8932,-14.097,1.8387,-0.5565,2.0568,1.127,-30.06,34.68,-18.42
3.9908,-17.666,2.0022,-0.59804,2.894,1.6249,-30.54,34.74,-18.42
10.079,-18.782,1.185,-0.67317,3.4581,2.0024,-30.9,34.92,-17.88
14.206,-19.246,-0.50395,-0.52198,3.7003,1.4484,-30.3,35.58,-16.5
15.772,-19.504,-1.1441,-0.56352,3.4819,1.1982,-29.52,35.82,-15.96
17.025,-19.532,-1.5391,-0.77946,2.419,0.74251,-28.86,36.3,-15.36
16.903,-15.445,-1.7843,-0.87262,1.1793,0.47678,-27.48,37.2,-13.98
14.642,-11.809,-1.9205,-0.97066,0.40317,0.28161,-26.76,37.74,-13.38
12.463,-7.355,-1.7979,-1.1274,0.36835,0.21136,-25.5,38.94,-11.94
11.645,-5.094,-1.2939,-1.2278,0.78771,-0.057116,-24.54,39.54,-11.04
10.883,-3.4459,-0.77636,-1.1106,0.93829,-0.18845,-23.7,40.14,-10.26
9.6023,-0.027241,-0.5993,-0.88575,1.047,-0.32559,-21.18,41.58,-8.58
8.7987,2.0567,-1.2395,-0.58826,1.0632,-0.58338,-19.8,42.36,-7.86
7.5865,4.699,-1.7979,-0.30146,0.7364,-1.0278,-17.58,43.92,-7.44
7.1643,4.7807,-1.6481,-0.12675,0.40684,-1.3405,-17.16,44.46,-7.68
6.9055,4.3721,-1.5255,0.053145,0.088575,-1.6301,-16.98,44.88,-7.86
7.355,3.5549,-1.2803,0.28772,-0.39156,-1.9731,-17.46,45.12,-7.92
7.355,3.1599,-1.1577,0.55986,-0.96089,-2.3298,-17.94,45.36,-8.04
7.4367,2.3155,-0.6674,0.82375,-1.3234,-2.8051,-18.54,45.12,-7.86
10.597,0.01362,0.14982,1.0821,-1.5314,-3.2,-20.34,44.34,-7.32
13.184,-2.6015,-0.027241,1.1799,-1.7239,-2.9877,-21.3,43.74,-6.96
16.753,-7.0962,-0.027241,1.0333,-1.8509,-2.4471,-22.56,42.84,-6.42
17.025,-9.2891,0.95342,0.97036,-1.7312,-2.1817,-23.88,41.76,-6.0
16.535,-12.149,1.4029,1.0122,-1.1066,-1.8784,-26.94,39.0,-6.18
16.331,-11.605,0.83084,1.0327,-1.0473,-1.332,-28.32,37.74,-6.72
13.13,-12.0,0.31327,1.0504,-1.2535,-0.90805,-30.54,35.16,-8.04
10.801,-11.632,0.23155,1.0388,-0.66523,-0.10873,-31.56,34.02,-8.7
7.1098,-10.61,0.23155,1.0372,-0.46548,0.53329,-32.4,32.94,-9.48
1.7434,-8.5127,-0.054481,1.0229,-0.60292,1.0611,-33.42,31.14,-11.04
0.095342,-8.322,-0.054481,0.95264,-0.78954,1.3949,-33.9,30.12,-11.7
-1.8387,-8.1858,0.040861,0.80634,-0.97311,1.5956,-34.2,29.46,-12.66
-3.0646,-7.3141,0.081722,0.63897,-1.0834,1.6167,-33.96,28.68,-14.64
-3.6094,-6.6059,0.44947,0.46762,-1.0412,1.4294,-33.42,28.5,-15.78
-4.6445,-5.4345,1.2395,0.35644,-0.98991,1.4233,-32.7,28.74,-17.22
-5.3937,-5.2575,2.1656,0.23488,-0.66248,1.4743,-31.02,29.58,-19.68
-5.1757,-5.4754,1.9886,0.10904,0.044593,1.5284,-30.3,30.06,-20.52
-4.0589,-5.7205,1.3212,-0.01069,0.84849,1.5452,-29.64,30.48,-21.12
-0.5993,-7.355,0.35413,-0.18021,1.3949,1.4649,-29.46,30.9,-22.44
0.8036,-9.8203,0.88532,-0.42761,2.1218,1.3512,-29.4,30.78,-22.68
8.2948,-19.191,2.2474,-0.4725,2.4661,1.7071,-29.46,30.72,-22.62
13.334,-19.123,1.4574,-0.65424,3.0665,2.6286,-29.76,30.72,-21.48
15.159,-18.782,0.12258,-0.33781,3.346,2.1502,-29.46,31.02,-20.58
15.827,-19.355,-0.64016,-0.146,3.9566,1.9325,-28.8,31.44,-19.68
18.129,-19.246,-1.2258,-0.38485,3.7217,1.4319,-27.18,32.22,-18.24
18.061,-16.413,-0.78998,-0.49266,1.6564,1.0314,-26.34,32.58,-17.64
14.887,-11.182,-0.51757,-0.7309,0.49388,0.88362,-24.36,33.54,-15.9
13.021,-8.8941,-0.7355,-0.88087,0.18784,0.66462,-23.22,34.26,-15.0
12.081,-7.355,-0.47671,-0.95112,0.37232,0.43371,-21.9,34.98,-14.28
10.174,-2.9829,0.20431,-0.92821,0.67348,0.26786,-19.08,36.36,-12.06
9.8884,-0.89894,0.24517,-0.75808,1.0492,0.046426,-17.4,37.38,-10.98
9.5206,1.2258,-0.76274,-0.40103,1.2434,-0.49724,-13.98,39.54,-9.84
9.0439,4.9169,-1.3757,-0.16035,0.94104,-1.0214,-12.24,40.56,-9.9
8.9077,5.8159,-1.6344,0.023213,0.35888,-1.4856,-10.86,41.46,-10.14
8.9349,5.4618,-1.58,0.10599,0.03146,-1.6725,-9.9,42.06,-10.56
8.826,3.9908,-1.2803,0.4047,-0.93187,-2.1539,-9.3,42.78,-11.22
9.0848,2.7513,-1.9886,0.61087,-1.4826,-2.5275,-9.3,42.96,-11.34
8.1858,1.0488,-0.85808,0.58429,-1.8112,-3.0177,-10.2,43.08,-11.28
13.62,-1.866,2.1248,0.91569,-2.8359,-3.4279,-11.04,42.96,-11.22
16.739,-6.8647,1.3757,1.0369,-2.4169,-3.635,-12.0,42.54,-10.86
17.775,-9.1801,0.8717,0.97311,-1.1564,-2.9939,-13.5,41.88,-10.32
17.325,-12.817,2.261,1.015,-1.3408,-2.8928,-17.1,39.78,-10.32
16.685,-12.858,2.3699,1.036,-1.1515,-2.5919,-18.96,38.4,-10.86
15.868,-12.217,1.4438,0.99785,-1.2,-2.0947,-20.76,37.02,-11.76
11.713,-12.136,0.7355,0.88973,-1.2932,-1.2315,-24.06,34.44,-13.5
8.6353,-12.381,0.64016,0.67317,-0.69486,-0.48961,-25.68,33.3,-14.04
5.5162,-11.836,0.42223,0.57482,-0.45662,-0.043371,-27.06,32.22,-14.7
1.5391,-9.3844,0.36775,0.33964,-0.43097,0.96944,-29.52,30.06,-15.96
-1.1169,-8.5127,0.28603,0.24374,-0.67104,1.4288,-30.78,29.16,-16.62
-2.9011,-7.9951,0.054481,0.15149,-0.85704,1.7342,-31.74,28.26,-17.1
-5.203,-6.9464,0.21793,0.026267,-0.84941,1.6695,-32.88,26.76,-18.42
-5.9657,-6.3198,0.7355,-0.082161,-0.55161,1.5919,-33.18,26.46,-19.32
-6.1973,-6.1155,1.2258,-0.2303,0.0094684,1.6109,-33.12,26.28,-20.22
-5.9249,-6.8102,2.3018,-0.39981,0.82222,1.7098,-32.04,27.18,-21.54
-4.9442,-7.2733,2.1384,-0.51099,1.6277,1.8137,-31.56,27.84,-21.78
-3.2689,-7.4776,1.7298,-0.57269,2.1893,1.8289,-31.14,28.56,-21.66
0.78998,-7.2869,0.81722,-0.66615,2.4196,1.5229,-30.96,29.4,-21.48
3.2553,-9.7385,1.866,-0.94928,2.4175,1.3732,-30.9,29.64,-21.36
6.3335,-15.609,2.6151,-1.0858,2.6466,1.4807,-30.72,29.88,-21.0
14.247,-18.946,2.4789,-1.1191,2.2413,2.7767,-30.06,30.9,-19.68
17.829,-17.271,1.9341,-0.87659,2.3372,2.6197,-29.4,31.62,-18.9
18.537,-18.932,1.076,-0.64049,2.4621,2.0788,-28.44,32.34,-18.42
19.191,-17.407,1.0624,-0.50183,1.2669,1.3705,-26.58,33.96,-17.28
17.979,-14.764,1.2531,-0.48289,0.87598,1.2004,-25.56,34.8,-16.74
16.903,-13.021,1.5119,-0.40378,0.51374,0.98135,-24.54,35.64,-16.2
14.002,-7.7364,0.47671,-0.2813,0.89003,0.5452,-22.14,37.14,-14.82
12.762,-5.3528,-0.054481,-0.27061,1.0226,0.15211,-20.88,37.92,-14.1
11.85,-3.1191,-0.095342,-0.23457,1.0763,-0.18234,-19.62,38.76,-13.38
10.447,1.5663,-0.99429,-0.077885,0.93065,-0.63622,-16.68,40.5,-11.88
9.7385,3.8954,-1.5663,0.096822,0.61148,-1.0302,-15.24,41.46,-11.4
8.7306,5.2575,-1.9613,0.30635,0.11698,-1.3628,-14.1,42.3,-11.22
7.5593,7.246,-1.5119,0.55558,-0.41936,-1.5996,-12.42,43.5,-11.58
7.246,6.2109,-1.3484,0.84116,-0.86712,-1.777,-11.88,43.74,-11.82
7.1643,5.2166,-1.2939,1.1411,-1.3213,-1.9575,-11.82,44.04,-12.12
7.1234,3.3778,-0.76274,1.4053,-2.0146,-2.3625,-12.3,43.98,-12.54
7.6819,2.6151,0.55843,1.7452,-2.335,-2.7489,-12.84,43.68,-12.72
9.8339,1.1169,1.9613,1.9508,-2.5693,-2.876,-13.56,43.44,-12.84
15.514,-6.456,2.656,1.9038,-2.7822,-2.4548,-15.96,42.18,-12.54
16.835,-9.3027,2.942,1.7404,-2.9239,-1.8692,-17.7,41.22,-12.54
16.889,-12.667,3.6094,1.5424,-2.518,-1.6102,-19.5,39.96,-12.9
18.047,-17.053,3.8818,1.2831,-1.8628,-1.4429,-23.22,37.38,-14.46
16.889,-17.271,3.732,0.89828,-1.7535,-0.70036,-24.9,36.06,-15.48
13.443,-16.44,3.2553,0.76602,-1.6906,-0.42516,-26.28,34.92,-16.14
5.7069,-13.443,2.4789,0.49572,-0.7532,0.41936,-28.8,32.76,-17.4
3.1191,-12.068,1.8932,0.41753,-0.40073,0.9783,-29.94,31.8,-18.0
-0.25879,-10.801,0.91256,0.3317,-0.51618,1.3014,-31.92,30.12,-18.96
-1.185,-10.256,0.76274,0.22388,-0.79443,1.4175,-32.58,29.46,-19.44
-3.5685,-7.7364,1.1169,0.12431,-0.98502,1.3699,-33.12,28.92,-19.92
-4.6582,-6.0747,1.4438,0.072693,-1.0727,1.2822,-33.48,28.32,-21.18
-5.2438,-5.4073,1.7843,0.05284,-0.99999,1.1894,-33.24,28.44,-22.08
-5.5571,-5.1894,1.7025,-0.090103,-0.47983,1.1371,-32.58,28.8,-22.68
-5.203,-5.6661,1.757,-0.24801,0.16432,1.1887,-31.26,29.64,-23.1
-4.413,-5.6661,1.4438,-0.38637,0.80665,1.2416,-30.6,30.06,-23.1
-1.7706,-5.8023,0.55843,-0.59956,1.4251,1.1924,-30.18,30.66,-23.22
0.10896,-7.8862,0.99429,-0.72143,1.5583,1.1521,-30.3,30.72,-23.28
1.471,-10.842,1.7025,-0.88423,2.0357,1.0977,-30.42,30.9,-22.92
9.8611,-19.218,2.2337,-0.99357,2.9184,2.2987,-30.12,31.2,-21.6
14.192,-18.619,1.5527,-0.99143,3.0461,2.4202,-29.46,31.5,-20.82
16.099,-19.205,0.84446,-0.67623,3.9166,2.1047,-27.9,32.46,-19.38
18.129,-19.532,0.054481,-0.66462,3.5687,1.4667,-26.88,33.0,-18.84
18.605,-18.033,0.24517,-0.62736,2.2471,1.036,-25.92,33.48,-18.36
17.121,-13.879,0.027241,-0.62186,1.5595,0.91416,-25.02,34.02,-17.76
13.144,-9.3027,-0.49033,-0.71044,0.6689,0.64019,-22.68,35.34,-16.8
11.741,-6.5105,-0.34051,-0.82222,0.93157,0.48258,-21.3,36.12,-16.08
10.542,-1.6072,-0.43585,-0.8042,1.1768,0.31154,-18.6,37.92,-14.52
10.46,-1.6072,-0.96704,-0.70158,1.124,0.053145,-16.98,38.94,-13.86
10.311,5.0123,-2.0567,-0.55497,0.9838,-0.068417,-15.24,40.02,-13.26
10.052,7.4367,-2.2474,-0.24893,0.097433,-0.50427,-11.94,41.82,-13.26
9.1801,9.0712,-2.2882,-0.031765,-0.42241,-0.76725,-10.68,42.6,-13.68
8.5672,9.3572,-2.152,0.1631,-0.63377,-1.0464,-9.78,43.2,-14.04
8.2131,6.6331,-1.8524,0.36591,-0.77274,-1.3405,-9.12,43.74,-14.7
8.5944,4.6582,-1.8524,0.57024,-1.2565,-1.8289,-9.06,43.86,-15.0
9.5615,1.3484,-0.10896,0.62033,-1.4865,-2.0229,-9.36,43.74,-15.36
9.5615,1.3484,-0.10896,0.65882,-1.9371,-2.4487,-10.14,43.44,-15.36
12.898,-2.152,1.58,0.5171,-2.2746,-2.4603,-10.14,43.44,-15.36
18.442,-18.006,3.8273,0.54123,-1.9114,-1.8711,-12.24,42.48,-14.94
17.284,-19.355,4.9033,0.65851,-1.3916,-1.8967,-13.68,41.7,-14.94
15.568,-17.339,2.9692,0.77763,-0.55955,-2.167,-16.86,40.14,-15.24
16.126,-19.246,2.3563,0.99571,-0.49847,-2.0626,-18.42,39.24,-15.66
13.838,-18.728,2.5198,0.96914,-1.0635,-1.5904,-19.92,38.52,-16.14
11.605,-17.448,2.6423,0.99388,-0.95814,-1.2743,-21.3,37.62,-16.56
6.0202,-13.307,1.9886,1.1197,-0.63835,-0.89339,-24.12,36.0,-17.58
2.1112,-9.3163,0.31327,1.2535,-0.70036,-0.5681,-26.28,34.32,-18.84
-0.44947,-7.3414,-0.89894,1.321,-0.9557,-0.19273,-27.3,33.54,-19.44
-2.1248,-6.0883,-1.4029,1.0941,-1.6243,0.28894,-28.68,32.22,-20.58
-4.2904,-4.1951,-1.5119,0.77091,-2.0116,0.3824,-29.34,31.2,-22.08
-6.0202,-2.3427,-0.92618,0.37507,-2.0681,0.50274,-28.98,30.66,-23.52
-7.0009,-1.9613,0.57205,0.040623,-1.7236,0.70983,-28.2,30.12,-24.24
-6.7693,-3.1191,1.2803,-0.2248,-1.018,0.99357,-27.9,30.0,-24.54
-5.8704,-4.6445,1.3893,-0.44013,-0.15088,1.2281,-27.78,29.58,-25.14
-4.7399,-5.0531,0.76274,-0.57635,0.57941,1.4337,-27.6,29.22,-25.68
-3.909,-5.0531,0.64016,-0.78588,1.201,1.5876,-27.84,28.92,-25.86
-0.99429,-8.5808,2.0158,-0.85155,1.7556,1.6686,-28.5,28.32,-26.04
2.833,-17.775,3.4323,-0.60659,2.8109,2.1933,-29.46,27.6,-25.68
11.373,-19.423,2.942,-0.74312,3.5397,2.4877,-30.36,27.06,-24.72
16.644,-19.518,1.7979,-0.60506,4.1682,2.3738,-30.42,27.18,-23.88
19.477,-19.532,-0.054481,-0.4383,4.6404,2.1719,-30.06,27.72,-22.02
19.532,-18.496,-0.36775,-0.65546,3.0678,1.5947,-29.34,28.14,-21.18
19.355,-16.235,-0.44947,-0.70952,1.3393,1.2202,-28.44,28.68,-20.1
15.282,-10.924,-0.89894,-0.84208,0.22785,0.8937,-26.34,30.12,-18.48
12.912,-7.927,-0.62654,-0.99143,0.068111,0.72724,-25.2,30.84,-17.64
11.632,-4.7263,0.081722,-1.0907,0.42944,0.624,-24.18,31.8,-16.74
10.774,0.44947,0.85808,-0.94928,0.91721,0.47678,-21.72,33.78,-15.12
10.61,1.9613,0.62654,-0.47831,0.86407,0.33445,-20.28,34.86,-14.4
10.515,4.7399,-0.50395,-0.28161,0.7138,0.20403,-18.96,35.94,-13.8
10.025,6.9191,-2.1248,0.090103,0.013744,-0.45082,-16.26,38.28,-12.96
9.221,6.9328,-2.4653,0.21838,-0.59468,-0.8433,-15.0,39.12,-12.9
7.9407,5.4754,-1.471,0.33537,-1.0837,-1.1011,-13.44,40.2,-13.32
8.0224,4.6173,-1.1032,0.67226,-1.5586,-1.5293,-13.14,40.62,-13.5
9.0167,1.4982,0.36775,0.95356,-1.7904,-1.868,-13.44,40.74,-13.56
10.842,-0.095342,1.1986,1.0684,-1.9294,-2.0656,-13.86,40.56,-13.32
13.893,-3.514,1.9205,1.2462,-2.2529,-2.5097,-14.34,40.38,-12.9
17.284,-6.7012,2.6151,1.1973,-2.332,-2.2944,-15.12,40.02,-12.54
19.45,-16.344,4.1814,1.1799,-2.3564,-2.1191,-17.34,38.22,-11.7
19.232,-18.224,4.7535,1.2089,-2.0568,-2.2324,-18.72,36.96,-11.58
18.088,-17.502,3.6911,1.2187,-1.857,-2.1212,-22.02,34.44,-12.54
16.249,-17.979,3.2008,1.1771,-1.7556,-1.9942,-23.46,33.18,-13.2
14.506,-17.761,2.9556,1.0061,-1.4426,-1.7791,-24.72,31.86,-13.86
8.4719,-14.397,2.5198,0.91935,-1.1274,-1.5327,-27.06,29.34,-15.18
5.6797,-12.408,2.152,0.90469,-1.1164,-1.1912,-27.84,28.26,-15.66
0.027241,-9.112,1.2667,0.91019,-1.4276,-0.57177,-29.22,25.86,-16.44
-2.5742,-7.464,0.85808,0.79535,-1.7016,-0.2193,-29.76,24.78,-16.62
-4.2087,-6.4152,0.88532,0.70952,-1.9203,-0.061392,-30.12,23.82,-16.92
-8.0224,-3.2961,1.1441,0.55803,-1.8882,0.028405,-30.54,22.2,-17.52
-9.1393,-2.6696,1.471,0.3427,-1.4621,0.23976,-30.36,21.84,-17.88
-9.398,-2.9556,1.866,0.098655,-0.74831,0.65057,-29.88,21.6,-18.24
-7.6546,-5.0123,2.2746,-0.1347,0.12126,1.0855,-28.32,21.78,-18.3
-6.7421,-5.3392,2.0567,-0.40348,1.2251,1.6222,-27.3,21.72,-18.06
-5.3937,-5.5299,1.6072,-0.47342,1.6722,1.8903,-26.46,21.72,-17.94
-2.2746,-9.0848,2.6696,-0.56841,2.1261,2.113,-25.32,21.48,-18.3
3.5958,-16.739,2.9148,-0.62339,2.9068,2.6896,-25.08,21.06,-18.48
10.529,-18.96,1.8796,-0.68111,3.565,3.0103,-25.5,20.34,-18.48
18.701,-19.409,0.31327,-0.52595,4.0467,2.9709,-25.98,20.22,-16.86
19.436,-19.518,0.34051,-0.65424,4.3744,2.4013,-25.5,20.64,-15.78
19.504,-19.532,0.35413,-0.77061,4.0018,2.0672,-24.72,21.18,-14.82
19.532,-14.397,0.28603,-1.0702,1.6591,1.3302,-22.98,22.68,-13.68
17.87,-11.918,0.19068,-1.1829,0.78374,1.0388,-22.02,23.46,-13.38
14.873,-9.616,0.054481,-1.2868,0.87201,0.82192,-21.18,24.24,-13.08
11.605,-4.3313,0.054481,-1.3784,0.66096,0.84116,-19.2,25.86,-12.18
10.542,-2.9965,-0.081722,-1.3622,1.3244,0.36682,-18.36,26.94,-11.52
9.8339,-1.1032,0.054481,-1.2999,1.5421,0.32987,-17.46,27.9,-10.8
8.9894,2.8603,-0.27241,-0.92974,1.3357,-0.010079,-15.36,30.06,-8.7
8.3765,4.7399,-0.6674,-0.57085,0.83139,-0.34667,-13.98,31.56,-7.62
8.0088,6.0883,-1.2939,-0.28008,0.24038,-0.61361,-10.5,34.44,-6.96
7.8589,5.884,-1.0624,0.016188,-0.32284,-0.91996,-9.18,35.34,-7.5
7.3958,4.5901,-1.0624,0.45693,-1.1994,-1.1686,-8.1,36.24,-9.0
7.5593,3.6775,-0.96704,0.7367,-1.5809,-1.3442,-8.16,36.48,-9.42
7.7091,2.9284,-0.6674,0.87781,-1.7119,-1.4985,-8.1,36.42,-9.78
9.1393,2.152,0.42223,1.2132,-2.1951,-2.1533,-8.34,36.42,-9.84
15.868,-5.9657,1.9341,1.2733,-2.4202,-2.1289,-9.12,36.0,-9.84
18.905,-11.21,2.3155,1.2675,-2.4624,-1.7364,-9.84,35.64,-9.72
18.769,-15.595,3.8954,1.2565,-2.3366,-2.1689,-11.7,34.2,-9.54
18.292,-16.617,3.7184,1.2575,-2.0409,-2.2202,-13.02,33.42,-9.6
18.428,-16.889,3.3642,1.2355,-2.029,-2.1686,-14.22,32.58,-9.9
15.037,-16.835,2.8467,1.0608,-1.8998,-2.0495,-16.74,30.72,-11.1
12.054,-15.282,2.7241,0.88759,-1.2511,-1.868,-18.06,30.0,-11.64
9.1393,-13.321,2.3291,0.88209,-0.70921,-1.6307,-19.14,29.22,-12.24
3.3915,-9.2346,0.47671,0.91202,-0.62278,-1.2672,-20.88,27.6,-13.68
1.6617,-8.2267,0.095342,0.81306,-1.1011,-0.53512,-21.66,26.82,-14.28
-1.7025,-7.0145,-0.35413,0.72449,-1.2474,-0.30391,-22.32,26.16,-14.76
-5.6661,-5.1349,0.095342,0.42211,-1.4658,0.18967,-23.28,24.9,-15.78
-7.927,-3.7728,1.0351,0.26206,-1.3735,0.44013,-23.52,24.36,-16.2
-8.9622,-3.5277,1.5527,0.13011,-0.93432,0.75869,-23.64,24.24,-16.86
-8.6762,-4.8352,1.975,-0.0027489,0.27397,1.3295,-23.4,24.24,-18.12
-7.3686,-5.7614,2.0839,-0.24557,1.0226,1.617,-22.8,24.42,-18.78
-6.3062,-6.2245,1.9341,-0.38637,1.4548,1.8014,-22.32,24.6,-19.38
-2.6151,-7.3822,1.2258,-0.55131,1.7214,1.8448,-21.54,24.72,-20.46
-0.12258,-9.1256,1.7979,-0.79535,2.0916,1.6698,-21.24,24.6,-21.0
2.9011,-14.887,2.5198,-0.8378,2.9068,1.8738,-21.24,24.48,-21.3
15.05,-19.395,2.152,-0.98991,3.339,2.6722,-21.72,24.3,-20.82
17.706,-18.796,1.7025,-0.76969,3.3427,2.6454,-21.66,24.54,-20.04
19.273,-19.355,0.84446,-0.53267,3.2266,2.2752,-21.36,24.96,-19.38
19.518,-19.477,-0.40861,-0.624,2.4389,1.6328,-19.8,26.1,-18.06
19.041,-15.84,-0.68102,-0.6747,1.2599,1.1695,-19.02,26.82,-17.58
16.985,-12.803,-0.19068,-0.70494,0.33781,0.88026,-18.06,27.48,-16.98
12.476,-7.1779,0.19068,-0.66248,0.25107,0.72968,-16.2,28.86,-15.9
11.155,-4.9578,-0.12258,-0.5962,0.82711,0.50305,-15.3,29.64,-15.42
10.651,-3.6503,-0.23155,-0.55222,1.0953,0.28161,-14.4,30.42,-14.64
10.379,-0.068102,-0.84446,-0.46914,1.2459,0.070555,-12.3,32.46,-12.9
10.161,1.8932,-1.4165,-0.39859,1.1939,-0.28955,-11.28,33.42,-12.18
9.4934,3.514,-1.757,-0.24984,0.7984,-0.71716,-10.08,34.56,-11.64
7.9951,4.9306,-1.7298,-0.1014,0.23915,-1.1182,-7.5,36.66,-11.46
7.75,5.0123,-1.6344,0.19426,-0.54703,-1.5687,-6.6,37.38,-12.06
7.641,4.6445,-1.5663,0.31521,-0.75198,-1.7003,-6.18,37.98,-12.6
6.8374,3.1872,-1.9205,0.57818,-1.1851,-2.0113,-6.54,38.58,-13.74
7.1371,2.9011,-1.362,0.79412,-1.4044,-2.3943,-6.9,38.64,-14.22
12.694,-0.19068,0.72188,1.0153,-1.5702,-2.9709,-8.4,38.28,-15.12
15.2,-2.8875,0.99429,1.0104,-2.1814,-2.8885,-9.6,37.86,-15.24
17.57,-6.8238,1.4165,0.9221,-2.704,-2.2669,-11.1,37.2,-15.24
15.568,-10.787,2.6287,0.97769,-2.671,-2.2205,-12.84,36.3,-15.18
14.887,-11.101,2.3155,1.1811,-1.7633,-2.0036,-16.92,33.48,-15.96
15.214,-11.032,1.5119,1.2578,-1.5656,-1.4872,-18.84,32.1,-16.68
14.887,-11.673,1.3348,1.2196,-1.5779,-1.0165,-20.58,30.6,-17.4
10.869,-13.607,1.0351,1.0843,-1.1576,-0.54275,-23.82,27.78,-18.78
7.2733,-12.83,1.0215,0.90347,-0.57482,0.49511,-25.38,26.58,-19.26
2.3018,-9.8475,1.2122,0.84758,-0.65088,0.81917,-27.9,24.24,-20.16
-0.64016,-8.5263,1.0896,0.69455,-1.0003,1.4798,-29.1,23.22,-20.4
-2.3291,-8.4446,1.1169,0.56444,-1.0495,1.7016,-30.18,22.32,-20.76
-3.8818,-8.1313,1.2258,0.40867,-0.97005,1.7196,-30.96,21.54,-21.06
-5.5571,-6.1292,1.6072,0.30574,-0.77794,1.5996,-31.86,20.52,-21.9
-6.0611,-5.2847,1.8932,0.20311,-0.17593,1.5937,-31.92,20.28,-22.68
-5.993,-5.6661,2.2201,-0.0562,0.58032,1.6918,-31.08,20.76,-23.82
-5.2575,-6.1292,2.2337,-0.23885,1.4459,1.7324,-30.54,21.12,-24.06
-4.4811,-6.4288,2.1112,-0.42883,2.1017,1.7046,-30.24,21.54,-24.24
-1.1441,-8.2267,2.547,-0.70097,2.5507,1.5901,-30.12,22.26,-24.3
0.84446,-12.0,3.5277,-0.78557,3.1188,1.602,-30.36,22.68,-24.3
11.032,-18.224,4.1542,-0.80451,3.7269,1.9636,-30.48,23.22,-23.7
16.113,-18.701,3.6366,-0.78007,4.0186,1.6741,-30.18,23.76,-23.04
18.387,-19.327,3.2961,-0.56963,3.8784,1.5327,-29.58,24.42,-22.68
19.463,-19.532,1.8796,-0.49052,3.1893,1.1426,-28.02,25.86,-21.66
18.782,-18.156,1.2531,-0.4328,2.4312,0.61514,-27.06,26.52,-21.12
17.529,-15.091,0.89894,-0.4386,1.824,0.29352,-25.92,27.36,-20.64
14.261,-9.507,0.42223,-0.4554,1.5476,0.050091,-23.76,28.98,-19.74
13.348,-7.8589,-0.027241,-0.61697,1.5916,-0.073915,-22.74,29.88,-19.44
11.931,-5.8159,-0.7355,-0.66829,1.5055,-0.13989,-21.78,30.84,-19.08
10.583,-1.9068,-1.3484,-0.7083,1.1368,-0.40287,-19.2,32.76,-17.88
9.6704,0.92618,-1.7706,-0.49663,0.83536,-0.58093,-17.88,33.78,-17.4
7.6002,5.9385,-2.9011,-0.20739,0.48503,-0.8378,-15.12,35.64,-17.22
7.0826,6.8374,-2.9965,0.054978,0.12889,-1.1182,-13.98,36.24,-17.46
6.6059,7.3141,-2.8603,0.29322,-0.3207,-1.2947,-13.2,36.72,-18.06
6.8919,6.0202,-1.3484,0.55344,-0.89095,-1.4068,-12.66,37.08,-18.96
7.3958,5.203,-0.46309,0.85674,-1.5299,-1.4578,-12.72,37.2,-19.56
7.8998,4.5764,0.068102,1.328,-2.3039,-1.6967,-13.08,37.2,-20.1
11.618,1.8796,2.6968,1.6631,-2.5,-2.0409,-14.64,36.78,-20.7
14.642,-1.471,3.3097,1.854,-2.5644,-2.1817,-15.6,36.36,-20.76
17.448,-6.7421,3.9635,1.8335,-2.6652,-2.0986,-16.62,35.82,-20.58
17.284,-10.951,4.7807,1.7568,-2.6811,-2.0177,-19.8,33.72,-20.28
17.366,-11.891,4.4539,1.6273,-2.6087,-2.0776,-21.48,32.4,-20.28
17.298,-12.354,4.1542,1.2147,-2.6661,-1.6054,-23.22,30.9,-20.64
15.405,-13.77,4.0861,0.74434,-2.6676,-1.1829,-26.22,28.14,-21.24
12.367,-14.724,3.8682,0.32223,-1.9658,-0.80817,-27.84,27.06,-21.36
8.2812,-13.961,2.942,0.097128,-0.85857,0.071777,-30.9,24.78,-21.3
1.5391,-10.283,2.3836,0.10446,-0.65301,0.31643,-32.1,23.76,-21.24
-0.68102,-9.2346,2.1656,0.098044,-0.41081,0.75869,-33.18,22.8,-20.94
-1.7706,-8.7306,1.9613,0.0067195,-0.49388,1.1756,-34.14,21.9,-20.82
-4.3177,-6.8647,1.3076,-0.063835,-0.67104,1.1875,-35.28,20.52,-20.82
-5.3528,-5.4481,1.3348,-0.11484,-0.72265,1.0424,-35.58,20.22,-21.0
-6.3471,-4.7671,1.7025,-0.27489,-0.38454,0.9954,-35.64,20.28,-21.36
-6.1836,-5.489,1.866,-0.40928,0.12065,1.15,-35.04,20.7,-21.48
-5.8023,-5.9249,1.7979,-0.53695,0.76328,1.3152,-34.68,21.36,-21.42
-3.8682,-6.3743,1.4438,-0.61545,1.3751,1.419,-33.84,22.74,-21.24
-2.5061,-6.4152,0.99429,-0.70463,1.8048,1.4371,-33.66,23.34,-21.12
-0.44947,-7.355,1.58,-0.94959,2.1869,1.252,-33.54,23.7,-21.24
6.8919,-18.047,3.8137,-0.98533,3.2678,1.73,-33.36,24.6,-21.06
14.274,-19.355,3.8818,-1.1961,3.4083,2.2116,-33.24,25.08,-20.7
18.769,-18.687,3.4868,-1.1249,3.4526,2.2416,-32.94,25.68,-20.28
19.504,-19.436,1.8387,-0.57635,4.0085,1.7727,-31.68,27.36,-19.08
19.532,-18.742,1.0079,-0.63499,3.4868,1.106,-30.78,28.44,-18.48
19.286,-15.391,0.99429,-0.69242,2.4169,0.77213,-29.76,29.28,-18.06
15.418,-10.719,1.6617,-0.70708,1.262,0.53817,-27.84,31.02,-17.58
13.035,-8.2267,1.6208,-0.68936,0.95661,0.45082,-26.7,31.86,-17.34
11.605,-5.9385,0.83084,-0.77152,1.1976,0.24404,-25.5,32.64,-17.22
10.379,-2.3018,-0.27241,-0.84788,1.2565,-0.014355,-23.16,34.5,-16.44
10.311,-0.14982,-0.17706,-0.86407,1.1228,-0.23702,-21.72,35.58,-16.2
10.134,2.2882,-0.35413,-0.70463,0.91691,-0.53176,-20.22,36.72,-15.84
9.0031,7.0826,-1.185,-0.41661,0.27031,-1.1277,-17.28,38.7,-15.78
8.7579,7.9815,-1.4165,0.057727,-0.35216,-1.4792,-15.96,39.54,-16.02
8.3357,7.927,-1.2395,0.39492,-1.0229,-1.7003,-15.0,40.26,-16.5
8.4719,6.0338,-0.6674,0.76816,-1.6063,-1.9685,-14.04,40.74,-17.7
8.3493,4.6854,0.040861,1.1524,-2.0033,-2.2727,-14.22,40.68,-18.12
8.54,3.5822,1.1986,1.5149,-2.2324,-2.7193,-14.58,40.56,-18.36
12.449,0.054481,2.8739,1.7397,-2.5094,-3.1398,-16.02,39.6,-18.42
15.473,-3.9635,2.9011,1.6264,-2.9746,-2.7935,-17.34,38.82,-18.3
16.903,-7.0009,3.0646,1.5299,-3.1108,-2.5519,-18.9,37.8,-18.06
15.663,-10.774,3.9908,1.4358,-2.6997,-2.182,-22.32,34.68,-18.54
15.064,-12.054,3.4459,1.3525,-1.9774,-1.8411,-24.12,33.0,-18.96
15.527,-12.177,3.1191,1.2156,-1.7129,-1.2782,-25.68,31.44,-19.56
13.797,-14.179,2.7377,0.98349,-1.5162,-0.7196,-28.5,28.56,-20.7
10.433,-14.043,2.7377,0.64568,-0.62339,0.35644,-29.88,27.24,-21.12
6.8647,-12.667,2.5334,0.59223,-0.29719,0.71227,-31.2,25.8,-21.66
1.6344,-9.8339,1.6072,0.59712,0.27703,1.5559,-33.36,23.46,-22.44
1.6344,-9.2482,0.89894,0.57421,0.28436,1.9554,-34.14,22.38,-22.98
-2.0975,-8.0088,-0.054481,0.47128,-0.0051924,2.1386,-34.98,20.94,-24.12
-2.656,-7.3005,-0.14982,0.3766,-0.34941,2.0281,-34.92,20.58,-25.02
-3.3506,-6.0611,0.55843,0.16157,-0.55375,1.6115,-33.9,20.7,-26.94
-4.7944,-5.5435,1.2258,0.059559,-0.50641,1.5311,-33.06,21.06,-27.84
-5.0531,-6.0202,1.757,-0.1912,-0.19334,1.5174,-32.28,21.72,-28.2
-4.9169,-6.3743,2.0294,-0.50641,0.87842,1.5666,-31.68,22.38,-28.62
-2.6968,-6.96,2.0567,-0.59498,1.6222,1.5586,-30.96,23.22,-29.46
-0.78998,-6.9191,1.8796,-0.78435,2.0238,1.3549,-30.78,23.4,-29.94
2.6696,-11.795,3.4459,-1.0873,2.3418,1.1906,-30.72,23.52,-30.3
6.8102,-17.271,4.2495,-1.0605,3.0736,1.8259,-30.66,23.82,-30.0
13.103,-18.565,3.9908,-1.1029,3.1185,1.9264,-30.36,24.24,-29.4
19.286,-17.87,2.5198,-0.70097,3.5274,1.824,-28.98,25.62,-28.02
19.504,-19.327,1.5119,-0.55589,3.8032,1.2996,-28.02,26.4,-27.42
19.532,-18.687,1.1577,-0.6014,2.7648,0.56108,-26.94,27.12,-26.76
18.742,-12.354,1.2803,-0.73823,0.86376,0.10476,-24.84,28.68,-25.56
16.685,-9.4117,1.58,-0.7364,0.39034,-0.03146,-23.7,29.76,-24.84
14.383,-6.1155,1.6889,-0.7086,0.52076,-0.081245,-22.74,30.78,-24.18
12.054,-1.7298,0.5993,-0.57727,1.1695,-0.38423,-20.28,32.76,-22.56
11.414,0.69464,-0.28603,-0.4664,1.1005,-0.58124,-19.08,33.78,-21.66
10.706,2.5061,-1.0896,-0.35064,0.62827,-0.77152,-17.7,35.04,-20.82
8.9077,5.1621,-2.2474,-0.17929,-0.36927,-1.2495,-14.82,37.8,-20.1
7.641,5.9793,-2.4244,0.12584,-0.94195,-1.5574,-13.62,38.82,-20.1
6.6876,6.3198,-2.3291,0.35583,-1.3305,-1.8796,-12.6,39.48,-20.34
5.9657,5.2575,-1.3076,0.61881,-1.5632,-2.1203,-12.24,40.26,-20.88
6.3471,4.1406,-0.51757,0.95784,-1.7248,-2.3094,-12.48,40.44,-20.82
6.7285,3.0237,0.027241,1.3164,-1.8228,-2.5464,-13.32,40.62,-20.82
9.9565,1.4982,1.7025,1.6163,-1.8656,-2.8362,-15.42,40.2,-20.7
12.027,-0.62654,2.0158,1.7245,-2.1502,-2.6759,-16.8,39.42,-20.64
14.996,-4.8216,2.2474,1.4826,-2.4948,-2.0742,-18.48,38.34,-20.4
15.704,-9.0167,3.6094,1.3528,-2.4948,-1.6008,-21.96,35.28,-21.0
15.759,-12.381,3.8954,1.3069,-1.7819,-1.3277,-23.58,33.66,-21.78
15.2,-12.776,3.2416,1.2257,-1.358,-0.89492,-25.14,31.98,-22.5
14.397,-12.667,2.942,1.0782,-1.4612,0.082467,-28.02,28.44,-23.46
8.2267,-12.708,2.4789,0.71868,-0.98166,0.83261,-29.34,26.88,-24.06
6.4969,-12.708,2.6423,0.64049,-0.69578,1.2043,-30.66,25.62,-24.54
2.2474,-11.959,2.1793,0.58154,-0.22113,1.7889,-32.7,23.04,-25.38
0.57205,-11.291,1.8796,0.54,0.0076358,2.317,-33.6,21.78,-25.68
-0.54481,-10.202,1.6344,0.52443,-0.11576,2.3634,-34.02,20.64,-26.1
-1.8932,-6.9464,0.62654,0.55222,-0.28924,2.1075,-34.26,19.08,-27.0
-1.9477,-6.0202,0.47671,0.49297,-0.54825,1.4331,-34.02,18.66,-27.3
-2.4517,-5.1213,0.6674,0.3036,-0.57544,1.0715,-33.48,18.72,-27.9
-3.1872,-5.8159,1.4029,0.01069,-0.3766,0.88087,-32.22,19.56,-28.02
-3.0918,-6.674,1.8115,-0.27886,0.14722,0.79901,-31.56,20.1,-27.84
-2.4653,-6.7421,1.7298,-0.47464,0.91324,0.77183,-31.44,20.52,-27.6
0.70826,-8.0224,1.866,-0.72388,1.5519,0.63591,-31.32,21.06,-27.42
2.9965,-12.858,3.0237,-1.0602,2.3925,0.43799,-31.44,21.24,-26.88
5.1485,-17.025,3.5958,-0.97158,3.0885,1.3088,-31.5,21.36,-26.28
11.863,-17.434,2.8739,-0.90561,3.0946,1.4203,-31.32,21.6,-25.5
16.876,-15.854,0.6674,-0.5733,3.416,1.1374,-30.66,22.86,-23.64
18.755,-18.932,0.8036,-0.51679,3.5708,0.71227,-30.0,23.64,-22.68
19.518,-16.018,1.2531,-0.6579,2.2092,0.2419,-28.68,25.02,-20.94
19.518,-16.018,1.2531,-0.70921,0.821,0.092546,-28.68,25.02,-20.94
17.992,-11.727,1.6753,-0.69303,0.47403,0.10507,-28.02,25.68,-20.1
13.348,-5.1485,0.96704,-0.59498,1.0049,-0.0054978,-26.64,27.36,-18.72
12.149,-2.8194,-0.19068,-0.47434,1.7165,-0.40745,-26.04,28.2,-17.76
11.536,-0.9398,-1.1577,-0.4496,1.5403,-0.67776,-25.44,29.22,-16.92
10.202,2.9148,-2.656,-0.34056,0.9053,-0.83078,-23.4,31.32,-15.42
8.8668,5.1757,-3.337,-0.20311,-0.04612,-1.1081,-22.38,32.46,-14.64
6.0474,6.5241,-3.1599,0.029627,-1.0528,-1.2507,-20.22,34.68,-14.22
5.1076,5.9657,-2.6015,0.26053,-1.2306,-1.4004,-19.38,35.4,-14.52
4.699,5.7342,-2.2065,0.57421,-1.2807,-1.503,-19.02,36.0,-14.76
5.1621,4.7807,-1.1169,0.9053,-1.3329,-1.5766,-19.26,36.0,-15.6
5.9385,3.6775,-0.55843,1.2208,-1.544,-1.6982,-19.86,36.0,-15.78
5.9385,3.6775,-0.55843,1.2208,-1.544,-1.6982,-19.86,36.0,-15.78
11.768,-0.095342,2.4789,1.4581,-2.5348,-2.2101,-22.56,34.32,-16.08
13.838,-4.4266,2.8603,1.1851,-2.6964,-1.5168,-23.82,33.06,-16.2
16.154,-7.8181,4.0316,0.86773,-2.8396,-0.86743,-25.2,31.74,-16.5
16.521,-9.5206,5.0531,0.85002,-2.1044,-0.80817,-26.46,30.48,-16.98
14.247,-12.885,4.6037,0.77366,-1.2642,-0.57635,-28.68,28.14,-17.94
14.152,-13.579,3.732,0.65088,-0.79779,-0.13714,-29.64,27.0,-18.36
10.842,-14.833,2.5061,0.42516,-0.40317,0.55344,-31.14,25.32,-19.2
8.3765,-14.696,2.1112,0.14386,0.097128,1.1506,-31.62,24.66,-19.38
6.6331,-14.192,1.9205,0.030238,0.54917,1.5656,-31.68,23.82,-19.92
2.547,-12.027,1.8387,0.12462,0.62064,1.9401,-31.74,22.8,-20.82
1.2395,-10.665,1.5391,0.27214,0.48503,1.8781,-31.2,22.32,-21.42
-0.57205,-7.8045,-0.054481,0.40287,0.33262,1.6735,-30.72,22.02,-22.14
-1.2531,-6.7012,-0.77636,0.33537,-0.08827,1.2043,-28.56,22.68,-23.82
-2.0839,-6.2517,-0.83084,0.09163,-0.28619,0.8772,-27.12,23.22,-24.66
-2.6968,-6.3471,-0.35413,-0.22449,-0.20617,0.59834,-25.68,23.82,-25.44
-2.6151,-6.4152,0.83084,-0.49602,0.18082,0.34697,-23.16,24.96,-26.64
-1.8387,-6.0338,0.91256,-0.67256,0.73854,0.14172,-22.08,25.14,-27.42
-0.39499,-6.1155,0.8036,-0.80115,1.2098,-0.10751,-21.24,25.2,-28.38
3.0101,-9.8884,2.2201,-1.0082,1.5033,-0.42364,-20.52,24.3,-29.58
5.8704,-13.729,2.9556,-1.1836,1.8323,-0.39859,-20.46,23.58,-29.82
8.7987,-14.519,2.8739,-1.2052,2.1484,0.23213,-20.58,23.1,-29.4
15.827,-12.013,1.7706,-1.2104,2.1628,1.0559,-20.4,22.5,-27.84
16.957,-14.601,1.5527,-1.0324,2.8384,1.1405,-20.34,22.5,-26.82
17.802,-15.609,1.1169,-1.054,2.8222,0.81734,-19.98,22.62,-25.68
18.66,-11.482,1.076,-1.0018,1.445,0.35858,-19.62,22.8,-23.46
16.658,-9.507,1.1169,-1.018,1.0736,0.24282,-19.44,23.04,-22.26
14.506,-7.0962,1.3893,-1.014,0.75533,-0.007025,-18.96,23.4,-21.18
12.299,-3.1872,0.91256,-0.99876,0.93829,-0.17623,-18.0,24.06,-18.66
11.673,-1.3212,0.70826,-0.94165,1.0669,-0.45601,-17.58,24.66,-17.28
11.319,-1.3212,0.50395,-0.85582,1.088,-0.81489,-16.92,25.32,-16.02
9.8611,3.3778,-0.19068,-0.72357,0.69486,-1.3381,-14.94,27.24,-13.92
9.0167,5.1757,-0.61292,-0.40348,0.2135,-1.6176,-13.92,28.38,-13.5
8.036,7.069,-1.0488,-0.052229,-0.20159,-1.8482,-12.18,29.94,-13.92
7.1915,7.8045,-1.3893,0.40989,-0.64721,-2.0534,-11.64,30.42,-14.4
6.7966,7.2052,-1.2939,0.92363,-1.1081,-2.2852,-11.34,30.54,-15.06
6.1155,4.6037,-0.61292,1.3854,-1.5256,-2.6554,-11.7,30.3,-16.02
6.9872,3.5413,0.64016,1.8094,-2.0369,-3.1573,-12.18,30.06,-16.38
12.19,-1.076,1.7843,1.8754,-2.2691,-2.9624,-13.86,28.38,-17.04
14.301,-3.7184,2.0703,1.7743,-2.4658,-2.6942,-14.88,27.18,-17.64
14.124,-5.4754,3.3506,1.4704,-2.8906,-1.9074,-15.96,25.86,-18.24
14.233,-6.2654,3.9363,1.3335,-2.1228,-1.2327,-16.68,24.6,-18.96
16.099,-8.9077,3.6503,1.2083,-1.4557,-0.89034,-18.6,22.32,-20.22
14.587,-9.1665,3.2689,1.0345,-1.2956,0.26237,-19.38,21.18,-20.52
10.161,-9.5751,2.8194,0.79474,-0.748,0.95753,-20.94,19.14,-21.24
7.5457,-9.8066,2.547,0.68081,-0.041844,1.5583,-21.48,18.12,-21.66
5.5299,-9.6432,1.9886,0.62369,0.3769,2.0473,-22.02,17.16,-22.14
2.0839,-8.6353,1.4438,0.56597,0.39401,2.3714,-22.8,15.66,-23.1
0.78998,-8.6217,1.185,0.46517,0.1631,2.5018,-22.8,14.94,-23.64
-0.21793,-8.4719,1.0896,0.30788,-0.18845,2.1909,-22.08,14.4,-24.66
-1.3076,-7.0962,0.77636,0.21838,-0.2868,1.8466,-21.6,14.58,-25.14
-1.7979,-6.4152,0.69464,0.12401,-0.32926,1.547,-21.0,15.0,-25.38
-2.0158,-6.2926,0.89894,0.071471,-0.29413,1.4239,-20.4,15.42,-25.56
-2.5742,-6.5105,0.96704,-0.091019,0.10629,1.2043,-19.32,16.02,-25.92
-2.0839,-6.5105,0.44947,-0.18082,0.56688,1.1255,-18.9,16.26,-26.16
-0.91256,-6.456,0.19068,-0.43799,1.1655,0.83475,-18.24,16.62,-27.3
2.3291,-10.637,1.2122,-0.67776,1.4539,0.74831,-18.06,16.5,-27.48
5.1076,-16.372,2.3427,-0.70219,1.8338,1.6264,-18.12,16.26,-27.54
9.5479,-18.51,2.5742,-0.80573,1.7208,2.3195,-18.12,16.02,-27.24
14.329,-16.29,1.2939,-0.64691,1.8598,2.4297,-17.7,16.02,-25.68
14.873,-19.109,0.42223,-0.39462,2.8198,2.3702,-17.28,16.38,-24.72
16.045,-19.477,0.51757,-0.55955,2.9706,2.0085,-16.8,16.74,-23.76
17.148,-15.255,1.1305,-0.54795,2.1649,1.6991,-15.3,17.22,-21.66
15.418,-12.612,0.83084,-0.48625,0.88667,1.5207,-14.34,17.64,-20.64
14.179,-11.128,0.39499,-0.51832,0.72876,1.4032,-13.38,18.06,-19.74
11.822,-6.3198,-0.095342,-0.6918,0.93371,0.89553,-11.46,19.14,-17.82
11.632,-3.9908,0.38137,-0.72724,1.091,0.56474,-10.5,19.8,-17.1
11.768,-1.866,0.027241,-0.59895,1.0855,0.22663,-9.3,20.52,-16.08
10.801,2.3427,-0.64016,-0.24648,0.9444,-0.41692,-7.02,22.38,-14.46
9.6977,4.2223,-1.3484,-0.10721,0.78863,-0.67409,-5.64,23.64,-14.04
9.2891,5.7069,-2.0158,0.13653,0.3769,-1.1347,-4.2,24.78,-14.04
9.2755,6.9872,-1.9341,0.49114,-0.44013,-1.6179,-2.04,26.4,-14.82
9.6432,6.1564,-1.3893,0.75167,-1.1484,-1.857,-1.38,27.0,-15.48
9.5751,4.9987,-0.69464,1.0244,-1.8021,-2.1945,-1.08,27.48,-16.2
10.447,3.0646,2.3427,1.2828,-2.4606,-2.8756,-1.8,28.38,-17.16
12.926,0.36775,3.0782,1.5183,-2.6264,-3.0528,-2.58,28.62,-17.4
15.704,-4.1406,3.5004,1.4053,-2.6979,-2.6347,-3.78,28.8,-17.4
17.38,-11.005,4.5492,1.3295,-2.7941,-2.3408,-6.72,28.44,-17.34
16.521,-13.103,4.7944,1.2831,-2.4871,-2.3472,-8.58,27.96,-17.34
15.977,-13.675,4.1542,1.1044,-2.182,-2.0375,-10.56,27.42,-17.76
14.724,-13.961,4.127,0.79596,-2.2969,-1.1854,-14.1,26.58,-18.78
13.593,-15.064,4.4811,0.43463,-1.7034,-0.63652,-15.84,26.1,-19.32
8.4446,-16.331,4.3994,0.2529,-0.72418,0.095295,-17.58,25.8,-19.68
2.152,-12.463,3.0373,0.1912,-0.28161,0.63133,-20.94,25.26,-20.16
-1.6889,-9.2482,1.8115,0.17685,-0.28986,0.98746,-22.56,25.08,-20.28
-3.7184,-8.3765,0.85808,0.11912,-0.39767,1.3076,-23.88,24.9,-20.46
-5.8295,-7.2596,0.46309,0.0027489,-0.45662,1.3451,-25.86,24.66,-21.12
-6.6331,-6.0883,0.7355,-0.13439,-0.52076,1.2239,-26.52,24.66,-21.6
-6.9872,-5.4209,1.1169,-0.17257,-0.49755,1.2856,-27.06,24.66,-22.26
-6.3471,-6.7693,1.866,-0.27825,0.047647,1.6799,-27.36,25.38,-23.4
-5.5162,-7.6002,1.866,-0.34331,0.72815,1.8353,-26.94,26.04,-23.94
-3.9499,-7.5048,1.4165,-0.36866,1.2669,1.9499,-26.58,27.06,-24.48
-2.4925,-6.9328,1.1713,-0.4047,1.427,1.938,-26.58,27.54,-24.66
-0.51757,-7.6274,1.4982,-0.68814,1.7462,1.4276,-26.7,27.9,-24.78
6.5378,-17.543,3.1599,-0.79168,2.0067,1.2211,-27.06,28.44,-24.06
12.667,-19.286,3.2144,-0.95142,2.8433,2.295,-26.88,28.8,-23.4
17.175,-18.742,3.1872,-0.83719,2.7645,2.7648,-26.4,29.28,-22.86
18.428,-19.382,1.3076,-0.48014,3.237,2.2287,-24.72,30.66,-21.6
19.259,-19.491,0.89894,-0.44685,3.2843,1.6338,-23.64,31.26,-21.06
19.477,-14.669,0.81722,-0.41203,1.6075,0.9163,-21.36,32.64,-20.34
17.352,-11.605,0.32689,-0.37324,1.0831,0.79932,-20.28,33.3,-19.92
14.969,-8.7306,0.054481,-0.41661,0.70585,0.5397,-19.14,33.9,-19.38
13.484,-5.8704,0.10896,-0.4664,1.0476,0.029016,-18.06,34.62,-18.72
12.163,-1.0624,-0.1362,-0.38026,1.131,-0.28527,-15.6,36.18,-17.34
11.441,1.0488,-0.57205,-0.23213,1.0522,-0.6182,-14.22,36.9,-16.68
10.637,3.1191,-1.2258,-0.012828,0.64263,-1.3766,-12.84,37.8,-15.96
9.6023,5.0804,-1.7298,0.092852,0.23305,-1.9154,-11.16,38.76,-15.78
8.4719,6.3062,-1.6753,0.16035,0.029016,-2.1454,-10.08,39.42,-15.72
7.7091,5.9385,-1.1032,0.50946,-0.46853,-2.638,-9.24,39.9,-16.02
7.3414,5.1621,-0.55843,0.85216,-0.81825,-2.9661,-9.12,40.32,-16.74
7.069,4.5083,-0.095342,1.1851,-1.0828,-3.3289,-9.6,40.26,-16.92
8.7987,2.9284,1.6344,1.5864,-1.4395,-3.8017,-11.4,39.84,-16.98
10.896,1.5391,2.0703,1.8247,-1.8005,-3.5736,-12.78,39.42,-16.8
15.159,-2.4517,2.4108,1.8494,-2.0317,-3.3243,-14.28,38.64,-16.74
15.895,-8.322,3.3642,1.8341,-2.3735,-2.6392,-18.06,35.88,-17.04
15.064,-11.482,3.7728,1.7987,-2.0852,-2.2028,-19.86,34.08,-17.58
15.5,-11.169,3.1191,1.7248,-1.9807,-1.5125,-23.04,30.9,-18.84
15.01,-11.564,3.051,1.3152,-1.9792,-0.38423,-24.72,29.28,-19.62
12.054,-12.558,2.942,1.139,-1.8589,0.1182,-27.84,26.4,-20.52
5.094,-13.035,2.8194,0.74831,-1.2052,1.4426,-29.22,25.02,-20.76
2.6423,-12.313,2.6423,0.53878,-0.78069,2.0504,-30.42,23.82,-20.88
0.74912,-11.7,2.5606,0.34606,-0.52962,2.4291,-31.32,22.68,-21.0
-1.8932,-10.597,2.4517,0.22816,-0.36682,2.6191,-32.76,20.88,-21.42
-3.3915,-9.0984,2.1248,0.18295,-0.20495,2.5198,-33.06,20.28,-21.6
-3.8546,-6.4969,1.8932,0.17898,-0.062919,2.3512,-32.88,19.62,-22.68
-3.4459,-6.279,2.1112,0.029627,0.020769,1.9325,-32.28,20.04,-23.16
-3.1191,-6.4152,2.152,-0.13378,0.012523,1.7843,-31.5,20.82,-23.28
-2.8467,-7.0826,1.7298,-0.28344,0.25443,1.6997,-30.48,22.5,-23.04
-2.2201,-7.3141,1.4165,-0.40897,0.77366,1.679,-30.12,23.22,-23.04
0.57205,-9.1937,1.9341,-0.57024,1.3549,1.5577,-30.0,23.82,-22.86
2.4653,-13.048,3.051,-0.76541,2.4047,1.3757,-29.88,24.84,-22.5
7.7908,-17.611,3.7728,-0.66859,2.8359,1.6979,-29.34,25.56,-22.02
11.768,-17.829,3.1872,-0.55803,3.364,2.1151,-28.62,26.34,-21.78
19.191,-19.314,1.1169,-0.41478,3.6154,1.8744,-26.58,28.08,-21.0
19.491,-19.504,0.92618,-0.52198,3.2003,1.3048,-25.44,28.86,-20.7
19.532,-17.175,1.58,-0.59682,2.1096,0.624,-24.12,29.58,-20.4
17.679,-13.062,1.4165,-0.56658,1.2449,0.12675,-21.48,31.44,-19.86
15.323,-9.7794,1.3893,-0.45723,1.5324,-0.10507,-20.16,32.1,-19.74
13.961,-7.5048,0.91256,-0.43707,1.8231,-0.34086,-18.96,32.94,-19.44
12.503,-1.7025,-0.64016,-0.46578,1.6283,-0.58643,-16.32,34.5,-18.9
11.986,0.12258,-1.1032,-0.48533,1.1151,-0.74739,-15.0,35.28,-18.6
10.665,2.8603,-1.8387,-0.41478,0.51404,-1.0318,-11.94,36.96,-18.48
8.1586,5.8704,-2.3018,-0.16493,-0.20647,-1.6365,-10.5,37.8,-18.72
6.96,7.4912,-2.2746,0.026878,-0.64507,-2.0357,-9.66,38.34,-19.32
6.6331,7.3958,-2.0703,0.2642,-1.0119,-2.3793,-8.94,38.64,-19.98
6.5378,5.4618,-0.99429,0.55497,-1.3735,-2.5772,-8.88,38.76,-21.3
6.4152,4.5901,-0.43585,0.89034,-1.7006,-2.7364,-9.18,38.64,-21.84
6.2517,4.018,0.29965,1.2498,-1.9025,-2.8989,-9.96,38.46,-22.44
8.431,4.0725,2.3155,1.5834,-2.0485,-3.142,-12.36,37.02,-22.92
10.351,1.5527,2.3836,1.5455,-2.0507,-2.6145,-13.92,36.12,-22.98
12.517,-1.4982,1.8387,1.419,-2.1625,-2.0898,-15.72,34.68,-23.16
17.094,-6.7012,4.1542,1.1719,-2.452,-1.1041,-19.44,31.56,-24.06
15.963,-10.678,5.1076,1.3399,-2.0073,-0.51191,-21.36,30.12,-24.78
15.078,-13.076,4.3858,1.5094,-1.7236,-0.086743,-22.98,28.74,-25.5
13.77,-16.93,2.5606,1.5073,-1.4838,0.44563,-26.04,26.22,-26.52
11.959,-19.0,2.4789,0.85857,-1.5244,1.237,-27.48,25.02,-26.94
8.6081,-19.0,2.9011,0.54978,-1.5278,1.6212,-28.92,24.0,-27.0
5.0668,-17.407,3.228,0.45082,-1.1387,1.8405,-30.12,22.98,-27.24
-0.095342,-13.198,2.7377,0.53054,-0.56505,1.8146,-32.28,21.36,-27.54
-2.2746,-10.515,2.2201,0.54581,-0.24465,1.6386,-33.06,20.7,-27.6
-3.9771,-6.565,1.3893,0.40042,-0.42638,1.2312,-33.78,20.1,-27.96
-4.2632,-5.7614,1.471,0.17196,-0.4667,1.0379,-33.9,20.28,-28.32
-4.4675,-4.9714,1.5119,0.021075,-0.34728,0.99296,-33.96,20.7,-28.56
-4.5083,-4.6582,1.6481,-0.17196,-0.098655,0.96792,-33.6,21.9,-28.26
-4.3177,-4.9714,1.3076,-0.38026,0.23305,0.95448,-33.42,22.32,-28.02
-3.514,-5.203,0.61292,-0.70647,0.77366,0.85155,-33.42,22.62,-27.9
-3.514,-5.203,0.61292,-0.99815,1.223,0.6857,-33.42,22.62,-27.9
-3.514,-5.203,0.61292,-1.1756,1.9603,0.56291,-33.42,22.62,-27.9
1.9613,-10.501,1.7843,-1.1619,2.8579,1.2764,-33.6,22.8,-27.78
14.152,-17.271,2.6968,-1.0577,3.3008,1.8357,-33.72,23.16,-25.98
18.21,-17.788,1.362,-0.62522,3.784,1.8827,-32.7,23.82,-24.3
18.851,-19.096,0.58567,-0.4047,4.1496,1.5043,-31.74,24.18,-23.4
19.504,-17.366,0.28603,-0.39279,3.4346,0.98135,-29.76,25.14,-21.9
18.96,-13.28,0.21793,-0.42761,2.0898,0.69272,-27.54,26.22,-20.7
16.058,-9.4253,-0.14982,-0.48747,0.92241,0.34606,-25.14,27.24,-19.5
13.28,-3.8818,-0.068102,-0.49266,1.0321,0.070555,-23.16,28.44,-18.6
12.476,-0.84446,-0.35413,-0.38546,1.1078,-0.20647,-21.0,30.06,-17.4
11.863,2.6423,-1.4438,-0.19181,1.0088,-0.51099,-18.48,31.86,-17.1
11.005,5.1349,-2.3155,0.013744,0.63408,-0.92577,-16.92,33.24,-17.7
9.2074,5.8431,-2.4517,0.17165,0.08094,-1.4203,-16.44,33.72,-18.06
7.8453,6.1428,-2.0294,0.49969,-0.83078,-1.8763,-16.26,34.74,-18.96
7.1507,6.4152,-1.4301,0.81764,-1.2682,-2.1246,-17.16,35.22,-19.5
7.2052,5.2166,-0.99429,1.1677,-1.5409,-2.4025,-18.18,35.58,-19.92
7.6683,3.9499,-0.49033,1.4771,-1.8353,-2.671,-19.62,35.58,-19.74
9.4117,2.8058,1.2667,1.7541,-2.0525,-3.0003,-21.48,35.34,-19.2
12.217,0.054481,1.9477,1.8754,-2.1768,-3.1398,-22.86,34.86,-18.78
14.206,-2.2201,2.0431,1.7147,-2.3308,-2.5788,-24.6,33.9,-18.42
15.636,-6.5378,3.3915,1.5647,-2.5534,-2.1188,-28.08,31.2,-18.66
15.282,-8.6217,3.5004,1.3995,-2.3729,-2.0015,-29.7,29.64,-19.2
15.895,-10.515,3.1735,1.1567,-2.263,-1.5968,-31.08,28.2,-19.74
13.77,-12.054,2.9829,0.85155,-2.2385,-0.97097,-33.96,25.5,-20.28
10.038,-11.959,2.9556,0.44563,-1.5715,0.10721,-35.16,24.36,-20.46
8.1995,-11.836,2.7104,0.29169,-0.77,0.7645,-36.42,23.34,-20.4
5.9521,-11.182,2.2474,0.24984,-0.47556,1.0867,-37.5,22.2,-20.28
2.0294,-9.1665,1.9205,0.21777,-0.14203,1.8567,-39.42,20.46,-20.22
0.40861,-8.54,1.6072,0.19059,-0.048564,2.2037,-40.02,19.8,-20.28
-1.1441,-7.927,1.2122,0.14508,0.029016,2.3002,-40.44,19.08,-20.22
-1.9477,-5.7069,0.62654,0.043677,-0.10263,1.9966,-40.56,18.78,-20.7
-2.3836,-5.0804,1.0624,-0.025962,-0.18662,1.8671,-40.2,19.14,-21.0
-2.7377,-5.1621,1.3348,-0.20556,-0.33934,1.6661,-39.48,19.92,-20.88
-3.7047,-6.6059,2.0294,-0.39309,-0.13806,1.5446,-38.28,21.96,-20.04
-3.2553,-7.2596,1.866,-0.45235,0.4105,1.4792,-37.86,22.92,-19.44
-2.0975,-7.5321,1.1577,-0.55558,1.0507,1.3302,-37.44,23.82,-19.14
1.6481,-8.6353,1.471,-0.95112,1.675,0.92485,-36.6,24.96,-18.84
2.8739,-12.054,2.5742,-1.0446,2.1951,0.90958,-36.12,25.44,-18.78
5.5435,-17.706,3.8137,-0.98502,2.5241,1.3124,-35.88,25.92,-18.66
15.377,-17.965,2.547,-0.94959,2.9053,2.2214,-35.1,26.76,-17.94
17.693,-18.782,2.0431,-0.6298,3.1982,2.0323,-34.56,27.3,-17.28
18.96,-19.6,1.6344,-0.50183,3.1066,1.5379,-34.02,27.96,-16.62
19.368,-17.298,0.65378,-0.35461,1.8521,0.91294,-32.28,28.86,-15.24
18.769,-15.255,0.068102,-0.36927,1.1536,0.57605,-31.26,29.46,-14.64
16.712,-11.005,-0.21793,-0.47831,1.0119,0.29993,-30.36,30.12,-14.04
14.247,-4.9169,-0.054481,-0.54611,1.1982,0.000916,-28.2,31.44,-12.96
12.681,-0.31327,-0.21793,-0.50396,1.4148,-0.27978,-27.06,32.04,-12.54
11.577,4.8625,-1.4165,-0.39218,1.4545,-0.50305,-24.84,33.42,-11.58
10.992,7.4095,-2.1929,-0.22785,1.4029,-0.84635,-23.64,34.26,-11.28
10.379,8.2403,-2.6423,-0.016493,0.92546,-1.4328,-22.5,35.04,-11.1
9.8475,8.036,-2.2746,0.084605,0.64049,-1.6536,-21.3,35.82,-10.92
9.3299,6.4424,-0.89894,0.51038,-0.44593,-2.3234,-19.14,37.26,-11.22
8.8941,5.1894,-0.35413,0.86712,-1.0638,-2.664,-18.54,37.68,-11.46
8.0496,3.2144,0.98067,1.2446,-1.4868,-2.9499,-18.48,38.22,-12.06
8.2131,2.4108,1.7979,1.6316,-1.6448,-3.2895,-19.26,38.04,-12.06
8.8668,2.3427,2.3291,2.0146,-1.6423,-3.7843,-20.22,37.62,-11.94
12.64,0.095342,3.2144,2.0204,-1.8647,-3.5183,-21.54,36.6,-11.94
17.529,-6.7012,3.9908,1.9313,-2.0116,-3.1368,-24.06,33.66,-13.32
16.671,-10.215,4.6173,1.6176,-2.321,-1.8955,-25.14,32.4,-14.46
15.023,-11.196,4.8216,1.4881,-1.886,-1.5009,-26.22,31.14,-15.6
15.105,-12.245,4.0861,1.3204,-1.339,-0.83414,-28.08,28.92,-16.74
13.089,-13.007,3.6094,1.0067,-1.0553,0.42577,-29.22,27.9,-17.16
9.4798,-12.898,2.8467,0.75381,-0.74312,1.2318,-30.3,26.94,-17.58
3.4187,-10.665,1.7162,0.57085,-0.49786,1.8744,-32.52,25.02,-18.3
1.6753,-10.093,1.3212,0.41844,-0.45448,2.3167,-33.42,24.36,-18.72
0.095342,-9.4253,0.99429,0.25595,-0.60903,2.5748,-34.02,23.7,-19.14
-2.5606,-7.3141,0.92618,0.15638,-0.78405,2.6108,-34.26,22.8,-20.34
-3.2825,-6.7285,1.1305,0.043982,-0.6182,2.3188,-34.02,22.86,-21.18
-4.127,-5.8023,1.471,-0.037568,-0.33811,2.0965,-33.42,23.4,-21.96
-4.1814,-5.6116,2.0294,-0.18723,-0.034208,1.9196,-32.34,25.68,-22.08
-3.6094,-6.1155,2.3563,-0.36072,0.3427,1.7819,-31.98,26.7,-21.84
-2.8194,-6.565,2.0158,-0.42913,0.56933,1.7269,-31.62,27.54,-21.72
-1.58,-6.851,1.4029,-0.60903,1.3354,1.511,-31.5,28.2,-22.02
2.0294,-8.8668,1.866,-1.0085,1.8341,1.0547,-31.26,28.98,-22.8
3.4868,-11.768,2.7649,-1.0791,2.3799,1.2746,-31.32,29.22,-22.98
8.0088,-18.428,2.9284,-1.0492,2.6502,1.7956,-31.26,29.76,-22.98
17.475,-17.162,2.261,-0.97525,3.0552,2.2455,-30.36,30.78,-22.5
19.218,-19.096,2.4108,-0.84025,3.6337,1.9868,-29.58,31.5,-22.14
19.518,-19.477,1.6072,-0.88087,3.3833,1.4401,-27.6,32.94,-21.6
19.532,-17.938,1.185,-0.90958,1.821,0.72907,-26.52,33.6,-21.24
16.358,-12.04,1.2803,-0.90927,1.4508,0.52748,-25.44,34.26,-21.0
14.506,-9.1256,2.1793,-0.80237,1.3357,0.082161,-23.46,35.58,-20.22
13.062,-6.3198,2.0703,-0.63835,1.4884,-0.11729,-22.62,36.12,-19.68
11.931,-3.9771,1.471,-0.54062,1.3277,-0.37232,-21.78,36.84,-19.08
10.896,-0.31327,0.74912,-0.40195,0.94287,-0.65454,-19.56,38.7,-17.7
9.6296,3.1599,0.27241,-0.17318,0.46334,-1.1832,-18.3,39.66,-17.22
7.9407,6.4833,-0.20431,0.27672,-0.083994,-1.5412,-15.84,41.4,-16.62
7.4912,7.2052,-0.28603,0.45296,-0.2135,-1.7037,-15.06,42.12,-16.74
7.5729,7.2188,-0.31327,1.014,-0.68814,-2.1087,-14.76,42.48,-16.98
7.8998,6.279,-0.36775,1.4294,-1.1646,-2.3604,-15.12,42.66,-17.58
7.75,5.4754,-0.35413,1.7843,-1.7208,-2.6936,-15.78,42.72,-17.88
7.7364,3.4732,0.85808,2.0299,-2.1732,-3.3643,-17.82,42.12,-17.94
8.4855,3.6911,1.8387,2.1435,-2.2944,-3.7043,-19.32,41.52,-17.82
12.0,0.89894,2.3972,2.0238,-2.2706,-3.3995,-20.94,40.68,-17.58
17.23,-6.4424,3.2144,1.6209,-2.0815,-2.4758,-24.9,37.86,-17.58
16.998,-7.8998,4.808,1.2532,-2.2944,-1.8708,-26.76,35.94,-18.0
15.023,-8.7715,6.3198,1.2025,-1.6597,-1.543,-28.38,33.96,-18.6
17.448,-10.951,5.4481,1.2074,-0.94043,-1.0983,-31.38,30.72,-19.92
16.903,-11.564,4.4402,0.99724,-0.45571,-0.146,-32.7,29.16,-20.46
13.239,-11.863,3.5685,0.70372,-0.19364,0.48533,-33.84,27.66,-20.88
7.3414,-10.733,1.7025,0.49175,-0.1011,1.1109,-35.82,25.2,-21.54
5.2711,-10.256,1.0488,0.34239,-0.32498,1.5516,-36.72,24.24,-21.84
3.2416,-10.12,0.68102,0.19517,-0.73884,1.8014,-37.38,23.28,-21.9
-0.31327,-9.112,0.39499,0.030543,-1.1215,1.8647,-38.28,21.84,-22.26
-2.2201,-7.927,0.49033,-0.14569,-1.2746,1.5693,-38.28,21.6,-22.44
-3.8001,-6.7829,1.4165,-0.24557,-1.0452,1.2608,-37.38,21.96,-23.16
-6.0747,-5.8976,1.8932,-0.38087,-0.58796,1.0125,-36.72,22.62,-23.1
-6.4424,-6.4016,2.261,-0.58796,0.078802,0.94531,-36.18,23.64,-22.56
-6.2245,-6.8919,2.6015,-0.72204,0.87904,1.0125,-35.7,24.72,-22.14
-3.8001,-7.2733,1.362,-0.80573,1.5971,1.1237,-34.92,25.92,-21.6
-1.9341,-7.069,0.34051,-1.2446,2.0846,1.1414,-34.38,26.52,-21.66
2.152,-11.291,2.9284,-1.4517,2.226,1.0962,-34.02,26.94,-21.72
5.8976,-15.759,4.2632,-1.3018,3.2513,1.7193,-33.96,27.18,-22.32
10.052,-16.957,4.127,-1.4474,3.4321,2.211,-33.96,27.0,-22.2
19.355,-18.714,3.3642,-1.3247,3.4774,2.5049,-34.14,27.24,-21.24
19.491,-19.327,3.5685,-1.1814,3.5849,2.3072,-33.72,27.6,-20.46
19.532,-18.17,3.2961,-1.0736,1.4459,1.2318,-33.12,28.02,-19.68
19.409,-12.095,3.7184,-0.82039,0.5226,0.83475,-31.32,29.22,-18.42
17.121,-8.8532,4.1133,-0.62827,0.49175,0.58582,-30.48,29.88,-18.0
14.819,-5.6661,3.7728,-0.4722,0.82406,0.3653,-29.46,30.6,-17.7
12.544,-1.6753,2.4789,-0.38698,0.97036,0.13897,-27.96,32.04,-16.74
12.027,0.20431,1.7298,-0.26634,0.84208,-0.10018,-27.18,32.94,-16.08
11.06,4.3858,-0.095342,-0.049786,0.55803,-0.44685,-25.56,34.74,-14.82
10.025,6.8238,-1.0896,0.22541,0.13775,-0.95234,-24.54,35.76,-14.16
9.4117,7.7636,-1.4165,0.62156,-0.56994,-1.7077,-23.52,37.02,-13.44
9.0167,8.0224,-1.3757,0.88392,-1.0388,-2.1108,-22.44,38.22,-13.14
8.3629,6.5105,-0.64016,1.1906,-1.4071,-2.4099,-20.7,39.72,-13.62
7.9679,5.598,-0.12258,1.485,-1.7736,-2.6512,-20.46,40.08,-14.1
7.8045,4.7671,1.5391,1.85,-2.2327,-3.0155,-21.3,39.6,-14.88
9.4389,3.5004,2.547,1.8509,-2.4606,-3.0818,-22.5,39.06,-14.94
11.673,0.81722,3.1463,1.7446,-2.6276,-2.6747,-23.82,37.98,-14.94
13.334,-2.0022,3.8682,1.4499,-2.7199,-1.8949,-25.5,36.48,-15.42
16.385,-7.5048,5.6661,1.3818,-2.3301,-1.3662,-28.02,33.66,-16.86
16.331,-10.256,5.8567,1.3787,-1.638,-0.94623,-29.22,32.52,-17.58
15.554,-11.727,4.7944,1.2517,-1.4795,-0.31307,-31.62,30.0,-18.72
13.62,-13.184,4.2904,0.85918,-1.1765,0.72113,-32.82,28.92,-19.02
10.992,-14.342,3.8409,0.59865,-0.7758,1.3036,-33.96,27.84,-19.26
6.3607,-14.547,2.7649,0.49724,-0.43127,1.6945,-35.82,25.98,-19.56
3.6639,-13.443,2.261,0.45601,-0.29932,1.9148,-36.54,25.26,-19.62
0.068102,-11.169,1.58,0.44043,-0.34453,2.0085,-37.38,24.18,-20.1
-1.5119,-9.4661,1.0351,0.41875,-0.41783,1.865,-37.56,24.0,-20.52
-3.1327,-6.8647,0.39499,0.38393,-0.53573,1.5146,-37.26,24.06,-21.0
-4.2495,-5.598,0.34051,0.2697,-0.6634,1.1167,-35.94,25.32,-21.48
-4.7944,-5.8159,0.6674,0.042455,-0.72388,0.82681,-35.46,26.22,-21.12
-4.8352,-6.3471,1.185,-0.32987,-0.27336,0.73854,-34.92,26.88,-20.76
-3.6639,-7.3141,1.866,-0.50183,0.36041,0.72326,-34.14,27.96,-20.46
-2.0567,-7.2869,1.4301,-0.64263,1.0385,0.63255,-33.72,28.38,-20.58
2.3836,-10.896,2.4517,-0.94867,1.4426,0.35064,-33.24,28.62,-21.24
5.203,-16.058,3.3778,-1.292,2.0311,0.47067,-33.18,28.44,-21.72
9.9292,-17.802,3.1735,-1.2819,2.3207,1.4566,-33.36,28.2,-22.2
13.893,-14.22,2.2474,-1.2046,2.4377,1.8903,-33.6,27.9,-22.26
17.352,-15.364,1.7025,-0.93126,3.0974,1.8534,-33.9,27.72,-21.36
19.0,-17.666,1.5391,-0.95997,3.0922,1.4823,-33.66,27.96,-20.64
19.532,-13.253,2.3972,-0.91202,1.8167,1.2138,-32.94,28.62,-19.44
18.919,-9.9292,2.5606,-0.84299,1.5061,1.1808,-32.4,29.1,-18.84
16.726,-6.9328,2.3018,-0.57605,1.4661,0.894,-31.8,29.64,-18.48
14.383,-2.3018,1.0896,-0.48472,1.6225,0.5006,-30.3,30.84,-17.52
13.498,0.38137,0.081722,-0.44196,1.4071,0.14997,-29.64,31.38,-17.04
12.381,4.0725,-0.47671,-0.34178,0.96975,-0.096211,-28.92,32.16,-16.38
10.828,7.6138,-1.866,-0.19059,0.42761,-0.59987,-27.18,33.66,-15.3
10.065,8.3084,-2.3427,0.096517,0.099266,-1.0305,-26.1,34.68,-14.76
9.902,8.6217,-2.2474,0.22297,-0.099266,-1.2639,-24.84,35.88,-14.4
10.27,6.3607,-0.96704,0.7199,-0.87995,-1.9994,-22.56,37.56,-14.76
10.351,4.6309,-0.21793,1.1405,-1.5098,-2.4511,-21.84,38.04,-15.18
10.079,3.1599,0.31327,1.5354,-2.0443,-2.8695,-21.66,38.22,-15.66
10.447,1.757,2.3018,1.7767,-2.6063,-3.4044,-22.5,37.68,-16.02
12.217,-0.027241,2.9011,1.6872,-2.6594,-3.3182,-23.52,36.78,-16.08
14.247,-4.4539,3.2689,1.5684,-2.6145,-2.9575,-24.84,35.22,-16.38
13.675,-10.052,4.5764,1.1463,-2.857,-1.8115,-27.3,31.8,-18.36
12.572,-10.733,4.7807,1.0745,-2.1237,-1.504,-28.44,30.42,-19.14
13.539,-11.387,4.5764,1.0064,-1.2828,-1.1545,-29.58,29.1,-19.86
13.157,-13.893,3.6366,0.69394,-1.0959,-0.078496,-31.98,26.94,-20.58
10.188,-14.043,3.4868,0.4273,-0.79168,0.70463,-33.24,25.8,-20.82
6.9055,-13.198,3.2144,0.30849,-0.12553,1.3531,-34.38,24.6,-20.76
2.6423,-11.346,2.0431,0.35736,0.43249,1.7978,-36.36,23.22,-21.06
1.3348,-10.774,1.2803,0.37996,0.57544,2.0076,-37.02,22.5,-21.36
0.23155,-9.8611,0.81722,0.31337,0.41692,1.9823,-37.38,21.96,-21.72
-1.2939,-7.1915,0.28603,0.23305,-0.0058032,1.6099,-37.32,21.72,-22.98
-1.7162,-6.3335,0.28603,0.028405,-0.29474,1.2654,-36.9,22.26,-23.64
-2.2201,-5.5299,0.46309,-0.15577,-0.42028,1.0134,-36.0,23.28,-23.88
-2.4244,-5.5026,1.58,-0.30299,-0.24526,0.85827,-34.98,25.5,-23.4
-2.0703,-5.5162,1.4301,-0.43127,0.11942,0.75167,-34.62,26.16,-23.4
-0.92618,-5.4754,1.2667,-0.55497,0.57421,0.6411,-34.32,26.76,-23.46
1.9613,-6.6467,1.7706,-0.81795,1.1442,0.36835,-33.9,27.06,-24.12
4.7944,-11.169,2.9284,-0.77946,1.6982,0.60689,-33.78,27.18,-24.3
7.2733,-12.844,3.1191,-0.73151,1.9652,0.96792,-33.9,27.24,-24.42
16.44,-13.157,1.4846,-0.64843,2.1722,1.4374,-34.08,27.3,-23.82
18.742,-15.8,1.2667,-0.56474,2.5137,1.4591,-34.14,27.6,-23.1
19.436,-18.197,1.1169,-0.70463,2.6961,1.0614,-33.9,28.2,-22.38
19.532,-14.056,0.89894,-0.81764,2.0577,0.59315,-33.24,29.16,-20.88
18.96,-11.509,0.83084,-0.95936,1.0452,0.26725,-32.76,29.76,-20.04
16.93,-9.1256,1.0488,-0.98869,0.96975,0.20983,-32.28,30.48,-19.2
13.784,-4.9306,1.1032,-0.93921,1.1576,0.11179,-30.84,31.86,-17.82
12.367,-2.5742,0.38137,-0.8433,1.3613,-0.10324,-30.18,32.64,-16.86
10.924,-0.01362,-0.8036,-0.75167,1.2422,-0.24526,-29.28,33.54,-16.02
9.3436,3.3506,-2.0703,-0.63316,0.81886,-0.42119,-27.42,35.7,-14.58
8.7034,4.7535,-2.8739,-0.34972,-0.093462,-0.72601,-26.16,36.9,-14.1
7.7636,6.9191,-2.8603,-0.219,-0.38515,-0.86346,-23.7,39.0,-13.86
6.9328,7.5729,-2.2065,0.20892,-1.033,-1.3326,-22.74,39.78,-14.04
6.9055,6.8647,-1.1441,0.54886,-1.2535,-1.6478,-21.96,40.26,-14.46
8.1722,4.8761,-0.29965,0.91324,-1.4392,-1.9105,-21.42,40.32,-15.12
8.5808,4.3585,-0.095342,1.2385,-1.7303,-2.1728,-21.66,40.26,-15.36
9.9973,3.6639,1.0624,1.5348,-2.1649,-2.6967,-22.14,39.84,-15.72
14.315,-0.6674,2.7649,1.5302,-2.2962,-2.7813,-23.82,37.98,-16.44
15.936,-4.0589,3.337,1.2938,-2.5736,-2.2232,-24.78,36.6,-16.86
15.704,-5.884,4.0861,1.1631,-2.7312,-1.9661,-25.8,35.16,-17.52
14.056,-8.4446,4.5083,1.1851,-1.9065,-1.77,-27.84,32.52,-18.66
15.677,-9.793,3.9363,1.1704,-1.3021,-1.3522,-28.8,31.32,-19.14
14.233,-11.795,3.1735,0.94226,-1.1698,-0.81673,-29.94,29.88,-19.56
9.7113,-12.04,2.9692,0.44502,-0.76358,0.2642,-31.86,27.48,-20.1
6.7148,-12.04,2.833,0.33934,-0.39095,0.62461,-32.64,26.16,-20.22
5.1213,-11.795,2.6832,0.27122,0.46181,1.6163,-33.42,25.14,-20.64
1.6753,-10.106,1.4301,0.34544,0.51038,2.0082,-34.38,23.4,-21.3
0.027241,-9.1529,0.7355,0.34056,0.28619,2.1887,-34.62,22.68,-21.72
-2.3427,-7.7772,0.24517,0.27489,0.054978,2.1377,-34.26,21.78,-22.5
-3.0237,-6.565,0.40861,0.20311,-0.075747,1.7165,-33.78,21.96,-22.74
-3.1599,-6.0474,0.57205,0.11759,-0.14355,1.481,-33.3,22.38,-22.86
-2.547,-6.1564,0.92618,-0.032376,-0.12156,1.3879,-32.1,23.34,-22.74
-1.5119,-6.7966,0.85808,-0.16371,0.12095,1.2813,-31.26,23.64,-22.74
-0.44947,-7.0826,0.38137,-0.27672,0.41508,1.1771,-30.66,23.94,-22.98
2.2337,-7.0962,0.96704,-0.41356,0.63683,0.95875,-29.64,24.48,-23.88
3.4596,-8.6762,1.8932,-0.60598,1.2895,0.48045,-29.22,24.36,-24.12
6.1019,-13.362,2.8875,-0.57971,2.1487,1.0437,-28.98,24.18,-24.54
15.949,-13.77,1.362,-0.68478,2.3054,1.4236,-28.86,23.64,-24.06
18.633,-13.007,0.72188,-0.58185,2.3414,1.463,-28.8,23.82,-23.4
19.423,-16.644,0.32689,-0.65179,2.6735,1.0831,-28.38,24.18,-22.38
19.532,-14.288,0.31327,-0.8094,2.0626,0.59926,-27.72,25.14,-20.28
19.014,-12.476,0.54481,-0.86957,0.93829,0.2303,-27.36,25.74,-19.38
16.603,-8.9758,0.53119,-0.85246,1.1002,0.038179,-27.0,26.4,-18.18
12.994,-4.5083,-0.054481,-0.82009,1.5064,-0.12828,-26.04,27.54,-16.14
12.313,-2.3427,-0.55843,-0.79657,1.4652,-0.34453,-25.74,28.14,-15.24
11.087,-0.32689,-0.8717,-0.84849,1.2495,-0.55344,-25.44,28.8,-14.28
10.188,1.3212,-1.1305,-0.8436,0.93004,-0.79412,-24.84,29.46,-13.14
8.2812,4.3994,-1.5119,-0.65332,0.37965,-1.2654,-23.52,31.2,-11.04
7.2869,5.5299,-1.6753,-0.53787,0.22449,-1.4584,-22.74,32.46,-10.32
6.7693,6.4969,-1.2803,-0.032681,-0.20556,-2.0537,-21.24,34.74,-9.66
6.5241,6.1836,-0.83084,0.38729,-0.47586,-2.3488,-20.52,35.58,-10.02
6.9464,5.6252,-0.64016,0.81001,-0.80817,-2.5922,-20.7,35.76,-10.32
7.5865,4.7126,-0.12258,1.2028,-1.1267,-2.814,-21.36,35.22,-10.68
9.6841,3.5958,1.0351,1.4551,-1.5049,-2.9807,-23.22,33.78,-10.92
13.116,-0.095342,1.5936,1.5064,-1.9148,-2.4642,-25.68,31.44,-11.34
14.22,-3.2553,2.3155,1.3848,-2.1423,-1.8674,-27.78,28.44,-12.06
13.416,-5.7478,3.3642,1.4581,-1.8735,-1.3543,-29.7,25.56,-13.5
15.459,-7.8998,3.2825,1.5348,-1.2339,-0.96303,-30.96,22.86,-14.94
15.323,-9.4117,2.7649,1.554,-0.94654,-0.43402,-32.04,20.46,-16.5
13.934,-9.8066,2.6832,1.4502,-0.99357,0.39706,-32.4,18.54,-17.76
10.134,-10.12,2.5742,1.1768,-0.5397,1.4258,-32.88,17.76,-18.42
6.4424,-10.692,2.2882,1.0302,-0.053145,2.0559,-32.7,16.8,-20.1
4.2495,-10.147,1.8932,0.8769,0.064141,2.4972,-31.62,16.92,-21.36
2.3427,-9.3027,1.7298,0.7141,-0.20433,2.7144,-30.48,17.82,-21.96
1.1169,-8.6898,1.4982,0.54978,-0.60659,2.7003,-30.0,18.54,-22.08
-0.054481,-7.1915,1.471,0.44715,-1.0137,2.4068,-28.92,20.22,-21.84
-1.185,-5.7614,1.6072,0.24801,-1.3167,1.6047,-28.26,21.24,-21.48
-2.4108,-5.5299,2.152,0.078802,-1.1952,1.1289,-27.48,22.38,-21.24
-3.2008,-6.2109,2.6287,-0.11759,-0.69822,0.8375,-26.94,23.04,-21.66
-2.8739,-7.4095,2.2746,-0.27061,0.20922,0.6857,-26.34,23.34,-21.96
-0.92618,-7.4367,1.1986,-0.45937,1.3268,0.56322,-26.22,23.28,-22.38
1.8387,-8.431,1.6617,-0.77152,1.9514,0.26176,-26.58,22.86,-22.98
3.9635,-12.721,2.1929,-1.0037,2.4352,0.33475,-27.0,22.5,-23.1
10.787,-15.813,1.6753,-1.014,3.0036,1.3674,-28.38,21.72,-22.56
15.527,-14.805,0.76274,-0.90103,3.3023,1.3757,-29.58,21.48,-21.0
18.347,-17.284,0.61292,-0.77274,3.6108,1.0931,-29.88,21.72,-19.62
19.463,-19.014,0.50395,-0.85521,2.8735,0.72693,-30.12,22.5,-17.22
19.096,-14.192,0.14982,-0.9502,1.5305,0.32376,-29.82,23.76,-14.82
17.012,-10.243,0.7355,-1.106,0.85185,0.15027,-29.28,25.32,-12.66
16.045,-8.5944,0.92618,-1.2617,0.78985,-0.059254,-28.8,26.28,-11.64
13.416,-4.4811,0.23155,-1.2886,0.80084,-0.21258,-27.42,28.2,-9.6
12.231,-2.9011,-0.29965,-1.3903,0.67867,-0.40225,-25.56,30.48,-8.1
9.4798,1.0896,-1.4574,-1.4722,0.39462,-0.55986,-24.54,31.8,-7.56
7.8589,4.1542,-1.6344,-1.4236,0.24709,-0.80023,-22.44,33.66,-7.56
7.0009,7.1643,-1.6208,-1.2288,0.27092,-1.1261,-21.18,34.86,-8.34
7.7636,7.3686,-1.1169,-0.75778,0.19639,-1.7822,-20.7,35.16,-9.42
8.7715,6.2654,-0.27241,-0.35949,-0.071166,-2.2862,-20.82,35.1,-9.84
9.4117,4.8625,0.6674,0.10476,-0.53359,-2.6475,-21.24,34.8,-10.38
8.5808,3.7865,1.1577,0.57513,-1.0235,-2.9276,-22.32,34.14,-10.44
8.3493,3.5685,1.471,1.0299,-1.3763,-3.2223,-23.28,33.72,-10.44
10.311,1.5527,2.152,1.288,-1.547,-3.4221,-25.5,32.22,-10.14
13.688,-1.7979,2.8739,1.4658,-1.5137,-3.0262,-27.96,30.06,-10.26
14.097,-2.6423,3.3234,1.5406,-1.416,-2.6664,-29.16,28.92,-10.2
13.893,-4.5356,3.6639,1.6762,-1.2141,-2.2724,-31.26,26.52,-10.62
15.364,-5.8295,2.9556,1.788,-1.0376,-1.6768,-33.48,24.0,-10.98
16.317,-7.246,2.7104,1.7055,-0.99266,-0.99815,-34.44,22.86,-11.1
14.029,-11.319,1.7434,1.4459,-0.74709,-0.26023,-36.12,20.82,-11.58
10.202,-11.645,1.3484,1.1594,-0.53359,0.83414,-37.56,18.78,-12.06
8.2676,-11.237,1.1577,0.85674,0.047953,1.4297,-38.28,18.24,-12.18
4.2904,-10.351,0.44947,0.67806,0.22999,1.9841,-38.7,17.04,-12.72
1.9341,-9.7113,-0.095342,0.478,0.13775,2.3179,-38.46,16.74,-13.08
0.47671,-9.221,-0.64016,0.29871,-0.18876,2.3653,-38.16,17.22,-13.2
-0.35413,-8.036,-0.61292,0.11545,-0.47525,2.0714,-37.68,17.94,-13.02
-0.98067,-7.2869,-0.20431,-0.031765,-0.68906,1.6109,-37.32,18.36,-13.02
-2.547,-6.4424,0.8036,-0.20861,-0.72937,1.2217,-36.54,19.5,-13.02
-2.9692,-6.6331,1.1713,-0.45296,-0.18234,1.058,-36.12,19.86,-12.96
-2.833,-7.4503,1.2122,-0.63591,0.55589,1.0907,-35.1,20.76,-13.26
-0.32689,-6.9328,0.39499,-0.77152,1.1906,0.99418,-34.14,21.3,-14.1
0.83084,-7.069,0.70826,-0.96944,1.4203,0.77305,-33.84,21.66,-14.64
4.1406,-12.926,2.3836,-1.0794,1.7846,1.226,-33.24,21.6,-14.82
11.632,-14.805,1.6617,-1.0852,2.0754,2.2107,-33.24,21.3,-15.24
15.854,-12.898,1.2667,-0.88667,2.3546,2.3201,-33.42,21.0,-15.12
19.123,-16.167,0.8717,-0.62858,2.9853,2.1939,-33.72,21.18,-14.34
19.518,-17.189,1.0896,-0.65149,2.5439,1.7828,-33.84,21.42,-13.08
19.532,-12.939,1.58,-0.61178,1.4612,1.3735,-33.3,22.32,-11.88
18.932,-10.896,1.4438,-0.56749,1.0602,1.1701,-32.82,22.92,-11.34
16.494,-6.851,1.1169,-0.55528,1.5024,0.70402,-31.86,23.94,-9.96
14.86,-2.3291,0.35413,-0.58765,1.649,0.26817,-30.36,25.56,-9.12
14.315,-0.8036,0.027241,-0.67104,1.3619,-0.099876,-29.52,26.28,-8.4
12.354,2.6015,-0.57205,-0.72876,0.76144,-0.36591,-27.84,28.02,-8.22
9.9292,5.7342,-1.1577,-0.76022,0.043677,-0.65149,-25.92,29.7,-8.28
8.2539,6.9191,-1.0215,-0.73976,-0.49908,-1.0308,-24.0,30.66,-9.18
7.4776,7.0826,-0.70826,-0.56352,-0.72449,-1.4734,-23.22,31.14,-9.6
6.6331,7.2052,-0.21793,-0.051007,-0.68142,-2.1451,-22.2,31.38,-10.56
6.9191,6.2926,-0.027241,0.40409,-0.6576,-2.5015,-22.02,30.9,-11.46
7.2596,5.3256,0.16344,0.87109,-0.76358,-2.8225,-22.2,30.66,-11.88
8.322,4.1951,0.99429,1.3112,-0.92118,-3.219,-22.8,29.76,-12.0
12.749,2.6832,2.3291,1.6377,-1.1594,-3.6157,-24.42,28.14,-11.7
15.377,0.38137,2.3836,1.8277,-1.4459,-3.0128,-25.38,27.18,-11.88
18.469,-3.5277,3.0101,1.8216,-1.5605,-2.4606,-26.7,23.7,-12.6
17.625,-6.279,3.7047,1.9086,-1.3115,-2.3378,-27.24,20.22,-14.64
18.061,-8.5808,3.909,2.0186,-1.062,-1.9053,-27.36,18.78,-15.54
18.742,-10.338,3.0373,2.0195,-1.2285,-1.5684,-27.48,16.2,-17.46
13.511,-10.91,1.9613,1.8873,-1.346,-0.98899,-27.6,13.92,-18.9
10.76,-10.801,1.6617,1.6203,-1.0009,0.16524,-27.66,12.78,-19.44
4.699,-10.174,1.0896,1.1664,-0.6747,1.0046,-27.54,10.68,-20.64
1.3348,-9.5751,0.83084,0.88759,-0.61758,1.7058,-27.06,9.18,-21.6
-1.6481,-8.9622,0.8717,0.66554,-0.75198,2.1625,-26.28,8.46,-22.74
-2.5198,-8.6762,0.95342,0.54428,-0.90286,2.4013,-25.92,8.88,-22.92
-3.6639,-7.7636,0.70826,0.43341,-0.92149,2.3805,-25.44,10.26,-21.84
-4.3858,-6.674,0.88532,0.33078,-0.77855,2.1854,-25.8,11.46,-20.58
-4.413,-6.2517,1.1986,0.04215,-0.37415,1.9722,-25.68,12.06,-19.56
-4.2223,-6.7148,1.58,-0.21808,0.055894,1.9349,-25.5,12.78,-19.38
-3.514,-6.9464,1.6889,-0.42089,0.62492,1.9801,-25.14,13.14,-19.62
-1.6072,-7.4503,1.2803,-0.54275,1.2605,2.0101,-24.36,13.86,-20.46
0.095342,-7.1507,1.1577,-0.71746,1.6674,1.9319,-23.64,14.1,-21.96
2.6696,-11.141,3.5277,-0.98288,1.8882,1.7422,-22.92,14.22,-23.58
4.6037,-15.228,4.127,-0.93096,2.6368,2.3925,-22.8,13.98,-24.3
14.601,-18.319,2.6423,-1.1255,2.9554,3.2083,-23.1,13.44,-24.78
19.327,-19.218,1.2258,-1.036,3.7367,3.2006,-22.68,13.5,-24.24
19.477,-19.45,1.6753,-1.1203,4.3698,2.4572,-22.08,13.98,-23.82
19.532,-19.409,2.3699,-1.1509,3.1004,1.2926,-20.58,15.0,-22.68
19.532,-14.696,1.5936,-1.0278,1.0898,0.53145,-19.62,15.6,-22.08
18.088,-11.032,2.0431,-0.82467,0.37202,0.072082,-18.06,16.86,-20.64
14.86,-6.456,2.2882,-0.64202,0.74464,-0.354,-16.38,18.48,-19.26
12.967,-1.9341,1.5119,-0.45357,0.98716,-0.66096,-14.46,20.4,-17.28
12.449,-0.39499,0.92618,-0.30818,0.9218,-0.95142,-13.44,21.36,-16.38
9.902,3.7047,-0.50395,-0.18509,0.46731,-1.2199,-11.04,23.82,-15.24
8.7306,5.6388,-1.0215,-0.10385,-0.10293,-1.4215,-9.84,24.84,-15.12
6.3471,7.0009,-1.4165,-0.072998,-0.75778,-1.7593,-8.28,26.58,-15.48
5.7342,7.1507,-1.3757,-0.044288,-0.89247,-1.9001,-8.04,27.0,-15.84
5.1757,7.0145,-1.0896,0.17104,-1.0183,-2.2257,-8.04,27.36,-16.08
4.6309,5.7886,-0.40861,0.39798,-0.94409,-2.3796,-8.82,27.6,-16.5
5.0259,5.1485,-0.19068,0.6857,-0.8375,-2.6863,-9.54,27.78,-16.62
6.1564,4.3721,0.78998,1.0021,-0.80176,-3.1008,-10.26,27.9,-16.74
10.27,3.1191,1.9886,1.2281,-0.85063,-3.4981,-12.54,27.54,-16.2
14.942,0.50395,2.1929,1.4624,-1.168,-3.3879,-13.8,26.88,-15.96
16.426,-0.92618,2.4789,1.4853,-1.5094,-2.299,-15.24,26.04,-15.96
18.292,-4.3858,4.1542,1.5513,-1.3919,-1.898,-17.76,23.76,-17.1
19.355,-8.5944,4.4811,1.7025,-0.93829,-1.3408,-18.54,22.5,-18.0
18.837,-11.877,3.5004,1.8091,-0.98074,-0.75625,-19.98,20.88,-19.38
15.691,-12.286,2.4108,1.7779,-1.1558,-0.43707,-20.76,19.98,-19.92
11.605,-12.326,1.9068,1.5745,-1.0959,0.2529,-21.6,19.26,-20.22
5.094,-11.482,0.83084,1.3751,-0.79168,1.2865,-23.22,17.94,-21.0
2.9965,-10.678,0.24517,1.2312,-0.91049,1.8189,-24.0,17.46,-21.42
1.1577,-10.27,-0.21793,1.0293,-1.0369,2.1799,-24.54,16.98,-21.72
-2.1112,-8.2539,-0.21793,0.82711,-1.1881,2.2969,-25.44,16.26,-22.38
-3.2416,-7.1507,0.095342,0.56627,-1.3485,2.0388,-25.26,16.38,-22.68
-3.6503,-6.6059,0.34051,0.45235,-1.31,1.8726,-25.2,16.62,-23.04
-4.6037,-6.3471,1.362,0.032987,-0.82742,1.493,-24.9,18.3,-23.22
-4.4402,-6.5514,1.6889,-0.2978,-0.32162,1.4468,-24.84,19.44,-22.62
-4.0316,-6.9191,1.7298,-0.57513,0.36224,1.5235,-24.96,20.28,-22.08
-1.4029,-7.2596,0.62654,-0.96456,1.4847,1.5388,-25.26,21.72,-21.78
0.21793,-7.927,0.96704,-1.1567,1.7547,1.4474,-25.44,22.2,-21.96
2.2746,-11.114,2.4653,-1.5195,2.645,1.2853,-25.5,22.38,-22.38
8.3493,-18.183,3.5413,-1.4841,3.197,2.0339,-25.8,22.74,-22.98
15.445,-16.399,2.8875,-1.397,3.2953,2.2862,-25.98,22.74,-22.8
18.347,-17.611,2.6968,-1.0299,3.748,2.4157,-26.1,23.04,-22.32
19.491,-19.477,2.6287,-0.81184,3.4651,1.916,-25.32,24.06,-21.0
19.532,-17.284,2.4789,-0.6747,2.5009,1.4878,-24.72,24.48,-20.28
19.436,-14.601,2.3427,-0.61697,1.9655,1.3467,-23.82,25.38,-19.8
15.541,-9.0439,2.4108,-0.47159,0.87812,1.0033,-21.84,26.88,-18.72
14.124,-6.4424,2.5334,-0.42028,0.77916,0.79871,-20.94,27.6,-18.3
13.253,-4.7944,2.6151,-0.39737,0.80695,0.48717,-19.08,29.1,-17.04
11.482,-0.50395,1.6072,-0.40317,0.99296,-0.080634,-18.18,29.94,-16.26
10.992,1.9886,1.0079,-0.37538,1.0592,-0.53267,-17.16,30.84,-15.54
10.637,4.8352,0.24517,-0.29352,1.003,-0.79015,-16.14,31.92,-14.76
9.6977,8.3901,-1.362,0.076053,0.59315,-1.4948,-13.86,34.26,-13.44
9.3436,8.9894,-2.1248,0.35827,0.12523,-1.861,-12.78,35.4,-13.26
9.4661,8.3084,-2.2474,0.66157,-0.39767,-2.233,-11.76,36.3,-13.5
9.2755,6.3198,-1.8251,1.1652,-1.3124,-2.7584,-11.28,37.5,-14.4
8.6625,4.9714,-0.7355,1.5238,-1.7446,-3.1343,-11.64,37.68,-14.88
8.7306,3.732,0.64016,1.6674,-1.828,-3.3732,-12.48,37.68,-15.24
14.696,-0.55843,2.833,1.9398,-1.9297,-3.5739,-15.3,37.38,-15.12
17.706,-3.228,3.7865,1.9233,-2.2119,-3.105,-17.34,36.6,-14.76
18.633,-4.6445,4.4947,1.8393,-2.3839,-2.8188,-19.5,35.16,-14.82
18.605,-10.869,5.1757,1.6979,-2.171,-2.135,-23.28,31.68,-16.26
19.205,-11.918,5.1894,1.376,-2.0235,-1.5513,-24.84,30.24,-17.16
19.082,-13.389,4.8352,1.1646,-1.551,-1.1759,-26.52,28.92,-17.7
13.062,-13.375,4.0589,1.0012,-0.99479,-0.58399,-29.94,26.34,-18.36
7.8998,-11.782,3.0237,0.94043,-0.38698,0.0015272,-31.68,25.08,-18.42
5.3119,-10.542,2.2201,0.88423,-0.096517,0.51649,-33.48,23.82,-18.48
2.3563,-9.8884,1.3212,0.81764,-0.24435,0.88728,-36.3,21.3,-18.36
0.74912,-9.8203,0.89894,0.64874,-0.77336,1.2071,-37.44,20.4,-18.36
-1.0215,-9.0848,0.61292,0.57391,-1.2419,1.1942,-38.28,19.38,-18.24
-4.8216,-6.4697,0.58567,0.46304,-1.5192,1.1228,-38.94,17.7,-18.48
-6.2381,-5.7069,0.9398,0.23579,-1.3314,1.1561,-38.76,17.58,-18.84
-6.7421,-5.4618,1.3212,-0.03146,-0.61758,1.3018,-38.4,18.06,-18.66
-5.489,-5.4481,1.471,-0.3094,0.2865,1.5449,-38.16,19.32,-17.1
-4.6445,-5.4481,1.1169,-0.6524,1.2123,1.9145,-38.28,19.74,-16.2
-2.7513,-5.6388,0.61292,-0.9838,1.4151,2.0336,-38.1,19.98,-15.66
0.14982,-8.2539,2.0975,-1.398,1.7929,2.0693,-37.62,19.98,-15.48
5.6388,-14.247,3.7592,-1.47,2.4603,2.4099,-37.26,19.98,-15.84
12.83,-16.208,3.8682,-1.503,3.0421,2.5604,-37.02,19.74,-16.08
19.246,-18.851,4.2632,-1.3002,3.6456,2.5525,-37.38,19.8,-15.84
19.504,-19.45,4.699,-1.1472,3.6606,1.9203,-37.44,20.28,-15.18
19.532,-17.339,3.5549,-1.0412,3.1463,1.5412,-37.32,20.94,-14.58
19.532,-11.836,1.9477,-0.82986,1.1555,0.79077,-36.42,22.86,-13.44
18.442,-8.2812,1.5119,-0.75167,0.55803,0.53939,-35.58,23.76,-13.08
17.053,-6.2245,1.3348,-0.64232,0.47006,0.30116,-34.86,24.84,-12.9
13.743,-1.6753,0.47671,-0.4945,0.55955,-0.025045,-33.18,26.82,-12.54
12.326,0.17706,-0.31327,-0.32345,0.45448,-0.46395,-32.46,28.02,-12.48
10.474,3.732,-1.4301,-0.25534,0.34178,-0.66706,-31.08,30.18,-11.88
9.1529,6.0747,-1.9613,-0.14233,-0.012217,-1.0742,-30.48,31.5,-11.4
8.54,6.674,-2.0567,0.039095,-0.64935,-1.6374,-29.94,32.46,-10.92
7.0145,6.5378,-1.5663,0.27397,-0.98563,-2.043,-28.14,34.98,-10.38
6.8374,5.6252,-1.1577,0.56658,-1.1072,-2.4578,-27.36,35.7,-10.62
6.8647,4.4947,-0.64016,1.0666,-1.2987,-3.0119,-26.28,36.06,-11.58
7.1507,4.127,-0.095342,1.3741,-1.5211,-3.3146,-26.28,35.64,-12.12
7.641,4.1406,0.35413,1.627,-1.7028,-3.5638,-26.7,34.92,-12.48
9.6841,3.5549,0.96704,1.7119,-1.7846,-3.5155,-27.66,33.9,-12.72
14.547,0.068102,1.3348,1.5959,-1.9972,-3.102,-29.46,30.66,-13.26
15.023,-1.471,2.0839,1.4016,-2.2452,-2.5259,-30.12,28.8,-13.86
16.739,-8.0769,3.1054,1.1897,-2.0049,-1.9563,-31.44,25.02,-14.94
16.93,-8.5127,2.9284,1.1112,-1.5959,-1.1738,-32.04,23.52,-15.3
14.601,-7.8045,2.3699,1.0666,-1.4536,-0.41386,-32.76,22.08,-15.66
12.844,-7.9407,2.2474,0.91019,-0.97464,0.28527,-33.36,20.82,-15.78
8.036,-10.174,1.975,0.67134,-0.31337,1.058,-34.56,18.06,-15.72
6.3335,-10.992,1.7706,0.49388,-0.020464,1.781,-34.98,16.98,-15.72
3.5685,-10.093,1.2667,0.41722,-0.18173,2.4444,-35.7,15.24,-16.2
1.58,-8.8805,0.76274,0.32529,-0.43555,2.6148,-35.64,14.58,-16.38
0.77636,-8.431,0.6674,0.17013,-0.41233,2.5458,-35.52,14.28,-16.56
-0.40861,-7.7636,0.76274,-0.0064141,-0.34086,2.2477,-34.2,14.94,-16.92
-0.74912,-7.355,1.0079,-0.17257,-0.32712,1.8766,-33.72,15.78,-17.04
-1.2939,-7.0281,1.3484,-0.36744,-0.37874,1.5724,-33.36,16.86,-16.56
-1.6344,-6.8374,1.6072,-0.53695,-0.24832,1.3109,-32.82,17.88,-16.2
-2.0567,-6.851,1.7298,-0.62094,0.22449,1.27,-31.98,19.5,-15.78
-0.36775,-6.4288,1.3484,-0.68906,0.91905,1.1726,-31.38,20.04,-15.9
1.8115,-7.3414,1.8796,-0.8436,1.4813,0.94257,-30.6,20.4,-16.2
3.9908,-10.964,2.4789,-0.86163,2.4477,1.4035,-29.88,20.82,-16.62
11.959,-14.451,1.4982,-0.8717,2.751,2.065,-28.98,21.24,-17.22
17.366,-14.533,0.20431,-0.77855,2.9508,1.7272,-28.62,21.36,-17.04
19.504,-18.347,0.57205,-0.69486,3.3033,1.2501,-27.96,21.96,-16.2
19.532,-17.216,0.39499,-0.71807,2.3845,0.76267,-27.48,22.14,-15.78
19.532,-15.119,0.27241,-0.7086,0.97097,0.3598,-27.0,22.5,-15.18
18.456,-8.8124,1.1169,-0.65912,0.90713,-0.065668,-26.1,23.4,-13.68
16.562,-5.7478,1.4846,-0.53542,1.4004,-0.40134,-25.68,23.94,-13.08
14.928,-2.9284,0.83084,-0.38485,1.4423,-0.65515,-25.26,24.54,-12.36
11.836,1.5391,-0.47671,-0.36499,0.99082,-0.92913,-24.24,25.98,-11.22
9.3436,3.0646,-1.1986,-0.3427,0.7364,-1.0336,-23.64,26.82,-10.5
8.1722,4.4811,-1.2939,-0.27978,0.23579,-1.244,-23.34,27.66,-9.78
4.7944,6.0338,-1.4165,0.022907,-0.11515,-1.6255,-22.5,29.7,-8.52
3.4732,6.7421,-1.4438,0.33201,-0.20739,-1.9102,-21.96,30.72,-8.04
3.0646,6.851,-1.4165,0.6805,-0.19761,-2.1768,-21.42,31.74,-7.8
4.2495,6.4697,-0.47671,1.0171,-0.2813,-2.5268,-20.88,33.24,-7.86
4.9578,6.279,-0.054481,1.4933,-0.60934,-2.6634,-21.3,33.84,-8.16
5.4754,5.9657,0.64016,1.7715,-0.84635,-2.8512,-22.02,33.96,-8.4
7.75,5.3937,1.471,1.9093,-1.0159,-2.9373,-22.74,33.54,-8.82
13.866,1.8932,2.1929,1.7202,-1.098,-2.5626,-24.0,30.72,-10.92
16.93,-1.9341,2.8603,1.3748,-1.2706,-1.992,-23.76,28.68,-13.02
18.891,-5.9385,3.9499,1.175,-0.87873,-1.6136,-23.22,25.74,-17.4
18.156,-6.0202,3.228,1.2113,-0.7535,-1.423,-23.4,24.3,-19.14
17.775,-6.5105,2.4653,1.244,-0.64996,-0.41844,-23.82,22.92,-20.34
15.936,-7.5184,1.8932,1.0886,-0.5568,0.42302,-24.36,21.66,-21.3
11.114,-9.4798,0.64016,0.94867,-0.063225,1.102,-25.8,18.96,-22.38
8.54,-10.311,-0.027241,0.84758,0.26267,1.6729,-26.4,17.7,-22.92
4.9306,-11.319,-0.85808,0.72601,0.040623,2.2016,-27.0,16.44,-23.34
3.2961,-11.182,-1.1713,0.48197,-0.91202,2.5733,-27.12,14.52,-24.18
1.2531,-10.637,-1.3212,0.26359,-1.3491,2.5464,-26.76,13.98,-24.42
0.23155,-10.161,-1.1169,0.01741,-1.5452,2.4034,-26.28,13.86,-24.6
-2.3836,-7.8453,0.70826,-0.23305,-1.5656,2.1075,-26.04,15.6,-23.46
-3.514,-6.8783,1.8251,-0.42577,-1.3182,1.8341,-26.76,16.92,-21.96
-4.2495,-6.3471,2.5606,-0.71135,-0.3598,1.7681,-28.14,18.54,-18.3
-3.8137,-6.2926,1.8932,-0.8998,0.45235,1.8613,-28.32,19.26,-17.04
-2.6015,-6.0611,0.92618,-1.1011,1.1032,1.8986,-28.02,20.04,-16.44
-1.0624,-5.8431,0.8036,-1.3583,1.3867,1.8634,-27.48,20.64,-16.2
1.7434,-8.6081,2.9284,-1.573,1.5351,1.9206,-26.58,21.54,-16.32
5.0668,-14.22,3.7184,-1.5501,2.051,2.4108,-26.4,21.72,-16.38
16.113,-18.782,2.5061,-1.7309,2.576,2.938,-26.16,22.32,-15.72
19.109,-18.96,2.547,-1.4542,3.572,2.5638,-26.04,22.62,-15.12
19.477,-19.463,3.1872,-1.3277,3.2828,1.7828,-25.74,23.22,-14.58
19.532,-17.284,2.9965,-1.2107,2.0308,1.1655,-24.72,24.48,-13.38
19.532,-17.284,2.9965,-1.2107,2.0308,1.1655,-24.72,24.48,-13.38
15.323,-7.3822,3.8954,-0.94715,1.4022,0.7141,-22.8,26.64,-11.82
14.192,-4.9033,3.1599,-0.8885,1.5992,0.6243,-22.08,27.12,-11.22
13.879,-3.4187,2.6287,-0.8433,1.7807,0.3824,-21.54,27.78,-10.68
12.286,-0.1362,1.5119,-0.81092,1.6005,0.1014,-20.76,29.22,-9.18
10.992,3.1327,0.51757,-0.72326,1.2895,-0.16188,-20.04,30.18,-8.28
9.9973,4.8625,-0.21793,-0.39065,0.89217,-0.65882,-19.38,31.02,-7.5
8.2539,8.4719,-2.0567,-0.06017,0.59376,-1.0672,-17.34,33.12,-6.6
7.7091,10.161,-2.4653,0.32223,0.08094,-1.4563,-16.44,33.9,-6.6
7.3958,9.4389,-2.152,0.69486,-0.57818,-1.8479,-15.12,34.8,-7.02
7.3414,8.4446,-1.8932,1.0568,-1.1564,-2.1722,-14.7,34.98,-7.44
7.641,6.4969,-0.96704,1.4349,-1.5797,-2.4294,-14.52,35.1,-7.62
10.447,4.7399,1.7979,2.0223,-1.868,-2.9746,-14.94,34.86,-7.98
14.737,2.0567,3.051,2.2617,-1.8973,-3.3869,-15.78,34.5,-7.98
18.673,-1.975,3.8273,2.3863,-1.9056,-3.0027,-16.68,34.2,-7.86
19.518,-6.6331,6.2245,2.4041,-2.0253,-2.8295,-19.32,31.68,-8.16
19.532,-7.6683,6.2109,2.5217,-1.8069,-2.8607,-20.34,29.88,-9.3
19.532,-9.2618,5.3664,2.532,-1.8216,-2.6735,-21.12,28.38,-10.92
19.532,-11.441,4.3858,2.357,-2.3381,-2.2794,-22.44,25.98,-13.32
18.483,-12.544,4.522,2.0241,-2.3616,-2.0061,-23.4,24.78,-13.98
14.329,-12.912,4.5356,1.7049,-2.0363,-1.4624,-25.2,22.62,-14.94
4.6445,-11.741,3.5277,1.4068,-1.3809,-0.39798,-26.22,21.54,-15.36
2.1112,-11.046,2.8603,1.1176,-0.98533,0.19028,-27.3,20.34,-15.66
-1.2939,-10.025,1.7979,0.96211,-0.84544,0.38973,-28.38,19.02,-15.96
-3.909,-8.5672,1.4982,0.54825,-0.8995,0.73823,-30.06,16.86,-16.5
-5.8023,-7.6138,1.7162,0.35613,-0.99876,0.96211,-30.6,15.9,-16.86
-6.5105,-6.5241,1.7434,0.28314,-0.83444,1.1466,-30.84,15.12,-17.28
-7.1643,-6.565,2.3018,0.19487,0.0281,1.6524,-30.6,15.42,-17.46
-6.4424,-7.2596,2.4517,0.11484,0.68814,1.96,-30.66,16.14,-16.56
-5.3119,-7.6002,2.3155,0.013134,1.226,2.2025,-31.02,16.56,-15.3
-2.0431,-8.3629,0.70826,-0.17807,1.6762,2.2581,-31.44,17.28,-13.86
-2.0431,-8.4174,1.4029,-0.50916,1.9117,2.022,-31.08,17.52,-13.86
2.7649,-11.645,3.623,-0.87293,2.3414,1.8876,-30.72,17.64,-14.28
14.873,-19.164,3.4187,-1.0211,3.4419,2.7608,-29.46,17.34,-15.84
19.218,-16.099,3.1327,-0.89828,3.7755,2.6579,-29.1,16.92,-16.5
19.45,-16.998,2.6968,-0.79138,3.478,2.0574,-29.4,16.26,-16.86
19.532,-17.094,2.6968,-0.97341,2.5247,1.6069,-30.9,16.26,-15.66
19.532,-13.375,2.833,-1.1307,1.7431,1.3124,-30.9,17.22,-14.76
19.532,-10.052,1.9068,-1.2297,1.4413,1.1209,-30.72,18.24,-14.1
18.619,-6.3198,1.7298,-1.2642,1.5617,0.42486,-29.4,20.52,-13.44
15.732,-4.1133,1.866,-1.2727,1.244,0.026573,-28.56,21.6,-13.5
13.266,-0.38137,1.3484,-1.3143,0.88453,-0.15333,-27.66,22.74,-13.44
11.945,1.5119,0.99429,-1.3256,1.1771,-0.51557,-26.88,23.64,-13.62
8.5672,6.17,0.19068,-1.2007,0.88545,-0.67714,-25.86,25.56,-12.9
7.5048,8.6489,-0.55843,-0.92088,0.4331,-0.92118,-25.56,26.58,-12.48
6.6059,9.9565,-1.2939,-0.52595,-0.08094,-1.1154,-25.32,27.84,-11.64
5.9385,9.1529,-2.1248,0.01405,-0.68692,-1.5174,-24.3,31.08,-10.14
6.0202,8.3629,-1.9341,0.35949,-0.85704,-1.9025,-23.16,33.06,-9.78
6.4969,7.0553,-1.4574,0.55314,-0.91508,-2.0323,-21.72,34.56,-10.14
8.8668,4.2223,0.24517,1.1442,-1.2226,-2.4676,-20.22,35.64,-11.88
10.869,3.6503,1.5255,1.4508,-1.533,-2.8503,-20.34,35.46,-12.24
16.004,-0.9398,2.9556,1.5907,-1.8408,-2.9413,-22.32,33.54,-12.9
18.224,-3.9227,3.4051,1.5437,-2.0885,-2.306,-23.4,31.86,-13.44
18.238,-6.4424,4.5356,1.4862,-1.8485,-2.208,-24.72,28.74,-15.6
17.638,-8.431,4.0725,1.4914,-1.4737,-1.9566,-25.5,27.54,-16.68
18.687,-9.507,3.3778,1.3656,-1.6179,-1.5266,-26.34,26.46,-17.4
18.21,-10.283,2.942,1.1316,-1.5452,-0.978,-27.24,25.44,-17.7
10.842,-11.972,2.3563,0.84696,-1.0684,-0.11332,-29.34,23.34,-18.36
6.6059,-11.85,1.5255,0.73334,0.064446,1.0999,-30.36,22.38,-18.48
2.3836,-9.9565,0.21793,0.73487,0.2813,1.3815,-31.98,20.64,-19.14
1.3212,-9.7658,-0.64016,0.66401,0.45571,1.9248,-32.58,19.8,-19.44
0.5993,-9.6977,-1.0215,0.53573,-0.021075,2.106,-33.0,19.08,-19.86
-2.152,-8.6898,-1.0624,0.33995,-0.74006,2.0858,-32.94,18.72,-21.12
-3.4596,-7.7091,-0.42223,0.10751,-1.2709,2.011,-32.58,19.14,-21.24
-5.5435,-6.565,1.1305,-0.18173,-1.2956,1.9768,-32.4,21.36,-20.16
-5.8023,-6.9464,1.7979,-0.68845,-0.31307,2.0977,-32.46,22.38,-19.32
-5.3664,-7.1643,1.9886,-0.98685,0.64416,2.2526,-32.34,23.1,-18.66
-3.909,-6.6604,1.6753,-1.2016,1.222,2.317,-32.1,23.7,-18.6
-1.1986,-5.8976,1.6753,-1.3775,1.3549,2.3699,-31.26,24.6,-19.26
0.43585,-7.4776,3.0237,-1.4569,1.4172,2.5513,-30.9,24.96,-19.8
8.2267,-15.977,2.6696,-1.219,1.7825,2.9844,-30.78,25.62,-20.28
14.737,-18.619,1.0896,-1.0809,2.853,3.3005,-30.6,26.16,-19.98
19.164,-19.477,1.9613,-0.81428,3.8039,2.9312,-30.3,26.82,-19.32
19.45,-19.518,2.8194,-0.73976,3.9893,2.0678,-29.58,27.66,-18.6
19.532,-18.605,2.9556,-0.52565,2.7089,1.3176,-27.72,29.58,-17.28
19.532,-15.445,1.3484,-0.37538,1.609,0.78771,-26.64,30.84,-16.86
14.451,-8.3765,-0.53119,-0.47312,0.97097,0.37385,-25.5,31.68,-16.56
12.422,-5.4073,-0.35413,-0.77061,1.0825,-0.1011,-23.58,33.48,-15.66
11.06,-2.9692,-0.34051,-0.87537,1.4951,-0.33109,-22.74,34.32,-15.18
10.569,-0.99429,-0.43585,-0.84574,1.7003,-0.50519,-22.02,35.16,-14.58
11.101,2.6696,-0.74912,-0.6744,1.434,-0.7196,-20.46,36.96,-12.9
10.924,5.1349,-1.7025,-0.44502,0.9954,-1.044,-19.56,37.86,-12.12
9.5342,8.6081,-2.3155,-0.24068,0.3598,-1.4264,-18.48,38.76,-11.52
9.5342,8.6081,-2.3155,-0.033903,-0.36652,-1.7575,-17.22,39.54,-11.34
8.6353,8.6489,-1.58,0.2697,-0.95814,-2.0094,-16.14,40.2,-11.28
8.8805,6.279,-0.50395,0.86254,-1.4334,-2.3317,-15.3,40.92,-11.94
9.5751,4.985,-0.50395,1.3076,-1.6331,-2.6667,-15.42,40.8,-12.24
10.828,3.7728,1.5527,1.6536,-1.9838,-3.1249,-15.9,40.5,-12.42
17.053,-1.2258,4.127,1.8042,-2.4761,-3.5067,-18.0,39.06,-12.48
18.769,-4.2087,4.7126,1.7184,-2.7211,-2.9716,-19.26,37.98,-12.78
19.491,-8.6081,6.0883,1.6741,-2.6649,-2.7492,-20.58,36.72,-13.14
19.409,-12.626,5.7614,1.6796,-1.8747,-2.6029,-23.28,34.38,-14.52
19.518,-14.192,5.094,1.6631,-1.7098,-2.2156,-24.72,33.3,-15.18
18.946,-14.778,4.7944,1.5275,-1.8415,-1.9468,-26.04,32.22,-15.48
11.959,-14.833,4.0861,1.2569,-1.5913,-1.6081,-29.04,30.06,-16.08
7.6683,-13.539,3.4187,1.0177,-0.85185,-0.87751,-30.42,29.04,-16.14
4.0997,-12.354,1.975,1.0266,-0.50549,-0.38607,-31.86,27.84,-16.32
1.1986,-10.597,0.85808,0.95845,-0.41997,-0.21655,-32.94,26.76,-16.5
-2.2201,-9.6023,0.38137,0.66371,-0.35003,0.14478,-34.98,24.72,-17.04
-4.6173,-8.0224,0.92618,0.52351,-0.52901,0.34208,-35.64,23.76,-17.34
-7.2188,-5.8976,0.72188,0.46701,-0.81856,0.5006,-36.42,22.5,-17.94
-8.2267,-5.5162,0.16344,0.21044,-0.70799,0.88606,-36.72,22.26,-17.82
-8.2131,-5.7342,0.16344,-0.058338,-0.15577,1.3039,-36.9,22.08,-17.52
-7.5865,-5.8976,-0.054481,-0.18143,0.17349,1.518,-37.02,22.08,-17.04
-4.2087,-6.3879,-0.054481,-0.47037,1.1176,2.1142,-36.96,22.02,-16.2
-1.8932,-6.4697,0.8717,-0.63286,1.5647,2.2428,-36.72,21.96,-16.2
1.9341,-10.665,3.2416,-0.69852,2.1264,2.2626,-36.42,21.96,-16.38
13.212,-17.216,2.8875,-0.71838,2.8851,2.6838,-35.46,21.96,-17.22
18.565,-16.685,1.471,-0.65301,3.4899,3.047,-35.22,21.84,-17.64
19.409,-17.38,1.1032,-0.6298,3.624,3.036,-35.22,21.84,-17.94
19.532,-19.491,1.2803,-1.054,3.2122,1.8289,-35.1,22.38,-17.4
19.532,-16.058,1.5255,-1.2431,1.8005,1.2758,-34.92,23.22,-16.92
19.532,-12.313,1.2122,-1.223,0.7086,0.85949,-34.26,24.3,-16.44
15.691,-6.3743,1.2258,-1.0934,0.51832,0.43066,-32.88,26.52,-15.96
13.648,-3.8682,0.96704,-0.99082,0.88942,0.2416,-32.04,27.66,-15.84
12.163,-1.7979,0.27241,-0.9615,1.1112,0.014966,-31.14,28.8,-15.78
10.161,1.3757,-0.55843,-0.96059,1.0208,-0.19151,-29.52,31.02,-15.24
9.112,3.3097,-0.85808,-0.87751,0.7929,-0.48136,-28.86,32.1,-14.82
7.8726,5.8023,-1.4301,-0.6805,0.3937,-0.8546,-28.32,33.06,-14.34
7.0553,7.6138,-1.4846,-0.4215,-0.076053,-1.2914,-27.24,35.22,-13.2
7.5321,7.4776,-1.2803,0.030543,-0.68875,-2.0476,-26.58,36.3,-12.6
8.1313,6.674,-1.0215,0.28344,-0.98807,-2.4987,-25.98,37.38,-12.24
9.5479,4.9714,0.28603,0.56474,-1.507,-2.8625,-25.08,38.4,-12.36
9.507,4.2223,0.99429,0.88239,-1.7113,-3.3005,-25.2,38.28,-12.72
10.106,3.8682,1.7706,1.1606,-1.646,-3.868,-25.86,37.68,-12.9
14.833,0.55843,2.5742,1.3949,-1.6105,-4.0326,-27.78,35.34,-13.14
15.868,-0.85808,2.7241,1.3332,-1.6793,-3.6172,-28.98,33.84,-13.26
15.609,-2.7377,3.2553,1.2694,-1.2856,-3.2416,-31.26,30.06,-13.74
15.091,-5.0668,3.0782,1.4224,-0.51526,-2.7135,-32.52,28.08,-14.1
15.377,-4.985,2.2474,1.5675,-0.38332,-1.897,-33.54,26.1,-14.34
15.541,-5.1894,1.7025,1.4762,-0.50488,-1.018,-34.62,24.12,-14.52
12.217,-9.3299,0.99429,1.222,-0.16982,-0.23915,-36.96,20.46,-14.64
9.8748,-9.8339,0.92618,1.0403,0.29352,1.076,-38.04,18.72,-14.88
3.9635,-8.9349,0.23155,1.0186,0.35736,1.4591,-38.94,16.92,-15.06
2.0567,-9.0303,-0.35413,0.77916,0.24251,2.2886,-40.5,13.92,-15.24
0.98067,-9.2618,-0.83084,0.45112,-0.013134,2.4841,-40.86,12.72,-15.48
-1.6753,-8.322,-1.0215,0.11973,-0.2755,2.3689,-40.8,11.4,-16.08
-2.3018,-7.8181,-0.64016,-0.1347,-0.39462,2.1383,-40.5,11.28,-16.14
-3.3778,-6.7012,0.25879,-0.47739,-0.35797,1.9587,-40.32,11.4,-16.2
-3.8954,-6.5922,1.362,-0.55344,-0.25015,1.9795,-39.78,12.6,-16.08
-3.3915,-7.2052,1.7706,-0.64232,0.49175,2.1958,-39.42,13.32,-16.02
-2.261,-7.6138,1.3484,-0.6182,1.0809,2.1774,-39.06,14.1,-16.14
0.65378,-7.641,1.1577,-0.67837,1.441,1.9535,-38.16,15.54,-17.04
2.5334,-8.7987,2.4517,-0.7871,1.7428,1.7474,-37.62,16.2,-17.76
5.4345,-14.179,4.2632,-0.80451,2.6145,2.4413,-36.84,17.1,-19.26
18.279,-17.788,3.9499,-0.87568,2.6304,2.4792,-36.84,17.52,-19.92
19.382,-17.284,3.9363,-0.81062,2.6814,2.175,-36.84,18.0,-20.16
19.532,-19.436,3.0918,-0.8543,2.4251,1.4316,-37.02,19.26,-19.26
19.532,-16.903,3.337,-0.9218,1.1713,0.87842,-36.9,20.1,-18.78
19.532,-12.422,2.9148,-0.8998,0.48136,0.71532,-36.54,21.24,-18.24
16.835,-8.3765,3.1599,-0.78313,0.72143,0.45418,-35.28,23.28,-17.4
15.078,-6.7829,3.4187,-0.66584,1.3299,0.13531,-34.74,24.42,-17.1
14.438,-4.5356,3.4323,-0.58643,1.5519,-0.029322,-34.08,25.56,-16.8
13.525,-0.81722,2.9556,-0.39951,1.8488,-0.50946,-32.94,27.72,-16.08
12.708,0.61292,1.975,-0.29841,1.7492,-0.92607,-32.64,28.86,-15.6
11.182,2.3155,0.29965,-0.23305,1.6499,-1.3586,-32.16,29.82,-15.12
8.1177,7.9951,-3.7047,-0.090713,1.0037,-1.8897,-30.96,32.16,-13.86
7.2869,9.6296,-4.4675,0.27214,-0.66981,-2.4532,-30.12,33.24,-13.5
5.5435,10.569,-5.2438,0.47006,-1.5345,-2.6829,-29.4,34.32,-13.68
3.8001,9.4798,-3.909,0.79474,-2.2495,-2.999,-28.26,35.34,-14.76
3.337,8.1995,-2.5742,1.2071,-2.1649,-3.2513,-28.32,35.28,-15.3
4.699,7.0009,-0.31327,1.7697,-1.4963,-3.6973,-28.68,34.8,-15.78
11.795,5.8567,2.3563,2.4096,-1.1106,-3.6954,-30.9,33.06,-16.44
14.22,4.2904,2.1248,2.5366,-1.5718,-2.8805,-32.22,31.14,-16.62
16.276,0.55843,2.1384,2.2089,-2.0879,-2.1215,-33.3,28.62,-16.74
19.028,-6.8919,3.5277,2.011,-1.9193,-1.7978,-33.6,23.76,-17.7
18.755,-7.355,3.6094,1.8882,-1.9936,-1.1985,-33.78,21.66,-18.12
16.562,-6.8102,3.8273,1.8161,-2.4202,-0.26389,-34.08,19.98,-18.24
9.902,-9.1393,4.5764,1.6441,-2.105,0.71624,-35.34,16.62,-18.18
8.1041,-10.501,4.4811,1.3253,-0.57452,2.1655,-36.0,15.3,-17.94
6.4016,-11.959,4.0589,1.1597,0.12065,2.7538,-36.42,13.86,-17.76
3.6911,-12.544,2.438,0.92088,0.21838,3.1365,-37.08,11.7,-17.58
2.1112,-11.741,1.7025,0.66584,-0.027184,3.2981,-37.02,11.04,-17.58
0.24517,-10.038,1.076,0.41936,-0.35522,3.1377,-36.66,10.56,-17.58
-1.1305,-7.8453,1.0624,0.17013,-0.57146,2.7235,-35.1,10.32,-17.94
-2.0158,-6.3335,1.4029,-0.17501,-0.38149,2.0766,-34.08,11.22,-18.24
-2.547,-5.884,1.7162,-0.43738,0.031154,1.8659,-33.3,12.72,-18.42
-3.051,-5.7069,1.866,-0.56688,0.34911,1.8045,-33.3,14.28,-18.3
-2.7786,-6.9872,1.8387,-0.95387,1.8121,1.7486,-33.36,16.62,-18.42
-1.757,-7.1507,1.5255,-1.1564,2.7351,1.6396,-33.18,17.22,-19.02
1.5936,-8.7987,3.0918,-1.4395,3.3848,1.3467,-32.4,18.18,-20.52
3.2144,-12.286,4.6037,-1.7095,4.0748,1.2556,-32.16,18.42,-21.3
11.618,-19.096,6.8919,-1.6823,4.1615,1.507,-31.98,19.2,-21.9
18.306,-17.107,6.6059,-1.6701,3.5815,1.2364,-31.86,19.62,-21.84
19.382,-18.251,5.9793,-1.2434,3.5516,1.4856,-31.56,20.34,-21.3
19.491,-19.218,4.9306,-1.0482,2.93,1.0767,-31.02,21.12,-20.88
19.423,-15.745,3.6094,-1.0214,1.7544,0.62278,-29.58,23.16,-20.28
18.605,-12.762,3.8546,-0.93646,1.1567,0.36163,-28.86,24.06,-19.92
16.535,-7.0417,3.8001,-0.89583,1.0351,0.15058,-27.3,25.98,-19.5
15.677,-4.127,3.3915,-0.81428,1.0211,-0.13775,-26.7,27.0,-19.02
14.928,-2.4244,2.9692,-0.73334,0.81153,-0.51496,-25.98,28.08,-18.36
12.258,1.757,1.1577,-0.63499,0.52626,-0.86773,-24.54,30.42,-16.74
11.128,3.7184,-0.081722,-0.48319,0.30635,-1.2593,-23.7,31.74,-15.9
8.7987,6.4833,-2.4789,-0.29566,-0.054062,-1.7083,-21.84,34.02,-14.64
7.6819,7.5865,-2.7513,0.027489,-0.967,-2.3326,-20.82,34.98,-14.58
7.1643,7.6002,-2.2474,0.23121,-1.3693,-2.7095,-19.98,35.7,-14.76
6.6876,5.8976,-0.38137,0.58215,-1.4288,-3.01,-19.74,36.0,-15.78
6.8374,5.2847,0.095342,0.99052,-1.4743,-3.2135,-20.1,35.64,-15.9
6.7829,4.7944,0.89894,1.3592,-1.5678,-3.353,-20.82,35.16,-15.9
9.9156,2.9284,3.8546,1.6273,-1.6536,-3.554,-22.86,33.66,-15.78
11.877,1.6208,4.4675,1.847,-1.7226,-3.3976,-24.12,32.7,-15.6
14.383,-0.28603,4.9714,1.8396,-1.8741,-2.9868,-25.44,31.32,-15.6
15.732,-2.3291,5.6388,1.9639,-1.7187,-2.5907,-28.02,28.32,-15.78
15.949,-2.9692,5.4073,2.0595,-1.3091,-2.0873,-29.28,26.76,-15.96
18.782,-5.5707,5.3119,1.985,-1.2749,-1.5892,-30.54,25.32,-16.14
15.936,-10.311,4.6037,1.6206,-1.1335,-0.3372,-32.58,22.62,-16.08
11.945,-11.032,3.8682,1.1909,-0.79748,0.40103,-33.6,21.3,-16.02
7.9679,-10.896,2.9965,1.076,-0.1741,1.1753,-34.44,20.1,-15.84
2.833,-10.474,1.4029,0.95387,0.22785,1.8986,-35.76,18.0,-15.6
1.1577,-10.665,0.7355,0.74862,0.15944,2.365,-36.24,17.22,-15.54
-0.28603,-10.569,0.068102,0.56139,-0.32101,2.5287,-36.3,16.62,-15.66
-2.6423,-8.322,-0.89894,0.38729,-0.90378,2.3717,-36.36,16.26,-16.02
-3.8546,-7.4095,-0.85808,0.10263,-1.139,1.9655,-36.18,16.38,-16.2
-4.7535,-6.9736,-0.32689,-0.023213,-1.0177,1.8738,-35.76,16.92,-16.14
-5.0123,-7.0553,0.24517,-0.39706,-0.30391,1.8231,-35.34,17.7,-15.96
-3.2144,-7.7091,0.55843,-0.59529,0.47403,1.9056,-34.5,19.26,-15.66
-1.6753,-7.8317,0.29965,-0.76633,1.171,1.9288,-33.9,20.04,-15.6
0.96704,-7.5865,0.27241,-0.95661,1.5299,1.8253,-32.76,21.36,-16.2
3.6094,-10.883,2.0975,-1.3668,1.8628,1.4707,-32.34,22.02,-16.5
7.355,-17.489,3.1872,-1.4016,2.4615,2.0507,-32.04,22.56,-16.74
13.157,-19.286,3.337,-1.4664,2.5702,2.525,-31.8,23.04,-16.8
19.096,-16.44,3.1191,-1.4902,1.9151,3.08,-31.2,24.84,-16.14
19.504,-18.796,2.0567,-1.2159,2.4398,2.5885,-30.78,25.86,-15.6
19.532,-19.436,2.2065,-1.1881,2.0421,1.9618,-30.0,26.94,-14.82
19.532,-14.329,2.3972,-0.85552,0.95631,1.3069,-28.32,28.92,-13.62
17.965,-11.087,2.1793,-0.7083,1.2956,1.1383,-27.36,30.0,-13.08
16.004,-8.0632,1.5936,-0.70433,1.5889,0.96059,-26.4,31.14,-12.78
14.152,-2.5879,0.69464,-0.71105,1.7199,0.31979,-24.66,33.36,-11.94
13.579,-0.27241,0.28603,-0.7083,1.3851,0.0051924,-23.94,34.32,-11.4
13.212,2.152,-0.027241,-0.53237,0.97525,-0.30482,-23.34,35.4,-10.62
10.093,8.2539,-1.4438,0.020464,0.2868,-1.0033,-21.84,37.74,-9.24
8.9077,10.297,-2.2065,0.20006,0.055894,-1.2349,-20.88,38.88,-8.76
9.1256,10.488,-2.547,0.71196,-0.71868,-1.9364,-19.98,39.84,-8.4
11.346,7.3277,-2.0567,1.014,-1.4224,-2.5247,-18.66,40.98,-8.52
10.924,5.9112,-1.3212,1.296,-2.2364,-2.9337,-18.6,41.1,-8.58
8.826,3.623,1.0079,1.5721,-2.7361,-3.2898,-19.38,40.8,-8.94
9.902,2.6287,2.3291,1.8219,-2.7245,-3.8827,-20.34,40.38,-8.88
12.558,0.89894,2.9965,1.9453,-2.4703,-4.3634,-21.6,39.6,-8.64
15.337,-1.471,3.228,1.8082,-2.4309,-3.8121,-23.28,38.4,-8.4
17.298,-6.0611,3.6775,1.6185,-2.3946,-3.284,-26.58,35.04,-8.52
17.148,-8.322,3.6366,1.4474,-1.9019,-2.8662,-28.2,33.24,-8.82
17.257,-9.112,3.5413,1.3488,-1.4939,-2.2984,-29.58,31.38,-9.0
17.761,-11.891,3.2416,1.2266,-1.0684,-1.412,-32.58,27.96,-9.36
15.868,-12.83,3.051,0.93646,-0.58338,-0.64813,-34.08,26.4,-9.3
12.204,-13.321,2.9556,0.83291,-0.017104,0.090713,-35.46,24.84,-9.24
4.7399,-11.346,2.1929,0.88178,0.42699,0.81612,-38.04,21.9,-9.06
1.2122,-10.311,0.99429,0.9557,0.49144,1.4493,-38.88,20.52,-9.24
-0.65378,-9.5751,0.35413,0.99693,0.1744,1.821,-39.66,19.26,-9.24
-2.7513,-7.8862,-0.64016,0.97097,-0.48686,1.8219,-40.62,17.4,-9.72
-3.7184,-6.851,-0.89894,0.748,-0.70402,1.7596,-40.62,16.74,-10.14
-4.6445,-5.884,-0.57205,0.51313,-0.76847,1.7978,-40.26,16.56,-10.38
-5.2711,-5.5162,0.91256,0.2025,-0.52015,1.9685,-39.6,17.4,-10.38
-4.5764,-5.9112,1.2531,-0.096211,0.029627,2.1854,-39.0,18.18,-10.14
-3.1599,-6.6059,1.0896,-0.35247,0.72754,2.3167,-38.58,18.84,-10.2
0.095342,-7.1779,0.70826,-0.64782,1.1811,2.3747,-37.02,19.74,-11.04
1.7162,-8.1586,1.0624,-1.5137,1.3024,1.9716,-36.6,20.1,-11.76
5.6116,-13.144,2.1248,-1.857,1.795,1.9661,-36.06,20.16,-12.42
18.21,-18.905,3.1872,-1.8741,2.3824,2.6612,-35.76,20.7,-13.02
19.368,-16.44,2.6696,-1.6014,2.7092,2.5824,-35.82,21.54,-12.54
19.504,-17.461,2.1248,-1.2239,3.4609,1.8631,-35.46,22.56,-12.18
19.532,-16.413,0.64016,-1.1854,3.6154,1.244,-34.2,24.84,-10.92
19.532,-14.315,0.16344,-1.241,2.1362,0.88026,-33.54,26.22,-10.56
18.279,-10.025,0.44947,-1.2553,1.5611,0.84483,-32.76,27.48,-10.32
13.866,-4.3177,0.8036,-1.1106,1.1008,0.69028,-30.96,29.88,-9.96
12.381,-1.7706,0.49033,-1.0052,1.1341,0.39706,-30.3,30.84,-9.9
11.332,0.65378,0.20431,-0.91844,1.0452,0.19181,-29.7,31.98,-9.54
9.902,6.0747,-1.185,-0.76572,0.92088,0.040012,-28.68,34.62,-8.4
9.5751,7.8726,-1.9341,-0.54795,0.50244,-0.39676,-27.84,35.94,-7.8
9.0575,10.215,-3.3642,-0.23457,-0.0027489,-0.88789,-26.16,38.88,-6.96
9.112,9.3163,-3.1191,-0.019242,-0.57941,-1.3757,-24.96,40.14,-7.02
8.9622,7.8181,-2.438,0.22052,-1.1194,-1.7962,-23.88,40.92,-7.44
8.4991,6.8238,-1.757,0.54153,-1.4954,-2.0675,-23.34,41.4,-7.8
8.4174,4.0725,-0.76274,0.9218,-1.6157,-2.401,-23.28,41.46,-8.64
9.9973,3.1872,0.40861,1.3576,-1.587,-3.24,-23.52,41.22,-8.88
17.529,-2.656,2.4653,1.4029,-1.6842,-3.4212,-25.26,39.96,-8.76
19.286,-6.7557,3.5277,1.3833,-2.0207,-2.7385,-26.46,39.0,-8.76
19.477,-8.322,4.4675,1.485,-2.0705,-2.6844,-27.78,37.74,-9.0
19.532,-11.863,4.8488,1.584,-1.646,-2.7996,-30.36,35.04,-10.26
19.532,-13.348,4.1814,1.6008,-1.4868,-2.4633,-31.62,33.66,-10.98
18.864,-14.996,3.514,1.4923,-1.6732,-2.1432,-33.9,31.14,-11.94
15.568,-15.023,3.3778,1.153,-1.1765,-1.5965,-35.1,30.0,-12.24
10.924,-14.029,2.9692,1.0754,-0.90775,-1.3045,-36.36,28.74,-12.48
2.1112,-9.3844,1.5255,1.1445,-0.63958,-0.21625,-38.46,26.16,-12.9
-0.89894,-8.3493,0.36775,1.0962,-0.71563,0.33689,-39.24,24.9,-13.26
-2.3563,-7.9679,0.36775,0.98991,-0.63194,0.64935,-39.9,23.88,-13.62
-6.0202,-6.2245,-0.23155,0.79687,-0.64507,0.92546,-40.74,22.26,-14.4
-6.9055,-5.4209,0.027241,0.63316,-0.80726,1.171,-40.8,21.78,-14.82
-7.8453,-4.808,0.24517,0.39279,-0.58154,1.5403,-40.74,21.6,-15.12
-7.2869,-5.6661,1.2667,0.12798,0.024435,1.945,-40.02,21.9,-14.64
-5.1213,-6.5378,1.6889,-0.1066,0.68173,2.2361,-39.78,22.08,-14.1
-2.942,-7.7091,1.5255,-0.30207,1.2685,2.3518,-39.42,22.26,-13.74
0.6674,-8.145,1.3484,-0.55283,1.639,2.2407,-38.52,22.68,-13.68
3.7184,-9.7113,2.2474,-1.0867,2.1053,1.6478,-38.04,22.62,-14.1
8.4038,-16.126,3.3778,-1.1716,3.098,2.0378,-37.5,22.62,-14.46
19.028,-16.549,3.514,-1.1741,3.4117,2.6203,-37.2,22.68,-14.88
19.477,-14.737,2.7241,-0.89431,3.3213,2.2688,-37.08,23.28,-14.64
19.532,-16.44,1.7434,-0.65546,3.2556,1.569,-36.78,24.18,-14.22
19.532,-13.443,0.7355,-0.70463,2.343,1.0632,-35.7,26.46,-13.5
19.532,-11.291,0.61292,-0.80817,1.0333,0.5791,-34.92,27.72,-13.26
16.317,-6.2109,1.866,-0.81398,0.86926,0.44471,-33.12,30.42,-13.26
13.743,-3.7728,2.1248,-0.71868,1.361,0.10049,-32.34,31.62,-13.26
12.258,-2.2201,1.9068,-0.64446,1.6741,-0.1179,-31.5,32.76,-13.32
10.311,0.99429,-0.068102,-0.5962,1.7993,-0.38637,-30.18,34.92,-13.26
9.8066,4.3449,-0.85808,-0.40561,1.5702,-0.59773,-29.46,36.06,-13.02
9.2891,8.1858,-2.5742,-0.057421,0.66096,-1.2477,-28.8,37.2,-12.84
8.0632,10.719,-4.304,0.052229,0.18448,-1.4823,-27.24,39.48,-12.72
7.0281,9.5342,-3.909,0.27794,-1.182,-2.0262,-26.28,40.5,-13.14
5.9385,8.2676,-2.8603,0.46548,-1.6396,-2.3106,-25.56,41.16,-13.68
6.279,7.1234,-2.5061,0.74434,-1.4969,-2.6457,-25.2,41.4,-14.4
7.5729,3.7592,-0.6674,1.0904,-1.3522,-2.8561,-25.5,40.86,-15.3
8.3084,3.2553,0.20431,1.47,-1.4755,-3.364,-26.28,40.26,-15.48
12.64,1.4982,1.5391,1.5067,-1.8353,-3.3155,-28.74,37.5,-15.78
15.977,-2.1929,1.9886,1.3161,-1.9276,-2.3766,-29.94,35.4,-16.02
18.905,-4.6582,3.1463,1.2605,-2.0003,-1.9392,-30.54,33.12,-16.74
19.504,-8.4174,4.808,1.2953,-1.431,-2.0635,-31.74,29.34,-18.66
19.532,-9.7658,4.7399,1.3726,-1.1622,-1.7553,-32.4,27.66,-19.26
19.096,-10.093,3.9227,1.4807,-1.2504,-0.97922,-34.2,24.72,-19.86
15.786,-10.488,3.337,1.3961,-0.78527,-0.40378,-34.98,23.22,-19.86
12.095,-10.719,2.7377,1.3305,-0.28253,0.1408,-35.7,21.78,-19.8
6.6331,-9.4661,1.8524,1.3299,-0.078191,0.66981,-36.72,18.84,-19.98
3.1191,-8.2676,1.1032,1.335,-0.15791,1.1729,-37.08,17.4,-20.16
1.1713,-7.927,0.64016,1.2865,-0.39859,1.5204,-37.14,16.26,-20.4
-1.6753,-7.3277,-0.027241,1.1555,-0.72968,1.6182,-36.48,14.7,-21.0
-3.0237,-6.3471,-0.12258,1.0201,-0.8039,1.46,-35.88,14.76,-21.0
-4.2768,-5.1894,-0.12258,0.74892,-0.62308,1.2605,-35.28,15.3,-21.0
-5.5435,-4.3177,0.65378,0.36957,-0.14783,1.2654,-35.4,16.8,-19.5
-4.8352,-4.9987,0.91256,-0.03207,0.5342,1.474,-35.28,17.04,-18.78
-3.3642,-5.9657,1.0488,-0.42822,1.0528,1.6316,-34.98,17.28,-18.3
-0.38137,-6.0202,0.85808,-0.78649,1.2291,1.7104,-34.02,17.46,-18.24
0.55843,-5.8159,1.3212,-1.4163,1.2269,1.631,-33.24,17.58,-18.54
3.3506,-7.75,3.6094,-1.6518,1.6692,1.7257,-32.58,17.58,-18.9
13.92,-18.02,4.2495,-1.6958,2.5247,2.3488,-31.44,17.28,-19.62
19.137,-16.671,3.9771,-1.617,3.0287,2.3616,-31.2,17.1,-19.8
19.477,-18.415,4.5083,-1.3839,3.9141,2.2446,-31.32,17.1,-19.74
19.532,-17.965,3.4732,-1.2046,3.8509,1.1451,-31.2,17.88,-18.9
19.532,-14.056,2.2882,-1.1845,2.7034,0.72296,-30.84,18.72,-18.3
18.891,-10.61,1.2939,-1.2859,1.4212,0.46456,-30.36,19.62,-17.76
15.936,-7.6683,1.0215,-1.4487,0.69914,0.42547,-29.7,20.7,-17.34
13.443,-5.1349,1.0624,-1.5983,0.58765,0.37354,-29.1,21.72,-17.16
10.229,-1.6753,0.64016,-1.7071,0.61117,0.25473,-27.84,23.76,-16.62
9.112,0.14982,0.38137,-1.6588,0.64843,0.16952,-27.3,24.96,-16.14
7.6546,6.0474,-0.58567,-1.4539,0.6576,-0.029627,-26.22,27.24,-14.88
7.1643,8.5808,-1.2667,-1.1154,0.53451,-0.39248,-25.74,28.44,-14.16
6.9872,9.6977,-1.4574,-0.70738,0.24435,-0.78527,-25.26,29.7,-13.68
6.7557,10.91,-1.362,-0.0956,-0.43158,-1.3076,-23.88,32.52,-12.48
7.0009,10.12,-0.8717,0.30452,-0.95936,-1.5027,-22.98,33.6,-12.36
8.7306,7.3277,-0.12258,0.70188,-1.358,-1.7434,-21.54,34.8,-12.66
9.7658,5.8976,0.8717,1.1869,-1.8149,-2.3769,-21.24,34.74,-13.08
11.441,5.3119,2.6015,1.281,-2.1499,-2.6395,-21.48,34.56,-13.2
16.222,-0.095342,4.413,1.3729,-2.7364,-2.8576,-22.86,33.18,-13.08
18.932,-5.8023,5.0804,1.2703,-2.5091,-2.2318,-23.94,32.16,-12.9
19.518,-12.435,6.3607,1.2862,-1.7107,-2.2981,-26.22,29.58,-13.26
19.504,-12.953,6.0202,1.6118,-0.8543,-2.3027,-27.36,28.32,-13.5
19.532,-12.286,5.2166,1.9758,-0.69761,-1.7962,-28.62,26.94,-13.92
18.496,-13.184,4.3721,2.0409,-0.70463,-1.609,-29.64,25.56,-14.22
14.969,-13.375,3.6775,2.0027,-0.15882,-1.1823,-31.68,22.8,-14.46
11.795,-12.463,2.8058,1.9875,0.11301,-0.86834,-32.58,21.42,-14.82
8.5808,-11.591,1.5527,1.9755,-0.010079,-0.48289,-33.3,19.98,-15.0
3.5413,-8.54,-0.17706,1.8772,-0.43585,-0.072998,-34.62,17.16,-15.36
0.64016,-7.355,-1.0079,1.4985,-1.3622,0.35644,-35.16,15.9,-15.36
-4.7399,-4.699,-1.7298,1.3253,-1.6451,0.35919,-35.94,13.5,-15.84
-6.7966,-3.3234,-1.58,0.69975,-1.7776,0.2251,-36.0,12.72,-15.9
-8.4582,-2.5061,-0.83084,0.23885,-1.1506,0.34208,-36.06,12.12,-15.84
-8.4582,-2.5061,-0.42223,-0.14294,-0.22602,0.7141,-36.06,11.58,-15.66
-6.5378,-3.6911,0.40861,-0.46334,0.60567,1.1756,-35.88,10.8,-14.94
-4.3177,-4.5083,0.17706,-0.83994,1.171,1.6777,-35.88,10.14,-14.46
-1.2803,-4.9306,0.054481,-1.1567,1.2538,1.7938,-35.88,9.9,-14.52
1.0896,-5.6933,1.185,-1.6112,1.31,1.7397,-35.64,9.54,-14.58
3.9635,-10.719,2.6423,-1.8515,1.5281,2.3815,-35.58,9.48,-14.7
13.934,-17.107,2.7104,-1.9673,1.6035,3.3616,-35.94,9.06,-15.0
18.129,-17.311,3.6366,-1.9193,1.8155,3.6811,-36.3,9.0,-15.12
19.504,-19.477,4.1542,-1.7037,3.1285,3.2599,-37.44,9.48,-15.0
19.532,-19.518,4.522,-1.4102,3.084,2.3085,-37.8,10.14,-14.52
19.532,-19.0,3.8409,-1.2792,2.6954,1.9184,-38.04,10.98,-14.16
19.409,-13.116,2.152,-1.1487,2.1344,1.7358,-37.02,13.86,-13.5
17.094,-8.9622,1.9068,-1.1949,1.7568,1.5684,-36.36,15.48,-13.5
16.058,-5.2575,2.4653,-1.0907,1.522,1.3928,-35.58,17.22,-13.62
15.064,0.23155,2.3563,-0.86651,1.4679,0.9841,-34.08,20.76,-13.74
14.778,2.4653,1.8387,-0.53756,1.5174,0.27519,-33.3,22.56,-13.56
14.247,4.6445,0.85808,-0.2364,1.3867,-0.33964,-32.64,24.18,-13.62
12.163,8.2539,-1.5936,-0.09896,1.1982,-0.65729,-30.84,27.42,-13.38
11.169,9.3708,-2.3699,0.31307,0.2022,-1.6533,-29.94,29.28,-13.44
9.8203,9.8611,-2.3836,0.58429,-0.68936,-2.2306,-28.74,30.9,-13.56
7.9543,7.0553,-1.5391,0.82131,-1.4774,-2.7468,-26.58,33.48,-14.34
6.9872,6.1836,-1.4165,1.0864,-2.3766,-3.2052,-25.74,34.26,-14.94
6.9328,4.8625,0.25879,1.4575,-2.1316,-3.8149,-25.32,34.5,-15.48
10.351,2.6423,2.547,1.6958,-1.8977,-4.1808,-26.4,33.96,-16.2
16.794,-2.9284,2.8058,1.6936,-2.0122,-3.9654,-27.84,33.18,-16.08
17.516,-6.4016,2.3563,1.4041,-2.7669,-3.2168,-29.46,31.62,-15.9
13.634,-10.079,3.0237,1.1151,-2.8778,-2.6765,-31.74,27.24,-16.2
14.56,-10.215,3.2144,1.0137,-1.6991,-1.7523,-32.82,25.08,-16.5
16.399,-10.406,3.3642,0.90897,-1.2394,-1.1613,-33.66,23.22,-16.74
16.263,-12.953,4.127,0.91721,-0.6579,-0.49938,-35.88,19.68,-16.92
13.62,-12.681,3.8954,1.0189,-0.1011,0.11484,-36.78,17.88,-16.8
10.883,-11.632,3.0918,1.1765,0.36835,0.50091,-37.98,16.08,-16.74
7.2596,-9.4525,0.89894,1.2468,0.52809,0.85857,-39.3,12.78,-16.44
6.1292,-8.8941,0.24517,1.1026,0.093157,1.2737,-39.66,11.4,-16.38
3.5004,-7.8045,-0.61292,0.93249,-0.45693,1.4077,-39.84,10.2,-16.5
3.5004,-7.8045,-0.61292,0.74495,-0.95326,1.3894,-39.84,10.2,-16.5
-1.5663,-4.4811,-0.85808,0.50457,-1.2379,1.2657,-39.54,8.22,-16.86
-4.0452,-2.3018,-0.28603,0.17562,-1.2226,1.0886,-37.74,7.5,-17.52
-5.094,-1.866,0.42223,-0.19884,-0.79565,1.04,-37.14,7.98,-17.4
-5.1485,-2.4789,1.1169,-0.74556,0.32987,1.3094,-36.78,9.12,-16.38
-3.8273,-3.5277,1.2395,-0.87812,0.6692,1.4435,-36.78,9.6,-15.96
-2.3836,-3.9499,1.1577,-1.2614,1.2199,1.6704,-36.24,9.96,-15.6
-0.12258,-4.1133,1.6072,-1.605,1.3909,1.5944,-36.06,10.32,-15.24
3.9635,-8.5808,3.3506,-2.0406,1.7083,1.5314,-36.12,11.16,-14.7
11.278,-17.175,4.2223,-2.2385,2.3243,2.416,-36.66,12.0,-13.98
17.339,-17.965,5.3528,-2.1466,2.591,3.0736,-36.84,13.44,-13.26
19.395,-19.409,5.2983,-1.792,3.5274,2.8222,-36.84,15.36,-12.48
19.532,-19.532,4.6037,-1.2764,5.1468,1.4484,-36.18,17.82,-11.94
19.532,-16.113,2.6832,-1.1536,3.8668,0.74281,-35.16,20.46,-11.7
18.319,-13.525,1.6072,-1.0916,2.2141,0.6017,-34.62,22.14,-11.46
13.307,-8.9349,0.62654,-1.2254,1.0211,0.61911,-33.06,25.14,-11.58
9.8611,-4.7944,0.42223,-1.4523,0.75992,0.67226,-31.02,27.84,-12.06
7.8589,-0.5993,0.74912,-1.6359,0.76664,0.68356,-28.74,30.3,-13.02
7.3141,2.5334,0.78998,-1.7028,1.1142,0.80665,-26.4,32.16,-13.8
7.2188,3.9227,0.49033,-1.6426,1.5412,0.85063,-25.2,33.0,-14.04
7.0962,6.3198,-0.29965,-1.5174,1.8864,0.7028,-23.04,34.32,-14.88
7.0553,7.7364,-1.0896,-1.3152,2.0006,0.40592,-21.48,35.04,-15.78
7.4095,8.4038,-1.3484,-1.0473,1.7544,0.10201,-20.1,35.76,-16.14
7.6138,8.2676,-1.471,-0.72357,1.0968,-0.16096,-19.56,35.88,-16.2
7.5184,7.0281,-1.58,-0.12767,-0.16463,-0.51496,-18.78,36.0,-16.14
7.4776,4.4539,-1.1441,0.28619,-0.67531,-0.85368,-18.06,36.36,-16.02
9.8203,2.3836,0.39499,0.60231,-1.0516,-1.2816,-17.58,36.66,-15.3
13.225,-0.83084,1.4846,0.51526,-1.4856,-1.3974,-17.52,36.9,-15.24
19.286,-16.739,2.6968,0.23427,-1.3308,-0.89767,-17.7,36.84,-15.12
19.532,-19.45,6.1564,0.14355,-1.3366,-0.49694,-18.24,36.66,-14.82
15.309,-19.477,4.1406,0.051618,-0.51099,-1.5015,-18.84,36.42,-13.98
15.214,-18.592,2.8467,0.60262,0.78618,-2.6279,-19.26,36.0,-13.56
15.282,-17.87,-0.5993,0.72052,0.75381,-2.3818,-20.88,35.34,-12.66
10.12,-16.072,-1.9341,0.69394,-0.29841,-1.9251,-22.86,34.26,-11.28
8.1177,-15.214,-2.1929,0.62522,-0.60689,-1.4471,-24.36,33.3,-10.8
4.6037,-11.945,-3.0373,0.63347,-0.69394,-1.0886,-27.0,30.9,-10.14
1.7843,-9.3163,-3.5413,0.7025,-1.6512,-0.81398,-29.4,27.66,-10.02
0.20431,-8.0632,-3.5958,0.5901,-2.1365,-0.49114,-30.18,26.28,-9.9
-4.2087,-5.7886,-3.0782,0.22327,-2.3036,-0.10751,-31.68,23.28,-9.84
-7.4095,-3.909,-1.362,-0.29719,-2.0763,0.21686,-33.0,20.88,-9.78
-8.2539,-2.9965,-0.68102,-0.82222,-1.2669,0.45662,-33.36,19.68,-9.84
-8.7306,-1.5527,0.31327,-1.284,-0.04612,0.74892,-34.08,17.7,-9.9
-7.3141,-2.2882,1.2122,-2.0525,1.4868,1.2233,-34.2,15.96,-10.32
-5.9657,-3.1463,2.0022,-2.5149,1.6163,1.4074,-33.9,15.36,-10.68
-3.9499,-4.413,2.3018,-2.9688,1.5174,1.4978,-33.06,15.42,-10.8
0.095342,-5.6661,3.051,-3.5421,1.5568,1.4731,-32.64,15.84,-10.62
2.8875,-8.3493,3.3642,-4.3063,1.7199,1.4239,-31.98,17.64,-9.42
10.61,-18.333,3.7865,-4.7024,2.6988,2.5287,-31.5,20.04,-8.04
18.347,-19.463,5.6661,-4.3677,4.3692,4.2235,-30.42,22.74,-6.78
19.423,-19.532,3.0918,-3.1285,6.0986,2.9584,-29.1,25.8,-5.52
19.518,-19.532,1.6481,-2.0672,5.7403,2.1551,-28.2,27.18,-4.86
19.532,-18.02,0.054481,-1.4859,4.4728,1.8027,-25.74,30.42,-3.78
18.279,-10.801,-0.23155,-1.2101,2.4083,1.7016,-23.16,33.42,-3.12
15.909,-8.3765,0.29965,-1.1414,0.9334,1.6878,-21.6,34.74,-2.7
10.924,-4.3858,1.1577,-1.1658,0.64049,1.5773,-18.54,37.26,-2.1
9.0712,-1.9341,1.4165,-1.2285,1.5327,1.0901,-15.24,39.3,-1.86
8.9349,-0.5993,1.3893,-1.2709,2.0036,0.87445,-13.8,39.96,-1.86
8.9349,0.65378,1.2939,-1.3601,3.0244,0.37049,-11.16,40.92,-1.86
9.6977,4.4675,1.1577,-1.4126,3.222,0.082772,-10.02,41.1,-1.8
10.011,5.4073,0.96704,-1.4083,3.1484,-0.21258,-8.34,41.4,-1.68
9.6023,6.1564,0.20431,-1.2498,2.8329,-0.54398,-7.26,41.52,-1.62
8.6762,6.4424,-0.96704,-0.7926,2.0516,-1.1967,-6.78,41.52,-1.44
7.7636,6.3062,-1.8251,-0.41172,1.4688,-1.6756,-6.72,41.46,-1.08
6.8102,5.1621,-2.4108,-0.082161,0.82222,-2.1954,-7.14,41.46,-0.36
6.2109,3.1599,-2.2337,0.1576,0.1744,-2.6744,-8.22,41.16,-0.06
6.6195,2.9965,-1.7162,0.31154,-0.32223,-3.014,-8.76,40.98,0.24
12.912,-1.5119,-2.3427,0.27825,-0.65027,-3.0097,-10.26,40.98,0.72
18.864,-11.85,-3.4051,-0.68356,-0.5455,-1.5928,-12.66,40.86,1.38
19.368,-17.094,-1.9613,-0.95203,-0.42669,-1.4258,-13.86,40.5,1.68
19.532,-19.463,0.7355,-0.50702,0.59926,-2.0091,-16.92,39.54,2.1
19.028,-17.094,-1.2395,0.22755,1.0531,-2.5525,-19.98,37.74,2.4
19.0,-13.729,-5.2983,0.71319,0.96731,-2.7849,-23.04,35.52,2.1
14.724,-13.457,-5.775,0.69119,0.011606,-2.3213,-25.38,33.24,1.08
12.095,-12.217,-5.3256,0.2813,-1.1848,-1.6878,-26.4,32.16,0.84
7.355,-8.2403,-4.0861,0.1127,-1.4878,-1.4248,-27.9,30.18,0.18
4.4402,-5.5843,-3.514,0.023518,-1.6057,-1.2608,-29.16,28.14,-0.24
1.3757,-4.127,-2.9284,-0.10232,-1.4716,-0.9725,-29.94,26.1,-0.42
-0.24517,-4.3994,-2.7649,-0.32467,-1.1463,-0.43219,-30.24,24.84,-0.96
-0.85808,-4.6037,-2.5061,-0.6521,-0.86743,0.2022,-30.36,24.3,-0.96
-2.5061,-5.4754,-0.61292,-1.0043,-0.73884,0.8772,-30.36,24.0,-0.72
-3.9908,-6.0474,1.5119,-1.558,-0.47678,1.4963,-30.0,24.24,0.18
-4.5492,-6.0474,2.4653,-1.8415,-0.0076358,1.6921,-30.0,24.36,0.84
-4.8352,-6.1836,3.6775,-2.0528,0.68967,1.7801,-30.06,24.78,2.1
-2.2201,-7.4367,3.5685,-2.2242,1.4218,1.8164,-30.18,24.84,3.36
-1.1169,-8.036,3.5004,-2.4111,1.8476,1.8408,-30.06,24.84,4.08
1.6753,-9.1393,2.9148,-2.6279,2.1191,1.7795,-29.88,25.14,4.38
3.7728,-8.7715,3.5549,-3.1319,2.4429,1.2941,-29.76,25.32,4.98
6.1836,-10.91,4.6037,-3.4923,2.5867,1.1044,-29.64,25.2,5.1
10.91,-18.51,5.0531,-3.4688,3.3527,2.3317,-29.64,25.2,5.28
17.72,-13.443,4.7671,-3.3307,3.7614,2.8121,-29.94,25.14,5.82
19.232,-12.149,3.9363,-2.8271,4.5131,2.1038,-30.12,25.02,6.18
19.518,-15.119,3.623,-2.35,4.5564,1.5999,-30.96,25.02,6.78
19.532,-14.424,2.656,-1.8598,2.9282,1.1771,-31.98,25.5,7.62
19.532,-10.815,1.9341,-1.748,1.879,0.96425,-33.0,26.16,8.76
18.456,-8.826,1.7979,-1.7159,1.5293,0.75839,-33.54,26.58,9.3
15.8,-6.3743,1.1169,-1.6826,1.4813,0.45754,-33.84,27.42,10.26
12.98,-2.9692,-0.12258,-1.719,1.602,0.064752,-34.02,28.8,11.22
12.354,-2.0431,-0.40861,-1.7773,1.7049,-0.19853,-34.02,29.4,11.76
11.182,-0.31327,-0.42223,-1.8274,1.6771,-0.45265,-33.9,30.48,12.42
9.7658,2.152,-0.61292,-1.7495,1.605,-0.60567,-33.6,31.44,12.96
9.112,3.1191,-0.76274,-1.5748,1.4661,-0.79351,-33.3,31.74,13.02
7.7364,4.8761,-1.5119,-1.3387,1.2905,-1.058,-32.82,32.04,12.96
6.7285,5.7478,-1.975,-1.0721,1.0162,-1.3888,-32.52,31.98,12.54
5.7342,6.1564,-2.0975,-0.79382,0.63469,-1.8008,-32.58,31.26,12.18
5.4754,5.3664,-1.9613,-0.49877,0.2474,-2.2336,-33.42,30.24,11.82
5.4754,4.6582,-1.7025,-0.089797,-0.32956,-2.9132,-34.02,29.4,11.64
6.7012,3.3778,-1.5391,0.075136,-0.5623,-3.412,-35.52,27.42,11.16
9.9292,2.9965,-0.83084,0.17685,-0.71929,-3.9312,-37.2,24.6,10.74
11.85,2.5334,-0.5993,0.24221,-0.94226,-4.2052,-37.86,23.1,10.38
16.399,-0.96704,-0.027241,0.2193,-1.0415,-3.9352,-38.94,20.04,9.66
16.753,-2.4789,0.8036,0.17532,-1.1585,-3.6188,-39.12,18.42,9.3
16.344,-3.5004,1.1032,0.27672,-0.90469,-3.4315,-39.54,15.42,8.52
16.126,-3.7047,0.8036,0.57146,-0.42486,-2.9089,-39.78,13.86,8.1
15.064,-3.7592,-0.50395,0.68906,-0.59926,-2.1939,-40.32,11.04,7.62
14.002,-3.8954,-0.57205,0.71135,-0.4386,-1.3595,-40.44,9.66,7.5
12.027,-5.5435,-1.0079,0.75411,-0.11087,-0.53573,-40.68,6.96,7.2
9.4661,-6.4697,-1.3484,0.8375,-0.02474,0.52993,-40.62,5.82,7.14
7.7908,-6.5514,-1.9341,0.8375,-0.14661,1.5556,-40.5,5.1,7.08
4.9987,-6.7557,-1.7706,0.6918,-0.19487,2.7938,-40.38,4.62,6.78
2.1656,-7.9951,-0.50395,0.66004,-0.13867,3.3891,-40.14,4.44,6.84
0.8036,-8.5127,-0.01362,0.66218,-0.069028,3.8371,-40.2,4.62,6.96
-0.39499,-8.8532,0.24517,0.59101,-0.0061087,3.8515,-40.38,5.76,7.02
-0.54481,-8.5808,0.35413,0.40836,0.083383,3.6609,-40.32,6.54,7.14
-0.29965,-7.9951,0.44947,0.19731,0.21441,3.3359,-40.2,7.56,7.08
0.12258,-7.1098,0.83084,-0.18723,0.25656,2.9752,-39.0,9.9,7.02
0.31327,-6.8102,1.0215,-0.40103,0.25717,2.8491,-38.28,11.28,6.54
0.64016,-6.4833,0.99429,-0.56291,0.44349,2.7492,-37.44,12.54,5.88
2.261,-6.4833,0.78998,-0.88759,1.0305,2.3961,-35.46,14.82,3.6
3.5277,-7.4095,1.3893,-1.0657,1.2758,2.2177,-34.68,15.6,2.34
4.304,-8.6489,2.0294,-1.4071,1.8149,1.9584,-34.32,15.96,1.2
8.9349,-14.138,2.4925,-1.5537,2.4523,2.6527,-34.92,16.98,0.72
12.544,-14.206,1.7979,-1.5953,2.8845,2.8549,-35.1,17.94,1.38
15.2,-15.037,1.4438,-1.6273,3.5736,2.1875,-34.86,19.02,2.16
19.341,-19.286,2.8058,-1.6573,3.5119,1.2856,-33.84,21.48,3.3
19.504,-18.673,2.833,-1.5424,2.4847,1.0046,-33.24,22.62,3.6
19.532,-15.827,2.2201,-1.4456,2.0317,0.87018,-32.7,23.64,3.9
17.557,-12.136,1.8251,-1.2697,1.6982,0.23457,-32.22,25.32,4.44
15.323,-9.0984,1.4165,-1.2071,1.8717,-0.1854,-32.04,26.1,4.74
14.124,-6.7012,1.1032,-1.1802,1.7251,-0.53084,-32.16,26.94,5.4
12.408,-3.0237,0.99429,-1.1777,1.3616,-0.75717,-32.58,28.92,7.44
11.21,-1.2667,1.1577,-1.047,0.93218,-0.91172,-32.58,30.12,8.64
9.9837,0.54481,0.9398,-0.84269,0.82253,-1.0406,-32.04,31.68,9.66
7.75,3.732,-0.24517,-0.53695,0.87293,-1.3167,-30.06,34.26,10.14
7.246,5.0123,-0.95342,-0.19975,0.77061,-1.6817,-29.34,34.92,9.54
6.9328,5.8023,-1.1713,0.13928,0.45387,-2.1041,-29.1,35.1,8.88
6.8238,5.3528,-0.61292,0.48778,-0.39981,-2.6353,-29.64,34.74,7.8
6.9464,4.7399,-0.34051,1.0531,-0.98869,-2.9123,-30.24,34.32,7.68
6.7557,3.4596,0.16344,1.4056,-1.3631,-3.2144,-31.14,33.96,7.68
7.4912,2.4789,1.2395,1.6863,-1.5116,-3.6105,-33.12,32.64,7.98
10.692,1.2531,2.2201,1.8302,-1.605,-3.9367,-34.44,31.56,8.4
14.383,-1.362,2.6696,1.8341,-1.7514,-3.8738,-35.76,30.18,8.46
18.347,-4.3449,3.6503,1.7101,-2.0415,-3.7238,-37.98,26.4,8.1
18.17,-5.6661,4.3449,1.5791,-1.81,-3.609,-38.76,24.48,7.68
17.638,-7.3686,4.6445,1.6548,-1.3717,-3.3124,-39.54,22.62,7.2
17.952,-7.6819,3.732,1.7132,-1.2514,-3.1011,-40.74,19.44,6.78
16.549,-7.7364,2.9284,1.7342,-1.0632,-2.3002,-41.16,17.7,6.78
14.683,-7.8317,2.8467,1.6142,-0.81459,-1.609,-41.64,16.26,6.78
10.61,-7.8998,2.2474,1.6567,-0.51985,-0.83505,-42.54,13.32,6.96
9.2482,-8.0769,2.0839,1.7517,-0.097738,0.20647,-42.9,11.88,7.2
6.0202,-8.1995,1.6753,1.6952,0.041233,0.9166,-43.08,10.44,7.32
2.1248,-7.6138,1.4165,1.6078,0.020769,1.562,-43.02,8.16,7.38
-0.39499,-7.1507,1.0624,1.4872,-0.073915,2.055,-42.72,7.56,7.26
-1.7162,-6.8647,0.42223,1.3286,-0.15485,2.3802,-42.24,7.32,7.44
-2.7377,-6.0474,-0.054481,1.1041,-0.31001,2.4676,-41.28,8.34,8.46
-2.9829,-5.5707,-0.027241,0.59743,-0.52779,2.3292,-41.16,9.12,9.06
-3.0373,-5.3528,0.14982,0.25901,-0.42455,2.2568,-40.74,9.9,9.78
-2.8739,-5.203,0.40861,0.098349,-0.2923,2.2443,-40.44,10.62,10.26
-1.9341,-5.4073,0.38137,-0.31032,0.3149,2.1988,-39.54,12.18,10.26
-0.72188,-5.8159,0.44947,-0.62858,0.79168,2.0546,-38.94,12.96,9.96
3.0918,-8.4991,1.8796,-1.0779,1.2446,1.7993,-37.26,14.16,9.06
4.9987,-10.978,2.3836,-1.4242,1.938,2.0415,-36.42,14.7,8.16
9.7522,-14.955,2.8467,-1.5024,2.1854,2.2825,-35.82,14.94,7.26
19.055,-17.924,4.1133,-1.5424,2.923,2.1035,-35.58,14.7,5.76
19.477,-19.0,4.6718,-1.3876,3.1835,1.7321,-36.12,14.64,5.7
19.532,-18.387,4.6445,-1.0782,2.8579,1.2917,-36.9,14.82,6.06
19.532,-13.893,3.1599,-0.86163,2.6704,0.86957,-38.22,16.32,7.74
19.532,-10.869,2.0839,-0.75503,2.3607,0.33964,-38.58,17.4,8.52
17.788,-6.5922,0.83084,-0.74006,1.6573,0.35094,-39.48,19.32,9.42
15.827,-5.2575,0.17706,-1.0324,1.2468,-0.098044,-39.84,20.04,9.9
14.288,-4.1814,-0.12258,-1.1044,0.41905,-0.11423,-39.96,20.88,10.2
11.346,0.5993,-0.21793,-1.1139,0.27642,-0.31887,-40.86,22.38,10.86
9.7113,2.6287,-0.7355,-0.98288,0.36438,-0.5171,-41.28,23.28,11.46
8.6353,5.38,-1.7434,-0.70463,0.51313,-0.66371,-42.0,25.38,12.66
8.5127,6.4833,-2.4789,-0.053451,0.34239,-0.99846,-42.0,26.7,13.32
8.3493,7.2052,-2.8058,0.47525,-0.28894,-1.354,-41.46,28.02,13.68
7.7227,8.5808,-2.5742,0.96181,-1.2349,-1.7089,-40.68,29.16,13.62
7.6274,7.1779,-0.99429,1.4383,-1.9737,-2.0974,-39.3,30.06,12.12
8.2676,6.1836,-0.49033,1.8298,-2.3665,-2.4575,-38.82,29.7,11.22
9.2891,5.7069,1.471,2.1176,-2.8698,-2.9789,-38.94,27.72,10.02
12.762,3.0101,3.0646,2.0965,-3.1942,-3.0934,-39.06,26.4,9.84
14.41,0.96704,3.8409,1.8711,-3.3674,-3.0339,-39.24,24.84,9.6
15.05,-0.20431,4.6037,1.5962,-3.2217,-2.9154,-39.36,23.28,9.42
15.119,-3.8954,4.7807,1.3998,-2.6432,-2.6988,-39.24,20.28,9.48
16.413,-6.4152,4.6309,1.263,-2.0427,-2.2297,-39.36,18.84,9.48
17.311,-10.052,4.0725,1.047,-1.5879,-1.7672,-39.24,17.58,9.9
14.56,-10.842,4.0725,0.76053,-1.3063,-1.0531,-39.0,14.88,10.56
10.283,-11.427,3.8273,0.39218,-0.46762,-0.021075,-39.06,13.74,11.1
8.3629,-11.577,3.3642,0.33109,-0.030543,0.32803,-38.76,12.54,11.58
4.4402,-11.155,1.8524,0.21808,0.77122,1.2569,-38.1,10.5,12.36
2.833,-10.787,1.2803,0.15547,0.75045,1.6985,-37.92,9.48,12.66
1.0488,-10.447,1.1169,0.066279,0.55986,2.0501,-37.62,8.82,12.9
-1.7025,-8.0496,0.5993,-0.0048869,0.31032,2.1591,-36.54,8.58,12.96
-1.9477,-6.9736,0.44947,-0.0085521,0.25229,2.0412,-36.12,8.88,13.2
-2.2065,-5.993,0.17706,-0.069333,0.3708,2.0055,-35.82,9.24,13.44
-2.2065,-5.8295,0.040861,-0.18723,0.5284,2.04,-35.34,9.96,13.98
-1.866,-5.7069,-0.095342,-0.32345,0.76267,2.0913,-34.92,10.44,14.16
-1.1713,-5.2302,-0.57205,-0.4496,1.0208,2.1228,-34.62,10.86,13.92
1.6481,-5.4481,0.38137,-0.65027,1.2007,2.0327,-33.9,11.76,13.08
3.8818,-7.4231,2.1793,-0.93218,1.2712,1.8637,-33.48,12.12,12.48
6.9328,-12.136,2.5879,-1.0821,1.3961,1.9545,-33.18,12.54,11.76
17.72,-16.971,2.2474,-1.244,1.8732,2.678,-33.36,12.54,10.44
19.082,-18.251,3.0918,-1.2953,2.5427,2.2712,-33.6,12.6,10.2
19.532,-19.504,4.3721,-1.3311,2.7339,1.565,-34.56,12.78,10.26
19.532,-19.191,4.0589,-1.2223,2.1961,0.67898,-35.16,12.78,10.68
17.843,-12.503,1.8524,-1.047,1.7077,0.48442,-35.7,13.02,11.1
15.854,-9.9292,0.81722,-0.94654,1.5156,0.27917,-36.6,13.86,12.24
14.41,-7.464,0.19068,-1.0773,1.5986,0.065668,-36.84,14.34,12.66
13.484,-5.0531,0.095342,-1.2297,1.4587,-0.13011,-37.2,14.82,12.9
12.326,-0.89894,0.61292,-1.2343,1.0947,-0.28741,-38.04,15.72,13.44
11.427,1.362,0.40861,-1.0999,0.70372,-0.47647,-38.58,15.96,13.8
10.079,5.7614,-1.3484,-0.65088,0.59376,-0.83383,-39.6,16.86,14.52
9.4525,7.6683,-2.4244,-0.29322,0.25992,-1.3549,-39.78,17.4,14.82
8.6217,9.1937,-2.8194,0.038485,-0.41539,-1.8631,-39.78,18.06,15.12
7.5593,9.8884,-1.9068,0.34941,-1.1209,-2.2651,-39.18,18.96,15.0
7.0281,8.9213,-1.1169,0.70188,-1.5186,-2.5913,-39.0,19.26,14.82
6.8374,6.5378,0.65378,1.087,-1.6756,-2.8387,-38.82,19.2,14.34
7.6683,5.2575,1.5663,1.463,-1.5485,-3.1954,-38.88,18.36,13.56
11.373,3.9635,2.5334,1.8564,-1.4978,-3.8515,-39.3,17.4,13.38
14.07,2.2882,2.9011,1.8747,-1.6338,-3.802,-39.96,16.08,13.2
18.415,-3.2961,4.0452,1.6869,-1.8653,-3.299,-40.56,12.48,12.78
17.638,-5.0123,4.5764,1.6335,-1.8918,-2.8714,-40.5,10.68,12.3
16.889,-6.3198,3.8273,1.7315,-1.3674,-2.5937,-40.26,7.86,11.94
18.551,-7.1643,3.4459,1.6472,-1.387,-1.8674,-40.02,6.6,12.0
17.23,-8.8532,3.1735,1.5525,-1.4297,-1.6096,-39.9,5.52,12.36
15.255,-9.7658,3.1599,1.1848,-1.0354,-0.50427,-39.84,4.44,12.66
8.7715,-10.011,2.3972,1.0635,-0.47831,0.3091,-39.72,2.46,13.44
5.8976,-9.0167,1.6344,1.0107,-0.045204,1.0617,-39.3,1.68,13.8
2.1248,-8.54,0.54481,0.91691,0.16157,1.6732,-38.82,0.54,14.34
0.76274,-8.7715,0.29965,0.66248,0.11851,2.303,-38.46,0.24,14.52
-0.36775,-8.0224,-0.01362,0.478,-0.025656,2.4303,-37.92,0.48,14.58
-0.64016,-7.1234,-0.21793,0.43219,-0.12859,2.4108,-37.44,1.26,14.58
-1.2939,-4.6037,-0.35413,0.32926,-0.46151,2.2092,-36.84,3.6,15.36
-1.5527,-4.2904,-0.14982,0.26573,-0.53115,2.0977,-36.72,4.92,16.14
-1.3757,-4.4402,0.35413,0.15821,-0.26481,1.9939,-36.48,7.26,17.16
0.01362,-5.5707,0.38137,0.057421,0.054978,1.9209,-36.24,8.16,17.22
0.83084,-6.0338,0.16344,-0.087965,0.29199,1.8922,-35.94,9.0,17.1
1.9341,-6.1155,0.7355,-0.30635,0.5342,1.7074,-35.58,9.72,16.68
4.6718,-11.645,1.7298,-0.55894,1.073,1.6848,-34.92,11.28,15.66
7.4503,-15.936,1.9341,-0.70708,1.9175,2.3717,-34.98,11.82,14.94
13.961,-16.317,2.0839,-0.84788,2.4645,2.3973,-34.98,12.3,14.46
18.837,-17.788,2.6968,-0.85246,3.0394,1.6845,-36.0,12.78,13.74
19.491,-19.014,3.0918,-0.83627,3.1017,1.3708,-36.78,12.96,13.92
19.518,-17.761,2.7377,-0.75075,2.4013,1.0473,-37.5,13.14,14.34
18.633,-12.871,0.7355,-0.7083,1.741,0.7367,-38.4,14.16,15.48
16.767,-10.297,0.29965,-0.77794,1.6725,0.5623,-38.94,14.82,16.02
15.582,-7.8317,0.20431,-0.85613,1.7184,0.3036,-39.48,15.48,16.44
12.762,-1.8387,0.12258,-0.85857,1.4707,0.13408,-40.5,16.86,16.98
12.762,3.7184,-1.0896,-0.54642,0.81856,-0.19578,-42.0,19.14,17.82
9.8066,3.7184,-1.0896,-0.54642,0.81856,-0.37263,-42.36,19.8,18.12
8.7851,5.5707,-1.6753,-0.32681,0.58338,-0.54856,-42.36,19.8,18.12
7.8317,7.0281,-1.9886,-0.068111,0.22022,-0.87659,-42.72,21.66,18.72
7.5184,6.9736,-1.6753,0.25198,-0.27825,-1.1723,-42.6,22.62,18.84
6.9328,6.4424,-0.84446,0.61728,-0.8378,-1.4181,-41.58,24.18,18.18
6.7693,5.993,-0.32689,1.0012,-1.2813,-1.5996,-41.1,24.78,17.64
6.7829,5.3119,-0.040861,1.3854,-1.5592,-1.8369,-41.04,24.84,16.92
8.322,4.4947,1.7025,1.8842,-1.6558,-2.4624,-41.46,24.48,15.9
11.387,2.9284,2.5334,2.087,-1.7996,-2.7684,-41.94,23.94,15.84
14.955,0.25879,3.1872,2.0971,-2.0464,-2.5766,-42.84,22.98,16.14
18.129,-2.9284,4.9033,1.9343,-2.3259,-2.1188,-44.28,19.8,15.84
17.924,-3.8273,5.1076,1.7685,-1.9438,-2.2281,-44.52,17.94,15.36
18.319,-5.5843,4.8761,1.5931,-1.6008,-1.9132,-44.58,16.62,14.76
19.504,-10.379,4.5764,1.3088,-1.7046,-1.5971,-43.92,14.34,13.8
18.061,-11.536,4.0861,1.0281,-1.5852,-1.3008,-43.8,13.38,13.62
12.612,-11.414,3.2553,0.80207,-1.1652,-0.82406,-43.56,12.66,13.68
6.1836,-9.8611,2.3155,0.73854,-0.40073,0.1127,-43.08,11.22,13.92
3.9908,-9.1665,1.9205,0.79138,-0.2642,0.83719,-42.78,10.56,13.98
0.51757,-8.2676,1.0215,0.70066,-0.42669,1.4267,-42.24,9.96,13.98
-2.6015,-8.1177,0.49033,0.56322,-0.62644,1.7517,-41.28,9.18,13.74
-3.6639,-7.4367,0.40861,0.43738,-0.71441,1.8689,-40.5,9.0,13.44
-4.413,-6.6876,0.57205,0.31398,-0.7025,1.9673,-39.3,9.42,12.96
-4.8625,-5.9657,1.0624,0.20159,-0.52626,2.0953,-37.02,11.64,13.14
-4.8216,-6.1155,1.3212,0.022297,0.096211,2.3781,-36.24,13.02,13.68
-4.3994,-6.5378,1.4301,-0.044899,0.35186,2.4551,-35.64,14.28,14.28
-1.9477,-7.5457,0.99429,-0.30574,1.0095,2.5217,-34.68,16.14,15.18
-0.10896,-8.3493,1.5391,-0.59773,1.2984,2.314,-34.14,16.92,15.18
1.1441,-10.052,2.3699,-0.80695,1.7187,2.2544,-33.6,17.52,14.76
8.4038,-18.456,3.3778,-0.98471,2.2263,2.7687,-33.24,18.24,13.62
16.576,-19.15,2.8194,-1.1301,2.7367,2.8253,-33.48,18.48,13.2
19.246,-19.477,2.9148,-1.0519,3.5241,2.3747,-34.02,19.26,13.5
19.504,-19.532,3.0101,-1.029,3.9337,1.8344,-34.14,19.86,13.98
19.532,-18.701,2.6015,-1.0495,2.9364,1.0088,-34.2,20.64,14.46
19.177,-12.517,1.6753,-1.0174,1.8298,0.78741,-34.44,22.14,15.0
16.998,-9.8475,1.6344,-0.99754,1.237,0.5736,-34.5,23.04,15.42
14.206,-6.0338,1.3484,-1.0183,1.2028,0.20556,-34.56,24.6,15.78
13.253,-3.337,0.85808,-1.0311,1.2373,0.042761,-34.92,25.2,15.78
12.694,-1.9477,0.8036,-1.0003,1.3256,-0.21441,-35.28,25.8,15.9
11.496,3.7047,-0.12258,-0.73273,1.1609,-0.56291,-36.0,26.94,16.44
10.706,6.4697,-0.88532,-0.46456,0.84758,-1.0168,-36.18,27.66,16.86
9.2346,8.4719,-1.58,-0.21319,0.41875,-1.4923,-36.12,28.44,17.16
8.7034,8.4719,-1.362,0.22449,-0.39095,-2.2263,-35.52,29.82,17.04
8.1858,7.8045,-0.99429,0.55803,-0.85765,-2.6478,-35.22,30.24,16.56
7.8317,6.8102,-0.74912,0.89919,-1.2239,-2.9832,-35.1,30.24,15.78
7.7772,4.7399,0.32689,1.2285,-1.4215,-3.3265,-35.64,29.76,14.64
8.6081,3.8954,1.3757,1.5742,-1.5369,-3.7467,-36.12,29.16,14.34
12.217,2.3427,2.3018,1.8017,-1.6594,-3.9331,-36.9,28.2,14.1
