Ax,Ay,Az,Gx,Gy,Gz,Mx,My,Mz
-4.3994,6.2926,-1.1032,0.076358,-0.14905,0.35552,-19.86,14.1,-29.64
-2.0294,5.7069,-0.040861,0.63011,0.56627,0.65332,-20.4,14.64,-29.28
2.0294,5.203,3.051,1.1903,0.46212,0.6857,-21.54,15.66,-28.74
3.9227,5.3256,5.3664,1.7837,0.13836,0.64019,-21.9,16.14,-28.38
5.7069,5.9385,8.8668,2.3961,0.063835,0.89186,-22.32,16.26,-27.96
11.891,5.4754,18.197,2.6499,0.84605,1.6851,-23.1,16.08,-26.7
18.701,-1.0215,19.45,3.1368,1.8347,2.2856,-23.16,15.72,-26.28
19.436,-7.2188,19.518,3.5968,1.9685,2.3992,-22.98,15.18,-25.86
19.532,-9.4117,19.532,4.0791,0.1405,2.2107,-21.9,13.5,-25.44
17.788,-6.674,19.191,4.0543,-0.35827,1.9367,-21.24,12.72,-25.38
15.105,-6.2109,17.216,4.0039,-0.1967,1.766,-20.4,11.94,-25.5
9.6704,-5.9657,12.027,3.5125,-0.24282,1.4224,-19.68,11.1,-25.68
4.018,-5.5299,5.2847,3.1249,-0.71044,1.1955,-18.06,9.42,-26.22
-0.1362,-5.993,2.0567,2.802,-1.0018,1.0657,-17.28,8.4,-26.64
-3.6639,-6.0611,-2.5742,2.1683,-0.98288,0.73793,-15.84,6.3,-27.42
-4.8216,-4.8897,-4.4266,1.8589,-0.88911,0.59376,-15.24,5.28,-27.9
-5.4754,-4.2904,-4.4947,0.77824,-0.37018,0.40073,-14.58,4.32,-28.38
-5.8159,-4.3585,-4.127,0.044899,0.086132,0.55497,-13.86,3.54,-28.92
-5.5707,-6.4833,-2.7513,-0.57605,0.43219,0.82436,-12.84,2.22,-29.94
-4.127,-7.3686,-2.2882,-1.2391,0.34453,0.96578,-12.48,1.8,-30.48
0.28603,-9.8339,1.1577,-2.2782,-0.2022,0.84147,-12.48,1.32,-31.44
2.5606,-10.869,4.1678,-2.554,-0.30268,0.65576,-12.6,1.08,-31.68
4.0861,-11.128,5.7614,-2.9798,-0.1182,0.11973,-12.72,0.9,-31.92
10.351,-10.665,17.761,-3.8515,0.39798,-0.36316,-12.9,1.2,-32.22
17.216,-12.068,19.314,-3.8207,0.56352,-0.45723,-12.96,1.56,-32.22
19.246,-12.762,19.504,-3.3402,1.547,-1.0647,-12.84,2.04,-32.04
19.423,-10.706,19.532,-2.6475,1.138,-2.5754,-12.96,2.94,-31.92
16.549,-7.0009,17.638,-2.5934,1.347,-2.9667,-12.9,3.6,-31.74
12.572,-3.4323,14.261,-2.6567,1.2648,-3.2403,-12.84,4.38,-31.62
7.6683,1.1305,9.9701,-2.7009,0.93035,-3.0174,-12.84,6.12,-31.26
5.8023,3.1735,7.3958,-2.6906,0.67287,-2.6258,-12.84,6.9,-31.2
4.6718,4.1951,5.9249,-2.6536,0.41905,-2.2755,-13.08,7.92,-31.08
2.9011,4.2904,2.9965,-2.4929,0.10324,-1.8824,-14.04,9.9,-31.02
1.9886,4.3177,1.185,-2.1796,-0.5623,-1.3689,-14.52,10.98,-31.14
0.62654,4.6037,-0.35413,-2.0974,-0.82222,-1.2141,-15.06,12.12,-31.02
-2.0431,5.8567,-1.3484,-1.7901,-1.193,-0.63897,-16.08,14.16,-30.78
-2.8194,6.7693,-1.2939,-1.43,-0.8262,-0.25443,-16.74,15.18,-30.6
-2.8467,7.3822,-1.0624,-0.91111,-0.23182,0.075136,-17.52,16.08,-30.54
-0.77636,8.5263,-0.46309,-0.19761,0.19273,0.29993,-18.6,18.18,-30.18
0.64016,8.4174,0.46309,1.0259,0.028405,0.49816,-19.2,19.14,-30.12
2.3563,7.9951,2.261,1.4374,-0.16341,0.48869,-19.74,19.86,-29.76
4.127,7.75,4.2632,2.5803,-0.41478,0.24618,-20.28,20.58,-29.52
8.2131,9.2074,12.735,3.0207,-0.16707,0.50244,-21.36,21.48,-29.28
13.103,7.8045,18.442,3.3524,0.33384,1.3983,-21.9,21.42,-29.22
19.409,-6.96,19.518,3.8045,0.97433,2.094,-22.02,21.0,-28.98
19.518,-13.675,19.532,4.3894,0.17898,2.2016,-21.12,19.5,-28.62
19.532,-13.253,19.532,4.5403,-1.0064,1.9462,-20.46,18.42,-28.68
18.387,-8.2812,19.532,4.4807,-1.1719,1.6811,-19.62,17.4,-28.62
11.073,-7.3141,16.072,4.1521,-0.25595,1.226,-18.42,14.88,-29.1
5.7614,-7.355,10.093,3.6569,-0.10324,1.1545,-17.88,13.56,-29.4
2.547,-6.7421,4.1133,3.2642,-0.29963,0.96914,-17.52,12.0,-29.94
-2.3018,-6.7693,-0.19068,2.8787,-0.40623,0.91294,-16.62,8.76,-30.9
-3.5004,-6.3335,-2.9284,2.4526,-0.44776,0.7535,-16.26,7.14,-31.56
-3.732,-5.5299,-4.4402,1.7501,-0.59834,0.48106,-15.9,5.4,-32.04
-4.6582,-4.5356,-5.1485,0.88545,-0.6576,0.36621,-15.06,2.16,-32.82
-5.9657,-5.0531,-3.9908,0.098349,-0.14813,0.4386,-14.58,0.66,-33.0
-5.9385,-6.17,-3.1735,-0.57116,0.34941,0.686,-14.28,-0.42,-33.18
-2.6423,-8.6762,-2.4653,-1.737,-0.12217,0.86437,-14.46,-1.68,-33.72
-0.8717,-10.311,-0.8036,-2.1426,-0.44471,0.84941,-14.88,-2.1,-33.96
0.72188,-11.564,1.9886,-2.8164,-0.78557,0.64263,-15.36,-2.4,-34.26
4.0997,-11.128,6.1019,-3.5476,0.067501,0.066279,-16.14,-2.7,-34.38
9.0575,-10.46,16.126,-4.1713,0.94104,-0.071777,-16.38,-2.64,-34.26
16.222,-11.713,19.109,-4.2208,1.0721,-0.1408,-16.56,-2.28,-34.02
19.477,-11.782,19.532,-3.4251,1.9145,-1.1634,-16.8,-1.2,-33.54
19.532,-10.338,19.532,-3.0882,1.5886,-1.8555,-16.8,-0.6,-33.18
18.537,-8.4446,19.532,-2.8989,1.2159,-2.5113,-16.8,0.24,-32.94
13.866,-3.9771,17.311,-2.857,1.9028,-2.9859,-16.98,1.02,-32.7
9.3844,0.61292,12.354,-2.7529,1.6484,-2.8781,-17.16,3.0,-32.4
8.0632,2.3291,9.0712,-2.6649,1.0763,-2.6768,-17.34,4.02,-32.4
4.8352,4.1133,4.4811,-2.6496,0.13836,-2.3121,-18.0,6.24,-32.34
2.9965,4.8216,2.9011,-2.5183,-0.3204,-1.9053,-18.42,7.32,-32.22
1.5936,5.6933,1.3757,-2.4199,-0.49114,-1.6903,-18.78,8.46,-32.16
-0.054481,7.1915,-0.81722,-1.9667,-0.91569,-1.0928,-19.62,10.56,-31.74
-1.6072,7.8589,-1.9341,-1.6209,-1.1387,-0.73731,-20.1,11.52,-31.44
-2.5334,8.431,-1.9886,-1.2117,-1.1466,-0.37049,-20.64,12.3,-31.26
-3.1191,8.322,-1.0624,-0.25992,-0.69852,0.093768,-21.78,14.16,-30.48
-2.3427,8.0088,-0.38137,0.52351,-0.29566,0.3656,-22.5,14.94,-30.12
-1.2531,7.6819,0.28603,1.2898,-0.20342,0.54,-23.1,15.6,-29.7
3.3778,6.8238,4.5901,2.0898,-0.30513,0.50091,-24.42,17.22,-28.74
3.3778,6.8238,4.5901,2.8124,-0.36621,0.35705,-24.42,17.22,-28.74
6.1292,8.2812,12.136,3.2364,-0.27,0.45479,-25.92,18.12,-27.66
10.025,7.9679,18.02,3.5397,0.42302,1.4261,-26.58,17.94,-27.36
19.137,-3.9227,19.504,4.0586,1.5229,2.2315,-27.3,17.1,-26.7
19.477,-10.324,19.532,4.7125,1.5953,2.7293,-27.12,16.2,-26.34
19.518,-12.381,19.532,4.8811,1.1332,2.8188,-26.7,15.3,-26.28
19.191,-7.8453,19.532,4.8014,-0.4328,2.4774,-26.22,14.4,-26.28
12.476,-5.993,15.677,4.5384,-0.34972,2.2159,-25.2,12.42,-26.7
7.1371,-6.6195,10.433,4.0189,-0.3598,1.8198,-24.66,11.22,-26.94
2.1929,-6.1155,5.3256,3.467,-0.52351,1.6594,-23.76,8.7,-28.14
-0.42223,-6.3062,2.2201,2.85,-0.57849,1.2581,-23.34,7.56,-28.8
-1.5119,-6.4152,0.10896,2.6563,-0.59926,1.1411,-22.74,6.12,-29.52
-1.9613,-6.4016,-1.1169,1.9328,-0.81031,0.68111,-22.14,4.68,-30.18
-3.4596,-6.0611,-2.8603,1.2633,-0.91049,0.42699,-21.0,2.04,-31.5
-4.6309,-6.4697,-2.6832,0.55955,-0.71654,0.33567,-20.46,0.9,-32.04
-5.884,-7.2188,-1.9477,-0.13256,-0.32865,0.37874,-19.68,-0.78,-33.12
-4.8352,-8.0769,-1.6072,-1.1784,0.15944,0.5455,-19.86,-1.38,-33.54
-3.9908,-8.8941,-1.1032,-1.5223,0.18509,0.57849,-20.1,-1.92,-34.02
-2.1929,-10.011,0.29965,-2.4768,0.032681,0.51068,-20.4,-2.28,-34.56
1.0624,-9.2618,3.2008,-3.1243,0.099876,0.28283,-21.06,-2.7,-35.22
4.8352,-8.717,11.332,-3.8982,0.64446,0.21136,-21.36,-2.7,-35.58
16.767,-11.877,19.218,-4.182,1.2037,0.52718,-21.48,-2.22,-35.76
19.191,-14.179,19.491,-4.0555,1.6454,0.37324,-21.48,-1.74,-35.58
19.491,-15.486,19.532,-3.1878,1.5455,-1.7297,-21.42,-1.2,-35.4
19.286,-9.2482,19.532,-3.0891,1.3277,-2.587,-21.24,0.24,-35.1
15.473,-3.3506,16.617,-3.2046,1.6344,-3.1814,-21.24,1.14,-35.04
11.7,-0.35413,13.157,-3.062,1.9148,-3.0962,-21.12,2.04,-34.92
7.6955,5.2711,7.8589,-2.8115,1.27,-2.7669,-21.3,4.14,-35.16
5.7342,7.0281,5.5843,-2.6072,0.73029,-2.5449,-21.42,5.46,-35.46
4.7535,7.2324,4.4539,-2.3479,0.02138,-2.2153,-21.66,6.84,-35.7
1.7162,5.7069,0.89894,-2.036,-0.8885,-1.963,-22.5,9.72,-35.94
-0.24517,6.0611,-0.36775,-1.7617,-1.7804,-1.6417,-22.92,11.16,-35.94
-2.1248,6.8647,-1.1169,-1.5207,-2.16,-1.2947,-23.4,12.3,-35.82
-4.808,7.5865,-0.9398,-1.0104,-1.4114,-0.72082,-24.9,14.7,-35.34
-4.9987,7.1915,-0.58567,-0.46395,-0.4722,-0.32834,-25.62,15.66,-35.16
-3.8954,6.8783,-0.39499,0.135,0.14172,0.0097738,-26.4,16.68,-35.1
-2.1793,6.456,0.12258,0.75289,0.16616,0.2306,-27.24,17.34,-34.92
1.9477,5.8976,3.9499,1.4722,0.1295,0.29902,-28.44,19.08,-34.74
4.3313,5.9657,5.6661,2.2703,0.34147,0.25534,-29.16,19.86,-34.56
8.1858,8.2812,12.79,2.7956,0.46609,0.31887,-29.7,20.4,-34.2
12.612,7.75,18.074,3.2724,1.0519,1.5843,-30.42,20.16,-33.66
17.856,3.5685,19.355,3.7116,1.8903,2.3873,-30.42,19.62,-33.3
19.327,-2.8875,19.504,3.9007,1.9068,2.6072,-30.0,18.66,-33.12
19.532,-10.488,19.532,4.5131,0.65546,2.8998,-28.26,16.5,-32.64
18.946,-7.2733,19.532,4.5528,-0.81337,2.6169,-27.24,15.48,-32.76
14.819,-5.598,14.778,4.299,-0.50183,2.0562,-25.02,12.96,-33.12
5.7614,-5.5707,9.5479,3.8995,-0.27611,1.7678,-23.88,11.64,-33.72
2.5061,-5.4481,6.2517,3.5039,-0.39737,1.5229,-22.92,10.26,-34.14
0.7355,-5.775,4.2223,3.3567,-0.44776,1.4416,-21.78,8.82,-34.8
-2.7241,-7.0281,-1.8524,2.8277,-0.55314,1.1338,-20.16,5.76,-35.58
-3.6775,-6.5105,-4.0452,2.1924,-0.70005,0.748,-19.08,4.02,-36.06
-5.7205,-5.0259,-4.4266,1.314,-0.78405,0.36499,-18.18,2.58,-36.3
-7.0417,-5.6116,-3.3642,-0.023824,-0.5565,0.27275,-16.44,-0.06,-36.84
-7.4095,-6.6876,-2.7377,-0.78557,-0.18815,0.53848,-15.84,-1.2,-37.02
-6.2517,-7.6002,-2.4108,-1.5363,-0.033903,0.74281,-15.6,-2.04,-37.14
-4.4811,-8.7443,-1.7434,-2.3311,-0.26664,0.83994,-15.48,-2.7,-37.38
-0.53119,-12.0,2.3836,-2.9948,-0.47861,0.86285,-16.02,-3.66,-37.92
2.9284,-12.926,5.5435,-3.4657,-0.31062,0.60109,-16.26,-3.9,-38.04
12.122,-13.716,17.475,-4.1224,0.52779,0.14661,-16.8,-3.96,-37.86
18.224,-16.208,19.286,-4.6035,0.73395,0.12859,-16.92,-3.72,-37.62
19.205,-16.331,19.477,-4.4089,1.1866,-0.032987,-16.86,-3.06,-37.26
19.532,-10.365,19.532,-3.463,1.6906,-1.4282,-16.5,-1.62,-36.48
18.605,-8.0224,19.532,-3.1194,2.5513,-1.8573,-16.38,-0.54,-36.06
16.086,-4.4811,15.091,-2.9838,2.7755,-2.5528,-16.14,1.44,-35.58
10.733,1.7434,11.605,-2.949,1.803,-2.7293,-16.32,2.82,-35.4
6.9872,3.6366,7.927,-2.9505,1.263,-2.7171,-16.26,4.32,-35.4
4.413,4.7671,5.9249,-3.0198,0.38912,-2.5895,-16.44,5.88,-35.28
2.9965,5.7342,4.985,-2.9205,-0.076053,-2.0476,-16.74,7.44,-35.28
1.1986,7.927,1.8387,-2.5867,-0.098655,-1.6338,-17.34,10.92,-34.74
0.85808,8.2539,0.23155,-2.1664,-0.33842,-1.3515,-17.58,12.54,-34.62
-0.54481,9.5751,-1.0215,-1.5409,-1.0913,-0.90897,-18.12,15.6,-34.02
-1.4165,9.8611,-0.8717,-0.9896,-1.1335,-0.58979,-18.48,17.04,-33.66
-1.8524,9.8339,-0.44947,-0.2193,-0.70097,-0.31948,-18.96,18.3,-33.12
-1.7706,9.4253,0.054481,0.66004,-0.29566,-0.16921,-19.56,19.5,-32.88
-0.14982,7.8453,1.6753,1.5415,-0.31154,-0.075747,-20.82,21.78,-32.52
1.9341,6.8647,3.9227,2.3781,-0.47495,-0.051007,-21.6,22.74,-32.22
4.3858,6.3198,7.355,3.1499,-0.39584,-0.018631,-22.56,23.82,-31.86
6.674,6.8374,12.258,3.5699,0.146,0.21105,-23.16,23.7,-31.56
12.231,5.5162,18.251,3.7513,0.98013,1.3069,-23.22,23.22,-31.56
19.232,-5.2438,19.491,4.0864,1.6554,2.4899,-22.8,21.3,-31.38
19.504,-12.395,19.532,4.3057,0.6353,2.576,-22.14,20.1,-31.38
19.532,-13.225,19.532,4.4486,-0.89247,2.3344,-21.48,18.84,-31.32
13.934,-5.7478,16.685,4.4196,-0.15485,1.6811,-20.28,15.9,-31.68
8.0769,-5.7478,12.381,4.1756,0.6463,1.4945,-19.62,14.16,-32.1
5.9249,-5.7342,9.8475,3.9279,0.64935,1.4435,-19.14,12.42,-32.82
1.4165,-5.4481,3.6775,3.3194,0.10904,1.1136,-17.82,8.64,-34.02
-0.49033,-5.8295,0.8717,2.9816,-0.21655,0.89247,-17.28,6.84,-34.5
-1.4574,-5.8976,-1.5391,2.4917,-0.51343,0.59437,-16.62,4.92,-35.1
-2.7649,-5.4481,-4.0044,1.8259,-0.72876,0.27031,-15.48,1.62,-35.76
-3.5004,-5.5435,-3.9635,0.60598,-0.70433,0.071471,-15.0,0.3,-36.06
-4.8897,-6.17,-3.4187,0.23305,-0.58643,0.13317,-14.64,-0.78,-36.24
-5.4754,-7.8862,-2.4789,-0.75931,0.04215,0.551,-14.52,-2.58,-36.54
-3.8954,-8.7034,-2.2882,-1.431,0.27672,0.68539,-14.76,-3.42,-36.72
-1.3757,-10.215,-0.89894,-2.1493,0.16952,0.70158,-15.12,-4.2,-37.02
1.0215,-11.509,1.6072,-2.7596,-0.22419,0.38607,-15.48,-4.74,-37.32
4.0997,-10.174,5.0531,-3.5726,-0.15852,0.036041,-16.02,-4.8,-37.32
5.5843,-9.2618,9.3027,-4.3649,0.062003,-0.050091,-16.2,-4.68,-37.2
15.01,-10.515,19.082,-4.5048,0.18295,0.31246,-16.5,-3.78,-36.66
19.395,-10.978,19.518,-3.9688,1.314,0.11698,-16.56,-2.46,-36.06
19.504,-10.964,19.532,-3.131,1.416,-1.201,-16.38,-1.74,-35.76
19.532,-9.2074,19.532,-2.7339,1.157,-1.9661,-15.96,-0.12,-35.04
14.519,-3.6094,17.448,-2.6429,1.6063,-2.4661,-16.08,1.8,-34.38
9.8339,0.31327,12.83,-2.5601,1.4438,-2.7125,-16.26,3.42,-34.14
7.2324,3.2825,8.5672,-2.481,1.1234,-2.5589,-16.44,5.4,-34.14
5.0395,5.3664,5.5162,-2.4884,0.75075,-2.3894,-16.98,7.08,-34.5
3.3778,6.1292,3.4732,-2.4447,0.43494,-2.0595,-17.82,8.82,-34.86
2.3836,6.1019,1.5391,-2.2309,0.26084,-1.7434,-18.6,10.92,-35.52
1.0624,6.5922,-0.50395,-1.9239,-0.17898,-1.4988,-19.86,12.96,-35.76
0.27241,7.0553,-1.0896,-1.4777,-1.2315,-1.062,-20.52,14.1,-35.82
-1.6753,7.7908,-1.6344,-1.1115,-1.4765,-0.72479,-21.84,16.32,-36.18
-2.3018,7.7636,-1.471,-0.58063,-1.1777,-0.40592,-22.26,17.52,-36.18
-2.9011,7.1915,-0.96704,0.047037,-0.58429,-0.13775,-23.22,19.68,-35.64
-1.8932,6.7693,-0.36775,0.72662,-0.13164,0.11423,-23.76,20.58,-35.28
2.2882,5.5707,3.3915,1.6542,-0.23243,0.29444,-24.66,21.78,-34.62
4.6173,5.3937,5.6116,2.2379,-0.35766,0.22785,-25.14,22.08,-34.2
6.674,5.7886,9.0303,2.4245,-0.29444,0.26267,-25.5,22.08,-33.9
9.8748,5.9249,14.397,2.74,0.043066,1.2688,-25.74,21.78,-33.6
17.38,1.0896,19.341,3.1511,0.68906,1.9963,-25.92,20.04,-33.36
19.395,-6.4833,19.518,3.6686,0.88759,2.4584,-25.38,19.02,-33.12
19.532,-9.8884,19.532,4.2944,0.27092,2.5192,-23.88,16.68,-32.76
18.782,-6.7966,19.532,4.0894,-0.48045,2.0772,-23.04,15.48,-32.76
14.792,-6.7421,17.448,3.9211,-0.478,1.8766,-22.08,14.4,-32.82
11.591,-6.7966,14.574,3.404,-0.27855,1.2569,-21.36,12.9,-32.94
3.7456,-5.993,6.4424,3.105,-0.33598,0.97341,-19.92,10.2,-33.66
1.2667,-6.0202,3.2008,2.8989,-0.20769,0.85918,-19.26,8.64,-34.08
-0.44947,-6.5105,-2.2882,2.6768,-0.16463,0.74678,-18.48,7.02,-34.56
-2.6968,-5.8976,-3.8682,1.8622,-0.5171,0.32406,-16.8,4.14,-35.28
-3.8273,-5.0668,-4.522,1.0699,-0.8152,0.051924,-16.08,2.7,-35.58
-5.0531,-4.699,-4.0589,0.24282,-0.80543,0.04948,-15.48,1.56,-35.76
-6.8374,-5.4209,-2.7104,-0.45784,-0.49052,0.3036,-14.82,-0.3,-36.3
-6.3607,-6.4152,-2.5606,-1.0672,-0.014661,0.60476,-15.06,-1.02,-36.6
-4.2223,-7.8998,-1.9613,-1.7556,0.079412,0.77183,-15.3,-1.62,-37.02
-1.1577,-10.134,-0.21793,-2.7141,-0.36744,0.82009,-16.08,-2.46,-37.5
0.84446,-10.12,1.7706,-3.2406,-0.48045,0.61881,-16.5,-2.76,-37.74
2.3836,-9.5342,4.0316,-3.8707,-0.050702,0.28008,-16.8,-3.0,-37.8
12.408,-10.379,17.965,-4.331,0.72326,0.37935,-17.1,-2.52,-37.38
18.469,-12.667,19.341,-4.2327,1.3042,0.43677,-16.92,-2.16,-37.2
19.409,-14.247,19.532,-3.4932,2.5253,-0.58796,-16.86,-1.5,-36.78
19.532,-9.5479,19.532,-2.5534,2.4206,-1.9395,-16.44,-0.12,-36.18
18.251,-5.5299,18.006,-2.0055,2.7675,-2.4813,-16.38,0.84,-35.88
14.533,-1.866,14.397,-1.8802,2.7715,-2.6597,-16.14,1.74,-35.7
9.7385,2.7377,8.4446,-1.8381,1.959,-2.5339,-15.78,3.84,-35.34
7.8589,4.4675,5.8704,-1.9013,0.82833,-2.3014,-15.6,5.04,-35.34
5.094,5.6388,2.1929,-1.9086,0.15974,-1.9768,-15.6,6.36,-35.58
2.3291,5.993,0.027241,-1.6631,-0.13011,-1.3912,-15.9,8.7,-36.06
1.0624,5.4754,-1.5663,-1.4377,-0.2981,-1.044,-16.14,9.9,-36.12
0.36775,5.4073,-2.3018,-1.3537,-0.46884,-0.88392,-16.26,11.28,-36.24
-0.88532,5.7069,-2.547,-1.1338,-0.96303,-0.41508,-16.38,12.48,-36.42
-1.8115,6.279,-1.7025,-0.76511,-0.8097,-0.086132,-17.34,14.52,-36.54
-1.5255,6.3335,-0.58567,-0.18845,-0.26389,0.40989,-17.7,15.54,-36.54
0.69464,5.5571,1.7434,0.53054,-0.24923,0.50702,-18.72,17.4,-36.54
2.5198,5.1894,3.4596,1.2877,-0.51526,0.60079,-18.96,18.18,-36.72
4.4811,4.9442,4.8488,2.0797,-0.89217,0.58399,-19.2,18.9,-36.66
6.3607,5.9521,7.9134,2.7883,-1.1301,0.62033,-19.8,19.62,-36.72
8.5127,6.9464,12.599,2.9538,-0.60751,1.2413,-19.98,19.5,-36.54
14.642,4.6854,18.891,3.339,0.54917,2.1628,-19.98,19.14,-36.24
19.327,-6.0611,19.504,3.8356,0.9557,2.6582,-19.02,18.0,-35.4
19.518,-12.0,19.532,4.1026,-0.31643,2.4801,-18.36,16.92,-35.28
19.518,-10.951,19.532,4.0732,-1.164,2.2663,-17.64,15.78,-34.98
15.159,-6.9328,18.088,3.8255,-1.0684,1.5049,-17.04,14.64,-34.8
7.927,-7.3141,11.659,3.5293,-0.23121,1.1451,-15.84,11.94,-34.98
4.2632,-7.3822,8.036,3.1292,-0.14722,0.92546,-15.48,10.44,-35.04
-0.57205,-7.355,1.6344,2.6851,-0.31398,0.77458,-14.82,7.2,-35.4
-1.9613,-7.2869,-1.1713,2.5061,-0.33292,0.72265,-14.58,5.7,-35.28
-2.9284,-6.9872,-3.1872,1.9804,-0.34483,0.52534,-14.46,4.26,-35.58
-3.6503,-6.1155,-4.3313,0.84147,-0.37202,0.2248,-14.28,2.88,-35.52
-4.8897,-5.1076,-3.7728,0.064446,-0.22388,0.18173,-13.98,0.3,-35.46
-5.3937,-5.8023,-2.9556,-0.60018,-0.011912,0.32315,-13.98,-0.66,-35.52
-4.8216,-7.0281,-2.7786,-1.6328,0.19548,0.46853,-14.46,-2.16,-35.46
-3.2553,-8.2131,-1.9341,-2.4309,-0.076969,0.47098,-14.88,-2.7,-35.34
-2.3699,-9.1529,-1.0079,-2.8256,-0.27306,0.47464,-15.42,-2.94,-35.28
2.0839,-9.9973,3.9635,-3.8949,-0.57941,0.27672,-16.26,-3.42,-34.98
5.9112,-9.8611,10.828,-4.664,-0.2135,-0.054367,-16.44,-3.24,-34.68
12.04,-11.768,18.129,-5.1426,0.46914,0.064752,-16.68,-2.94,-34.38
19.382,-18.142,19.504,-4.8335,0.86529,0.041539,-16.86,-1.86,-33.42
19.504,-15.895,19.532,-3.4123,1.9624,-1.6994,-17.04,-1.2,-33.12
19.532,-12.544,19.532,-2.8112,2.8576,-2.1145,-17.16,-0.6,-32.52
15.119,-2.5061,16.208,-2.4468,3.4749,-2.4905,-17.28,1.32,-31.74
11.822,1.0215,12.177,-2.3219,2.7263,-2.729,-17.46,2.4,-31.62
8.54,3.4868,7.6819,-2.2691,1.4242,-2.5623,-17.4,3.54,-31.38
4.7126,6.6059,3.5822,-2.2691,0.34911,-2.302,-17.82,6.12,-31.2
3.1872,7.0826,2.4789,-2.0079,-0.16218,-1.7058,-18.06,7.62,-31.02
1.1577,7.1915,0.24517,-1.675,-0.062003,-1.2688,-18.24,9.0,-31.02
-0.39499,6.4833,-2.6423,-1.3741,-0.14691,-0.96303,-18.48,11.94,-30.66
-1.1986,6.565,-2.8603,-1.182,-0.61087,-0.66798,-18.84,13.2,-30.54
-1.9205,6.5241,-2.4517,-0.99479,-0.85979,-0.31612,-18.9,14.46,-30.24
-2.2746,6.4288,-1.5119,-0.67317,-0.67745,0.096822,-19.38,16.92,-29.88
-0.054481,5.8023,0.53119,0.10232,-0.25717,0.48014,-19.62,18.06,-29.58
0.98067,5.5707,1.4438,0.41997,-0.31826,0.52809,-19.74,19.32,-29.28
2.9829,4.699,3.8137,1.511,-0.92302,0.56383,-19.86,20.4,-28.92
4.985,4.0316,6.4424,2.248,-1.252,0.46731,-20.52,22.14,-27.96
5.3528,4.6309,9.9837,2.7489,-1.1973,0.42944,-21.12,22.68,-27.48
6.9872,5.993,13.184,3.189,-0.05284,0.79718,-21.9,22.44,-26.64
15.895,2.1384,19.45,3.9114,1.6328,1.886,-21.84,21.6,-26.4
18.088,-3.1463,19.504,4.1389,1.4841,2.1927,-21.48,20.52,-26.04
19.355,-8.1858,19.532,4.6557,0.59682,2.7574,-20.88,19.38,-25.68
19.436,-9.793,19.532,4.6294,-1.1206,2.5653,-18.84,16.92,-25.26
15.827,-8.4446,19.341,4.2232,-1.5831,2.1099,-18.0,15.72,-25.2
9.1529,-8.036,14.86,3.8179,-1.2905,1.7706,-17.22,14.52,-25.26
2.4108,-7.641,8.2539,3.1957,-0.86773,1.4435,-15.72,11.82,-25.62
-0.96704,-7.3958,3.8682,3.0476,-0.72907,1.3934,-15.18,10.56,-25.98
-2.0567,-7.355,1.8932,2.8155,-0.46456,1.2709,-14.58,9.0,-26.46
-3.2553,-6.3879,-1.1169,2.1573,-0.42822,0.80023,-13.98,7.5,-27.0
-4.3177,-4.4811,-2.942,1.5134,-0.405,0.54489,-12.18,4.62,-27.72
-5.0531,-4.1678,-2.9011,0.83536,-0.10996,0.53695,-11.4,3.6,-27.96
-5.6661,-5.1621,-2.5061,0.23121,0.31643,0.69425,-10.5,2.94,-28.38
-4.6718,-6.0066,-2.656,-0.60353,0.70219,1.0052,-9.78,2.16,-28.8
-3.1735,-7.3822,-2.2882,-1.259,0.40225,1.0589,-9.78,1.86,-29.16
-2.547,-8.2812,-1.7434,-1.9181,0.11362,1.0082,-10.02,1.8,-29.52
0.01362,-10.052,1.362,-2.5155,0.15333,0.80817,-10.68,1.56,-30.18
2.6423,-9.7113,5.0395,-3.226,0.49236,0.39156,-10.98,1.38,-30.3
13.021,-12.177,18.442,-3.8387,0.97708,0.17929,-10.98,1.44,-30.3
18.592,-15.568,19.395,-3.8258,1.3317,0.0097738,-10.56,1.68,-30.0
19.409,-15.704,19.518,-3.3036,1.6304,-1.2315,-10.32,2.1,-29.64
19.518,-14.124,19.532,-2.8564,1.3668,-2.2712,-10.14,2.4,-29.4
18.251,-10.774,19.532,-2.7468,2.3167,-2.7526,-10.02,2.94,-29.22
11.741,-3.5958,15.255,-2.6808,2.6661,-3.1347,-9.9,4.26,-28.98
9.1937,-0.62654,11.809,-2.6261,2.2126,-3.0384,-10.02,4.98,-28.74
5.9521,3.0918,6.279,-2.6209,1.5589,-2.938,-10.26,7.44,-29.04
3.909,4.9987,4.7671,-2.6454,0.67959,-2.4151,-10.5,8.7,-29.1
3.1872,5.3119,3.8954,-2.5644,0.57544,-2.157,-10.8,10.2,-29.16
1.975,6.279,0.44947,-2.0892,0.15913,-1.4481,-11.52,13.14,-28.98
1.1169,7.1234,-0.92618,-1.766,-0.46701,-1.0617,-11.82,14.58,-29.04
0.1362,7.8045,-1.4438,-1.4172,-0.94928,-0.72815,-12.18,16.08,-28.92
-1.0488,8.6353,-1.0215,-0.74923,-0.69608,-0.31398,-13.2,18.9,-28.98
-0.64016,8.5672,-0.19068,-0.14203,-0.30788,-0.047647,-13.68,20.22,-29.1
0.24517,8.1722,0.89894,0.19945,-0.26909,0.056505,-14.1,21.6,-28.92
2.4108,6.7421,3.623,1.3576,-0.6634,0.20831,-14.88,23.94,-28.98
4.0861,5.8023,5.5299,2.2229,-0.85307,0.20647,-15.24,24.84,-28.98
5.6797,5.2302,11.25,2.9358,-0.81886,0.24374,-16.02,25.68,-28.86
9.9292,4.7671,16.481,3.62,0.23182,1.0226,-16.38,25.56,-28.86
12.367,2.9284,18.769,4.09,1.1561,1.8977,-16.74,25.14,-28.92
17.897,-4.4402,19.491,4.4221,1.0831,2.6716,-16.8,24.06,-29.16
19.436,-11.795,19.532,4.5952,0.48839,2.7791,-16.44,22.68,-29.34
19.028,-12.217,19.532,4.3439,-1.2514,2.2278,-15.36,19.68,-29.88
12.667,-9.3844,17.107,4.0696,-1.6955,1.7785,-14.94,18.0,-30.42
4.1542,-7.9407,9.9973,3.7608,-0.88301,1.4404,-14.22,14.4,-31.32
0.95342,-7.4776,6.2926,3.3372,-0.19975,1.284,-13.8,12.42,-31.92
-1.0079,-7.2869,2.547,2.8347,0.25137,1.1432,-13.5,10.26,-32.58
-2.9965,-6.279,-2.656,2.3265,0.14355,0.94501,-12.72,6.12,-33.48
-3.6775,-5.094,-4.5083,1.6115,-0.097738,0.65607,-12.12,4.02,-34.08
-4.2223,-3.732,-4.9033,0.39859,-0.046731,0.45265,-10.98,0.18,-34.86
-4.9714,-4.3313,-4.3449,0.016799,0.028405,0.47495,-10.44,-1.5,-35.04
-4.9306,-5.5435,-3.8409,-0.98807,0.068111,0.74556,-9.96,-2.88,-35.16
-4.0589,-6.279,-3.051,-1.6014,-0.18051,0.82131,-9.66,-3.9,-35.22
-2.656,-7.3958,-1.8387,-2.2223,-0.48686,0.78863,-9.72,-4.56,-35.46
0.44947,-9.7794,2.1384,-2.7718,-0.63011,0.57391,-10.26,-5.4,-35.82
2.3836,-10.719,4.6854,-3.1621,-0.48228,0.13164,-10.38,-5.46,-35.82
7.6002,-10.787,15.623,-4.0308,0.000611,-0.40012,-10.62,-5.46,-35.64
13.743,-12.735,19.041,-3.9969,0.45051,-0.40928,-10.68,-5.04,-35.4
18.701,-14.152,19.477,-3.7116,1.1606,-0.50793,-10.74,-4.62,-35.16
19.504,-14.451,19.532,-2.6722,2.492,-2.0461,-10.74,-4.14,-35.1
19.532,-12.599,19.532,-2.3586,2.208,-2.7416,-10.62,-3.66,-34.86
15.119,-6.5786,15.541,-2.3463,1.923,-3.1408,-10.8,-2.4,-34.44
10.706,-3.4187,11.605,-2.445,1.2495,-3.3552,-10.8,-1.62,-34.38
5.6116,1.1169,6.1564,-2.4942,1.0812,-3.2596,-10.98,-0.84,-34.5
3.0101,3.4459,3.7728,-2.653,0.74373,-2.7791,-11.7,1.38,-34.86
1.7025,5.5435,2.7377,-2.6246,0.55497,-2.2724,-12.0,2.82,-34.98
1.1305,5.8159,1.8932,-2.4334,0.2978,-1.7272,-12.48,4.02,-35.28
0.054481,6.3062,-0.74912,-2.1756,-0.28222,-1.2617,-13.38,6.72,-35.52
-0.68102,7.1779,-1.4438,-1.9218,-1.2504,-0.68997,-13.86,7.98,-35.76
-2.1112,8.3901,-0.83084,-1.6335,-1.3369,-0.49572,-14.7,10.44,-36.0
-2.4925,8.9077,-0.19068,-0.70616,-0.71196,0.083994,-15.12,11.88,-36.0
-2.2474,8.9349,0.32689,0.1741,-0.22174,0.3259,-15.6,13.08,-36.06
0.21793,7.6819,2.4653,1.0941,-0.25779,0.45937,-16.8,15.48,-36.18
1.9341,7.0009,4.0997,1.9911,-0.54672,0.51893,-17.34,16.68,-36.24
3.4732,6.4152,7.3686,2.7489,-0.6521,0.52412,-17.88,17.7,-36.24
6.8374,6.0883,12.544,3.2064,-0.38118,0.58887,-18.96,18.84,-35.94
11.441,5.0123,18.197,3.3912,0.97311,1.7565,-19.32,18.72,-36.06
15.418,2.152,19.368,3.5781,1.2617,2.1811,-19.68,17.88,-35.82
19.463,-12.449,19.532,4.2648,0.5901,2.8222,-19.08,15.42,-35.4
19.532,-15.704,19.532,4.6291,-0.67684,2.7901,-18.54,13.74,-35.22
18.51,-11.441,19.314,4.5152,-1.0986,2.0128,-17.34,10.92,-34.86
11.346,-7.6002,16.14,4.2147,-0.34453,1.6536,-16.8,9.48,-34.8
6.4969,-7.4367,10.815,3.6615,-0.33109,1.4343,-16.5,7.74,-34.98
4.413,-7.0962,8.322,3.1991,-0.51099,1.1774,-16.14,6.06,-35.1
-0.89894,-7.0281,1.4982,2.901,-0.57269,1.0156,-15.6,2.64,-35.64
-2.2474,-7.0281,-1.58,2.5644,-0.70188,0.77916,-15.24,0.78,-35.76
-2.9284,-6.2381,-4.6309,1.9664,-0.99357,0.38851,-14.94,-1.02,-35.88
-4.9714,-4.9578,-4.3858,1.1701,-1.273,0.071777,-14.1,-4.14,-36.0
-6.3471,-5.2575,-3.4051,0.10843,-0.70921,0.15791,-13.68,-5.34,-35.76
-6.8783,-5.6661,-3.1599,-0.19395,-0.2865,0.27947,-13.44,-6.18,-35.82
-4.9306,-7.2869,-3.1599,-1.2153,0.29719,0.48564,-13.74,-7.26,-35.76
-3.514,-8.4174,-2.1656,-2.0143,-0.10079,0.52137,-14.34,-7.32,-35.94
-1.5527,-9.4798,0.21793,-2.7101,-0.32926,0.46914,-14.88,-7.5,-36.3
2.5742,-10.011,4.6718,-3.4108,0.05284,0.027489,-15.66,-7.8,-36.54
7.7636,-9.398,12.286,-3.7394,0.416,-0.17959,-15.84,-7.68,-36.48
12.027,-10.529,17.557,-4.5232,0.83169,-0.36652,-16.02,-7.2,-36.36
19.382,-16.167,19.504,-4.4169,1.285,-0.72846,-15.96,-6.12,-35.94
19.504,-13.539,19.532,-3.9395,1.2025,-1.9377,-15.84,-5.28,-36.0
18.769,-10.746,19.532,-3.5247,1.4597,-2.416,-15.78,-4.44,-35.7
13.539,-3.8273,16.712,-3.1851,2.6435,-2.7287,-15.48,-2.58,-35.4
11.25,-0.57205,13.389,-3.0934,2.5632,-2.7626,-15.66,-1.5,-35.52
7.9951,2.9011,9.0848,-2.9025,1.204,-2.6622,-15.72,-0.12,-35.64
6.1292,4.3177,7.3277,-2.901,0.24129,-2.3216,-15.96,1.38,-36.0
2.0567,7.3141,4.0589,-2.7843,-0.1857,-1.7926,-16.56,4.92,-36.06
1.4029,7.5184,3.1599,-2.4291,-0.24343,-1.3693,-16.8,6.78,-36.06
0.35413,7.9543,1.0215,-1.7318,-0.50916,-0.91783,-16.98,8.52,-35.88
-1.362,8.5944,-0.50395,-1.5272,-0.53909,-0.75595,-17.34,12.06,-35.64
-1.4165,8.6898,-0.54481,-0.80604,-0.24343,-0.32895,-17.58,13.62,-35.58
-1.0896,8.7034,-0.068102,-0.15974,-0.026267,-0.17226,-17.94,15.06,-35.4
0.36775,8.4446,0.78998,0.57452,-0.23671,-0.10385,-18.6,17.7,-35.04
0.92618,7.6683,1.5119,1.2889,-0.6744,-0.075136,-19.02,19.02,-35.04
2.9556,5.8159,4.7126,1.9884,-1.0131,-0.13806,-19.92,21.06,-34.86
3.5822,5.1349,6.1428,2.9031,-0.70341,-0.20739,-20.1,21.66,-34.68
3.9635,5.5435,8.0769,3.1148,0.074831,0.20922,-20.28,21.78,-34.5
11.046,4.4266,18.428,3.3265,1.0919,1.182,-20.04,21.06,-34.14
15.636,-0.40861,19.395,3.6854,1.6768,2.1594,-19.62,19.98,-34.2
18.96,-5.9249,19.518,4.0323,1.1652,3.0113,-18.96,18.66,-34.08
19.532,-10.61,19.532,4.2663,0.22083,3.1542,-17.22,15.54,-34.32
17.584,-8.1177,19.423,4.0293,-1.3421,2.6631,-16.32,13.86,-34.32
13.198,-7.5048,17.625,3.8228,-0.67012,2.3586,-15.6,12.24,-34.38
6.279,-7.7364,10.597,3.4816,-0.07422,2.0696,-14.34,8.88,-34.68
3.2961,-6.3471,5.9521,3.1738,0.12492,1.7727,-13.62,7.2,-34.98
1.9205,-5.8159,3.0237,2.9441,0.05681,1.5134,-13.02,5.46,-35.22
-0.24517,-5.993,-0.92618,2.5739,-0.34606,0.9276,-11.76,1.98,-35.7
-1.6208,-5.4754,-2.547,1.6805,-1.0369,0.47892,-11.1,0.54,-35.82
-2.9556,-4.9442,-3.2008,1.3463,-1.1368,0.29535,-10.5,-0.72,-36.0
-5.5162,-5.3937,-3.051,0.32834,-0.86346,0.069333,-9.9,-2.88,-36.24
-6.2245,-6.4424,-2.8875,-0.31673,-0.35155,0.12248,-9.96,-3.72,-36.24
-5.9793,-7.0553,-2.6696,-0.99693,0.10751,0.22022,-10.14,-4.44,-36.36
-4.7535,-7.8181,-1.9886,-1.6811,0.30146,0.36041,-10.8,-4.92,-36.42
-1.757,-9.9292,0.47671,-2.6359,0.35675,0.33934,-12.12,-5.52,-36.96
0.61292,-9.8066,2.2065,-2.9914,0.41783,0.27092,-12.48,-5.7,-37.08
3.7865,-9.3844,7.927,-4.1753,0.748,0.057421,-12.9,-5.64,-37.26
17.407,-13.988,19.218,-4.4465,0.96547,0.17837,-13.2,-5.1,-37.26
19.273,-15.445,19.491,-4.3243,0.66462,-0.3543,-13.26,-4.68,-37.2
19.504,-15.377,19.532,-3.7748,0.18631,-1.3314,-13.26,-3.96,-37.08
18.074,-8.322,19.518,-3.1805,2.7965,-2.127,-13.32,-2.58,-36.96
13.838,-3.0646,16.058,-2.8686,3.3619,-2.6041,-13.26,-1.62,-36.78
11.877,-0.8036,13.661,-2.7898,3.0415,-2.6948,-13.26,-0.42,-36.9
9.3027,2.3836,10.569,-2.7058,1.3421,-2.5076,-13.38,0.84,-37.02
4.808,6.0611,6.0611,-2.6576,0.47953,-2.2071,-13.86,4.44,-37.68
3.2689,6.7829,4.1951,-2.4334,0.068417,-1.8008,-13.98,6.42,-37.92
2.2201,6.96,2.3836,-1.8589,-0.34147,-1.3137,-14.04,8.22,-37.98
0.96704,7.355,-0.027241,-1.6664,-0.51496,-1.2071,-14.04,10.2,-37.98
-1.1577,8.1858,-1.5255,-1.3268,-0.8152,-0.98807,-14.46,13.68,-37.98
-1.9886,8.2948,-1.1577,-0.76877,-0.85827,-0.52901,-14.76,15.3,-37.8
-2.1929,8.0632,-0.61292,-0.20617,-0.57513,-0.18906,-15.06,16.74,-37.92
-0.50395,7.0553,0.51757,0.44868,-0.37843,0.060476,-15.84,19.26,-37.74
0.99429,6.5105,1.8115,1.1081,-0.58735,0.16554,-16.26,20.34,-37.74
3.1872,5.6661,4.7671,1.8192,-0.67684,0.146,-16.62,21.3,-37.74
3.5413,5.7069,6.4833,2.558,-0.66035,0.068722,-17.4,22.26,-37.68
5.4481,6.7012,11.863,3.1893,0.22846,0.6072,-17.64,22.2,-37.38
8.3493,6.17,16.031,3.4001,0.99357,1.7407,-17.82,21.42,-37.02
19.082,-7.7227,19.504,3.6249,1.2156,2.587,-17.76,18.9,-36.36
19.423,-12.572,19.532,3.7977,0.7025,2.7526,-17.34,17.28,-36.0
19.518,-16.235,19.532,3.9172,-1.0931,2.3848,-16.32,13.8,-35.34
15.064,-7.355,18.646,3.9489,-0.94837,1.8531,-15.96,11.88,-35.04
10.011,-7.069,14.247,3.9654,-0.44929,1.6558,-15.54,10.14,-34.92
10.011,-7.069,14.247,3.8619,-0.052534,1.5427,-15.54,10.14,-34.92
1.0624,-5.0531,3.3778,2.9795,-0.073609,1.0449,-14.64,4.98,-34.86
-1.7843,-5.4754,-0.44947,2.8228,-0.23946,0.95173,-14.28,3.42,-34.8
-2.6423,-5.3528,-2.0294,2.043,-0.64507,0.65607,-13.98,1.74,-34.68
-4.1542,-4.3313,-4.2223,1.336,-0.61361,0.39218,-13.32,-1.08,-34.62
-4.6718,-4.0589,-4.1951,0.62644,-0.24496,0.38759,-13.08,-2.4,-34.62
-4.9442,-4.5083,-3.5413,0.022602,0.11606,0.58185,-12.78,-3.12,-34.56
-4.2768,-6.3879,-3.1599,-0.55222,0.17746,0.77336,-12.48,-4.2,-34.62
-3.4187,-7.355,-2.4517,-1.2364,-0.18662,0.86926,-12.78,-4.44,-34.8
-1.6753,-10.283,0.50395,-1.9172,-0.51526,0.84299,-13.56,-4.68,-35.22
-0.054481,-11.387,3.3778,-2.4047,-0.43524,0.71502,-13.74,-4.68,-35.28
2.0294,-11.618,4.4675,-2.8332,-0.021991,0.31307,-14.04,-4.68,-35.34
9.0984,-11.795,16.916,-3.9346,0.71074,-0.24648,-14.34,-4.14,-35.04
15.8,-14.56,19.205,-4.131,0.79993,-0.19914,-14.34,-3.78,-34.86
19.068,-14.519,19.491,-3.6188,1.3699,-1.2346,-14.46,-2.88,-34.62
19.532,-12.681,19.532,-3.1536,1.6228,-1.9377,-14.46,-2.46,-34.38
18.251,-8.6489,19.532,-2.9389,2.4529,-2.4841,-14.52,-1.86,-33.96
16.222,-5.8023,18.837,-2.6991,2.6093,-2.8567,-14.58,-1.08,-33.9
10.433,1.0624,12.476,-2.4868,2.0849,-2.8595,-14.82,0.84,-34.02
8.1586,3.6094,9.2346,-2.2956,1.3665,-2.7425,-15.0,2.1,-34.02
6.0066,5.3392,4.9033,-2.1863,0.61789,-2.5326,-15.12,3.48,-34.32
3.1599,6.6331,2.9965,-1.8317,-0.012217,-1.9016,-15.48,6.48,-34.44
2.3291,6.4424,1.1577,-1.4826,-0.34178,-1.6109,-15.72,8.1,-34.5
1.1986,6.5105,-0.35413,-1.3262,-0.61423,-1.4746,-15.9,9.66,-34.5
-1.2395,6.9872,-1.6753,-0.93707,-1.2822,-0.99999,-16.32,12.24,-34.38
-2.656,7.3686,-1.2803,-0.58735,-1.1536,-0.60781,-16.68,13.56,-34.14
-2.6151,7.3414,-0.92618,-0.064446,-0.62522,-0.23274,-16.92,14.82,-33.96
-0.50395,6.674,0.28603,0.85857,-0.23915,0.1573,-17.34,17.28,-33.72
0.78998,6.1836,1.6753,1.1652,-0.37996,0.26267,-17.52,18.36,-33.72
1.7706,5.8976,2.7377,1.8402,-0.75106,0.3989,-17.58,19.38,-33.54
3.1872,5.9657,4.7671,2.846,-0.66126,0.39431,-17.58,19.98,-33.24
5.5162,7.4095,9.9973,3.222,-0.29535,0.61606,-17.7,20.04,-32.4
8.8941,7.0826,15.377,3.4618,0.34331,1.4468,-17.76,19.62,-31.92
17.897,-1.8796,19.477,3.7483,0.85124,2.4395,-17.16,17.52,-31.14
19.327,-8.322,19.532,4.0598,0.63194,2.693,-16.68,16.08,-31.02
19.504,-12.163,19.532,4.3466,0.0082467,2.5849,-15.96,14.52,-30.66
19.532,-10.351,19.532,4.1511,-0.74617,1.9936,-15.06,13.2,-30.36
12.381,-6.9736,16.494,3.904,-0.51924,1.6558,-13.68,10.2,-30.36
7.7091,-7.1643,12.136,3.5226,-0.17929,1.4398,-12.9,8.52,-30.6
4.2495,-6.674,4.3585,3.1301,-0.022907,1.2593,-11.64,5.28,-30.72
-0.29965,-6.4424,1.0215,2.7782,0.039095,1.1463,-11.16,3.54,-30.84
-1.7025,-6.5105,-2.6015,2.3793,-0.17196,0.956,-10.68,1.8,-30.96
-2.0839,-5.8023,-3.8818,1.7226,-0.57055,0.57696,-10.14,0.06,-31.02
-3.8137,-4.2904,-4.4811,0.92852,-0.75747,0.27397,-8.88,-3.0,-31.08
-5.9657,-4.4402,-3.8001,0.19242,-0.57605,0.25015,-8.52,-4.26,-31.08
-6.6467,-5.3119,-3.5004,-0.43463,-0.25351,0.4945,-8.34,-5.28,-31.14
-4.4539,-6.8102,-2.6696,-1.3341,0.025045,0.7025,-8.34,-6.78,-31.26
-2.8603,-7.5321,-1.362,-1.9707,-0.0067195,0.62217,-8.7,-7.32,-31.56
-1.7025,-8.322,-0.081722,-2.2767,-0.047037,0.53756,-9.12,-7.74,-31.74
0.96704,-9.4117,3.6366,-3.0446,0.063835,0.047037,-9.36,-7.98,-31.92
10.025,-10.406,17.175,-3.7461,0.46701,-0.32865,-9.84,-7.98,-31.62
14.097,-12.449,18.946,-4.124,0.832,-0.24862,-9.9,-7.68,-31.5
18.701,-15.037,19.463,-3.977,1.1732,-0.3882,-9.84,-7.56,-31.26
19.518,-14.165,19.532,-3.4416,0.9615,-1.799,-9.36,-6.6,-30.66
18.646,-11.087,19.532,-3.4239,1.839,-2.1603,-9.24,-6.0,-30.18
17.039,-8.1995,18.21,-3.4917,2.6594,-2.6215,-9.18,-5.28,-29.88
12.204,-0.89894,13.471,-3.415,2.4383,-2.7428,-9.18,-3.96,-29.4
9.3436,2.2065,10.229,-3.3463,1.5699,-2.6976,-9.3,-2.94,-29.52
5.203,7.3686,6.4288,-3.313,0.76419,-2.6344,-9.54,-0.24,-30.0
3.9635,7.8317,5.2847,-3.0442,-0.029016,-2.0785,-9.72,1.44,-30.12
3.1872,7.6819,4.1542,-2.6066,-0.49511,-1.7584,-9.9,3.18,-30.3
0.83084,8.3084,1.7162,-2.1429,-0.89767,-1.5525,-10.08,4.74,-30.3
-1.3212,9.3572,0.49033,-1.704,-0.97586,-1.2703,-10.26,6.24,-30.3
-3.4187,10.106,0.68102,-1.1686,-0.49358,-0.93737,-10.86,9.24,-30.12
-2.6696,9.507,0.89894,-0.11698,0.51679,-0.63408,-11.28,10.68,-30.18
0.081722,7.9679,1.0624,0.24587,0.47556,-0.53359,-11.76,12.12,-30.12
0.8717,6.9872,2.0567,1.2822,-0.31062,-0.33903,-12.66,14.64,-30.6
2.261,5.6252,4.2223,2.0137,-0.53665,-0.25504,-12.9,15.84,-30.66
2.8875,5.38,5.5707,2.7092,-0.38149,-0.12095,-13.38,16.8,-30.96
6.6059,5.993,12.83,3.2669,0.1408,0.29199,-13.92,17.7,-30.48
10.202,4.7944,17.734,3.8637,0.80543,1.9621,-13.8,17.4,-30.18
17.57,-3.8001,19.477,3.9566,0.75839,2.4893,-12.78,15.9,-29.4
19.409,-12.108,19.532,4.0525,0.30177,3.404,-12.0,14.76,-28.86
19.518,-13.634,19.532,4.0497,-0.44624,3.2165,-11.1,13.68,-28.62
17.434,-9.2891,19.532,3.9193,-0.91172,2.7825,-10.32,12.54,-28.44
8.9758,-7.4503,13.988,3.864,-0.13317,2.463,-9.0,10.02,-28.56
6.7285,-7.0553,11.332,3.5073,0.43371,1.9261,-8.46,8.64,-28.8
2.1929,-5.4209,4.5083,3.1542,0.46242,1.7801,-8.1,7.32,-29.04
0.69464,-5.2711,1.4301,2.8121,0.35736,1.449,-7.32,4.5,-29.58
-0.83084,-5.2166,-1.6753,2.4609,0.076969,1.1267,-6.96,3.24,-30.0
-1.4165,-5.0259,-2.8603,1.9291,-0.2981,0.75656,-6.42,1.98,-30.18
-3.0782,-3.9363,-4.0044,1.2672,-0.56108,0.47922,-5.58,0.24,-30.9
-4.2904,-4.1406,-3.5822,0.58063,-0.40745,0.4496,-5.52,-0.54,-31.14
-4.7944,-6.3335,-3.1735,-0.024435,-0.18876,0.56749,-6.12,-1.5,-31.98
-3.8001,-7.4367,-2.9965,-0.97677,0.23702,0.6634,-6.72,-1.98,-32.46
-2.4108,-8.5127,-2.6151,-1.7251,0.015272,0.54,-7.38,-2.4,-33.06
-1.1577,-9.7385,-0.68102,-2.3854,-0.12767,0.29108,-7.98,-2.88,-33.66
3.1735,-11.223,4.3177,-2.9227,-0.13256,-0.13103,-8.7,-3.12,-34.32
6.1564,-10.447,9.0575,-3.8744,-0.040623,-0.63347,-8.94,-3.0,-34.44
16.876,-13.498,19.259,-4.5974,0.014661,-0.56749,-9.12,-2.46,-34.38
19.205,-13.743,19.504,-4.2312,0.92577,-0.91385,-9.12,-2.04,-34.2
19.45,-13.28,19.532,-3.8756,0.9276,-1.42,-9.3,-1.56,-34.08
19.532,-11.795,19.532,-3.0992,1.2297,-2.281,-9.24,-0.84,-33.96
14.369,-5.8567,16.957,-2.8848,2.091,-2.6618,-9.48,0.66,-33.6
10.351,-1.4846,13.048,-2.7449,1.4945,-2.9263,-9.54,1.5,-33.48
5.3119,3.0646,8.0632,-2.7199,1.1322,-2.8482,-9.96,3.48,-33.42
3.2553,5.1213,6.1292,-2.7458,0.44502,-2.3439,-10.38,4.68,-33.6
1.975,6.5105,4.8216,-2.6939,0.37874,-2.0965,-10.86,6.06,-33.54
1.58,6.4152,2.3427,-2.2428,0.33292,-1.4896,-12.3,9.06,-33.48
0.70826,6.4152,-0.054481,-1.8744,-0.14722,-1.2498,-12.84,10.56,-33.3
-0.51757,6.851,-1.0351,-1.5492,-0.77641,-0.95417,-13.62,12.0,-33.18
-2.8058,7.4503,-0.6674,-0.95997,-0.75411,-0.47739,-14.94,14.52,-33.0
-3.0237,7.7091,-0.027241,-0.37141,-0.23335,-0.14783,-15.66,15.72,-32.76
-2.5742,7.75,0.29965,-0.016493,-0.0064141,-0.0061087,-16.14,16.98,-32.64
-0.5993,7.3141,1.1169,1.058,-0.073609,0.27153,-16.92,18.06,-32.58
2.7922,6.1428,3.9771,1.7248,-0.49205,0.32345,-18.06,19.98,-32.4
3.514,5.8023,5.2575,2.3726,-0.76664,0.29841,-18.6,20.82,-32.28
3.8682,5.6661,7.246,2.9871,-0.38882,0.47312,-19.2,21.24,-32.1
9.8066,5.9249,17.352,3.0751,0.052534,0.81703,-19.8,21.12,-31.92
14.901,2.0431,19.259,3.4984,1.2798,2.0076,-19.92,20.46,-31.8
17.775,-2.0294,19.463,3.7706,1.0739,2.5763,-19.62,19.26,-31.8
19.504,-12.354,19.532,4.1023,0.46853,2.978,-18.72,16.38,-31.62
19.532,-10.61,19.532,4.1282,-0.50702,2.7086,-17.76,14.76,-31.44
12.626,-7.5729,16.521,3.9563,-0.7138,2.3818,-16.2,11.82,-31.32
8.4446,-7.6546,12.517,3.4431,-0.24526,2.0351,-15.54,10.32,-31.56
6.1292,-7.2733,9.9156,3.2287,-0.19731,1.879,-15.12,8.64,-31.8
2.1929,-6.1428,5.4073,2.7706,-0.092241,1.492,-14.58,6.96,-31.8
-0.57205,-5.489,1.0896,2.529,-0.092546,1.3271,-13.5,3.78,-32.34
-1.3212,-5.1894,-1.0079,2.1771,-0.1912,1.0333,-13.02,2.22,-32.58
-1.8387,-4.5764,-3.3506,1.3167,-0.56474,0.60323,-12.18,-0.42,-32.82
-3.5958,-4.9306,-3.1463,0.66187,-0.63561,0.45784,-11.82,-1.44,-32.82
-4.4811,-5.8431,-2.8603,0.031154,-0.50916,0.47281,-11.46,-2.34,-32.76
-4.7944,-6.5786,-2.8875,-0.60598,-0.36469,0.50366,-11.34,-3.0,-32.7
-4.2087,-8.431,-2.438,-1.3357,-0.31551,0.48228,-11.76,-3.84,-32.88
-3.3915,-9.4798,-1.0896,-2.0351,-0.29902,0.41417,-12.24,-4.2,-33.18
-1.8932,-10.188,0.31327,-2.6475,-0.17685,0.30513,-12.78,-4.5,-33.36
2.833,-9.1801,7.8453,-3.9725,0.1909,-0.084299,-13.68,-4.56,-33.66
8.0496,-10.542,16.671,-4.3842,0.52321,0.079718,-13.92,-4.44,-33.6
15.214,-13.443,19.177,-4.2275,1.1041,0.10201,-13.86,-4.32,-33.6
19.395,-15.704,19.518,-3.6395,0.96303,-0.94959,-13.86,-3.84,-33.24
19.518,-14.942,19.532,-3.0745,1.273,-1.8619,-13.68,-3.48,-33.06
16.426,-6.456,19.068,-2.8375,2.5635,-2.2801,-13.26,-2.7,-32.4
12.926,-2.5606,15.65,-2.3818,2.9181,-2.7174,-13.2,-2.1,-32.28
10.161,1.1713,11.904,-2.2,2.2043,-2.6411,-13.26,-1.5,-32.52
6.7693,6.4424,7.0417,-2.1157,1.3705,-2.4453,-13.56,0.54,-33.48
4.6173,7.75,4.6718,-1.9407,0.81764,-2.0947,-13.62,1.74,-34.08
3.9499,6.96,2.9965,-1.6038,0.59559,-1.7819,-14.04,3.06,-34.5
2.2474,6.3471,-0.28603,-1.226,0.16982,-1.4783,-14.52,6.0,-35.4
0.47671,6.7693,-1.4982,-0.86743,-0.86926,-1.1918,-14.64,7.32,-35.76
-1.0351,6.9872,-2.1793,-0.77519,-1.0134,-1.0235,-14.88,8.64,-36.12
-2.5198,6.7693,-1.7843,-0.39065,-0.51985,-0.44502,-15.9,11.28,-36.72
-2.3018,6.4152,-1.3893,0.055589,0.032376,-0.065363,-16.2,12.48,-36.96
-0.91256,5.8976,-0.83084,0.58246,0.15699,0.21625,-16.56,13.62,-37.32
2.261,4.8625,1.6344,1.1442,-0.21166,0.41539,-17.34,15.72,-38.34
3.2825,4.5764,2.9011,2.0574,-0.86101,0.51099,-17.64,16.44,-38.7
4.4947,4.5356,4.8488,2.47,-1.0122,0.56352,-18.0,17.1,-38.76
7.5457,5.3256,12.64,2.5934,-0.92424,1.0131,-18.3,16.74,-38.34
11.754,4.0316,18.96,2.678,-0.44563,1.7834,-18.18,15.84,-38.04
18.374,-3.4459,19.463,2.853,0.28283,2.1047,-17.52,14.7,-37.68
19.504,-12.967,19.532,3.0607,0.36408,2.0687,-15.78,11.7,-36.54
19.355,-11.128,19.532,3.2602,-0.37293,1.7257,-15.0,10.14,-36.12
14.329,-5.5571,19.355,3.2733,-0.1011,1.405,-14.1,8.7,-35.82
10.311,-6.3743,15.936,3.1667,0.35949,1.2947,-13.38,7.14,-35.7
8.0224,-6.2517,12.79,2.9581,0.33872,1.1936,-12.72,5.46,-35.64
1.7298,-4.8761,3.7728,2.7611,0.25107,1.0904,-11.76,2.28,-35.76
0.47671,-5.0395,1.7434,2.5879,0.20006,1.1161,-11.22,0.72,-35.76
-0.62654,-5.6661,-0.8717,2.3133,0.061392,1.0311,-10.92,-0.72,-35.7
-2.1248,-5.7069,-4.6854,1.5064,-0.53787,0.67592,-9.9,-3.78,-35.64
-2.9011,-5.3119,-5.2847,1.1356,-0.72998,0.54642,-9.48,-4.98,-35.58
-3.7728,-5.5707,-5.1485,-0.12737,-0.8378,0.35705,-9.12,-5.94,-35.46
-4.9033,-7.4503,-3.514,-0.93157,-0.63041,0.41447,-9.48,-6.9,-35.46
-4.4675,-8.322,-2.9556,-1.6854,-0.39156,0.45907,-10.08,-7.2,-35.82
-3.1735,-9.2755,-1.58,-2.77,-0.23824,0.38393,-10.8,-7.44,-36.06
0.35413,-11.019,2.6287,-3.2929,-0.1576,0.20983,-12.12,-7.8,-36.24
2.8739,-10.474,5.1213,-3.5326,-0.040012,0.068722,-12.66,-7.92,-36.24
5.094,-9.902,8.7715,-4.4282,0.33811,-0.3146,-12.96,-7.62,-36.18
12.286,-10.42,18.21,-4.4853,0.42638,-0.23182,-13.2,-7.44,-36.0
19.218,-12.217,19.491,-4.0033,0.86071,-0.40806,-13.56,-6.42,-35.28
19.504,-12.749,19.532,-3.1985,0.76083,-1.7342,-13.56,-6.0,-35.1
17.924,-8.5263,19.532,-2.397,1.6576,-2.1057,-13.86,-4.5,-34.38
13.77,-4.6854,17.407,-2.036,2.5577,-2.3454,-13.98,-3.6,-34.14
10.011,-0.83084,13.116,-1.7877,2.4502,-2.3054,-14.28,-2.46,-34.14
6.6876,4.4947,7.2188,-1.6444,1.8845,-2.0849,-14.76,-0.24,-34.62
4.8625,6.8919,4.0044,-1.6096,1.131,-1.7764,-15.0,1.08,-34.86
3.228,6.1292,1.0896,-1.4951,0.5342,-1.4038,-15.48,3.96,-35.64
1.975,5.9521,-1.4301,-1.2611,0.1518,-1.1374,-15.9,5.46,-35.94
0.70826,6.674,-2.8467,-0.99418,-0.61545,-0.79443,-16.26,7.14,-36.3
-0.19068,7.0962,-3.1872,-0.93676,-0.82253,-0.64355,-16.74,8.52,-36.42
-1.866,7.0962,-2.3972,-0.60353,-0.7816,-0.10873,-17.76,11.16,-37.02
-1.7979,6.3198,-1.5936,-0.18448,-0.44899,0.29291,-18.48,12.42,-37.44
-0.85808,5.7069,-0.01362,0.3488,-0.33872,0.5846,-19.02,13.8,-37.62
1.1305,4.4947,1.2667,1.2058,-0.6857,0.88942,-20.22,16.2,-38.22
2.3427,3.9363,3.1872,1.8036,-0.84116,1.018,-20.82,17.22,-38.46
3.9227,3.6639,5.6797,2.0815,-0.88698,1.0641,-21.24,18.06,-38.46
7.1371,4.4266,11.931,2.5666,-0.82803,1.2306,-22.08,18.9,-38.16
11.795,2.9556,18.619,2.7245,-0.56658,1.857,-22.56,18.66,-37.98
18.646,-6.5105,19.504,3.1227,-0.2813,2.4309,-22.92,17.04,-37.38
19.423,-11.931,19.532,3.6679,-0.30543,2.3491,-22.56,15.9,-36.96
19.518,-12.354,19.532,3.832,-0.43555,2.2422,-22.08,14.52,-36.66
17.339,-8.3901,19.532,3.8924,-0.416,1.7174,-21.48,13.2,-36.48
10.27,-7.8589,15.132,3.7504,-0.10385,1.5308,-20.34,10.74,-35.76
7.1643,-8.036,10.992,3.3033,-0.27581,1.3821,-19.86,9.36,-35.7
4.127,-7.5184,7.2596,2.8805,-0.44166,1.1316,-19.5,8.04,-35.58
-0.89894,-6.7421,1.58,2.4538,-0.30757,0.98258,-18.72,5.34,-35.52
-1.9886,-6.5786,-0.54481,2.3133,-0.26725,0.9276,-18.24,4.14,-35.52
-2.4789,-6.3198,-2.3836,1.909,-0.23335,0.71044,-17.82,2.94,-35.46
-2.9965,-5.8023,-3.5413,0.95448,-0.47495,0.37202,-17.16,1.86,-35.46
-4.1542,-5.3528,-3.4051,0.24832,-0.5455,0.28466,-16.26,-0.06,-35.4
-4.8352,-5.7614,-2.9965,-0.32773,-0.24526,0.33292,-15.9,-0.48,-35.52
-3.8954,-6.279,-2.8058,-0.89339,0.085216,0.40378,-15.84,-0.9,-35.58
-2.7649,-7.0826,-2.0567,-1.9227,-0.0073304,0.32132,-16.32,-1.08,-35.58
-1.6072,-8.0905,-0.51757,-2.2581,-0.093768,0.26848,-16.68,-1.02,-35.58
-0.16344,-8.6353,1.4165,-3.0736,-0.20311,-0.041844,-17.1,-1.08,-35.82
3.1872,-8.2539,6.3198,-3.7721,0.054672,-0.40836,-17.7,-0.66,-35.58
8.2676,-9.6841,16.63,-4.3069,0.54306,-0.4777,-17.82,-0.3,-35.34
17.911,-13.974,19.45,-4.2174,1.2254,-0.24954,-17.76,0.48,-34.44
19.436,-14.083,19.532,-3.5143,1.5855,-1.3946,-17.82,0.78,-34.08
19.518,-12.681,19.532,-3.0653,1.5504,-2.1341,-17.82,1.08,-33.78
19.109,-10.774,19.532,-2.8188,2.2495,-2.4093,-17.94,1.68,-33.3
12.626,-4.5628,15.922,-2.5073,2.5406,-2.6255,-18.42,3.12,-32.88
9.5751,-1.1169,11.972,-2.2923,2.3027,-2.5626,-18.9,4.02,-32.7
7.4776,2.4517,6.8647,-2.1469,1.9166,-2.357,-19.32,5.28,-32.88
5.3664,6.6059,5.3119,-1.8809,1.2028,-1.7746,-20.04,8.52,-33.3
4.9578,6.2654,3.4868,-1.5324,0.64966,-1.3576,-20.4,10.14,-33.54
4.127,5.6388,1.4846,-1.1863,-0.037568,-1.1353,-20.7,11.7,-33.78
2.0703,5.8431,-1.6753,-0.97128,-0.76725,-0.95539,-21.3,14.76,-33.9
0.095342,5.9793,-2.5061,-0.83536,-1.0678,-0.74953,-21.66,16.2,-34.02
-0.96704,5.9249,-1.8387,-0.46976,-0.52718,-0.32132,-22.44,19.02,-34.26
-1.3348,5.9657,-1.2395,0.029016,-0.099876,-0.01405,-22.62,20.46,-34.26
-0.40861,5.6116,-0.89894,0.5849,-0.17379,0.23946,-22.86,21.9,-34.32
0.21793,5.38,-0.76274,0.84758,-0.41142,0.3485,-23.04,23.22,-34.56
1.6344,4.5764,0.9398,1.5562,-1.1356,0.53359,-22.92,24.48,-34.44
3.2553,4.3858,4.7263,1.9566,-1.1976,0.58002,-23.16,26.28,-34.14
6.2245,5.8704,11.359,2.1166,-0.50121,1.2135,-23.34,26.52,-33.84
14.778,1.8796,19.164,2.2489,-0.38149,1.5898,-23.58,25.56,-33.18
19.137,-7.355,19.504,2.7061,-0.34483,2.0455,-23.46,24.54,-32.88
19.477,-12.708,19.532,3.6472,-0.71227,2.1148,-23.04,23.28,-32.52
19.518,-13.539,19.532,4.1298,-0.14844,1.7837,-22.32,21.84,-32.34
16.317,-8.0224,19.314,4.2312,0.35033,1.4383,-20.76,18.84,-32.4
12.626,-8.8941,16.167,4.0711,0.3259,1.1894,-19.92,17.46,-32.52
4.9578,-7.9543,7.7636,3.6136,-0.24312,1.0702,-18.48,14.76,-33.36
1.7843,-7.3005,4.2904,3.2,-0.55864,0.88056,-17.94,13.32,-33.72
0.17706,-7.0553,2.3291,2.872,-0.46884,0.80756,-17.34,11.7,-33.96
-2.3291,-6.7966,-2.2474,2.2779,-0.28955,0.61636,-16.14,8.34,-34.92
-2.9829,-6.279,-3.6503,1.6979,-0.4554,0.34758,-15.42,6.96,-35.4
-3.6639,-5.4481,-4.3858,0.97586,-0.6521,0.13011,-14.7,5.58,-35.76
-5.2438,-5.0259,-3.7728,-0.12004,-0.50885,0.16768,-13.44,3.36,-36.3
-5.5707,-5.6252,-3.2008,-0.75228,-0.27825,0.35094,-13.14,2.52,-36.6
-5.094,-6.3743,-2.9556,-1.0635,-0.18845,0.42699,-13.08,2.22,-37.02
-4.0997,-7.1371,-2.2882,-1.9972,-0.18906,0.57238,-13.56,2.04,-37.38
-0.027241,-9.0984,0.9398,-2.5336,-0.26328,0.54825,-14.28,1.44,-37.8
1.8387,-9.1529,2.7922,-3.2073,-0.18265,0.28924,-14.76,1.44,-37.98
7.2733,-9.8748,12.354,-4.2394,0.4047,-0.0082467,-15.06,1.38,-38.04
17.829,-15.418,19.286,-4.3265,0.49114,0.11057,-15.66,1.8,-37.5
19.423,-17.393,19.518,-4.1579,0.26389,-0.12614,-15.9,2.22,-37.26
19.518,-15.732,19.532,-3.258,0.47678,-1.5412,-16.2,2.64,-36.84
17.693,-8.6762,19.341,-2.8457,2.401,-1.9432,-16.5,3.9,-35.76
14.71,-4.5764,16.317,-2.4505,3.3595,-2.4239,-16.86,4.62,-35.4
12.081,-0.8717,12.667,-2.2306,2.0501,-2.5241,-17.34,5.46,-35.16
7.0417,4.1542,7.0553,-2.2135,1.4667,-2.4584,-18.48,8.1,-35.4
4.9033,5.1757,5.3256,-2.1945,0.23549,-2.1368,-19.08,9.42,-35.46
3.6639,5.38,4.3313,-2.0403,-0.0073304,-1.7865,-19.62,10.74,-35.52
1.9341,5.775,2.4108,-1.7388,-0.091935,-1.4734,-20.22,12.42,-35.52
0.65378,6.3471,0.16344,-1.409,-0.24557,-1.2807,-21.54,15.66,-35.1
-0.24517,6.7421,-0.83084,-1.1121,-0.48167,-1.0223,-22.2,17.04,-34.86
-1.2939,6.7148,-0.98067,-0.83658,-0.77336,-0.9218,-23.46,19.5,-34.62
-1.8115,6.4424,-0.74912,-0.25168,-1.1164,-0.54306,-24.18,20.64,-34.5
-2.0839,6.4833,-0.81722,0.2584,-1.0782,-0.34606,-24.84,21.96,-34.32
-1.5391,6.4969,-0.34051,0.80512,-0.78618,-0.21136,-26.46,24.0,-34.2
-0.58567,6.0202,0.62654,1.3491,-0.43524,-0.093157,-27.06,24.78,-33.96
3.2689,4.7807,4.9169,1.9086,-0.058338,0.043371,-28.14,25.74,-33.18
5.7069,5.2983,8.2812,2.5049,0.46976,0.21258,-28.68,25.56,-32.64
9.0984,5.5299,13.893,2.6686,0.71166,1.0721,-29.16,25.02,-32.22
17.788,-0.19068,19.327,2.9725,0.52382,2.0834,-29.82,22.68,-31.56
19.314,-6.96,19.504,3.5784,0.39645,2.5507,-29.82,20.88,-31.5
19.518,-12.858,19.532,4.237,0.14966,2.8579,-29.4,19.08,-31.32
19.532,-8.7306,19.532,4.5516,0.20892,2.6282,-28.14,15.54,-31.02
18.919,-7.5321,18.101,4.1728,-0.14478,2.2046,-27.3,13.86,-30.84
14.083,-7.4231,15.05,3.8695,-0.45723,1.956,-26.4,12.54,-30.84
5.3119,-5.9249,7.9815,3.0467,-1.1982,1.2608,-24.66,9.36,-31.2
1.8796,-5.5299,4.7944,2.7141,-1.1551,0.98319,-24.0,7.86,-31.44
-0.19068,-5.5299,1.9205,2.5,-0.77213,0.78588,-23.28,6.54,-31.74
-1.3484,-5.8704,-0.77636,2.1683,-0.46029,0.53115,-21.66,3.66,-32.52
-2.7377,-5.6252,-4.0044,1.2339,-0.72357,0.029016,-20.88,2.46,-32.64
-3.9635,-5.2575,-4.127,0.84513,-0.78252,-0.07086,-20.04,1.56,-32.7
-5.1894,-5.3528,-3.6639,-0.33964,-0.33292,-0.10476,-19.14,0.84,-32.94
-6.3607,-6.96,-2.8875,-1.062,0.033292,0.073304,-18.06,0.3,-33.06
-5.4481,-7.8045,-2.2882,-1.8286,0.03879,0.22205,-18.24,0.3,-33.36
-4.808,-8.1995,-1.7025,-2.5223,-0.10812,0.40989,-18.9,0.36,-34.02
-0.96704,-9.2346,0.81722,-3.4019,0.098044,0.51007,-19.38,0.42,-34.32
0.7355,-8.9213,2.9692,-3.802,0.26328,0.46884,-19.74,0.48,-34.38
4.7944,-9.2618,11.959,-4.5794,0.99602,0.64507,-20.1,0.66,-34.5
17.924,-13.688,19.232,-4.4651,1.6435,0.72754,-20.04,1.56,-34.08
19.341,-15.977,19.518,-3.7299,0.74281,-0.10568,-19.98,1.86,-33.84
19.518,-15.868,19.532,-3.0687,0.36591,-1.1793,-19.98,2.46,-33.48
17.448,-7.8589,18.578,-2.5882,2.3665,-2.0699,-20.34,3.78,-32.88
12.817,-2.5742,15.35,-2.4575,2.9096,-2.3359,-20.58,4.68,-32.82
11.332,-0.27241,12.885,-2.1783,2.6841,-2.4542,-20.88,5.94,-32.76
7.7091,4.6309,6.7966,-2.0629,1.7837,-2.2956,-21.54,8.82,-33.12
6.0202,5.8704,4.8352,-2.0006,0.81917,-2.0302,-21.72,10.32,-33.06
4.7535,6.4152,3.2553,-1.7672,0.22113,-1.6603,-22.08,11.94,-33.0
2.3291,6.8783,0.1362,-1.2211,-0.32162,-1.211,-22.32,15.06,-33.0
0.8717,7.4776,-0.9398,-0.84971,-0.64263,-0.95295,-22.62,16.32,-33.0
-0.40861,8.2403,-1.2939,-0.68081,-0.73823,-0.81886,-23.04,17.52,-32.76
-1.6617,8.4719,-0.89894,-0.11301,-0.66096,-0.31765,-23.82,19.56,-32.7
-1.6753,8.0905,-0.34051,0.38118,-0.3653,-0.015272,-24.12,20.7,-32.76
-0.74912,6.9328,0.12258,0.98013,-0.19059,0.24435,-24.36,21.72,-32.7
1.3212,5.3528,1.6208,1.9035,-0.48747,0.40378,-24.6,23.22,-32.7
2.9556,4.6037,3.8273,2.5568,-0.73548,0.405,-24.6,23.76,-32.58
3.7184,4.6718,5.2438,2.8552,-0.80176,0.39431,-24.66,23.7,-32.34
7.1915,5.5162,13.484,3.2669,-0.5058,0.9276,-24.84,22.56,-32.1
12.081,3.8273,18.565,3.3915,-0.10629,1.8799,-24.84,21.42,-32.1
17.543,-1.5119,19.409,3.5146,0.31276,2.5073,-24.48,20.16,-32.1
19.504,-13.92,19.532,3.6365,-0.4667,2.6597,-23.28,16.86,-31.92
19.395,-12.871,19.532,3.7052,-1.306,2.1982,-22.26,15.3,-31.92
16.249,-10.106,19.532,3.6676,-0.48411,1.7993,-21.42,13.74,-32.04
10.174,-8.7034,14.179,3.5562,0.73059,1.642,-19.86,10.8,-32.28
7.7908,-8.4038,9.7522,3.2156,0.94318,1.5272,-19.26,9.12,-32.34
4.8352,-7.1915,4.6718,2.8979,0.49724,1.2737,-18.54,7.5,-32.7
0.8036,-6.7421,-0.23155,2.6411,-0.09163,1.0696,-17.22,4.32,-33.0
-1.4982,-6.4833,-3.1054,2.2904,-0.60628,0.88392,-16.68,2.82,-33.06
-2.5606,-5.6116,-4.3858,1.4145,-0.93218,0.36041,-16.02,1.44,-33.3
-3.6094,-4.7671,-4.5492,1.0437,-0.94745,0.20617,-15.36,0.24,-33.12
-5.2166,-4.9578,-3.5685,-0.079412,-0.75686,0.18631,-14.28,-1.5,-33.0
-5.5571,-6.0611,-3.1327,-0.76694,-0.48258,0.38698,-14.1,-1.98,-33.0
-4.6037,-7.1779,-2.0839,-1.7941,-0.30727,0.46151,-14.52,-2.58,-33.06
-2.7922,-8.6081,-1.0079,-2.4254,-0.40928,0.40897,-15.12,-2.82,-33.24
-1.0215,-9.8748,0.77636,-2.9832,-0.354,0.22785,-15.42,-2.94,-33.36
0.14982,-9.7385,2.0294,-3.3094,-0.18937,0.051007,-15.78,-2.94,-33.48
3.7456,-9.8884,8.8668,-4.3946,0.61514,-0.28833,-16.14,-2.88,-33.54
16.712,-14.274,19.218,-4.6004,1.2297,-0.24679,-16.32,-1.98,-33.24
19.191,-15.486,19.491,-4.3933,1.4029,-0.7535,-16.38,-1.62,-33.36
19.491,-15.895,19.532,-3.5452,1.1952,-2.0885,-16.38,-1.08,-33.18
17.162,-8.5944,19.368,-3.4095,1.6112,-2.2202,-16.26,-0.42,-33.06
13.729,-4.0861,16.671,-2.9749,3.3613,-2.6267,-16.56,1.2,-32.88
11.25,-4.0861,13.579,-2.7312,3.1854,-2.5739,-16.86,2.4,-33.06
9.6432,3.7047,10.542,-2.5281,2.263,-2.3192,-17.04,3.72,-33.24
6.3471,7.3822,5.8295,-2.3824,1.1054,-1.9697,-17.7,6.84,-33.66
4.4402,7.1779,4.6173,-1.8845,0.097433,-1.3903,-17.94,8.52,-33.84
2.9148,7.2869,2.833,-1.6292,0.000916,-1.2419,-18.18,10.32,-33.78
1.0215,7.9407,-1.1305,-1.0296,0.030238,-0.93798,-18.6,13.68,-33.84
0.51757,8.1858,-1.7298,-0.79107,0.072388,-0.76328,-18.9,15.36,-33.66
-0.040861,8.431,-1.185,-0.5003,0.20647,-0.51893,-19.32,16.86,-33.6
-0.054481,7.9134,0.44947,-0.048564,0.17196,-0.2251,-20.22,19.68,-33.66
-0.01362,7.3822,0.8036,0.5678,-0.47434,0.1857,-20.76,21.0,-33.54
0.70826,5.8295,2.0839,1.3256,-0.68753,0.29566,-21.12,22.26,-33.66
1.2803,5.2302,2.9692,2.4874,-0.88973,0.49847,-21.66,24.3,-33.72
2.4108,5.0531,4.4947,3.1111,-0.80023,0.56566,-21.72,24.9,-33.72
3.8409,5.7205,7.3005,3.4554,-0.4945,0.83078,-21.96,25.14,-33.54
9.7658,5.8704,17.148,3.6627,-0.083383,1.6386,-22.02,24.0,-33.48
16.862,0.88532,19.382,3.9022,-0.3317,2.737,-21.84,22.92,-33.48
19.45,-9.1529,19.532,4.0051,-0.68814,2.9239,-20.58,20.16,-33.36
19.518,-11.264,19.532,4.3872,-1.6206,2.5849,-19.74,18.6,-33.36
18.837,-7.9543,19.532,4.5161,-1.3094,2.0659,-18.78,17.04,-33.36
13.443,-6.0202,18.714,4.5299,-0.18448,1.6991,-17.34,13.86,-33.66
9.9701,-7.069,14.833,4.2315,0.24923,1.4465,-16.62,12.36,-33.9
5.6252,-7.4231,5.8976,3.8448,0.0012217,1.135,-15.84,10.68,-34.08
-0.054481,-7.355,2.547,3.3518,-0.48686,0.77641,-14.7,7.32,-34.86
-3.1054,-7.3141,-0.6674,2.9651,-0.74098,0.61331,-13.98,5.46,-35.04
-3.9227,-7.1507,-1.975,2.4395,-0.78038,0.39431,-13.44,3.72,-35.1
-5.4209,-6.1019,-3.8273,1.7058,-0.65699,0.15119,-12.42,0.48,-35.22
-6.0883,-6.3471,-3.732,0.88881,-0.44227,0.079718,-12.0,-0.66,-35.1
-6.7693,-7.0962,-3.5685,0.05284,-0.13806,0.22144,-11.88,-1.62,-35.1
-6.1428,-8.0632,-2.9556,-0.79993,0.10446,0.35339,-12.42,-3.12,-35.4
-4.7126,-8.6081,-2.0158,-1.6536,0.281,0.43463,-12.96,-3.78,-35.58
-3.0237,-9.4253,-0.57205,-2.8188,0.26664,0.42944,-13.5,-4.38,-35.94
0.43585,-10.406,2.9284,-3.4138,0.22938,0.21044,-13.92,-5.28,-36.12
3.3778,-10.093,6.0611,-4.1469,0.44502,-0.14691,-14.28,-5.52,-36.18
8.54,-11.904,18.51,-4.9388,0.78343,-0.31276,-14.34,-5.52,-36.0
18.347,-14.206,19.477,-5.2525,0.89706,-0.1967,-14.22,-4.92,-35.28
19.463,-14.833,19.532,-4.9779,1.1322,-1.1897,-14.04,-4.32,-34.98
19.532,-13.443,19.532,-4.6334,1.3912,-1.7562,-13.74,-3.54,-34.5
19.382,-9.4661,19.532,-4.0128,2.6454,-2.5595,-13.44,-2.7,-34.02
14.288,-2.3836,17.924,-3.66,3.0748,-2.9047,-13.2,-0.78,-33.48
10.828,1.3212,13.13,-3.3998,2.5036,-2.9349,-13.26,0.48,-33.48
5.9793,6.8374,8.3084,-3.23,1.4594,-2.7764,-13.5,3.9,-33.54
3.7865,8.0224,6.456,-3.1038,0.51985,-2.4117,-13.62,5.82,-33.48
2.0294,8.1995,4.5628,-2.5015,-0.14355,-1.5831,-13.74,7.68,-33.3
0.83084,8.8396,0.78998,-1.8937,-0.28069,-1.2065,-14.22,11.7,-32.7
-0.068102,9.4253,-0.74912,-1.3821,-0.51282,-0.91141,-14.4,13.44,-32.34
-1.1713,10.188,-1.6481,-0.93462,-0.62247,-0.60231,-14.76,15.0,-32.04
-1.9613,10.474,-0.95342,-0.14294,-0.16738,-0.1179,-15.72,18.18,-31.62
-1.4165,9.398,-0.16344,0.20097,-0.019548,0.03207,-16.14,19.5,-31.32
-0.96704,8.6353,0.21793,0.94531,-0.07086,0.27428,-16.68,20.76,-31.2
1.1441,6.2517,1.7025,1.9893,-0.78374,0.55619,-17.52,23.16,-31.14
2.0975,5.3119,3.1872,2.6515,-0.90652,0.55955,-17.82,24.0,-30.9
3.1191,5.2302,5.0259,3.2229,-0.57788,0.52657,-18.18,24.66,-30.18
8.6625,7.4095,15.704,3.5064,0.26756,1.088,-18.42,24.12,-29.88
15.704,4.7944,19.055,3.7507,0.18845,2.0311,-18.66,23.22,-29.64
18.578,0.7355,19.572,3.9874,-0.13439,2.3689,-18.6,22.14,-29.58
19.518,-11.414,19.532,4.204,-1.5913,2.2715,-17.7,19.14,-29.4
19.504,-11.686,19.532,4.328,-2.0235,1.9743,-17.16,17.88,-29.34
16.481,-8.717,19.532,4.2761,-0.96578,1.4542,-16.5,16.56,-29.4
8.4855,-7.8181,14.819,4.0995,0.24984,1.3509,-15.66,13.5,-29.7
4.9306,-8.2812,8.9349,3.7147,0.49572,1.3653,-15.42,12.12,-30.18
3.2825,-8.0224,6.4288,3.1835,0.072693,1.138,-15.12,10.5,-30.6
0.20431,-7.5457,2.0839,2.97,-0.31582,0.9954,-14.7,9.0,-30.96
-2.2882,-7.355,-1.7843,2.573,-0.64294,0.77916,-14.04,5.76,-31.68
-3.2416,-6.7012,-3.2825,1.9432,-0.76205,0.48167,-13.74,4.08,-32.04
-5.1213,-5.7614,-3.6366,0.71349,-0.19517,0.25137,-12.96,1.38,-32.16
-5.9657,-6.5786,-3.1872,-0.082772,0.41417,0.39859,-12.6,0.48,-32.28
-6.2926,-7.4095,-3.051,-0.45418,0.68264,0.52443,-12.54,-0.42,-32.28
-5.3256,-8.3493,-2.8603,-1.4991,1.0586,0.71227,-12.66,-0.96,-32.52
-2.6151,-8.9622,-1.58,-2.2171,1.0128,0.6243,-13.14,-2.34,-33.12
-0.12258,-9.902,1.3348,-2.8815,0.98227,0.38515,-13.56,-2.88,-33.36
3.8818,-9.793,7.1643,-3.5586,0.98624,-0.082772,-13.86,-3.42,-33.54
9.2891,-10.542,17.339,-4.7684,0.59315,-0.54092,-13.68,-3.54,-33.42
13.062,-11.891,18.987,-4.9801,0.24496,-0.42761,-13.5,-3.48,-33.18
19.368,-13.702,19.532,-4.7794,0.056505,-1.0003,-13.32,-2.76,-32.64
19.504,-13.634,19.532,-4.1563,0.51924,-1.8179,-13.32,-2.34,-32.4
18.742,-10.746,19.532,-3.6991,1.872,-2.3024,-13.26,-1.86,-32.04
15.895,-6.9872,19.532,-3.3533,2.6325,-2.7706,-13.2,-1.14,-31.8
8.826,0.25879,12.871,-3.1276,2.375,-2.9181,-13.44,1.14,-31.74
8.826,0.25879,12.871,-2.9981,1.7733,-2.7889,-13.44,1.14,-31.74
2.9556,7.8726,7.3958,-2.7825,0.85949,-2.2382,-13.92,4.14,-31.62
2.1248,8.2676,5.7614,-2.4126,0.54,-1.6558,-14.16,5.88,-31.56
1.7979,7.8045,2.9011,-1.8754,0.3317,-1.3057,-14.58,9.24,-31.2
0.43585,8.2131,-0.25879,-1.3711,-0.021075,-1.073,-15.0,12.36,-30.66
-1.1305,8.3357,-1.1441,-0.78588,-0.34911,-0.63438,-15.66,15.24,-30.3
-1.4165,8.5536,-1.0079,-0.59834,-0.26328,-0.48075,-16.08,16.56,-30.12
-1.1305,8.431,-0.51757,0.13592,0.12156,-0.023518,-16.44,18.96,-29.76
-0.42223,7.3005,-0.31327,0.75533,-0.0097738,0.2868,-16.74,21.42,-29.58
1.0215,6.2517,0.51757,1.387,-0.37293,0.55375,-16.62,22.68,-29.28
2.5334,5.0531,2.2337,2.0125,-0.64385,0.69333,-16.68,23.16,-28.86
3.5685,5.2302,4.4811,2.5727,-0.72021,0.6973,-16.92,22.62,-28.56
4.2904,6.279,7.0826,2.8161,-0.36591,1.0018,-17.22,22.2,-28.74
7.1507,7.246,14.955,2.9092,-0.15638,1.6884,-17.58,21.48,-28.92
16.126,-0.14982,19.395,3.3014,-0.29566,2.1652,-18.54,19.56,-29.52
18.605,-10.243,19.532,3.6221,-1.0211,2.5867,-18.96,16.44,-29.64
19.218,-11.114,19.532,3.8442,-1.4016,2.4936,-18.84,14.82,-29.58
14.996,-9.6841,19.532,3.9199,-0.6576,1.8802,-17.76,12.0,-29.52
12.667,-10.079,19.45,3.7987,0.33567,1.8091,-17.28,10.74,-29.28
7.0826,-9.7522,12.34,3.4468,0.27886,1.6594,-16.38,8.34,-29.16
5.1894,-9.0575,9.3708,3.0415,0.13958,1.5266,-15.9,7.26,-29.1
1.5527,-7.927,3.5822,2.7455,0.069028,1.5382,-15.18,4.92,-29.34
-0.31327,-7.6955,-1.0351,2.4456,-0.09163,1.5351,-14.34,2.7,-29.58
-0.9398,-7.246,-3.1463,1.9719,-0.38485,1.343,-13.98,1.74,-29.52
-2.1248,-6.1836,-4.7263,1.3192,-0.64568,1.0443,-12.96,0.42,-29.58
-3.3097,-6.279,-4.699,0.15149,-0.85552,0.59315,-12.48,0.18,-30.0
-4.2495,-6.8238,-4.2087,-0.68356,-0.89706,0.38759,-12.78,0.18,-30.24
-4.7399,-7.641,-2.8058,-1.5348,-0.91905,0.23579,-13.74,-0.36,-30.96
-3.5413,-8.826,-0.32689,-2.3082,-0.90805,0.13714,-14.58,-0.9,-31.5
-1.4029,-9.6568,1.8387,-2.9263,-0.85094,0.0082467,-15.24,-1.14,-31.2
-0.24517,-9.4389,2.7786,-3.4917,-0.6243,-0.23488,-15.54,-1.08,-30.96
4.5628,-9.8884,12.163,-4.2559,-0.11332,-0.48503,-15.66,-0.72,-30.06
7.8998,-11.087,17.257,-4.4633,0.956,-0.37354,-15.84,-0.36,-29.58
18.156,-12.776,19.463,-4.0488,1.263,-0.63683,-15.66,0.18,-28.5
19.368,-13.321,19.532,-3.3836,1.1707,-1.3408,-15.54,0.42,-28.02
18.769,-10.569,19.532,-2.8424,1.5101,-1.806,-15.6,1.02,-27.12
14.669,-5.3119,18.115,-2.5525,2.5372,-2.2144,-15.72,1.86,-26.28
11.536,-0.74912,13.92,-2.3509,2.9193,-2.3921,-16.2,2.58,-25.92
9.398,2.9965,9.7385,-2.0772,2.3668,-2.3167,-16.68,3.72,-26.16
7.6274,5.1485,7.1779,-2.0061,1.5296,-2.1863,-16.92,4.5,-26.4
5.4481,6.9736,4.6854,-1.8754,0.8097,-1.8466,-17.16,6.18,-26.94
3.8954,7.0281,1.5391,-1.5757,0.48869,-1.5201,-17.34,7.74,-27.66
2.833,7.0145,-0.39499,-1.2514,0.18234,-1.2877,-17.4,8.7,-28.02
1.0351,7.3822,-2.4517,-0.98838,-0.26481,-1.0779,-17.46,10.62,-28.38
-0.51757,7.4503,-2.261,-0.69119,-0.53512,-0.67287,-17.22,12.9,-28.68
-0.9398,7.4095,-1.8387,-0.41142,-0.41692,-0.32193,-17.16,13.86,-28.8
-0.95342,6.5105,-0.72188,0.0079412,-0.31429,0.080023,-16.56,15.66,-28.74
0.40861,5.2575,0.28603,0.55619,-0.44288,0.38118,-15.78,16.8,-28.2
1.7434,4.413,1.8796,1.1399,-0.74953,0.57818,-15.0,17.58,-27.66
2.438,4.1406,3.0237,2.0436,-1.1164,0.68203,-14.76,17.58,-27.3
4.4811,5.4345,8.2948,2.3851,-1.1249,0.85521,-14.34,17.22,-26.76
9.4525,5.3256,17.175,2.6102,-0.8885,1.5531,-14.22,15.84,-26.52
15.595,1.7979,19.246,2.8885,-0.62889,2.302,-14.04,14.76,-26.46
19.273,-7.6819,19.518,3.2104,-0.68661,2.4148,-13.32,12.18,-26.34
19.532,-13.974,19.532,3.8161,-1.1442,2.3802,-11.52,9.18,-26.4
17.066,-8.8396,19.532,4.2712,-0.14905,1.8228,-9.6,6.54,-26.1
13.852,-8.2812,18.742,4.3002,0.76328,1.697,-8.52,5.22,-25.86
9.5206,-8.6625,11.496,3.9725,0.62522,1.6469,-6.78,2.82,-26.04
6.8238,-7.7364,8.9349,3.62,0.032987,1.4514,-6.06,1.5,-25.98
2.3427,-6.851,2.833,3.3882,-0.31337,1.3045,-4.62,-0.9,-26.04
-0.83084,-7.0009,-1.975,3.1484,-0.51618,1.2004,-3.06,-2.94,-26.16
-1.58,-6.7421,-3.5004,2.7238,-0.70463,0.94195,-2.34,-3.72,-26.28
-2.8467,-5.203,-5.2983,1.7049,-0.76511,0.37996,-1.38,-4.8,-26.16
-4.0589,-4.4266,-5.203,0.90652,-0.67165,0.10263,-1.56,-5.58,-26.16
-4.8488,-5.0395,-4.7126,0.13286,-0.52565,0.08827,-1.98,-5.88,-26.28
-4.9033,-6.5378,-4.5083,-0.61575,-0.44166,0.15027,-3.06,-6.72,-26.7
-3.9363,-7.7364,-3.9771,-1.4276,-0.52351,0.089186,-4.2,-7.62,-27.06
-3.337,-8.3765,-3.228,-2.2767,-0.54275,-0.064752,-4.44,-7.98,-27.0
-2.2746,-10.215,-0.61292,-3.4157,-0.32223,-0.26756,-4.86,-8.46,-27.06
0.57205,-10.801,5.7886,-4.4141,0.002138,-0.37141,-4.92,-8.58,-27.12
5.9657,-12.49,16.099,-4.8133,0.61514,-0.40225,-4.86,-8.34,-27.0
18.279,-18.17,19.423,-4.6603,1.613,0.048258,-4.32,-7.56,-26.88
19.45,-18.224,19.532,-3.9651,1.9224,-0.65729,-3.42,-6.36,-26.52
19.518,-14.247,19.532,-2.9089,1.0021,-1.7452,-3.06,-5.88,-26.46
13.879,-6.0202,18.633,-2.4474,1.784,-1.9917,-2.16,-4.92,-26.1
9.6432,0.068102,13.702,-2.2345,2.5253,-2.1313,-1.62,-3.54,-26.28
7.7908,4.018,9.3436,-2.2382,2.0614,-2.0039,-1.26,-1.86,-26.7
6.2245,4.8352,6.7966,-2.3937,1.4123,-1.9236,-1.44,-0.84,-27.06
4.127,5.6388,5.0259,-2.5843,0.74495,-1.7831,-1.98,1.62,-27.42
2.9148,6.0202,3.5004,-2.5669,0.40653,-1.5834,-2.52,4.14,-27.78
1.866,6.9464,0.57205,-2.2116,0.1182,-1.2856,-3.6,6.78,-27.96
1.3076,7.8453,-0.40861,-1.8937,-0.29841,-1.0418,-4.26,8.1,-27.96
0.7355,8.9894,-0.83084,-1.5018,-0.60598,-0.78954,-5.4,10.86,-28.14
0.19068,9.3436,-0.50395,-0.98105,-0.66523,-0.49969,-5.88,12.24,-28.14
-0.095342,9.0439,0.35413,-0.30116,-0.63408,-0.1741,-7.02,15.12,-27.96
0.10896,8.0088,0.91256,0.47709,-0.76267,0.097738,-7.86,17.52,-27.48
0.38137,7.4503,1.471,1.2562,-0.98991,0.29749,-8.22,18.54,-27.24
1.866,6.0611,4.8216,2.3448,-1.0489,0.34819,-8.7,19.8,-26.34
4.1133,7.2324,9.5206,2.8756,-0.79504,0.34667,-9.36,20.04,-25.8
6.0066,7.8317,13.266,3.1447,-0.45448,0.73823,-9.66,19.98,-25.68
14.424,3.0373,19.286,3.3927,-0.42425,1.6432,-10.26,18.9,-25.68
19.15,-7.9951,19.518,3.7953,-0.76236,2.0617,-10.68,17.04,-25.98
19.518,-16.658,19.532,4.5002,-0.76969,2.1264,-10.26,14.64,-26.46
18.728,-12.013,19.532,4.6233,-0.17746,1.6955,-9.78,13.56,-26.52
14.438,-9.5751,19.096,4.6151,0.55222,1.4612,-9.0,11.22,-27.0
8.9894,-10.093,11.822,4.2831,0.69364,1.5363,-8.22,8.76,-27.18
7.0281,-9.3844,8.7034,3.8029,0.32559,1.3696,-7.8,7.74,-27.78
3.3915,-8.322,3.3234,3.4288,0.058032,1.2205,-6.96,5.34,-28.26
0.64016,-8.2539,-0.88532,3.1078,-0.11515,1.1985,-6.24,2.94,-28.98
-1.3484,-7.5729,-4.8216,2.3604,-0.55008,0.9276,-5.64,1.08,-29.7
-2.2882,-6.3062,-6.0883,1.5824,-0.81428,0.62064,-5.34,0.36,-30.0
-3.7456,-5.2302,-6.2381,0.67867,-0.88606,0.36621,-5.64,-0.9,-30.54
-4.7263,-5.5299,-5.489,-0.2248,-0.78893,0.33414,-6.12,-1.38,-30.84
-5.2438,-6.8647,-4.8352,-1.0586,-0.62553,0.40989,-7.26,-2.7,-31.5
-4.304,-8.2812,-3.5685,-1.9199,-0.65149,0.38332,-8.58,-3.6,-32.16
-3.4051,-9.6977,-1.7298,-3.2037,-0.81886,0.22846,-9.54,-4.08,-32.46
-2.656,-10.828,0.38137,-3.9019,-0.54703,0.13042,-9.96,-4.14,-32.58
0.40861,-11.496,5.1894,-4.6133,0.18082,-0.09163,-10.74,-3.48,-32.64
3.1599,-11.523,10.215,-5.1493,0.95203,-0.3207,-11.04,-2.94,-32.64
18.251,-16.481,19.45,-5.0213,1.7016,0.071166,-11.34,-1.44,-32.16
19.218,-16.739,19.504,-4.4028,2.3582,-0.24984,-11.46,-0.6,-32.1
19.504,-14.029,19.532,-3.3958,1.6151,-1.405,-11.76,0.3,-32.04
16.413,-7.5184,19.246,-2.6157,1.919,-1.5788,-12.3,2.4,-31.56
11.632,-1.9068,14.764,-2.3973,2.3463,-1.8204,-12.54,3.54,-31.56
9.5479,1.6753,11.441,-2.2724,2.314,-1.7568,-12.96,4.98,-31.62
7.0281,5.6116,7.246,-2.2281,2.0247,-1.7046,-13.68,8.04,-31.74
5.8023,6.7285,5.8704,-2.204,1.5354,-1.6151,-14.22,9.78,-31.74
5.0804,7.3005,4.6582,-2.0265,1.1457,-1.438,-14.58,11.4,-31.8
3.6366,7.8317,0.68102,-1.4988,0.51221,-1.3076,-15.24,14.64,-31.62
2.3018,8.1586,-0.6674,-1.2352,-0.27397,-1.1704,-15.6,16.02,-31.44
0.91256,8.5127,-0.95342,-0.96456,-0.84177,-0.93859,-15.9,17.46,-31.32
-1.185,8.7306,-0.068102,-0.56719,-0.7138,-0.44502,-17.34,19.92,-31.26
-1.0488,8.4446,0.27241,0.29596,-0.43219,-0.080329,-18.12,20.94,-31.02
0.040861,7.3958,1.0488,0.65912,-0.36194,0.036957,-18.78,21.9,-30.84
1.866,5.993,2.5742,1.7523,-0.51801,0.25962,-20.04,23.7,-30.84
2.9148,5.1485,4.808,2.4361,-0.6408,0.33659,-20.64,24.36,-30.72
4.5083,5.2983,8.7851,2.9044,-0.5116,0.57177,-21.24,24.6,-30.6
6.4697,2.5061,18.742,3.3228,-0.071166,1.6295,-22.56,23.82,-30.66
17.924,-3.3234,19.436,3.5913,-0.33964,2.237,-23.16,22.62,-30.78
19.137,-8.3084,19.504,3.6994,-0.62094,2.3155,-23.34,21.36,-30.9
19.504,-15.173,19.532,4.0641,-1.2816,2.1728,-23.34,19.68,-31.2
17.298,-10.569,19.532,4.0846,-0.83078,1.7849,-23.04,16.38,-31.38
13.035,-9.5751,17.271,4.1111,0.18173,1.6524,-22.92,14.7,-31.5
8.5127,-9.0031,9.8475,3.5873,0.26389,1.6252,-22.38,11.58,-32.04
8.5127,-9.0031,9.8475,3.218,-0.072388,1.4148,-22.38,11.58,-32.04
2.3699,-7.4367,1.5255,2.8799,-0.31796,1.2966,-22.08,10.02,-32.4
-0.14982,-7.0145,-1.866,2.4972,-0.55467,1.0855,-21.78,8.4,-32.76
-2.2201,-5.489,-4.699,1.9413,-0.74739,0.70097,-21.06,4.92,-33.3
-3.1735,-4.9306,-5.1894,1.2117,-0.93462,0.35491,-20.58,3.18,-33.48
-5.7614,-4.4947,-4.8352,0.40012,-0.97708,0.20372,-19.26,0.42,-33.36
-6.8374,-5.6388,-3.9227,-0.3937,-0.76389,0.27458,-17.64,-1.26,-33.24
-6.3471,-6.6876,-3.3097,-1.5061,-0.19884,0.37446,-17.52,-1.86,-33.06
-4.8625,-8.4991,-2.438,-2.27,-0.14019,0.29505,-17.4,-2.28,-32.94
-2.5061,-10.815,0.61292,-2.9783,-0.2022,0.27855,-17.34,-2.64,-32.94
1.2531,-11.264,4.0316,-3.5055,-0.12706,0.16585,-16.74,-2.7,-32.58
6.0338,-11.468,12.395,-4.1456,0.10904,-0.29138,-16.08,-2.34,-32.1
13.321,-13.893,19.0,-4.5085,0.50183,-0.43799,-15.3,-1.62,-31.38
18.987,-13.443,19.504,-3.9126,1.474,-0.18357,-14.52,-0.48,-30.96
19.504,-11.836,19.532,-3.1139,1.6924,-1.0754,-14.04,0.54,-30.9
19.191,-8.7715,19.532,-2.5293,2.3714,-1.5675,-13.26,1.68,-30.54
17.761,-6.6059,18.782,-2.3436,2.7779,-1.992,-13.02,2.4,-30.36
13.375,-1.2939,13.675,-2.2407,2.5162,-2.3436,-12.72,3.78,-30.42
10.883,1.076,10.406,-2.1478,1.9282,-2.3952,-13.44,5.4,-30.84
7.6683,3.4187,6.7421,-2.1157,1.1701,-2.3625,-14.28,7.2,-31.68
5.38,5.0259,4.4811,-2.0553,0.86254,-2.1466,-15.0,9.42,-32.28
3.9227,6.1564,2.6832,-1.8079,0.70921,-1.8234,-15.78,11.7,-32.52
2.8058,7.246,-0.20431,-1.4569,0.33231,-1.5461,-16.5,14.34,-32.46
1.1032,8.2676,-1.5527,-1.1533,-0.34056,-1.2636,-17.04,16.74,-32.34
-0.89894,8.9622,-1.9477,-0.89125,-0.92607,-0.93707,-17.76,18.9,-32.16
-2.2337,9.0575,-1.5527,-0.32254,-1.004,-0.32956,-18.0,19.98,-31.98
-2.4789,7.927,-0.78998,0.25717,-0.66157,0.10049,-18.24,21.42,-31.2
-1.2803,6.565,-0.20431,0.90897,-0.39492,0.40745,-18.18,22.62,-30.18
0.96704,5.0123,1.8387,1.5351,-0.48594,0.56688,-18.42,23.1,-29.1
3.5413,3.8001,4.6309,2.1927,-0.73518,0.59743,-18.78,22.92,-28.68
5.8159,4.5083,8.5808,2.7303,-0.78618,0.6127,-19.2,22.44,-28.5
10.42,5.0668,17.066,2.9349,-0.28283,1.3662,-19.44,20.82,-28.14
15.459,1.9205,19.218,3.2898,0.29932,2.0669,-19.68,20.16,-28.2
19.218,-6.8238,19.504,3.6432,0.29749,2.4374,-19.44,18.06,-28.26
19.491,-12.803,19.532,4.0772,-0.025656,2.6148,-18.66,15.48,-28.2
18.96,-10.978,19.532,4.2428,-0.22846,2.1655,-17.1,12.9,-27.9
13.511,-7.1371,15.282,4.2043,0.12798,1.7843,-15.3,10.56,-27.96
11.032,-7.1507,13.021,3.9083,0.50977,1.5745,-14.34,9.54,-27.84
5.4754,-6.5514,7.4231,3.1789,-0.07422,1.2214,-12.78,7.5,-27.9
1.5663,-6.279,3.1054,2.9126,-0.38759,1.0718,-10.98,5.52,-28.14
-0.62654,-6.7829,0.054481,2.6909,-0.59498,0.96853,-10.14,4.86,-28.38
-2.2746,-7.1234,-3.1191,2.2541,-0.74434,0.69883,-8.52,3.66,-28.86
-3.5549,-5.9249,-5.0804,1.5727,-0.7984,0.29993,-7.62,2.88,-29.16
-4.8761,-5.5162,-4.3449,0.71899,-0.7199,0.055589,-7.44,2.58,-29.82
-5.6116,-5.9249,-3.8001,-0.10171,-0.54214,0.17104,-7.44,2.4,-30.3
-6.1564,-7.355,-3.1872,-1.1881,-0.36194,0.38301,-7.74,1.98,-31.32
-5.2711,-8.0496,-2.4244,-1.9184,-0.31307,0.47586,-8.22,1.44,-32.1
-4.0861,-9.1256,-1.1305,-2.606,-0.21961,0.54581,-8.22,1.44,-32.52
-1.3484,-10.311,1.7298,-3.1826,-0.0012217,0.50702,-8.16,1.56,-32.7
3.0646,-10.243,8.1313,-3.9352,0.29138,0.1909,-8.04,1.98,-32.88
12.367,-13.253,18.769,-4.4981,0.97555,0.034819,-7.68,2.76,-32.82
18.919,-17.216,19.477,-4.3964,1.0834,-0.053451,-7.02,3.6,-32.7
19.45,-16.181,19.532,-3.7379,0.98838,-1.2798,-6.72,4.08,-32.52
19.423,-13.321,19.532,-3.2223,2.0159,-1.9954,-6.42,4.98,-32.28
15.636,-6.0747,18.142,-3.1014,3.4398,-2.4688,-6.3,6.0,-31.92
12.476,-0.62654,13.661,-2.963,3.5238,-2.9022,-6.36,7.56,-31.98
10.828,1.6617,11.359,-2.8711,2.6481,-2.8259,-6.72,8.34,-32.04
6.9191,6.1564,7.3958,-2.8222,1.0168,-2.6142,-7.38,10.2,-31.98
4.8352,8.1177,5.8567,-2.6603,0.33903,-2.2061,-8.52,12.12,-31.92
3.8682,7.7772,4.4811,-2.2397,0.095295,-1.792,-9.24,13.2,-31.74
2.0703,7.1234,1.757,-1.6997,-0.19028,-1.4542,-10.74,15.3,-31.44
-0.44947,7.5865,-0.14982,-1.2211,-0.66309,-1.0809,-12.78,17.46,-30.84
-1.8796,7.8726,-0.61292,-0.60476,-0.72937,-0.49663,-14.16,19.56,-29.88
-2.2201,7.8045,-0.46309,-0.18143,-0.19792,-0.044593,-14.82,20.52,-29.4
-1.3757,7.2052,-0.054481,0.34086,0.32284,0.31276,-16.38,22.14,-28.32
-0.095342,6.4424,0.1362,0.90713,0.28039,0.57238,-16.92,22.68,-27.66
1.6617,5.4618,1.2258,1.4694,-0.26267,0.7138,-18.06,23.4,-26.46
3.3234,4.5356,3.0918,2.0556,-0.86376,0.74342,-18.96,23.52,-25.44
4.413,4.6309,5.1894,2.5901,-1.2642,0.7083,-19.38,23.4,-24.9
6.4152,5.9521,10.093,2.8604,-1.1115,0.94623,-20.4,22.44,-24.48
14.356,3.4868,18.891,3.0106,-0.74464,1.7746,-21.36,20.46,-24.48
17.992,-0.54481,19.382,3.3075,-0.6802,2.1802,-21.3,19.2,-24.72
19.477,-12.858,19.532,3.5479,-1.3766,2.1151,-20.64,16.32,-24.84
19.518,-14.315,19.532,3.8714,-1.554,2.0287,-19.08,13.5,-24.6
16.603,-9.3844,18.96,4.0403,-0.43616,1.5715,-17.1,11.16,-24.66
12.98,-9.0575,15.486,3.9877,0.46884,1.2617,-16.26,9.9,-24.54
7.9679,-8.1722,9.6977,3.3888,0.13286,1.1124,-14.7,7.8,-24.78
5.6933,-7.4231,7.1507,3.0161,-0.24679,0.96272,-13.02,5.76,-25.26
0.65378,-6.4288,1.4438,2.7932,-0.36041,0.94501,-12.18,4.86,-25.38
-1.9341,-6.1564,-3.051,2.5223,-0.42699,0.91294,-10.38,3.54,-25.56
-2.4789,-5.9657,-4.304,2.0504,-0.6295,0.67837,-9.48,3.18,-25.56
-3.8273,-5.0259,-5.884,1.3048,-0.9108,0.36316,-8.76,2.88,-25.56
-5.7342,-5.6116,-4.6037,-0.027794,-0.91538,0.17257,-9.24,2.94,-26.16
-6.6604,-6.9872,-3.8818,-0.80268,-0.61239,0.3036,-10.14,2.7,-26.82
-5.6797,-7.8998,-3.2689,-1.5785,-0.43707,0.39401,-10.92,2.22,-27.42
-5.1213,-8.5944,-2.4517,-2.3744,-0.49633,0.37354,-11.22,2.04,-27.42
-2.547,-10.256,0.96704,-3.1056,-0.48503,0.39554,-11.82,2.04,-27.6
3.0782,-10.243,8.6762,-4.1322,0.14722,0.14752,-12.12,2.4,-27.36
6.4152,-10.842,13.974,-4.5378,0.9615,0.043371,-12.18,2.64,-27.18
17.611,-14.315,19.355,-4.4611,1.5122,0.29963,-12.3,3.42,-26.7
19.286,-13.866,19.504,-3.7987,1.4474,-0.30513,-12.3,3.84,-26.34
19.518,-11.387,19.532,-2.8546,1.788,-1.2321,-12.06,4.62,-25.92
18.796,-6.2654,19.218,-2.3002,2.5953,-1.5091,-12.12,5.22,-25.44
16.957,-3.8273,17.053,-1.9267,3.0949,-2.1432,-12.36,5.76,-25.2
12.122,1.185,10.774,-1.7065,2.3011,-2.295,-13.08,6.9,-24.96
8.8941,3.4732,6.6876,-1.7202,1.5235,-2.3689,-13.86,8.34,-25.26
5.1894,4.9169,3.6503,-1.7904,0.82436,-2.3133,-14.58,9.9,-25.62
4.0316,5.3528,2.7649,-1.726,0.42302,-2.0714,-15.06,10.68,-25.86
1.9613,6.2245,0.19068,-1.4728,0.29291,-1.8002,-16.08,12.3,-26.22
0.72188,6.96,-1.6753,-1.0547,-0.22877,-1.4212,-17.1,14.28,-26.82
-0.12258,7.5729,-2.4653,-0.84055,-0.74434,-1.1325,-17.64,15.24,-26.76
-1.4574,7.8317,-2.4108,-0.59376,-0.9218,-0.78374,-18.84,17.28,-27.0
-2.4789,7.1371,-1.5391,-0.17196,-0.67867,-0.36255,-19.44,19.2,-27.0
-2.1929,6.456,-1.185,0.34331,-0.41264,0.027794,-19.86,19.98,-27.06
-0.39499,5.0668,0.25879,0.87598,-0.5174,0.3262,-20.22,21.06,-26.58
1.4846,4.1542,2.7649,1.3549,-0.84208,0.53237,-20.46,21.3,-26.16
3.2144,3.7728,5.6661,1.9203,-1.0993,0.79046,-20.94,21.42,-25.5
7.641,3.4732,13.675,2.0323,-0.76541,1.3442,-21.36,20.46,-25.14
14.22,1.1169,18.796,2.3308,-0.5452,2.1982,-21.48,19.74,-25.08
19.15,-6.851,19.491,2.832,-0.2025,2.434,-20.76,17.82,-24.84
19.532,-12.98,19.532,3.3616,-0.82284,2.3262,-19.32,15.9,-25.38
19.532,-10.937,19.532,3.82,-0.45265,2.1747,-18.36,14.82,-25.38
16.699,-8.1313,19.314,3.8946,0.69883,1.6842,-16.56,13.02,-25.62
13.184,-8.1586,16.045,3.5809,0.74037,1.5852,-15.48,12.24,-25.8
8.1586,-6.674,9.4117,3.2333,0.35369,1.427,-13.86,10.68,-26.34
3.7047,-5.3256,3.8818,2.9795,0.11393,1.3415,-12.12,9.24,-26.88
2.2201,-5.4073,-0.068102,2.755,0.047953,1.3741,-10.56,7.86,-28.08
-0.34051,-5.6116,-2.4925,2.6243,-0.027794,1.3225,-9.78,7.5,-28.5
-2.0567,-5.0123,-5.598,1.9325,-0.45235,0.9276,-8.82,6.84,-29.64
-3.3506,-4.3858,-6.2654,1.2159,-0.80665,0.59773,-8.82,6.54,-30.18
-5.4754,-4.2223,-5.7614,0.46029,-0.93065,0.39187,-9.42,6.06,-31.02
-6.7557,-5.5435,-5.1349,-0.28711,-0.76847,0.39706,-10.38,5.34,-32.1
-5.993,-6.7693,-3.8682,-1.15,-0.478,0.32284,-11.46,4.44,-32.94
-5.993,-6.7693,-3.8682,-1.6393,-0.36744,0.20372,-11.46,4.44,-32.94
-4.1542,-10.025,0.35413,-3.2816,-0.1909,0.048869,-12.48,3.6,-33.84
2.3427,-10.815,7.2188,-4.01,-0.0073304,0.078496,-12.84,3.84,-33.84
5.9249,-11.564,12.367,-4.6649,0.17654,-0.35858,-12.9,4.26,-33.6
17.025,-16.658,19.423,-4.5271,1.4859,-0.062919,-12.84,5.34,-33.0
19.382,-16.549,19.518,-4.1747,1.5812,-0.18937,-12.84,6.0,-32.58
19.491,-15.187,19.532,-2.6502,1.1301,-1.4322,-12.66,6.54,-32.28
18.782,-10.229,19.532,-2.3167,1.7266,-1.4664,-12.66,7.38,-31.14
15.759,-6.3471,18.265,-1.9933,3.1328,-1.7733,-12.84,7.92,-30.54
13.362,-2.547,14.601,-1.8195,2.9548,-2.2516,-12.9,8.46,-30.3
9.507,2.1384,8.3084,-1.8482,2.1057,-2.3173,-13.8,10.38,-30.18
7.1234,4.127,5.7478,-2.0391,1.1671,-2.3503,-14.16,11.46,-30.24
3.1327,6.5514,3.3097,-2.1264,0.47983,-2.1594,-15.3,13.86,-30.54
2.1793,6.7421,2.0158,-1.9294,0.23915,-1.774,-15.9,15.0,-30.66
1.5119,7.0826,0.1362,-1.5067,0.1295,-1.4267,-16.56,16.32,-30.6
0.40861,8.1858,-2.2746,-1.0006,-0.67378,-0.97952,-18.06,18.54,-30.72
-0.76274,8.717,-2.438,-0.73334,-1.0776,-0.62766,-18.84,19.5,-30.66
-1.7162,8.7306,-1.866,-0.32742,-0.81215,-0.17074,-19.74,20.52,-30.66
-0.83084,7.5048,-0.40861,0.63805,-0.16738,0.45845,-21.6,22.56,-30.6
0.65378,6.4969,0.61292,1.3088,-0.45693,0.69364,-22.2,23.52,-30.72
1.5391,5.8976,1.5663,1.9529,-1.0821,0.8097,-22.8,24.6,-30.96
4.4947,5.094,6.1019,2.5388,-1.4978,0.7984,-23.7,25.74,-30.72
6.1292,5.9793,10.706,2.7819,-1.4661,0.95387,-23.94,25.74,-30.36
10.283,5.6524,17.666,2.9618,-1.2205,1.6533,-24.06,25.26,-29.88
19.232,-6.1292,19.504,3.3674,-1.0443,2.0849,-23.52,23.34,-29.28
19.463,-11.346,19.532,3.9004,-1.6573,1.7346,-22.86,22.2,-29.1
19.532,-15.595,19.532,4.0671,-1.6438,1.6405,-21.96,20.94,-29.16
16.058,-8.5127,19.532,4.193,0.010996,0.99082,-20.28,18.3,-29.28
11.414,-9.221,16.413,4.0769,0.72968,0.86254,-19.5,17.1,-29.52
8.1586,-9.4117,11.673,3.6548,0.60262,0.85552,-18.78,15.72,-29.82
3.1872,-8.0088,4.1542,3.2675,0.26725,0.72724,-17.28,12.84,-30.78
0.57205,-7.4367,0.85808,2.8399,0.078496,0.78343,-16.56,11.46,-31.14
-1.2531,-6.96,-1.8387,2.4874,-0.024435,0.82833,-15.84,9.84,-31.44
-2.6968,-5.2847,-5.489,1.9682,-0.1573,0.81917,-14.46,7.26,-32.16
-3.1735,-4.6309,-6.3062,1.2373,-0.41142,0.78038,-13.86,6.06,-32.64
-3.9227,-4.4811,-6.3062,0.38149,-0.64996,0.80329,-13.2,5.34,-33.06
-5.4345,-6.6059,-4.9714,-0.89431,-0.81153,0.99663,-12.9,4.26,-33.9
-5.3937,-7.9679,-4.1814,-1.7779,-0.92668,1.022,-13.08,3.9,-34.2
-4.9578,-9.2755,-3.337,-2.2251,-0.9163,0.96944,-13.44,3.36,-34.32
-3.7865,-11.346,-0.040861,-3.3769,-0.4948,0.73701,-14.16,3.06,-34.68
-0.040861,-11.918,4.0452,-3.9236,-0.032987,0.51526,-14.46,2.94,-34.62
3.9227,-11.863,9.6977,-4.5907,0.48167,-0.042455,-14.52,3.06,-34.44
17.121,-16.249,19.314,-4.8964,1.2874,-0.014966,-14.58,4.08,-33.72
19.232,-16.304,19.504,-4.2095,2.0794,-0.15699,-14.34,4.62,-33.42
19.463,-14.833,19.532,-3.6203,2.1435,-0.7871,-14.16,5.28,-33.12
19.532,-11.509,19.532,-2.2052,2.346,-1.711,-14.22,5.88,-32.58
14.628,-4.9169,16.985,-1.9969,3.0442,-2.0641,-14.46,7.74,-31.92
11.414,-0.76274,13.471,-1.9297,2.8033,-2.3216,-14.76,8.64,-31.8
9.2074,2.3155,10.188,-1.846,2.2174,-2.2345,-15.36,11.1,-31.38
5.6388,5.3528,4.9306,-1.879,1.3179,-1.9926,-15.84,12.36,-31.44
4.1406,5.9249,3.623,-1.7736,0.95539,-1.7022,-16.32,13.92,-31.56
2.8875,6.2245,1.076,-1.4908,0.83597,-1.4255,-16.98,16.74,-31.32
2.4108,6.7693,-1.1577,-1.2071,0.55864,-1.2257,-17.52,18.18,-31.32
1.5936,7.3277,-2.152,-1.0278,-0.11942,-0.97983,-17.94,19.44,-31.38
-0.01362,7.355,-1.7979,-0.71502,-0.80481,-0.51893,-18.9,21.72,-31.38
-0.72188,6.9464,-1.2939,-0.30024,-0.76144,-0.14875,-19.5,22.8,-31.38
-0.61292,6.7557,-0.92618,-0.023518,-0.69425,0.03146,-20.16,23.76,-31.38
0.14982,6.1428,-0.23155,0.56902,-0.6747,0.28497,-20.76,24.72,-31.44
2.1656,4.9987,2.0567,1.5079,-1.0806,0.46884,-21.54,26.28,-31.26
3.7728,4.2904,4.0316,2.1115,-1.3729,0.47159,-22.02,26.7,-31.14
4.6173,4.2359,6.3062,2.408,-1.5818,0.55497,-22.44,27.12,-30.9
11.182,4.0316,18.02,2.606,-1.1872,1.3564,-23.22,26.16,-30.48
17.298,-0.99429,19.355,3.0177,-0.55283,2.0195,-23.4,25.08,-30.3
18.973,-6.2926,19.491,3.2748,-0.5736,2.1182,-23.28,23.64,-30.18
19.532,-17.025,19.532,3.6826,-1.1606,1.9795,-22.32,20.7,-30.36
18.333,-11.972,19.532,3.8265,-0.74312,1.5522,-21.66,19.26,-30.36
14.819,-8.3629,19.314,3.8762,0.74617,1.2642,-20.58,15.84,-30.78
8.3901,-7.9951,11.959,3.5357,0.88759,1.3234,-20.28,14.28,-31.08
6.2926,-7.1779,8.1858,3.2275,0.57482,1.2077,-19.86,12.84,-31.32
3.8954,-6.565,4.699,3.0155,0.29627,1.1668,-19.5,11.22,-31.68
0.28603,-6.3743,-0.47671,2.8512,0.058338,1.1988,-18.54,8.1,-32.46
-1.3076,-6.2517,-3.7728,2.5143,-0.14478,1.0797,-17.94,6.54,-32.7
-2.0975,-5.5435,-5.6116,1.9309,-0.38576,0.76786,-17.28,4.92,-33.0
-3.8273,-4.6718,-5.8976,1.1405,-0.72265,0.43585,-16.08,2.52,-33.54
-5.0395,-4.8352,-5.3119,-0.03207,-0.77549,0.44899,-15.6,1.74,-33.6
-5.884,-5.6252,-4.8216,-0.77397,-0.60567,0.60689,-15.48,1.08,-33.84
-4.9033,-7.5729,-3.7865,-1.5635,-0.53787,0.59956,-16.2,0.48,-33.96
-4.1406,-8.7851,-2.5334,-2.365,-0.4948,0.49572,-16.74,-0.48,-34.14
-3.5277,-9.5206,-1.1713,-3.0287,-0.29047,0.45387,-17.1,-0.96,-34.38
2.4789,-10.093,7.641,-3.7101,0.071471,0.10324,-17.94,-1.14,-34.2
5.203,-11.141,12.463,-4.394,0.67104,-0.053451,-18.0,-1.14,-34.14
10.324,-13.811,18.415,-4.1973,1.263,0.32773,-18.0,-1.02,-33.96
19.246,-16.44,19.518,-3.5653,0.87079,-0.31429,-18.12,-0.6,-33.48
19.504,-16.072,19.532,-2.62,0.9389,-1.3018,-18.06,-0.36,-33.18
18.96,-11.005,19.532,-2.0925,2.569,-1.5791,-18.06,-0.12,-32.76
12.926,-4.0589,13.879,-1.715,3.5855,-2.0177,-18.72,0.72,-32.28
10.569,0.38137,10.379,-1.543,2.8213,-2.1951,-19.26,1.26,-32.52
9.2891,2.1248,8.5127,-1.6167,2.0562,-2.0965,-19.92,2.34,-32.82
6.0338,5.4481,4.7944,-1.6878,1.3271,-1.9908,-20.7,4.86,-33.9
4.7671,5.6116,3.4732,-1.5681,0.8543,-1.6881,-21.24,6.24,-34.44
3.9363,5.5026,1.8932,-1.2587,0.57818,-1.4138,-21.84,7.74,-34.68
2.2201,6.6604,-1.3484,-0.95295,0.17501,-1.1493,-22.14,10.5,-35.4
1.58,7.1234,-1.9477,-0.60201,-0.5904,-0.95539,-22.56,11.88,-35.76
0.51757,7.6138,-2.2882,-0.36438,-0.65393,-0.71563,-22.98,13.14,-36.06
-0.99429,7.2324,-1.3212,0.025962,-0.37843,-0.37049,-23.7,15.42,-36.72
-0.47671,6.5786,-0.57205,0.53695,-0.15333,-0.085521,-24.12,16.68,-37.2
1.2803,5.4209,0.83084,1.0586,-0.43127,0.085521,-24.6,17.88,-37.62
3.6366,4.2904,3.7184,1.6194,-1.0424,0.11698,-25.2,19.62,-38.16
4.5764,4.2632,6.1155,2.2788,-1.5275,0.1011,-25.38,20.04,-37.98
5.38,4.5356,8.6489,2.3228,-1.39,0.28833,-25.38,19.74,-37.74
9.5751,3.623,17.094,2.3934,-0.79565,1.0431,-25.26,18.96,-37.2
16.453,-4.6582,19.463,2.8359,-0.11668,2.0705,-24.6,16.5,-35.94
18.932,-10.61,19.532,3.1334,-0.45143,2.4282,-23.82,14.76,-35.52
19.504,-12.681,19.532,3.5748,-0.52046,2.339,-22.92,13.2,-34.98
14.002,-7.7091,18.987,3.8042,0.17807,1.7746,-21.24,10.08,-34.26
10.283,-7.8181,15.309,3.627,0.50274,1.62,-20.34,8.58,-33.84
8.0769,-7.6138,12.422,3.23,0.32926,1.4096,-19.62,7.08,-33.72
3.1735,-6.279,4.7944,2.8992,0.24343,1.2425,-18.48,4.08,-33.18
1.1577,-5.9249,1.4574,2.6686,0.24893,1.1542,-17.82,2.64,-33.06
-0.14982,-5.6933,-1.3893,2.3918,0.11301,1.0809,-17.16,1.14,-32.7
-1.3212,-4.6445,-5.6116,1.671,-0.32193,0.82864,-15.42,-1.2,-32.4
-2.0431,-4.0997,-6.4833,0.96364,-0.73701,0.65607,-14.52,-2.1,-32.22
-3.0101,-4.1542,-6.3198,0.58063,-0.90561,0.59682,-13.74,-2.76,-32.22
-4.1814,-4.7399,-5.7886,-0.55405,-1.0256,0.54672,-13.26,-3.24,-32.28
-5.5435,-6.8238,-4.3177,-1.2984,-0.9447,0.58215,-13.26,-3.54,-32.4
-5.3528,-7.6546,-3.2553,-2.0611,-0.86376,0.54214,-13.8,-3.66,-32.58
-3.5413,-9.9156,0.32689,-3.0733,-0.47739,0.49633,-14.64,-3.84,-32.64
-0.34051,-10.243,5.0395,-3.8839,0.10629,0.30085,-15.0,-3.84,-32.64
4.5083,-11.441,14.083,-4.3848,0.63499,-0.097433,-15.3,-3.72,-32.52
10.992,-14.833,18.851,-4.368,1.4978,0.1799,-15.18,-3.54,-32.52
19.123,-17.652,19.504,-3.6276,1.5327,-0.13928,-15.06,-3.0,-32.28
19.504,-16.957,19.532,-2.4612,1.3488,-1.4508,-14.94,-2.52,-32.1
16.413,-8.6762,19.355,-1.792,2.5717,-1.7712,-14.88,-1.8,-31.98
13.144,-4.0452,15.963,-1.5773,3.4633,-2.1753,-15.0,-1.32,-31.86
11.087,-0.25879,12.095,-1.5091,3.1417,-2.3757,-15.06,-0.66,-31.86
8.1858,3.9499,6.6331,-1.5971,1.9783,-2.2382,-15.12,1.08,-32.46
6.3335,5.1894,4.7671,-1.7706,1.1206,-2.1502,-15.36,2.1,-32.94
4.7944,5.6524,3.7047,-1.7489,0.63469,-1.865,-15.54,3.3,-33.36
3.9635,5.4481,2.2201,-1.4945,0.50121,-1.6209,-15.66,4.44,-33.9
2.2746,5.4481,-2.1248,-1.1912,-0.065668,-1.3705,-15.72,5.94,-34.26
1.7843,5.8023,-2.7377,-1.1539,-0.41997,-1.3008,-15.9,7.2,-34.62
0.34051,6.0202,-2.7922,-1.0754,-0.99449,-0.98197,-16.56,9.66,-34.98
-1.2258,5.9657,-1.9341,-0.86132,-0.77183,-0.65607,-17.34,12.0,-35.34
-0.96704,5.6797,-1.1986,-0.49724,-0.42547,-0.2923,-17.76,14.46,-35.46
0.76274,5.0804,-0.61292,-0.047953,-0.28863,-0.011606,-18.6,16.74,-35.52
2.833,4.4266,1.975,0.42516,-0.56016,0.1347,-19.2,18.54,-34.86
4.0589,4.127,3.6911,1.1897,-1.3522,0.16432,-19.68,19.14,-34.38
6.4152,4.018,6.8647,1.5672,-1.4077,0.12675,-20.46,19.38,-33.3
9.2346,3.9227,13.471,1.7159,-1.2358,0.67806,-21.18,18.42,-32.46
14.029,0.76274,19.055,2.0901,-1.2306,1.481,-21.42,16.74,-31.98
19.055,-9.6023,19.518,2.7153,-1.0476,1.9279,-20.94,14.64,-31.56
19.409,-13.321,19.532,3.2477,-0.99052,2.1212,-20.52,13.62,-31.44
17.284,-10.229,19.532,3.6576,-0.33628,1.6927,-19.44,11.64,-31.44
13.253,-8.322,17.502,3.5641,0.51771,1.4838,-17.64,9.78,-31.38
9.5751,-8.3357,12.681,3.2874,0.77519,1.4142,-15.72,8.04,-31.5
8.0905,-7.7908,10.188,2.8924,0.3989,1.2578,-14.76,7.2,-31.44
5.0804,-6.4833,5.598,2.5791,0.10599,1.0736,-12.66,5.82,-31.5
1.5391,-5.38,0.54481,2.3744,0.049175,0.97677,-10.86,5.1,-31.68
-0.1362,-4.985,-2.152,1.9682,-0.1912,0.74556,-9.78,4.5,-31.98
-1.2667,-4.7263,-4.2223,1.5238,-0.46762,0.55253,-9.3,4.44,-32.22
-2.9148,-4.5901,-5.0259,0.94257,-0.74342,0.38271,-9.3,4.2,-32.46
-3.7865,-4.7263,-4.9442,0.31001,-0.85491,0.27886,-9.78,3.78,-32.82
-5.3119,-5.4754,-4.3313,-0.3036,-0.76389,0.31062,-10.62,3.42,-33.06
-5.6661,-6.1564,-3.9635,-0.95692,-0.48747,0.32529,-11.22,3.36,-33.24
-4.0589,-7.8045,-2.0567,-1.7077,-0.16218,0.21136,-11.94,3.24,-33.54
-2.7377,-9.0848,-0.25879,-2.7431,-0.13378,0.1628,-12.24,3.3,-33.6
-1.4574,-9.6841,1.1169,-3.4383,-0.3485,0.065363,-12.72,3.42,-33.84
4.9033,-11.645,12.476,-4.1698,-0.41936,-0.35339,-13.14,3.78,-33.66
10.025,-14.969,18.483,-4.3622,0.51465,-0.25259,-13.32,4.2,-33.48
16.154,-16.59,19.409,-3.9108,1.6793,-0.16157,-13.26,4.74,-33.12
19.477,-13.443,19.532,-2.5024,2.0012,-1.5574,-13.44,5.64,-32.46
18.496,-10.188,19.532,-1.948,3.0953,-1.6548,-13.68,6.12,-32.1
16.113,-6.5514,18.428,-1.722,3.5733,-1.9667,-14.04,6.66,-31.74
12.967,-0.95342,12.953,-1.6478,2.9752,-2.2269,-14.94,7.8,-31.44
10.91,1.4574,9.7249,-1.6451,1.9575,-2.2297,-15.42,8.7,-31.44
6.0611,4.3177,5.0668,-1.7517,1.1374,-2.1322,-16.32,10.86,-31.74
4.4402,5.6933,3.8954,-1.7443,0.66096,-1.8369,-17.1,12.06,-31.98
3.5685,6.5922,2.6696,-1.4804,0.67714,-1.5241,-17.64,13.38,-31.92
2.5198,6.7421,-0.25879,-1.1753,0.54398,-1.2425,-18.78,16.14,-31.8
1.8251,6.6876,-1.5391,-0.99388,-0.03879,-0.99327,-19.44,17.4,-31.92
0.95342,6.6604,-1.8932,-0.87018,-0.63255,-0.76786,-20.04,18.48,-31.8
-0.35413,5.8159,-1.1305,-0.65729,-0.60659,-0.3262,-21.6,20.58,-31.92
-0.35413,5.2438,-0.027241,0.040012,-0.43738,-0.038179,-22.38,21.6,-32.1
0.095342,5.0259,0.50395,0.63988,-0.52321,0.093157,-23.04,22.56,-32.04
1.4438,4.522,1.5936,1.1887,-0.86804,0.24618,-23.64,23.4,-32.16
3.8273,3.6775,4.3449,1.693,-1.2446,0.35888,-24.9,24.84,-31.74
5.0668,3.1872,6.5378,2.0611,-1.2892,0.41294,-25.5,25.02,-31.74
7.927,2.8058,12.258,2.2645,-0.88087,0.71716,-26.1,24.9,-31.44
13.43,-1.3212,19.286,2.6313,-0.14142,1.5922,-26.88,22.98,-30.9
15.772,-6.8374,19.504,2.9141,-0.3598,2.0852,-26.82,21.6,-30.72
17.475,-9.0031,19.532,3.2406,-0.27581,2.4435,-26.58,20.04,-30.66
18.292,-9.3163,19.532,3.4309,-0.22907,2.394,-25.26,17.1,-30.24
15.718,-8.431,19.504,3.3692,-0.49969,2.1014,-24.54,15.66,-30.24
11.863,-8.4174,13.293,3.0916,-0.52565,1.9032,-23.76,14.28,-30.24
4.3858,-7.4776,9.112,2.8109,-0.29902,1.6787,-22.32,11.88,-30.36
1.8796,-6.6331,5.3664,2.6386,0.01405,1.4969,-21.72,10.8,-30.66
0.55843,-6.0066,2.0703,2.5061,0.38698,1.3696,-20.94,9.6,-30.9
-0.40861,-5.775,-2.1112,2.2571,0.17898,1.2126,-19.2,7.32,-31.5
-0.98067,-5.7342,-4.0452,1.7575,-0.26848,1.0318,-18.12,6.3,-31.68
-2.9692,-5.38,-5.7886,1.0629,-0.73579,0.78007,-17.22,5.46,-31.98
-4.7671,-5.5843,-5.1076,0.21258,-0.91813,0.51129,-15.78,4.74,-32.28
-5.5299,-6.3607,-4.4266,-1.0061,-0.6689,0.416,-15.54,4.68,-32.58
-5.2983,-7.0417,-3.8682,-1.7404,-0.32376,0.47831,-15.54,4.62,-32.7
-3.9227,-7.5184,-3.1463,-2.4523,-0.18173,0.40989,-15.6,4.74,-33.0
-0.69464,-9.0575,-0.21793,-3.1008,-0.21869,0.3543,-16.2,4.98,-33.42
1.9886,-9.6432,3.2553,-3.7611,-0.18234,0.07025,-16.56,5.34,-33.36
10.61,-12.367,17.475,-4.226,0.21869,-0.3598,-16.86,5.46,-33.42
18.415,-15.268,19.409,-4.0952,0.88514,-0.37751,-16.68,5.7,-33.24
19.395,-17.216,19.518,-3.5103,0.64019,-1.2523,-16.98,6.12,-33.0
19.504,-16.753,19.532,-2.8784,1.2318,-2.1319,-17.16,6.6,-32.76
16.086,-9.0167,19.123,-2.445,2.9044,-2.5018,-18.0,7.56,-32.22
12.803,-5.4754,15.064,-2.0562,3.4993,-2.7318,-18.3,8.28,-31.8
8.6898,0.21793,8.7443,-1.908,2.3784,-2.5782,-18.96,9.96,-31.44
6.17,3.8682,5.9657,-1.9743,1.2898,-2.3601,-19.32,11.1,-31.38
5.0259,4.7671,5.2166,-1.9474,0.35033,-1.8714,-19.8,12.36,-31.56
2.9284,4.5492,2.3018,-1.7168,-0.097128,-1.4062,-20.94,14.88,-31.62
1.7298,4.2495,0.095342,-1.4697,-0.39737,-1.1106,-21.72,16.2,-31.62
0.43585,4.3449,-1.076,-1.3219,-0.66951,-0.75931,-22.32,17.4,-31.56
-0.64016,4.9987,-0.76274,-0.98685,-0.32345,-0.30849,-23.64,20.16,-31.5
0.14982,5.3256,-0.040861,-0.62125,0.12462,-0.019853,-24.36,21.42,-31.26
1.2395,5.5707,0.76274,-0.20403,0.040928,0.16982,-24.78,22.74,-31.08
2.7377,5.993,1.8932,0.3375,-0.5568,0.24557,-25.56,25.2,-30.66
2.6696,6.1564,1.8524,0.99449,-1.0339,0.20708,-25.8,26.4,-30.54
2.4653,5.993,2.3155,1.6371,-1.1524,0.146,-26.22,27.48,-30.42
2.4789,5.3937,4.413,2.2342,-0.64171,0.16005,-26.82,28.74,-30.3
3.2689,6.0747,6.279,2.6041,-0.023518,0.62766,-27.0,28.98,-30.0
7.9407,5.4618,13.539,2.8326,0.21838,1.3876,-27.24,28.8,-29.76
16.998,-3.7592,19.423,3.1502,-0.18418,2.1283,-27.0,27.3,-29.58
19.218,-9.6023,19.518,3.4153,-0.96059,2.5885,-26.34,26.04,-29.34
19.491,-12.708,19.532,3.6881,-1.4487,2.5067,-25.44,24.72,-29.58
15.337,-9.6568,19.532,3.8292,-1.5119,1.8604,-23.46,22.02,-29.88
12.626,-8.9349,19.055,3.777,-0.44074,1.6753,-22.56,20.76,-30.24
9.0848,-9.112,15.323,3.4428,-0.084605,1.4933,-21.66,19.56,-30.78
3.3506,-7.8045,7.4776,3.0644,0.026267,1.1781,-19.8,17.04,-31.86
0.95342,-7.3686,4.3449,2.8268,0.028405,1.0229,-19.02,15.6,-32.34
-0.8717,-6.9872,0.8036,2.5354,-0.064141,0.89309,-18.12,14.22,-33.0
-2.2882,-6.1836,-2.1384,2.0797,-0.27031,0.47495,-16.38,11.52,-34.08
-3.3915,-5.7205,-3.2961,1.1832,-0.33964,0.34667,-15.54,10.2,-34.74
-3.909,-5.5571,-3.5277,0.87201,-0.33231,0.33475,-14.64,9.24,-35.22
-4.7126,-5.4754,-3.7047,0.25717,-0.31704,0.40561,-13.92,8.4,-35.76
-5.0395,-5.8159,-3.8273,-0.66676,-0.20372,0.58154,-13.38,7.56,-36.96
-4.0861,-6.674,-3.3642,-1.3387,-0.023824,0.64843,-13.5,7.38,-37.38
-2.4108,-8.0632,-2.0431,-1.9936,0.0012217,0.63316,-13.62,7.02,-37.74
0.17706,-8.717,0.39499,-2.8729,-0.10965,0.31307,-14.1,6.66,-38.4
2.6151,-8.2812,6.0338,-3.6603,-0.13561,-0.051007,-14.22,6.54,-38.64
4.808,-8.9349,11.237,-3.9043,-0.027794,-0.12309,-14.34,6.42,-38.64
16.821,-13.579,19.368,-3.7916,0.81398,0.0018326,-14.46,6.78,-38.4
19.191,-14.955,19.504,-3.2687,1.1579,-0.76908,-14.52,6.84,-38.1
19.45,-15.554,19.532,-2.6826,1.5815,-1.9065,-14.52,7.02,-37.5
16.154,-7.9134,19.327,-2.1695,2.8485,-2.6173,-14.88,7.8,-36.78
14.056,-5.5843,17.134,-1.9981,3.0018,-2.7602,-15.12,8.28,-36.48
9.8066,-0.17706,10.46,-1.8152,2.7742,-2.7764,-15.48,9.0,-36.3
8.54,1.6753,8.6081,-1.7355,1.8442,-2.5015,-15.72,9.84,-36.24
5.3119,5.4073,5.2302,-1.7535,1.0168,-2.1936,-16.44,11.94,-36.18
4.3449,5.5707,4.127,-1.6194,0.47159,-1.7452,-16.92,13.38,-36.36
3.5549,4.9578,2.2201,-1.3234,0.15363,-1.3943,-17.4,14.64,-36.36
1.1713,5.1894,-1.5391,-1.0012,-0.5736,-1.0037,-18.54,17.16,-36.36
-0.095342,5.2711,-2.1929,-0.90072,-0.82681,-0.73182,-19.08,18.42,-36.42
-1.3076,5.3528,-2.2882,-0.7141,-0.45357,-0.47892,-19.68,19.56,-36.42
-1.4165,5.5707,-1.5119,-0.42761,0.10049,-0.1799,-20.88,21.96,-36.48
-0.34051,5.2711,-0.96704,-0.019853,0.281,0.06689,-21.48,23.16,-36.66
0.99429,4.9306,0.01362,0.44807,-0.068111,0.2474,-21.84,24.36,-36.54
2.8739,3.7865,2.6696,1.2168,-0.60048,0.30604,-22.5,26.28,-36.54
4.0589,3.1872,4.2495,1.657,-0.71746,0.31857,-22.68,26.82,-36.3
4.6037,3.623,6.1292,1.8402,-0.54214,0.51465,-23.16,27.3,-36.0
10.501,3.1599,17.815,1.9798,-0.12767,1.1408,-23.76,26.82,-35.64
15.064,-1.1577,19.314,2.4349,0.05681,1.8286,-23.82,25.92,-35.28
19.286,-9.9565,19.532,2.9749,-0.24343,2.4807,-22.98,23.1,-34.62
19.518,-10.924,19.532,3.6053,-0.7251,2.4102,-22.2,21.42,-34.44
19.068,-9.3163,19.532,3.609,-0.8042,2.0128,-21.18,19.8,-34.26
15.854,-8.1313,19.45,3.5705,-0.67959,1.9022,-20.16,18.18,-34.14
8.6625,-7.3822,13.729,3.2006,-0.4331,1.5919,-18.06,15.24,-34.02
5.7614,-6.5922,9.7385,2.9603,-0.28344,1.3564,-17.1,13.74,-34.08
1.4438,-6.0611,2.9556,2.803,-0.14722,1.2385,-15.42,10.92,-34.32
0.095342,-6.0338,0.39499,2.5556,-0.27092,1.0452,-14.64,9.36,-34.62
-0.77636,-5.8431,-1.7979,2.4031,-0.39645,0.89858,-13.74,7.92,-34.74
-2.1112,-5.094,-3.2144,1.69,-0.74923,0.48381,-12.78,6.6,-34.8
-3.9227,-4.0589,-4.018,1.08,-0.8375,0.34025,-11.1,4.56,-34.98
-5.0804,-4.1678,-3.9227,0.48319,-0.7141,0.3656,-10.44,3.84,-35.1
-5.5707,-5.6933,-3.9499,-0.11698,-0.48991,0.47586,-10.26,3.06,-35.46
-4.8625,-6.5514,-3.5549,-1.2226,-0.36469,0.38026,-10.44,3.06,-35.82
-4.413,-7.2596,-2.547,-1.9621,-0.2926,0.2981,-10.74,2.88,-35.88
-3.3506,-8.5127,-0.81722,-2.2743,-0.20617,0.29138,-11.28,2.82,-35.94
0.8717,-9.1529,4.9306,-3.3155,0.046426,0.085521,-12.18,2.46,-35.94
4.6854,-10.161,12.0,-3.8808,0.31062,0.0033598,-12.54,2.34,-35.7
12.939,-15.949,19.382,-3.9331,1.0354,0.33109,-12.72,2.46,-35.4
19.286,-17.094,19.504,-3.404,0.95478,-0.57605,-12.78,2.58,-34.62
19.518,-15.037,19.532,-2.8286,1.3482,-1.4752,-12.96,2.7,-34.08
19.504,-12.503,19.532,-2.5644,2.5232,-1.8751,-13.02,2.64,-33.66
13.675,-4.5764,16.276,-2.3143,3.0354,-2.3802,-13.56,2.94,-32.88
10.91,-0.92618,12.422,-2.1875,2.741,-2.5207,-14.04,3.6,-32.88
8.7987,2.2474,9.3163,-2.1545,2.1283,-2.4899,-14.52,4.62,-32.94
5.8023,5.38,5.9521,-2.1402,0.97097,-2.2941,-15.42,7.02,-33.18
4.7944,5.094,4.6854,-2.0546,0.66737,-2.146,-16.08,8.46,-33.36
3.8954,4.9306,2.7241,-1.7678,0.21105,-1.8964,-16.44,9.9,-33.6
2.656,4.9442,0.61292,-1.3809,-0.50702,-1.6008,-16.86,11.34,-33.6
-0.35413,5.9385,-1.2258,-1.1958,-0.78649,-1.3341,-17.58,14.34,-33.66
-1.58,6.4152,-1.076,-0.92424,-0.60628,-0.9841,-18.18,15.42,-33.84
-1.7434,6.7148,-0.84446,-0.49083,-0.10965,-0.34667,-19.44,18.0,-33.6
-0.54481,6.8647,-0.54481,0.077885,0.12828,-0.16463,-20.04,19.26,-33.84
-0.54481,6.7012,-0.50395,0.68906,-0.11576,0.1463,-20.46,20.58,-33.9
1.5119,5.4073,1.2667,1.5073,-0.73731,0.48472,-21.12,22.86,-33.96
2.0975,4.9987,2.7104,1.9743,-0.83719,0.60873,-21.18,23.52,-33.6
2.5198,5.2166,4.127,2.2181,-0.66157,0.81031,-21.18,23.64,-33.18
9.1665,4.4539,17.039,2.248,-0.2419,1.6725,-21.54,22.8,-32.46
13.184,0.54481,18.905,2.3656,-0.44929,2.306,-21.78,21.78,-32.22
18.251,-6.279,19.45,2.4645,-0.61025,2.5333,-22.02,20.22,-31.86
19.504,-14.642,19.532,3.0998,-1.3613,2.3717,-21.9,16.8,-31.62
18.96,-10.556,19.532,3.5088,-0.68142,1.8662,-21.54,14.76,-31.32
16.058,-8.0224,19.532,3.6618,0.405,1.5837,-20.82,12.96,-31.02
9.4253,-8.1722,13.961,3.466,0.56291,1.4737,-19.56,9.9,-30.78
7.3277,-7.5321,11.046,3.0097,0.057116,1.2007,-19.02,8.52,-30.66
3.5685,-6.4152,5.7614,2.9227,-0.032681,1.1442,-18.42,7.2,-30.66
0.76274,-6.0611,0.8036,2.7297,-0.06689,1.0116,-17.58,4.44,-30.54
-0.01362,-5.9249,-2.0975,2.4172,-0.23182,0.72998,-17.28,3.06,-30.66
-1.6753,-4.9033,-4.1814,1.8891,-0.59712,0.44043,-16.5,0.66,-30.78
-2.4244,-4.9033,-4.4402,1.2468,-1.088,0.21258,-16.02,-0.24,-30.72
-4.9033,-5.9249,-4.6309,0.56474,-1.1335,0.16005,-15.54,-0.96,-30.66
-5.6661,-6.565,-4.5764,-0.12614,-1.0678,0.091324,-15.36,-1.56,-30.96
-5.6116,-7.1507,-4.018,-0.90713,-0.8262,0.043677,-15.48,-1.74,-31.02
-4.7535,-7.8045,-2.9284,-2.0944,-0.33811,-0.070555,-16.02,-1.62,-31.2
-2.0703,-8.8941,-0.19068,-2.7617,-0.23305,-0.11851,-17.34,-1.56,-31.74
0.84446,-8.54,3.7184,-3.4719,-0.062614,-0.39523,-17.88,-1.5,-31.98
6.7557,-9.0303,15.5,-4.1001,0.12889,-0.40348,-18.72,-1.5,-31.98
12.694,-10.637,19.028,-3.883,1.0177,0.20708,-19.08,-1.26,-31.92
17.162,-11.073,19.409,-3.5849,0.91172,0.099876,-19.32,-1.02,-31.8
19.504,-13.307,19.532,-2.7284,0.49663,-1.0858,-19.8,-0.3,-31.26
19.477,-11.482,19.532,-2.4966,1.5803,-1.6362,-19.98,0.12,-30.9
15.895,-6.7966,16.235,-2.0614,2.7617,-2.3399,-20.4,1.2,-30.3
11.101,-1.7706,12.054,-1.9459,2.5733,-2.4731,-20.7,1.98,-30.3
8.322,1.8115,8.0088,-1.9239,2.091,-2.4383,-21.0,2.76,-30.48
7.3414,3.1735,6.674,-1.9401,1.7514,-2.3695,-21.42,3.66,-30.78
4.9306,4.2223,3.6366,-1.8494,0.80481,-1.9804,-22.14,5.7,-31.62
4.1406,4.4539,2.0567,-1.6087,0.29474,-1.678,-22.68,6.84,-32.1
2.0703,5.6933,-0.81722,-1.3421,-0.34361,-1.4038,-23.04,7.92,-32.4
0.081722,6.674,-2.2337,-1.0263,-1.0095,-0.98197,-24.18,10.32,-33.18
-1.3757,6.8919,-2.4517,-0.91813,-0.96059,-0.82161,-24.54,11.4,-33.42
-2.0294,6.8783,-2.4108,-0.64446,-0.56261,-0.44685,-25.08,12.42,-33.72
-1.6344,6.4833,-1.975,-0.032376,0.041844,-0.02474,-25.56,13.44,-33.84
0.55843,5.5435,-0.54481,0.37721,-0.24251,0.15913,-26.28,15.54,-34.5
1.7025,4.9306,0.8036,0.76602,-0.88423,0.28558,-26.64,16.44,-34.86
3.4459,3.7728,3.8273,1.1832,-1.3005,0.29871,-27.36,17.88,-34.92
4.3858,3.7592,7.2733,1.5424,-1.339,0.34147,-27.78,18.12,-34.5
6.565,3.5277,12.871,1.5498,-0.94043,0.83475,-28.02,18.18,-34.08
11.618,1.3212,18.578,1.7779,-0.48503,1.3922,-28.32,17.94,-33.54
18.17,-8.4855,19.504,2.1851,-0.16952,1.8069,-28.56,16.56,-32.58
19.368,-11.972,19.532,2.7855,-0.60567,2.1023,-28.44,15.48,-32.1
19.518,-9.6977,19.532,3.3588,-0.29047,1.9792,-28.32,14.16,-31.62
15.527,-8.0224,19.491,3.7532,0.48686,1.7043,-27.24,11.28,-31.02
10.91,-7.4503,15.432,3.6612,0.37446,1.573,-26.52,9.9,-30.66
8.7443,-6.674,12.667,3.5595,0.146,1.503,-25.92,8.76,-30.42
4.7126,-5.6116,7.8453,3.3909,-0.06017,1.3922,-25.44,7.44,-30.0
1.4982,-5.5435,3.0101,3.3817,0.094684,1.4172,-24.3,5.22,-29.64
0.44947,-6.0202,-0.24517,3.2144,-0.0097738,1.1973,-23.82,4.2,-29.46
-0.72188,-6.0066,-3.1054,3.0317,-0.219,1.0513,-22.26,2.46,-29.64
-1.8251,-5.5162,-4.0316,2.1728,-0.80695,0.54917,-21.48,1.68,-29.64
-3.2144,-5.1485,-4.2495,1.4548,-0.84635,0.29138,-20.64,1.2,-29.76
-4.9578,-5.2711,-3.7456,0.81153,-0.6689,0.22113,-19.5,0.48,-29.82
-5.2166,-5.8704,-3.7728,0.1967,-0.41814,0.24618,-19.14,0.24,-29.94
-4.3585,-6.0883,-3.8954,-0.49022,-0.2926,0.19242,-18.78,0.18,-29.94
-1.7298,-6.7557,-2.2201,-1.2645,-0.34606,0.16218,-18.66,0.24,-30.06
0.8036,-7.5048,1.757,-2.5238,-0.4554,0.0562,-18.9,0.3,-30.18
2.5198,-7.7908,4.7671,-3.3915,-0.37202,-0.047647,-19.08,0.36,-30.36
7.7772,-8.4719,15.582,-3.9303,0.0030543,0.24007,-19.26,0.36,-30.54
17.611,-14.342,19.409,-3.7177,0.41661,0.9108,-19.2,0.54,-30.3
19.286,-17.053,19.518,-2.8219,0.60323,-0.022297,-19.02,0.78,-29.94
19.532,-11.577,19.532,-1.9859,1.2578,-0.35216,-18.66,0.96,-28.86
16.699,-7.3141,18.633,-1.6457,3.1921,-1.0586,-18.6,1.26,-28.5
12.0,-2.8739,14.138,-1.6078,3.1209,-1.3375,-18.54,1.26,-28.08
10.324,-0.89894,12.013,-1.6518,1.8463,-1.4273,-18.6,1.5,-27.96
6.8919,3.3234,6.3335,-1.6203,1.2016,-1.3424,-18.9,2.28,-28.26
5.9793,3.4732,5.0531,-1.4917,0.78252,-1.3613,-19.26,2.88,-28.56
4.9578,3.4459,3.1054,-1.3073,0.44013,-1.2963,-19.62,3.72,-29.04
3.228,3.8001,0.027241,-1.0278,-0.23152,-1.2425,-20.52,5.58,-29.88
2.0839,4.413,-0.7355,-0.87384,-0.64294,-1.16,-20.94,6.6,-30.12
0.7355,4.9987,-1.0896,-0.69211,-0.83322,-0.97097,-21.36,7.56,-30.3
-0.21793,5.489,-0.58567,-0.40561,-0.83322,-0.68936,-22.2,9.54,-30.96
0.16344,5.7069,-0.12258,-0.020464,-0.92485,-0.41294,-22.74,10.26,-31.38
1.0488,5.9112,0.8717,0.68386,-1.5748,-0.068417,-23.58,11.94,-32.28
1.1169,5.7478,1.471,1.1545,-1.9795,0.1237,-24.0,12.72,-32.52
0.96704,5.3528,2.4653,1.565,-2.0543,0.36744,-24.24,13.44,-32.82
2.0294,5.775,5.7069,1.7627,-1.6371,0.55803,-24.96,14.7,-32.76
3.8954,6.2245,10.501,1.7251,-0.72937,1.0641,-25.2,15.06,-32.46
8.0905,3.7184,17.489,1.9862,-0.3766,1.8518,-25.2,15.12,-32.04
15.132,-6.6331,19.504,2.5049,-1.2963,2.4337,-25.08,13.92,-31.2
16.413,-8.3765,19.532,2.9618,-1.6554,2.5702,-24.72,13.14,-30.84
16.985,-7.5048,19.532,3.1747,-1.2248,2.412,-24.36,12.12,-30.54
14.124,-6.3743,19.532,3.6117,0.056505,2.0794,-23.4,9.42,-30.18
10.515,-6.8647,17.734,3.653,0.029932,1.9798,-22.92,7.98,-30.06
7.4776,-6.1019,14.261,3.5015,-0.3317,1.8653,-22.26,6.72,-29.88
2.7241,-5.0531,8.6489,3.2871,-0.47281,1.8586,-21.18,4.08,-29.58
1.5936,-5.203,6.4152,3.1805,-0.39248,1.9203,-20.4,2.76,-29.64
1.1305,-5.4073,5.2302,3.0278,-0.44776,1.8747,-19.74,1.56,-29.46
0.36775,-5.1621,2.2337,2.7913,-0.7028,1.7126,-18.12,-0.78,-28.92
-0.10896,-4.808,1.3076,2.4847,-1.0183,1.5256,-17.4,-2.04,-28.62
-0.81722,-4.7399,0.25879,2.1304,-1.259,1.3299,-16.74,-3.06,-28.38
-2.1112,-4.699,-0.34051,1.8054,-1.3412,1.1325,-15.96,-4.44,-27.84
-2.3155,-4.3994,-0.8036,1.3833,-1.2874,0.88789,-15.96,-5.28,-27.42
-2.0158,-3.6911,-0.96704,1.0647,-1.1707,0.81581,-15.84,-6.0,-27.0
-1.1577,-3.6094,-0.39499,0.65149,-1.0024,0.8656,-15.84,-6.48,-26.64
1.2803,-3.9499,2.0294,0.16402,-0.84147,0.88789,-16.5,-7.26,-25.62
4.1542,-3.6775,6.3743,-0.37049,-0.57696,1.0189,-17.4,-8.34,-24.84
8.9213,-4.1133,13.92,-0.97341,-0.072693,1.3228,-18.18,-9.06,-23.82
13.579,-7.0009,17.57,-1.1741,0.30238,1.7917,-18.78,-9.84,-23.04
15.187,-8.0496,17.366,-0.34056,0.31093,2.1692,-18.96,-10.26,-22.62
16.903,-8.1858,15.541,0.33781,0.26786,1.7651,-18.96,-10.5,-22.14
16.222,-7.5184,14.819,0.62125,0.97097,1.4267,-17.94,-11.28,-20.7
13.974,-5.9793,13.375,0.64049,1.6072,1.0776,-16.38,-12.24,-19.02
10.719,-3.4187,9.5342,0.54581,1.3363,0.77916,-15.3,-13.86,-17.52
8.2131,-1.5527,6.7012,0.44104,0.78069,0.58399,-15.3,-15.96,-16.44
6.3879,-0.50395,4.413,0.25626,0.47067,0.42577,-16.26,-18.42,-15.96
5.5707,-0.054481,3.051,0.14325,0.60079,0.39004,-18.72,-20.88,-16.08
5.7342,-0.054481,2.2337,0.080634,0.63805,0.33048,-20.16,-21.9,-16.5
6.0611,0.068102,1.7979,0.066279,0.27855,0.24343,-21.9,-22.62,-17.22
5.0259,0.19068,1.1169,0.10873,-0.47556,0.22633,-25.86,-23.76,-19.08
3.4187,0.38137,0.91256,0.27031,-1.4181,0.47159,-27.84,-23.76,-20.28
1.7843,1.0079,1.2122,0.35491,-1.5183,0.5736,-30.0,-23.46,-21.66
0.14982,1.9205,2.0839,0.71349,-1.0815,1.109,-34.32,-22.32,-24.6
1.3076,2.2201,2.833,0.97036,-0.56933,1.5351,-36.12,-21.48,-25.98
2.7377,2.1384,4.1542,1.1203,-0.42486,1.9725,-37.98,-20.4,-27.42
5.9521,1.4029,8.145,1.2,-0.69394,2.4202,-40.5,-17.4,-29.64
7.6002,0.61292,10.161,1.3302,-1.438,2.7587,-41.76,-15.72,-30.48
10.515,-2.4653,13.988,1.3775,-1.6939,2.7232,-43.32,-13.98,-31.14
10.052,-2.9692,15.282,1.4478,-2.6618,2.5351,-45.54,-10.44,-31.68
9.7658,-2.9284,16.385,1.6127,-2.5268,2.375,-46.62,-8.82,-31.32
9.2482,-2.8739,16.644,1.8262,-1.7627,2.229,-47.58,-7.5,-30.36
8.6898,-3.051,16.154,2.1023,-1.2819,2.0473,-49.56,-5.76,-27.9
8.4719,-3.0918,14.86,2.5717,-1.3314,1.7917,-50.64,-5.4,-26.64
6.0883,-2.4925,11.591,2.6954,-1.5211,1.7318,-52.32,-5.58,-24.12
3.7047,-1.8524,9.8339,2.8769,-1.8069,1.6002,-52.86,-5.88,-22.86
2.547,-1.2531,9.1529,2.883,-1.7361,1.5913,-53.34,-6.3,-21.42
2.2746,-1.0079,9.0439,2.7859,-1.4273,1.7046,-54.06,-7.14,-18.84
2.656,-1.4165,8.8668,2.6878,-1.5366,1.7956,-54.12,-7.68,-17.52
2.656,-1.7025,8.717,2.4462,-2.1075,1.8103,-53.76,-8.28,-16.38
1.9477,-1.7706,8.6762,2.3741,-2.1985,1.7969,-51.78,-9.3,-13.68
1.2531,-1.9886,8.7987,2.1945,-1.9432,1.8048,-50.46,-9.78,-12.42
1.1577,-2.0294,8.8941,2.1515,-1.551,1.8735,-49.08,-10.14,-11.28
2.0294,-2.6015,8.9349,2.1047,-1.2251,1.9746,-46.02,-10.5,-9.48
2.6015,-3.0237,9.0303,2.0391,-1.109,2.0669,-44.28,-10.44,-8.7
3.337,-3.7184,9.1393,1.9691,-1.0168,2.1796,-41.16,-9.9,-7.02
3.3097,-3.9635,8.7715,1.9212,-1.0421,2.2828,-39.9,-9.3,-6.18
3.1327,-4.2359,8.6625,1.9181,-0.96456,2.3888,-38.76,-8.58,-5.4
3.2961,-4.9033,8.3493,1.9337,-0.74159,2.5143,-36.78,-6.96,-3.96
3.732,-5.5162,8.1313,1.9166,-0.57238,2.6209,-35.88,-5.94,-3.24
4.2904,-6.0474,7.7364,1.9135,-0.5284,2.6429,-35.04,-4.8,-2.58
5.1485,-7.1915,7.0281,1.8008,-0.64599,2.4911,-33.66,-2.64,-1.38
5.1894,-7.8998,6.674,1.6612,-0.63897,2.3011,-32.76,-1.62,-0.78
5.203,-8.4582,6.4833,1.4331,-0.47678,2.0919,-31.98,-0.6,-0.54
5.3256,-9.9292,5.9657,1.1744,-0.18173,1.8427,-29.88,1.26,0.24
5.5707,-10.351,5.5299,0.90316,0.058338,1.5718,-28.5,2.1,0.48
5.7342,-10.637,4.9306,0.63897,0.16432,1.2697,-27.24,2.76,0.96
6.0611,-10.624,4.0589,0.36682,0.24648,0.80298,-24.54,3.96,1.92
5.9793,-10.474,3.8137,-0.091935,0.45601,0.53573,-23.16,4.26,2.46
6.1019,-10.161,3.6366,-0.25381,0.55253,0.42058,-21.72,4.32,3.18
6.4424,-9.8066,3.6366,-0.73854,0.76877,0.088881,-20.34,4.2,3.9
7.2324,-8.8532,4.0589,-1.0464,0.73793,-0.08491,-18.06,2.4,5.52
7.6002,-8.3765,4.2495,-1.3149,0.69547,-0.30665,-17.46,0.84,6.3
7.9679,-8.0632,4.2223,-1.5482,0.66981,-0.57544,-18.18,-3.6,7.44
8.2131,-6.4969,4.8488,-1.7904,0.57146,-0.93982,-20.04,-6.06,7.56
7.8862,-5.8976,5.1213,-1.8286,0.53359,-1.0318,-22.62,-8.28,7.8
7.2324,-5.0123,5.5843,-1.8189,0.36652,-1.208,-25.86,-10.2,7.74
6.7148,-3.9635,5.9249,-1.759,0.24526,-1.2776,-33.6,-12.36,7.68
6.2654,-3.0918,5.9657,-1.6955,0.19914,-1.2944,-37.56,-12.72,7.62
6.0747,-2.3699,6.1019,-1.5944,0.28527,-1.2642,-41.46,-12.72,7.56
6.6467,-0.64016,6.7693,-1.3879,0.61117,-1.1799,-48.36,-11.76,7.32
6.8238,-0.25879,6.9328,-1.2199,0.65821,-1.0831,-51.72,-11.1,7.14
6.8919,0.29965,7.0009,-1.1264,0.59895,-1.0091,-54.9,-10.26,6.78
6.3198,1.2258,6.8647,-0.74312,0.47342,-0.75289,-60.72,-7.26,6.06
5.9385,1.7706,6.3607,-0.37141,0.5226,-0.55283,-63.0,-5.22,5.7
5.775,2.2201,5.9249,0.35155,0.57879,-0.3204,-66.36,-0.12,5.1
5.7342,2.8058,5.2711,0.90011,0.43952,-0.19181,-66.78,2.52,5.16
5.6116,2.7104,5.0259,1.1814,0.32315,-0.13408,-66.72,4.8,5.22
5.6116,2.0294,4.8625,1.9358,-0.054672,0.087354,-66.18,6.72,5.4
5.9521,1.1986,5.5707,2.3628,-0.19487,0.27886,-64.32,7.98,5.16
6.8238,0.44947,7.4503,2.6609,-0.30238,0.52657,-63.18,7.44,4.68
8.9213,-1.0624,10.706,2.7874,-0.36835,0.86773,-61.8,6.3,4.2
13.225,-6.0611,16.413,2.5867,-1.0354,1.5681,-57.78,3.54,3.42
14.192,-9.2346,18.633,2.4093,-1.6863,1.628,-55.08,2.4,2.94
13.484,-10.61,19.341,2.3787,-1.8323,1.5638,-52.26,1.56,2.58
12.149,-9.398,18.878,2.4025,-1.2477,1.5275,-46.62,0.72,1.98
11.141,-9.0167,17.134,2.4031,-0.62003,1.4762,-43.86,0.6,1.68
9.6296,-8.1177,15.023,2.3543,-0.31796,1.383,-41.16,0.78,1.38
5.4481,-5.5707,9.4389,2.3078,-0.19548,1.2562,-36.06,1.56,0.6
4.1678,-4.7671,7.7091,2.2498,-0.03207,1.1936,-33.48,2.04,0.12
2.0158,-3.337,4.5083,2.1915,0.07758,1.1118,-30.96,2.64,-0.42
0.095342,-2.1929,1.2531,2.051,0.055589,0.99907,-25.92,4.68,-1.2
-0.8036,-1.7979,-0.42223,1.7767,-0.11179,0.85827,-23.82,6.24,-1.26
-1.2531,-1.5936,-1.2803,1.4288,-0.29596,0.67226,-22.08,8.04,-1.44
-2.5334,-2.2065,-2.0022,1.0763,-0.45754,0.55161,-20.94,11.76,-2.4
-3.3506,-3.0373,-2.4517,0.52565,-0.62461,0.48136,-21.24,13.32,-2.94
-4.1951,-4.1814,-2.5879,0.10018,-0.64599,0.43768,-21.84,14.58,-3.66
-5.1076,-7.2733,-2.3427,-0.39859,-0.45601,0.36011,-23.28,16.2,-4.86
-4.3585,-8.6353,-1.2258,-0.99235,-0.066279,0.22938,-24.0,16.68,-5.52
-3.1599,-9.6432,-0.34051,-1.6634,0.21716,0.0058032,-24.48,16.92,-6.0
3.9635,-13.007,7.8045,-2.5033,0.21869,-0.54398,-25.08,17.22,-6.48
6.279,-14.261,12.381,-3.5818,0.53695,-0.73731,-25.14,17.28,-6.42
12.095,-15.895,18.946,-3.5965,0.69975,-0.64935,-25.08,17.22,-6.12
18.919,-13.416,19.518,-3.0235,0.70677,-1.0339,-25.08,16.5,-5.28
18.769,-11.673,19.45,-2.3613,1.3631,-1.5568,-25.38,15.78,-4.86
16.63,-8.8124,18.251,-2.1536,2.1796,-1.9319,-25.92,14.88,-4.74
15.146,-6.3471,17.094,-2.1069,2.3738,-2.4395,-26.7,14.04,-4.38
10.774,0.5993,13.076,-2.0626,1.7342,-2.4627,-28.98,12.6,-4.8
9.1393,1.9886,10.542,-1.9499,0.90591,-2.3686,-30.12,11.94,-4.74
7.5048,2.6151,9.2482,-1.7798,0.37843,-2.2312,-31.38,11.46,-5.1
5.489,3.3097,5.8295,-1.3586,0.25656,-2.0327,-34.26,10.56,-5.94
4.2495,3.5549,2.9284,-1.025,0.1011,-1.905,-35.94,10.14,-6.36
2.6423,4.0044,0.12258,-0.77427,-0.3317,-1.7333,-37.5,9.66,-6.66
-0.85808,5.7342,-0.85808,-0.45112,-0.93187,-1.277,-40.74,8.76,-7.68
-1.8524,6.4697,-1.2531,-0.15608,-0.87354,-0.86437,-42.36,8.28,-8.34
-2.261,6.7012,-1.5119,0.03543,-0.76419,-0.64721,-43.92,7.86,-9.06
-2.4108,6.5105,-1.866,0.64446,-0.54336,-0.016188,-45.42,7.74,-9.9
-1.185,5.5435,-1.0351,1.062,-0.63316,0.30574,-47.52,7.8,-10.92
-0.14982,4.6173,0.49033,1.4878,-0.75625,0.5058,-48.06,7.68,-11.16
1.4846,3.2689,4.5901,1.9355,-0.72449,0.6579,-48.42,7.26,-10.98
5.9793,1.5119,9.0439,2.3344,-0.56719,0.86132,-47.7,5.88,-10.2
10.406,0.027241,15.895,2.4435,-0.5116,1.4404,-46.92,4.98,-9.66
14.342,-1.8387,18.633,2.7202,-0.45876,2.0311,-45.84,4.14,-9.18
19.409,-11.441,19.518,2.7486,-0.45754,2.1414,-42.6,2.7,-8.22
19.518,-12.381,19.532,2.7883,-0.80543,1.9517,-40.86,2.28,-7.74
15.636,-8.8668,19.532,2.8653,-0.3937,1.5137,-37.62,2.22,-6.9
12.735,-8.7306,17.407,2.9105,0.23213,1.4383,-36.12,2.58,-6.54
10.733,-8.2267,14.86,2.6704,0.70647,1.2703,-34.8,3.18,-6.24
7.4367,-6.6604,9.9292,2.4902,0.65943,1.1826,-33.72,3.66,-6.06
3.5413,-5.2847,4.5628,2.3702,0.54734,1.1692,-31.62,5.04,-6.12
1.0896,-4.8897,0.76274,2.3039,0.343,1.1631,-30.66,6.0,-6.36
-0.14982,-4.3585,-1.4982,2.1609,0.029322,1.066,-29.76,7.02,-6.78
-2.0567,-3.2825,-4.522,1.573,-0.46151,0.76205,-28.8,9.48,-7.62
-3.1191,-2.9148,-4.808,0.98746,-0.74098,0.60628,-28.68,10.8,-8.22
-3.9635,-2.9965,-4.413,0.67256,-0.76022,0.57941,-28.68,11.94,-8.7
-5.1757,-4.3721,-3.8273,-0.20861,-0.42364,0.73457,-29.1,13.02,-9.3
-4.6445,-7.4503,-3.1872,-0.89583,-0.14691,0.73762,-30.3,14.88,-10.62
-3.4868,-9.0984,-1.9341,-1.5858,-0.01741,0.51832,-30.9,15.54,-11.1
-0.21793,-10.896,1.7025,-2.2422,0.018326,0.40775,-31.5,16.44,-12.06
4.413,-12.395,7.8589,-3.2718,0.35949,-0.37018,-31.62,16.74,-12.36
7.4503,-13.416,13.375,-3.6096,0.6466,-0.65363,-31.5,16.92,-12.3
18.66,-16.644,19.436,-3.9838,0.72296,-0.96272,-31.2,16.92,-11.7
19.423,-14.928,19.518,-3.5339,0.88331,-1.7089,-31.08,16.68,-11.34
18.156,-11.85,19.409,-2.5504,2.0907,-2.5675,-31.5,16.02,-10.44
13.525,-5.0395,16.331,-2.2886,3.2574,-2.9441,-31.98,15.54,-10.26
11.073,-1.2258,13.579,-2.0953,2.7715,-3.094,-32.4,15.0,-10.26
9.7522,0.99429,11.904,-2.0036,2.1396,-3.0146,-33.24,14.76,-10.44
7.2869,3.7865,8.6081,-1.8308,0.40439,-2.5317,-34.08,14.34,-10.62
3.4459,4.522,4.4402,-1.6423,-0.14966,-2.1405,-36.12,13.5,-11.16
2.261,4.6582,2.547,-1.35,-0.31368,-1.5986,-37.2,13.14,-11.46
0.70826,5.0259,-0.54481,-1.0837,-0.33567,-1.4878,-39.72,12.36,-12.06
-0.92618,5.8295,-1.5391,-0.94318,-0.52687,-1.303,-40.98,11.76,-12.42
-1.6072,6.4016,-1.6344,-0.87995,-0.63897,-1.0562,-42.36,11.34,-12.9
-2.5879,7.1643,-0.92618,-0.59346,-0.23885,-0.47556,-44.76,10.86,-14.1
-1.8387,6.9464,-0.55843,-0.22663,-0.069639,-0.058338,-46.08,10.68,-14.46
-0.74912,6.3471,0.054481,0.60537,-0.46823,0.3989,-47.94,10.44,-15.3
1.4301,4.4402,2.3155,1.2975,-0.73029,0.59254,-48.78,10.44,-15.24
2.9284,3.5958,3.8546,1.9395,-0.76572,0.7254,-49.5,10.14,-14.94
4.2904,3.3506,5.7614,2.3179,-0.67104,1.0091,-49.86,9.72,-14.52
12.095,2.3836,17.393,2.5714,-0.44532,1.6185,-49.8,8.52,-13.44
17.856,-2.1384,19.273,2.8869,-0.41722,2.2083,-49.26,7.62,-12.9
19.327,-9.4389,19.504,3.0949,-0.75564,2.3283,-48.12,6.54,-12.36
19.014,-14.192,19.532,3.3824,-1.3335,2.1121,-45.0,5.4,-10.86
16.372,-9.6841,19.532,3.576,-0.69852,1.7465,-43.5,5.22,-10.14
13.511,-8.4446,18.905,3.7727,0.41294,1.4896,-42.0,5.1,-9.6
10.91,-8.5808,15.636,3.405,0.73701,1.3897,-40.68,5.22,-9.06
5.7614,-6.6331,8.4174,2.9716,0.12217,1.0986,-38.34,5.52,-8.7
2.8603,-5.9249,5.3937,2.6747,-0.25443,0.92027,-37.32,5.76,-8.64
-1.185,-5.4209,3.4323,2.4422,-0.23121,0.96364,-34.68,6.36,-8.82
-1.8932,-5.4618,-2.2065,2.1869,-0.13561,0.85124,-33.42,6.96,-9.12
-2.2474,-5.3392,-4.1406,1.7199,-0.19334,0.68111,-32.28,7.44,-9.36
-2.6015,-5.2166,-4.6445,1.051,-0.36133,0.5507,-31.2,8.1,-9.54
-4.127,-5.3528,-4.3994,0.31521,-0.47464,0.51221,-29.82,9.84,-10.32
-4.4811,-6.0883,-3.9363,-0.39981,-0.45112,0.54398,-29.94,10.74,-10.98
-3.6094,-7.5729,-2.942,-1.0986,-0.41844,0.54398,-30.78,11.82,-12.0
-2.4925,-8.1586,-1.1032,-2.0892,-0.42669,0.31551,-31.08,12.06,-12.48
-0.62654,-8.5808,0.21793,-2.5855,-0.42455,0.060476,-31.32,12.18,-12.84
3.2144,-8.2676,4.2904,-2.9386,-0.35613,-0.37354,-31.44,11.94,-12.72
7.3141,-7.3686,9.0031,-3.3127,0.1011,-0.8265,-31.44,11.82,-12.36
10.311,-7.0553,13.906,-3.8723,0.45601,-1.0611,-31.26,11.7,-12.0
19.205,-9.5751,19.45,-3.9276,0.15485,-0.95509,-31.2,11.1,-11.04
19.491,-10.093,19.518,-2.697,0.026573,-1.7058,-31.2,10.56,-10.38
19.504,-9.3027,19.518,-2.054,0.91569,-1.8521,-31.26,10.02,-9.66
17.924,-4.5764,15.827,-1.6121,2.0855,-2.0776,-31.2,8.76,-8.04
15.677,-2.1248,13.157,-1.211,2.3958,-2.4859,-31.32,7.98,-7.38
12.83,0.34051,10.692,-0.97464,1.0595,-2.547,-31.38,7.14,-6.72
7.2869,4.2495,6.4833,-0.69852,-0.70494,-2.2385,-32.1,5.22,-6.3
5.3664,4.8761,4.9442,-0.1347,-1.8451,-1.9755,-32.7,4.14,-6.12
2.0022,5.5162,1.9068,0.23732,-1.8127,-1.7749,-33.36,2.94,-6.12
-0.47671,5.8295,-0.40861,0.53634,-1.4096,-1.6945,-34.68,0.78,-6.3
-1.3893,5.8431,-1.6072,0.7025,-1.0647,-1.6386,-35.28,-0.42,-6.48
-1.6753,5.5435,-1.8932,0.74892,-0.9276,-1.5269,-35.7,-1.74,-6.6
-2.1112,4.0044,-2.0839,0.80817,-0.81551,-1.4099,-36.54,-3.78,-6.78
-1.6208,2.547,-2.1384,1.0131,-0.66554,-1.2697,-36.9,-4.74,-6.9
-0.38137,1.471,-1.8796,1.1051,-0.69211,-1.2599,-37.08,-5.52,-6.9
3.2553,1.0215,0.95342,1.4917,-0.75289,-1.3476,-37.38,-7.26,-7.02
4.6718,1.3484,2.4108,1.7489,-0.53542,-1.3299,-37.5,-7.98,-6.84
5.4073,3.3642,5.3528,1.821,-0.019548,-1.0901,-37.38,-8.58,-6.48
8.2676,5.4345,9.6023,1.8091,0.45021,-0.30513,-36.72,-9.6,-5.4
15.268,4.4675,15.8,2.0079,1.5779,0.82039,-36.3,-9.96,-4.8
18.006,4.2223,18.265,2.2092,1.7568,1.3192,-35.88,-10.26,-4.26
19.491,4.0316,19.491,2.5128,1.8378,1.7767,-35.1,-10.8,-3.48
19.532,3.732,18.987,2.777,1.1338,1.6918,-34.86,-10.8,-3.06
19.532,2.9965,16.699,2.8815,0.082467,1.2694,-34.98,-10.74,-2.88
15.718,2.2882,11.319,2.8897,-0.71166,0.80451,-35.22,-10.56,-2.52
11.645,1.4029,8.1858,2.8301,-1.5207,0.24007,-35.52,-10.5,-2.4
7.355,-0.38137,4.9578,2.7471,-1.6304,0.040623,-35.88,-10.32,-2.4
2.0703,-2.7513,0.76274,2.5705,-1.3069,-0.079107,-36.18,-10.14,-2.28
-2.3291,-4.7399,-3.2689,2.211,-0.57482,-0.063835,-37.14,-9.9,-1.86
-4.1133,-5.3937,-5.0395,1.5782,0.17562,0.1628,-37.68,-9.78,-1.74
-5.6933,-5.6661,-5.38,0.74373,0.4328,0.53237,-38.46,-9.66,-1.62
-6.5786,-7.2188,-3.337,-0.62889,0.69119,1.014,-39.78,-9.3,-1.62
-4.8352,-7.641,-0.9398,-0.99021,1.0043,1.1283,-40.44,-9.12,-1.56
-1.9613,-7.6955,0.89894,-1.4722,2.0763,1.189,-40.92,-8.88,-1.5
4.7263,-7.355,4.8897,-1.9279,2.1945,0.50274,-41.46,-8.52,-1.44
6.4969,-6.4969,7.6683,-1.9829,0.50671,0.30665,-42.36,-8.16,-1.8
6.0883,-5.38,9.4934,-1.8793,-1.5388,0.16096,-42.6,-7.98,-1.98
12.136,-1.7706,14.288,-2.0009,-1.029,0.065668,-43.02,-7.56,-1.98
15.337,-1.0215,15.99,-2.0201,0.77305,-0.15882,-43.2,-7.14,-1.98
17.107,-1.8387,16.508,-2.0507,1.2336,-0.41508,-43.44,-6.84,-2.22
19.055,-2.8739,17.352,-2.3356,0.96364,-1.0599,-43.74,-6.42,-2.58
19.532,-3.9499,16.644,-2.5207,0.83597,-1.3598,-44.1,-5.76,-3.48
17.802,-1.6753,13.797,-2.7159,0.42089,-1.4441,-43.98,-5.46,-3.96
10.46,3.732,8.6625,-2.8491,0.26909,-1.0214,-44.04,-5.1,-4.8
7.8726,6.1019,6.6876,-2.9089,0.45937,-0.76969,-44.04,-5.16,-5.22
6.8374,7.1643,5.7478,-2.9499,0.56627,-0.5507,-44.04,-5.34,-5.7
4.1406,6.6467,2.833,-2.8836,0.49114,-0.38668,-44.22,-5.76,-6.3
2.6696,5.598,1.3484,-2.6857,0.16066,-0.27978,-44.28,-6.0,-6.6
1.185,4.8625,0.10896,-2.4034,-0.067806,-0.19212,-44.46,-6.24,-7.02
-0.10896,5.6116,-0.40861,-2.0824,-0.19731,-0.076053,-44.82,-6.72,-8.22
0.12258,5.8295,-0.19068,-1.4007,0.26634,-0.013134,-45.0,-7.08,-8.7
0.68102,5.993,-0.19068,-0.81459,0.77672,0.052229,-45.48,-7.38,-9.3
1.4301,6.3471,0.095342,-0.18265,0.8717,0.1295,-45.78,-7.86,-10.32
1.8115,6.1564,0.42223,0.4496,0.74006,0.15974,-45.96,-8.04,-10.74
2.5742,5.6252,0.88532,1.029,0.64568,0.13806,-46.32,-8.16,-11.28
5.1894,4.1678,3.2825,1.5012,0.45418,0.073609,-46.62,-8.34,-12.12
6.279,4.0725,4.8216,1.8641,0.25443,0.135,-46.68,-8.46,-12.42
7.9134,4.5628,7.1507,1.8234,0.32926,0.25137,-46.86,-8.46,-12.78
15.909,2.5061,15.595,1.5797,0.34239,0.84574,-46.5,-8.58,-13.26
17.42,-0.50395,17.243,1.4957,0.25229,1.0247,-46.14,-8.58,-13.44
18.292,-2.3155,19.123,1.5446,-0.028711,1.1228,-45.84,-8.46,-13.5
19.504,-1.1441,19.532,2.2092,-0.13867,0.9334,-45.0,-7.98,-13.5
19.314,-0.39499,19.532,2.8772,-0.35277,0.7532,-44.7,-7.86,-13.56
12.83,-1.2258,17.284,2.9144,-0.43066,0.65699,-44.1,-7.68,-13.38
8.5808,-2.0431,13.838,2.8369,-0.15974,0.47709,-43.62,-7.26,-13.14
4.9033,-3.337,9.6296,2.6869,0.060781,0.54245,-43.44,-7.14,-13.08
1.9341,-4.413,5.1076,2.3476,0.23457,0.63072,-43.14,-7.08,-13.02
-1.5936,-5.993,-1.7979,1.8961,0.055283,0.76083,-42.72,-6.9,-12.96
-3.1191,-5.8976,-4.4947,0.90988,-0.60048,0.98624,-42.54,-6.6,-12.9
-6.1564,-4.8488,-5.4481,0.55955,-0.76725,1.0825,-42.48,-6.0,-12.78
-7.0962,-4.9442,-5.2847,-0.1127,-0.72785,1.3396,-42.6,-5.76,-12.72
-6.5922,-5.8704,-3.8682,-1.0809,-0.26389,1.664,-42.78,-5.28,-12.54
-5.3392,-6.3743,-2.6696,-1.6118,0.040317,1.6686,-42.9,-4.8,-12.48
0.47671,-7.3141,2.4108,-2.0721,0.18082,1.6173,-43.08,-4.08,-12.24
1.5119,-7.7364,3.7728,-2.3799,0.14691,1.1915,-43.02,-3.54,-12.06
2.3155,-8.1041,5.5162,-2.503,0.026573,1.0492,-43.02,-2.88,-12.0
5.9385,-7.8181,9.2346,-2.7199,0.5339,0.69394,-42.66,-1.68,-11.76
8.4719,-7.8998,12.885,-2.9337,1.5999,0.55344,-42.36,-1.08,-11.58
10.542,-8.4038,17.352,-2.81,2.303,0.50488,-42.06,-0.36,-11.22
10.542,-8.4038,17.352,-2.81,2.303,0.50488,-42.06,-0.36,-11.22
19.504,-13.157,19.532,-2.3796,1.4102,-1.1555,-41.1,1.5,-10.62
19.532,-13.348,19.532,-2.4169,1.2187,-1.3952,-40.62,1.92,-10.44
19.463,-10.651,19.314,-2.445,1.0534,-1.6948,-40.44,2.28,-10.44
14.342,-4.7671,13.511,-2.1774,1.4093,-1.8983,-40.32,2.64,-10.62
9.5479,0.054481,8.9758,-2.0717,1.4438,-1.8854,-40.8,2.52,-11.22
7.7091,2.1929,6.6604,-2.062,1.1787,-1.6927,-41.16,2.34,-11.76
5.3392,3.8137,3.8273,-2.0745,0.72326,-1.5131,-42.3,2.22,-13.2
3.9771,4.4811,3.0101,-1.9676,0.21136,-1.3457,-42.84,2.22,-13.74
2.3836,5.3119,1.6072,-1.7449,-0.37751,-1.1839,-43.56,2.4,-14.46
-0.7355,7.5457,-0.47671,-1.3265,-0.93951,-0.95081,-44.64,2.64,-15.6
-1.9613,8.2267,-1.1713,-0.95875,-0.72907,-0.68234,-45.24,2.7,-16.02
-2.5742,8.2131,-1.1577,-0.51435,-0.29047,-0.37538,-45.84,2.76,-16.38
-1.3893,7.1915,-0.61292,0.036346,0.1628,-0.11026,-47.1,3.54,-17.1
-0.69464,6.8919,-0.16344,0.92424,0.13378,0.16677,-47.46,3.84,-17.58
0.49033,6.3743,0.64016,1.2141,-0.036041,0.22969,-47.76,4.14,-17.82
3.1463,5.1485,3.1054,2.0913,-0.6295,0.28253,-48.12,4.92,-18.18
3.6775,4.8216,4.4947,2.5134,-0.90133,0.28344,-48.12,5.04,-18.0
7.0553,4.9987,11.632,2.6227,-0.62064,0.55436,-47.94,5.16,-17.4
10.093,3.9227,15.868,2.6603,0.18265,1.0812,-47.64,4.68,-16.92
14.751,0.49033,19.082,2.7636,0.46945,1.5082,-47.34,4.26,-16.62
19.382,-7.6683,19.532,3.1127,-0.62369,1.9749,-46.02,3.0,-15.66
18.864,-8.6898,19.532,3.3979,-0.9838,1.9594,-45.18,2.64,-15.24
17.611,-8.2131,19.532,3.5363,-0.33934,1.8085,-44.28,2.52,-14.88
12.98,-8.1858,18.101,3.5638,0.49236,1.6612,-42.6,2.16,-14.28
10.093,-7.8589,13.893,3.3824,0.7309,1.4731,-42.0,2.16,-14.1
3.4459,-6.3879,6.3743,3.0803,0.50824,1.2834,-41.4,2.1,-13.92
0.8036,-6.3743,3.4732,2.7516,0.32895,1.1655,-40.14,2.1,-13.98
-1.0896,-6.9464,-0.14982,2.5268,0.2865,1.0996,-39.3,2.22,-14.16
-2.152,-6.96,-1.7979,2.1188,0.12004,0.90194,-38.64,2.4,-14.7
-3.1191,-5.5435,-4.7944,1.4508,-0.022297,0.68325,-37.08,2.76,-15.3
-3.8546,-5.5162,-5.0531,0.65301,-0.11668,0.59315,-36.42,3.0,-15.6
-4.6037,-6.3198,-4.9033,-0.16921,-0.1686,0.63561,-35.76,3.36,-16.02
-4.5083,-8.3084,-3.8682,-1.4132,-0.14539,0.75289,-35.4,4.2,-17.16
-3.3778,-9.4525,-2.6287,-1.8225,-0.14844,0.75167,-35.46,4.44,-17.76
-2.1248,-10.188,-1.2803,-2.949,-0.10934,0.62675,-35.52,4.62,-18.3
4.8625,-11.032,7.5048,-3.6695,-0.13592,0.2303,-35.58,5.16,-18.78
10.379,-11.863,15.064,-4.2428,0.17623,-0.35308,-35.52,5.28,-18.78
19.096,-13.457,19.463,-4.4639,0.13042,-0.89125,-35.46,5.46,-18.3
19.477,-11.482,19.532,-4.2464,-0.26237,-1.1774,-35.34,5.52,-18.0
18.864,-9.9837,19.532,-3.5888,-0.16554,-1.7428,-35.58,5.46,-17.46
15.977,-6.6467,19.532,-2.7147,2.5088,-2.1689,-35.64,5.46,-16.86
12.871,-1.5119,15.718,-2.2416,3.0333,-2.4752,-36.42,5.22,-16.32
10.542,1.1441,12.0,-2.0073,2.1707,-2.5916,-36.84,5.22,-16.32
5.9657,3.9635,7.2052,-1.9688,0.54825,-2.4273,-37.8,5.04,-16.38
3.732,4.018,5.5571,-1.9123,0.053756,-2.1225,-38.22,5.1,-16.5
2.2337,4.1678,3.8546,-1.821,-0.0079412,-1.9224,-38.82,5.04,-16.68
1.2395,4.5901,1.9886,-1.3839,-0.086437,-1.3787,-39.6,4.98,-16.8
-0.28603,6.3879,-0.91256,-1.0996,-0.21777,-1.0632,-41.04,4.68,-17.4
-1.0079,6.9872,-1.7298,-0.82222,-0.31765,-0.74067,-41.76,4.68,-17.76
-2.2882,7.1234,-2.1248,-0.53603,-0.21136,-0.34025,-42.96,4.44,-18.6
-2.0839,7.0281,-1.5936,0.067806,0.18998,0.25534,-43.5,4.2,-19.02
-1.3757,6.674,-1.0624,0.64568,0.37538,0.52626,-43.86,4.08,-19.56
2.1248,5.489,1.6889,1.299,0.13867,0.66462,-44.64,3.96,-20.34
3.8137,4.7671,3.7047,1.9765,-0.35827,0.62247,-44.88,4.02,-20.4
4.4675,4.5764,4.7535,2.5861,-0.68753,0.57116,-45.3,3.78,-20.28
7.8317,6.5241,14.71,2.8784,-0.51862,1.0727,-45.9,2.82,-19.86
10.637,5.2575,18.251,3.1466,-0.068722,1.7245,-46.02,2.04,-19.5
15.323,0.47671,19.382,3.3485,-0.3769,2.1139,-45.84,0.9,-18.96
19.409,-11.523,19.532,3.5726,-0.98135,2.2465,-44.34,-1.08,-17.34
19.218,-11.836,19.532,3.7083,-0.9838,1.9957,-43.62,-1.86,-16.5
16.617,-7.1507,19.532,3.642,-0.40653,1.5635,-42.84,-2.52,-15.72
11.005,-7.0826,16.794,3.5207,0.14019,1.3268,-41.58,-3.24,-14.46
7.75,-6.6059,12.395,2.9859,0.31734,1.1741,-41.1,-3.36,-13.74
4.7671,-5.8976,8.2812,2.839,0.32376,1.1133,-40.74,-3.42,-13.2
0.54481,-5.8704,1.7706,2.5198,0.45754,1.1805,-39.78,-3.42,-12.0
-0.78998,-6.3335,-0.91256,2.2608,0.3543,1.168,-39.12,-3.42,-11.7
-1.6344,-6.1564,-3.0646,1.7791,-0.011301,0.99143,-38.28,-3.12,-11.34
-2.8603,-5.1485,-4.9987,1.0699,-0.37415,0.7984,-37.02,-2.1,-10.92
-3.5413,-5.1757,-4.9987,-0.16585,-0.60628,0.71074,-36.42,-1.38,-10.74
-4.5083,-5.6797,-4.6309,-0.53359,-0.60079,0.7532,-36.0,-0.3,-10.74
-4.7126,-7.0281,-4.0997,-1.5855,-0.65607,0.84177,-36.12,1.68,-11.28
-4.0861,-7.4776,-3.2416,-2.2962,-0.67317,0.74067,-36.18,2.46,-11.64
-2.7786,-8.4446,-1.1577,-2.8842,-0.47983,0.62919,-36.3,3.12,-11.94
-1.6344,-8.8124,0.28603,-3.3335,-0.17226,0.43035,-36.42,4.32,-11.76
5.4209,-8.322,9.7658,-4.1331,0.19914,-0.22388,-36.36,4.86,-11.7
8.0632,-8.9213,14.478,-4.2586,0.68539,-0.19609,-36.12,5.28,-11.04
15.159,-10.42,19.218,-4.0726,0.83689,-0.074831,-35.88,5.58,-10.68
19.382,-12.258,19.518,-3.0772,0.61911,-0.94867,-35.76,6.0,-9.48
19.518,-12.817,19.532,-2.5275,0.90439,-1.6142,-35.76,5.94,-8.88
17.775,-9.2891,19.532,-2.3353,1.9621,-2.0217,-35.76,5.82,-8.1
12.217,-3.3778,13.729,-1.9652,2.8085,-2.3769,-36.42,5.64,-7.02
10.079,-0.92618,10.161,-1.9007,2.7156,-2.3983,-37.02,5.46,-6.9
8.7443,0.6674,8.1177,-1.8845,1.9887,-2.3619,-37.56,5.34,-6.96
5.3392,4.0044,4.0589,-1.9548,1.2807,-2.1518,-38.7,5.28,-7.44
4.1406,4.9033,2.8603,-1.901,0.72662,-1.8329,-39.3,5.22,-7.8
2.9284,5.3392,1.3076,-1.6835,0.36591,-1.5269,-39.9,5.1,-8.1
0.81722,7.069,-1.8387,-1.4096,-0.022297,-1.2062,-41.04,4.98,-9.12
-0.24517,7.6819,-2.4108,-1.0724,-0.45296,-0.74281,-41.76,4.98,-9.9
-1.2122,7.8045,-2.4108,-0.9276,-0.42241,-0.54459,-42.3,4.98,-10.44
-1.58,7.355,-1.8387,-0.25565,-0.020769,0.077274,-42.96,5.04,-11.04
0.64016,6.0611,-0.01362,0.34239,-0.0030543,0.32956,-43.8,5.34,-12.18
2.1929,5.4345,1.5119,0.98624,-0.55589,0.5006,-44.22,5.64,-12.72
3.5685,4.8625,5.5707,1.6823,-1.2682,0.47495,-44.46,6.0,-13.02
4.8761,4.4402,7.6955,2.6224,-1.6197,0.43402,-44.88,6.24,-13.08
6.5922,5.1894,12.0,2.8952,-1.2236,0.70585,-44.94,6.18,-12.6
10.134,4.7535,17.025,3.0241,-0.90072,0.9502,-44.94,5.94,-12.06
13.484,1.4846,19.218,3.3564,-0.098044,1.5473,-44.58,5.46,-11.58
19.055,-7.9679,19.532,3.4899,-0.37813,1.7455,-43.26,4.44,-10.5
19.477,-10.256,19.532,3.6967,-0.67073,1.434,-42.54,4.08,-9.72
17.829,-7.5593,19.477,3.7431,-0.74159,1.2886,-41.64,3.9,-9.24
12.64,-7.246,16.944,3.8042,-0.10904,1.1698,-40.38,3.78,-8.58
9.5479,-7.5184,11.741,3.7238,0.35613,1.1261,-39.9,3.84,-8.4
6.3198,-7.1915,9.0167,3.3943,0.25107,1.1093,-39.24,3.9,-8.4
1.2667,-7.3141,3.3234,3.2034,0.14233,1.2104,-38.22,4.02,-8.52
-1.6617,-7.5457,-0.54481,2.9554,-0.034514,1.1973,-37.74,4.14,-8.82
-3.4323,-6.5786,-4.0861,2.5617,-0.071471,1.0928,-36.36,4.56,-9.6
-4.1542,-5.1349,-5.5707,1.5308,0.12278,0.72357,-35.82,4.86,-10.26
-4.5356,-5.1894,-5.5707,0.64355,0.39828,0.60323,-35.22,5.22,-10.74
-4.8216,-5.775,-5.1894,-0.22388,0.51557,0.61545,-35.16,5.76,-11.1
-4.6718,-7.6683,-4.1406,-1.1448,0.27825,0.65546,-35.16,6.72,-12.48
-4.304,-8.2539,-2.9284,-2.0443,-0.22938,0.6576,-35.4,7.02,-13.26
-3.051,-9.6841,-1.0215,-3.219,-0.45509,0.68203,-35.76,7.44,-13.74
2.3155,-10.787,5.7205,-3.573,-0.31887,0.63988,-35.76,8.04,-14.46
10.283,-12.449,15.922,-4.5048,0.38943,0.062308,-35.7,8.4,-14.64
17.407,-14.451,19.082,-4.7644,1.0693,-0.18173,-35.64,8.88,-14.46
19.0,-15.554,19.423,-4.4459,-0.0088575,-0.93615,-35.4,9.3,-14.28
19.532,-15.35,19.532,-3.8937,-0.97158,-1.7614,-35.16,9.78,-13.02
17.557,-11.713,19.532,-3.292,2.7932,-2.3137,-35.22,9.96,-12.24
11.645,-2.9011,15.636,-3.1252,3.7629,-2.5388,-35.58,9.84,-11.04
