Ax,Ay,Az,Gx,Gy,Gz,Mx,My,Mz
7.1234,6.8102,-2.3699,-1.6933,1.3005,1.5803,-33.96,15.84,-11.04
4.6445,13.116,-3.0646,-1.6897,0.96669,1.4468,-31.86,19.32,-11.34
3.6911,14.192,-3.9227,-1.0962,-0.0956,1.1368,-30.84,20.88,-11.22
2.6832,14.274,-3.6911,-0.87109,-0.14294,0.99082,-28.62,23.64,-10.62
3.5277,12.967,-2.8603,-0.12095,0.41447,0.15608,-27.42,24.72,-10.02
6.3198,10.801,-2.4789,0.42883,-0.073915,-0.85888,-26.34,25.38,-9.12
9.616,8.3493,-2.3972,0.86896,-1.1637,-1.8387,-25.38,25.98,-8.22
12.817,2.9011,-1.4301,1.0852,-1.9835,-2.459,-23.94,26.76,-5.88
15.159,1.471,-0.47671,1.1106,-1.5669,-3.1783,-23.34,27.12,-4.92
19.355,-1.3076,1.8387,1.0599,-0.99876,-3.2944,-23.1,27.6,-4.62
19.504,-6.9328,5.5571,0.93493,0.17746,-3.5491,-23.28,27.36,-5.22
19.532,-18.115,9.8066,1.0873,-0.16554,-4.35,-23.94,26.94,-5.88
19.532,-19.177,10.855,1.7373,-1.1044,-5.277,-24.9,26.46,-6.78
19.532,-16.372,8.3357,2.3338,-1.2969,-5.8014,-26.94,24.42,-8.28
15.35,-14.928,6.2245,3.5042,-0.87048,-5.4349,-27.9,23.1,-9.0
7.355,-13.076,3.3506,3.9615,-1.0876,-4.722,-30.54,19.26,-9.96
2.5742,-12.926,1.7025,4.0861,-1.9465,-3.8289,-31.98,17.16,-10.62
-0.054481,-13.321,1.1441,3.912,-2.9767,-2.8448,-33.3,14.82,-10.98
-8.4174,-14.206,0.54481,3.4682,-3.4862,-1.8607,-35.76,9.84,-11.1
-12.517,-14.397,0.8036,2.8891,-3.1279,-0.97647,-36.9,7.56,-11.28
-15.514,-14.547,1.1713,1.784,-1.0754,0.19151,-38.22,3.42,-10.68
-15.35,-13.525,0.89894,1.3647,-0.18082,0.7422,-38.7,1.5,-9.9
-12.612,-13.253,0.76274,-0.034819,1.6081,2.7089,-39.06,-0.24,-9.0
-10.61,-13.13,0.89894,-0.95631,2.0064,3.9578,-39.3,-1.86,-8.16
-4.1951,-12.408,0.76274,-1.6139,1.9673,4.8732,-39.66,-4.32,-6.48
-2.2337,-13.007,0.76274,-2.0495,1.7153,5.4602,-39.54,-4.86,-5.76
7.5048,-19.0,3.3778,-2.8973,2.1719,6.44,-39.3,-4.74,-5.28
17.502,-19.477,4.127,-3.5641,3.6496,6.5515,-39.12,-3.96,-5.52
19.028,-19.518,4.1814,-3.6252,6.3206,5.4657,-38.88,-3.0,-5.88
19.532,-17.039,6.96,-2.8259,6.3881,3.7064,-38.46,-1.62,-7.62
19.532,-9.7113,4.3449,-1.6539,2.9599,1.9319,-38.28,1.56,-8.46
19.532,-4.2495,1.3348,-0.68173,0.36346,1.4914,-37.86,3.06,-9.24
13.321,1.2395,-1.6344,-0.53298,-0.15455,1.3647,-36.84,6.6,-10.38
11.169,2.4517,-2.5198,-1.2746,1.1408,1.3592,-35.82,8.64,-10.8
8.4719,8.322,-3.2144,-1.7132,1.6915,1.4594,-33.78,12.72,-11.76
7.2596,11.605,-3.1191,-1.7572,1.5366,1.412,-32.58,14.58,-12.0
6.0611,13.253,-3.1463,-1.5235,1.226,1.1787,-31.44,16.32,-12.24
6.279,12.885,-3.6503,-1.2058,1.2181,0.77641,-29.28,19.44,-12.42
7.0281,13.035,-3.3506,-0.74464,1.025,0.14752,-28.14,20.58,-12.3
8.0905,12.245,-2.7786,-0.073609,0.20892,-0.68264,-27.06,21.72,-11.88
9.0848,8.2403,-2.261,0.61575,-0.73884,-1.5052,-25.2,23.4,-10.26
9.4661,5.8023,-1.8115,1.1102,-1.4123,-2.2727,-24.36,24.0,-9.3
10.815,3.4187,-0.96704,1.4099,-1.9642,-3.2419,-23.52,24.48,-8.4
16.848,-0.01362,0.61292,1.4282,-1.8485,-3.7577,-23.1,24.72,-7.92
19.191,-0.54481,1.3484,1.4566,-0.8488,-3.8933,-23.34,24.48,-8.4
19.532,-8.4446,7.0553,1.3173,-0.072388,-4.0225,-25.02,23.7,-9.42
19.532,-17.57,9.2074,1.3699,-1.2196,-4.4166,-25.92,23.1,-9.9
19.532,-19.286,10.46,1.5892,-1.9804,-4.9187,-26.94,22.38,-10.32
19.409,-16.808,6.9328,1.934,-1.7736,-6.0085,-29.04,20.1,-10.98
13.579,-14.901,5.0259,2.5531,-0.86773,-5.8765,-30.24,18.6,-11.22
7.8045,-13.225,3.2825,3.0882,-0.48228,-5.2449,-31.62,16.92,-11.4
0.32689,-13.021,1.7706,3.3985,-1.3683,-3.7535,-34.02,12.66,-11.52
-3.9908,-13.511,1.362,3.3598,-2.2419,-2.6411,-35.16,10.38,-11.58
-8.4719,-13.934,1.3484,3.2406,-2.5311,-2.0843,-36.06,8.1,-11.58
-15.132,-14.315,0.96704,2.6899,-2.189,-0.57849,-37.68,4.38,-11.1
-16.317,-14.124,0.78998,2.1124,-1.1234,0.45082,-38.16,2.64,-10.56
-15.623,-13.852,0.55843,1.2853,0.13317,1.7452,-38.46,0.96,-9.78
-9.9565,-12.667,0.14982,-0.18754,1.3622,3.7541,-38.7,-1.92,-8.16
-6.3471,-12.326,0.081722,-1.0104,1.5492,4.8411,-38.76,-3.24,-7.38
-4.3449,-12.354,0.027241,-1.5098,1.3384,5.5726,-38.64,-4.26,-6.78
-1.0896,-13.579,-0.21793,-1.948,1.3054,6.1288,-38.64,-4.8,-6.24
10.924,-19.232,2.1793,-2.6224,1.9737,6.7327,-37.98,-4.5,-5.88
18.456,-19.491,2.547,-3.6151,3.3961,6.6099,-37.56,-3.54,-6.24
19.504,-19.532,5.3528,-3.9489,6.4101,5.2092,-36.84,-0.84,-7.62
19.532,-17.38,5.9793,-2.6741,4.7421,3.0757,-36.48,0.66,-8.34
19.532,-8.4446,3.0918,-2.1053,3.3381,2.2278,-36.3,2.22,-9.12
18.891,-1.1577,-0.47671,-1.0528,0.95967,1.6823,-35.34,5.46,-9.78
14.383,1.6072,-1.0351,-1.2428,0.72326,1.7452,-34.5,7.56,-9.84
9.0167,5.3937,-1.2395,-1.6197,1.1521,1.8399,-32.34,11.94,-10.02
8.3901,6.7285,-1.2531,-1.8576,1.6405,1.81,-31.14,13.92,-9.96
7.4367,9.1256,-0.99429,-1.824,1.5073,1.602,-28.68,17.76,-9.84
6.6059,13.28,-1.6072,-1.6448,1.2773,1.5162,-27.42,19.38,-9.9
6.674,13.144,-2.3018,-1.1283,0.75686,1.1426,-26.16,20.88,-9.66
7.1234,12.612,-2.2337,-0.24068,0.15577,0.1179,-24.9,22.02,-9.24
8.4855,11.441,-1.58,0.47312,-0.40592,-0.86224,-22.68,23.7,-7.38
9.3027,9.4117,-1.3757,1.1781,-1.2697,-2.3509,-21.42,24.48,-6.18
9.9156,4.2904,-0.69464,1.6616,-1.992,-2.7492,-19.2,25.8,-3.66
10.964,2.1656,0.14982,1.9386,-2.3946,-3.4233,-18.42,26.28,-3.0
12.667,1.1986,0.76274,2.0818,-2.0925,-3.8075,-18.18,26.34,-2.76
19.3,-2.8603,3.3097,2.0302,0.0097738,-3.5745,-18.78,25.26,-3.54
19.504,-11.918,6.279,1.894,0.3207,-3.222,-19.44,24.6,-4.32
19.532,-19.055,10.134,2.1154,-1.3436,-3.6682,-20.22,23.94,-5.16
19.532,-16.808,7.5729,2.4108,-2.2437,-5.2922,-22.02,22.32,-6.96
15.214,-15.091,4.8625,2.7431,-1.9239,-5.3744,-22.74,21.06,-7.38
11.509,-14.124,3.9635,3.1637,-1.1958,-5.0955,-23.88,19.74,-7.8
6.0611,-12.585,2.942,3.2541,-1.2737,-4.05,-24.96,18.18,-8.04
0.27241,-11.972,1.8524,3.1371,-1.813,-3.1429,-27.24,14.52,-8.76
-4.5628,-11.673,1.6753,2.8689,-2.1805,-2.2568,-28.56,12.66,-9.0
-9.2482,-12.245,1.58,2.3347,-2.1008,-0.95875,-30.54,8.94,-9.66
-11.278,-12.286,1.5119,2.113,-1.9239,-0.58338,-31.32,7.26,-9.78
-12.326,-12.313,1.5391,1.3457,-0.93096,0.41722,-31.68,5.94,-9.84
-13.184,-12.095,1.2395,0.6182,0.05284,1.4416,-32.16,3.72,-9.0
-11.332,-11.891,1.1169,-0.2755,0.95112,2.6631,-32.28,2.58,-8.28
-6.5786,-11.959,0.55843,-1.0629,1.4358,3.846,-32.22,0.6,-6.42
-4.0861,-12.653,0.16344,-1.8466,1.5733,5.1465,-32.04,0.06,-5.7
2.3836,-17.638,1.9477,-2.1716,1.7275,5.6163,-31.98,-0.12,-5.4
17.189,-19.409,2.2065,-3.1212,2.3088,6.5989,-31.02,0.6,-5.76
19.246,-19.518,1.8387,-3.9483,4.5882,5.7956,-30.54,1.44,-6.18
19.463,-19.532,2.9284,-3.4034,6.2543,4.3423,-30.06,2.22,-7.08
19.532,-11.005,3.3506,-2.5198,4.4566,2.2862,-29.52,3.84,-8.46
19.532,-4.5083,1.1032,-1.6151,1.0556,1.4609,-29.22,4.62,-8.82
12.572,1.8251,-0.36775,-1.4255,0.49694,1.5476,-28.32,6.84,-8.52
9.0848,4.3177,-0.55843,-1.7034,0.99327,1.6677,-27.3,8.22,-8.22
7.7364,5.5162,-0.42223,-1.894,1.69,1.784,-26.22,9.9,-7.92
6.8647,7.8453,-0.19068,-1.8189,1.9615,1.7614,-25.08,11.46,-7.5
5.5571,13.035,-0.6674,-1.4447,1.7055,1.5953,-22.74,14.52,-7.14
6.5514,13.089,-1.6208,-0.89614,0.89339,0.66798,-21.6,15.72,-6.9
7.5048,12.735,-2.4789,0.0018326,0.24068,-0.12706,-19.86,17.52,-5.82
7.4503,12.435,-2.6151,0.32284,-0.076358,-0.57818,-19.08,18.36,-4.92
7.2188,11.101,-2.7241,1.1148,-0.8769,-1.9349,-18.36,18.96,-3.9
7.4231,8.9894,-2.7377,1.3668,-1.3943,-2.6197,-17.46,19.74,-2.34
8.0905,4.6037,-1.7025,1.4285,-1.8424,-3.073,-15.42,21.36,0.3
10.365,3.2416,-0.35413,1.3909,-1.6692,-3.3677,-14.82,21.78,1.02
19.246,0.7355,1.9886,1.3638,-0.71441,-3.4868,-14.88,21.6,0.24
19.504,-10.529,6.5786,1.233,0.76847,-3.3998,-15.42,21.36,-1.02
19.532,-17.053,9.9973,1.7306,-0.35125,-4.1371,-16.2,21.06,-2.28
19.532,-18.891,10.011,2.4496,-2.0296,-5.4996,-18.0,20.22,-4.74
19.532,-17.053,7.4095,2.9435,-2.1261,-6.1038,-19.08,19.62,-5.7
10.106,-15.159,4.2904,3.3717,-1.7688,-5.9562,-21.3,17.28,-7.14
6.3198,-14.342,3.4732,3.3903,-1.7883,-4.7177,-22.68,15.96,-7.68
-1.4029,-12.612,2.0839,3.2388,-1.9477,-4.2202,-25.44,12.3,-8.88
-5.9385,-11.727,1.5936,2.7092,-2.3112,-2.6493,-26.82,10.38,-9.54
-12.708,-11.496,1.2258,2.2492,-2.1121,-1.5421,-29.34,6.48,-11.1
-16.344,-12.354,1.2803,1.5165,-0.99724,0.39767,-30.84,3.6,-11.82
-16.644,-12.286,1.471,1.3127,-0.59529,0.98991,-31.26,2.22,-11.4
-14.955,-11.414,1.2122,0.85063,0.15577,2.2003,-32.16,-1.08,-9.72
-10.569,-12.544,0.83084,0.024435,0.51618,4.1795,-33.06,-4.14,-8.04
-6.3198,-14.342,0.84446,-0.57544,0.47647,5.3469,-33.84,-5.7,-7.02
-3.228,-16.072,1.2939,-1.0785,0.44349,6.159,-34.32,-5.94,-6.36
0.61292,-18.673,0.83084,-1.6237,0.53634,6.5146,-34.08,-4.56,-6.12
13.947,-19.504,1.4029,-2.5549,1.3995,6.9602,-33.72,-2.04,-6.54
19.191,-19.532,2.5334,-3.7202,3.6902,7.2629,-32.76,1.38,-7.74
19.504,-19.532,5.2438,-4.043,8.0588,5.733,-31.8,4.98,-9.42
19.532,-19.532,5.6116,-3.3448,6.2049,4.1392,-31.26,6.78,-10.14
19.532,-10.842,2.7922,-1.9102,1.7801,2.7022,-30.24,10.08,-10.92
16.985,-0.49033,0.1362,-1.1038,-0.48686,2.2636,-28.44,13.32,-10.92
13.498,1.7162,-0.12258,-1.0647,-0.36988,2.3524,-27.3,15.0,-10.68
9.7794,5.3256,-0.65378,-1.4123,1.6839,2.6728,-26.1,16.8,-10.38
9.1937,14.928,-0.20431,-1.6591,2.0293,2.6408,-22.86,19.98,-10.32
10.079,16.195,-0.72188,-1.4288,1.8509,2.2446,-21.6,21.3,-9.96
9.9565,15.568,-1.6753,-0.78435,0.95661,1.0403,-20.1,22.5,-9.66
10.052,15.759,-1.2395,-0.416,0.4383,0.25107,-17.34,24.48,-8.46
10.774,14.083,-1.3212,0.16952,-0.32559,-0.72357,-16.14,25.26,-7.68
11.25,9.4798,-1.6753,0.78252,-0.79871,-1.7184,-13.98,26.58,-5.88
11.564,6.6331,-0.98067,1.2483,-1.1503,-2.6802,-13.08,27.24,-5.22
12.177,3.3506,0.01362,1.5812,-1.9462,-3.9285,-12.36,27.72,-4.62
13.634,0.24517,0.64016,1.5996,-2.0024,-4.5503,-11.82,28.08,-4.32
19.164,-4.0861,0.91256,1.6075,-0.78313,-4.7024,-12.18,27.96,-4.56
19.491,-10.311,3.8682,1.6484,0.69914,-4.2669,-12.96,27.54,-5.04
19.532,-19.205,10.161,1.927,-0.43188,-4.4853,-15.3,26.46,-6.3
19.532,-19.504,7.927,2.3555,-2.1967,-5.6835,-16.74,25.62,-6.96
19.532,-19.532,6.7693,2.8262,-1.7504,-5.933,-18.18,24.54,-7.62
10.256,-16.508,3.9771,3.1628,-1.2272,-5.3704,-21.54,21.78,-8.46
4.9987,-14.492,2.9011,3.1832,-1.5207,-4.3179,-23.16,19.98,-8.7
0.095342,-13.239,1.9886,3.0415,-2.2587,-3.2101,-24.84,18.18,-9.06
-8.0224,-11.564,0.7355,2.8344,-2.6967,-2.1124,-28.14,14.28,-9.84
-9.8611,-11.591,0.61292,2.4823,-2.5302,-0.65179,-29.58,12.18,-9.9
-11.891,-12.081,0.74912,2.1835,-2.1047,0.21655,-30.9,10.44,-10.02
-14.288,-12.408,1.4301,1.7462,-1.4175,1.0727,-33.06,7.14,-9.78
-13.893,-12.599,1.1713,1.1973,-0.55375,2.007,-33.72,5.76,-9.3
-10.542,-12.871,0.7355,0.48655,0.24221,3.0614,-34.2,4.5,-8.58
-5.1621,-12.871,0.24517,-0.22174,0.72785,4.0317,-34.68,2.34,-7.08
-2.6151,-13.116,-0.20431,-0.97494,0.99785,4.7956,-34.74,1.62,-6.3
2.9011,-14.451,-0.8036,-1.2398,1.0379,4.8264,-34.86,1.44,-5.64
9.8203,-18.837,-0.027241,-2.3699,1.7755,4.8775,-34.44,1.74,-5.04
17.638,-19.45,0.74912,-3.529,4.4608,5.1249,-34.32,2.52,-4.92
19.3,-19.518,1.9341,-4.3423,6.8695,4.6255,-34.02,3.48,-5.1
19.532,-18.374,4.3994,-4.331,6.955,3.2086,-33.12,5.7,-5.52
19.532,-11.373,1.471,-2.6942,2.4997,1.6573,-32.28,8.04,-5.88
18.129,-1.9068,0.44947,-1.8476,0.56108,1.6356,-31.74,9.24,-5.88
13.716,0.24517,0.19068,-1.6872,0.20281,1.7553,-31.08,10.56,-5.7
10.474,1.7979,0.095342,-1.7275,0.94012,2.0436,-30.24,11.94,-5.52
8.1177,4.699,0.10896,-1.7559,1.5959,2.0528,-28.56,14.58,-5.16
7.8045,7.5729,-0.068102,-1.6026,1.7587,2.0699,-27.6,15.84,-5.1
6.7012,13.076,-1.0896,-1.2666,1.6499,1.9878,-25.5,17.94,-4.86
7.0553,13.92,-1.2939,-0.79565,1.4279,1.6365,-24.48,18.78,-4.44
8.8805,14.506,-1.7298,-0.26053,1.0577,0.84483,-23.64,19.56,-3.78
11.7,14.165,-2.833,0.75228,-0.069639,-0.65271,-21.84,20.82,-2.1
12.095,11.836,-3.1054,1.42,-1.1255,-1.752,-21.0,21.24,-1.2
11.768,8.2131,-2.6832,1.7703,-2.0171,-2.6936,-20.34,21.78,0.06
12.776,3.6503,-1.2531,1.7501,-2.3686,-3.7941,-19.26,22.56,1.98
15.323,1.8524,0.16344,1.5568,-1.6695,-4.2483,-18.84,22.8,2.64
18.796,-0.84446,1.076,1.5064,-1.0357,-4.3118,-18.84,22.8,3.24
19.518,-11.455,7.1507,1.5656,0.20861,-4.3243,-19.26,22.56,3.66
19.532,-18.469,11.21,2.1191,-1.4462,-4.6407,-19.86,22.5,3.48
19.532,-19.409,11.128,2.6038,-2.8231,-5.0005,-20.64,22.2,3.54
18.415,-18.21,7.7091,2.8524,-2.1594,-5.4562,-22.56,21.06,3.18
14.165,-17.257,6.279,3.4932,-1.587,-4.977,-23.64,20.28,2.82
7.7091,-15.364,4.2359,3.5818,-1.8815,-4.0552,-24.84,19.26,2.58
-2.9284,-13.307,1.4574,3.4627,-2.6005,-2.9694,-27.36,16.68,1.92
-8.6762,-13.048,0.70826,3.1606,-2.8906,-1.8393,-28.68,15.36,1.74
-11.591,-12.0,0.40861,2.886,-2.5519,-0.89706,-29.94,13.8,1.5
-13.021,-11.645,0.42223,2.6087,-1.5238,0.27581,-32.4,11.16,1.08
-12.286,-12.408,0.46309,1.934,-0.89522,0.96517,-33.42,10.08,0.72
-11.482,-13.307,0.62654,1.1264,-0.28833,1.7733,-34.26,9.18,0.42
-8.7851,-12.98,0.44947,0.096517,0.46334,2.7104,-36.0,7.2,0.66
-5.8295,-12.476,0.01362,-0.83994,1.2468,3.5558,-36.6,6.3,1.02
-3.3506,-12.354,-0.28603,-1.4679,1.646,4.0238,-36.96,5.64,1.14
4.2223,-14.846,-0.17706,-2.0262,1.7006,4.3048,-37.62,5.28,1.2
6.1292,-17.638,0.39499,-3.2434,2.1441,4.883,-37.8,5.52,1.32
13.402,-19.3,-0.29965,-3.9575,4.5937,5.4999,-37.8,6.18,1.14
19.436,-19.532,2.0567,-4.0384,6.6053,5.112,-37.68,8.28,0.36
19.518,-19.409,3.9908,-3.667,6.6083,3.7223,-37.56,9.54,-0.54
19.532,-11.7,2.6423,-2.6475,3.649,2.3769,-37.38,11.04,-1.38
19.532,-4.1406,-0.01362,-1.6365,1.1903,1.8662,-36.36,14.04,-2.82
16.344,-1.2667,-0.47671,-1.2804,0.75778,1.708,-35.82,15.42,-3.18
12.204,0.96704,-1.0215,-1.485,1.441,1.8375,-35.1,16.92,-3.6
7.4367,7.4776,-0.8717,-1.6551,1.6405,1.9755,-33.06,20.22,-4.68
5.6933,11.768,-0.44947,-1.6713,1.2892,2.1334,-31.98,21.9,-5.1
4.2768,15.119,-0.96704,-1.3818,0.79962,2.0052,-31.08,23.46,-5.52
5.3392,16.903,-2.8058,-0.98044,0.63591,1.42,-28.92,26.16,-5.52
7.069,17.271,-2.8058,0.073304,0.67776,0.3485,-27.96,27.42,-5.52
9.6432,17.148,-2.5198,1.0632,-0.46181,-0.58979,-27.0,28.5,-5.52
12.217,12.449,-1.5119,1.7565,-1.8002,-1.4594,-25.44,30.24,-5.04
12.49,8.7851,-0.39499,2.0424,-2.7742,-2.3421,-24.9,30.84,-4.68
13.511,5.4073,-0.39499,1.9374,-2.9401,-3.207,-24.6,31.2,-4.38
18.183,1.3348,0.47671,1.8488,-2.3546,-3.6441,-24.96,31.08,-3.78
19.368,-0.8036,1.2122,1.8689,-0.97738,-3.846,-25.44,30.84,-3.96
19.532,-15.541,5.5843,1.8387,-0.90469,-4.0629,-26.04,30.36,-4.02
19.532,-19.028,6.7557,1.9978,-2.321,-4.5885,-27.48,29.1,-4.32
19.532,-19.477,5.6116,1.9563,-2.9102,-4.8332,-28.38,28.14,-4.44
19.532,-19.532,5.0259,1.9041,-2.6725,-5.3237,-29.28,27.12,-4.5
9.1937,-19.409,3.1599,2.0556,-1.9575,-4.999,-31.68,24.48,-4.8
3.4596,-16.44,2.7786,2.1499,-1.8027,-3.6689,-32.94,22.74,-4.68
-4.9714,-14.41,3.1599,2.0809,-2.2859,-2.638,-35.4,18.6,-4.5
-8.8124,-13.607,3.1054,2.0498,-2.0644,-1.6622,-36.48,16.44,-4.14
-11.509,-12.286,3.2144,2.1732,-1.6402,-0.92852,-37.44,14.46,-3.84
-13.539,-11.06,3.3097,2.2107,-1.2401,-0.10415,-38.82,11.04,-3.18
-13.593,-11.427,3.1191,2.0782,-0.75228,0.82558,-39.12,9.72,-2.94
-11.891,-11.795,2.1929,1.7144,0.048869,2.2181,-39.78,7.44,-2.22
-10.025,-11.972,1.757,0.80848,0.66737,3.2367,-40.2,6.48,-2.04
-7.1507,-12.217,1.2395,0.10568,1.2367,4.04,-40.56,5.7,-1.68
-1.0351,-12.762,0.19068,-0.44899,1.5046,4.4541,-40.68,4.92,-1.2
3.4459,-14.451,-0.28603,-0.9951,1.609,4.5085,-40.56,4.8,-1.2
6.4152,-18.251,0.21793,-1.7098,2.0824,4.7861,-40.2,5.16,-1.32
17.992,-19.491,1.2122,-2.6047,3.8802,5.4889,-39.6,6.78,-2.22
19.341,-19.532,1.9205,-3.5427,7.0234,5.0448,-39.12,7.92,-2.82
19.504,-19.532,2.9556,-3.4853,7.1392,3.7134,-38.7,9.12,-3.48
19.532,-10.774,1.4574,-2.7749,5.2314,2.2489,-37.26,11.82,-4.5
19.532,-5.7069,-0.28603,-1.8259,3.2803,1.6484,-36.06,13.26,-5.04
18.387,-1.7979,-1.3484,-1.3628,1.8729,1.5708,-34.74,14.7,-5.52
12.054,3.6366,-1.2667,-1.431,1.4221,1.6799,-31.62,18.24,-6.36
10.651,6.6195,-1.076,-1.5934,1.6432,1.6182,-30.0,19.8,-6.66
10.161,9.9429,-1.2395,-1.5708,1.7263,1.3311,-28.32,21.3,-6.96
9.9292,12.503,-2.3291,-1.3149,1.5782,0.83536,-25.32,23.82,-7.62
9.5887,13.375,-2.6015,-0.94776,1.1387,0.18082,-23.76,24.84,-7.74
9.2346,14.083,-2.1929,-0.47006,0.30543,-0.4945,-22.44,25.74,-7.68
7.5729,11.686,-2.1656,0.17226,-0.55161,-1.6249,-19.62,27.3,-7.08
7.5729,9.2074,-2.0294,0.90255,-1.2327,-2.3964,-18.36,27.96,-6.66
8.0632,7.3822,-1.6344,1.1506,-1.5311,-3.0644,-17.28,28.5,-6.06
9.2755,3.8546,-0.54481,1.2278,-1.719,-3.3372,-16.56,28.98,-5.76
12.49,-0.054481,1.3212,1.3555,-1.8751,-3.977,-16.08,29.28,-5.28
16.957,-1.5391,1.4438,1.4181,-1.0938,-3.9725,-16.56,29.1,-5.28
19.491,-8.322,5.1485,1.5519,-0.011606,-3.4273,-18.24,28.2,-5.94
19.532,-17.38,7.6138,2.0061,-0.56474,-3.1435,-19.26,27.72,-6.42
19.532,-19.259,9.2891,2.6866,-1.7691,-3.6261,-20.58,27.0,-7.02
19.532,-19.504,8.2948,2.835,-2.1341,-4.0061,-21.66,26.22,-7.5
14.996,-17.175,4.6309,3.3298,-2.0513,-4.5839,-24.78,24.3,-8.52
9.0303,-14.737,3.0101,3.5583,-1.5278,-3.9844,-26.4,22.86,-8.94
4.4675,-12.721,1.4438,3.5797,-1.7226,-3.1991,-27.96,21.3,-9.24
-3.8001,-11.605,1.1986,3.2409,-2.4596,-2.1078,-31.38,17.7,-9.96
-7.2869,-11.046,0.72188,3.0901,-2.5256,-1.7443,-32.88,15.84,-10.2
-9.902,-10.637,0.50395,2.8359,-2.4462,-1.1829,-34.32,13.98,-10.32
-12.272,-11.019,0.44947,2.3543,-2.0476,-0.46365,-36.72,10.44,-10.32
-13.402,-11.223,0.47671,1.7911,-1.379,0.25534,-37.56,8.94,-9.9
-13.035,-10.924,0.31327,0.97464,-0.47312,1.1933,-38.34,7.26,-9.36
-7.8317,-11.904,-0.28603,-0.023518,0.52993,2.8436,-39.54,4.44,-7.74
-4.2904,-11.891,-0.50395,-1.1747,1.4166,3.569,-39.84,3.48,-7.08
-2.1384,-12.0,-0.40861,-1.7162,1.5913,3.9105,-40.26,2.7,-6.36
4.0452,-15.8,0.44947,-2.4315,1.7926,3.9978,-40.5,1.8,-5.46
12.0,-19.028,-0.40861,-3.4532,2.9777,4.3854,-40.32,1.98,-5.28
18.551,-19.477,1.6753,-4.2284,5.5076,5.0971,-40.38,2.28,-5.4
19.518,-18.387,4.8352,-4.3533,6.3817,4.4801,-39.84,3.84,-6.36
19.532,-11.836,3.9227,-3.1957,4.076,2.2077,-39.6,4.98,-7.02
19.532,-6.2517,1.58,-2.1341,2.2721,1.8864,-39.24,6.12,-7.68
19.532,-2.3699,0.38137,-1.5736,1.1032,1.8592,-38.88,7.38,-8.22
13.103,2.4517,-0.51757,-1.4923,0.84605,1.8204,-37.44,10.02,-8.94
10.992,4.0452,-0.8036,-1.5727,1.0321,1.7468,-36.6,11.82,-9.06
8.431,8.0905,-1.362,-1.5601,0.83047,1.5739,-34.38,15.24,-9.78
7.1643,9.902,-1.866,-1.346,0.49786,1.3928,-33.24,16.68,-9.84
6.2381,10.815,-2.1656,-1.1924,0.34697,1.2449,-32.1,18.18,-9.96
4.9306,12.667,-2.152,-0.70647,0.025351,0.51435,-29.94,20.82,-9.48
5.0395,13.402,-1.8251,-0.24618,0.0036652,-0.15974,-28.98,22.14,-9.0
5.5707,13.13,-1.9341,0.34575,-0.026267,-0.91477,-28.02,23.34,-8.34
8.6762,8.9349,-0.8036,0.93554,-0.34697,-1.6426,-26.04,25.2,-6.54
10.937,5.993,0.14982,1.5412,-1.2575,-2.6753,-25.2,25.86,-5.64
13.579,3.4868,1.2531,1.7755,-1.6594,-3.2953,-24.66,26.4,-4.74
18.891,1.3484,1.9205,1.9597,-1.0379,-3.4447,-24.18,26.82,-4.32
19.491,-2.2337,4.4811,2.094,0.12737,-3.3546,-24.66,26.58,-4.68
19.532,-9.7794,7.1507,2.2981,0.020159,-3.7193,-25.2,26.28,-5.52
19.532,-19.123,9.221,2.791,-1.5941,-4.0836,-26.94,24.9,-7.14
19.532,-19.45,8.1177,3.0391,-3.1502,-4.9874,-27.78,24.0,-7.92
19.532,-18.115,6.5922,3.0494,-2.7828,-5.3014,-28.98,22.86,-8.4
6.8919,-16.276,3.1327,2.9618,-2.0247,-4.7589,-31.44,19.86,-9.42
1.1713,-14.901,2.261,2.7376,-1.8207,-3.8069,-32.64,17.88,-9.84
-3.7456,-13.947,1.6481,2.3744,-2.0443,-2.6191,-33.78,15.72,-10.02
-7.8453,-13.28,1.2258,2.0974,-2.0821,-1.4215,-35.1,13.56,-9.96
-12.463,-11.564,0.54481,2.073,-1.8076,-0.078496,-37.32,9.36,-9.96
-12.64,-11.577,0.70826,2.0504,-1.6319,0.38637,-38.16,7.44,-9.72
-11.55,-12.408,0.6674,1.7165,-1.0745,1.7517,-39.48,4.38,-8.76
-10.079,-12.926,0.43585,1.1671,-0.58338,2.6206,-39.84,3.18,-7.86
-7.9543,-13.375,0.38137,0.40623,0.13103,3.4566,-40.08,2.1,-6.9
-2.3427,-13.225,-0.10896,-0.34911,0.83078,4.0384,-40.32,0.72,-4.74
1.0896,-13.116,-0.068102,-1.2908,1.5137,4.2373,-40.56,0.48,-3.96
3.514,-13.811,0.61292,-1.5678,1.7339,4.2092,-40.38,0.84,-3.06
10.855,-18.796,1.3076,-2.7012,3.4187,4.6927,-40.26,1.5,-3.0
18.81,-19.491,2.942,-3.4767,5.5952,5.1581,-39.96,2.34,-3.12
19.504,-19.504,4.127,-3.6551,6.0564,4.5314,-39.24,4.98,-4.38
19.532,-14.465,3.7728,-3.1551,4.762,3.1099,-38.7,6.36,-4.8
19.532,-10.106,1.9613,-1.9716,2.3201,1.8699,-38.1,7.98,-5.4
19.395,-4.2495,-0.40861,-1.6686,1.9716,1.7156,-36.78,11.28,-6.6
16.167,-1.362,-1.6072,-1.3665,1.7859,1.4435,-35.7,13.08,-7.08
13.048,0.8717,-1.975,-1.452,1.8155,1.419,-34.68,14.88,-7.62
10.052,4.8352,-2.6696,-1.5125,1.5699,1.4322,-32.46,18.24,-8.34
8.7715,7.5729,-3.3097,-1.4548,1.1066,1.3857,-31.26,19.86,-8.64
7.6955,10.025,-3.7456,-1.317,0.38118,1.0421,-30.0,21.24,-9.06
4.7671,13.212,-3.1054,-0.8998,0.31429,0.57391,-27.3,23.88,-9.3
4.4402,13.838,-2.2882,-0.44685,0.39126,-0.064141,-25.98,24.9,-9.24
4.9169,13.729,-1.8387,0.17685,-0.027794,-0.86468,-24.72,26.22,-9.06
8.2948,10.351,-1.58,0.74923,-0.77397,-1.5931,-22.5,27.96,-8.64
9.6977,7.5321,-1.5119,1.1261,-1.5159,-2.2352,-21.78,28.8,-8.46
11.087,3.2553,0.095342,1.3186,-2.0168,-2.8689,-20.76,29.58,-8.46
12.572,2.0839,0.83084,1.3653,-1.6643,-3.591,-20.88,29.58,-8.58
14.764,1.6344,0.76274,1.3222,-0.36041,-3.569,-21.18,29.16,-8.94
19.45,-2.3155,3.2825,1.3476,0.95264,-3.4749,-22.68,27.6,-9.9
19.518,-8.6353,6.279,1.6215,0.832,-3.7156,-23.52,26.58,-10.5
19.532,-16.181,8.4446,2.4022,-0.83078,-4.0726,-24.48,25.5,-11.22
19.532,-19.45,8.4038,2.9477,-2.0892,-4.7455,-27.0,23.1,-12.0
18.061,-18.551,6.7693,3.175,-2.1768,-4.9193,-28.5,21.54,-12.36
13.743,-17.284,5.3937,3.2901,-1.5556,-4.539,-29.82,19.98,-12.48
7.8317,-15.5,3.3778,3.3201,-1.3234,-3.7721,-31.32,18.06,-12.72
-0.92618,-13.566,1.362,3.1624,-1.7859,-2.8662,-34.08,13.74,-12.48
-5.38,-13.348,1.0896,2.8918,-2.386,-1.8634,-35.34,11.4,-12.42
-9.8884,-12.817,0.96704,2.6689,-2.686,-0.894,-36.48,9.18,-12.24
-15.514,-12.245,0.68102,2.54,-2.6957,-0.11759,-38.1,5.46,-11.34
-15.255,-12.449,0.55843,2.1747,-1.6903,1.3103,-38.7,3.9,-10.62
-14.247,-12.708,0.25879,1.6603,-0.55283,2.4383,-39.0,2.34,-9.66
-7.1234,-13.362,-0.7355,0.95906,0.57696,3.3967,-39.66,0.18,-7.8
-1.6617,-13.579,-1.4165,0.24038,1.2462,3.9612,-39.9,-0.6,-6.72
3.5277,-13.525,-1.8932,-0.67837,1.2171,3.9031,-40.02,-1.62,-5.4
9.8884,-16.058,-1.8932,-1.3467,1.314,3.8674,-39.9,-1.68,-5.1
16.086,-18.592,-2.2201,-1.7691,1.8017,4.1065,-39.84,-1.44,-5.16
18.673,-18.701,-1.58,-2.6255,3.9193,4.7528,-39.66,-0.9,-5.22
19.518,-17.08,0.19068,-3.1148,5.393,3.7672,-39.3,1.02,-6.3
19.532,-12.408,0.88532,-3.0348,4.6691,2.5479,-39.12,2.4,-6.96
19.532,-4.8897,-1.362,-2.5507,2.8625,1.949,-38.94,3.78,-7.74
18.619,-1.8932,-2.1384,-1.9459,1.1075,1.6771,-38.46,6.6,-8.76
15.05,0.55843,-2.9011,-1.8253,1.0012,1.609,-37.98,8.04,-9.3
11.918,2.8739,-3.2961,-1.8237,1.084,1.6344,-37.26,9.72,-9.78
9.0439,7.6002,-3.8954,-1.6768,0.74892,1.6936,-35.58,12.72,-10.56
7.0553,11.319,-4.127,-1.3375,-0.081245,1.624,-34.62,14.22,-10.8
5.1213,12.694,-4.0861,-0.81978,-0.85674,1.4374,-33.84,15.6,-11.04
4.2223,13.77,-4.1406,-0.33598,-1.2196,0.47342,-31.86,17.82,-10.62
5.6661,13.893,-4.2495,0.34239,-1.0702,-0.51924,-31.08,18.66,-10.14
6.9328,12.898,-4.4675,0.54062,-1.0589,-1.0562,-30.36,19.62,-9.54
9.2482,7.8453,-4.5356,0.89889,-1.8986,-2.5146,-29.1,20.58,-7.32
10.665,5.1349,-4.4402,0.85063,-2.4593,-3.357,-28.8,20.76,-6.18
11.468,3.4732,-4.3858,0.67165,-2.2684,-3.8869,-28.44,20.88,-5.1
18.687,-0.14982,-4.5083,0.53023,-0.49175,-4.0583,-28.26,20.7,-3.78
19.314,-1.6753,-3.8137,0.35705,0.26603,-4.1447,-28.5,20.46,-3.42
19.518,-8.7851,-0.95342,0.78832,-0.59834,-4.3231,-29.1,19.86,-3.24
19.532,-18.047,0.5993,1.1887,-1.5977,-4.5558,-30.42,18.6,-2.76
19.532,-17.965,1.975,1.1634,-1.9086,-4.8735,-31.14,17.34,-2.46
14.996,-14.833,2.7649,1.2233,-1.6524,-5.0665,-33.0,14.46,-1.86
10.42,-13.729,2.4244,1.4618,-1.1756,-4.7843,-33.84,12.66,-1.44
4.5628,-12.136,2.4108,1.9086,-0.92027,-3.6817,-35.04,8.7,-1.08
-4.3177,-11.577,2.7513,1.952,-0.93035,-3.124,-35.76,6.9,-0.96
-7.3277,-11.577,2.5879,2.0018,-0.88178,-1.8946,-36.24,5.04,-0.66
-9.4934,-10.964,2.261,2.2565,-0.43616,-0.49511,-36.42,3.3,-0.42
-10.011,-10.188,2.0975,2.4303,-0.2923,0.27367,-36.54,0.18,0.48
-9.6432,-10.869,1.866,2.3723,-0.37813,1.2877,-36.42,-1.26,0.9
-8.1177,-11.782,0.14982,2.0223,-0.36927,1.6637,-36.0,-3.54,2.16
-6.565,-11.931,-0.85808,1.4548,-0.0076358,2.5494,-35.82,-4.38,2.7
-4.9033,-11.945,-1.6072,0.50916,0.82161,3.6899,-35.64,-5.04,3.24
0.57205,-13.021,-2.1248,-0.14203,1.1017,3.9663,-34.92,-5.1,3.96
0.57205,-13.021,-2.1248,-0.14203,1.1017,3.9663,-34.92,-5.1,3.96
16.126,-19.45,-2.1112,-2.5177,5.5766,5.2336,-33.6,-2.76,3.12
18.687,-19.504,-1.7843,-2.8112,6.5964,5.109,-33.24,-1.44,2.28
19.423,-19.532,-0.44947,-3.3234,7.1557,4.2962,-32.82,-1.44,1.14
19.532,-14.574,-0.96704,-3.1511,4.4138,2.7208,-32.34,2.88,-1.44
19.532,-9.5615,-1.8251,-2.5259,2.8198,1.9923,-32.22,4.32,-2.7
17.352,-2.3836,-1.866,-2.2269,2.1154,1.6423,-31.68,6.9,-4.38
13.498,0.068102,-1.7298,-2.2743,1.9939,1.6423,-30.96,8.28,-4.92
9.4253,4.3313,-1.2939,-2.3359,1.9771,1.7312,-28.8,11.1,-6.06
7.9407,7.75,-0.8717,-2.3057,1.668,1.8231,-27.78,12.54,-6.48
5.993,11.06,-1.076,-2.0275,1.2941,1.8934,-26.58,13.8,-7.14
3.6094,13.716,-1.1169,-1.2947,0.75075,1.5843,-24.24,16.38,-7.8
2.9284,14.315,-0.55843,-0.74067,0.55192,0.99846,-23.22,17.4,-7.68
4.8216,14.56,-0.58567,-0.14478,0.33872,0.15058,-22.08,18.24,-7.38
9.0167,11.278,-2.3563,0.72204,-0.52626,-0.8937,-20.1,19.68,-6.18
10.188,9.5887,-2.5061,1.113,-1.3445,-1.4682,-19.02,20.34,-5.4
11.918,6.0883,-1.5391,1.197,-1.6506,-1.817,-17.94,21.06,-4.5
15.391,0.98067,0.28603,1.1512,-1.9282,-3.0134,-16.32,22.08,-3.42
18.537,-0.68102,-0.27241,1.0727,-1.2798,-3.3827,-15.84,22.32,-3.66
19.409,-2.547,0.1362,1.16,-0.16157,-3.2904,-15.96,22.5,-4.02
19.532,-13.198,4.2359,1.463,-0.058643,-3.7064,-16.98,22.44,-5.1
19.532,-18.578,5.094,2.1796,-1.6026,-3.9291,-17.7,21.96,-5.7
19.532,-19.286,4.8352,2.3619,-2.117,-3.9789,-18.6,21.42,-6.3
19.532,-19.518,4.7807,2.3586,-2.0824,-4.1542,-19.56,20.64,-6.84
12.095,-17.284,3.3234,2.3854,-1.7092,-3.956,-21.72,18.54,-7.68
4.7399,-15.146,2.4108,2.4242,-1.5101,-3.251,-22.8,17.34,-8.04
-2.6151,-12.272,2.3836,2.5421,-2.3091,-1.949,-24.84,14.64,-8.52
-8.0905,-11.795,2.2882,2.5198,-2.5317,-1.0537,-25.98,13.26,-8.7
-10.188,-11.182,2.0294,2.4768,-2.2959,-0.34086,-26.94,11.88,-8.82
-13.511,-10.992,1.757,2.3298,-1.8317,0.3149,-28.5,9.36,-8.64
-13.539,-11.509,1.5936,1.9655,-1.1829,1.1249,-29.1,8.4,-8.22
-12.681,-11.836,1.4301,1.3405,-0.33628,2.0623,-29.52,7.56,-7.98
-8.8668,-11.645,0.5993,0.62247,0.56444,2.9569,-30.06,6.24,-7.2
-5.6116,-11.7,0.027241,-0.23549,1.5333,3.9587,-30.06,5.94,-6.84
-2.547,-11.972,-0.28603,-0.72204,1.8515,4.3225,-30.12,5.88,-6.48
1.975,-14.942,0.34051,-1.3586,2.3301,4.5965,-29.82,6.48,-6.48
8.0632,-18.769,0.7355,-2.2333,3.3084,5.0314,-29.76,7.14,-6.84
17.012,-19.45,1.9613,-3.2736,5.4776,5.3649,-29.58,7.8,-7.26
19.491,-19.532,4.2495,-3.777,6.5155,3.937,-28.74,9.66,-8.22
19.518,-18.115,4.2632,-2.9945,4.7809,2.4416,-28.02,10.62,-8.58
19.532,-11.319,2.152,-1.9722,2.791,1.5858,-27.12,11.76,-8.82
18.265,-5.2166,-0.34051,-1.3641,1.5653,1.3903,-24.78,14.46,-9.18
14.778,-2.0022,-0.96704,-1.2846,1.2825,1.35,-23.52,15.84,-9.36
12.204,0.054481,-1.5663,-1.3803,1.4844,1.3549,-22.14,17.22,-9.42
10.188,4.6718,-2.1929,-1.3986,1.6124,1.3558,-19.02,19.74,-9.42
9.1393,8.1177,-2.3018,-1.2236,1.0107,1.2404,-17.46,20.88,-9.48
6.9872,13.157,-3.1735,-0.88728,0.24526,0.96975,-14.58,22.74,-9.12
5.4073,14.669,-2.833,-0.54031,-0.19181,0.44288,-13.08,23.46,-8.76
5.2711,14.247,-2.8603,-0.14875,-0.14997,-0.35797,-11.64,24.06,-8.22
6.0611,13.443,-3.0237,0.20525,-0.17074,-1.0876,-10.14,24.9,-7.62
8.7034,9.5479,-2.8739,0.5849,-0.71471,-1.6674,-7.62,26.04,-6.42
10.106,6.5922,-2.2337,0.80237,-1.2776,-2.2614,-6.84,26.7,-6.06
13.28,1.9341,-1.3757,0.83353,-1.3213,-3.2321,-6.06,27.6,-5.7
17.897,-0.85808,-0.85808,0.87629,-0.48411,-3.7241,-6.06,27.96,-5.7
19.123,-1.8115,-0.35413,1.0049,0.49327,-3.7901,-6.36,28.02,-6.0
19.532,-10.174,4.7807,1.3005,0.074526,-4.2015,-8.22,27.54,-6.9
19.532,-17.611,6.7285,1.8622,-1.2288,-4.5311,-9.48,27.12,-7.62
19.532,-19.477,7.3822,2.649,-2.5015,-4.58,-12.54,25.8,-9.06
19.518,-19.055,6.6604,2.7675,-2.5681,-4.7278,-14.22,24.84,-9.72
16.113,-18.02,5.884,2.919,-2.2049,-4.7437,-16.14,23.64,-10.32
7.7772,-15.827,3.9908,2.9719,-1.7761,-3.7425,-18.0,22.26,-10.98
-0.1362,-12.49,2.9011,2.9053,-2.098,-2.8191,-22.08,18.54,-11.7
-4.2223,-11.863,2.5334,2.8335,-2.4746,-1.9621,-24.24,16.74,-12.18
-10.583,-11.496,2.3972,2.6994,-2.6212,-0.80451,-28.02,12.72,-12.3
-12.449,-11.713,2.3563,2.4673,-2.3787,-0.020464,-29.82,10.74,-12.36
-13.116,-12.19,2.3699,2.116,-1.6667,0.73059,-31.44,8.76,-12.24
-12.844,-13.021,2.2882,1.5882,-0.67409,1.6032,-33.96,5.52,-11.34
-10.896,-13.198,1.9613,0.95997,0.37599,2.5867,-34.92,4.08,-10.68
-6.9464,-13.13,1.1441,0.3708,1.2086,3.4221,-35.58,2.7,-9.84
-1.362,-12.476,0.47671,-0.23366,1.6182,4.0485,-36.54,1.08,-8.28
3.1191,-14.315,-0.027241,-0.71868,1.7184,4.1227,-36.84,0.84,-7.86
5.7478,-16.862,-0.027241,-1.3833,2.2455,4.3066,-36.9,0.96,-7.56
18.687,-19.491,0.054481,-2.3054,4.2086,4.7644,-37.02,2.4,-7.68
19.423,-19.532,0.38137,-2.8436,5.2962,4.5885,-36.9,3.36,-8.04
19.518,-18.728,0.62654,-2.8903,5.3044,3.3332,-36.66,4.44,-8.58
19.532,-10.474,-0.89894,-2.4181,4.1343,2.0598,-36.18,6.66,-9.72
19.532,-6.3743,-1.4029,-1.6066,2.1356,1.3995,-35.64,7.86,-10.2
17.611,-3.1463,-2.0839,-1.5611,1.4166,1.3555,-35.04,9.18,-10.8
10.665,1.2395,-2.6151,-1.7517,1.3473,1.4364,-33.0,12.0,-11.64
8.6217,3.623,-2.1929,-1.9618,1.4514,1.5339,-31.74,13.56,-12.0
7.0145,6.8919,-1.3757,-1.9765,1.4621,1.6041,-30.48,15.12,-12.3
5.5435,12.313,-2.0158,-1.4728,1.2141,1.4673,-28.08,17.82,-13.02
5.5707,13.184,-2.3972,-1.044,0.95051,0.99938,-26.82,18.9,-13.08
6.0202,13.566,-2.2201,-0.57024,0.66401,0.31582,-25.62,19.74,-12.9
8.2948,12.939,-3.0918,0.0024435,0.23366,-0.46762,-23.22,21.36,-12.18
9.5479,10.447,-3.2961,0.55803,-0.47281,-1.2672,-22.08,22.08,-11.64
11.06,7.5184,-2.6151,0.93004,-1.1851,-2.0137,-21.06,22.8,-10.98
12.204,5.4073,-1.7706,1.1603,-1.7651,-2.9496,-20.34,23.34,-10.44
19.15,-2.2746,0.44947,1.3595,-1.3812,-3.1768,-19.62,24.36,-9.84
19.504,-8.2267,1.9886,1.4884,-0.58277,-3.1588,-19.74,24.6,-9.78
19.532,-14.124,3.4596,1.8653,-1.0663,-3.4062,-20.16,24.54,-10.2
19.532,-19.45,6.2926,2.3888,-2.3769,-3.7892,-22.08,23.64,-10.68
19.532,-19.518,5.9112,2.3647,-3.0552,-4.4954,-23.22,22.98,-11.04
18.878,-18.864,5.0531,2.5091,-2.6298,-4.8332,-24.42,22.08,-11.16
8.4174,-14.982,3.4596,2.6997,-1.5953,-4.3506,-27.24,19.62,-11.4
4.1542,-13.525,2.9692,2.7669,-1.6041,-4.0922,-28.74,18.12,-11.28
0.28603,-12.912,2.8467,2.7052,-2.4645,-3.0287,-30.18,16.26,-11.16
-7.1507,-11.4,3.2008,2.5607,-3.0888,-2.1564,-32.94,12.48,-10.5
-11.645,-10.706,3.1735,2.4606,-3.1603,-1.4951,-34.32,10.44,-10.02
-15.064,-10.529,3.1599,2.2254,-2.3995,-0.9331,-35.46,8.46,-9.42
-15.486,-10.76,3.0237,1.4859,-0.60842,0.41447,-37.38,4.92,-7.98
-13.934,-11.128,2.4925,0.74159,0.47983,1.5565,-37.86,3.3,-7.2
-10.992,-11.795,1.8796,0.34117,0.92729,2.1127,-38.52,1.92,-6.0
-3.5549,-12.463,0.6674,-0.68325,1.4523,3.3213,-39.06,0.84,-4.38
-0.85808,-13.416,0.46309,-1.1988,1.3314,3.7446,-39.36,-0.72,-3.54
1.7706,-16.562,1.4029,-1.8442,1.715,4.3958,-39.42,-0.96,-3.0
15.623,-19.477,1.7979,-2.6105,4.3607,5.0189,-39.18,-0.48,-2.34
19.041,-19.532,1.4574,-2.6576,5.0916,4.7928,-39.18,0.24,-2.58
19.477,-19.532,2.0294,-2.5953,5.7879,3.9905,-39.06,1.32,-3.0
19.532,-14.383,0.10896,-1.835,3.3595,2.6307,-39.06,3.78,-4.44
19.532,-9.793,-1.2803,-1.2517,2.1176,1.7681,-38.88,5.1,-5.28
17.597,-4.8488,-1.9205,-1.0626,1.8747,1.5308,-38.7,6.42,-5.94
12.19,-0.21793,-2.7649,-1.4331,2.0834,1.6652,-37.32,9.66,-6.96
11.21,1.6753,-2.9829,-1.649,2.047,1.6619,-36.66,11.64,-7.2
10.256,5.8704,-3.051,-1.7349,1.8714,1.6371,-35.58,13.44,-7.8
7.4367,12.054,-3.5685,-1.5272,1.0855,1.4511,-33.36,16.86,-8.58
6.5105,13.702,-4.0316,-1.1924,0.78435,1.0531,-32.28,18.6,-8.88
6.279,13.92,-3.6366,-0.93096,0.61697,0.4273,-31.08,20.1,-9.06
7.927,14.315,-2.0294,-0.46151,0.1066,-0.37415,-28.74,22.56,-9.12
8.2676,13.021,-2.2337,0.4383,-0.51374,-1.6203,-27.54,23.64,-8.88
10.46,7.2052,-1.2122,0.8656,-0.8543,-2.3778,-25.56,25.26,-7.8
11.85,3.9908,-0.21793,1.0873,-1.2593,-3.0949,-24.78,25.92,-7.2
14.138,1.2939,0.43585,1.1903,-1.4255,-3.6939,-24.18,26.28,-6.72
19.355,-1.58,0.70826,1.1735,-0.79199,-3.9865,-24.0,26.46,-7.26
19.491,-4.8625,2.3155,1.1585,-0.075747,-3.8866,-24.54,26.22,-8.04
19.532,-18.183,7.1098,1.2452,-0.69761,-4.0061,-25.26,25.62,-9.18
19.532,-19.45,6.7421,1.471,-1.8674,-4.299,-27.36,24.24,-10.98
19.532,-18.891,5.884,1.5354,-1.9358,-4.8277,-28.56,23.1,-11.52
19.096,-17.965,4.9306,2.3705,-1.2211,-5.2147,-29.7,21.6,-12.06
4.6037,-13.838,1.8524,2.8735,-1.1515,-4.6359,-32.28,17.88,-12.78
1.0624,-13.184,1.5255,3.1612,-2.0162,-3.7171,-33.72,15.42,-13.02
-3.9908,-12.871,1.0215,2.985,-3.0836,-1.923,-36.24,10.56,-13.08
-12.258,-11.959,0.83084,2.8863,-3.149,-1.4038,-37.26,8.04,-13.02
-14.097,-11.536,1.0896,2.6313,-2.7333,-0.54642,-38.28,5.7,-12.84
-14.383,-11.754,1.5391,2.1002,-1.2477,0.90316,-39.0,3.72,-12.54
-13.321,-12.354,1.9068,1.5391,-0.32132,1.7257,-39.96,0.3,-11.16
-11.128,-12.19,1.7979,0.82925,0.48045,2.6053,-40.08,-1.14,-10.14
-8.7851,-12.313,1.58,0.10751,1.0635,3.5736,-40.14,-2.52,-8.88
-2.9556,-13.184,1.2122,-0.75686,1.6283,4.6743,-40.14,-4.44,-7.08
0.12258,-14.097,1.1305,-0.97922,1.6713,4.8109,-40.14,-4.8,-6.48
1.7706,-15.595,1.4982,-1.8622,2.0403,5.1866,-40.02,-4.8,-6.24
14.288,-19.45,3.0646,-2.8527,3.4025,5.8335,-39.9,-3.54,-6.24
18.878,-19.518,3.7865,-3.4117,5.6563,5.9031,-39.78,-2.22,-6.66
19.518,-19.382,4.7126,-2.9215,6.193,4.3106,-39.24,0.96,-8.1
19.532,-14.601,2.9011,-1.9389,3.0339,2.7996,-38.82,2.82,-9.0
19.532,-11.305,1.1986,-1.4044,1.5495,2.226,-38.16,4.68,-9.72
15.854,-3.9771,-0.99429,-0.78313,0.21533,1.6316,-36.3,8.88,-11.1
11.7,-1.3757,-1.4982,-1.0794,0.98044,1.6747,-35.22,10.98,-11.76
9.8611,0.89894,-1.7025,-1.4539,1.9508,1.7019,-33.96,13.2,-12.48
9.3163,7.5729,-1.4165,-1.6927,2.2923,1.6157,-31.26,17.4,-13.8
9.1256,10.311,-1.7843,-1.5058,2.0614,1.4838,-29.88,19.26,-14.28
9.1256,13.103,-3.0237,-1.3384,1.824,1.2816,-28.44,21.12,-14.7
10.297,14.71,-3.2553,-0.83261,1.0076,-0.099571,-25.44,24.18,-14.82
11.237,15.5,-3.3642,-0.43035,0.44624,-0.99938,-23.94,25.38,-14.7
11.959,13.266,-3.5413,0.0562,-0.29108,-2.0189,-22.5,26.58,-14.58
13.634,7.2733,-2.9965,0.3488,-1.1555,-3.4157,-20.16,28.14,-13.56
14.465,2.833,-1.9477,0.3207,-1.3628,-4.1035,-19.38,28.8,-13.02
15.309,0.95342,-1.1577,0.23335,-0.91874,-4.6154,-18.96,29.16,-12.84
19.314,-2.1929,0.38137,0.34575,0.30849,-4.7101,-19.44,28.92,-12.78
19.504,-6.7012,2.7786,0.6802,1.4798,-4.5848,-20.16,28.5,-13.02
19.532,-16.086,6.456,1.4676,0.38668,-4.7599,-21.12,27.9,-13.44
19.532,-19.477,7.8181,2.5055,-1.489,-4.7611,-23.64,26.04,-14.34
19.532,-19.518,7.2324,3.3515,-2.5061,-4.9437,-24.96,24.96,-14.7
10.951,-17.584,4.7671,3.6096,-2.4685,-4.8781,-26.34,23.4,-14.94
5.1485,-15.091,3.5277,3.89,-2.2413,-3.8866,-29.4,19.68,-15.12
0.34051,-12.803,2.7649,3.7651,-2.5357,-2.9315,-31.08,17.52,-15.3
-7.4503,-11.06,2.5198,3.4325,-2.6887,-1.8488,-34.44,12.96,-14.82
-9.0439,-10.828,2.3291,3.0635,-2.3347,-0.8769,-35.94,10.68,-14.52
-10.311,-10.787,2.2201,2.8411,-1.7474,-0.12828,-37.44,8.28,-14.1
-10.896,-11.305,2.438,2.5137,-1.0657,0.6973,-39.36,4.38,-13.08
-11.387,-11.387,2.3563,2.0846,-0.51129,1.3213,-39.96,2.58,-12.42
-11.237,-11.482,2.0158,1.47,0.21869,2.1814,-40.38,0.96,-11.58
-7.1507,-13.103,0.54481,0.74067,0.91721,3.1484,-40.98,-1.62,-9.6
-4.3177,-13.579,-0.027241,0.07758,1.2617,3.9074,-41.1,-2.64,-8.58
-0.19068,-14.615,-0.31327,-0.4835,1.4004,4.401,-41.04,-3.42,-7.14
3.3642,-18.006,0.054481,-1.1658,1.7764,4.9321,-40.86,-3.18,-7.2
12.149,-19.355,-1.0351,-2.1258,2.8753,5.7146,-40.74,-2.58,-7.38
18.592,-19.504,-0.40861,-3.3399,6.0103,5.5286,-40.68,-1.86,-7.74
19.504,-19.532,2.0294,-3.5772,6.8771,4.4947,-40.2,-0.06,-8.88
19.532,-18.129,2.5061,-3.1799,5.5198,3.0137,-39.78,1.14,-9.54
19.532,-7.1098,0.35413,-2.4713,3.5995,1.9331,-38.16,4.02,-10.5
17.42,-3.0237,0.10896,-1.9887,2.2177,1.6057,-37.14,5.58,-10.98
13.225,0.081722,0.16344,-1.9022,1.6512,1.5763,-36.0,7.38,-11.58
10.025,4.9987,-0.027241,-1.8607,1.8497,1.7587,-33.36,11.16,-12.48
9.7249,8.1313,-0.081722,-1.6872,1.6958,1.6866,-31.98,12.9,-13.02
8.7443,12.013,-0.6674,-1.3073,1.1845,1.4022,-29.22,16.26,-14.16
8.3901,12.953,-1.4574,-0.54795,0.3488,0.60812,-27.84,17.64,-14.4
8.6353,14.233,-1.8524,-0.17868,0.0076358,-0.1295,-26.58,18.9,-14.16
8.7851,15.827,-1.6753,0.022297,-0.14875,-0.53878,-25.26,20.04,-13.8
8.9077,15.963,-1.4165,0.79412,-0.78618,-1.9942,-23.76,21.18,-13.14
10.433,10.583,-1.757,1.0736,-1.1399,-2.9102,-21.06,23.52,-11.88
12.054,7.1915,-1.4029,1.1423,-1.4914,-3.656,-20.04,24.3,-11.22
15.091,1.4438,1.185,1.2141,-1.576,-4.5042,-19.26,25.32,-10.5
18.755,0.054481,1.9205,1.1616,-0.63011,-4.5729,-19.5,25.32,-10.26
19.436,-3.0918,3.2825,1.1524,0.040012,-4.4135,-20.22,25.08,-10.32
19.518,-12.258,6.6195,1.5012,-0.077885,-4.1056,-21.06,24.6,-10.68
19.532,-19.423,9.7522,2.2895,-1.0565,-4.3995,-23.04,23.1,-11.22
19.532,-19.477,8.1586,2.843,-1.5992,-5.0647,-24.3,22.08,-11.4
15.5,-18.006,5.2302,3.5647,-1.6008,-5.0317,-27.0,19.38,-11.52
9.8339,-16.031,3.9908,3.9877,-1.8424,-4.3097,-28.38,17.58,-11.46
4.8761,-14.642,2.9829,3.8796,-2.4923,-3.4783,-29.7,15.78,-11.46
-4.7263,-13.375,2.2474,3.4749,-2.8399,-2.5045,-32.46,11.58,-11.46
-8.2676,-13.116,1.866,2.9963,-2.7629,-1.4975,-33.72,9.54,-11.22
-10.801,-12.599,1.5391,2.5592,-2.2718,-0.71257,-34.8,7.5,-10.98
-13.498,-11.795,1.58,2.2068,-1.6246,-0.011301,-36.6,3.78,-10.32
-13.607,-11.836,1.6072,1.5592,-0.53665,1.237,-37.08,2.16,-10.02
-11.496,-11.904,1.4165,1.2737,-0.32437,1.7193,-37.38,0.66,-9.36
-7.8317,-12.885,0.7355,0.4777,-0.31704,3.3252,-37.68,-1.8,-7.44
-4.8761,-13.184,0.39499,0.11484,-0.22205,4.2113,-37.8,-2.64,-6.42
-2.6832,-14.097,0.23155,-0.14019,0.049175,4.8017,-37.62,-3.18,-5.52
4.9306,-18.483,0.96704,-0.47128,1.0708,5.791,-37.08,-3.36,-4.2
15.582,-19.477,-0.12258,-1.5397,3.3772,6.4257,-36.78,-2.7,-4.02
18.537,-19.518,-0.24517,-2.2611,6.0299,6.1426,-36.42,-1.74,-4.14
19.518,-19.532,1.4574,-2.7406,7.327,4.6588,-35.64,0.78,-4.92
19.532,-16.249,1.185,-2.6777,5.7015,3.2843,-35.16,1.92,-5.4
19.532,-9.9429,-0.39499,-1.9609,3.2776,2.3256,-34.62,3.36,-5.94
16.671,-1.6208,-1.471,-1.4887,1.9868,1.919,-32.88,6.42,-6.9
14.07,0.14982,-1.6344,-1.6145,1.8876,1.8595,-31.74,8.1,-7.14
11.605,2.6696,-1.6617,-1.7996,2.0491,1.8873,-30.54,10.02,-7.5
10.202,9.0848,-1.2803,-1.8247,1.9798,1.8011,-27.48,13.56,-8.52
9.2482,12.803,-1.9613,-1.6487,1.8271,1.6026,-25.8,15.18,-9.06
9.4117,15.241,-2.1929,-1.2608,1.4597,1.0159,-24.36,16.74,-9.6
9.6704,16.154,-2.1248,-0.74648,0.73487,-0.035125,-21.24,19.32,-10.2
9.0303,16.494,-2.6423,0.20311,-0.12126,-1.3604,-19.86,20.28,-10.38
8.6625,14.478,-3.3778,0.48686,-0.36377,-1.7724,-18.48,21.0,-10.2
10.161,9.2618,-3.0782,1.0003,-1.127,-2.9853,-15.96,22.02,-9.54
12.04,4.699,-1.4029,1.1402,-1.6292,-3.7852,-14.88,22.5,-9.3
17.407,0.36775,-0.64016,1.2141,-1.4707,-4.4175,-13.98,22.38,-9.12
19.0,-0.85808,-0.5993,1.113,-0.17196,-4.4205,-14.22,22.02,-9.66
19.532,-14.451,6.3471,1.109,0.92027,-4.1722,-14.58,21.54,-10.38
19.532,-18.891,9.6977,2.0204,-1.3302,-5.3078,-15.9,20.16,-11.88
19.532,-19.45,8.4855,2.3063,-2.1728,-5.7153,-16.86,19.38,-12.42
19.532,-19.518,7.6546,2.5708,-2.2294,-6.1939,-18.0,18.24,-12.9
12.776,-18.864,5.5299,2.9016,-1.6365,-5.8695,-20.46,15.18,-13.5
5.6388,-16.903,3.8682,3.0125,-1.6875,-4.9468,-21.72,13.32,-13.86
-7.3958,-14.397,3.1872,2.8833,-2.7571,-2.9731,-24.24,8.94,-13.98
-12.871,-14.329,2.7649,2.6362,-2.741,-1.4529,-25.5,6.84,-13.86
-16.317,-13.893,2.547,2.5302,-1.8827,-0.15974,-26.64,4.62,-13.74
-16.086,-12.721,2.3972,2.3582,-0.79412,1.0647,-28.8,0.84,-13.38
-12.803,-13.076,1.9341,2.1228,-0.043371,2.219,-29.4,-0.66,-12.96
-10.011,-13.457,1.3893,1.7199,0.22144,3.2101,-29.82,-2.04,-12.24
-5.4754,-13.607,0.47671,1.1249,0.22144,4.4599,-30.78,-4.38,-10.92
-2.6968,-13.988,0.027241,0.15119,0.26848,5.0305,-31.02,-5.28,-10.02
0.54481,-14.288,-0.49033,-0.34453,0.40378,5.1933,-31.2,-6.0,-9.3
5.9793,-15.255,-1.2939,-0.82039,0.71257,4.9645,-31.08,-6.18,-8.76
7.5457,-18.183,-0.43585,-1.3179,1.555,5.1279,-31.02,-5.76,-8.58
14.206,-19.368,-0.36775,-2.2049,3.4902,5.8774,-31.02,-4.92,-8.7
19.45,-19.532,0.12258,-2.7675,5.0983,5.7629,-30.6,-2.46,-9.12
19.504,-19.532,0.77636,-2.6478,5.287,3.777,-30.36,-1.02,-9.54
19.532,-14.451,0.99429,-2.1221,3.8087,2.6899,-29.88,0.48,-9.84
19.532,-10.038,-0.17706,-1.5241,2.6701,2.0534,-28.92,2.28,-10.26
17.666,-3.2144,-0.92618,-1.3079,2.0656,1.6777,-26.94,5.82,-10.86
14.506,-0.50395,-1.1577,-1.3366,1.8601,1.5253,-25.74,7.56,-11.22
11.605,5.38,-1.6753,-1.3964,1.708,1.5098,-22.98,10.92,-11.64
10.651,8.7987,-1.4301,-1.4349,1.3299,1.496,-21.6,12.48,-12.06
10.025,10.706,-1.7025,-1.193,1.2147,1.2556,-20.28,13.86,-12.24
9.112,13.225,-3.0101,-0.9108,1.1496,0.57666,-17.58,16.2,-12.24
8.7987,14.056,-2.7649,-0.58979,0.90958,-0.24557,-16.26,17.16,-12.18
8.6625,14.601,-2.6696,-0.013744,0.29535,-1.0162,-14.82,17.94,-11.82
9.6296,10.215,-3.8137,0.58796,-0.3488,-2.0,-12.36,19.38,-11.1
10.665,8.0224,-3.7456,0.9615,-1.0177,-3.2599,-11.28,19.86,-10.74
13.239,4.8897,-2.6968,1.0617,-1.4832,-3.9514,-10.56,20.34,-10.5
18.319,-0.64016,-0.58567,1.1041,-1.5006,-4.2489,-10.14,20.28,-10.32
19.463,-3.623,0.92618,1.0122,0.045509,-4.5036,-10.5,19.92,-10.44
19.532,-9.7113,4.0589,1.0635,0.91385,-4.8084,-11.04,19.62,-10.68
19.532,-19.327,9.0031,1.657,-0.039095,-5.1563,-12.9,18.78,-11.64
19.532,-19.504,8.7987,2.4517,-2.0143,-5.8054,-14.16,18.18,-11.94
19.532,-19.368,8.1995,2.9792,-2.0724,-6.1218,-15.36,17.34,-12.36
9.8339,-16.603,5.7342,3.4016,-1.576,-5.7815,-18.42,14.94,-12.72
3.9635,-14.792,4.4266,3.6734,-1.6115,-4.9718,-19.98,13.32,-12.78
-0.83084,-13.688,3.5822,3.6686,-2.0571,-3.9355,-21.78,11.7,-12.9
-8.7987,-12.98,2.6968,3.3934,-2.306,-2.7339,-25.26,8.04,-12.96
-10.855,-12.721,2.547,2.9419,-2.0317,-1.1631,-26.82,6.24,-12.78
-13.144,-12.517,2.2474,2.7999,-1.762,-0.71838,-28.32,4.32,-12.48
-12.749,-13.266,2.152,2.2376,-0.67928,0.63255,-31.08,0.96,-11.82
-11.686,-13.838,1.7025,1.6725,-0.047037,1.5244,-32.1,-0.48,-11.16
-7.1643,-14.41,0.84446,0.90225,0.53756,2.5559,-33.96,-3.18,-9.48
-5.094,-14.315,0.31327,0.15211,0.95478,3.4911,-34.56,-4.38,-8.64
-1.8932,-14.097,-0.068102,-0.33323,1.0531,4.0717,-34.98,-5.22,-7.86
2.7241,-14.696,-0.6674,-0.73701,1.0919,4.3203,-35.88,-5.7,-6.6
6.2517,-17.952,-0.50395,-1.6988,1.821,5.0024,-36.18,-5.46,-6.3
11.509,-19.137,-0.89894,-2.6292,3.835,5.8542,-36.18,-4.8,-6.36
19.382,-19.532,-0.081722,-3.2107,5.349,5.7626,-35.94,-2.52,-7.08
19.518,-19.286,1.0896,-3.2141,5.9587,4.54,-35.82,-0.96,-8.04
19.532,-9.1256,-0.21793,-2.3726,3.5717,2.5045,-35.7,2.16,-10.14
19.532,-4.7944,-1.0351,-1.814,1.9138,1.9239,-35.52,3.72,-10.92
18.987,-2.6423,-1.4165,-1.7367,1.1075,1.675,-34.98,5.4,-11.34
11.959,1.076,-1.3212,-1.9725,1.0559,1.6878,-33.36,9.18,-12.18
10.297,2.9284,-0.9398,-2.1912,1.1133,1.7165,-32.46,11.1,-12.48
9.1529,5.8159,-0.57205,-2.1811,1.0537,1.7297,-31.38,13.02,-12.72
5.8431,12.871,-0.20431,-1.9801,1.0177,1.639,-29.04,16.62,-13.38
5.094,14.928,-0.20431,-1.2208,0.91049,0.99724,-27.9,18.0,-13.38
4.8897,19.15,0.35413,-0.30329,0.52382,0.15913,-25.68,20.7,-12.96
6.1836,17.025,-0.58567,0.67165,0.21044,-0.67134,-24.66,21.66,-12.48
8.4174,13.974,-0.96704,1.3405,-0.10049,-1.3592,-23.64,22.62,-11.88
12.19,10.283,-0.50395,1.7904,-1.0427,-2.1194,-22.68,23.34,-10.98
17.134,2.7104,0.8717,2.0614,-2.0534,-3.4031,-21.18,24.36,-9.48
19.014,0.095342,1.362,2.0831,-1.605,-3.9382,-20.82,24.6,-9.18
19.518,-3.9227,3.2689,2.0369,-1.1649,-3.9987,-21.12,24.36,-9.84
19.532,-12.272,6.0883,2.0082,-1.1704,-4.2782,-21.66,23.88,-10.56
19.532,-18.428,7.4776,2.1289,-2.0904,-4.6545,-22.32,23.1,-11.16
19.532,-19.504,7.0417,2.0861,-2.2596,-4.7788,-24.42,20.94,-12.06
19.532,-18.496,6.2517,2.0455,-1.6328,-4.9181,-25.56,19.62,-12.42
14.71,-16.712,3.8273,2.401,-0.90103,-4.4379,-27.96,16.38,-12.96
5.6116,-13.825,2.8058,2.5882,-1.2975,-3.5168,-29.16,14.22,-13.32
-0.34051,-12.871,2.1656,2.6087,-2.0977,-2.4581,-30.42,12.3,-13.2
-3.3506,-12.503,2.0431,2.6142,-2.5769,-1.4881,-31.5,10.08,-13.14
-10.869,-12.163,1.7162,2.6344,-2.503,-0.65821,-33.6,5.94,-12.6
-12.653,-12.136,1.7434,2.584,-1.886,0.19761,-34.5,4.14,-12.3
-12.694,-12.081,1.6889,2.2397,-0.77702,1.4639,-35.76,0.9,-10.86
-11.141,-12.463,1.1986,2.0125,-0.48319,1.8967,-36.12,-0.3,-9.72
-9.8203,-12.885,0.74912,1.3592,0.069944,2.7468,-36.42,-1.44,-8.58
-4.0316,-12.572,-0.19068,0.26359,0.88698,3.7987,-36.6,-2.82,-6.54
-0.95342,-12.449,-0.55843,-0.36469,1.1197,4.229,-36.66,-3.06,-5.88
1.7162,-13.402,-0.47671,-1.5101,1.5794,4.6976,-36.42,-2.82,-5.04
15.187,-19.246,-1.3212,-2.4984,3.1108,5.2201,-36.3,-2.22,-5.1
19.0,-19.504,0.14982,-2.9444,4.3915,5.3075,-36.24,-1.2,-5.4
19.395,-19.532,1.362,-3.3979,6.1813,4.7647,-36.24,-0.12,-5.88
19.532,-14.465,2.4789,-3.0284,5.3976,2.4389,-36.3,2.34,-7.26
19.532,-8.7715,0.61292,-2.0711,3.0919,1.4123,-36.3,3.72,-7.92
19.096,-4.8897,-0.42223,-1.5342,1.4181,1.0925,-36.06,5.1,-8.4
10.515,-0.57205,-1.0896,-1.6747,0.96792,1.2297,-34.98,8.1,-9.24
8.8668,0.5993,-1.2395,-1.8747,1.4224,1.3476,-34.26,9.66,-9.66
7.4095,3.6775,-1.1305,-1.9258,1.7315,1.4245,-33.36,11.22,-9.96
6.4152,9.2482,-1.8387,-1.7675,1.8408,1.467,-31.5,14.28,-10.86
6.9191,12.408,-2.2882,-1.4059,1.6386,1.2367,-30.54,15.66,-11.28
7.9815,13.334,-2.8058,-0.97647,1.1017,0.4777,-29.4,16.98,-11.34
7.8317,15.568,-3.1599,-0.48625,0.36682,-0.7364,-27.48,19.2,-11.1
8.2676,15.473,-3.3234,0.31215,-0.11057,-1.591,-26.52,20.1,-10.68
9.8066,13.076,-3.2825,0.51801,-0.43646,-2.0446,-25.44,20.76,-10.14
12.926,6.8374,-1.8932,0.81642,-1.5812,-3.3634,-23.76,21.84,-9.06
14.233,4.413,-0.8036,0.894,-1.8173,-4.0671,-23.28,22.02,-8.7
15.554,3.0918,-0.054481,0.88056,-1.0599,-4.4028,-23.04,22.08,-8.7
19.491,-2.0022,4.3177,0.98594,0.70036,-4.4685,-23.58,21.48,-9.66
19.518,-7.3414,6.5378,1.3879,0.47678,-4.7562,-24.12,20.94,-10.56
19.532,-18.224,10.243,2.2584,-0.97097,-4.8655,-24.9,20.22,-11.52
19.532,-19.286,8.9077,2.7752,-1.8543,-5.1975,-26.76,17.7,-12.78
16.494,-18.129,6.4969,3.2599,-1.9154,-5.4785,-27.84,15.96,-13.2
11.795,-17.611,5.1213,3.5424,-1.3989,-4.9902,-29.1,13.92,-13.56
4.127,-15.35,2.4108,3.5397,-1.4374,-4.1032,-30.36,11.7,-13.74
-3.7456,-13.293,0.96704,3.2193,-2.2648,-2.5146,-32.88,6.54,-13.62
-9.0439,-12.721,0.53119,2.9157,-2.2498,-1.4865,-33.96,4.08,-13.5
-11.005,-12.408,0.34051,2.6689,-1.7434,-0.60048,-34.98,1.5,-13.26
-12.245,-11.741,0.50395,2.3662,-1.0785,0.21747,-36.6,-3.0,-12.12
-11.441,-11.782,0.44947,1.9184,-0.53695,1.0904,-37.2,-4.98,-11.34
-10.215,-12.231,-0.21793,1.3088,-0.091324,2.0351,-37.8,-8.22,-9.54
-6.0611,-12.354,-0.68102,0.22969,0.56841,3.3509,-38.1,-9.72,-8.1
-3.2008,-12.177,-0.77636,-0.47342,0.91294,4.0045,-38.22,-10.92,-6.66
-1.2122,-12.163,-0.83084,-0.80146,0.97555,4.2226,-38.4,-11.58,-5.52
3.3097,-13.797,-0.99429,-1.8323,1.2963,4.492,-38.76,-11.88,-3.66
8.3901,-17.638,-0.53119,-2.7975,2.3301,4.9071,-38.82,-11.52,-3.42
18.442,-19.3,1.5391,-3.9068,4.8897,5.6135,-38.7,-10.68,-3.3
19.504,-19.532,4.7126,-4.565,6.5439,4.1829,-38.4,-7.86,-4.56
19.532,-11.673,4.413,-4.339,6.0696,3.3634,-38.46,-6.48,-5.7
19.532,-7.3686,2.9011,-3.3155,3.675,2.0455,-38.46,-4.98,-7.02
19.532,-2.9284,0.89894,-2.0721,0.66462,1.4407,-38.34,-3.36,-8.22
13.239,1.9613,-0.068102,-1.938,0.24374,1.4759,-38.1,-0.18,-10.08
9.5887,3.6366,-0.36775,-2.0391,0.75014,1.6487,-37.68,1.56,-10.62
6.851,8.0905,-0.47671,-2.1939,1.3683,1.8512,-36.48,5.34,-11.52
6.0066,11.046,-0.78998,-2.0589,1.0501,1.9114,-35.94,7.26,-12.12
5.1485,13.184,-1.1169,-1.602,0.3937,1.7556,-35.22,8.94,-12.66
4.4811,14.519,-1.3893,-1.0351,0.035736,1.0815,-33.6,12.12,-13.38
4.9578,14.642,-1.6617,-0.53176,0.39187,0.17562,-32.82,13.62,-13.26
6.9328,13.729,-1.866,0.032376,0.38362,-0.61514,-32.1,14.94,-13.2
12.095,9.0712,-1.7706,0.83536,-0.67898,-1.7874,-30.78,16.74,-11.7
13.484,7.0281,-1.2258,1.1814,-1.1878,-2.7217,-30.18,17.46,-10.62
15.8,3.0918,-0.01362,1.2871,-1.2468,-3.2043,-29.82,18.06,-9.54
18.02,1.4029,1.185,1.5818,-0.58796,-3.9984,-29.4,18.36,-8.76
19.504,-1.6208,3.3506,1.8103,0.082161,-4.09,-29.52,18.78,-8.82
19.532,-6.9191,6.0202,2.164,-0.13286,-4.5348,-29.82,18.66,-9.54
19.532,-17.57,7.7091,2.8579,-1.7914,-4.8393,-30.84,17.76,-10.98
19.532,-17.189,6.565,2.9349,-1.9988,-4.9468,-31.56,16.8,-11.34
19.532,-15.963,5.9657,3.014,-1.4786,-5.0125,-32.34,15.6,-11.64
9.2891,-14.247,3.3642,3.1252,-1.007,-4.5708,-34.02,12.3,-11.7
4.0589,-13.157,2.261,3.1624,-1.2184,-3.649,-34.98,10.38,-11.7
-2.3563,-12.381,1.5119,3.0494,-2.0644,-2.5317,-35.94,8.22,-11.52
-9.5479,-12.408,1.4165,2.8231,-2.6041,-1.3854,-37.92,4.14,-10.86
-11.768,-12.177,1.3484,2.5137,-1.9212,0.045509,-38.76,2.34,-10.38
-13.934,-11.482,1.4846,2.4236,-1.4441,0.45693,-39.36,0.54,-9.84
-12.667,-12.653,1.5391,1.8292,0.046731,1.8867,-40.2,-2.16,-8.04
-10.964,-13.021,1.3484,1.1839,0.75289,2.9144,-40.2,-3.18,-6.84
-8.9349,-13.13,1.0215,0.3992,1.2373,3.8735,-40.38,-4.02,-5.46
-3.228,-13.334,0.17706,-0.28069,1.5217,4.6349,-40.56,-5.16,-3.24
-0.28603,-13.716,-0.40861,-1.0705,1.5849,5.1734,-40.5,-5.22,-2.46
2.5061,-14.901,-0.38137,-1.419,1.6145,5.3206,-40.38,-4.8,-2.04
16.957,-19.382,0.46309,-2.7678,2.6386,6.2461,-39.9,-2.94,-2.22
19.218,-19.518,0.85808,-3.2296,4.0736,5.6939,-39.78,-1.56,-2.58
19.491,-19.532,2.9965,-3.0745,5.0778,4.2516,-39.54,0.06,-3.18
19.532,-12.64,1.7298,-2.4835,4.0497,2.6594,-39.0,3.6,-4.5
19.532,-5.7342,-0.054481,-1.2437,2.2516,1.449,-38.64,5.4,-4.98
18.673,-3.0646,-0.5993,-1.0586,1.8897,1.2901,-38.22,7.32,-5.4
14.669,-0.50395,-1.1305,-1.014,1.5498,1.1759,-37.56,9.3,-6.0
10.079,3.1599,-1.7025,-1.1542,1.4731,1.2675,-35.76,13.14,-6.9
9.2755,5.6116,-2.0431,-1.1582,1.0385,1.2663,-34.62,15.0,-7.38
7.6274,9.3163,-2.7377,-0.96578,0.22785,1.175,-32.46,18.54,-7.92
5.8976,12.054,-4.1678,-0.51221,-0.10079,0.80634,-31.62,20.16,-8.1
5.6524,12.885,-4.4675,-0.28619,-0.33628,-0.0088575,-30.6,21.42,-7.98
6.2517,14.928,-4.9987,-0.17929,-0.34208,-0.49052,-29.7,22.68,-7.74
7.0962,13.675,-6.7421,0.16829,-0.58613,-1.7892,-27.66,24.66,-6.36
8.54,11.087,-7.6546,0.12859,-0.94745,-2.4929,-26.7,25.38,-5.64
12.326,5.993,-8.1586,-0.19212,-1.5177,-3.2,-25.26,26.1,-4.08
13.77,4.1542,-7.7364,-1.0577,-2.1273,-4.2764,-24.78,26.28,-3.6
17.965,1.2395,-3.6639,-1.2715,-1.8323,-4.503,-24.78,26.16,-3.3
19.341,-0.054481,-1.1986,-1.5589,1.7798,-4.2816,-25.56,25.32,-2.88
19.504,-5.598,4.9033,-1.0406,3.0006,-4.594,-26.16,24.6,-2.94
19.532,-16.126,10.188,0.77672,0.7199,-5.5971,-27.12,23.76,-3.12
19.532,-18.891,10.556,2.3778,-1.558,-5.984,-29.28,21.42,-3.42
19.532,-17.884,8.7851,3.5604,-2.1341,-5.9514,-30.42,19.86,-3.48
10.351,-17.611,5.7478,3.6713,-1.8625,-5.7171,-32.82,15.9,-3.3
2.4108,-15.732,3.2553,3.6337,-1.1814,-4.4608,-34.02,13.68,-3.12
-2.3155,-14.574,2.3018,3.525,-1.2049,-3.9712,-35.28,11.22,-3.0
-4.9714,-14.015,2.3427,2.9297,-1.5437,-2.127,-36.48,8.7,-2.7
-10.27,-12.858,2.8739,2.5769,-1.5782,-1.0324,-38.34,4.08,-2.4
-11.577,-12.599,3.0918,2.4496,-0.93768,0.21869,-39.06,2.1,-2.16
-12.871,-12.762,3.1599,2.4175,-0.54184,0.67623,-39.78,-1.56,-1.5
-12.122,-13.866,2.9965,2.1484,0.76114,2.3564,-40.14,-3.18,-0.84
-10.964,-14.601,2.7786,1.7055,1.4508,3.5873,-40.5,-4.44,-0.24
-6.1428,-15.554,1.8932,1.2425,1.8967,4.7672,-40.8,-6.36,1.2
-3.2144,-16.031,1.2258,0.89309,2.0354,5.583,-40.86,-6.72,1.62
0.58567,-16.957,-0.68102,0.5229,1.9465,5.9721,-40.44,-6.12,1.56
15.977,-19.45,-1.6208,-0.82406,1.9383,6.5772,-40.2,-5.16,1.2
19.096,-19.518,-2.7241,-1.3552,2.4984,6.6844,-39.9,-3.78,0.54
19.477,-19.532,-2.7649,-2.153,5.3588,5.5079,-39.54,-2.04,-0.24
19.532,-15.732,-0.83084,-2.3659,5.8558,3.6789,-39.12,1.74,-2.34
19.532,-9.902,-1.6753,-1.9447,4.6331,2.2257,-38.76,3.6,-3.3
18.81,-1.2122,-3.514,-1.4175,3.0846,1.5718,-37.56,7.92,-4.92
14.805,1.4982,-4.0589,-1.3995,1.317,1.3079,-36.48,10.2,-5.4
11.509,3.4051,-4.3994,-1.6469,0.83902,1.3836,-35.28,12.54,-6.12
8.8532,6.5105,-3.8546,-1.8277,0.64049,1.4545,-32.64,17.22,-7.32
7.641,8.5263,-3.9227,-1.7385,0.55405,1.3189,-31.2,19.44,-7.98
6.5241,11.087,-4.9306,-1.5791,0.8094,0.93829,-29.7,21.42,-8.4
6.4697,14.397,-4.7126,-1.3631,1.127,0.23671,-27.06,24.78,-8.76
6.9736,15.595,-3.8409,-0.6185,0.71746,-1.0489,-25.98,26.04,-8.52
8.2539,14.587,-3.4051,-0.026878,-0.1744,-1.9004,-24.9,27.0,-8.16
10.474,8.8396,-2.6015,0.29688,-0.9502,-2.5464,-23.1,28.5,-6.96
11.822,5.993,-1.3484,0.478,-1.5547,-3.2339,-22.44,29.16,-6.42
13.293,3.2689,-0.50395,0.54184,-1.7229,-3.9276,-21.96,29.64,-5.82
18.919,-0.35413,0.7355,0.52046,-1.12,-4.39,-22.2,29.46,-5.88
19.45,-2.3699,2.0839,0.48839,0.16585,-4.3949,-23.1,28.98,-6.3
19.518,-7.7772,4.7399,0.63255,0.054672,-4.5705,-24.3,28.2,-6.78
19.532,-15.623,6.8647,1.0675,-1.0412,-5.083,-25.5,27.36,-7.26
19.532,-18.796,6.6467,1.6448,-1.8665,-5.2947,-28.32,24.6,-7.68
19.532,-16.862,5.4073,1.9261,-1.3885,-5.4712,-29.94,22.98,-7.62
14.192,-15.636,4.0997,2.2455,-0.63866,-5.2983,-31.5,21.0,-7.56
4.5901,-13.062,1.7025,2.6316,-0.35919,-4.6007,-34.8,16.26,-7.56
-2.0839,-12.531,1.1713,2.8741,-1.4019,-3.0103,-36.42,13.8,-7.44
-6.8647,-13.076,1.5119,2.7574,-2.1826,-1.8134,-37.8,11.16,-7.5
-9.7522,-13.348,1.3757,2.6664,-2.2507,-0.78863,-39.06,8.7,-7.08
-15.146,-12.953,1.3076,2.6017,-1.6096,0.099876,-40.98,4.14,-6.06
-15.023,-13.157,1.2531,2.4117,-0.63622,1.1921,-41.82,2.22,-5.22
-10.869,-14.124,0.57205,1.664,0.49388,2.9147,-42.72,-1.08,-3.24
-8.1177,-14.424,0.17706,1.296,0.72143,3.4386,-42.72,-1.08,-3.24
-8.1177,-14.424,0.17706,0.18509,1.1374,4.682,-42.78,-2.28,-2.28
0.38137,-14.124,-0.81722,-0.3317,1.2226,5.0858,-43.14,-3.78,-0.84
2.8058,-14.41,-0.96704,-0.89767,1.223,5.1691,-42.96,-3.78,-0.24
12.177,-18.81,-1.0896,-1.7666,1.4038,5.2815,-42.42,-2.7,-0.06
19.041,-19.491,0.62654,-2.8567,3.5956,5.8353,-41.58,-0.24,0.06
19.504,-19.532,3.3642,-3.6496,7.1807,4.831,-40.74,3.24,-1.08
19.532,-13.443,4.6309,-2.9929,6.4477,2.7718,-39.96,7.08,-3.36
19.532,-3.7865,1.0488,-1.5046,3.1487,1.4832,-39.42,10.74,-5.7
16.93,0.96704,-1.5391,-0.58185,0.24312,0.96883,-38.58,14.1,-7.5
10.624,2.1248,-2.9829,-0.37018,-0.92393,0.86163,-37.44,16.8,-8.28
6.0747,3.7728,-3.4051,-0.73243,-0.60751,0.97983,-36.06,19.2,-8.34
4.7671,5.2166,-3.2961,-1.5308,0.60751,1.2892,-35.34,20.16,-8.16
3.0101,8.6489,-3.732,-1.8683,1.3815,1.4465,-33.96,21.96,-7.68
2.7241,11.482,-3.8682,-1.9355,2.055,1.431,-32.4,23.46,-6.84
4.0316,12.898,-3.5413,-1.7959,2.4542,1.0501,-31.62,24.18,-6.12
6.7012,13.579,-2.1793,-1.3558,2.2455,0.35797,-29.94,25.5,-4.38
7.3277,13.348,-1.8251,-0.65882,1.6799,-0.52534,-28.92,26.16,-3.6
8.2267,9.5479,-0.64016,0.064446,1.5794,-1.3054,-28.14,26.94,-2.88
9.507,6.6604,0.49033,0.59773,2.3757,-2.0073,-26.94,27.78,-2.28
12.503,4.2087,2.5606,1.3799,3.1316,-2.9911,-26.64,27.96,-2.46
17.557,2.7377,5.2711,2.0449,1.3549,-3.3738,-26.52,27.72,-3.0
19.477,0.91256,9.5479,2.5992,-1.0993,-3.3167,-26.82,26.52,-5.1
19.532,-6.6604,13.893,2.9108,-2.3662,-3.4071,-27.36,25.74,-6.48
19.532,-18.619,17.611,2.8628,-1.9465,-3.8735,-28.44,23.88,-9.18
19.532,-19.423,15.718,3.0424,-1.3628,-4.4752,-28.98,22.68,-10.38
19.532,-15.623,11.754,3.2651,-1.1897,-4.7238,-29.64,21.42,-11.52
13.28,-13.552,7.0553,4.2965,-1.5311,-4.4541,-31.02,18.06,-13.32
6.8919,-12.19,4.1678,4.6438,-2.2129,-3.7574,-31.92,15.9,-14.04
2.5061,-11.891,2.2474,4.5571,-3.4331,-2.5559,-33.72,11.46,-15.48
-5.993,-12.64,1.6344,4.1942,-3.733,-1.7883,-34.56,9.24,-15.78
-9.5615,-13.062,1.1169,3.9227,-3.6356,-1.3922,-35.28,7.14,-15.84
-11.414,-12.967,0.89894,2.9755,-2.4093,-0.20097,-36.0,5.16,-15.54
-14.301,-12.177,0.5993,2.3289,-1.1478,0.52015,-36.9,1.62,-14.1
-13.539,-12.299,0.47671,1.5324,0.13683,1.4163,-37.38,0.06,-12.9
-11.155,-12.34,0.28603,0.59559,0.94318,2.4236,-37.68,-1.2,-11.52
-5.6388,-11.605,-0.23155,-0.64446,1.0623,3.7904,-38.28,-3.48,-8.88
-2.1384,-11.387,-1.0215,-1.1445,0.84208,4.382,-38.46,-4.14,-7.8
0.61292,-12.408,-1.2803,-1.6292,0.75961,4.7935,-38.52,-4.56,-6.96
3.3778,-14.805,-0.84446,-2.46,1.2052,5.3625,-38.64,-4.32,-6.36
18.701,-19.45,0.027241,-3.4105,3.2183,5.6135,-38.76,-2.88,-6.0
19.436,-19.518,2.4517,-3.9303,5.8109,4.9871,-38.58,-1.68,-6.36
19.532,-13.13,4.4266,-3.5229,6.3432,2.5678,-38.34,1.26,-8.16
19.532,-7.0553,2.1248,-2.2993,3.7183,1.6228,-38.34,2.7,-9.54
19.532,-3.9908,0.83084,-1.4441,0.98197,1.2504,-38.46,4.02,-10.86
14.301,0.65378,-0.12258,-1.2581,-0.37141,1.1637,-38.4,6.72,-12.3
10.651,1.6344,-0.96704,-1.3827,-0.3882,1.3754,-38.04,8.4,-12.6
8.4174,2.9965,-1.58,-1.7211,0.26939,1.5305,-37.44,10.02,-12.72
6.7966,7.4503,-1.4982,-1.9157,0.62094,1.5018,-35.88,13.56,-12.72
5.3119,10.556,-1.975,-1.6652,0.67226,1.4413,-35.1,15.06,-12.72
4.6445,13.239,-2.3563,-1.4868,0.68722,1.2889,-34.38,16.44,-12.54
5.8023,14.615,-2.5742,-0.75808,0.43555,-0.046731,-32.76,18.66,-11.94
6.4016,14.833,-2.9556,-0.14355,-0.19242,-0.78435,-31.98,19.5,-11.34
6.6467,13.321,-3.0646,0.4441,-0.9279,-1.4432,-31.38,20.16,-10.32
9.2891,8.431,-2.2882,0.77366,-1.3958,-2.1014,-30.3,20.82,-7.56
11.673,5.6797,-1.1577,0.93951,-1.766,-3.2376,-29.76,21.0,-6.0
14.683,3.4323,-0.10896,0.97341,-1.6741,-3.583,-29.34,21.18,-4.8
19.368,1.7706,2.2337,1.0931,0.03207,-3.7956,-29.16,21.18,-4.38
19.504,-3.3642,5.5162,1.2495,0.82222,-3.81,-29.4,20.82,-4.86
19.532,-17.516,9.1665,1.5757,-0.26542,-4.2348,-30.3,19.14,-6.6
19.532,-19.028,8.2539,2.1756,-1.7749,-4.4795,-30.84,17.88,-7.26
19.532,-16.944,7.355,2.35,-2.0763,-4.6575,-31.62,16.44,-7.86
14.233,-15.527,5.094,2.5974,-1.8787,-4.6786,-33.12,13.08,-8.7
6.3607,-14.451,2.6696,2.7187,-1.3454,-4.1878,-33.72,11.22,-8.94
3.0918,-12.967,1.7979,2.791,-1.4499,-2.9441,-34.56,9.18,-9.12
-4.3449,-11.128,0.68102,2.6878,-1.9129,-1.894,-35.7,4.8,-9.18
-8.7443,-10.91,0.40861,2.4743,-1.9383,-0.22907,-36.06,3.06,-9.12
-11.645,-10.515,0.28603,2.4251,-1.565,0.2248,-36.36,-0.06,-8.82
-11.7,-10.665,0.36775,2.4089,-1.1035,0.94745,-36.42,-1.38,-8.28
-10.665,-11.128,0.29965,2.1903,-0.48869,1.7532,-36.3,-2.7,-7.5
-8.1586,-11.959,-0.040861,1.4456,0.24343,3.0467,-36.12,-4.74,-5.82
-5.775,-12.667,-0.29965,0.76053,0.73609,3.8701,-36.12,-5.28,-4.8
-3.732,-12.939,-0.24517,0.041539,1.2575,4.4728,-36.3,-5.52,-4.08
1.7298,-15.05,-0.62654,-0.59101,1.6814,4.696,-36.0,-5.34,-3.3
6.8783,-18.51,0.55843,-1.4102,2.16,4.7745,-35.76,-4.68,-3.06
12.258,-19.286,1.1169,-2.5913,3.3347,5.3796,-35.88,-3.72,-3.54
19.409,-19.532,3.7728,-3.6747,4.9969,5.3387,-35.64,-1.02,-4.92
19.518,-19.423,4.413,-3.4422,5.2366,4.0161,-35.7,0.66,-5.94
19.532,-12.095,2.2201,-2.6893,4.4584,2.8848,-35.64,4.14,-7.86
19.532,-7.3141,0.47671,-1.7562,2.6093,1.6933,-35.46,5.76,-8.64
17.134,-1.5936,-1.1032,-1.2391,2.0556,1.4746,-34.86,7.62,-9.42
13.402,0.54481,-1.8932,-1.2437,1.1173,1.3674,-33.54,11.52,-10.56
10.556,3.2008,-2.0294,-1.4462,0.97952,1.4163,-32.7,13.32,-10.92
9.902,4.7399,-2.0431,-1.573,1.0815,1.3735,-31.62,15.18,-11.52
9.507,9.6977,-2.9011,-1.5779,1.1588,1.179,-29.28,18.54,-12.42
9.9973,11.754,-3.051,-1.4899,0.832,0.15944,-28.2,20.22,-12.48
8.7306,13.92,-2.1929,-0.86896,0.55436,-0.83841,-26.1,22.74,-12.0
7.3958,14.369,-1.866,-0.32437,0.33811,-1.7355,-25.08,23.76,-11.34
7.4095,13.416,-1.757,-0.034208,0.17165,-2.1646,-24.18,24.84,-10.74
9.1937,7.9951,-0.7355,0.68997,-0.60567,-3.321,-22.68,26.1,-9.0
10.637,5.2983,0.19068,1.0198,-1.08,-3.9835,-22.2,26.46,-8.4
12.122,3.1327,2.547,1.274,-1.1781,-4.521,-22.26,26.52,-7.74
18.891,2.8194,3.4187,1.4829,0.23885,-4.6774,-22.98,26.04,-8.04
19.45,0.7355,6.3471,1.6713,1.3867,-4.6105,-23.76,25.26,-8.64
19.504,-2.7786,8.3629,2.1939,0.69303,-4.7134,-24.6,24.6,-9.54
19.532,-16.467,10.106,3.1976,-1.4612,-4.7983,-26.88,22.44,-10.92
19.532,-18.224,8.9622,3.5449,-2.7483,-5.0436,-28.02,20.94,-11.34
19.246,-17.734,6.7148,3.5659,-2.7413,-5.3325,-29.34,19.14,-11.76
7.8862,-16.426,3.0918,3.3564,-1.3809,-4.5082,-32.04,15.0,-12.18
0.8036,-14.288,1.2667,3.2125,-1.1704,-3.5403,-33.3,12.6,-12.18
-2.1656,-13.443,1.0896,3.0326,-1.7459,-2.4572,-34.38,10.02,-12.12
-9.7385,-13.716,0.68102,2.6735,-2.0992,-1.2584,-36.06,5.22,-12.06
-12.136,-12.844,0.46309,2.4328,-1.8005,-0.20586,-36.78,2.82,-11.94
-12.762,-12.286,0.29965,2.2608,-1.0938,0.73365,-37.32,0.54,-11.76
-10.215,-12.98,0.14982,1.5556,0.022602,2.3161,-37.74,-2.7,-10.38
-8.1586,-13.634,0.10896,0.85124,0.42333,3.2886,-37.98,-4.08,-9.36
-6.8647,-13.866,0.027241,0.068722,0.79932,4.1142,-38.16,-5.28,-8.1
-2.0158,-13.988,-0.095342,-0.58735,1.1747,4.6362,-38.22,-6.72,-6.12
1.0079,-13.879,-0.32689,-1.131,1.4429,4.798,-38.28,-7.08,-5.52
7.8998,-17.761,0.65378,-1.7355,1.774,4.8115,-37.92,-6.36,-4.98
16.004,-19.314,1.7979,-3.1334,3.5949,5.8435,-37.68,-5.28,-5.22
18.646,-19.477,3.4323,-3.6496,4.2947,6.0143,-37.32,-3.96,-5.88
19.477,-19.532,4.3177,-4.2153,5.2165,5.3704,-37.02,-2.34,-6.78
19.532,-12.177,4.2904,-3.3243,4.3124,3.3775,-36.42,1.14,-8.58
19.532,-6.96,2.1929,-2.1796,2.7321,2.3329,-35.94,2.94,-9.36
18.456,0.27241,0.99429,-1.4239,1.5928,1.77,-34.92,6.9,-10.92
15.718,1.7979,-0.54481,-1.2651,0.84299,1.4902,-34.14,8.88,-11.28
11.7,3.5549,-1.7298,-1.3378,0.71593,1.4801,-31.98,13.08,-12.12
9.4389,7.4912,-1.6617,-1.5388,0.33995,1.5116,-30.9,15.0,-12.24
8.1995,10.025,-1.6753,-1.5452,0.26725,1.4685,-29.82,16.8,-12.3
6.0747,12.735,-2.2882,-1.3323,0.61453,1.0803,-27.36,20.1,-12.42
6.0066,13.212,-2.2201,-1.08,0.99418,0.3259,-26.16,21.48,-12.24
7.0281,14.424,-1.2258,-0.39004,0.85277,-0.99754,-24.24,23.7,-11.16
7.2869,12.653,-1.4982,0.31246,0.33323,-1.8167,-23.4,24.42,-10.2
7.9543,10.188,-1.1577,0.83505,-0.16463,-2.5415,-22.56,25.08,-9.24
9.5615,7.5184,-0.38137,1.2004,-0.55619,-3.2874,-21.9,25.5,-8.46
14.083,3.7592,1.5391,1.591,-0.75839,-4.0531,-21.42,25.98,-7.44
18.415,3.5958,1.6344,1.8601,-0.025351,-4.5357,-21.54,25.56,-7.5
19.518,-1.4301,7.5457,2.3888,0.59284,-4.3433,-22.56,24.12,-8.76
19.532,-9.7794,10.243,2.9896,-0.75533,-4.7082,-23.16,23.28,-9.6
19.532,-15.977,11.618,3.1597,-1.6423,-4.6508,-23.76,22.14,-10.38
19.532,-17.284,8.9894,3.0885,-2.3955,-4.8005,-25.8,19.44,-11.94
16.985,-15.05,7.0962,3.3457,-1.4899,-5.0293,-27.0,17.64,-12.3
10.692,-14.192,4.3721,3.5781,-0.9444,-4.4242,-28.02,15.6,-12.72
0.72188,-12.49,2.1929,3.6114,-1.1942,-2.9731,-30.18,11.1,-13.14
-2.2474,-12.49,1.58,3.3488,-2.2474,-1.7788,-31.14,8.88,-13.2
-7.5048,-12.79,0.21793,2.9331,-2.3341,-0.66798,-32.28,6.6,-13.44
-11.237,-12.027,-0.54481,2.5439,-1.8399,0.1799,-33.9,2.4,-13.26
-11.605,-12.054,-0.6674,2.1221,-1.1206,1.0431,-34.5,0.66,-12.78
-9.2891,-13.048,-0.54481,1.493,-0.41814,1.843,-35.16,-2.04,-11.22
-8.1858,-13.144,-0.43585,0.67531,0.16402,2.6212,-35.34,-3.24,-10.2
-6.3743,-13.089,0.027241,-0.64538,0.7645,3.7275,-36.06,-5.1,-8.1
-2.0158,-12.735,0.14982,-0.99785,0.84788,3.9688,-36.06,-5.58,-7.08
0.027241,-13.702,-0.31327,-1.518,1.0525,4.2871,-36.06,-5.88,-6.24
2.0294,-15.432,0.01362,-2.5006,2.1615,4.7932,-36.06,-5.58,-5.88
13.253,-19.314,3.6775,-3.4166,3.9172,5.6358,-35.76,-4.02,-5.76
18.742,-19.504,5.9385,-4.0534,4.9605,4.9059,-35.52,-2.64,-6.18
19.518,-16.263,7.4776,-4.2098,5.5653,4.229,-34.74,0.18,-7.5
19.532,-10.624,5.6252,-3.5222,4.7034,3.2813,-34.32,1.8,-8.34
19.532,-7.0553,3.2416,-2.0018,2.2379,2.0198,-33.9,3.48,-9.3
19.504,0.57205,1.1032,-1.5464,1.2281,1.5189,-33.0,6.48,-10.38
16.045,2.5742,0.35413,-1.5235,0.92852,1.2037,-32.34,8.28,-10.68
9.9429,6.2381,-0.8717,-1.6811,1.0458,1.1029,-30.6,11.82,-10.8
8.0496,8.1586,-0.96704,-1.7941,0.95264,1.0183,-29.58,13.56,-10.86
7.1098,9.3708,-0.9398,-1.6689,0.78985,0.90622,-28.68,15.18,-10.92
5.4481,11.291,-1.2258,-1.3234,0.75411,0.55589,-27.78,16.68,-10.92
5.5435,13.116,-1.1169,-0.86346,0.8882,-0.015577,-25.68,19.02,-10.5
7.6683,13.988,-0.83084,-0.20739,1.0687,-0.8937,-24.96,19.98,-10.02
10.542,11.741,-0.58567,0.5901,1.1817,-1.8079,-23.52,21.42,-8.34
12.286,10.147,0.027241,1.5724,0.29047,-3.1927,-23.04,21.72,-7.38
14.669,6.7421,1.471,2.0525,-1.1533,-4.0629,-22.8,21.84,-6.54
13.607,3.2144,3.2416,2.3091,-1.7034,-4.6908,-22.68,21.42,-6.36
16.971,2.9965,4.6718,2.3164,-0.83719,-4.7605,-22.86,20.76,-7.02
19.218,2.3427,7.8589,2.4022,0.0073304,-4.5803,-23.1,20.16,-8.16
19.532,-10.447,13.443,2.5775,0.097128,-4.5558,-24.18,18.48,-10.14
19.532,-18.074,13.389,2.9099,-1.2343,-4.3118,-24.9,17.22,-11.04
19.532,-19.164,11.727,3.4679,-1.8882,-4.3964,-25.56,15.78,-11.7
17.965,-15.405,7.2596,3.7254,-1.8509,-4.076,-26.46,14.04,-12.36
4.0316,-12.408,2.3836,3.7455,-1.7791,-3.2159,-28.44,10.02,-13.14
-0.95342,-11.182,0.91256,3.5293,-1.7935,-2.0253,-29.46,7.74,-13.38
-4.7399,-10.569,0.19068,3.2626,-1.7669,-0.91447,-30.54,5.46,-13.74
-8.0496,-11.278,-0.36775,2.719,-1.4936,0.33872,-32.22,1.02,-14.16
-7.6955,-11.455,-0.98067,2.357,-1.1567,0.95692,-32.76,-0.78,-13.8
-7.3141,-11.319,-1.4165,2.0971,-0.78343,1.6273,-33.3,-2.28,-13.44
-5.9521,-10.951,-1.6753,1.6906,-0.45907,2.3057,-33.78,-4.44,-11.22
-4.8897,-10.992,-1.9341,1.1194,-0.18784,3.0513,-34.14,-5.58,-9.84
-3.1191,-12.095,-1.7979,0.44349,0.11576,3.8313,-34.38,-6.54,-8.7
-0.068102,-12.667,-1.5119,-0.74739,0.60964,4.4077,-34.92,-7.26,-6.72
2.2337,-13.375,-1.6344,-1.6591,1.0101,4.5473,-34.98,-7.14,-6.06
3.5685,-14.587,-1.1305,-2.6493,1.6985,5.0656,-34.92,-6.6,-5.52
16.576,-19.368,2.9556,-3.4447,3.3833,5.8759,-34.68,-4.26,-5.52
19.164,-19.504,4.985,-3.9172,5.3878,5.2547,-34.38,-2.76,-5.94
19.491,-19.532,7.7636,-3.9349,6.7042,3.7999,-34.08,-1.14,-6.66
19.532,-8.4719,5.38,-3.2416,5.1942,2.5947,-33.9,1.92,-8.46
19.532,-3.6094,2.3836,-1.8912,1.1793,1.431,-34.08,3.24,-9.12
17.543,-0.054481,1.1713,-1.6964,0.45968,1.1936,-33.9,4.74,-9.3
14.192,1.0896,0.47671,-1.8809,0.45845,1.0211,-33.42,6.48,-9.3
7.3277,4.6445,-0.89894,-2.1866,1.1573,1.2468,-31.86,10.38,-9.36
5.8295,6.7966,-1.2258,-2.4044,1.7385,1.4325,-31.08,12.3,-9.24
4.8352,10.297,-0.61292,-2.3857,1.8668,1.467,-29.22,15.36,-9.24
4.699,12.694,-0.1362,-1.7489,0.97738,0.99327,-28.5,16.74,-9.06
4.9033,13.661,-0.24517,-1.3851,0.75595,0.6298,-27.6,17.88,-8.76
4.9714,14.043,-0.65378,-0.31765,0.8604,-0.50549,-26.88,18.96,-8.22
6.279,13.443,-0.62654,0.42516,0.53054,-1.1609,-25.5,20.64,-6.54
7.7908,11.482,-0.027241,1.1661,-0.4444,-1.8937,-25.02,21.36,-5.4
9.9156,8.0496,1.2803,1.8922,-1.6047,-2.9325,-23.94,22.56,-2.58
12.967,4.5492,2.6015,2.1829,-1.6151,-3.4786,-23.46,22.98,-1.74
18.347,4.2768,4.2223,2.2749,-1.2278,-3.6569,-23.4,22.8,-1.68
19.232,3.7592,6.5922,2.3576,0.17746,-3.7312,-23.88,22.08,-2.16
19.532,-10.147,14.029,2.8286,1.3082,-4.5296,-25.26,20.28,-4.38
19.532,-18.061,15.663,3.2587,0.079107,-5.1612,-25.98,19.38,-5.52
19.532,-16.058,11.836,3.7913,-1.3613,-5.349,-27.54,16.92,-7.56
17.584,-15.541,8.3084,4.4159,-1.5033,-5.5149,-28.26,15.24,-8.22
13.661,-15.772,6.5105,4.5173,-1.1765,-4.861,-29.1,13.32,-8.88
8.145,-15.445,4.2223,4.4505,-1.1619,-4.3607,-29.88,11.1,-9.42
-1.7706,-13.934,1.1032,4.051,-2.0556,-2.8136,-31.08,6.12,-10.26
-6.5378,-13.702,0.44947,3.5806,-2.5562,-1.7379,-31.5,3.48,-10.56
-12.83,-13.089,-0.31327,2.9661,-2.3262,-0.54581,-32.22,-1.08,-11.22
-13.443,-12.299,-0.57205,2.4038,-1.1215,0.93218,-32.22,-3.12,-11.4
-10.964,-12.122,-0.54481,1.5611,-0.13531,1.8671,-31.68,-6.0,-10.44
-8.6353,-12.245,-0.54481,1.2312,0.18204,2.3424,-31.32,-7.2,-9.48
-6.2654,-12.326,-0.43585,0.069639,0.44899,3.6429,-31.02,-8.4,-8.28
-4.5764,-12.299,-0.47671,-0.69333,0.43524,4.3698,-30.66,-9.54,-7.02
-0.095342,-11.85,-0.92618,-1.2089,0.32315,4.8112,-29.94,-10.98,-4.98
1.5663,-12.177,-1.3484,-1.6377,0.51618,5.0564,-29.58,-11.16,-4.44
12.531,-18.837,-0.70826,-2.6771,1.5375,5.6071,-28.74,-10.08,-4.02
18.66,-19.45,2.152,-3.5601,4.0849,5.8744,-28.44,-8.88,-4.38
19.423,-19.518,5.0668,-4.2312,6.4568,4.7312,-28.14,-7.8,-4.98
19.518,-19.532,8.1177,-4.0852,6.3573,2.7825,-28.02,-6.54,-5.94
19.532,-7.464,3.732,-2.8191,4.0061,1.6878,-27.72,-4.38,-8.34
19.532,-0.98067,0.96704,-1.7602,1.799,1.2828,-27.78,-3.54,-9.42
14.547,2.8739,-0.62654,-1.4786,0.31429,1.1982,-27.6,-1.5,-10.32
10.624,4.6445,-1.4165,-1.6912,-0.050091,1.2333,-27.24,-0.36,-10.5
7.6955,6.96,-1.58,-1.9044,0.18021,1.3583,-26.58,0.9,-10.74
4.3177,11.891,-1.9886,-1.9621,0.34575,1.3357,-25.26,3.48,-11.22
3.1872,14.438,-1.9341,-1.7926,0.36224,1.142,-24.6,4.8,-11.46
3.5413,13.852,-2.2201,-1.2141,0.3488,0.29871,-23.4,6.72,-11.64
5.9249,13.266,-1.8115,-0.78099,0.54734,-0.55283,-22.98,7.44,-11.34
8.1041,12.64,-1.6208,-0.18509,0.18173,-1.3683,-22.38,7.98,-10.92
9.1256,11.577,-1.4165,0.44899,-0.71624,-2.135,-21.96,8.52,-10.32
10.706,6.7421,0.14982,0.92088,-1.4319,-2.9166,-20.94,9.42,-8.4
11.918,4.8352,1.3757,1.1802,-1.5834,-3.6481,-20.46,9.84,-7.5
17.243,2.7922,3.6366,1.3708,-0.71654,-4.4428,-19.56,10.44,-7.56
19.246,3.3642,4.9578,1.4322,0.40073,-4.2904,-19.32,10.44,-8.34
19.504,0.7355,8.2539,1.7144,0.68539,-4.189,-19.32,10.26,-9.24
19.532,-6.3879,11.427,2.4432,-0.65882,-4.6582,-19.38,9.78,-10.08
19.532,-15.677,11.155,3.1792,-1.7104,-4.6728,-19.92,8.16,-11.7
19.532,-15.786,9.793,3.4795,-1.6154,-4.5204,-20.34,6.84,-12.12
13.539,-15.609,5.6252,3.8368,-1.3696,-4.5357,-20.88,3.96,-13.08
9.0439,-15.159,3.9227,4.1362,-1.0568,-3.5253,-21.12,2.4,-13.5
3.3778,-13.879,1.8251,4.1148,-1.2083,-3.0305,-21.54,0.84,-13.74
-6.2245,-13.416,0.44947,3.7156,-1.9535,-1.3497,-21.96,-2.46,-14.22
-10.052,-13.893,-0.28603,3.3329,-1.74,-0.24068,-22.14,-3.9,-14.04
-12.122,-13.838,-0.96704,2.9474,-1.0467,0.69883,-22.14,-5.34,-13.86
-10.529,-13.593,-0.98067,2.5146,-0.28375,1.5925,-22.26,-7.56,-12.78
-9.4389,-13.661,-0.96704,1.5409,0.39706,2.9734,-22.26,-8.58,-12.12
-7.75,-14.097,-1.0215,0.64385,0.69058,3.8124,-22.26,-9.48,-11.4
-2.3155,-14.587,-1.7434,-0.26756,0.9951,4.496,-22.44,-10.74,-9.9
1.1986,-14.71,-1.9068,-1.0403,1.2773,4.8536,-22.5,-11.04,-9.36
4.8216,-15.5,-2.0567,-1.7388,1.5754,4.872,-22.5,-10.86,-9.18
15.105,-19.327,0.16344,-2.5858,2.2,4.8662,-22.38,-9.54,-9.48
18.428,-19.477,2.2337,-4.3882,5.1331,5.4159,-22.26,-8.76,-10.14
19.395,-19.532,5.1621,-4.8087,5.747,5.0598,-22.32,-7.92,-11.1
19.532,-13.539,7.7091,-4.9636,6.0757,3.2098,-22.44,-5.94,-12.9
19.532,-7.7091,5.9249,-4.4413,5.3377,2.8955,-22.56,-4.86,-13.92
19.532,-7.7091,5.9249,-4.4413,5.3377,2.8955,-22.56,-4.86,-13.92
19.532,-0.54481,2.7786,-2.3784,1.7104,1.9273,-21.78,-2.1,-14.82
13.144,3.2825,0.47671,-2.1408,1.2651,1.6869,-20.46,1.56,-15.36
11.169,5.1485,-0.38137,-2.0632,1.2517,1.5449,-19.56,3.48,-15.6
10.134,7.2733,-0.89894,-2.051,1.1301,1.3909,-18.72,5.28,-15.96
9.0031,10.787,-1.4165,-1.8164,0.78466,1.0742,-16.98,8.88,-16.44
9.2346,12.449,-1.6889,-1.5174,0.93157,0.54825,-16.14,10.32,-16.44
9.8884,14.029,-1.1577,-1.0403,0.93676,-0.37996,-15.3,11.52,-16.14
9.4389,15.2,-0.43585,-0.24557,0.44043,-1.4676,-13.92,14.1,-14.88
8.3765,14.424,-0.70826,0.64996,-0.13256,-2.5644,-13.32,15.36,-13.68
8.0224,10.311,-0.6674,1.3647,-0.69394,-3.5036,-12.66,16.62,-12.54
8.1586,4.808,1.1169,2.0156,-1.4105,-4.5931,-11.88,18.48,-10.56
8.3493,3.5958,2.4244,2.2434,-1.3894,-4.9746,-11.88,19.02,-10.08
9.9973,3.9499,2.7922,2.295,-0.45693,-4.9706,-12.42,19.02,-9.96
19.327,3.3097,9.3299,2.3973,1.0183,-4.638,-13.92,18.06,-10.74
19.477,-1.2803,11.673,2.9844,0.90042,-4.6188,-15.0,17.22,-11.28
19.532,-11.577,14.764,3.0733,-0.32284,-4.383,-16.02,16.44,-12.06
19.532,-15.827,11.605,3.3989,-0.9615,-5.1206,-18.18,14.1,-12.84
16.699,-13.484,6.9736,3.8582,-0.58093,-5.156,-19.38,12.72,-13.26
9.6023,-12.994,3.7456,4.1685,-0.60903,-4.4379,-20.7,10.98,-13.68
-1.6617,-12.967,0.054481,4.0992,-1.0873,-2.7767,-23.28,6.78,-14.22
-6.1836,-12.994,-0.91256,3.7232,-1.978,-1.5104,-24.3,4.44,-14.46
-8.4174,-13.062,-1.3484,3.4111,-2.0433,-0.2865,-25.44,2.04,-14.52
-10.637,-12.449,-1.4029,3.0998,-1.715,0.74403,-27.48,-2.16,-14.58
-9.6704,-12.149,-1.1713,2.7489,-1.1631,1.6399,-28.26,-3.96,-14.58
-8.5808,-12.013,-1.0079,2.2736,-0.62369,2.4163,-28.92,-5.7,-14.34
-5.9657,-12.912,-0.72188,1.6283,-0.25534,3.0485,-30.18,-7.98,-12.84
-4.3994,-13.021,-0.99429,0.3094,0.22235,3.9752,-30.84,-8.94,-11.82
-2.4244,-12.612,-1.3212,-0.43127,0.66187,4.5451,-31.5,-9.66,-10.68
-0.054481,-12.83,-1.7025,-0.70463,0.88117,4.718,-31.98,-10.02,-9.9
2.5061,-14.982,0.10896,-1.4053,1.3784,4.9895,-32.76,-9.84,-8.58
5.5707,-18.333,2.3427,-2.0934,1.9013,5.5745,-32.88,-8.82,-8.28
18.224,-19.504,2.7649,-3.197,3.6695,6.2873,-32.94,-5.82,-8.76
19.368,-19.532,3.228,-3.4114,5.6792,5.3222,-33.0,-3.9,-9.54
19.504,-19.532,5.8023,-3.2959,5.4217,4.6627,-33.18,-1.92,-10.32
19.532,-13.634,2.8467,-2.4144,2.5024,2.9654,-33.06,2.1,-11.82
19.532,-6.9872,0.61292,-1.8796,2.0296,2.3677,-32.94,4.14,-12.18
19.532,-3.9635,0.12258,-1.7572,1.9859,2.0269,-32.4,6.48,-12.42
14.288,2.7649,-1.2531,-1.8146,2.0085,1.9511,-30.42,10.86,-12.78
12.64,5.7478,-1.3484,-1.7966,1.6893,1.7446,-29.16,13.14,-13.08
10.624,9.9156,-1.6072,-1.4273,1.3158,1.4102,-26.76,17.1,-13.32
9.8203,11.25,-2.3018,-1.0748,0.91813,0.88148,-25.62,19.08,-13.5
9.0575,12.286,-2.5879,-0.77549,0.46395,0.11148,-24.36,20.7,-13.44
7.4912,14.206,-2.0431,-0.3711,-0.028711,-0.74373,-22.38,23.16,-12.54
6.5378,13.539,-2.2474,0.11973,-0.41325,-1.5913,-21.42,24.3,-11.64
7.0145,9.5751,-1.8932,0.51557,-0.63835,-2.3146,-19.86,26.1,-9.36
7.8317,7.0009,-0.96704,0.92485,-1.0467,-3.196,-19.26,26.64,-8.28
9.0575,4.5356,-0.21793,1.1371,-1.2419,-3.7871,-19.02,27.12,-7.2
13.225,1.5391,1.185,1.3384,-0.978,-4.2889,-19.56,27.06,-5.94
18.483,1.2939,2.9556,1.5207,-0.11851,-4.2611,-20.64,26.52,-6.0
19.409,-1.1577,6.1564,1.8851,0.15363,-3.8674,-21.96,25.92,-6.3
19.532,-14.833,9.4253,2.2284,-0.58613,-3.7868,-25.02,23.94,-7.26
19.532,-18.905,8.7987,2.8967,-1.7666,-4.105,-26.46,22.8,-7.74
19.532,-16.181,7.355,2.9743,-1.7678,-4.3429,-28.08,21.42,-8.1
16.903,-13.661,3.8001,3.2128,-1.6396,-4.4783,-31.5,18.12,-8.4
9.8066,-12.612,2.3018,3.0384,-1.5311,-3.8188,-33.0,16.2,-8.4
1.975,-11.645,1.1577,2.8491,-1.7119,-3.0992,-36.0,11.7,-8.4
-0.92618,-11.536,0.64016,2.6557,-1.7785,-2.3411,-37.14,9.42,-8.16
-7.1507,-11.645,0.39499,2.449,-1.6252,-1.4655,-38.28,7.32,-7.98
-8.7306,-11.768,0.31327,2.2871,-1.4719,-0.60781,-39.9,3.36,-7.68
-9.8611,-11.795,0.57205,2.1515,-1.2877,0.17501,-40.38,1.68,-7.32
-10.161,-11.891,0.57205,1.6451,-0.72357,1.2339,-40.56,0.24,-6.54
-9.112,-11.673,0.19068,1.0788,-0.17379,2.0308,-40.56,-2.4,-4.32
-6.4152,-11.673,-0.01362,0.38271,0.36285,3.3246,-40.38,-3.36,-3.3
-1.4846,-12.177,-0.39499,-0.54703,0.83994,3.77,-39.96,-4.68,-1.2
2.1793,-12.79,-0.84446,-0.90133,0.90958,3.7947,-39.72,-4.92,-0.54
6.2517,-14.833,-0.69464,-1.7336,1.2633,3.8726,-39.42,-4.86,-0.06
18.224,-19.259,0.28603,-3.5568,4.1328,4.3017,-38.7,-3.9,-0.18
19.45,-19.518,3.4187,-4.3035,5.988,3.8378,-38.46,-3.0,-0.78
19.532,-12.163,4.2087,-4.2721,6.0912,2.7761,-37.62,-0.84,-3.42
19.532,-6.2654,2.1112,-2.8237,2.832,1.6719,-37.5,0.12,-5.22
19.532,-2.8058,0.54481,-2.1142,1.1164,1.1576,-37.38,0.9,-6.78
18.687,-0.39499,-0.54481,-2.0113,0.75381,0.99113,-37.32,1.62,-8.16
10.842,2.1248,-1.0624,-2.1551,0.73854,0.99571,-37.14,3.24,-9.24
8.1722,3.7728,-0.53119,-2.4499,1.0534,1.1328,-36.96,4.5,-9.54
6.6331,5.6252,-0.44947,-2.5714,1.0736,1.2452,-36.42,5.58,-9.72
3.8001,9.902,-1.4846,-2.3854,0.80207,1.241,-35.34,8.28,-10.2
2.942,11.182,-1.3893,-1.7764,0.60384,0.99266,-34.8,9.36,-10.56
1.5119,13.416,-0.91256,-1.4893,0.56688,0.77824,-34.2,10.5,-10.5
1.1577,14.669,-0.85808,-0.39554,0.63377,-0.18631,-33.6,11.52,-10.32
4.6854,13.225,-1.4165,0.32895,0.35461,-0.92118,-32.52,13.44,-9.3
6.7693,11.278,-1.1441,0.99266,-0.63835,-1.4649,-32.1,14.04,-8.22
9.2482,6.96,0.47671,1.5033,-1.5275,-2.3469,-30.96,15.36,-5.28
11.931,4.9306,1.4846,1.8302,-1.3763,-3.1255,-30.3,15.96,-4.08
16.018,3.7456,2.6968,1.8485,-0.85338,-3.4722,-29.7,16.32,-3.3
19.477,2.9829,6.1019,1.8986,1.2129,-3.4621,-28.98,16.44,-4.44
19.532,-4.4811,10.12,2.1319,0.91019,-3.6673,-28.92,16.08,-5.7
19.532,-13.77,12.231,2.7523,-1.3124,-4.1462,-28.92,15.72,-6.96
19.532,-15.432,7.6002,3.0647,-1.9609,-4.7421,-29.28,14.04,-9.0
18.687,-14.083,4.9714,3.3194,-1.4474,-4.9477,-29.46,12.9,-9.6
12.653,-13.866,2.6423,3.3274,-1.0779,-4.4642,-29.82,11.4,-10.38
3.8409,-12.708,0.21793,3.1038,-1.3512,-3.5103,-30.66,7.86,-11.1
-2.6968,-11.673,-0.50395,2.7651,-1.9584,-2.4218,-31.26,6.0,-11.58
-6.3879,-11.85,-0.65378,2.3433,-2.011,-1.2617,-31.68,4.14,-11.7
-9.6023,-11.346,-0.54481,2.0562,-1.4939,-0.13378,-32.22,0.84,-11.88
-9.7658,-11.509,-0.23155,1.8992,-0.96975,1.2098,-32.52,-0.54,-11.76
-9.5206,-11.891,0.21793,1.7013,-0.76908,1.9914,-32.7,-1.62,-11.64
-8.6762,-12.612,0.74912,1.2562,-0.5284,2.8778,-32.82,-3.06,-10.26
-7.2869,-13.212,0.85808,0.50427,-0.1518,3.7529,-32.76,-3.78,-9.18
-4.9714,-13.484,0.38137,-0.31276,0.43463,4.3927,-33.0,-4.44,-7.92
2.152,-14.083,-1.0215,-0.92974,0.92424,4.7015,-32.94,-4.74,-6.36
4.6037,-14.22,-1.4301,-1.7801,1.2248,4.5699,-32.7,-4.44,-6.0
9.6432,-16.358,-1.076,-2.6249,1.6713,4.9947,-32.4,-3.66,-5.82
19.014,-19.382,-0.01362,-3.5348,3.6854,5.4199,-31.44,-1.44,-6.36
19.504,-19.286,1.7706,-3.9554,5.2938,4.4886,-30.72,-0.06,-7.02
19.532,-14.07,3.4051,-3.8885,5.631,3.0528,-30.24,1.32,-7.98
19.532,-2.6832,1.9068,-2.9896,3.7923,1.4933,-29.52,3.9,-9.66
19.532,0.27241,1.3212,-1.8082,1.2727,1.0327,-28.98,5.1,-10.32
18.701,1.9068,1.0624,-1.4707,0.90805,0.78221,-28.38,6.48,-10.56
14.506,4.7535,0.40861,-1.3693,0.99113,0.68111,-27.6,7.92,-10.86
11.836,7.3686,-0.61292,-1.1738,1.2043,0.38179,-25.92,10.86,-11.04
10.787,8.1722,-0.81722,-1.0476,0.79077,0.16402,-24.78,12.24,-10.98
7.1915,8.8532,-1.0624,-0.82497,0.15913,-0.055589,-22.98,14.52,-10.68
5.7614,8.8941,-1.471,-0.35125,-0.19914,-0.63163,-22.38,15.48,-10.2
2.6968,8.54,-2.0022,-0.21625,-0.14875,-0.95417,-21.72,16.32,-9.54
2.2201,7.927,-2.9284,0.025045,0.13989,-1.8586,-20.94,17.4,-7.8
2.0839,7.4367,-3.4459,0.21441,0.39767,-2.2269,-20.82,17.82,-6.6
2.8467,6.5378,-3.1735,0.46487,0.59498,-2.4752,-20.64,18.06,-5.28
5.5162,3.623,-1.7162,0.71868,0.56047,-2.6964,-20.52,18.0,-3.96
7.3822,2.5198,-0.42223,1.2346,0.036346,-3.1695,-20.52,17.7,-4.26
13.961,4.3585,1.0215,1.3604,0.12584,-3.2467,-20.58,17.52,-5.28
18.742,3.2825,2.6151,1.6493,0.8323,-2.6457,-21.24,17.22,-8.28
19.477,-0.61292,6.279,1.8485,0.51588,-2.7956,-21.9,17.04,-9.9
19.518,-3.3234,8.2948,2.1725,-0.06689,-3.1854,-22.8,16.44,-11.4
19.532,-8.3357,9.6841,2.6246,-0.23976,-3.2089,-24.42,14.52,-13.86
19.532,-8.1995,8.6353,3.5174,-0.95326,-3.368,-25.2,13.32,-15.06
15.132,-7.4095,5.6252,3.7678,-1.1625,-3.3201,-26.82,10.2,-16.8
7.9134,-7.7091,4.0316,4.1007,-1.3693,-2.9389,-27.42,8.58,-17.46
2.9284,-8.0905,2.6151,4.1667,-1.73,-2.0033,-27.9,6.72,-18.18
-1.7706,-9.0031,1.3076,3.8799,-2.1958,-1.2407,-28.62,5.16,-18.78
-10.215,-10.42,-0.040861,3.4086,-2.5922,-0.18876,-29.46,2.52,-18.78
-14.342,-10.678,-0.85808,2.8619,-2.3668,1.4591,-29.82,1.5,-17.94
-15.023,-11.863,-1.8524,2.0748,-1.2581,2.4682,-30.18,0.48,-16.38
-11.659,-13.579,-1.757,1.3479,-0.29596,3.4346,-30.66,-0.9,-14.64
-3.8818,-15.623,-1.8115,0.43158,0.26786,4.149,-30.9,-3.36,-10.8
0.40861,-16.058,-1.8115,-0.54947,0.67104,4.4199,-31.02,-4.08,-9.12
4.7399,-15.677,-1.7434,-1.419,1.0345,4.3045,-31.2,-4.5,-7.74
10.474,-14.901,-1.6753,-2.4987,2.1148,3.6854,-31.26,-3.96,-5.88
13.934,-16.426,-0.10896,-3.2406,3.1081,3.9755,-31.14,-3.3,-5.28
17.72,-16.876,1.3893,-3.8872,4.1954,4.5106,-31.08,-2.34,-5.04
19.504,-17.066,3.4732,-4.1401,4.4434,4.0479,-30.9,0.24,-5.46
19.532,-12.572,3.8546,-3.7672,4.1013,2.8998,-30.6,1.62,-5.76
19.532,-8.2539,3.337,-2.9584,3.069,2.0702,-30.36,3.0,-6.36
19.532,-3.8137,1.6344,-2.2773,1.89,1.5357,-29.88,5.82,-7.2
19.286,-2.547,1.1032,-1.8888,1.2242,0.9951,-29.76,7.2,-7.8
15.091,-0.28603,0.46309,-1.9239,1.4108,0.8885,-29.52,8.34,-7.98
10.896,3.0918,-0.14982,-1.9948,1.4142,0.89706,-28.5,10.8,-8.28
8.9349,6.9055,-0.32689,-1.9908,1.186,0.96456,-27.78,11.88,-8.22
7.8453,10.079,-0.39499,-1.8121,0.87293,0.95387,-27.06,12.84,-8.22
5.5707,13.729,-1.362,-1.4016,0.67592,0.72968,-25.68,14.46,-7.74
4.4266,14.778,-1.2395,-0.50977,0.45021,-0.13073,-25.02,15.18,-7.32
3.9363,14.942,-1.0488,-0.1347,0.34636,-0.52198,-24.36,15.66,-6.66
5.7614,11.741,-1.3893,0.98166,-0.46273,-1.7028,-23.16,16.5,-4.92
7.0281,8.9622,-1.5255,1.4783,-1.2126,-2.2975,-22.8,16.68,-4.02
8.431,6.3062,-1.2122,1.7315,-1.8152,-2.8906,-22.5,16.86,-3.12
13.525,2.9692,-0.6674,1.7636,-1.8079,-3.5091,-22.14,16.74,-2.4
17.039,2.6423,-0.76274,1.4313,-0.1799,-3.8457,-22.02,16.56,-2.52
19.491,-1.9886,2.7377,1.0974,0.8769,-3.6643,-22.26,16.38,-3.66
19.532,-9.507,6.9872,1.0641,0.7532,-3.9343,-22.8,15.96,-4.38
19.532,-14.819,9.1256,1.4707,0.12767,-4.3845,-23.34,15.54,-5.1
19.532,-12.871,8.4991,2.117,0.03879,-4.6417,-23.82,14.76,-5.82
18.101,-10.174,6.2245,2.9603,-0.30879,-4.4263,-25.14,12.72,-6.84
10.229,-10.27,4.2632,3.5675,-1.5815,-3.3619,-25.92,11.4,-7.44
4.0997,-10.733,2.1112,3.5555,-1.9936,-2.8653,-26.64,10.02,-8.1
-7.2188,-10.774,0.92618,3.1234,-2.6527,-1.1698,-28.2,6.78,-9.06
-10.924,-10.828,0.28603,2.708,-2.277,-0.10232,-28.74,5.34,-9.36
-12.313,-10.637,0.054481,2.4355,-1.4025,0.97861,-29.22,3.96,-9.54
-10.188,-10.924,-0.24517,2.2455,-0.60506,1.9933,-30.06,1.86,-9.18
-8.4991,-11.06,-0.29965,2.0265,-0.22174,3.2477,-30.42,0.84,-8.76
-5.6524,-11.836,-0.21793,1.3219,-0.10721,3.7864,-31.02,-0.48,-7.62
-3.1735,-12.395,-0.61292,0.9893,-0.062614,3.9944,-31.14,-1.02,-7.08
-1.6617,-12.544,-1.0624,-0.010385,0.50641,4.3338,-31.38,-1.5,-6.66
4.522,-13.974,-2.3972,-0.64874,1.003,4.2275,-31.5,-1.08,-6.18
7.8181,-16.276,-1.4165,-1.4197,1.6365,4.2797,-31.44,-0.54,-6.12
18.415,-19.409,-0.62654,-2.4209,2.8616,4.7519,-31.2,1.5,-6.18
19.246,-19.504,-0.21793,-3.5836,4.6835,4.0253,-30.9,3.0,-6.48
19.532,-17.87,1.9341,-3.7635,4.7082,2.9905,-30.42,6.24,-7.68
19.532,-12.667,1.076,-3.1884,3.9685,2.4038,-30.06,7.92,-8.34
19.532,-7.3958,0.24517,-2.2394,3.3347,2.277,-29.58,9.36,-9.06
17.734,0.31327,-0.27241,-1.6448,2.4053,2.0803,-28.68,12.18,-9.78
16.058,2.1929,-0.31327,-1.3412,0.97219,1.8179,-28.02,13.44,-10.02
13.784,4.8488,-1.2258,-1.1713,0.55467,1.8036,-26.16,16.2,-10.08
10.46,8.4582,-1.3212,-1.1393,-0.062919,1.7333,-25.14,17.64,-10.02
8.5944,10.27,-1.58,-1.1518,-0.18448,1.5357,-24.12,18.78,-9.84
7.3141,11.673,-1.8387,-1.0434,0.46304,0.88148,-23.16,19.8,-9.42
7.5321,13.021,-1.362,-0.86407,0.89828,-0.12859,-21.0,21.72,-8.4
7.9543,14.751,-1.076,-0.18265,0.91813,-1.5314,-19.32,22.92,-7.14
8.6217,12.286,-0.95342,0.46701,0.27794,-2.3323,-18.6,23.4,-6.36
9.1937,9.1801,-0.27241,0.75869,-0.17959,-2.7037,-18.0,23.7,-5.52
9.7794,7.3141,0.81722,1.387,-1.3515,-3.7248,-17.58,23.94,-4.68
12.122,3.1735,2.547,1.6078,-1.241,-4.2284,-17.7,24.18,-3.9
16.549,2.3427,2.9011,1.7312,-0.19609,-4.2632,-18.0,24.0,-4.14
19.355,-0.095342,5.2575,1.9166,0.78985,-4.3026,-18.54,23.58,-4.68
19.532,-8.1177,10.065,2.6148,0.26084,-4.6517,-20.28,22.74,-6.42
19.532,-11.863,11.618,2.9441,-0.4047,-4.6826,-21.24,22.02,-7.32
19.532,-16.263,10.706,3.3283,-1.4954,-4.6777,-22.5,21.06,-8.34
18.742,-13.675,6.3471,3.722,-1.4957,-4.8206,-25.26,18.48,-9.84
13.457,-13.116,3.8682,3.9276,-1.2251,-4.4444,-26.82,16.86,-10.56
7.7091,-12.572,1.7025,3.9291,-1.591,-3.6863,-28.2,15.0,-11.16
-3.3097,-12.735,-0.054481,3.375,-2.5953,-2.0831,-30.96,10.62,-11.94
-8.2812,-13.048,-0.38137,3.0995,-2.6463,-1.4813,-32.1,8.46,-12.12
-10.787,-12.871,-0.31327,2.5763,-2.2074,-0.38576,-33.18,6.54,-12.42
-13.525,-12.381,-0.31327,2.0491,-0.97952,0.94501,-34.62,2.82,-11.94
-12.585,-12.599,0.027241,1.6084,-0.19761,1.9539,-35.22,1.38,-11.34
-8.2539,-13.157,0.095342,0.62889,0.46242,3.3824,-36.12,-1.26,-9.42
-4.4402,-13.634,-0.40861,0.29535,0.70341,4.1004,-36.48,-2.4,-8.46
-1.4301,-13.811,-0.38137,-0.57757,0.84269,4.5803,-37.02,-3.36,-7.56
3.8818,-13.675,-0.12258,-0.8262,0.85491,4.6621,-37.2,-3.78,-6.72
11.114,-14.764,0.35413,-1.6454,1.2153,4.3561,-37.32,-3.54,-5.94
17.475,-16.113,0.64016,-2.4676,2.6658,4.5873,-37.32,-2.88,-5.7
19.286,-16.086,1.9613,-2.9819,4.7727,4.2999,-36.96,-0.36,-6.06
19.532,-14.329,4.0589,-3.0284,4.3674,3.1282,-36.72,1.38,-6.96
19.532,-11.768,3.8546,-2.6432,2.7064,2.1557,-36.48,3.06,-7.98
19.532,-8.1586,2.261,-2.2694,1.7233,1.4441,-36.18,4.56,-9.06
18.837,-2.3018,-0.72188,-2.0742,1.7,1.0858,-36.0,7.32,-11.16
15.377,-0.24517,-1.2803,-2.1157,1.7843,0.9331,-35.82,8.58,-11.64
11.85,1.7298,-2.0294,-2.2477,1.6054,0.93523,-35.82,9.84,-11.94
8.3357,6.4697,-2.0158,-2.2049,0.97525,1.0635,-34.92,12.6,-11.58
7.0281,8.0224,-1.6889,-1.9545,0.63683,1.1121,-34.14,14.16,-11.28
4.6718,10.365,-1.9613,-1.5601,0.67928,0.98899,-33.42,15.42,-10.98
3.3778,12.381,-2.0839,-1.0825,0.80634,0.61606,-31.92,17.82,-9.96
3.5685,13.157,-1.9205,-0.4609,0.65118,0.011301,-31.2,18.66,-9.36
3.732,13.116,-1.7025,0.31032,0.27092,-0.67104,-30.66,19.32,-8.58
6.0202,9.2482,-1.8251,1.0021,-0.562,-1.6805,-29.82,20.4,-6.18
7.2733,7.4503,-1.6072,1.6521,-1.3534,-2.2804,-29.58,20.64,-4.74
8.9077,5.38,-0.96704,1.8793,-1.8775,-2.9193,-29.4,20.82,-3.36
12.313,3.5413,2.1929,1.9606,-1.3329,-3.3833,-29.22,20.94,-1.62
17.734,3.8137,2.833,1.912,0.28527,-3.3854,-29.16,20.76,-2.04
19.423,1.0488,6.9464,1.8436,1.9141,-3.1035,-29.1,20.46,-2.94
19.532,-10.706,11.85,2.1484,0.97005,-3.2608,-29.4,19.74,-5.82
19.532,-12.994,12.122,3.058,-1.9245,-4.2541,-29.88,19.02,-7.2
19.532,-12.217,8.1858,3.215,-2.1796,-4.4853,-30.48,18.0,-8.4
15.445,-12.04,5.5026,3.5122,-1.605,-4.6297,-31.74,15.12,-10.5
9.793,-11.959,2.9692,3.4212,-1.317,-4.0366,-32.4,13.5,-11.22
-0.01362,-12.027,0.095342,3.0919,-1.631,-3.1835,-33.9,9.6,-12.6
-3.0373,-12.231,-0.35413,2.6313,-2.1438,-1.5904,-34.44,7.44,-13.38
-7.0417,-12.449,-0.8036,2.1692,-2.0892,-1.0608,-34.98,5.52,-13.92
-11.632,-11.223,-1.0624,1.8894,-1.4325,-0.062614,-35.64,2.16,-14.58
-11.891,-10.964,-0.95342,1.7046,-0.64507,0.88087,-35.64,2.16,-14.58
-10.542,-10.978,-1.0896,1.2923,0.19792,2.2797,-35.94,-0.18,-13.56
-8.4174,-10.842,-1.3484,0.93554,0.49205,3.2348,-36.06,-1.14,-12.48
-5.38,-11.959,-0.72188,0.41936,0.44593,4.1658,-36.66,-2.94,-10.44
-4.1133,-12.64,-0.095342,-0.53878,-0.019242,5.1835,-36.72,-3.6,-9.54
-0.81722,-14.124,0.39499,-1.1222,-0.080023,5.174,-36.78,-3.78,-8.7
4.808,-16.358,1.1032,-1.7862,0.36744,4.9388,-36.72,-2.82,-8.1
14.833,-19.273,0.9398,-2.8036,1.8045,5.368,-36.48,-1.92,-8.1
18.946,-19.504,2.8194,-3.7684,4.2843,5.6667,-36.3,-0.36,-8.28
19.532,-19.423,6.1836,-4.0607,5.853,4.55,-35.76,3.0,-9.12
19.532,-16.344,5.9385,-3.8564,4.6346,2.2602,-35.28,4.86,-9.54
19.532,-10.515,3.3506,-2.8509,3.8714,1.8057,-34.86,6.9,-10.02
19.109,-2.0703,0.1362,-1.6377,1.7724,1.0577,-33.78,10.86,-10.38
15.514,0.095342,-0.62654,-1.5067,0.8152,0.91049,-32.94,12.84,-10.44
12.953,1.2803,-1.2531,-1.5595,0.35644,0.99327,-32.1,14.82,-10.5
7.7636,5.7342,-1.4438,-1.7373,0.078496,1.1008,-30.24,18.54,-10.02
5.993,8.6081,-1.6344,-1.7352,0.15119,1.1518,-29.34,20.16,-9.84
4.4811,13.348,-2.6423,-1.5241,0.93157,0.78893,-27.36,22.92,-9.18
5.1757,13.471,-2.4108,-1.1295,1.2813,-0.014355,-26.52,24.0,-8.4
6.1292,13.43,-1.975,-0.61575,0.91447,-0.83139,-25.86,25.02,-7.62
7.8589,13.457,-1.2531,0.10385,-0.15882,-1.5262,-24.24,26.4,-5.76
8.0632,10.556,-1.0896,0.74892,-1.171,-2.1863,-23.64,26.88,-5.04
9.3572,5.3528,-0.24517,1.0705,-1.4804,-2.9068,-23.22,27.42,-3.18
11.482,2.6151,0.68102,1.3622,-1.1472,-3.9474,-23.22,27.36,-2.7
13.266,1.6344,1.5663,1.4878,-0.62766,-4.3604,-23.52,27.18,-2.4
19.314,0.96704,3.228,1.5519,0.028405,-4.2675,-24.96,26.04,-2.82
19.504,-2.2201,6.2654,1.7495,0.28863,-4.368,-25.92,25.26,-3.36
19.532,-8.2676,7.355,2.1478,-0.35827,-4.6065,-26.94,24.24,-4.02
19.532,-14.41,6.9055,2.4627,-0.95203,-4.529,-29.28,21.9,-5.04
19.532,-14.043,6.3198,2.8482,-1.2312,-4.6685,-30.6,20.1,-5.46
19.532,-13.688,4.7263,3.065,-1.2523,-4.554,-31.92,18.12,-5.94
8.1177,-13.484,0.98067,3.0873,-1.2999,-3.81,-34.32,13.74,-6.54
2.3972,-12.681,0.17706,2.9505,-1.6368,-2.7877,-35.52,11.4,-6.9
-4.1814,-12.667,-0.32689,2.6625,-1.8827,-1.6591,-36.54,9.0,-6.66
-9.902,-12.476,-0.9398,2.4358,-1.7407,-0.51557,-38.28,4.14,-6.6
-11.155,-11.959,-1.1986,2.3427,-1.1234,0.86071,-38.82,2.04,-6.36
-11.536,-11.577,-1.1169,2.2956,-0.91905,1.3344,-39.3,0.3,-6.0
-10.365,-12.476,-0.83084,1.7587,-0.49663,2.7174,-39.84,-2.76,-4.44
-8.4446,-13.225,-0.9398,1.0556,-0.10599,3.6221,-39.84,-4.08,-3.48
-4.9578,-13.184,-0.98067,0.27153,0.48289,4.4028,-39.84,-5.88,-1.56
-3.0646,-13.184,-0.85808,-0.35308,1.0702,4.8872,-39.72,-6.24,-0.66
2.942,-14.669,-0.54481,-0.85521,1.4991,5.0369,-39.6,-5.94,-0.66
7.0553,-17.611,0.95342,-1.5067,2.0473,5.1157,-39.42,-4.38,0.36
16.276,-19.286,1.2122,-2.3851,2.8387,5.5659,-39.36,-3.0,0.6
19.123,-19.504,2.656,-3.5122,5.003,5.299,-39.12,-1.5,0.36
19.518,-19.477,4.8625,-3.5143,5.3304,4.0684,-38.76,2.28,-0.66
19.532,-12.926,3.514,-2.8924,4.2437,2.7355,-38.58,4.14,-1.32
19.532,-5.3392,0.99429,-1.8891,2.9899,1.9016,-37.98,7.86,-2.4
18.088,-2.0703,0.40861,-1.299,2.0186,1.5275,-37.62,9.96,-2.82
14.383,0.19068,-0.50395,-1.1481,1.492,1.4478,-37.02,11.88,-3.42
10.801,3.4459,-1.5527,-1.1594,1.3076,1.5385,-35.4,15.6,-4.32
10.106,6.3198,-1.6889,-1.1933,1.0669,1.5314,-34.5,17.34,-4.62
9.4525,8.7715,-1.9613,-1.0901,0.72113,1.3583,-33.48,19.08,-5.04
7.5729,10.951,-3.051,-0.81398,0.59193,0.91294,-31.44,21.72,-5.34
7.0145,11.414,-2.8875,-0.38332,0.75533,-0.42455,-30.42,22.56,-5.22
6.9328,12.34,-2.6423,-0.21044,0.69364,-0.87048,-29.52,23.28,-5.28
7.1507,12.381,-2.4653,0.36957,-0.14355,-1.9383,-28.74,24.0,-5.04
7.8589,8.5127,-2.152,0.68631,-0.72907,-2.5223,-27.42,24.78,-4.2
9.0848,6.17,-1.1169,0.9053,-0.94287,-3.1823,-26.82,25.14,-3.66
14.288,2.833,1.2803,1.1365,-0.86621,-4.1918,-26.58,25.14,-3.18
17.706,2.7649,1.362,1.3772,0.1686,-4.4385,-26.7,24.42,-3.18
19.423,1.362,3.7592,1.624,1.1481,-4.5381,-27.3,23.52,-3.6
19.532,-7.6002,9.6432,2.1035,0.72998,-5.1749,-29.04,21.42,-5.34
19.532,-15.445,11.659,2.817,-0.70341,-5.5686,-29.88,20.16,-6.18
19.532,-16.167,10.365,3.3824,-1.9303,-5.8154,-30.78,18.54,-6.9
18.238,-14.846,7.5048,3.8582,-1.8821,-5.7916,-32.7,14.58,-7.92
11.659,-14.369,5.1894,3.9627,-1.3583,-5.1163,-33.66,12.3,-8.28
5.3937,-13.389,3.0646,3.8536,-1.2868,-4.1328,-34.62,9.9,-8.52
-4.4266,-12.0,0.55843,3.5183,-1.7791,-3.0076,-35.94,4.62,-8.82
-7.7364,-12.408,-0.38137,3.1004,-2.0269,-1.6362,-36.48,1.92,-9.0
-9.3436,-12.367,-0.54481,2.6881,-1.7098,-0.35705,-37.14,-0.66,-8.94
-10.379,-11.441,-0.43585,2.3246,-1.062,1.1576,-37.38,-5.28,-8.52
-9.7522,-11.795,-0.27241,1.7016,-0.58979,2.011,-37.44,-7.08,-8.04
-8.7034,-12.313,-0.27241,1.1328,-0.23396,2.7361,-37.2,-8.64,-7.32
-5.8023,-12.476,0.081722,0.45571,0.059865,3.5085,-36.78,-11.16,-4.68
-3.1599,-12.83,-0.095342,-0.20831,0.39615,4.2461,-36.78,-12.18,-3.3
-0.53119,-13.797,-0.42223,-0.73915,0.8546,4.7202,-36.78,-12.9,-2.28
3.8001,-15.173,-0.42223,-1.2285,1.23,4.7461,-36.6,-12.78,-0.6
6.8919,-17.706,1.362,-2.4688,2.394,4.9929,-36.48,-12.0,-0.24
14.22,-19.314,1.9068,-3.5097,4.5421,5.324,-36.3,-10.92,0.06
19.45,-19.532,5.6388,-4.0277,5.9853,4.9559,-36.12,-7.62,-0.6
19.518,-17.284,6.96,-3.5513,5.2198,3.8863,-35.94,-5.7,-1.38
19.532,-10.12,4.8897,-2.3912,2.6395,2.4377,-35.82,-3.72,-2.46
19.45,-2.152,0.77636,-1.4685,1.3653,1.8506,-35.94,-0.12,-4.74
17.053,-0.42223,0.068102,-1.354,1.1625,1.7999,-36.06,1.68,-5.58
13.157,1.7298,-1.185,-1.5116,1.2996,1.8152,-35.94,3.36,-5.94
9.4798,5.8431,-2.1248,-1.9786,1.5058,1.7856,-35.1,6.9,-6.96
7.7091,8.2812,-2.2746,-2.1029,1.2028,1.7095,-34.44,8.82,-7.38
6.3335,11.986,-3.1191,-1.9914,0.74526,1.5919,-33.66,10.74,-7.62
4.7535,13.484,-3.337,-1.6487,0.43555,1.1683,-31.98,13.92,-8.28
4.8625,12.967,-2.6287,-0.95997,0.29016,0.071777,-31.32,15.12,-8.28
6.1155,12.967,-1.7979,-0.33323,-0.2981,-0.79321,-30.6,16.26,-8.1
8.9622,10.025,-1.5391,0.25534,-0.82711,-1.5207,-29.4,17.64,-6.84
11.182,6.9872,-1.076,0.63316,-1.1164,-2.2712,-28.98,18.3,-5.94
13.893,4.4402,-1.076,0.89797,-1.3912,-3.1566,-28.56,18.66,-4.92
19.191,1.8524,1.2939,1.1035,-1.3528,-3.9966,-28.08,18.9,-3.18
19.45,1.2258,1.6617,1.2052,0.088881,-4.5152,-27.9,19.02,-2.88
19.518,-1.7434,3.8001,1.2718,0.40959,-4.6933,-27.96,18.9,-3.24
19.532,-11.482,6.96,1.6072,0.079107,-5.5439,-28.74,17.94,-4.5
19.532,-13.443,6.9872,1.8564,-0.6857,-5.4132,-29.4,16.92,-5.1
19.532,-12.858,6.3198,1.9997,-0.74587,-5.2993,-30.12,15.72,-5.64
14.506,-10.637,4.3858,2.3283,-0.35491,-5.0332,-31.74,12.54,-6.36
8.9077,-10.025,2.8603,2.9273,-0.36927,-3.9355,-32.4,10.8,-6.72
0.40861,-9.8884,0.70826,3.0937,-0.68539,-3.4251,-33.9,6.72,-7.68
-2.7649,-10.787,0.12258,3.2364,-1.9682,-1.587,-34.62,4.62,-7.8
-6.2517,-11.223,-0.095342,3.2012,-2.5977,-0.35827,-35.16,2.52,-7.92
-7.7908,-11.06,-0.01362,3.1783,-2.7898,0.60415,-35.58,0.54,-7.8
-10.597,-11.782,0.21793,3.0446,-2.2141,1.2843,-36.18,-2.52,-7.26
-10.665,-13.253,0.44947,2.5745,-0.51252,2.277,-36.3,-3.84,-6.72
-7.3822,-14.574,0.31327,1.3158,0.39309,2.9981,-36.48,-5.76,-4.74
-5.1213,-14.247,-0.28603,0.52198,0.76694,3.7529,-36.42,-6.48,-3.66
-2.9011,-13.988,-0.5993,-0.067806,0.90622,4.2791,-36.3,-6.78,-2.82
1.58,-13.825,-1.3757,-0.5904,0.99846,4.5928,-36.24,-6.48,-1.56
4.9578,-16.263,-0.38137,-1.3702,1.3949,4.9834,-36.18,-5.7,-1.02
11.782,-18.891,-0.095342,-2.6008,3.4358,5.5986,-35.88,-3.24,-0.54
19.395,-19.518,0.34051,-2.8885,4.7495,5.0451,-35.7,-1.62,-0.48
19.518,-18.742,1.5936,-2.551,4.4144,4.1414,-35.52,0.24,-1.02
19.532,-15.377,1.1305,-1.7168,2.3628,2.7208,-35.46,2.1,-1.62
19.532,-5.6661,-2.1793,-0.81276,0.61942,1.701,-35.4,5.7,-2.82
19.532,-2.1248,-3.0373,-0.28924,-0.58277,1.1811,-35.04,7.32,-3.42
11.101,1.7025,-5.3119,-0.23457,-0.36805,1.0592,-34.32,10.38,-3.84
8.0224,3.4459,-5.5707,-0.78252,0.56933,1.0959,-33.6,12.0,-4.02
6.7693,5.0531,-5.4618,-1.1817,1.1799,1.1157,-32.94,13.68,-4.14
5.0804,10.106,-5.5707,-1.3271,1.3225,1.0214,-31.26,16.62,-4.14
4.5083,11.632,-5.7342,-1.2691,1.1047,0.72662,-30.54,17.88,-4.08
4.127,12.258,-5.3528,-1.0794,0.70066,0.22541,-29.7,18.96,-4.02
4.2223,12.149,-3.6775,-0.71838,0.24801,-0.47861,-28.26,20.58,-3.3
4.808,11.346,-3.1599,-0.050091,-0.42944,-1.6939,-27.78,21.18,-2.64
7.3958,7.3005,-2.4925,0.11881,-0.69791,-2.0372,-27.24,21.6,-1.86
9.2891,4.808,-2.1929,0.39828,-1.1212,-2.9963,-26.22,22.14,-0.24
12.19,2.6696,-1.757,0.35339,-0.9893,-3.686,-25.98,22.26,0.42
19.123,1.6208,-1.7298,0.24038,-0.42486,-4.2819,-26.04,22.02,0.72
19.436,1.1577,-1.1441,0.14203,0.37568,-4.3717,-26.4,21.72,0.42
19.518,-2.6151,0.95342,0.1686,0.14997,-5.0268,-27.0,21.18,-0.06
19.532,-13.021,3.5413,0.71899,-0.59895,-5.4941,-28.68,19.68,-0.78
19.532,-13.348,3.2144,0.89431,-0.7086,-5.4932,-29.76,18.36,-1.08
19.532,-12.585,2.9829,1.3644,-0.12217,-5.236,-30.72,16.98,-1.2
12.926,-10.283,2.0294,1.8885,0.27978,-4.82,-33.06,13.5,-1.62
7.8862,-8.826,1.0896,2.5354,0.035736,-4.1072,-34.08,11.52,-1.8
-0.44947,-8.4855,-0.14982,3.1389,-1.4151,-2.6179,-35.88,7.02,-1.8
-3.7456,-9.8203,-0.49033,3.1756,-2.1954,-1.4642,-36.6,4.8,-1.74
-5.6661,-10.665,-0.70826,3.0757,-2.204,-0.33567,-37.2,2.88,-1.5
-8.6489,-10.896,-0.027241,2.8888,-1.7883,0.49266,-37.86,-0.6,-0.78
-8.6489,-10.896,-0.027241,2.6035,-1.306,1.0724,-37.86,-0.6,-0.78
-5.993,-11.632,1.3484,2.222,-1.1649,1.5516,-38.1,-3.42,0.84
-5.3937,-11.319,0.98067,1.6328,-0.94837,2.456,-38.1,-4.68,1.98
-3.6911,-11.496,0.21793,1.438,-0.60995,2.8384,-38.16,-6.6,3.96
-1.4165,-11.373,-0.46309,1.0043,0.27,3.4731,-37.98,-7.02,4.8
2.2746,-11.536,-1.2531,0.48381,0.86987,3.7339,-37.62,-7.02,5.58
4.2223,-12.449,-1.58,-0.73304,1.2559,4.098,-37.26,-6.9,6.24
14.901,-16.821,-1.9613,-1.638,2.4328,4.8084,-36.72,-5.34,7.44
18.96,-18.319,-2.6015,-2.2257,4.0919,5.2599,-36.54,-4.2,7.62
19.518,-17.992,-1.975,-2.4013,4.8429,4.4138,-36.0,-1.14,7.32
19.532,-10.924,-2.5061,-1.9374,3.6038,3.0235,-35.94,0.6,6.72
19.532,-7.8589,-3.2553,-1.3189,2.9025,1.9471,-35.76,2.22,5.82
17.189,-1.0624,-4.0861,-0.93646,2.4798,1.6127,-35.94,5.1,4.08
13.634,0.89894,-4.7399,-0.99113,2.08,1.6554,-36.0,6.36,3.24
10.27,2.9011,-5.1894,-1.4148,1.4856,1.6701,-36.0,8.94,1.86
9.0031,4.5764,-4.9578,-1.6591,1.1759,1.6881,-35.52,10.2,1.44
8.1313,6.9055,-4.4811,-1.6817,0.63102,1.5675,-34.92,11.58,1.02
7.4912,11.645,-3.1735,-1.4322,-0.50763,1.0214,-34.08,14.1,0.48
6.0338,13.675,-3.228,-0.89125,-1.438,-0.059559,-33.48,15.18,0.36
3.5822,13.838,-3.2553,-0.25137,-0.87842,-1.0104,-33.0,16.26,0.36
4.2768,11.196,-2.6151,0.29108,-0.000916,-1.9774,-32.1,17.94,1.08
5.8295,8.1586,-2.547,0.78893,-0.35888,-2.47,-31.74,18.18,1.8
7.0553,6.2245,-2.7377,0.80848,-0.89583,-3.062,-31.56,18.18,2.52
12.572,3.0918,-2.9148,0.78649,-1.0577,-3.6188,-31.8,17.7,3.9
17.325,3.8001,-3.0646,0.73059,-0.37935,-3.6762,-32.1,17.4,4.08
19.259,2.6968,-2.9011,0.55375,0.58643,-3.5876,-32.46,16.98,3.72
19.532,-7.0553,1.2531,0.33842,0.74098,-4.1276,-33.0,16.08,2.1
19.532,-10.12,2.5061,0.67867,-0.1127,-5.2489,-33.54,15.54,1.14
19.532,-11.577,3.1872,1.1652,-0.21502,-5.6172,-34.32,14.58,0.12
18.483,-10.065,2.1929,1.7147,0.047647,-5.6927,-35.82,11.88,-1.38
12.544,-9.9292,1.1577,2.2568,0.25534,-5.2446,-36.66,9.9,-1.92
1.9613,-9.5751,-0.42223,2.5956,0.027794,-4.3433,-38.28,5.58,-3.6
-1.1169,-9.6704,-0.49033,2.6286,-0.51557,-3.207,-38.94,3.3,-4.38
-5.094,-10.12,-0.83084,2.4154,-1.0962,-1.2031,-39.48,1.14,-5.16
-8.2403,-10.61,-1.1441,2.3124,-1.1109,0.013439,-40.14,-2.76,-6.06
-8.1722,-10.46,-1.076,2.2,-1.2798,0.95387,-40.08,-4.44,-6.06
-8.2539,-10.569,-0.64016,1.9734,-1.3576,1.8149,-39.84,-5.76,-5.82
-8.1041,-11.087,-0.43585,1.6054,-1.0907,2.7431,-39.6,-8.04,-4.26
-7.1779,-11.577,-0.20431,1.0495,-0.64599,3.7089,-39.54,-9.18,-3.36
-4.6718,-12.313,-0.027241,0.40256,-0.050091,4.5375,-39.48,-10.86,-1.38
-3.4187,-12.367,0.36775,-0.53084,1.0934,5.3756,-39.6,-11.1,-0.66
-2.4789,-12.449,0.44947,-0.77855,1.4105,5.5329,-39.6,-10.92,-0.36
5.7069,-17.679,2.4653,-1.3329,2.2672,6.251,-39.42,-9.06,-0.18
15.8,-19.3,3.2825,-1.9254,2.8466,6.8017,-39.24,-7.5,-0.18
19.3,-19.504,1.7979,-2.6909,3.868,6.159,-39.18,-5.64,-0.48
19.532,-18.02,3.6366,-3.8176,5.7956,3.3375,-38.88,-1.26,-1.74
19.532,-14.192,3.732,-2.897,5.123,2.3476,-38.64,1.08,-2.58
19.532,-7.6819,1.6344,-1.9447,3.5934,2.0052,-38.46,3.48,-3.48
17.87,-0.38137,-0.10896,-1.4013,1.9847,1.7929,-37.8,7.92,-5.04
14.438,2.0975,-0.78998,-1.266,0.92027,1.6704,-37.14,10.14,-5.64
12.108,4.0997,-1.3893,-1.2706,0.44013,1.7831,-36.42,12.54,-6.12
10.188,7.8998,-1.362,-1.3473,0.19548,1.646,-34.68,16.92,-7.32
9.1937,10.025,-1.7298,-1.1701,-0.13439,1.3265,-33.66,18.9,-7.86
8.5127,10.964,-2.1929,-0.76664,-0.37813,0.79871,-32.58,20.82,-8.04
6.6467,11.863,-2.4517,-0.38576,-0.46029,0.030849,-30.42,23.76,-8.1
6.7966,11.877,-2.0839,-0.03543,-0.60353,-0.79107,-29.58,24.84,-7.98
6.8102,11.155,-2.1248,0.38668,-0.88331,-1.507,-28.56,25.74,-7.62
8.1313,6.674,-2.152,0.68631,-1.1368,-2.1857,-27.12,27.06,-6.42
8.9622,5.0804,-1.7979,0.87629,-1.2843,-3.1472,-26.58,27.54,-5.64
11.441,2.3427,-0.64016,0.90775,-1.2666,-3.4538,-26.28,27.9,-5.04
17.094,0.54481,0.12258,1.015,-0.68325,-3.9495,-26.34,27.9,-4.44
19.382,-1.9068,1.362,1.0159,0.27978,-3.9153,-26.82,27.48,-4.62
19.518,-6.9328,3.8682,1.5064,0.49022,-3.9404,-27.48,26.82,-5.22
19.532,-18.129,5.1621,2.1203,-0.20311,-4.4337,-29.52,25.14,-6.3
19.532,-18.51,5.1213,2.3387,-1.2129,-4.7593,-30.66,24.0,-7.14
19.532,-16.304,4.4675,2.5974,-0.88789,-4.8405,-31.98,22.5,-7.74
10.351,-14.111,2.261,2.8182,-0.23518,-4.5561,-34.5,19.26,-8.7
5.6388,-12.667,1.0215,2.9343,0.14386,-3.8827,-35.76,17.16,-9.24
2.0567,-11.605,0.35413,2.9315,-0.16524,-3.0106,-36.9,14.88,-9.66
-2.5879,-11.182,0.53119,2.5727,-1.4532,-1.4731,-38.88,10.02,-10.26
-7.7091,-10.964,-0.17706,2.3155,-2.0006,-0.61239,-39.66,7.8,-10.62
-10.215,-10.597,-0.38137,2.2333,-2.0375,-0.24526,-40.32,5.64,-10.8
-11.087,-10.433,-0.46309,1.7306,-1.2593,0.94776,-41.22,1.8,-10.56
-10.283,-10.651,-0.70826,1.1041,-0.29749,1.8567,-41.34,-1.32,-9.36
-7.6138,-11.101,-0.96704,0.41294,0.52809,2.7636,-41.22,-4.2,-8.16
-4.7399,-10.665,-1.2122,-0.22327,0.95417,3.4825,-40.86,-5.64,-6.96
-2.0294,-10.188,-1.4438,-0.69791,1.0302,4.0241,-40.5,-5.94,-6.36
0.99429,-11.536,-1.6753,-1.1643,0.85277,4.6392,-40.14,-4.92,-6.06
4.699,-14.928,-0.14982,-1.6466,1.0681,5.1163,-39.78,-3.84,-6.3
16.453,-19.109,-0.36775,-2.4932,2.1197,5.3426,-39.3,-1.14,-6.96
19.341,-19.504,0.57205,-3.2095,3.8213,4.642,-38.7,1.98,-8.46
19.532,-17.38,3.732,-3.3927,5.0607,3.4331,-38.1,5.28,-10.68
19.532,-11.087,2.5061,-3.2755,4.4318,2.2602,-37.8,8.52,-12.9
19.532,-8.0496,1.471,-2.7956,3.346,1.7312,-37.68,10.02,-13.92
17.216,-2.5061,0.35413,-2.2556,2.233,1.3961,-37.02,12.12,-15.3
12.858,0.081722,-0.01362,-2.226,1.8918,1.3164,-36.48,13.38,-15.54
10.774,2.0567,-0.54481,-2.2306,1.6194,1.4096,-36.0,14.58,-15.48
8.1041,6.3471,-0.16344,-2.2104,1.3134,1.514,-34.32,17.22,-15.36
6.8374,9.6568,-0.24517,-2.094,1.0883,1.5846,-33.54,18.54,-15.12
5.8159,13.157,-1.0215,-1.4844,1.1652,1.2526,-31.8,20.52,-14.34
5.5707,13.293,-1.0079,-1.2019,1.1961,0.90347,-30.84,21.36,-13.74
5.8023,13.484,-0.70826,-0.23976,0.95478,-0.29932,-29.94,22.2,-12.96
6.4969,13.334,-0.57205,0.50396,0.15547,-1.0751,-28.86,23.16,-12.06
9.0439,8.5672,-0.89894,1.0388,-0.94348,-1.8161,-27.12,24.24,-10.2
9.6704,5.8976,-0.76274,1.39,-2.1133,-2.7315,-26.34,24.78,-9.42
13.198,2.547,1.6344,1.4484,-1.9597,-3.3375,-25.26,25.5,-8.04
17.87,1.6072,2.4925,1.3311,-0.94531,-3.678,-24.96,25.5,-7.74
19.123,1.1441,3.6503,1.1875,0.50183,-3.7189,-24.96,25.2,-7.98
19.532,-7.8453,9.1529,1.3595,0.87873,-4.1053,-25.68,24.06,-9.36
19.532,-13.116,10.283,2.2538,-0.28375,-4.6936,-26.34,23.28,-10.14
19.532,-15.541,8.3901,3.2217,-2.3558,-5.1707,-27.78,21.06,-11.82
18.919,-15.718,6.674,3.3201,-2.5073,-5.2452,-28.68,19.68,-12.3
12.762,-15.868,4.6445,3.1948,-1.8439,-4.8533,-29.52,18.06,-12.66
6.674,-14.764,2.4517,3.1026,-1.4502,-4.4822,-30.42,15.96,-12.96
-1.0215,-12.599,0.64016,2.8072,-1.3848,-3.0913,-32.34,11.7,-13.38
-4.5083,-12.667,0.34051,2.5574,-1.9474,-2.0018,-32.94,9.66,-13.5
-8.6353,-12.381,-0.39499,2.3546,-1.8815,-0.34208,-33.96,5.58,-13.14
-11.373,-11.073,-0.28603,2.3323,-1.2975,0.6072,-34.32,3.84,-12.78
-10.951,-11.319,-0.027241,2.1215,-0.71349,1.5134,-34.62,2.34,-12.24
-10.025,-11.877,0.027241,1.6258,-0.27214,2.3463,-34.74,0.96,-11.46
-6.0883,-12.803,-0.54481,0.93859,0.05284,3.1035,-34.92,-1.38,-9.36
-3.5413,-12.544,-1.0624,0.27581,0.34911,3.7226,-34.86,-2.34,-8.22
-0.74912,-12.626,-1.4029,-0.22571,0.55833,4.0873,-34.92,-3.18,-7.08
5.1076,-14.86,-1.0896,-1.1875,0.92638,4.2929,-34.74,-3.84,-5.64
10.297,-18.279,-0.53119,-2.2168,1.9548,4.9895,-34.56,-3.6,-5.34
17.775,-19.368,-0.01362,-3.0598,3.6701,5.1462,-34.44,-2.82,-5.28
19.314,-19.504,0.50395,-3.2669,4.769,4.4734,-34.26,-1.98,-5.4
19.532,-13.552,2.656,-2.919,4.4046,3.4917,-34.2,0.3,-6.54
19.532,-8.8941,1.5936,-2.277,2.8271,2.4823,-34.38,1.56,-7.44
19.436,-3.514,-0.17706,-1.7636,1.9801,1.9939,-34.44,4.14,-8.82
15.282,-0.61292,-0.69464,-1.5754,1.7761,1.7813,-34.32,5.4,-9.3
13.879,0.40861,-0.99429,-1.6252,1.7443,1.6698,-34.02,6.84,-9.6
11.55,3.9908,-1.4438,-1.7523,1.2135,1.6163,-33.06,9.72,-10.02
10.147,6.1292,-1.757,-1.6845,0.75228,1.5207,-32.52,11.16,-9.96
8.3629,8.322,-2.1656,-1.5064,0.56322,1.3372,-31.68,12.66,-9.96
6.17,11.087,-3.0918,-1.1335,0.74403,0.70463,-30.12,15.24,-9.96
5.8023,12.231,-2.8058,-0.98105,0.71013,0.39462,-29.46,16.26,-9.72
5.6661,13.321,-2.547,-0.53756,0.35949,-0.28436,-28.68,17.16,-9.3
5.993,11.359,-2.6151,0.35858,-0.22235,-1.401,-27.54,18.66,-7.92
6.7012,8.8668,-2.2882,0.79871,-0.44715,-2.0323,-26.88,19.14,-6.96
8.4174,5.4481,-1.471,1.1023,-0.73884,-2.5934,-26.28,19.56,-5.82
12.79,2.7513,-0.027241,1.3998,-0.45876,-3.292,-25.74,19.68,-4.56
18.088,2.6696,0.46309,1.3433,0.64691,-3.1466,-25.62,19.56,-4.5
19.355,0.72188,3.3778,1.3647,1.0009,-3.0739,-25.98,19.02,-4.86
19.532,-13.076,9.9973,1.8045,-0.28344,-3.9807,-27.0,17.76,-6.36
19.532,-17.175,10.42,2.5568,-1.8384,-4.9755,-27.66,16.92,-7.32
19.532,-16.794,9.7113,2.8271,-2.2003,-5.3784,-28.56,15.96,-8.1
15.99,-14.029,6.1564,3.1673,-1.6029,-5.3991,-30.3,12.9,-8.88
12.572,-13.62,5.2711,3.4737,-1.3094,-4.8985,-31.14,11.16,-9.18
7.8726,-12.871,3.9771,3.54,-1.3668,-4.5833,-32.04,9.0,-9.42
-1.1577,-12.231,2.438,3.3463,-2.1307,-3.4147,-33.48,4.5,-9.66
-5.489,-12.367,2.0839,2.8399,-2.667,-2.3879,-34.08,2.16,-9.66
-9.0575,-12.64,1.7298,2.2446,-2.4945,-1.233,-34.5,-0.06,-9.54
-12.64,-12.326,1.4438,1.5229,-1.1099,0.14997,-34.92,-3.9,-8.76
-12.735,-12.163,1.471,1.0372,-0.036652,1.1591,-35.1,-5.7,-8.04
-10.624,-12.735,1.2258,0.77274,0.29322,1.6628,-35.1,-7.32,-7.02
-6.674,-12.422,0.36775,0.089492,0.46914,3.1026,-35.22,-10.26,-4.44
-4.8625,-11.863,0.081722,-0.24312,0.35644,3.9465,-35.16,-11.34,-3.18
-2.9556,-11.727,-0.36775,-0.46762,0.4383,4.5769,-35.22,-12.3,-2.1
2.4789,-13.198,-0.78998,-0.78099,0.82284,4.9291,-35.34,-12.6,-0.54
6.1564,-15.309,-0.72188,-1.8262,2.3418,5.7846,-35.52,-12.18,-0.18
15.772,-18.701,-0.92618,-2.5745,4.1276,6.0735,-35.7,-11.22,-0.18
19.477,-19.518,1.6072,-2.9997,5.222,4.8286,-35.94,-8.28,-1.08
19.532,-16.113,2.0567,-2.8915,5.1982,3.4386,-36.3,-6.48,-2.04
19.532,-9.8748,0.47671,-2.2544,3.7437,2.4031,-36.72,-4.74,-3.36
19.532,-4.9033,-0.85808,-1.6909,1.8341,1.6994,-37.86,-1.44,-5.52
19.355,-3.1599,-1.2803,-1.6863,0.67378,1.1167,-38.28,0.24,-6.24
14.043,-0.53119,-1.9886,-1.9206,1.0968,1.0913,-38.52,1.98,-6.84
9.9973,3.3506,-2.656,-2.2743,1.3803,1.1051,-38.1,5.94,-7.44
8.6353,5.7614,-1.9477,-2.5088,1.1707,1.1365,-37.86,7.74,-7.8
7.7364,7.246,-1.6072,-2.4642,0.94043,1.1912,-37.5,9.6,-8.16
5.8704,10.855,-1.4438,-2.1906,0.88973,1.003,-36.66,12.72,-8.58
5.5435,10.924,-1.185,-1.4416,0.7199,0.13622,-35.94,13.98,-8.52
5.2575,10.992,-0.8036,-0.75869,0.38698,-0.65668,-35.34,15.12,-8.1
6.279,10.229,-0.99429,-0.038485,-0.017104,-1.3711,-34.32,16.62,-6.6
6.9328,8.2267,-1.1169,0.6298,-0.63774,-1.9496,-33.96,17.1,-5.58
7.9815,5.0668,-0.61292,1.0693,-1.1429,-2.5647,-33.36,17.46,-4.32
10.801,2.1929,0.68102,1.299,-1.1057,-3.1615,-32.28,17.94,-2.52
15.214,1.9886,1.0351,1.3134,0.34056,-3.4664,-32.1,17.94,-2.34
19.395,0.83084,2.6423,1.2382,0.89461,-3.3317,-32.1,17.7,-2.46
19.518,-4.2495,4.7263,1.4032,0.18845,-3.5161,-32.82,16.08,-3.84
19.532,-9.1937,5.8023,1.8601,-0.94776,-4.2208,-33.36,15.18,-4.68
19.532,-11.359,5.9249,2.2364,-1.4636,-4.7898,-34.02,14.16,-5.52
19.532,-11.101,4.1814,2.5552,-1.6127,-5.0519,-35.04,11.34,-6.9
15.432,-11.809,3.0646,2.9102,-1.3912,-4.7376,-35.58,9.6,-7.62
10.474,-12.231,2.2882,3.0052,-1.4395,-4.4679,-36.18,7.74,-8.1
1.0896,-11.904,1.0488,3.0186,-1.846,-3.7486,-37.02,3.48,-8.76
-3.732,-12.095,0.96704,2.5656,-2.4548,-2.2055,-37.14,1.32,-8.7
-6.5378,-12.177,0.70826,2.1903,-2.0659,-1.1102,-37.38,-0.48,-8.82
-11.278,-10.215,-0.027241,1.9258,-1.2908,-0.16157,-37.32,-4.02,-8.58
-10.665,-10.038,-0.25879,1.6377,-0.58551,1.3977,-37.08,-5.46,-8.1
-7.5184,-10.992,-0.89894,1.274,-0.20036,1.9291,-36.36,-7.74,-6.84
-5.8704,-11.414,-0.88532,0.59346,-0.099571,3.2877,-36.0,-8.64,-5.7
-4.6173,-11.482,-0.99429,0.15027,-0.018937,3.8787,-35.64,-9.42,-4.68
0.027241,-11.959,-1.362,-0.23396,0.14875,4.1685,-34.98,-10.44,-2.64
2.3699,-12.79,-1.3212,-0.73701,0.28619,4.3539,-34.8,-10.44,-1.8
13.362,-18.02,-2.7786,-1.5629,1.4865,5.2922,-34.56,-9.42,-0.66
18.769,-19.355,-2.6151,-2.6533,2.9774,5.2864,-34.5,-8.52,-0.6
19.341,-19.491,-2.0975,-2.7449,3.6698,4.9156,-34.44,-7.38,-0.78
19.532,-12.435,-0.095342,-2.704,4.1524,3.0479,-34.5,-4.62,-1.8
19.532,-8.2403,-1.1986,-2.2654,3.3564,2.4346,-34.8,-3.18,-2.46
19.532,-4.9987,-2.0158,-1.6878,2.5006,2.3295,-35.1,-1.56,-3.12
16.576,-0.88532,-2.0703,-1.4459,1.7532,1.9493,-35.58,1.5,-4.2
14.519,0.19068,-2.5742,-1.3689,1.3372,1.6784,-35.52,3.12,-4.38
12.354,1.9068,-3.4732,-1.4551,1.1744,1.7031,-35.46,4.8,-4.74
9.8066,6.3471,-3.6094,-1.5372,0.88362,1.7092,-34.68,7.92,-5.04
8.6898,8.7715,-3.3506,-1.4792,0.66798,1.5553,-34.38,9.54,-5.16
7.5048,10.76,-3.1054,-1.2226,0.65118,1.1396,-33.84,10.98,-5.22
6.9055,11.155,-2.3563,-0.86499,0.70921,0.42333,-32.52,13.68,-5.34
7.3005,11.032,-2.0158,-0.20036,0.55803,-0.7141,-31.92,14.94,-5.16
7.6819,10.038,-1.866,0.26634,0.36346,-1.4212,-31.2,15.9,-4.86
9.5887,5.9249,-1.2258,0.67684,-0.23427,-2.1857,-30.06,17.22,-3.66
10.079,4.0861,-0.61292,1.0201,-1.2782,-2.9028,-29.52,17.82,-3.18
9.9565,2.6423,0.081722,1.2312,-1.7941,-3.3698,-29.1,18.12,-2.7
15.636,2.261,0.027241,1.2596,-1.2159,-3.3955,-28.86,17.94,-2.46
18.565,1.2258,0.62654,1.1396,0.042455,-3.2672,-28.98,17.46,-2.82
19.518,-9.6704,3.4732,1.0489,-0.14691,-3.5082,-29.58,16.02,-4.2
19.532,-12.735,4.018,1.5091,-1.223,-4.0846,-30.12,15.24,-5.04
19.532,-11.931,3.3097,1.7819,-1.4908,-4.5085,-30.66,14.46,-5.88
18.088,-11.373,1.9341,2.1359,-1.2822,-4.5653,-32.16,11.88,-7.02
13.784,-11.618,1.4982,2.4474,-0.94867,-4.2244,-32.76,10.26,-7.44
10.161,-11.06,0.64016,2.7193,-0.98594,-3.317,-33.18,8.46,-7.8
3.9908,-10.256,-0.35413,2.8457,-1.4697,-2.6011,-34.2,4.86,-8.4
0.85808,-10.624,-0.58567,2.6554,-1.9025,-1.7892,-34.38,3.12,-8.7
-1.2939,-10.665,-0.74912,2.379,-2.0962,-1.0495,-34.56,1.32,-8.7
-5.9249,-10.134,-1.3893,2.0385,-1.9493,-0.49694,-34.2,-1.74,-8.52
-6.4833,-10.093,-2.3155,1.5687,-1.193,0.093462,-33.96,-2.88,-8.28
-4.1406,-10.215,-4.0044,0.47739,0.61575,0.97066,-33.42,-4.98,-7.08
-2.0431,-10.079,-3.732,-0.49236,1.3983,1.4447,-33.0,-5.94,-6.3
-0.38137,-9.902,-3.2825,-0.98685,1.4389,1.6084,-32.58,-6.78,-5.4
2.8058,-8.036,-3.1054,-2.1509,0.58368,1.6948,-31.68,-8.58,-4.26
2.8875,-7.2869,-3.514,-2.7214,0.30055,1.7874,-31.38,-9.06,-3.78
2.942,-7.7364,-2.3018,-3.3335,0.71196,2.2315,-31.26,-9.42,-3.54
10.569,-9.6841,1.2531,-3.9914,2.864,3.7067,-31.08,-9.18,-3.54
17.992,-11.605,3.0782,-4.5064,4.1673,3.6893,-31.02,-8.7,-3.9
19.341,-11.605,4.522,-4.116,4.5769,2.9465,-30.96,-8.04,-4.44
19.532,-3.9635,4.808,-2.9267,2.9957,2.1289,-30.66,-6.12,-6.48
19.532,-0.88532,2.0975,-1.7532,0.85949,1.7578,-30.48,-5.1,-7.98
19.3,-1.0624,0.69464,-1.1759,-0.085521,1.7257,-30.48,-4.32,-9.36
14.124,-0.99429,-0.39499,-1.1255,-0.065057,1.6985,-30.48,-3.06,-12.06
11.169,0.20431,-0.81722,-1.5925,0.57421,1.6594,-30.6,-2.46,-13.14
9.507,1.4165,-1.5936,-1.8158,0.80054,1.7135,-30.84,-1.92,-13.86
7.4095,3.2553,-2.9284,-1.9719,0.7083,1.7932,-31.44,-0.42,-14.28
6.1428,3.9363,-3.1327,-2.043,0.53634,1.8152,-31.5,0.6,-14.16
4.8488,4.2359,-2.9011,-1.9826,0.33781,1.7688,-31.44,1.8,-14.1
2.8467,5.0259,-3.4868,-1.8656,0.34697,1.5916,-31.26,4.26,-13.38
2.6968,5.5707,-3.7728,-1.6561,0.50244,1.1478,-31.02,5.58,-12.84
2.6696,7.3141,-3.7184,-1.4902,0.4328,0.95845,-30.96,6.72,-12.12
2.8739,7.4776,-2.9965,-0.84055,0.047953,0.16157,-30.84,8.88,-9.96
2.9011,7.1779,-2.0567,-0.37751,-0.28497,-0.30024,-30.96,9.9,-8.7
4.2495,8.1041,-1.58,-0.10415,-0.069944,-0.40989,-30.72,12.06,-6.18
10.542,8.0769,-1.2803,-0.12156,1.1246,-0.30391,-30.6,13.2,-4.8
19.191,-0.99429,2.3155,-0.28039,2.3604,-0.48778,-30.06,15.06,-3.42
19.491,-9.9292,4.9306,-0.67684,1.8977,-1.2764,-29.64,15.96,-3.36
19.532,-14.056,5.5026,-0.53726,0.54611,-2.237,-29.4,16.44,-3.9
19.532,-7.927,3.0782,0.43524,-0.0027489,-3.6521,-29.28,16.44,-5.22
16.154,-7.2869,1.3076,1.2214,-0.76877,-3.7513,-29.22,16.08,-6.24
9.4661,-8.4991,-0.6674,1.7761,-1.3806,-3.3708,-29.46,14.94,-8.28
5.2847,-8.9213,-1.7298,2.339,-2.3567,-2.6643,-29.58,14.16,-9.12
1.9205,-9.4525,-2.0839,2.3802,-2.7012,-2.3192,-29.76,13.38,-9.9
-0.50395,-9.8748,-2.0294,1.9917,-3.4496,-0.97005,-30.12,12.48,-10.5
-7.641,-10.828,-0.99429,1.405,-3.3161,0.11087,-30.42,11.52,-10.68
-9.6704,-10.774,-0.70826,0.83139,-2.4615,1.12,-30.72,10.62,-10.92
-8.3765,-10.256,-0.095342,0.3317,-1.2993,1.9422,-31.2,9.3,-11.4
-6.7966,-10.706,0.17706,-0.24557,-0.28924,3.215,-31.56,8.88,-11.64
-5.4209,-11.278,0.34051,-0.43219,-0.15149,3.6093,-31.74,8.64,-11.52
-3.3778,-11.509,0.50395,-0.86712,0.29413,4.6328,-31.92,8.76,-11.28
-1.7706,-11.741,0.61292,-1.003,0.68234,5.1117,-31.92,9.0,-10.86
-1.0215,-12.122,0.96704,-1.1206,1.0797,5.353,-31.92,9.48,-10.32
2.7649,-15.936,1.5936,-1.3922,1.6359,5.6884,-31.92,10.8,-8.76
8.54,-18.987,1.2803,-1.7541,3.2327,6.5546,-31.74,11.7,-7.92
18.837,-19.518,1.362,-1.7229,3.9291,6.4898,-30.66,14.34,-6.36
19.45,-19.532,0.55843,-1.4988,3.8543,5.8619,-29.58,15.84,-5.76
19.518,-18.605,-0.095342,-0.68661,2.7846,3.5061,-28.2,17.46,-5.34
19.532,-15.241,-1.4438,-0.36744,2.3937,2.6127,-25.08,20.88,-4.62
17.87,-12.967,-1.8387,-0.31307,1.9273,2.2349,-23.4,22.56,-4.38
11.686,-7.5729,-1.7025,-0.50366,1.7935,2.1225,-19.74,26.04,-3.48
10.079,-6.1973,-1.58,-0.93493,2.846,1.9578,-17.88,27.48,-3.18
8.7443,-2.7922,-1.3076,-1.1316,3.3317,1.8637,-13.86,30.18,-2.34
8.4038,-1.2803,-1.2939,-1.1677,3.0708,1.8949,-11.88,31.44,-2.1
7.5729,-0.23155,-1.4165,-1.0846,2.4905,1.9422,-9.78,32.52,-1.62
5.6661,1.1305,-1.8387,-0.9728,2.117,1.9707,-5.64,34.38,-1.02
5.3664,1.4438,-1.8932,-0.86712,1.9682,1.9676,-3.72,34.98,-0.66
6.2517,2.2882,-2.5198,-0.68417,2.0693,1.7822,-0.42,35.88,-0.42
7.4776,2.4653,-3.6503,-0.60506,2.1362,1.642,0.96,36.3,-0.3
8.5672,2.1929,-4.9033,-0.54703,2.1872,1.2709,2.28,36.54,-0.12
9.1393,1.9477,-5.1349,-0.6747,1.751,0.56077,3.42,36.72,-0.18
10.515,0.58567,-4.6445,-0.75961,1.3998,0.01069,5.34,37.02,0.18
11.496,-1.2531,-4.5492,-0.94562,1.5033,-0.4893,6.12,36.96,0.42
16.903,-10.256,-5.38,-1.3628,1.8857,-0.82803,7.32,36.72,1.26
19.205,-17.693,-5.4754,-1.4875,1.1261,-0.78557,7.68,36.66,1.68
19.45,-19.068,-5.3528,-1.3051,0.5003,-1.0718,8.16,36.6,2.34
18.387,-19.532,-4.3177,-1.1619,0.5962,-2.3463,8.34,36.54,3.42
15.541,-18.456,-4.1542,-0.7926,1.1866,-3.9111,7.98,36.48,3.96
13.852,-17.339,-4.9442,-0.026573,1.3018,-4.9575,7.62,36.24,4.56
11.795,-17.407,-5.884,0.94043,-1.0113,-5.4025,5.64,35.76,5.58
8.8668,-18.156,-4.2904,0.89492,-2.656,-5.2269,4.08,35.4,6.0
5.4073,-17.706,-3.1872,0.3708,-3.2513,-4.8613,2.34,34.92,6.18
-0.85808,-16.249,0.40861,-0.30085,-3.109,-4.4382,-1.68,34.02,6.78
-5.1076,-14.86,2.7104,-0.98013,-2.9676,-3.8747,-3.78,33.54,6.9
-11.496,-13.144,4.6037,-1.5495,-2.4798,-3.0018,-5.82,33.0,7.02
-19.286,-8.2948,4.699,-1.949,0.55711,-0.5226,-9.72,31.92,7.44
-18.619,-7.1779,3.6503,-1.9905,2.3265,1.6231,-11.52,31.32,7.68
-15.881,-7.7908,2.9829,-1.9429,2.5012,3.4996,-13.38,30.66,7.56
-10.052,-10.283,1.8387,-1.8894,2.182,4.9077,-15.12,30.12,7.44
-4.3994,-12.231,2.0567,-1.989,2.018,5.6197,-17.94,29.16,6.78
-0.54481,-13.13,2.3155,-2.2287,2.3537,5.8988,-19.32,28.8,6.54
5.8159,-16.562,1.9341,-2.7859,3.9886,6.0143,-20.82,28.26,6.6
11.7,-18.864,1.7298,-3.1444,5.0632,5.7864,-20.82,27.96,7.08
18.115,-19.45,2.0294,-3.3139,5.554,5.5525,-20.52,27.78,7.86
19.491,-19.532,4.3313,-3.6227,5.0644,4.1505,-18.9,27.54,9.78
19.532,-16.671,3.8682,-3.3631,3.2238,3.1081,-17.94,27.42,10.92
19.532,-13.348,2.833,-2.5449,2.2681,2.4135,-16.86,27.3,11.94
18.129,-8.6353,1.5391,-1.6918,2.2749,1.7132,-14.7,27.36,13.92
15.786,-6.7966,1.3757,-1.0495,2.3586,1.4297,-13.62,27.42,14.94
14.002,-5.4073,1.0624,-0.86804,2.314,1.2645,-12.66,27.42,16.2
11.863,-3.5549,0.44947,-0.78038,2.2727,1.262,-10.5,27.42,18.78
11.863,-3.5549,0.44947,-0.68631,2.2581,1.2422,-10.5,27.42,18.78
9.6432,-1.6344,-0.6674,-0.58246,2.2718,1.1585,-9.6,27.3,20.1
7.5184,0.027241,-0.92618,-0.49052,2.1903,1.0009,-7.8,27.12,22.5
5.5026,1.1713,-1.1986,-0.36835,1.8647,0.72143,-7.08,27.12,23.28
4.6854,1.7298,-1.2531,-0.33292,1.3445,0.70036,-6.42,27.12,23.88
2.5879,3.0373,-1.6072,-0.11026,0.79596,0.91905,-6.24,27.12,24.36
-2.2746,4.9987,-2.6015,0.23213,0.82161,1.1741,-5.94,27.0,24.78
-1.3484,3.5277,-2.9829,0.49847,1.3402,1.2376,-5.76,27.18,24.72
1.9613,1.8932,-3.7456,0.61697,1.3338,1.1884,-5.7,27.36,24.54
5.7478,-0.49033,-4.7263,0.50121,0.96028,0.88026,-5.82,27.54,24.3
9.9292,-2.152,-5.7205,0.416,0.74953,0.70494,-5.88,27.66,24.12
12.354,-3.3097,-6.2654,0.16066,0.52198,0.52565,-5.82,27.9,23.64
19.218,-9.3436,-7.9134,-0.30971,0.85368,0.17287,-5.88,28.26,23.16
19.491,-12.572,-7.927,-0.75503,0.87873,-0.91385,-6.12,28.38,22.98
19.532,-18.387,-6.8647,-0.94928,0.34972,-2.3579,-6.48,28.44,22.62
19.532,-17.475,-6.674,-0.71868,-0.80054,-4.0794,-6.96,28.2,22.56
19.532,-17.448,-6.2926,-0.59743,-1.0898,-4.5186,-7.68,27.9,22.44
14.71,-16.644,-2.6151,-0.090713,-1.8097,-5.5882,-10.8,26.46,21.36
14.71,-16.644,-2.6151,-0.090713,-1.8097,-5.5882,-10.8,26.46,21.36
10.447,-15.173,-1.757,0.0281,-1.7312,-5.5607,-12.0,25.86,20.88
4.2495,-13.225,-0.35413,0.14539,-1.555,-5.2519,-14.34,24.66,20.04
2.0567,-12.408,0.35413,0.24343,-1.4749,-4.6759,-15.42,23.82,19.68
-4.1814,-10.569,1.6208,0.26359,-1.5861,-3.8149,-17.7,21.66,19.44
-7.0281,-10.065,2.4517,0.22358,-1.6811,-2.6887,-18.84,20.46,19.38
-9.5206,-10.052,3.0918,0.15882,-1.2504,-0.97708,-19.86,19.26,19.5
-11.822,-11.455,3.8818,0.1408,-0.61606,0.053145,-21.54,16.92,19.56
-11.605,-12.081,4.0861,0.069639,-0.13592,1.2214,-22.26,15.66,19.8
-9.8203,-11.101,3.2144,0.048564,0.081245,2.4352,-22.92,14.16,19.56
-7.8181,-10.733,2.8603,0.12004,0.36255,3.5317,-22.86,13.56,19.5
-6.2517,-10.733,2.6423,0.23213,0.55925,4.4053,-22.68,13.14,19.56
-2.3972,-12.435,1.8387,0.23915,0.46701,5.3209,-21.9,12.84,19.98
0.99429,-15.5,0.78998,-0.020159,0.77061,6.1413,-21.66,12.84,20.22
6.851,-18.592,-0.92618,-0.30116,1.5592,6.4596,-21.3,12.72,20.46
18.932,-19.518,-2.9556,-0.42089,2.7465,5.5464,-20.58,13.5,21.18
19.382,-19.532,-3.0782,-0.62369,2.8656,4.1337,-19.98,14.1,21.42
19.532,-19.532,-3.6094,-0.66523,2.6334,3.4245,-19.32,14.82,21.6
19.532,-12.0,-4.4539,-0.34117,2.0113,1.7791,-18.0,16.44,21.9
17.611,-8.1858,-4.5492,-0.076664,1.8326,1.0873,-17.16,17.46,22.08
14.587,-5.4209,-5.2711,-0.048564,1.8161,0.73365,-16.32,18.48,22.08
11.155,-2.0839,-5.8295,-0.1127,1.6396,0.44502,-14.64,20.34,22.32
10.283,-0.96704,-6.0202,-0.28772,1.3601,0.34056,-13.98,21.18,22.56
9.221,0.50395,-6.2926,-0.33598,1.3744,0.17837,-13.2,22.02,22.74
9.4117,3.0782,-7.1234,-0.3769,1.4985,-0.13622,-12.0,23.16,23.16
10.61,3.623,-7.4776,-0.551,1.2987,-0.61423,-11.4,23.58,23.34
11.741,4.127,-7.355,-0.77641,0.43341,-1.1215,-10.98,24.12,23.64
9.1529,6.1155,-8.0224,-0.73121,-1.6371,-2.0183,-10.26,24.6,23.46
6.279,5.2847,-7.5184,-0.79871,-1.9743,-2.9077,-10.2,24.6,23.46
5.5162,4.3585,-7.0281,-0.98349,-1.5492,-3.5656,-10.32,24.42,23.64
6.3062,1.8115,-4.5083,-1.1408,-1.0357,-4.05,-11.22,23.64,23.88
8.6762,-0.9398,-3.0918,-1.171,-0.9838,-4.5302,-11.88,22.86,23.94
13.171,-1.8932,-3.3506,-1.2043,-0.97494,-5.0204,-12.9,22.02,24.0
19.246,-4.3177,-3.9635,-1.1274,-0.74251,-5.5161,-15.24,19.8,23.88
19.518,-9.5206,-2.5198,-0.78557,-0.89797,-6.0518,-16.26,18.66,23.7
19.532,-11.918,-1.6072,-0.59346,-1.1298,-6.2284,-17.4,17.34,23.58
19.532,-15.772,0.14982,-0.15149,-0.58063,-6.8909,-19.5,14.46,23.46
19.532,-14.71,1.0215,0.17868,0.75717,-6.9089,-20.58,12.66,23.46
14.955,-12.381,2.3972,0.76725,1.5446,-6.6013,-22.44,8.46,23.4
10.283,-11.536,2.5606,1.4099,1.1301,-5.8157,-23.4,6.3,23.34
0.77636,-10.924,1.5936,1.9313,-0.0073304,-4.5033,-24.3,4.08,23.16
-6.5514,-10.869,0.89894,2.2312,-0.92699,-2.9007,-25.44,0.06,22.44
-10.256,-10.964,0.54481,2.3995,-0.9276,-1.2941,-25.74,-1.56,22.08
-11.441,-11.046,0.46309,2.5012,0.11026,0.83169,-25.8,-3.06,22.02
-9.5342,-11.632,-0.081722,2.4838,0.4664,2.0672,-25.56,-5.46,21.84
-8.1722,-11.768,-0.25879,2.3656,0.35094,3.1307,-25.44,-6.48,21.96
-5.9793,-12.204,-0.43585,2.1279,0.025045,4.0348,-25.26,-7.8,22.2
-4.0589,-12.898,-0.89894,1.5803,-0.081245,5.0146,-25.2,-8.04,22.26
-2.9829,-13.184,-1.2258,1.3882,0.012828,5.2113,-25.08,-7.8,22.32
0.040861,-14.111,-2.2474,0.84758,0.4835,5.6264,-24.84,-6.36,21.9
3.0646,-16.862,-2.3155,0.28466,0.95906,5.9294,-24.66,-4.92,21.84
8.826,-19.191,-3.0237,-0.50091,2.0113,6.3704,-24.3,-3.3,21.66
19.246,-19.532,-4.9987,-1.5495,3.8848,5.4862,-24.06,0.48,21.0
19.463,-19.532,-3.9635,-1.9584,4.6753,4.3179,-24.24,2.46,20.46
19.532,-19.532,-2.2201,-2.0357,4.4208,3.5003,-24.6,4.38,20.04
19.532,-9.6023,-2.3836,-1.5403,3.0699,1.5492,-25.44,7.86,18.96
19.246,-4.6445,-2.9829,-1.1087,2.3625,1.0079,-25.8,9.54,18.6
14.22,0.027241,-3.6911,-1.1087,1.6503,0.78893,-25.98,12.66,18.18
11.754,1.757,-4.1542,-1.2483,0.59651,0.71807,-25.98,13.74,18.18
9.6977,3.2961,-4.5356,-1.4364,0.31796,0.72754,-25.86,14.82,18.24
5.2166,8.0224,-4.4675,-1.5305,-0.15547,0.81825,-25.68,16.26,18.3
3.2416,10.379,-4.3994,-1.3586,-0.0033598,0.79687,-25.38,16.8,18.54
2.3836,11.645,-4.3177,-1.1225,0.54856,0.48533,-25.32,17.22,18.84
4.6309,11.931,-3.5277,-0.80176,0.84422,-0.11545,-25.2,17.46,19.74
6.4833,11.087,-3.2008,-0.29138,0.46487,-0.95081,-25.02,17.46,20.28
10.637,7.246,-3.5277,0.18448,-0.17868,-1.8864,-24.6,17.22,21.42
12.871,4.522,-3.5958,0.54703,-1.285,-3.2574,-24.36,16.92,22.02
14.41,2.4517,-3.514,0.49236,-1.6283,-4.1294,-24.24,16.62,22.38
19.177,-1.5391,-4.2495,0.26298,-1.2706,-4.7104,-24.3,15.6,22.62
19.491,-3.909,-3.6639,-0.033598,-0.51435,-5.0986,-24.6,15.0,22.44
19.532,-7.3822,-1.1986,-0.14386,-0.0956,-5.5894,-25.44,13.92,21.72
19.532,-13.362,-1.1986,0.08491,-0.31246,-5.7275,-25.86,13.08,21.42
19.532,-14.247,0.58567,0.45204,-0.61148,-5.6933,-26.4,12.42,21.24
19.532,-13.443,1.0896,0.62247,-0.64813,-5.6099,-26.94,11.4,21.06
13.852,-11.741,1.4574,1.1738,-0.40103,-5.1316,-28.02,8.58,20.46
8.4038,-10.651,1.4165,1.562,-0.2813,-4.4987,-28.62,7.26,20.28
2.6015,-9.3163,1.2939,1.9035,-0.47159,-3.6408,-28.98,5.76,20.16
-3.5958,-9.5479,0.9398,2.1044,-0.84513,-2.5482,-29.52,2.7,20.1
-5.2847,-9.9973,0.83084,2.2871,-1.2532,-0.88178,-29.76,1.56,20.04
-6.3335,-10.174,0.8036,2.4025,-1.3149,0.083078,-29.76,0.48,20.22
-7.8589,-11.278,0.6674,2.3234,-1.1405,0.91111,-29.64,-1.26,20.94
-7.7091,-11.85,0.34051,2.0336,-0.88514,1.631,-29.34,-1.86,21.42
-6.8783,-11.931,-0.83084,1.2501,-0.49633,2.7373,-28.92,-2.82,22.68
-4.9714,-10.964,-1.2122,0.75472,-0.19487,3.3729,-28.56,-2.82,23.34
-4.1406,-10.583,-1.3757,0.25137,0.19945,3.9279,-28.14,-2.76,23.82
-3.6911,-10.719,-1.3076,-0.36866,0.7254,4.6258,-27.72,-2.34,24.24
1.4982,-15.568,-1.3076,-1.3124,1.7892,5.5457,-26.82,-0.6,24.78
10.379,-18.66,-1.9886,-2.2492,2.9874,5.9504,-26.34,0.36,24.9
19.382,-19.518,-2.9965,-2.9771,4.3619,5.4089,-25.86,3.18,24.84
19.504,-19.218,-1.757,-2.6344,4.2782,4.4593,-25.68,4.74,24.54
19.532,-15.514,-2.1248,-1.9099,3.5342,2.6973,-25.8,6.0,24.0
19.532,-6.9464,-2.547,-1.4716,3.1157,2.0501,-25.98,7.26,23.34
17.189,-0.24517,-3.4868,-0.73548,1.5583,1.2599,-26.64,8.94,22.38
13.184,1.0215,-3.8273,-0.78618,0.94195,1.2474,-26.88,9.6,22.2
