Ax,Ay,Az,Gx,Gy,Gz,Mx,My,Mz
6.4833,-5.598,0.92618,0.93218,-0.70921,-0.73579,-29.76,16.38,-18.9
4.8761,-4.7671,0.6674,0.78802,-0.67714,-0.68142,-29.4,15.84,-19.92
3.9363,-4.2223,0.50395,0.69303,-0.51862,-0.67165,-29.34,15.48,-20.64
2.438,-3.514,0.14982,0.54092,-0.34575,-0.66187,-29.22,15.3,-21.3
1.1986,-3.3506,-0.054481,0.37049,-0.26114,-0.64263,-29.22,15.3,-21.72
0.38137,-3.3642,-0.12258,0.16157,-0.18601,-0.5678,-29.58,15.48,-21.66
-0.58567,-3.9227,-0.12258,-0.095295,-0.080329,-0.45632,-30.48,15.18,-20.94
-0.58567,-4.8625,-0.76274,-0.41814,-0.002138,-0.32162,-31.02,14.94,-20.46
4.3858,-7.8453,0.57205,-0.7535,0.22266,0.10843,-31.5,14.52,-20.04
8.9622,-9.2755,2.261,-1.1582,0.89156,0.83444,-32.4,13.56,-19.68
14.247,-11.06,3.9635,-1.602,2.1283,1.1081,-32.82,13.2,-19.56
18.605,-12.558,3.8001,-1.8946,2.1399,0.98991,-33.12,12.84,-19.38
19.518,-9.8066,1.5391,-1.9352,1.9056,0.89461,-33.42,12.54,-19.14
19.232,-7.4776,1.2531,-1.8158,1.7397,0.70005,-33.48,12.18,-19.08
17.775,-5.9249,1.3893,-1.8017,1.6457,0.58185,-33.42,11.76,-19.14
13.852,-2.942,1.9341,-1.8262,1.1625,0.46823,-33.06,11.4,-19.2
12.108,-1.5119,1.6208,-1.9138,0.3146,0.22694,-33.12,11.16,-19.02
11.319,-0.64016,1.3757,-1.9215,-0.35858,0.25992,-33.12,10.92,-18.9
9.3299,1.1986,0.8717,-1.8995,-1.0372,0.32315,-33.78,11.46,-18.24
8.1858,1.6344,0.68102,-1.8014,-1.4071,0.33903,-34.08,11.94,-17.88
5.9249,2.2065,0.040861,-1.646,-1.3024,0.30513,-34.38,12.66,-17.4
4.7671,2.6015,-0.14982,-1.3427,-0.52321,0.15485,-35.1,14.34,-15.72
3.8001,2.9148,-0.43585,-1.1047,-0.002138,0.0094684,-35.28,15.18,-14.88
3.3642,3.1599,-0.46309,-0.82161,0.34697,-0.19914,-35.58,15.96,-14.04
3.623,3.2553,-0.19068,-0.50885,0.46395,-0.43371,-36.42,17.7,-12.36
4.0316,3.1872,0.095342,-0.15394,0.30574,-0.65943,-36.72,18.72,-11.52
4.2904,3.1599,0.17706,0.18692,-0.082161,-0.81917,-37.2,19.68,-10.68
3.5549,3.1191,0.64016,0.5116,-0.33475,-0.91844,-38.34,21.18,-9.18
5.094,4.0589,0.96704,1.0452,-0.27917,-1.0275,-38.7,21.84,-8.58
7.4095,4.1406,1.3484,1.4423,0.10812,-0.9166,-39.18,22.38,-8.04
17.706,0.34051,2.6968,1.7199,0.24862,-0.49175,-39.6,22.26,-7.38
19.314,-3.2553,3.7047,1.8558,0.36133,-0.1628,-39.66,21.72,-7.26
19.504,-5.6116,4.4402,1.8402,0.10049,-0.22877,-39.48,20.82,-7.38
19.532,-5.2166,3.6639,1.814,-0.077885,-0.92607,-38.46,18.48,-8.64
19.532,-5.1894,2.9829,1.7599,0.090103,-1.0354,-37.74,17.16,-9.36
17.965,-5.2847,2.5742,1.6958,0.13744,-1.0372,-37.14,16.2,-10.08
13.607,-5.1076,1.866,1.6542,0.086437,-0.96944,-36.0,13.98,-11.7
11.387,-5.1076,1.0624,1.6102,-0.044288,-0.87995,-35.46,12.78,-12.36
9.2346,-5.0668,0.83084,1.5397,-0.30329,-0.7648,-35.1,11.64,-13.02
6.456,-5.1485,0.7355,1.332,-0.71105,-0.5006,-34.2,9.78,-14.46
5.2983,-5.0531,0.70826,1.1451,-0.87109,-0.31948,-33.84,8.94,-15.12
4.6037,-4.9714,0.70826,0.93554,-0.99052,-0.16341,-33.36,8.16,-15.66
2.6968,-4.9306,0.54481,0.68295,-1.0104,-0.049175,-32.4,7.38,-16.8
1.6208,-4.8625,0.38137,0.3937,-0.91569,0.069333,-32.16,7.2,-17.28
0.64016,-4.8488,0.35413,0.072998,-0.75778,0.20769,-32.04,7.26,-17.52
-0.027241,-5.1894,0.7355,-0.34667,-0.35827,0.44043,-32.76,7.5,-17.34
0.8717,-5.6388,0.47671,-0.58887,-0.1857,0.44929,-33.36,7.74,-17.22
2.0839,-5.993,-0.7355,-0.98685,-0.19578,0.45418,-33.96,7.68,-16.92
4.699,-6.9191,0.55843,-1.3876,-0.061087,0.85155,-35.16,7.74,-16.26
8.0224,-7.3822,2.1384,-1.7688,0.53603,1.4569,-35.7,7.74,-16.02
14.547,-7.9543,3.5685,-1.9145,1.726,1.6499,-36.06,7.86,-15.72
19.286,-9.0848,2.656,-2.0455,2.8857,1.3021,-36.72,8.1,-15.3
19.518,-5.6797,1.8524,-1.7391,2.54,0.8604,-36.84,8.28,-15.18
19.532,-4.0725,1.6889,-1.5776,2.2437,0.69119,-36.96,8.58,-15.3
17.284,-2.0839,2.1248,-1.361,1.2697,0.49877,-37.14,8.94,-15.24
14.764,-1.0896,2.0839,-1.3503,0.46151,0.28527,-37.2,9.42,-15.42
12.34,-0.027241,1.7434,-1.3793,0.04215,0.080634,-37.5,9.78,-15.42
9.6704,1.6889,1.0351,-1.4184,-0.53298,-0.028405,-37.56,10.8,-15.6
8.9622,2.0839,0.85808,-1.4013,-0.91874,-0.018631,-37.74,11.22,-15.6
7.641,2.5742,0.6674,-1.3485,-1.0357,-0.015272,-37.86,11.94,-15.48
5.6388,2.8739,0.40861,-1.2486,-0.75992,-0.043371,-38.04,13.14,-15.3
4.7671,3.0373,0.38137,-1.0907,-0.39554,-0.096517,-38.22,13.92,-15.06
3.8682,3.4459,0.28603,-0.85735,-0.16616,-0.20525,-38.4,14.64,-14.82
3.2144,3.732,0.28603,-0.551,-0.069944,-0.38698,-38.82,15.84,-14.04
3.1463,3.7728,0.16344,-0.043371,-0.17318,-0.49908,-39.12,16.32,-13.68
3.4596,3.5413,0.081722,0.32162,-0.36652,-0.58826,-39.48,16.98,-13.2
4.1814,2.9556,0.57205,0.70616,-0.45937,-0.71319,-40.08,18.06,-12.36
4.4402,3.0237,1.2803,1.1411,-0.43219,-0.82345,-40.32,18.12,-11.76
6.1292,3.623,1.9068,1.646,-0.25137,-0.85063,-40.5,18.36,-11.46
17.066,0.62654,1.9886,2.0812,0.14233,-0.73121,-40.92,17.7,-10.98
19.218,-2.6015,2.0567,2.4083,-0.046426,-0.39126,-40.8,16.92,-10.98
19.491,-4.1814,2.7922,2.4578,-0.35675,-0.25168,-40.38,15.9,-11.16
19.532,-4.9306,3.2689,2.2571,-0.58521,-0.42944,-39.48,13.86,-11.82
19.532,-5.489,3.1599,2.0702,-0.51282,-0.60873,-38.82,12.84,-12.36
18.061,-4.9714,2.6287,1.8989,-0.32559,-0.66737,-38.52,11.82,-12.9
14.383,-4.7671,1.5527,1.8524,-0.050396,-0.70921,-37.44,9.96,-13.92
11.673,-5.0259,0.95342,1.8063,0.11576,-0.50305,-37.08,9.12,-14.52
10.406,-4.985,0.6674,1.763,0.089797,-0.43005,-36.6,8.04,-15.06
7.9407,-4.8488,0.58567,1.6524,-0.050091,-0.34086,-36.24,7.08,-15.54
5.7342,-4.6445,0.57205,1.4245,-0.25259,-0.21319,-35.58,5.28,-16.56
4.4811,-4.4402,0.8717,1.2147,-0.35736,-0.083078,-35.16,4.38,-16.86
3.5958,-4.2904,0.8036,0.98563,-0.478,0.025045,-34.68,3.9,-17.04
1.7706,-4.2495,0.49033,0.56566,-0.60506,0.12278,-34.26,3.6,-17.28
0.96704,-4.1406,0.32689,0.22846,-0.57818,0.16585,-34.5,3.54,-17.16
0.47671,-4.0589,0.28603,0.057421,-0.51893,0.1909,-34.98,3.54,-16.92
-0.10896,-4.2904,0.19068,-0.41661,-0.27428,0.34575,-35.46,3.66,-16.68
0.95342,-5.1757,-0.21793,-0.83566,-0.17349,0.52779,-36.12,3.48,-15.96
2.3563,-5.993,0.84446,-1.2636,0.20006,1.0653,-36.54,3.36,-15.78
6.4152,-7.0826,3.1327,-1.7459,1.4142,1.9471,-37.02,3.36,-15.24
17.924,-11.114,3.8954,-1.7975,2.2883,2.0235,-37.26,3.42,-15.24
17.924,-11.114,3.8954,-1.7975,2.2883,2.0235,-37.26,3.42,-15.24
19.436,-7.7772,1.4982,-1.8778,1.5898,1.0736,-37.2,3.42,-15.24
18.769,-6.5514,1.6344,-1.7147,1.6509,0.87109,-37.02,3.78,-15.18
16.685,-4.699,2.9284,-1.6906,1.5721,0.8378,-37.02,4.2,-15.66
14.982,-3.3097,3.2144,-1.6805,1.1185,0.68509,-37.2,4.44,-15.72
12.081,-1.0896,2.1793,-1.6774,0.74678,0.56933,-37.5,5.28,-15.96
10.515,0.14982,1.4165,-1.6102,0.44135,0.46792,-37.68,5.64,-15.84
9.5751,1.2803,1.0215,-1.4926,-0.033598,0.34636,-37.98,6.3,-15.84
7.9679,2.2337,0.55843,-1.431,-0.19151,0.25168,-38.82,8.04,-15.72
7.0009,2.6151,0.40861,-1.3201,-0.20983,0.14294,-39.24,9.0,-15.48
5.0259,3.4323,0.081722,-1.1698,0.022297,0.047953,-39.78,11.1,-15.24
4.4266,3.7456,-0.20431,-0.97586,0.30024,-0.12217,-40.14,12.12,-14.82
4.2768,3.8954,-0.50395,-0.72785,0.46792,-0.34819,-40.56,13.26,-14.52
4.2359,3.7728,-0.57205,-0.28191,0.31887,-0.62858,-41.52,15.36,-14.16
4.0997,3.6094,-0.62654,0.058032,0.012217,-0.73273,-41.94,16.38,-13.92
4.127,3.514,-0.12258,0.405,-0.38118,-0.84452,-42.54,17.52,-13.62
4.6854,4.2223,0.78998,1.0153,-0.69364,-0.90133,-43.38,18.96,-13.08
5.884,4.6718,1.7025,1.5223,-0.63744,-0.76144,-43.8,19.32,-12.72
11.7,3.9635,2.7377,1.9902,-0.34667,-0.52321,-44.1,19.32,-12.42
19.327,-3.0237,3.7047,2.2208,-0.29658,-0.34239,-43.86,17.58,-12.12
19.504,-6.0202,4.7944,2.2504,-0.6576,-0.24282,-43.38,15.96,-12.36
19.532,-7.3822,4.9442,2.1112,-0.7703,-0.42944,-42.54,14.4,-12.84
19.532,-6.674,3.5413,1.9859,-0.55436,-0.71135,-40.5,11.7,-14.1
17.775,-6.0338,2.9692,1.8607,-0.3543,-1.0168,-39.54,10.56,-14.7
14.805,-5.9657,2.4653,1.8127,-0.33078,-1.0394,-38.64,9.42,-15.36
10.161,-6.0883,1.8387,1.5843,-0.28466,-0.87568,-36.9,7.38,-16.38
7.7772,-5.8295,1.6344,1.357,-0.30727,-0.71563,-36.3,6.3,-16.74
6.1564,-5.598,1.58,1.0962,-0.4047,-0.58429,-35.64,5.16,-17.22
3.2008,-4.9987,1.4846,0.73334,-0.5174,-0.41844,-34.32,3.6,-18.12
1.7162,-4.6718,1.3212,0.53878,-0.51343,-0.38576,-33.54,3.0,-18.72
1.0624,-4.5901,1.1577,0.34789,-0.5061,-0.39004,-32.76,2.64,-19.32
1.0624,-4.5083,0.8717,0.2416,-0.5006,-0.41356,-32.1,2.76,-19.98
-0.51757,-4.6037,0.64016,-0.13683,-0.48808,-0.44257,-31.74,3.96,-20.46
-1.1986,-4.9033,0.5993,-0.44166,-0.45204,-0.38607,-32.04,4.74,-20.28
-0.85808,-5.3119,-0.10896,-1.0357,-0.4047,-0.029627,-33.24,5.22,-19.44
3.0237,-6.6604,1.866,-1.4456,-0.048258,0.56994,-33.84,5.34,-19.02
7.9679,-7.4231,3.4732,-1.6722,0.31918,0.94104,-34.5,5.4,-18.54
13.171,-8.4174,4.699,-2.0287,1.1823,1.4734,-35.1,5.52,-18.18
19.409,-11.046,3.8137,-2.2147,1.9645,1.5889,-35.58,5.58,-17.94
19.518,-7.8589,2.2201,-1.8906,1.4627,1.0363,-35.7,5.64,-17.82
19.532,-5.1621,1.6344,-1.6515,1.3625,0.64141,-35.58,5.64,-17.82
16.848,-2.656,2.0158,-1.7233,0.72388,0.61025,-35.4,5.82,-18.0
14.71,-1.3076,2.1112,-1.876,0.19914,0.42791,-35.4,6.24,-17.88
12.463,-0.054481,1.8524,-1.9172,-0.11545,0.24343,-35.46,6.48,-17.82
10.365,1.8796,1.1577,-1.9096,-0.43646,0.19517,-35.58,7.32,-17.82
8.7579,2.547,0.61292,-1.8854,-0.60842,0.17471,-35.76,7.8,-17.88
7.3686,2.9829,0.40861,-1.8317,-0.53451,0.098349,-35.76,8.52,-17.7
4.9578,3.2553,0.34051,-1.6328,0.10537,-0.076053,-36.12,9.9,-17.4
4.2495,3.8001,0.72188,-1.4209,0.51862,-0.17226,-36.24,10.56,-17.28
4.0044,3.9908,0.6674,-1.2877,0.64446,-0.2419,-36.24,11.28,-17.04
3.6094,4.7399,0.42223,-0.73151,0.54581,-0.49908,-36.48,12.66,-16.26
3.3097,4.7807,0.27241,-0.31276,0.24221,-0.63377,-36.6,13.38,-16.02
3.0646,4.699,0.27241,0.12767,-0.16432,-0.6744,-36.78,14.1,-15.6
3.2144,4.413,0.8036,0.57452,-0.52137,-0.74556,-37.56,15.3,-14.64
4.3994,4.7671,1.6072,1.2401,-0.74281,-0.67378,-37.8,15.54,-14.34
7.246,4.8625,2.5061,1.452,-0.80848,-0.54031,-37.86,15.66,-14.04
12.762,3.4323,3.0918,1.8952,-0.86376,0.045509,-38.04,15.66,-13.8
19.45,-3.5685,3.6366,1.9129,-1.1478,0.23824,-37.8,15.12,-13.62
19.504,-4.4266,3.1872,1.8922,-0.83597,0.084299,-37.44,14.58,-13.74
19.532,-4.9578,2.8058,1.9056,0.3204,-0.33353,-37.02,13.92,-13.98
19.532,-4.3449,2.656,1.938,0.55741,-0.39951,-35.88,12.6,-14.7
18.878,-4.6582,2.3155,2.1243,0.44685,-0.57208,-35.34,11.88,-15.06
16.385,-5.4345,1.6072,2.233,0.079412,-0.55497,-34.92,11.22,-15.72
11.741,-5.8295,0.8036,2.2269,-0.30665,-0.47434,-33.96,9.96,-16.56
8.6081,-5.4073,0.77636,2.117,-0.59834,-0.36163,-33.6,9.36,-16.92
6.7693,-5.0531,0.85808,1.8995,-0.74923,-0.22907,-33.18,8.64,-17.28
3.9363,-4.5764,1.0351,1.6426,-0.76755,-0.11484,-32.34,7.62,-18.0
2.7922,-4.304,0.9398,1.376,-0.75228,-0.064446,-32.04,7.2,-18.18
2.0294,-4.1951,0.76274,1.1115,-0.7422,-0.10385,-31.74,6.96,-18.48
0.43585,-4.3858,0.46309,0.60537,-0.84177,-0.18326,-31.56,6.72,-18.66
0.027241,-4.7126,0.46309,0.21044,-0.84208,-0.23396,-31.8,6.66,-18.72
-0.43585,-5.1076,0.28603,-0.24557,-0.76908,-0.19823,-31.98,6.6,-18.66
-0.16344,-6.1019,0.47671,-1.0794,-0.43494,0.098655,-32.76,6.3,-18.18
1.58,-6.7012,1.8251,-1.5241,0.32865,0.86621,-33.18,6.3,-17.88
5.5707,-7.4776,3.3642,-1.9502,1.4471,1.6185,-33.54,6.24,-17.52
18.02,-10.569,5.0123,-2.0085,2.8491,1.8955,-34.14,6.42,-17.04
19.45,-12.326,3.2416,-2.3781,2.945,1.5324,-34.26,6.36,-17.04
19.518,-8.6762,1.7298,-1.9988,1.9099,0.76511,-34.38,6.66,-17.1
18.51,-4.4402,1.2122,-1.7932,1.4029,0.32254,-34.44,6.84,-17.04
15.854,-3.1599,1.6481,-1.8448,0.73457,0.23976,-34.38,7.08,-17.1
13.934,-2.2065,1.8796,-1.8973,0.48503,0.18295,-34.5,7.32,-17.04
10.093,0.72188,1.8932,-1.996,0.23335,0.034819,-34.56,8.16,-16.98
9.5342,1.7434,1.5936,-1.9761,-0.073609,0.10079,-34.74,8.7,-16.98
9.0167,2.3836,1.1713,-1.8952,-0.60201,0.17715,-34.92,9.42,-16.8
6.7285,3.2416,0.40861,-1.668,-1.022,0.091324,-35.34,11.1,-16.74
5.1485,3.5549,0.14982,-1.4752,-0.73609,-0.011912,-35.64,11.94,-16.68
3.6094,3.8682,0.040861,-1.2523,-0.14111,-0.080023,-35.88,12.72,-16.32
2.4517,4.3177,0.040861,-0.97036,0.43188,-0.16157,-36.18,13.5,-16.02
2.2065,4.9169,0.068102,-0.63652,0.69394,-0.25351,-36.9,14.94,-15.24
2.4517,4.9987,0.23155,-0.24954,0.55589,-0.31154,-37.2,15.72,-14.64
3.7592,4.2904,0.55843,0.18143,0.24557,-0.35858,-37.56,16.56,-14.22
3.8273,4.3177,1.0896,0.85949,0.050091,-0.5681,-38.46,18.06,-13.44
4.808,5.1213,1.9205,1.3305,0.10782,-0.64721,-38.76,18.6,-13.14
7.9951,6.0474,2.6696,1.8274,0.25779,-0.53695,-39.3,19.14,-12.78
14.138,5.598,3.1872,2.1982,0.5623,-0.26481,-39.72,19.08,-12.42
19.45,-1.1713,5.6661,2.3876,0.24007,-0.025962,-39.9,18.06,-12.12
19.518,-3.6503,6.3471,2.434,-0.17623,-0.35033,-39.6,17.16,-12.36
19.532,-5.2575,5.2575,2.4166,-0.03146,-0.53909,-38.28,15.36,-13.02
19.532,-5.0259,4.8352,2.3674,0.44166,-0.69639,-37.62,14.46,-13.5
19.218,-5.0531,4.4811,2.2932,0.27031,-0.74862,-36.84,13.44,-14.4
13.974,-6.3743,3.0918,2.1576,-0.088575,-0.66432,-35.58,11.52,-15.78
11.278,-6.5786,2.6696,1.9539,-0.31857,-0.62675,-35.04,10.56,-16.56
9.0031,-6.3198,2.4789,1.697,-0.47159,-0.60476,-34.56,9.72,-17.22
6.4424,-5.9249,2.5061,1.4056,-0.54459,-0.52351,-34.08,8.7,-17.76
3.3778,-5.2711,2.3427,1.1161,-0.61025,-0.37996,-33.36,6.96,-18.96
2.1112,-5.0804,1.9477,0.74495,-0.72174,-0.27489,-32.94,6.12,-19.62
0.9398,-4.8761,1.5255,0.48106,-0.77519,-0.23457,-32.46,5.46,-20.22
0.01362,-4.9033,0.9398,0.19273,-0.76664,-0.19975,-31.98,5.1,-21.12
-0.34051,-5.0668,0.89894,-0.12492,-0.65454,-0.13989,-31.92,5.04,-21.3
-1.0624,-5.5435,0.54481,-0.44899,-0.45632,-0.051618,-32.34,5.04,-21.3
0.23155,-5.9657,0.054481,-0.86987,-0.28191,0.072388,-33.3,4.92,-21.3
2.4244,-6.2517,1.471,-1.3903,0.051924,0.48411,-33.9,4.92,-20.88
6.3607,-6.2926,3.4459,-1.974,0.76053,1.4768,-34.32,4.74,-20.7
17.502,-7.4776,5.5435,-1.982,1.6069,1.9722,-35.28,4.56,-20.4
19.409,-9.2755,4.1814,-2.2342,1.2352,1.587,-35.58,4.44,-20.34
19.532,-4.8216,1.7843,-1.7724,0.91905,0.99388,-36.0,4.8,-20.22
19.341,-2.8467,1.7025,-1.7342,1.0846,0.83047,-36.06,5.1,-20.04
17.434,-2.0158,2.0839,-1.774,1.0867,0.58002,-36.06,5.34,-19.98
15.677,-1.1032,2.4653,-1.8042,0.59834,0.31032,-36.24,5.82,-19.98
11.291,1.4574,1.9477,-1.7908,0.41936,0.17562,-36.66,6.9,-19.74
9.5479,2.2201,1.2803,-1.7474,0.11332,0.13592,-36.96,7.62,-19.74
7.4367,3.2553,0.99429,-1.6405,-0.098044,0.12737,-37.38,9.36,-19.5
6.8647,3.3915,1.1032,-1.4603,-0.021686,-0.095295,-37.5,10.2,-19.26
5.598,3.6503,1.0488,-1.2721,0.056505,-0.18295,-37.68,11.16,-19.26
4.8761,3.9771,0.9398,-1.0217,0.11881,-0.28069,-37.92,12.24,-19.26
3.2825,4.2495,0.85808,-0.73243,0.20159,-0.42791,-38.22,14.1,-18.78
2.7241,4.4811,0.91256,-0.38271,0.26573,-0.59987,-38.34,14.94,-18.54
2.3563,4.6445,1.1305,0.011912,0.21228,-0.67287,-38.58,15.48,-18.3
2.4517,4.2495,0.92618,0.6747,-0.25565,-0.62369,-39.06,16.44,-17.94
2.7513,3.8137,1.1169,0.8937,-0.47373,-0.61056,-39.24,16.86,-17.76
3.1191,3.8137,1.3757,1.5006,-0.81764,-0.58735,-39.48,17.1,-17.7
9.9701,5.1213,2.8875,1.8992,-0.97922,-0.45021,-39.84,17.04,-17.46
16.957,3.2144,3.4187,2.1249,-0.74495,-0.14172,-40.02,16.56,-17.22
19.491,-2.9011,6.5378,2.1826,-0.67806,0.3879,-39.78,14.82,-17.22
19.532,-4.6173,6.5105,2.1029,0.041539,-0.067195,-39.54,13.74,-17.58
19.532,-5.094,4.9987,2.1747,0.72296,-0.55344,-38.88,12.66,-17.76
19.532,-4.4266,4.2087,2.2581,0.95814,-0.72571,-38.16,11.52,-18.06
17.121,-4.0316,3.0782,2.2914,0.63133,-0.83994,-36.9,9.3,-18.84
13.116,-4.7399,2.6015,2.2181,0.24221,-0.75717,-36.3,8.28,-19.26
10.651,-4.9578,2.152,2.0207,0.015882,-0.60659,-35.64,7.44,-19.62
7.0962,-4.8897,1.7298,1.5858,-0.3543,-0.40531,-34.38,5.46,-20.46
5.7342,-4.7671,1.6344,1.248,-0.76694,-0.27611,-34.08,4.44,-20.94
4.808,-4.6718,1.6481,1.0828,-0.94867,-0.21808,-33.54,3.54,-21.3
2.3018,-4.5764,1.1713,0.63744,-1.2639,-0.10782,-32.94,2.04,-21.96
1.0079,-4.6582,0.85808,0.3992,-1.2077,-0.084605,-32.64,1.62,-22.32
0.14982,-4.7944,0.91256,0.10904,-1.0599,-0.083689,-32.52,1.26,-22.56
-0.12258,-5.203,1.0624,-0.36072,-0.58063,-0.041844,-32.76,1.2,-22.44
0.5993,-5.6933,0.40861,-0.73762,-0.3146,0.10293,-33.3,1.02,-22.32
1.7706,-5.8704,0.54481,-1.2126,-0.20128,0.42852,-33.9,0.96,-22.08
5.598,-6.7012,3.0918,-1.609,-0.13195,1.0666,-35.16,0.66,-21.54
14.383,-8.1722,4.0725,-1.821,0.38271,1.5427,-35.7,0.6,-21.24
18.796,-10.12,3.2825,-2.1044,1.1542,1.7553,-36.18,0.72,-21.06
19.518,-6.4969,1.6344,-1.9703,0.33475,1.4047,-36.9,1.02,-20.64
18.742,-4.7126,1.2395,-1.8466,0.31337,0.9893,-37.2,1.5,-20.34
18.115,-4.1814,1.2803,-1.9157,0.60689,0.88301,-37.44,1.92,-20.1
14.86,-1.866,2.4244,-2.0433,0.50763,0.80726,-37.62,2.7,-19.68
13.089,-0.24517,2.3291,-2.1197,0.33628,0.7028,-37.62,3.3,-19.32
11.768,1.1032,1.866,-2.1044,0.20403,0.63102,-37.74,3.96,-19.14
9.7113,2.7649,1.185,-1.9774,-0.021991,0.6127,-38.16,5.52,-18.6
8.2131,3.1191,1.0215,-1.8363,-0.0018326,0.58368,-38.34,6.54,-18.36
7.4776,3.3915,1.0624,-1.642,0.12798,0.50244,-38.46,7.44,-18.12
5.8295,4.0861,1.1169,-1.4041,0.36011,0.38698,-38.82,9.84,-17.52
5.1485,4.3177,0.8036,-1.0855,0.54672,0.21472,-39.0,10.86,-17.1
4.7263,4.2495,0.53119,-0.71044,0.53512,-0.020159,-39.18,11.88,-16.8
4.2223,4.3449,0.53119,-0.30024,0.38026,-0.31979,-39.36,12.84,-16.26
3.8954,4.2632,-0.28603,0.11637,0.15119,-0.61117,-39.6,13.86,-15.84
3.2825,4.0589,-0.027241,0.69242,-0.19731,-0.86712,-39.84,15.54,-15.3
3.0237,4.1814,0.88532,1.0385,-0.26756,-0.96333,-40.14,16.32,-15.06
4.2223,5.2166,1.7979,1.4038,-0.28894,-0.94776,-40.38,17.1,-14.7
12.163,4.3858,3.4732,1.8366,-0.32437,-0.69852,-40.92,17.52,-14.22
17.911,0.92618,3.909,2.1142,0.048564,-0.1576,-40.98,17.52,-14.22
19.327,-2.3427,4.699,2.1041,-0.024435,0.045509,-40.86,16.98,-14.28
19.532,-4.3858,4.6718,2.0601,0.46701,-0.16157,-40.38,15.6,-14.7
19.532,-3.8954,4.5083,2.1053,0.82039,-0.30971,-39.78,14.58,-14.94
19.532,-4.0452,3.8954,2.1066,0.58368,-0.36805,-39.12,13.74,-15.48
16.344,-5.2575,2.8603,2.2013,0.034208,-0.41142,-37.98,11.88,-16.62
14.764,-5.6524,2.5334,2.1756,-0.48075,-0.52321,-37.56,11.16,-17.16
9.6704,-5.7342,1.8251,2.1124,-0.61972,-0.49724,-36.96,10.2,-17.58
7.3277,-5.5299,1.8251,1.7654,-0.91935,-0.35827,-36.06,8.52,-18.36
5.3528,-5.3119,2.0294,1.467,-0.91721,-0.2419,-35.4,7.8,-18.66
3.5685,-5.1485,2.0022,1.1698,-0.79871,-0.13592,-34.98,6.96,-19.2
1.5391,-4.9033,1.9477,0.93646,-0.64843,-0.084299,-34.08,6.06,-19.86
0.61292,-5.094,1.5391,0.67501,-0.49052,-0.14019,-33.84,5.76,-20.04
-0.1362,-4.9714,0.8036,0.38118,-0.3882,-0.16218,-33.54,5.76,-20.22
0.01362,-4.9987,0.70826,-0.11087,-0.31154,-0.18754,-33.54,5.88,-20.04
0.16344,-5.1485,-0.44947,-0.28711,-0.26298,-0.17318,-33.9,6.06,-20.04
0.99429,-5.0259,-0.54481,-1.1005,0.0058032,0.088881,-34.32,6.0,-19.8
4.3858,-4.6445,3.2689,-1.5739,0.65271,0.7086,-35.16,6.0,-19.14
9.7658,-4.9987,5.6116,-1.7452,1.6845,1.595,-35.4,5.94,-18.9
18.96,-9.1529,4.7399,-1.7587,2.3265,1.7636,-35.82,6.12,-18.48
19.463,-9.9156,2.5879,-1.8344,1.5262,1.1008,-35.94,6.06,-18.3
19.532,-6.4424,1.6617,-1.5116,0.79321,0.59712,-36.0,6.3,-18.36
18.673,-3.514,1.471,-1.5253,0.58765,0.47953,-35.82,6.78,-18.48
16.385,-2.833,1.8387,-1.6011,0.13531,0.37202,-35.76,7.08,-18.48
13.375,-0.6674,1.9886,-1.8002,-0.37568,0.23976,-35.76,7.86,-18.48
11.468,0.95342,1.2395,-1.7846,-0.60812,0.19548,-35.94,8.4,-18.36
9.793,1.8115,0.51757,-1.7211,-0.73823,0.17746,-36.0,8.94,-18.36
8.5808,2.2065,0.27241,-1.6551,-0.53237,0.11515,-36.06,9.48,-18.06
5.9793,2.9011,0.19068,-1.5699,-0.08827,0.081551,-36.48,10.92,-17.7
5.4073,3.3234,0.17706,-1.4591,0.38087,0.096211,-36.72,11.7,-17.4
5.0259,3.8682,0.23155,-1.2477,0.61117,0.040928,-36.96,12.42,-17.1
4.5083,4.4402,0.027241,-0.98074,0.54734,-0.11362,-37.56,13.92,-16.2
4.4266,4.6445,-0.29965,-0.43555,0.15547,-0.44929,-37.8,14.7,-15.84
4.2495,4.6173,-0.31327,-0.028405,-0.091324,-0.6411,-37.98,15.36,-15.18
3.8954,4.4675,0.054481,0.39981,-0.29841,-0.77183,-38.64,16.38,-14.1
3.8001,4.2632,0.54481,0.85368,-0.34667,-0.91263,-38.94,16.8,-13.68
4.3177,4.9033,2.1248,1.5641,-0.29169,-0.88392,-39.24,17.22,-12.9
12.817,5.094,3.4732,2.0647,-0.15944,-0.60873,-39.12,16.92,-12.84
18.51,1.9886,3.8273,2.3891,-0.0082467,-0.31918,-38.88,16.56,-12.72
19.286,-0.85808,3.8954,2.3717,-0.76786,-0.18906,-38.22,16.08,-12.84
19.518,-4.0861,4.413,2.237,-0.91874,-0.48106,-37.56,15.54,-13.02
19.532,-3.514,4.1133,2.0947,-0.58704,-0.83108,-36.06,14.28,-13.62
19.246,-3.9227,3.4596,1.9691,-0.39615,-0.98807,-35.52,13.5,-13.92
14.478,-4.9987,2.5742,1.7871,-0.33659,-0.9838,-34.32,12.0,-14.76
11.387,-5.2575,2.0703,1.587,-0.21838,-0.87445,-34.02,11.28,-15.06
8.9622,-5.2575,1.58,1.4331,-0.12095,-0.79351,-33.66,10.5,-15.48
6.1019,-5.2575,1.2258,1.1881,-0.17837,-0.66248,-33.06,9.0,-16.08
4.8352,-5.203,1.2803,0.97097,-0.34086,-0.48106,-32.88,8.4,-16.38
3.7865,-5.1213,1.4982,0.73884,-0.53665,-0.25962,-32.64,7.68,-16.56
1.975,-5.2166,1.3348,0.43402,-0.70372,-0.01741,-32.22,6.9,-17.04
1.1577,-5.38,0.89894,0.18754,-0.75595,0.096517,-32.28,6.66,-16.98
0.84446,-5.4209,0.70826,-0.092852,-0.70555,0.16005,-32.76,6.6,-16.92
1.1441,-5.489,0.19068,-0.38729,-0.41172,0.1631,-33.54,6.42,-16.38
1.6753,-5.203,-0.38137,-0.77274,-0.13989,0.20464,-34.02,6.12,-16.08
2.7786,-4.9578,0.53119,-1.2101,0.29322,0.52198,-34.32,5.94,-15.78
9.5751,-5.203,4.1542,-1.5324,0.95264,1.0934,-34.8,5.7,-15.3
14.192,-5.9249,4.7671,-1.7697,2.1466,1.4853,-34.92,5.64,-15.06
19.177,-8.7987,4.0589,-2.0739,2.2318,1.379,-34.98,5.64,-14.82
19.518,-5.5843,2.2882,-1.8842,1.4059,0.85338,-34.5,5.76,-14.76
19.314,-3.0237,1.2939,-1.7666,0.91233,0.66432,-34.14,5.88,-14.82
17.72,-2.4789,0.98067,-1.7862,0.50763,0.56597,-33.9,6.06,-14.94
13.076,-0.31327,1.076,-1.9929,-0.16493,0.42791,-33.6,6.54,-14.64
11.536,1.1305,1.185,-2.0675,-0.51343,0.40042,-33.42,6.84,-14.76
10.706,1.9341,1.0624,-2.0345,-0.80359,0.40684,-33.24,7.26,-14.64
9.1937,3.1054,0.76274,-1.9471,-0.84605,0.46151,-33.24,7.5,-14.46
7.8181,3.4187,0.35413,-1.8634,-0.59682,0.51496,-33.3,7.98,-14.4
5.2983,3.5685,-0.19068,-1.7233,-0.17471,0.53939,-33.42,9.24,-13.86
4.7807,3.7592,-0.21793,-1.4594,0.60659,0.36927,-33.48,10.02,-13.38
4.9033,4.0316,-0.24517,-1.1921,0.76358,0.10599,-33.9,11.34,-12.54
4.8897,4.5083,-0.14982,-0.8433,0.57757,-0.21166,-34.14,11.88,-12.12
4.7263,4.7671,-0.027241,-0.41753,0.17226,-0.47403,-34.44,12.54,-11.64
3.9227,5.1485,0.23155,0.07758,-0.27917,-0.63011,-35.34,13.74,-10.68
3.732,4.8761,0.38137,0.58093,-0.52137,-0.78893,-35.82,14.4,-10.14
3.6911,4.7263,1.3076,1.0962,-0.42577,-0.94867,-35.94,15.0,-9.6
10.215,5.5707,2.4244,1.847,-0.36621,-0.85307,-36.48,15.42,-9.06
17.189,4.1406,2.9284,2.0504,-0.35339,-0.70799,-36.42,15.36,-8.94
19.246,0.6674,3.7728,2.3137,-0.34667,-0.45112,-36.3,15.18,-9.0
19.532,-3.3778,4.2087,2.2862,-0.69975,-0.61728,-35.46,14.52,-9.48
19.518,-3.2416,3.6775,2.1286,-0.01069,-0.93737,-35.04,14.22,-9.72
19.109,-2.6696,3.2008,2.0253,0.5901,-0.9447,-34.56,13.68,-10.2
15.364,-3.2144,2.9556,1.9832,0.43616,-0.86804,-33.72,12.54,-11.34
12.844,-3.9771,2.4244,1.9111,0.21808,-0.73395,-33.3,12.06,-11.94
11.278,-4.3858,1.9341,1.7651,0.0058032,-0.51435,-33.06,11.4,-12.54
7.7772,-4.7399,1.0079,1.6185,-0.25443,-0.33231,-32.52,9.9,-13.32
6.674,-4.6718,0.91256,1.4355,-0.57452,-0.22724,-32.22,9.18,-13.86
5.6524,-4.699,1.0079,1.248,-0.91324,-0.087354,-32.16,8.52,-14.4
3.1872,-4.9306,1.076,0.89278,-1.1594,0.19059,-31.8,7.38,-15.18
1.2803,-5.2847,0.83084,0.60415,-1.0895,0.34453,-31.98,7.14,-15.42
0.58567,-5.4073,0.6674,0.27519,-0.89431,0.42333,-32.16,6.96,-15.66
0.62654,-6.0883,0.64016,-0.065668,-0.49938,0.46517,-32.88,6.66,-15.66
1.2939,-6.279,-0.10896,-0.4612,-0.098044,0.48136,-33.3,6.54,-15.72
1.7979,-6.1292,-0.01362,-0.99999,0.17165,0.5681,-33.78,6.48,-15.72
5.9657,-6.5105,3.3915,-1.4566,0.94257,1.3186,-34.44,6.18,-15.42
12.013,-7.4095,4.413,-1.7312,1.2657,1.5595,-34.68,6.06,-15.42
16.508,-8.5536,4.304,-1.872,2.0717,1.7184,-34.86,6.06,-15.42
19.355,-9.7385,2.4925,-2.0745,1.6661,1.3952,-34.92,6.24,-15.54
19.532,-5.7614,0.92618,-1.9615,0.87109,0.98258,-35.1,6.6,-15.66
19.532,-4.2904,0.8036,-2.0461,0.46304,0.91752,-35.1,6.72,-15.78
16.794,-2.7241,0.61292,-2.2886,-0.36224,0.63744,-35.22,7.62,-15.78
13.77,-1.185,0.53119,-2.3824,-0.75595,0.48533,-35.1,8.04,-15.84
12.081,0.46309,0.69464,-2.3616,-0.7028,0.50183,-35.04,8.64,-15.72
7.464,2.3427,0.46309,-2.3039,-0.16463,0.54672,-35.34,10.02,-15.24
6.3743,2.833,0.61292,-2.131,0.41569,0.57757,-35.52,10.8,-14.94
6.17,3.3506,0.78998,-1.8671,0.78679,0.51954,-35.46,11.7,-14.58
6.4152,3.8818,0.53119,-1.4007,1.1102,0.22633,-35.58,13.68,-13.98
5.8295,4.2087,0.24517,-1.0424,0.96639,-0.016493,-35.7,14.64,-13.5
5.4209,4.6173,0.040861,-0.83627,0.79596,-0.14844,-35.82,15.6,-13.02
3.9227,5.4481,-0.095342,-0.18326,0.22663,-0.53726,-36.24,17.52,-12.36
3.1327,5.4481,-0.054481,0.27978,-0.1295,-0.69822,-36.42,18.42,-12.0
2.4925,5.1894,0.027241,0.75656,-0.42302,-0.7761,-36.54,19.26,-11.58
2.3291,4.6445,0.6674,1.1823,-0.48319,-0.87781,-36.84,20.34,-10.86
3.0237,5.3119,1.185,1.766,-0.22846,-0.99815,-37.14,20.76,-10.62
6.7421,7.1643,3.0918,2.2688,-0.11606,-0.6576,-37.26,20.88,-10.56
18.224,3.1191,4.9987,2.6625,0.19487,-0.043371,-37.2,20.34,-10.86
19.45,-4.127,6.6059,2.8081,-0.39004,0.135,-36.9,19.62,-11.22
19.518,-6.3062,5.993,2.7483,-1.171,-0.53726,-36.66,18.84,-11.82
19.532,-3.9908,3.5958,2.6206,-0.4612,-1.0953,-35.88,17.34,-12.96
19.532,-4.522,3.228,2.6108,-0.18051,-1.2303,-35.58,16.26,-13.56
18.524,-5.2166,2.9965,2.5336,-0.2251,-1.2565,-35.22,15.3,-14.16
14.451,-6.2245,2.6423,2.2975,-0.36957,-1.1536,-35.04,14.22,-14.7
11.441,-6.456,2.0567,1.8864,-0.57635,-0.9557,-34.74,13.2,-15.18
7.246,-6.2109,1.471,1.5791,-0.73304,-0.82925,-34.5,11.04,-15.96
5.38,-6.1019,1.4438,1.2804,-0.79596,-0.63835,-34.5,10.02,-16.44
3.0918,-5.9657,1.4165,1.0009,-0.75717,-0.41875,-34.44,9.0,-16.98
0.53119,-6.1019,0.98067,0.60689,-0.58307,-0.21747,-34.2,7.2,-17.64
-0.57205,-5.993,0.72188,0.44715,-0.50824,-0.18418,-34.08,6.42,-17.82
-0.83084,-5.8295,0.61292,-0.10965,-0.32559,-0.066584,-34.32,6.0,-18.06
-0.85808,-5.993,0.35413,-0.48014,-0.31734,0.098349,-34.98,5.1,-17.88
-0.5993,-6.1836,-0.61292,-0.81153,-0.26848,0.27733,-35.46,4.62,-17.64
1.0624,-6.3471,-0.19068,-1.5724,0.017104,0.86773,-35.94,4.2,-17.34
6.4969,-6.2109,3.0782,-1.8094,0.36744,1.2535,-36.9,3.84,-16.92
14.655,-6.8647,5.0259,-2.1121,1.9719,2.1096,-37.02,3.9,-16.62
18.932,-8.826,4.9169,-2.2425,2.8366,2.262,-37.44,3.78,-16.5
19.518,-6.9191,2.6151,-2.2104,2.317,1.5348,-37.74,3.96,-16.44
19.532,-3.5277,1.58,-1.828,2.0794,0.91172,-37.62,4.14,-16.56
18.51,-2.0431,1.6072,-1.7871,1.2923,0.57574,-37.56,4.74,-16.86
15.582,-1.185,1.7434,-1.8625,0.33537,0.36499,-37.56,5.28,-16.92
12.313,0.28603,1.6072,-1.9865,-0.081856,0.24801,-37.62,5.76,-17.1
11.291,1.0079,1.3893,-2.0284,-0.24221,0.18998,-37.5,6.42,-16.92
9.2618,2.4925,0.88532,-2.1225,-1.0146,0.22205,-37.62,8.28,-16.92
7.6138,2.942,0.6674,-2.0635,-1.3525,0.28466,-37.68,9.24,-16.8
4.4675,3.6366,0.65378,-1.9413,-1.0385,0.2926,-37.8,11.1,-16.56
3.0237,4.127,0.6674,-1.5834,0.32467,0.22694,-37.92,12.06,-16.2
2.9692,4.413,0.57205,-1.1903,1.0079,0.0562,-38.16,12.9,-15.84
3.4187,4.6718,0.27241,-0.72021,1.2288,-0.20067,-38.16,13.92,-15.36
4.4402,5.1485,-0.14982,-0.13653,0.8601,-0.47739,-38.46,15.66,-14.64
4.7944,5.0531,-0.19068,0.44685,0.13439,-0.6634,-38.76,16.38,-14.1
4.2904,4.3858,0.62654,0.98991,-0.51282,-0.81001,-38.88,17.1,-13.56
4.3177,4.9306,1.3484,1.7254,-0.73243,-1.0623,-39.36,17.94,-12.48
7.355,6.6195,2.4789,2.2064,-0.63988,-1.0186,-39.6,18.18,-12.06
11.332,6.8238,3.0782,2.6356,-0.38759,-0.72815,-39.78,17.88,-11.82
19.355,1.4165,5.1621,2.9123,-0.28161,-0.49755,-39.48,16.56,-11.52
19.504,-1.6617,5.5162,3.0452,-0.8714,-0.64446,-39.18,15.78,-11.7
19.532,-2.833,4.7807,3.0262,-0.8265,-1.1515,-38.82,14.88,-11.94
19.532,-4.5356,3.4459,2.8876,-0.21441,-1.3237,-37.92,12.96,-12.6
19.532,-4.7807,3.1735,2.6875,-0.11393,-1.3589,-37.68,12.0,-12.9
17.311,-5.2983,2.8603,2.3268,-0.20892,-1.2434,-37.44,10.92,-13.32
11.182,-6.1428,1.8387,2.0449,-0.24801,-1.0256,-36.96,8.82,-13.98
8.9213,-6.0611,1.471,1.7486,-0.3427,-0.8488,-36.78,7.8,-14.28
6.5786,-5.9249,1.4301,1.423,-0.49938,-0.68264,-36.78,6.6,-14.4
4.0861,-6.2517,1.7434,0.90103,-0.65668,-0.29932,-36.6,4.5,-14.88
2.1929,-6.4152,1.7843,0.56444,-0.67104,-0.075136,-36.54,3.66,-15.12
1.3212,-6.565,1.5527,0.21716,-0.65393,0.046426,-36.48,3.06,-15.18
-0.095342,-6.4152,0.9398,-0.10934,-0.624,0.06353,-36.6,2.64,-15.12
-0.8036,-5.775,0.89894,-0.416,-0.54459,0.084299,-37.32,2.04,-14.82
-0.74912,-5.5026,0.54481,-0.83658,-0.33506,0.32559,-37.74,1.86,-14.64
0.5993,-5.1213,-0.74912,-1.2352,-0.32529,0.61056,-38.76,1.44,-13.92
2.0158,-5.0531,0.10896,-1.6503,0.030238,1.2587,-39.12,1.26,-13.62
4.7671,-5.094,1.975,-2.0226,0.9896,2.0944,-39.42,1.2,-13.08
15.854,-6.5514,4.7399,-2.1231,2.1768,2.5446,-39.96,1.38,-12.54
19.068,-8.5672,4.0589,-2.3821,2.9667,2.4835,-40.08,1.56,-12.36
19.504,-6.3198,1.5119,-2.2688,1.73,1.2416,-40.14,2.4,-12.42
19.532,-2.656,1.0215,-2.2852,1.6399,0.96303,-39.9,3.0,-12.48
19.177,-1.9886,1.2803,-2.3521,0.96608,0.72357,-39.66,3.48,-12.6
17.761,-1.3212,1.4846,-2.3894,0.50549,0.58399,-39.6,4.14,-12.66
14.547,-0.081722,1.4165,-2.4688,-0.29749,0.38332,-39.6,4.8,-12.84
11.863,1.9205,0.81722,-2.4374,-0.7929,0.30543,-39.6,6.6,-12.9
8.9622,2.8194,0.6674,-2.3335,-1.0134,0.27886,-39.66,7.56,-12.78
6.7966,3.9499,0.92618,-2.0409,-0.36194,0.29383,-39.84,9.48,-12.42
4.8216,4.3449,0.92618,-1.7443,0.32223,0.28253,-39.96,10.44,-12.3
4.6445,4.7263,0.57205,-1.3723,0.80054,0.18876,-39.9,11.58,-12.18
4.7399,4.8897,0.14982,-0.9218,0.84696,-0.13073,-40.02,12.48,-11.94
4.9578,6.0611,-0.88532,-0.41081,0.39156,-0.54947,-40.2,14.28,-11.1
4.9033,6.0338,-0.55843,0.12217,-0.19609,-0.90775,-40.44,15.06,-10.68
4.4402,5.5162,0.01362,0.88178,-1.0534,-1.1949,-40.56,15.9,-10.44
3.1191,4.808,0.9398,1.1148,-1.124,-1.2712,-41.28,17.04,-9.6
3.909,5.5162,1.4574,1.6539,-0.96028,-1.3784,-41.4,17.28,-9.06
6.8919,6.279,2.3836,1.9771,-0.54611,-1.2168,-41.76,17.52,-8.7
17.311,4.3177,3.9635,2.2092,-0.046426,-0.90042,-41.94,16.98,-8.52
19.259,1.1986,5.2847,2.2804,0.23213,-0.70799,-41.82,16.5,-8.76
19.518,-1.3076,5.1213,2.3845,0.068111,-0.90286,-41.4,15.48,-9.42
19.532,-2.0431,4.5356,2.3992,0.54642,-1.1179,-41.22,14.82,-9.84
19.532,-2.9148,3.6775,2.3699,0.47098,-1.1133,-41.1,13.98,-10.44
18.891,-3.3915,3.3506,2.31,0.24526,-1.0443,-41.04,13.14,-10.92
13.934,-5.2302,2.3563,2.2468,0.10904,-0.86865,-41.04,11.22,-12.42
11.414,-5.9521,1.7434,2.1496,-0.071777,-0.66859,-40.98,10.14,-12.96
9.3163,-6.1836,0.9398,1.9908,-0.27306,-0.45571,-41.28,8.16,-13.92
6.0066,-6.4697,0.8717,1.6487,-0.5006,-0.11209,-41.34,7.14,-14.4
4.6309,-6.5105,1.0488,1.358,-0.56597,0.16402,-41.4,6.3,-14.94
3.3234,-6.3879,0.96704,1.0684,-0.55039,0.35766,-41.34,5.58,-15.3
1.9886,-6.0202,0.72188,0.76694,-0.49786,0.44563,-41.34,4.98,-15.6
0.21793,-5.4754,0.068102,0.4215,-0.44746,0.49969,-41.82,4.14,-15.96
0.027241,-5.38,0.16344,0.031765,-0.30879,0.52473,-42.3,3.84,-16.08
0.89894,-5.5571,-0.61292,-0.35766,-0.13775,0.58338,-43.02,3.3,-15.9
2.261,-5.38,-0.21793,-0.83994,-0.066279,0.63225,-43.44,3.06,-15.9
3.2144,-5.2847,0.72188,-1.3772,0.000611,0.87659,-43.62,2.94,-15.84
12.231,-5.3119,4.2495,-1.9994,0.77702,1.6408,-44.16,3.0,-15.3
18.428,-7.0553,4.3994,-2.1994,2.0085,1.9108,-44.4,3.18,-15.12
19.395,-8.7987,3.6094,-2.4829,2.0705,1.7309,-44.34,3.54,-15.06
19.532,-3.7047,1.2258,-2.3155,1.1851,0.94257,-44.16,4.32,-15.0
18.905,-2.438,0.70826,-2.1344,0.9896,0.65027,-43.98,4.68,-15.18
16.767,-1.8932,0.65378,-2.065,0.75686,0.4948,-43.92,5.28,-15.18
12.544,0.53119,0.8036,-2.0498,0.10934,0.37141,-43.56,6.54,-15.36
10.964,1.9477,0.76274,-1.9606,-0.19823,0.41722,-43.56,7.32,-15.42
10.052,3.2825,0.53119,-1.8216,-0.55314,0.49969,-43.56,7.98,-15.3
8.1858,3.514,-0.19068,-1.5916,-0.60873,0.44746,-43.62,9.36,-15.0
6.0474,3.7456,-0.51757,-1.434,-0.18143,0.32437,-43.68,10.14,-14.64
5.1076,3.9227,-0.47671,-1.2706,0.37415,0.23732,-43.8,11.16,-14.34
3.9227,4.2495,-0.21793,-1.0208,0.73701,0.087659,-43.98,12.9,-13.98
3.7728,4.2632,-0.21793,-0.73731,0.91019,-0.18295,-43.92,13.8,-13.68
3.6911,4.4539,-0.25879,-0.405,0.832,-0.4777,-43.98,14.64,-13.5
3.5685,4.522,-0.01362,0.0015272,0.54092,-0.66126,-43.98,15.48,-13.08
3.6094,4.3858,0.34051,0.69364,-0.1347,-0.79412,-44.46,16.92,-12.6
3.6094,4.1951,1.2258,0.93737,-0.29627,-0.8491,-44.7,17.82,-12.18
5.1213,5.0395,2.1248,1.6835,-0.5736,-0.89614,-44.76,18.06,-12.06
11.073,5.993,3.0373,2.2306,-0.61025,-0.69669,-44.64,18.24,-11.94
18.633,3.2553,3.3778,2.6001,-0.37782,-0.36652,-44.28,17.64,-11.94
19.504,-2.2474,5.3119,2.7083,-0.7028,-0.34667,-43.38,16.26,-12.48
19.532,-3.3097,5.1076,2.5821,-0.46212,-0.95906,-42.24,14.52,-13.44
19.532,-3.5822,3.7184,2.5027,0.31093,-1.098,-41.28,12.54,-14.28
17.979,-2.7922,2.3836,2.5085,0.54092,-1.1848,-40.38,10.68,-15.3
14.71,-3.2825,1.4165,2.5369,0.32193,-1.1493,-39.18,8.76,-16.02
12.299,-4.5764,1.185,2.419,-0.10263,-0.97525,-38.22,7.32,-16.92
9.6432,-5.0395,1.0896,2.1484,-0.52473,-0.74892,-37.44,5.88,-17.88
8.3765,-5.0804,1.1169,1.591,-0.92607,-0.50396,-37.14,5.22,-18.36
5.5162,-5.0668,1.6072,1.1991,-0.90439,-0.33811,-36.78,4.38,-19.14
3.3642,-5.0668,1.4982,0.83536,-0.71074,-0.17471,-36.78,3.96,-19.26
1.9613,-5.1213,1.3484,0.49847,-0.4218,-0.083689,-37.02,3.6,-19.38
1.1169,-5.1485,1.1577,0.17898,-0.15516,-0.0562,-37.14,3.24,-19.32
0.19068,-4.7671,1.2531,-0.13164,-0.009163,-0.10263,-37.8,2.76,-19.32
0.38137,-4.8761,1.3484,-0.55619,-0.14325,-0.12492,-37.98,2.34,-19.44
0.92618,-5.3528,0.40861,-0.89461,-0.47128,-0.085521,-38.22,1.98,-19.32
1.9205,-5.203,0.31327,-1.4322,-0.71868,0.19761,-38.58,1.74,-19.14
5.8704,-5.1349,2.9829,-1.8717,-0.44288,0.99602,-39.0,1.5,-19.08
9.4525,-5.3119,4.0316,-2.153,0.78069,1.7978,-39.42,1.32,-18.84
19.355,-9.1256,3.8001,-2.4086,2.1542,2.2941,-39.66,1.56,-18.3
19.491,-7.4367,2.5742,-2.1451,1.7611,1.1964,-39.72,1.68,-18.24
19.532,-4.0452,1.2803,-1.9337,1.6884,0.85827,-39.72,2.04,-18.24
19.368,-1.6753,0.92618,-1.7822,1.1643,0.56474,-39.42,2.88,-18.36
16.998,-0.7355,1.0624,-1.792,0.051924,0.44563,-39.24,3.42,-18.54
13.77,0.6674,1.2258,-1.8891,-0.49908,0.38393,-39.0,3.9,-18.48
11.427,2.3563,0.9398,-1.9761,-0.72052,0.31521,-39.0,4.98,-18.36
10.351,2.9148,0.7355,-1.9566,-0.77061,0.27061,-38.94,5.64,-18.3
7.9679,3.8682,0.35413,-1.9141,-0.58277,0.26328,-39.12,6.48,-18.06
5.5707,4.3858,0.40861,-1.836,-0.014966,0.25259,-39.18,7.38,-17.82
5.2983,4.4811,0.39499,-1.5666,0.83505,0.21808,-39.42,9.36,-17.46
4.9578,4.4811,0.16344,-1.3164,1.0562,0.10873,-39.48,10.32,-17.4
4.2768,4.3994,-0.28603,-1.0049,0.95539,-0.097738,-39.66,11.94,-17.04
3.9499,4.4947,-0.46309,-0.47831,0.4612,-0.39554,-39.84,12.78,-16.92
3.2416,4.699,-0.58567,-0.27214,0.2193,-0.44807,-40.08,13.5,-16.68
2.9284,4.5083,-0.25879,0.35369,-0.56505,-0.49022,-40.62,14.76,-15.9
2.9829,4.1951,0.12258,0.79321,-0.82711,-0.55344,-41.04,15.3,-15.48
2.9556,4.2632,0.47671,1.1939,-0.71746,-0.6127,-41.28,15.84,-15.24
9.8611,6.2517,2.1384,1.678,-0.5284,-0.52718,-41.58,16.2,-14.94
14.56,5.598,2.7377,2.3402,-0.14447,-0.19517,-41.52,16.02,-14.94
19.205,1.6481,4.3858,2.4951,-0.27275,-0.13775,-40.56,15.06,-15.18
19.518,-2.9965,4.2495,2.5647,-0.65943,-0.38668,-39.84,14.34,-15.48
19.532,-3.7728,3.7047,2.4578,-0.25717,-0.69547,-39.18,13.56,-15.78
19.532,-3.5413,2.8194,2.3283,0.10751,-0.75075,-38.52,13.14,-16.08
18.387,-2.9284,2.1248,2.1646,-0.01069,-0.78527,-37.74,11.52,-16.86
15.146,-3.9635,2.3155,1.7791,-0.27794,-0.60628,-37.38,10.8,-17.1
10.474,-4.699,1.9613,1.6255,-0.31185,-0.52687,-36.72,9.06,-17.7
8.0632,-4.6037,1.5663,1.2462,-0.30513,-0.36194,-36.48,8.16,-18.0
6.2245,-4.5492,1.3484,1.0125,-0.29688,-0.28314,-36.24,7.38,-18.36
4.7399,-4.6309,1.3757,0.79474,-0.35308,-0.18815,-35.76,5.94,-18.9
3.6366,-4.7671,1.3212,0.57727,-0.49114,-0.066279,-35.7,5.4,-19.14
2.9965,-4.8761,1.1577,0.354,-0.65882,0.014661,-35.7,5.16,-19.38
1.7025,-4.9033,1.1169,-0.020159,-0.90561,0.049786,-36.42,4.86,-19.32
1.4301,-5.094,0.98067,-0.29719,-0.94501,0.10446,-36.9,4.74,-19.08
1.3076,-5.1621,1.0351,-0.59071,-0.7645,0.16554,-37.38,4.56,-18.84
1.3348,-5.38,-0.31327,-0.90897,-0.50916,0.20067,-38.4,4.14,-18.12
2.1112,-5.1485,0.21793,-1.3244,-0.17165,0.38485,-38.82,3.96,-17.76
3.7047,-5.1485,1.4029,-1.7251,0.4835,1.0791,-39.3,3.78,-17.4
13.961,-5.8704,3.8954,-1.9743,1.1548,1.7672,-39.9,3.9,-16.8
18.755,-8.1858,3.8954,-2.1386,2.2147,2.0598,-40.14,4.2,-16.5
19.436,-8.3765,3.2144,-2.3259,2.4248,1.945,-40.26,4.5,-16.44
19.532,-3.8682,1.9886,-1.9917,1.1191,1.2352,-40.32,5.16,-16.32
18.919,-2.833,1.5255,-1.897,1.0318,1.0739,-40.14,5.52,-16.26
16.889,-1.4029,1.4029,-1.8751,0.65027,0.87995,-39.9,6.48,-15.96
12.626,1.7706,0.6674,-1.9145,-0.015577,0.70769,-39.96,7.14,-15.9
11.155,2.942,0.28603,-1.9096,-0.51588,0.66401,-39.96,7.98,-15.72
10.12,3.5004,0.10896,-1.8662,-0.74067,0.62308,-40.08,8.88,-15.66
6.8102,4.3449,-0.19068,-1.7504,-0.59071,0.58643,-40.14,10.8,-15.42
5.4754,4.5764,-0.1362,-1.5962,0.014661,0.53573,-40.2,11.94,-15.12
4.9033,4.6309,-0.16344,-1.3271,0.48686,0.4102,-40.08,13.14,-14.88
4.8352,4.9033,-0.25879,-0.85552,0.78649,-0.053451,-40.08,15.42,-14.46
4.7671,4.9306,-0.53119,-0.4496,0.64232,-0.47373,-39.96,16.32,-14.16
4.699,4.7807,-0.61292,-0.25045,0.48594,-0.64294,-39.9,17.16,-13.68
4.4811,4.4402,-0.7355,0.31307,-0.20403,-0.90378,-40.08,18.84,-12.78
4.2632,4.1951,-0.095342,0.65699,-0.66432,-1.0479,-40.32,19.68,-12.42
4.413,4.8352,0.70826,1.003,-1.0119,-1.1661,-40.62,20.28,-11.94
8.7715,5.9112,2.4108,1.6548,-1.2135,-0.99021,-40.98,20.58,-11.28
16.767,4.1133,2.9284,1.883,-1.127,-0.87629,-41.22,20.34,-10.98
18.837,2.1248,2.9284,2.2462,-0.82925,-0.7477,-41.16,19.92,-10.74
19.518,-2.2746,2.9829,2.4456,-0.65118,-0.87629,-40.86,18.54,-10.8
19.532,-3.2553,2.942,2.4398,-0.27917,-1.1533,-40.68,17.76,-11.04
19.532,-4.1814,2.8875,2.3494,-0.0054978,-1.1057,-40.38,16.8,-11.28
17.557,-4.9033,2.0022,2.2932,0.12065,-1.1179,-39.9,14.76,-11.94
15.445,-5.1621,1.7162,2.2776,0.17807,-1.1011,-39.72,13.74,-12.36
11.346,-5.4481,1.0624,2.1835,0.2248,-0.95509,-39.72,12.72,-12.78
8.0224,-5.7069,0.98067,1.9022,0.092546,-0.64691,-39.54,10.56,-13.56
6.4016,-5.5571,1.1986,1.6215,-0.061087,-0.4777,-39.24,9.48,-13.8
4.4266,-5.4073,1.5391,1.31,-0.18357,-0.2926,-39.12,8.52,-14.22
2.3155,-5.0531,1.4438,0.88117,-0.29016,-0.03146,-38.64,6.96,-15.06
1.4982,-4.9033,1.1169,0.60262,-0.35125,0.058338,-38.46,6.42,-15.54
0.47671,-4.7535,0.65378,0.43799,-0.39645,0.092546,-38.52,6.0,-15.78
-0.50395,-4.5764,0.65378,-0.07758,-0.46578,0.12645,-38.46,5.4,-16.02
-0.40861,-4.808,0.16344,-0.4328,-0.47464,0.2697,-38.64,4.98,-16.2
0.36775,-4.985,-0.40861,-0.85185,-0.53206,0.50305,-38.94,4.86,-16.26
3.8273,-5.6524,1.6072,-1.2361,-0.37415,0.99449,-39.54,4.32,-15.96
6.1973,-6.1019,2.3972,-1.6692,0.96456,1.9737,-39.84,4.2,-15.84
12.449,-6.9872,3.2144,-1.7171,1.5418,2.0803,-40.02,4.26,-15.78
19.395,-9.1665,1.9477,-1.8922,2.471,1.7514,-39.96,4.5,-15.48
19.518,-6.674,0.92618,-1.646,1.7944,1.1035,-39.9,4.68,-15.42
19.532,-3.8001,0.19068,-1.5879,1.3131,0.80817,-39.78,4.86,-15.36
17.693,-2.0839,0.21793,-1.6628,0.64568,0.53237,-39.6,5.58,-15.48
13.593,-0.42223,0.081722,-1.9288,-0.048564,0.2251,-39.6,6.18,-15.54
12.204,0.54481,0.25879,-2.0543,-0.12278,0.20311,-39.42,6.66,-15.66
10.447,2.4653,0.19068,-2.0519,-0.21044,0.1967,-39.54,7.32,-15.78
8.9894,3.8682,-0.095342,-1.9135,-0.72571,0.2306,-39.72,8.94,-15.66
7.1915,3.9227,-0.6674,-1.7727,-0.88484,0.22755,-39.84,9.6,-15.54
5.4481,3.8273,-0.84446,-1.5244,-0.54734,0.22816,-39.84,11.46,-15.18
3.1872,4.2223,-0.6674,-1.2816,0.015272,0.1405,-39.78,12.42,-14.88
3.0373,4.2495,-0.58567,-0.97677,0.48717,-0.10934,-39.9,13.2,-14.52
3.2961,4.2087,-0.47671,-0.6127,0.64599,-0.45662,-40.08,14.04,-14.22
3.5004,4.2359,-0.44947,-0.19517,0.52107,-0.69791,-40.2,14.88,-14.04
3.8273,4.0316,-0.47671,0.23152,0.15333,-0.83658,-40.74,16.26,-13.44
4.0589,3.7047,-0.081722,0.63958,-0.41142,-1.051,-41.04,16.86,-12.9
5.1894,5.1621,1.185,0.99602,-0.51771,-1.1225,-41.58,17.52,-12.3
8.1995,6.3335,2.0975,1.7153,-0.62033,-1.0843,-41.7,17.52,-12.0
14.533,6.1292,2.7513,2.1631,-0.32712,-0.86529,-41.7,17.4,-11.82
19.368,1.4165,2.9965,2.3934,-0.13225,-0.68417,-41.52,16.56,-11.64
19.518,-0.57205,3.1191,2.5149,-0.090408,-0.87079,-41.28,16.08,-11.76
19.532,-1.185,2.6968,2.587,0.28253,-1.2459,-41.04,15.36,-12.0
19.532,-1.4846,1.6072,2.5293,0.24618,-1.3555,-40.44,13.68,-13.08
17.829,-1.471,1.362,2.4508,0.06017,-1.3769,-40.2,12.6,-13.68
16.29,-1.6072,1.2667,2.0669,-0.36408,-1.2657,-39.96,11.58,-14.22
13.089,-2.8467,1.3076,1.8696,-0.60781,-1.0739,-39.9,10.56,-14.64
9.0575,-4.8352,1.4438,1.7156,-0.9279,-0.80787,-39.78,8.28,-15.66
6.6604,-5.9657,1.5391,1.5476,-1.1161,-0.54306,-39.66,7.2,-16.14
5.3937,-6.7693,1.5663,1.317,-1.1078,-0.34208,-39.66,6.24,-16.32
4.2087,-7.7364,1.5391,0.88301,-0.84025,-0.18479,-39.6,4.5,-16.8
3.6639,-7.75,1.1713,0.57238,-0.67195,-0.13408,-39.66,3.72,-16.86
3.0782,-7.5729,0.96704,0.23854,-0.55497,-0.087048,-39.9,3.06,-17.04
1.5936,-6.7012,0.58567,-0.10415,-0.44624,-0.014966,-40.5,1.86,-16.68
1.1169,-6.4288,0.69464,-0.45235,-0.29871,0.054672,-40.92,1.5,-16.56
1.1032,-6.0883,-0.7355,-0.81795,-0.15394,0.091935,-41.4,1.08,-16.2
1.471,-5.1349,-0.7355,-1.5302,0.10812,0.56505,-42.12,0.48,-15.6
3.3234,-4.5356,1.1441,-1.9227,0.64904,1.5812,-42.36,0.12,-15.3
7.5729,-3.9908,2.4789,-2.0711,1.5886,2.4236,-42.72,0.12,-14.94
15.119,-5.2711,3.7592,-1.9609,2.7938,2.967,-42.78,0.36,-14.7
19.463,-7.5865,1.2939,-2.2822,2.1484,2.5867,-42.72,1.02,-14.4
19.532,-4.0997,-0.70826,-1.9441,1.2,1.306,-42.54,1.44,-14.58
19.532,-1.1169,-0.96704,-1.959,1.3124,1.1371,-41.82,2.58,-14.88
17.734,-0.23155,-0.27241,-2.2126,0.3149,0.80268,-41.52,3.24,-15.24
15.99,0.31327,0.095342,-2.4196,-0.30604,0.64752,-41.28,3.96,-15.42
12.544,2.2474,0.28603,-2.4987,-0.70616,0.54275,-40.86,5.58,-15.78
10.746,3.0237,0.081722,-2.456,-0.93279,0.46792,-40.68,6.48,-15.66
8.5263,3.514,-0.054481,-2.3912,-0.72998,0.41325,-40.5,8.58,-15.3
5.1485,4.3177,0.25879,-2.1741,0.30452,0.41814,-40.44,9.72,-15.12
4.5356,4.6445,0.54481,-1.9007,1.0116,0.42608,-40.38,10.98,-14.82
4.5356,4.6718,0.35413,-1.5507,1.379,0.30879,-40.2,12.06,-14.58
4.808,4.7126,-0.21793,-1.1594,1.2291,0.041844,-39.9,14.16,-13.98
4.8625,5.1757,-0.38137,-0.71777,0.73701,-0.20617,-39.96,15.0,-13.68
4.5901,5.2847,-0.44947,-0.21564,0.10629,-0.36255,-40.02,15.84,-13.14
4.0316,5.1076,-0.054481,0.54031,-0.52351,-0.57879,-40.5,17.34,-12.42
3.909,5.5026,0.54481,1.0296,-0.48778,-0.75839,-40.74,17.94,-11.94
4.6445,6.0883,0.8717,1.5299,-0.38576,-0.83597,-40.74,18.48,-11.64
14.628,5.8976,2.2746,2.0345,-0.41905,-0.8882,-40.74,18.84,-11.16
18.864,3.6911,2.3836,2.4331,-0.5397,-1.0205,-40.5,18.72,-11.28
19.45,1.0488,2.6696,2.6276,-0.97189,-0.98288,-40.2,18.3,-11.58
19.532,-3.1054,3.2144,2.5296,-0.31337,-1.1438,-39.42,17.1,-12.54
19.532,-4.3449,3.0918,2.4685,-0.062308,-1.2556,-39.06,16.32,-13.2
19.164,-5.0395,2.1384,2.299,0.56322,-1.2721,-38.7,15.36,-13.8
14.969,-3.7184,1.2667,2.2709,0.65607,-1.2394,-38.4,13.44,-14.94
11.959,-4.3177,0.89894,2.2306,0.3992,-1.0302,-38.16,12.48,-15.48
9.9837,-4.7399,0.7355,2.1075,0.055283,-0.75167,-37.92,11.4,-16.08
7.0281,-4.7671,0.7355,1.7966,-0.39676,-0.42455,-37.5,9.3,-16.8
5.5162,-4.7126,0.88532,1.6579,-0.53756,-0.33811,-37.32,8.22,-17.28
4.3994,-4.7807,1.0896,1.3595,-0.79199,-0.14997,-37.26,7.14,-17.7
3.2689,-4.6718,1.0896,1.0421,-0.94837,0.0033598,-36.96,6.18,-18.06
2.4517,-4.6445,1.0624,0.55467,-0.85124,0.135,-36.96,5.28,-18.24
1.1032,-4.8625,0.81722,0.19609,-0.67042,0.16005,-37.02,4.56,-18.42
1.1032,-4.8625,0.81722,-0.1628,-0.4105,0.11851,-37.02,4.56,-18.42
2.2201,-5.0259,-0.24517,-0.71929,-0.038179,0.1066,-37.26,3.6,-18.0
3.2825,-4.808,0.24517,-1.1863,0.10293,0.27642,-37.74,2.7,-17.1
4.127,-4.699,1.1713,-1.5635,0.52657,0.90194,-38.04,2.58,-16.8
7.4231,-4.6037,2.7241,-1.7596,1.2046,1.638,-38.28,2.16,-16.2
15.677,-6.4833,3.3097,-1.8017,1.9444,1.9548,-38.58,2.04,-15.48
19.286,-8.4446,2.5198,-2.0128,2.3182,1.8066,-38.46,2.28,-15.24
19.532,-4.6718,0.70826,-1.6298,1.1744,1.2123,-38.1,2.88,-14.88
19.532,-3.3642,0.054481,-1.5733,0.99846,0.97769,-37.92,3.72,-15.0
17.489,-1.8796,0.32689,-1.6182,0.55955,0.73365,-37.26,4.56,-15.3
14.07,-0.99429,1.0215,-1.715,0.13989,0.58826,-36.78,5.52,-15.72
11.373,2.1384,0.92618,-1.7853,-0.10385,0.52809,-36.42,6.48,-15.96
9.9565,3.337,0.19068,-1.7804,-0.45021,0.53603,-36.3,7.44,-15.96
9.0984,3.7047,-0.35413,-1.7211,-0.91813,0.56872,-36.18,7.92,-15.78
6.2654,4.2223,-0.92618,-1.5763,-0.72815,0.63561,-36.36,8.82,-15.36
4.9306,4.4402,-0.69464,-1.4731,-0.021686,0.562,-36.54,9.96,-14.82
4.5492,4.4402,-0.53119,-1.295,0.68111,0.40073,-36.78,10.98,-13.86
4.2495,4.5764,-0.7355,-1.0376,0.99082,0.18448,-36.96,11.58,-13.5
4.3449,4.4402,-1.1305,-0.70616,0.99052,-0.09163,-37.56,12.78,-12.6
4.5356,4.3177,-1.0079,-0.34575,0.71777,-0.37049,-37.86,13.8,-12.24
4.6582,4.3449,-0.85808,0.018326,0.15974,-0.68509,-37.92,14.1,-12.0
4.6445,3.9908,-0.12258,0.60079,-0.14875,-0.80909,-37.8,14.76,-11.52
5.2847,4.6718,1.0624,1.0266,-0.38515,-0.90286,-37.8,14.82,-11.52
7.3414,5.6524,1.975,1.485,-0.47525,-0.92332,-37.74,14.64,-11.34
14.642,5.9385,3.2553,1.9361,-0.55039,-0.86621,-37.14,13.92,-11.64
19.45,0.98067,4.1678,2.2684,-0.84513,-0.686,-36.24,12.42,-12.06
19.504,-1.1577,4.1951,2.3118,-1.0018,-0.3934,-35.64,11.7,-12.3
19.532,-4.2495,4.8625,2.2355,-0.49816,-0.87476,-34.44,10.26,-12.72
18.932,-4.3449,3.8682,2.186,0.31521,-1.0525,-33.3,9.0,-13.2
15.091,-2.9692,2.5334,2.302,0.98624,-1.0767,-32.22,7.98,-13.62
14.015,-3.2825,1.9613,2.4703,1.0296,-0.92668,-31.32,7.02,-14.22
11.278,-4.5356,1.6617,2.5033,0.57391,-0.63072,-30.72,6.66,-14.46
8.4174,-5.0123,1.471,2.3903,-0.032987,-0.41356,-29.82,6.06,-15.24
6.3743,-5.3119,1.471,2.0024,-0.76908,-0.23305,-29.76,6.0,-15.42
4.304,-5.6933,1.7025,1.6163,-1.0269,-0.11668,-29.7,6.0,-15.9
2.9829,-5.6661,1.8251,1.2171,-1.1063,-0.0094684,-29.82,6.18,-16.2
1.4165,-5.7478,1.6481,0.77855,-1.0214,0.10476,-30.48,6.36,-16.38
-0.20431,-5.5571,0.76274,0.31887,-0.90744,0.24343,-31.02,6.12,-16.44
-0.54481,-5.4481,0.70826,-0.12217,-0.7929,0.35705,-31.26,5.88,-16.32
0.095342,-5.6524,0.40861,-0.69303,-0.44135,0.51252,-31.86,5.58,-15.96
1.6889,-5.7886,-1.0624,-1.135,-0.36224,0.64324,-32.4,5.52,-15.6
2.3563,-5.8159,0.65378,-1.609,-0.26389,1.0394,-32.82,5.46,-14.88
5.5707,-5.7614,2.6423,-1.9123,0.35583,1.7391,-33.06,5.52,-14.64
15.01,-6.3879,4.2495,-1.981,1.6414,2.2061,-33.0,5.64,-14.16
19.246,-7.2733,2.7513,-1.8634,2.7223,2.1967,-32.88,6.18,-13.8
19.504,-5.8704,1.6208,-1.5605,1.8302,1.3723,-32.64,6.48,-13.56
19.532,-3.3234,0.54481,-1.3705,1.1035,1.0134,-32.1,7.2,-13.56
18.796,-2.1656,0.85808,-1.4071,0.6805,0.74984,-31.68,8.1,-13.62
17.094,-1.4165,1.0079,-1.5006,0.12187,0.35186,-31.26,8.46,-13.8
13.866,0.01362,1.0896,-1.6423,-0.18234,0.17868,-30.72,9.24,-14.04
11.496,1.5391,0.54481,-1.6924,-0.44379,0.076053,-30.36,10.14,-14.04
8.9349,2.3563,-0.10896,-1.6121,-0.87781,-0.017104,-30.3,11.04,-13.92
6.6876,2.7377,-0.68102,-1.5415,-0.64599,-0.076053,-30.42,11.64,-13.8
4.5083,3.1463,-0.8036,-1.4297,0.026878,-0.076358,-30.54,12.54,-13.26
4.2768,3.8001,-0.35413,-1.2795,0.77244,-0.087354,-31.08,13.5,-12.6
4.4402,3.9499,-0.29965,-1.0299,1.1918,-0.21136,-31.26,13.92,-12.24
4.8761,4.4402,-0.5993,-0.66859,1.0632,-0.43494,-31.86,14.76,-11.52
4.6445,4.699,-1.0624,0.047953,0.28344,-0.79748,-32.46,15.42,-10.8
4.3449,4.6173,-1.0624,0.50916,-0.22633,-0.93707,-32.76,15.78,-10.5
4.5083,3.9635,-0.69464,0.94867,-0.48045,-1.1011,-33.36,16.2,-9.96
4.3177,3.7456,0.39499,1.3326,-0.45907,-1.2373,-33.54,16.14,-9.66
7.0281,5.5026,1.9068,1.7095,-0.39492,-1.3033,-33.54,15.72,-10.02
9.5206,6.1155,2.2882,2.0959,-0.2813,-1.2034,-33.48,15.36,-10.2
18.428,4.413,3.6639,2.419,-0.21564,-0.87934,-33.0,14.04,-10.56
19.463,0.081722,4.7535,2.5162,-0.27092,-0.25717,-31.92,12.48,-11.4
19.532,-1.866,5.0259,2.4517,-0.58307,-0.49999,-31.32,11.76,-11.7
19.532,-2.8058,4.4811,2.2978,-0.33598,-0.79474,-30.36,10.56,-12.42
19.259,-3.5685,3.3097,2.1542,0.15272,-0.82131,-29.58,9.36,-13.08
16.862,-4.1678,1.7706,2.0336,0.29352,-0.75717,-28.74,8.22,-14.04
13.729,-6.3471,0.99429,1.704,-0.082772,-0.30329,-28.14,7.44,-14.76
11.237,-7.4503,0.96704,1.3848,-0.478,-0.012523,-27.84,7.08,-15.0
7.4231,-7.75,1.2395,1.0837,-0.78038,0.1631,-27.48,6.66,-15.3
4.9987,-7.3141,1.2667,0.85521,-0.87904,0.2135,-27.42,6.72,-15.6
2.547,-6.7148,0.84446,0.6744,-0.82406,0.19975,-28.08,6.9,-15.78
0.76274,-5.5843,0.43585,0.5116,-0.73304,0.19426,-28.92,6.9,-15.78
-0.027241,-4.2223,0.12258,0.24954,-0.66798,0.091019,-29.82,6.84,-15.9
-0.20431,-3.7728,-0.10896,-0.023213,-0.75992,0.062614,-30.18,6.72,-15.78
-0.51757,-4.1542,-0.16344,-0.3879,-0.82742,0.25076,-30.78,6.48,-15.36
-0.44947,-4.5356,-0.91256,-0.92363,-0.68386,0.56658,-31.26,6.24,-15.3
0.77636,-4.7944,0.61292,-1.511,-0.037874,0.99449,-31.92,6.36,-14.94
5.6661,-5.094,3.8273,-1.9835,0.98227,1.7962,-32.52,6.48,-14.64
10.801,-5.7886,4.9306,-2.237,2.1713,2.4206,-32.7,6.66,-14.58
18.156,-7.4095,5.2166,-2.2434,2.8097,2.499,-32.88,6.96,-14.64
19.504,-6.3743,2.8603,-2.1982,2.3207,1.3442,-32.52,7.98,-15.24
19.532,-4.0316,1.9886,-2.0259,2.1484,0.80084,-32.4,8.34,-15.3
19.205,-1.4438,1.6753,-1.9853,2.252,0.51282,-31.98,9.24,-15.48
17.843,-0.57205,1.8387,-1.9132,1.6298,0.11851,-31.68,9.78,-15.84
13.77,1.1713,1.7298,-1.8714,1.0379,-0.088881,-31.26,10.92,-16.26
11.196,2.2882,0.54481,-1.7904,0.12095,-0.2251,-30.84,12.3,-16.86
9.7249,2.942,0.21793,-1.6955,-0.57421,-0.2926,-30.66,12.9,-17.22
7.464,3.6503,-0.01362,-1.6203,-0.95936,-0.29138,-30.36,14.28,-17.4
5.5571,4.018,-0.17706,-1.4691,-0.99449,-0.2193,-30.36,15.54,-17.46
2.9965,4.1406,-0.40861,-1.2486,-0.73823,-0.20342,-30.84,16.68,-17.04
2.1929,4.1814,-0.44947,-0.93798,-0.32742,-0.28253,-30.96,17.28,-16.86
1.471,4.522,-0.23155,-0.56169,0.19334,-0.39798,-31.56,18.3,-16.62
2.6696,4.4402,-0.027241,0.10568,0.62186,-0.56902,-32.04,18.9,-16.2
3.7047,4.2359,0.01362,0.55131,0.38454,-0.63499,-32.46,19.26,-16.08
4.3449,3.8273,0.39499,0.96059,-0.13622,-0.71319,-32.88,19.74,-15.78
5.5162,5.1213,1.58,1.3393,-0.66523,-0.8097,-33.54,19.74,-15.54
7.7091,6.0474,2.2474,1.759,-1.1322,-0.75106,-33.78,19.44,-15.6
17.42,4.6718,3.2553,2.1496,-1.1503,-0.48411,-34.2,17.94,-15.78
19.273,1.3348,4.1814,2.4514,-0.8375,-0.15791,-34.2,17.1,-15.9
19.532,-2.2474,4.9169,2.5235,-0.16982,-0.32437,-33.84,15.12,-16.5
19.532,-3.3915,4.5083,2.496,0.42669,-0.69578,-33.12,13.02,-17.22
19.532,-4.3858,3.9363,2.4132,0.38607,-0.75992,-32.34,10.86,-18.24
19.532,-4.9578,3.514,2.2822,-0.25137,-0.90225,-31.98,9.96,-18.6
14.383,-6.6195,2.1248,2.1368,-0.7984,-1.0357,-31.38,8.04,-19.32
10.229,-6.9328,1.3893,1.9279,-1.0098,-0.98563,-31.32,7.14,-19.86
8.145,-6.8374,0.99429,1.5727,-0.8882,-0.86957,-31.2,6.12,-20.16
4.1542,-6.279,1.1577,1.2712,-0.56474,-0.72785,-31.02,4.32,-20.7
2.8875,-5.7069,1.2531,0.9893,-0.29474,-0.49999,-30.9,3.66,-20.88
1.7706,-5.2847,1.1713,0.75198,-0.16402,-0.31307,-30.9,3.06,-21.06
0.65378,-5.2575,0.55843,0.48778,-0.1347,-0.19975,-31.32,2.22,-21.06
0.38137,-5.1485,0.29965,0.13439,-0.2532,-0.065363,-31.74,1.68,-20.94
0.24517,-5.0531,0.31327,-0.44532,-0.41233,0.14691,-32.4,1.26,-20.88
0.28603,-5.38,-0.76274,-0.82711,-0.41294,0.30024,-33.6,0.42,-20.4
0.74912,-5.3119,-0.46309,-1.3735,-0.42608,0.59407,-34.26,-0.06,-20.04
3.6094,-5.3392,1.8932,-2.007,0.31124,1.7969,-35.34,-0.66,-19.62
11.496,-6.0066,4.1542,-2.2006,1.4991,2.4172,-35.58,-0.9,-19.32
16.998,-7.6274,4.6037,-2.1667,2.2037,2.5763,-35.76,-0.96,-19.14
19.45,-9.4661,1.9886,-2.2645,2.1102,2.23,-35.88,-0.54,-18.96
19.532,-5.8295,0.95342,-2.1038,1.3082,1.2382,-35.82,-0.3,-19.02
19.532,-3.4868,0.29965,-2.0855,0.96944,0.75014,-35.76,0.66,-19.02
16.699,-0.76274,0.96704,-2.1588,0.092241,0.3879,-35.64,1.2,-19.14
13.184,0.61292,1.0896,-2.251,-0.27917,0.14019,-35.7,1.86,-19.26
11.387,1.58,1.1305,-2.2422,-0.41386,0.083994,-35.76,2.64,-19.32
8.7715,3.8001,1.0624,-2.1716,-0.58796,0.13439,-35.7,4.68,-19.32
7.8589,4.4811,1.0624,-2.0467,-0.76664,0.17898,-35.64,5.82,-19.32
6.7557,4.8352,0.96704,-1.8381,-0.70158,0.16952,-35.82,6.9,-19.26
4.127,5.1349,0.54481,-1.5904,-0.014355,0.067501,-36.18,8.88,-18.84
3.2689,5.1076,0.39499,-1.2785,0.23549,0.011912,-36.3,9.96,-18.6
2.9011,5.0804,0.28603,-0.66279,0.62033,-0.2923,-36.54,10.92,-18.24
2.8058,4.9442,0.38137,-0.1741,0.44135,-0.54795,-37.08,12.42,-17.7
3.3097,4.6445,0.47671,0.33109,0.090713,-0.72388,-37.38,13.08,-17.4
3.8273,4.0725,0.64016,0.7929,-0.26542,-0.82925,-37.56,13.74,-17.1
4.7944,4.6718,1.9341,1.4474,-0.72418,-0.99205,-38.34,14.52,-16.5
7.5729,5.5843,2.7377,2.0085,-0.78649,-0.956,-38.46,14.64,-16.08
10.869,5.38,2.7786,2.4954,-0.30391,-0.66493,-38.7,14.4,-15.78
19.273,-0.83084,2.3155,2.6493,0.35125,-0.33567,-38.94,13.08,-15.36
19.504,-3.0101,3.2825,2.6802,0.21533,-0.39951,-38.82,12.18,-15.3
19.532,-3.3097,3.7184,2.6124,0.37538,-0.63866,-38.58,11.16,-15.36
19.532,-3.6775,3.0646,2.5675,0.52046,-0.6857,-37.86,9.12,-16.14
19.205,-4.0452,2.547,2.4908,0.23671,-0.78374,-37.5,7.98,-16.44
15.514,-4.8352,1.8524,2.3451,0.040317,-0.77427,-37.26,6.72,-16.8
12.503,-5.094,1.5119,2.1292,-0.13836,-0.67684,-36.84,5.58,-17.1
8.3629,-5.0395,1.2258,1.8372,-0.40378,-0.55161,-36.36,3.18,-17.7
6.8919,-4.7535,1.3484,1.5091,-0.70036,-0.41386,-36.24,1.92,-18.0
5.4481,-4.6037,1.4982,1.2013,-0.93798,-0.25351,-36.0,0.72,-18.24
3.0237,-4.5083,1.3893,0.83078,-1.1619,-0.15455,-35.76,-1.2,-18.78
1.9341,-4.6037,1.0215,0.57421,-1.2315,-0.20097,-35.58,-1.8,-18.9
1.4165,-4.7399,0.92618,0.27764,-1.2358,-0.23396,-35.4,-2.28,-19.02
0.92618,-5.0259,0.83084,-0.065668,-1.0684,-0.21136,-35.82,-3.0,-18.84
0.92618,-5.3256,0.77636,-0.40195,-0.76022,-0.028405,-36.18,-3.24,-18.66
1.2531,-5.6933,0.054481,-0.82894,-0.34025,0.19028,-36.72,-3.6,-18.3
4.3721,-5.6933,2.1656,-1.4514,0.63469,0.94531,-37.86,-3.9,-17.58
8.7987,-5.6797,3.2825,-1.6515,1.4902,1.4957,-38.16,-3.9,-17.28
12.994,-6.0474,3.3234,-1.69,1.9178,1.6084,-38.64,-3.9,-17.1
18.987,-7.7364,2.0567,-1.7724,2.0366,1.3955,-39.06,-3.9,-16.92
19.532,-3.732,0.068102,-1.4511,1.062,1.0119,-39.3,-3.42,-16.44
19.341,-2.2474,-0.17706,-1.3344,0.5455,0.84819,-39.48,-3.24,-16.44
16.903,-1.6617,0.14982,-1.4074,-0.087659,0.74464,-39.54,-2.64,-16.38
14.615,-0.38137,-0.040861,-1.5223,-0.4499,0.6692,-39.54,-2.34,-16.56
13.334,0.25879,-0.14982,-1.5846,-0.54092,0.64752,-39.66,-1.92,-16.62
9.6432,1.8251,-0.57205,-1.6664,-0.65424,0.62369,-39.78,-0.78,-16.56
8.1177,2.3699,-0.99429,-1.6646,-0.49602,0.56994,-39.9,-0.06,-16.44
7.0553,2.6968,-1.076,-1.6558,-0.11515,0.51862,-40.08,0.84,-16.26
6.0202,3.2144,-0.50395,-1.595,0.70983,0.43707,-40.44,2.46,-16.14
5.7614,3.514,-0.23155,-1.4239,1.0174,0.28314,-40.8,3.24,-15.96
5.5026,3.6639,-0.19068,-1.1719,1.0733,0.018021,-41.1,4.14,-15.66
5.4754,3.7865,-0.83084,-0.8433,0.83841,-0.34789,-41.64,5.94,-15.18
5.3528,3.6639,-1.0624,-0.5006,0.4948,-0.60415,-42.0,6.6,-14.88
5.1485,3.5958,-0.8036,-0.13073,0.065668,-0.84299,-42.36,7.44,-14.52
4.0997,3.2825,0.31327,0.45815,-0.29749,-1.1985,-43.08,8.88,-13.98
3.6094,3.2553,0.77636,0.88423,-0.18479,-1.332,-43.32,9.48,-13.68
4.7944,4.7535,1.7706,1.1344,-0.12859,-1.3054,-43.62,9.84,-13.62
14.383,5.2983,1.8932,1.8115,0.29993,-0.86529,-43.68,9.9,-13.92
18.796,2.0567,2.4517,2.0403,0.24435,-0.39004,-43.44,9.48,-14.04
19.45,-0.99429,3.7592,2.0895,-0.19487,-0.083994,-43.02,9.06,-14.46
19.532,-3.3778,4.2632,2.0452,-0.79168,-0.35522,-42.0,8.1,-15.42
19.518,-2.9284,3.4051,2.0177,-0.281,-0.57941,-41.46,7.74,-15.9
18.919,-2.4517,2.9284,2.0327,-0.000305,-0.69455,-40.86,7.02,-16.44
14.996,-3.0646,1.8932,2.1005,0.31276,-0.74587,-40.08,5.64,-17.4
12.653,-3.9499,1.5119,2.0354,0.11454,-0.58887,-39.66,4.92,-18.0
10.243,-4.6445,1.2258,1.9083,-0.12737,-0.46304,-39.12,4.14,-18.54
6.4152,-4.8352,0.9398,1.6802,-0.34941,-0.39187,-38.52,2.4,-19.38
5.3119,-4.8761,0.99429,1.2828,-0.52901,-0.27153,-38.28,1.74,-19.92
3.3506,-4.7807,0.99429,1.139,-0.53726,-0.21625,-37.98,0.96,-20.22
1.4438,-4.7807,0.64016,0.72418,-0.53634,-0.20311,-37.44,-0.12,-20.58
0.46309,-4.8761,0.14982,0.39767,-0.51771,-0.15058,-37.44,-0.48,-20.88
0.10896,-4.985,0.14982,0.02474,-0.43219,-0.056505,-37.5,-0.78,-20.88
-0.14982,-5.5026,0.14982,-0.3882,-0.2926,0.1011,-37.92,-1.62,-20.64
0.39499,-5.6524,-0.49033,-1.0889,0.13225,0.34667,-38.1,-2.04,-20.58
1.2531,-5.5707,0.12258,-1.3573,0.30818,0.5058,-38.46,-2.46,-20.46
4.0452,-5.1213,2.6832,-1.8091,0.73304,1.1396,-38.76,-2.76,-20.4
16.671,-5.8023,4.1133,-2.0968,1.4532,2.0073,-38.88,-2.88,-19.98
19.177,-7.9679,3.2553,-2.3335,1.9859,2.0204,-39.0,-2.76,-19.98
19.491,-6.9328,2.2474,-2.2184,1.2446,1.5892,-38.88,-2.7,-20.1
19.532,-2.8467,0.57205,-1.7846,1.0015,0.94226,-38.4,-2.22,-20.22
19.477,-2.261,0.46309,-1.6994,0.69669,0.6353,-38.1,-1.86,-20.34
18.347,-1.7298,0.70826,-1.6872,0.37721,0.4835,-37.86,-1.56,-20.58
13.062,0.38137,0.58567,-1.7263,-0.19181,0.23732,-37.5,-0.36,-21.0
10.964,1.185,0.28603,-1.7688,-0.36255,0.1292,-37.38,0.3,-21.18
9.4117,1.7706,0.20431,-1.8222,-0.41539,0.052534,-37.5,0.9,-21.3
6.5786,2.9284,0.38137,-1.8521,-0.1967,0.030238,-37.38,2.64,-21.42
5.5707,3.4868,0.50395,-1.7373,0.30635,0.086743,-37.2,3.48,-21.42
5.3528,3.4732,0.46309,-1.6432,0.43097,0.10079,-37.14,4.38,-21.42
5.1621,3.4868,0.25879,-1.263,0.66768,-0.079412,-37.32,6.18,-21.54
4.985,3.7728,0.32689,-0.90591,0.63011,-0.35613,-37.5,6.96,-21.3
4.9442,3.9771,0.64016,-0.45784,0.68386,-0.62705,-37.62,7.74,-21.18
4.9306,4.0044,0.5993,0.28955,0.78588,-0.99479,-38.22,9.24,-20.94
4.7807,4.1814,0.7355,0.53481,0.67806,-1.1084,-38.46,9.9,-20.82
4.8352,4.6718,1.2803,1.2565,0.16493,-1.3714,-38.76,10.5,-20.82
7.0553,7.0145,2.0567,1.7486,-0.3598,-1.3738,-38.88,10.74,-20.76
13.035,7.355,3.8273,2.2009,-1.1121,-1.0849,-39.06,10.68,-20.82
16.072,4.0316,3.9227,2.5094,-1.8338,-0.60445,-38.76,10.56,-21.0
18.973,-1.1713,4.1678,2.5055,-1.0553,-0.32406,-38.4,10.26,-21.18
19.532,-2.9965,4.1951,2.5009,0.042761,-0.5003,-37.74,9.24,-21.6
19.532,-2.4789,3.7865,2.5406,0.49327,-0.70127,-37.26,8.58,-21.9
18.714,-2.2746,3.0646,2.5244,0.53267,-0.71899,-36.78,7.8,-22.2
16.671,-2.833,2.6696,2.4642,0.36011,-0.67165,-36.48,6.96,-22.56
11.605,-3.8546,1.7434,2.3146,0.1237,-0.51954,-35.76,4.98,-23.28
9.2074,-4.0316,1.4438,1.9282,-0.10568,-0.27978,-35.4,3.9,-23.64
6.0202,-3.9363,1.1441,1.7703,-0.16829,-0.21197,-34.98,1.86,-24.12
4.9306,-3.9499,1.4165,1.4169,-0.25045,-0.071166,-34.86,1.02,-24.24
3.9499,-4.1542,1.5391,1.0748,-0.42699,0.11942,-34.74,0.24,-24.24
2.833,-4.2495,1.58,0.5904,-0.63988,0.27367,-34.68,-0.42,-24.3
0.8036,-4.7126,0.99429,0.24007,-0.78007,0.35308,-34.68,-1.32,-24.36
0.35413,-4.9169,0.61292,-0.2813,-0.46945,0.34392,-34.98,-1.74,-24.24
1.1305,-5.6933,0.054481,-0.45479,-0.28314,0.31032,-35.58,-2.34,-24.12
1.7434,-5.4618,-0.54481,-0.89492,-0.083689,0.33537,-35.88,-2.58,-23.88
2.4517,-5.0804,0.6674,-1.4285,-0.083383,0.64049,-36.24,-2.76,-23.7
8.4582,-5.2302,3.8546,-1.978,0.72204,1.7675,-36.9,-2.88,-23.22
15.35,-6.674,4.7671,-2.0821,1.7138,2.3314,-37.2,-2.58,-23.04
19.273,-9.2891,3.5413,-2.4584,2.1063,2.2556,-37.38,-2.16,-22.86
19.532,-5.1485,1.3212,-2.0253,1.4224,1.2394,-37.56,-1.14,-22.62
19.532,-2.8058,0.78998,-1.9612,1.262,0.92516,-37.56,-0.6,-22.62
19.395,-2.1929,1.0215,-2.0259,0.55803,0.63561,-37.44,-0.06,-22.8
15.963,-0.96704,1.6344,-2.1536,-0.10934,0.40134,-37.32,0.6,-22.8
11.891,0.61292,1.6344,-2.2715,-0.3427,0.25137,-37.44,2.28,-22.8
10.106,1.5119,0.96704,-2.3488,-0.58643,0.11912,-37.38,3.24,-22.86
8.0496,2.9011,0.58567,-2.3097,-0.57208,0.16127,-37.62,5.34,-22.74
6.7285,3.228,0.58567,-2.1893,-0.25504,0.17379,-37.86,6.48,-22.68
5.4754,3.4323,0.50395,-2.0928,0.02138,0.13531,-38.22,7.74,-22.5
4.3585,3.623,0.83084,-1.6622,0.81031,-0.085216,-38.46,10.14,-22.08
3.8409,3.7865,0.8036,-1.2584,0.98899,-0.281,-38.64,11.16,-21.9
3.3234,4.2495,0.74912,-0.77061,0.71746,-0.51649,-38.76,12.24,-21.66
3.1191,4.7399,0.10896,0.023213,-0.033598,-0.85765,-39.24,13.98,-21.12
3.2144,4.7671,0.10896,0.50335,-0.41508,-1.0098,-39.48,14.76,-20.82
3.7047,4.7263,0.61292,0.7254,-0.60812,-1.0821,-39.96,15.54,-20.58
8.0769,7.1779,2.6968,1.4154,-1.4746,-1.1878,-40.5,16.5,-20.04
14.097,6.9191,2.833,1.7923,-1.4325,-1.1661,-40.8,16.5,-19.8
18.687,3.8409,3.4459,2.0574,-0.77672,-0.82833,-41.04,16.2,-19.44
19.518,-1.362,4.6309,2.2752,-0.14172,-0.967,-40.8,15.0,-19.56
19.532,-1.6072,3.8954,2.562,0.30482,-1.1328,-40.44,14.04,-19.56
19.532,-1.3484,3.4323,2.7596,0.60873,-1.1661,-40.02,13.08,-19.74
17.979,-2.1656,3.2553,2.6799,0.19578,-0.97555,-39.18,10.8,-20.22
16.086,-3.051,3.0101,2.5113,-0.07758,-0.75533,-38.76,9.54,-20.52
13.321,-3.8273,2.2065,2.3179,-0.16768,-0.59437,-38.58,8.04,-20.7
9.6432,-4.3585,1.3484,2.105,-0.18082,-0.39523,-37.98,5.4,-20.88
8.2403,-4.3994,1.0896,1.7297,-0.16341,-0.21564,-37.62,3.9,-20.94
6.1155,-4.6445,0.81722,1.4566,-0.086743,-0.0082467,-37.32,2.52,-20.88
3.9227,-5.2302,0.6674,1.1881,-0.0012217,0.17257,-36.78,0.18,-20.82
2.9284,-5.5843,0.32689,0.90316,-0.033292,0.28588,-36.54,-0.72,-20.88
2.0022,-5.7886,0.054481,0.58063,-0.20311,0.35064,-36.18,-1.32,-21.0
0.81722,-5.6661,0.40861,-0.057421,-0.69608,0.44166,-36.12,-2.34,-20.64
0.5993,-5.8295,0.65378,-0.5397,-0.81153,0.43616,-36.24,-2.64,-20.34
0.85808,-6.0474,-0.43585,-1.0492,-0.74862,0.56505,-36.36,-2.94,-19.92
1.5391,-5.598,0.24517,-1.3641,-0.67806,0.71288,-36.66,-3.0,-19.44
7.8045,-4.7126,3.9908,-1.9639,-0.27733,1.7223,-37.2,-3.06,-18.72
16.317,-7.1234,2.4789,-2.3308,0.80329,2.1188,-37.44,-2.82,-18.3
19.137,-9.2618,1.5119,-2.7336,1.9487,1.963,-37.68,-2.46,-18.0
19.532,-3.7865,1.0079,-2.3057,1.2639,0.98227,-38.22,-1.56,-17.76
19.532,-2.3155,0.76274,-2.2083,1.1561,0.85491,-38.28,-1.02,-17.46
18.673,-1.7298,0.74912,-2.0171,0.71563,0.57971,-38.28,-0.6,-17.34
15.119,-0.095342,0.83084,-1.9697,0.30452,0.44318,-38.46,0.78,-17.1
12.803,0.8036,0.50395,-1.9352,0.15547,0.38729,-38.76,1.56,-16.92
10.392,1.866,0.01362,-1.8607,-0.0054978,0.24862,-39.3,3.48,-16.56
8.5672,2.9965,0.054481,-1.8173,0.0064141,0.15272,-39.42,4.5,-16.44
7.2188,3.5413,0.29965,-1.7291,0.026267,0.10599,-39.72,5.52,-16.26
6.6876,3.7047,0.39499,-1.6612,0.035736,0.093157,-39.9,6.42,-16.08
5.8567,3.9227,0.44947,-1.368,0.19731,-0.010079,-39.84,7.5,-15.9
4.9169,4.0452,0.24517,-1.0715,0.24832,-0.20708,-40.02,9.66,-15.72
4.1542,4.1406,0.040861,-0.71532,0.16585,-0.59956,-40.32,10.44,-15.54
2.9965,4.4402,0.027241,-0.050091,0.036957,-0.80848,-40.26,12.0,-15.0
2.5334,4.3994,0.1362,0.41844,-0.13347,-0.92852,-40.44,12.72,-14.76
2.7513,4.1951,0.35413,0.63927,-0.1967,-0.96425,-40.62,13.26,-14.46
4.0316,4.6445,1.1305,1.2578,-0.3375,-1.1032,-40.98,14.1,-14.16
6.4424,6.0611,1.3893,1.6887,-0.3879,-1.018,-41.04,14.28,-13.98
13.661,6.6467,2.1384,2.0577,-0.17226,-0.5901,-41.04,14.16,-13.74
19.314,1.6753,4.1542,2.4086,0.025962,-0.18509,-40.86,13.14,-13.62
19.518,-1.8115,4.2632,2.5415,-0.56749,-0.67012,-40.56,12.54,-13.86
19.532,-2.6423,3.6366,2.5097,-0.37477,-1.0189,-40.14,11.94,-14.1
19.246,-2.9692,2.8467,2.5045,0.26481,-1.0165,-39.78,11.16,-14.34
16.154,-2.0703,1.9613,2.5681,0.51313,-1.0513,-39.24,9.36,-14.7
14.969,-3.0782,1.7025,2.5806,0.25626,-0.91569,-38.7,8.4,-15.0
13.416,-4.1814,1.4438,2.2929,-0.54428,-0.54,-38.58,7.44,-15.42
9.1256,-4.7671,1.2531,2.149,-0.78771,-0.46059,-37.86,5.58,-15.78
7.0145,-4.7944,1.1577,1.605,-1.1332,-0.3711,-37.56,4.74,-16.08
5.7342,-4.9033,1.2531,1.2074,-1.0675,-0.1744,-37.26,3.84,-16.14
2.9829,-5.1757,1.4438,0.79596,-0.79962,0.12004,-36.78,2.16,-16.56
1.8251,-5.2575,1.2667,0.42302,-0.51954,0.35247,-36.66,1.56,-16.74
0.83084,-5.2983,0.98067,0.0562,-0.36194,0.52046,-36.36,1.32,-16.8
-0.095342,-4.985,0.51757,-0.26848,-0.29719,0.57941,-36.24,0.72,-16.8
0.12258,-4.9033,0.68102,-0.60659,-0.25381,0.70005,-36.36,0.6,-16.68
0.68102,-5.1485,-0.081722,-0.91752,-0.17623,0.8543,-36.54,0.48,-16.5
2.438,-4.6445,-0.12258,-1.4789,-0.28283,1.1945,-36.78,0.24,-16.26
6.7285,-4.6854,1.866,-1.7972,0.20831,1.9102,-37.02,0.36,-15.96
18.02,-7.8317,3.4459,-2.0003,1.5944,2.5571,-36.84,1.02,-15.6
19.355,-9.1665,2.8603,-2.0855,2.678,2.4169,-37.02,1.38,-15.66
19.504,-6.8374,1.2258,-1.5678,2.0617,1.3671,-37.02,1.8,-15.72
19.532,-3.7047,-0.081722,-1.3625,1.9148,1.0287,-36.84,2.4,-15.9
18.428,-1.1032,-0.40861,-1.2306,0.90347,0.53726,-36.12,3.66,-16.2
15.377,-0.53119,0.027241,-1.3076,-0.20739,0.26512,-35.76,4.26,-16.44
12.667,-0.095342,0.1362,-1.4792,-0.66493,0.13103,-35.52,4.98,-16.56
9.5615,1.2258,0.28603,-1.6261,-0.78557,0.05681,-35.04,6.54,-16.86
8.54,1.8524,0.28603,-1.7251,-0.88178,0.038179,-34.86,7.32,-16.92
7.4503,2.2474,-0.21793,-1.7645,-0.82467,0.036346,-34.8,8.04,-16.86
5.2847,2.7513,-0.35413,-1.6689,-0.23091,-0.069028,-34.5,9.78,-16.62
4.2223,3.1599,-0.19068,-1.4813,0.29993,-0.17471,-34.38,10.5,-16.56
3.6366,3.6911,-0.28603,-1.2187,0.82039,-0.33537,-34.38,11.34,-16.44
3.8409,4.1542,-0.61292,-0.65088,1.0498,-0.7025,-34.44,12.6,-15.96
3.8954,4.5356,-0.70826,-0.20983,0.73518,-0.93157,-34.38,13.14,-15.6
3.6775,4.5492,-0.8036,0.22785,0.32467,-1.055,-34.38,13.44,-15.54
3.4459,4.5628,-0.44947,0.61392,0.037874,-1.1121,-34.56,13.74,-15.3
3.9227,5.0395,0.9398,1.0058,-0.14722,-1.171,-34.98,14.16,-14.82
7.1779,6.5378,2.0839,1.42,-0.26634,-0.92852,-35.22,14.1,-14.76
17.706,4.3449,3.4187,1.8912,-0.14569,-0.72693,-35.28,13.5,-14.82
19.314,0.54481,4.413,2.3405,-0.17043,-0.21961,-34.98,12.96,-14.94
19.504,-2.1248,4.6718,2.4468,-0.34331,-0.2865,-34.5,12.3,-15.18
19.532,-2.833,4.0725,2.5879,0.24526,-0.7703,-33.6,10.74,-15.96
19.532,-2.7649,3.7047,2.598,0.72113,-0.72143,-33.12,9.9,-16.32
18.973,-3.1599,2.6151,2.6029,0.38912,-0.61789,-32.1,8.04,-17.4
15.214,-4.8352,1.9886,2.4853,0.069944,-0.43402,-31.56,7.02,-17.88
11.509,-5.38,1.3893,2.3943,-0.084299,-0.35033,-31.26,6.0,-18.36
9.9292,-5.2847,1.0215,2.1533,-0.405,-0.2303,-30.96,5.1,-18.6
5.6388,-4.8761,0.8036,1.6603,-0.71838,-0.098044,-30.3,3.42,-19.2
4.1678,-4.8897,1.1169,1.274,-0.821,0.082772,-30.06,2.58,-19.38
2.9011,-5.0259,1.0624,0.88362,-0.85765,0.3427,-29.64,1.02,-19.8
0.19068,-5.5707,0.70826,0.26206,-0.821,0.50732,-29.76,0.54,-19.86
-0.85808,-5.598,0.58567,-0.16677,-0.79596,0.56474,-29.94,0.06,-19.98
-1.4438,-5.6797,0.47671,-0.37538,-0.73182,0.57177,-30.18,-0.18,-20.04
-1.2531,-6.0883,0.12258,-0.95845,-0.36805,0.63591,-30.84,-0.6,-19.62
-0.24517,-6.0883,-0.78998,-1.3812,-0.22755,0.79443,-31.2,-0.72,-19.56
1.2258,-5.4481,0.29965,-1.8665,0.11301,1.2498,-31.44,-0.9,-19.32
8.9758,-6.279,3.732,-2.2,0.89186,2.2773,-32.16,-1.02,-18.9
18.51,-9.3163,4.1542,-2.5699,2.6814,2.3812,-32.34,-0.84,-18.72
19.286,-9.9292,3.4323,-2.5879,2.2938,1.9044,-32.46,-0.48,-18.6
19.518,-5.5026,1.2803,-2.2871,1.682,1.46,-32.7,-0.18,-18.54
19.532,-1.866,0.14982,-1.908,0.99357,0.55619,-32.58,0.78,-18.36
18.156,-1.3484,0.85808,-1.9991,0.58338,0.24496,-32.76,1.5,-18.54
15.732,-0.7355,1.2395,-2.1078,0.000916,-0.088575,-32.7,2.34,-18.48
11.741,1.0215,1.0215,-2.2911,-0.27,-0.19151,-32.52,4.08,-18.12
10.651,1.866,0.76274,-2.3344,-0.48442,-0.20128,-32.52,4.92,-18.06
9.9837,2.3155,0.51757,-2.3167,-0.63591,-0.19059,-32.52,5.82,-18.12
8.1858,3.1463,0.21793,-2.1454,-0.74403,-0.078496,-32.52,6.9,-18.0
5.4618,3.732,-0.12258,-1.9196,-0.36682,-0.032681,-32.64,8.76,-17.52
4.3177,3.8682,-0.027241,-1.408,0.46548,-0.08827,-32.58,9.84,-17.22
3.7047,4.1133,-0.19068,-0.93065,0.76602,-0.32437,-32.76,11.76,-16.68
3.4323,4.9033,-0.5993,-0.66432,0.82894,-0.47128,-32.82,12.54,-16.5
3.3642,5.203,-0.68102,-0.11484,0.66645,-0.75411,-32.76,13.32,-16.14
3.2144,5.2575,-0.61292,0.68845,-0.098349,-0.91477,-32.88,13.98,-15.78
2.9011,4.4402,0.70826,1.1811,-0.44593,-0.99327,-32.94,14.88,-15.24
3.0782,4.6718,1.5119,1.6652,-0.52229,-1.1084,-33.12,14.88,-15.0
6.1564,5.775,2.6015,2.19,-0.49541,-1.0464,-33.18,14.82,-14.82
17.965,4.304,2.6696,2.5763,-0.15638,-0.79504,-33.24,14.28,-14.58
19.341,0.29965,3.6911,2.7336,0.6634,-0.46548,-33.0,13.92,-14.58
19.504,-2.1112,4.6445,2.9471,-0.092241,-0.51924,-32.76,13.26,-14.76
19.532,-2.4108,4.5083,2.9428,-0.052229,-0.92577,-31.98,11.7,-15.48
19.532,-2.9011,3.732,2.8983,0.21961,-1.0088,-31.56,10.68,-15.9
16.658,-3.5549,2.7377,2.8503,0.12248,-1.0394,-31.14,9.78,-16.2
13.484,-4.4811,2.0975,2.7162,-0.055283,-0.92516,-30.66,7.98,-16.92
11.278,-5.0531,1.7843,2.4746,-0.25107,-0.72388,-30.66,6.84,-17.22
9.7113,-5.2983,1.6617,1.9804,-0.6353,-0.44868,-30.6,5.82,-17.64
5.38,-5.2983,1.3484,1.6228,-0.72876,-0.2923,-30.48,3.9,-18.06
4.4266,-5.2438,1.4438,1.2715,-0.69089,-0.11668,-30.42,3.3,-18.36
2.7104,-5.5162,1.4029,0.79962,-0.5507,0.076358,-30.36,2.58,-18.54
0.76274,-5.8023,0.81722,0.48991,-0.44899,0.14203,-30.42,1.38,-18.84
-0.1362,-5.7205,0.76274,0.14844,-0.33231,0.16218,-30.72,0.78,-18.84
-0.51757,-5.6661,0.47671,-0.20892,-0.24465,0.21075,-31.14,0.42,-18.72
-0.44947,-5.9385,0.36775,-0.58368,-0.30696,0.30757,-32.04,0.24,-18.42
0.24517,-6.1155,-1.1169,-0.97433,-0.35583,0.50427,-32.64,-0.12,-18.18
1.4029,-5.7614,-0.49033,-1.5009,-0.48778,1.1976,-33.18,-0.3,-17.88
9.5887,-5.775,3.1327,-2.0559,0.41539,2.1032,-34.14,-0.42,-17.34
17.529,-7.7227,3.7728,-2.2177,2.3066,2.7266,-34.5,-0.06,-17.34
19.028,-9.616,3.3778,-2.5177,2.8054,2.6166,-34.74,0.24,-17.16
19.532,-3.623,0.50395,-1.9899,2.2764,1.4728,-34.98,1.44,-17.1
19.532,-2.1248,0.36775,-1.7156,2.2174,0.7871,-35.04,1.98,-17.22
19.3,-1.0624,0.5993,-1.6744,1.3295,0.63041,-34.86,2.58,-17.34
15.514,0.14982,1.2803,-1.7431,-0.21838,0.44349,-34.8,4.2,-17.46
13.539,1.0488,1.362,-1.8372,-0.56139,0.24374,-34.62,5.1,-17.52
12.122,1.7843,0.99429,-1.8411,-0.686,0.17776,-34.5,5.94,-17.64
9.4798,2.6832,0.19068,-1.8231,-1.051,0.027489,-34.8,7.8,-17.46
6.8374,3.4323,-0.19068,-1.7791,-0.92485,-0.06353,-34.8,8.82,-17.34
4.5356,4.413,0.095342,-1.6979,-0.38149,-0.10263,-34.68,9.84,-17.16
4.3449,4.7399,0.35413,-1.5724,0.33048,-0.069333,-34.98,11.88,-16.68
4.7263,4.3721,0.53119,-1.1658,0.9218,-0.10873,-34.86,12.84,-16.44
4.9578,4.1678,0.50395,-0.75564,0.80695,-0.3653,-35.1,13.62,-16.2
4.6037,3.8001,-0.35413,-0.27489,0.44257,-0.65882,-35.4,14.7,-15.6
4.3313,3.6366,-0.53119,0.22327,-0.019853,-0.85155,-35.52,15.42,-15.0
4.2768,3.4459,-0.53119,0.68386,-0.39584,-1.0281,-35.82,15.96,-14.7
3.8682,3.5413,0.38137,1.2795,-0.46517,-1.2233,-36.66,16.44,-14.1
5.2166,4.7944,1.1032,1.6955,-0.47709,-1.1994,-37.08,16.44,-13.74
9.1529,5.5571,1.7706,1.9325,-0.44074,-1.0812,-37.32,16.2,-13.5
16.058,4.4402,2.0567,2.4517,0.15699,-0.47647,-37.26,15.72,-13.5
19.477,-1.8524,3.4187,2.5711,-0.12614,-0.24893,-36.66,14.34,-13.8
19.532,-2.7513,3.4187,2.5962,-0.1689,-0.67256,-36.42,13.68,-14.22
19.532,-1.866,2.5879,2.5256,0.32987,-0.99357,-35.34,11.82,-14.88
18.755,-1.9613,2.2474,2.4752,0.48717,-1.0974,-34.98,10.86,-15.24
17.543,-2.3699,2.0294,2.4209,0.39034,-1.0715,-34.56,9.96,-15.6
13.348,-3.9499,1.6481,2.0992,0.017715,-0.76389,-33.96,8.16,-16.44
11.073,-4.3858,1.1713,1.8604,-0.29169,-0.60964,-33.78,7.02,-16.8
8.8805,-4.5356,0.7355,1.616,-0.58154,-0.52565,-33.3,4.92,-17.34
5.7069,-4.7807,0.77636,1.1704,-0.84269,-0.343,-33.18,3.96,-17.52
4.5083,-4.8761,0.89894,0.83322,-0.88942,-0.15516,-32.82,3.0,-17.88
3.2008,-4.9987,1.0215,0.67134,-0.86712,-0.033292,-32.88,2.34,-18.06
1.0351,-4.8897,0.92618,0.20495,-0.66493,0.29566,-32.94,1.62,-18.0
-0.10896,-4.7807,0.69464,-0.085521,-0.48106,0.40225,-33.24,1.14,-18.0
-0.095342,-4.9169,0.5993,-0.36316,-0.27214,0.49633,-33.54,0.72,-17.76
0.8717,-5.598,-0.49033,-0.63622,-0.06689,0.52382,-34.5,0.18,-17.04
1.4846,-5.0259,-0.92618,-0.99846,-0.072388,0.59284,-34.86,0.18,-16.62
2.0703,-4.985,-0.16344,-1.5162,-0.021991,0.90988,-35.16,-0.24,-16.2
11.155,-5.2847,4.3177,-2.0314,0.83902,2.1475,-35.82,-0.6,-15.48
18.251,-7.464,4.9306,-2.2028,2.314,2.6646,-35.88,-0.6,-15.3
19.382,-9.793,3.3506,-2.4716,2.4343,2.3973,-36.0,-0.3,-15.24
19.532,-3.1191,1.2667,-1.5763,1.4704,0.81459,-36.06,0.36,-15.12
19.532,-2.0431,-0.23155,-1.4914,1.5269,0.52107,-36.24,0.9,-15.06
18.006,-1.4438,-0.10896,-1.5052,1.0244,0.28711,-36.0,1.38,-15.12
13.184,-0.1362,0.70826,-1.6897,-0.2022,0.14783,-35.94,2.52,-15.3
11.387,0.61292,0.78998,-1.8671,-0.38149,0.070555,-36.0,3.18,-15.3
10.161,1.7979,0.64016,-1.9642,-0.56963,-0.013134,-36.0,3.9,-15.36
8.54,3.1054,0.16344,-2.0052,-0.91141,-0.066584,-36.24,5.34,-15.72
7.1234,3.514,-0.095342,-1.9554,-0.87812,-0.13439,-36.42,5.94,-15.84
5.4754,3.9635,-0.23155,-1.9288,-0.64782,-0.13622,-36.6,6.84,-15.9
3.228,4.2904,-0.19068,-1.7153,0.21197,-0.096211,-36.84,8.4,-15.54
2.9965,4.2087,-0.27241,-1.4523,0.63102,-0.17746,-37.2,9.24,-15.3
3.0237,4.2087,-0.50395,-1.1154,0.7364,-0.40348,-37.5,9.72,-15.0
3.5685,4.2359,-0.40861,-0.46395,0.22052,-0.68264,-37.98,10.86,-14.34
3.8818,4.127,-0.28603,0.0085521,-0.24771,-0.78588,-38.04,11.22,-13.98
4.0316,3.8682,0.19068,0.49633,-0.62308,-0.89461,-38.4,11.64,-13.5
3.909,4.5628,1.2122,0.95295,-0.73487,-0.95936,-39.18,11.94,-12.72
7.2869,5.9521,1.8796,1.4508,-0.62461,-0.86682,-39.36,12.0,-12.54
13.511,6.4833,2.4789,1.9584,-0.03543,-0.58765,-39.48,11.82,-12.3
19.3,2.5742,4.018,2.6011,0.22144,-0.29535,-39.24,10.92,-11.94
19.518,-0.81722,4.018,2.8888,-0.098655,-0.61636,-39.0,10.38,-12.0
19.532,-1.7979,3.5685,2.9178,-0.086743,-0.89736,-38.76,9.66,-12.24
19.532,-2.7104,2.7922,2.8931,0.22938,-1.1044,-38.34,9.12,-12.54
18.537,-3.051,2.2337,2.7428,0.23121,-1.1524,-37.92,7.38,-13.26
15.023,-3.8682,1.7979,2.5846,0.10385,-1.011,-37.62,6.6,-13.68
10.746,-4.985,1.3212,2.3683,0.053145,-0.75228,-37.38,5.88,-14.1
7.9951,-5.1076,0.96704,2.1344,-0.036652,-0.53084,-36.78,4.08,-14.76
6.3062,-5.1757,0.8036,1.8454,-0.19212,-0.36957,-36.54,3.24,-15.06
5.3937,-5.1485,0.72188,1.372,-0.53115,-0.10996,-36.18,2.46,-15.42
3.1599,-5.4209,0.72188,1.0476,-0.73548,0.02138,-35.76,0.84,-15.78
2.0839,-5.5162,0.6674,0.70983,-0.9163,0.12309,-35.7,0.12,-16.14
1.0215,-5.5162,0.50395,0.35155,-0.99266,0.21808,-35.58,-0.3,-16.26
-0.31327,-5.5026,0.50395,-0.055894,-0.95967,0.37874,-35.94,-0.84,-16.14
-0.25879,-5.598,0.54481,-0.46609,-0.80879,0.56566,-36.24,-1.08,-15.96
0.74912,-5.4073,-0.9398,-0.8543,-0.66768,0.72907,-36.72,-1.68,-15.48
1.58,-5.0804,-0.040861,-1.5287,-0.37843,1.3421,-37.02,-1.62,-15.18
4.1406,-5.094,1.2531,-1.8179,0.63225,2.178,-37.26,-1.74,-14.88
17.965,-7.6683,2.7649,-2.0085,1.9603,2.6261,-37.74,-1.5,-14.46
19.137,-8.8124,2.3836,-2.3311,2.5724,2.2431,-37.98,-1.26,-14.34
19.477,-7.6274,1.5391,-2.0323,1.3949,1.2697,-37.98,-1.02,-14.46
19.532,-2.6696,0.21793,-1.8751,1.0904,0.88484,-38.1,-0.6,-14.7
18.823,-2.0703,0.24517,-1.8702,0.80268,0.58582,-38.04,0.66,-15.0
14.587,-0.7355,0.44947,-1.9184,0.39095,0.3598,-37.92,1.38,-14.88
10.896,1.2531,0.54481,-2.011,0.24954,0.27611,-38.1,2.52,-15.18
9.8748,2.0703,0.57205,-1.9786,0.048869,0.25107,-38.1,3.36,-15.3
8.4446,3.6775,0.24517,-1.9306,-0.10751,0.29077,-37.92,4.2,-15.42
7.8181,3.8273,-0.081722,-1.7984,-0.43952,0.32712,-38.04,6.12,-15.78
6.0747,3.8273,-0.83084,-1.5727,-0.75411,0.23518,-38.16,7.02,-15.84
4.9306,3.9771,-0.9398,-1.3308,-0.71349,0.12981,-38.22,8.04,-15.84
2.3563,4.1678,-0.6674,-1.0748,-0.26542,-0.094379,-38.58,9.72,-15.72
2.2882,4.2359,-0.47671,-0.57757,0.52382,-0.56902,-38.82,10.38,-15.54
2.547,4.3313,-0.36775,-0.37538,0.59651,-0.69639,-39.18,11.16,-15.24
3.0237,4.5492,-0.40861,0.051313,0.47861,-0.88117,-39.72,12.3,-14.52
3.0237,4.5492,-0.40861,0.051313,0.47861,-0.88117,-39.72,12.3,-14.52
3.8818,5.4345,0.62654,1.1332,-0.31093,-1.1136,-40.62,13.2,-13.98
10.297,7.3686,2.1793,1.5788,-0.4612,-0.99968,-41.1,13.26,-13.56
15.827,6.8647,2.3836,2.0534,-0.29291,-0.76144,-41.22,12.36,-13.26
19.409,1.0351,3.3642,2.4343,-0.35064,-0.66065,-41.52,11.7,-13.2
19.518,-1.7979,3.514,2.5336,-0.47647,-0.82925,-41.46,10.86,-13.2
19.532,-3.1054,2.6968,2.6252,0.24648,-1.303,-40.74,9.18,-13.44
19.491,-3.4868,2.2337,2.6423,0.70616,-1.2886,-40.2,7.44,-13.86
17.053,-4.0589,1.5119,2.6738,0.59346,-1.1851,-39.54,5.34,-14.4
13.934,-5.1485,1.0079,2.6237,0.24984,-0.93676,-38.94,3.42,-15.12
10.474,-5.7205,0.53119,2.4734,-0.12523,-0.67226,-38.22,1.44,-15.84
7.4503,-5.598,0.44947,2.0592,-0.57971,-0.39462,-37.74,0.66,-16.38
5.0259,-5.5707,0.72188,1.682,-0.74373,-0.25045,-37.68,-1.08,-16.62
3.051,-5.4754,0.91256,1.2749,-0.77519,-0.011912,-37.8,-1.8,-16.56
2.3427,-5.5026,0.89894,0.87659,-0.70127,0.23182,-38.1,-2.34,-16.38
0.7355,-5.4481,0.68102,0.47128,-0.60659,0.3882,-38.82,-3.06,-16.02
-0.70826,-5.4345,0.27241,-0.11851,-0.51924,0.57055,-39.36,-3.6,-15.6
-0.47671,-5.598,0.38137,-0.53634,-0.42028,0.69578,-39.66,-3.6,-15.36
-0.14982,-5.6388,0.19068,-0.94348,-0.44838,0.83536,-40.02,-3.78,-15.06
1.2939,-5.4209,0.21793,-1.3827,-0.53237,1.1047,-40.38,-3.9,-13.92
3.0646,-5.6116,1.5936,-1.715,-0.16646,1.7633,-40.8,-3.72,-13.56
7.5865,-6.3743,2.5606,-2.0061,1.0385,2.3546,-40.98,-3.48,-13.08
19.028,-9.7658,2.5061,-2.3115,2.806,2.3595,-41.16,-2.76,-12.6
19.477,-8.8532,1.6072,-2.1722,2.0537,1.6808,-41.1,-2.1,-12.54
19.532,-6.1155,0.72188,-1.9374,1.5308,0.89553,-41.1,-1.5,-12.54
19.532,-4.3858,0.24517,-1.9731,1.4783,0.58979,-40.98,-0.84,-12.72
16.344,-1.6072,0.12258,-2.0195,0.90378,0.2868,-40.86,0.66,-13.2
13.184,-0.23155,0.20431,-2.1087,0.52901,0.11209,-40.86,1.5,-13.38
10.964,0.9398,0.12258,-2.1557,0.43524,0.076969,-41.04,2.28,-13.56
9.0984,2.9011,0.095342,-2.1112,0.10415,0.14416,-40.92,4.02,-13.74
8.431,3.5822,0.027241,-1.9896,-0.21808,0.13775,-40.8,4.98,-13.8
7.5457,4.018,-0.21793,-1.8179,-0.29871,0.094684,-40.86,6.06,-14.16
4.5083,4.4402,-0.57205,-1.6069,-0.083078,0.067195,-40.98,7.98,-14.34
3.2416,4.3994,-0.54481,-1.3341,0.25198,-0.045509,-41.1,8.82,-14.52
2.7377,4.4402,-0.40861,-0.80115,0.65088,-0.44929,-41.28,9.78,-14.58
2.7241,4.5492,-0.49033,-0.59346,0.70066,-0.62125,-41.52,11.52,-14.1
2.8603,4.7399,-0.55843,0.075747,0.29047,-0.86163,-41.7,12.24,-14.04
2.9556,4.6718,-0.54481,0.52687,-0.14416,-0.90164,-41.88,12.9,-13.8
2.8058,4.5356,0.6674,0.97891,-0.38851,-0.9783,-42.42,13.86,-13.32
4.1678,5.5162,1.7706,1.4587,-0.5623,-1.0287,-42.54,13.98,-13.02
8.1313,5.8295,2.5742,2.2523,-0.70677,-0.80237,-42.96,13.68,-12.54
19.096,2.6151,3.1872,2.5491,-0.19364,-0.59254,-42.96,13.2,-12.48
19.477,-0.92618,4.4266,2.7535,-0.24496,-0.47647,-42.9,12.6,-12.54
19.532,-2.9965,4.304,2.8558,0.042455,-0.8998,-42.66,11.76,-12.6
19.532,-3.7184,3.3097,2.8598,0.50488,-1.1857,-42.06,10.2,-12.9
19.532,-3.3506,2.1929,2.8564,0.37965,-1.3143,-41.7,9.48,-13.2
18.347,-3.909,1.866,2.7358,-0.060476,-1.2679,-41.28,8.58,-13.56
12.735,-5.5571,1.6617,2.3152,-0.42822,-0.96333,-40.86,6.78,-14.16
9.8339,-5.6388,1.3348,1.9899,-0.48289,-0.7761,-40.62,5.7,-14.34
8.1586,-5.4754,1.0896,1.8195,-0.4945,-0.71441,-40.32,4.62,-14.4
4.4539,-5.0804,1.0215,1.3286,-0.45479,-0.4945,-39.9,2.82,-14.52
3.1191,-5.094,1.1441,0.99876,-0.41233,-0.28741,-39.78,2.04,-14.7
2.0294,-5.2575,1.2531,0.67134,-0.39248,-0.064141,-39.54,1.56,-14.82
0.17706,-5.489,0.89894,0.17074,-0.43707,0.12065,-39.48,0.72,-14.88
-0.35413,-5.4073,0.8036,-0.18173,-0.49602,0.17013,-39.84,0.54,-14.82
-0.8717,-5.38,0.7355,-0.54795,-0.55589,0.28436,-40.14,0.24,-14.52
-0.34051,-5.7614,-0.47671,-0.88362,-0.65637,0.51282,-40.92,-0.18,-13.98
1.0488,-5.2711,-0.027241,-1.3179,-0.94226,0.76816,-41.28,-0.36,-13.5
2.5742,-4.6445,1.58,-1.6643,-0.99999,1.4471,-41.7,-0.42,-13.02
14.206,-6.4969,2.3427,-2.054,0.98105,2.5467,-42.36,-0.6,-12.18
18.837,-9.0712,2.0975,-2.3344,2.8042,2.7999,-42.54,-0.36,-11.88
19.355,-9.112,1.6481,-2.102,2.5571,2.1331,-42.78,0.18,-11.7
19.532,-2.6968,0.20431,-1.7272,1.9816,1.0388,-42.96,1.32,-11.64
19.532,-1.4301,0.24517,-1.6725,1.6264,0.69119,-42.96,1.86,-11.58
19.055,-0.62654,0.38137,-1.6893,0.5452,0.48411,-42.78,2.34,-11.7
13.28,1.0351,0.5993,-1.8418,-0.28894,0.21075,-42.66,3.84,-11.76
11.863,1.4438,0.50395,-1.887,-0.29352,0.14508,-42.54,4.5,-11.76
10.215,2.4925,0.19068,-1.9523,-0.42913,-0.0039706,-42.72,5.52,-11.7
9.0984,3.1327,0.19068,-1.9313,-0.60445,-0.075747,-42.72,6.42,-11.64
6.7829,4.0589,0.027241,-1.8207,-0.61331,-0.081245,-42.84,7.26,-11.58
4.2632,4.522,0.054481,-1.6506,-0.21319,-0.091935,-43.32,9.12,-11.46
3.8001,4.5901,0.12258,-1.2437,0.57757,-0.21777,-43.32,9.96,-11.4
3.5277,4.6445,0.21793,-1.0482,0.72235,-0.32376,-43.44,10.74,-11.16
4.127,4.6854,-0.38137,-0.58582,0.79871,-0.63561,-43.62,11.58,-10.92
4.1406,4.3994,-0.7355,0.16982,0.17013,-1.0486,-44.04,12.36,-10.56
3.8137,3.8273,-0.39499,0.62705,-0.3207,-1.1264,-44.28,12.66,-10.32
3.2416,4.8625,0.64016,1.0296,-0.5061,-1.2013,-44.94,13.26,-9.72
4.3449,6.3471,0.85808,1.6277,-0.49175,-0.97433,-45.24,13.32,-9.42
7.8453,6.8783,2.4244,1.7932,-0.44776,-0.78069,-45.36,13.08,-9.18
17.448,3.7592,3.3915,2.3033,0.018326,-0.29749,-45.18,12.36,-8.94
19.409,0.42223,3.3778,2.4725,-0.19456,-0.14447,-45.06,11.64,-8.82
19.504,-0.58567,3.1735,2.5253,0.17135,-0.53726,-44.7,10.92,-8.94
19.532,-2.261,2.3699,2.4545,0.55619,-0.85216,-43.68,9.36,-9.48
19.518,-2.3972,2.2474,2.3717,0.67378,-0.85613,-43.26,8.58,-9.78
18.129,-2.6832,1.5936,2.2843,0.80543,-0.8323,-42.78,7.8,-10.44
14.315,-4.6718,1.1305,2.0769,0.74678,-0.56963,-42.0,6.3,-11.28
11.141,-5.203,0.65378,1.8344,0.17746,-0.22541,-41.46,5.64,-11.7
8.2812,-5.2302,0.28603,1.4743,-0.42974,-0.0058032,-41.04,4.98,-12.0
4.9987,-5.2711,0.5993,1.1863,-0.4609,0.054978,-40.38,3.78,-12.84
3.8409,-5.3664,0.9398,0.9053,-0.47434,0.23671,-40.08,3.3,-13.26
2.4789,-5.38,1.185,0.63133,-0.46395,0.29077,-39.72,2.88,-13.5
0.6674,-5.4618,0.8036,0.36713,-0.46701,0.36438,-39.54,2.58,-14.04
0.054481,-5.3528,0.44947,0.071471,-0.43616,0.37965,-39.42,2.64,-14.28
-0.25879,-5.2302,0.43585,-0.45448,-0.23366,0.41386,-39.6,2.76,-14.52
-0.34051,-5.1621,-0.70826,-0.84055,-0.2642,0.52687,-40.08,2.7,-14.64
0.21793,-4.9169,-0.027241,-1.3375,-0.43738,0.78038,-40.32,2.94,-14.52
1.866,-4.985,2.8058,-1.803,-0.009163,2.0977,-40.74,3.3,-13.86
14.206,-8.0088,2.7104,-1.9007,0.37965,2.5113,-40.8,3.66,-13.68
19.096,-11.087,0.8717,-2.5024,1.5702,3.1686,-41.04,4.02,-13.5
19.477,-8.7443,-0.19068,-2.3329,1.6295,2.8567,-41.04,4.44,-13.38
19.532,-6.0611,-0.25879,-2.1728,1.5311,1.9838,-40.98,5.58,-13.02
19.532,-4.9442,-0.054481,-2.244,1.0941,1.6591,-40.8,6.18,-12.84
19.368,-3.6775,0.62654,-2.357,0.011912,1.2062,-40.74,7.5,-12.54
15.909,-1.8115,1.0624,-2.423,-0.21105,0.99907,-40.8,8.52,-12.12
13.116,0.14982,1.3212,-2.4978,-0.68295,0.73793,-40.98,9.54,-11.88
11.169,1.6481,1.185,-2.3424,-0.75656,0.56749,-41.04,10.74,-11.28
9.3299,2.5879,0.7355,-2.1228,-0.45082,0.42302,-41.04,12.06,-10.62
7.0145,3.2961,0.040861,-1.8836,0.11393,0.35766,-41.22,14.88,-9.72
6.0202,3.7047,0.040861,-1.6099,0.71746,0.26267,-41.1,16.38,-9.24
4.9169,4.3858,-0.6674,-1.0785,1.1765,-0.14142,-40.92,18.72,-8.16
4.5492,4.7807,-0.83084,-0.63072,1.128,-0.5284,-40.86,20.1,-7.44
4.0589,4.9033,-0.89894,-0.12706,0.8659,-0.86224,-40.92,21.18,-7.02
3.3642,4.6718,-0.61292,0.37049,0.45845,-1.0385,-40.92,22.92,-6.0
3.2144,4.3449,-0.027241,0.85063,0.062003,-1.1542,-41.28,23.94,-5.52
3.1872,4.018,0.74912,1.5012,-0.62705,-1.0763,-41.7,25.02,-4.74
8.7987,2.5061,0.8036,1.6884,-0.79229,-0.87781,-41.82,25.02,-4.62
17.965,-0.64016,1.2803,2.0302,-0.56566,-0.063835,-41.76,24.84,-4.5
19.15,-5.7342,2.2474,1.9936,-0.94959,0.44074,-41.58,24.3,-4.68
19.518,-7.5184,2.7377,1.9288,-1.2666,0.10079,-41.16,23.04,-5.64
19.532,-5.6388,1.9341,1.9951,-0.43677,-0.51557,-40.92,22.26,-6.18
19.532,-5.2847,1.58,2.1096,0.48258,-0.34575,-40.92,20.64,-7.38
17.243,-5.7886,1.0215,2.1567,0.44929,-0.32651,-40.8,19.86,-8.1
15.132,-5.9112,0.85808,2.1512,0.062308,-0.2529,-40.56,18.78,-8.94
13.348,-5.7342,0.83084,2.131,-0.19426,-0.26053,-40.56,18.0,-9.66
8.322,-5.4481,0.57205,1.9471,-0.91905,-0.29169,-40.26,17.22,-10.38
6.3607,-5.5162,0.81722,1.6973,-1.127,-0.19761,-40.2,16.5,-10.86
4.5764,-5.5707,1.6481,1.3812,-1.1603,-0.098349,-39.9,15.78,-11.46
1.1169,-5.7614,1.6481,0.86315,-1.1457,-0.071471,-39.54,14.7,-12.48
-0.49033,-5.8295,1.2803,0.43799,-0.97586,-0.13103,-39.3,14.46,-12.9
-0.98067,-5.7069,1.0896,0.21014,-0.85307,-0.15455,-39.18,14.28,-13.14
-1.3484,-4.9169,1.1169,-0.53329,-0.49816,-0.17196,-39.54,14.1,-13.2
-1.6617,-4.9306,0.62654,-0.96761,-0.29658,-0.077274,-39.72,14.1,-13.08
-1.7843,-4.9306,0.32689,-1.4352,-0.07086,0.14447,-39.84,13.92,-12.84
1.1032,-4.8352,1.5255,-1.8583,0.84788,1.2733,-40.2,13.92,-12.42
6.1836,-6.5786,0.95342,-2.003,1.7911,1.9459,-40.32,13.92,-12.0
10.992,-8.7987,0.83084,-2.076,2.4294,2.0965,-40.68,14.04,-11.76
18.524,-12.994,0.23155,-2.2177,2.8262,2.2455,-40.86,14.1,-11.28
19.518,-11.441,-1.1032,-2.0559,2.094,1.6503,-41.28,14.76,-10.92
19.532,-10.106,-1.3212,-2.0482,1.095,1.0504,-41.52,15.12,-10.74
19.259,-6.6604,-1.2803,-2.441,0.03207,0.84452,-41.64,16.2,-10.2
15.405,-4.2632,-0.95342,-2.5757,-0.79321,0.48747,-41.82,16.86,-9.84
12.258,-1.7434,-0.31327,-2.6066,-1.1463,0.3262,-41.82,17.64,-9.48
9.8339,-1.7434,0.57205,-2.463,-1.127,0.2981,-41.7,18.54,-9.12
6.9055,1.8932,1.1305,-2.2532,-0.52657,0.25962,-41.4,20.64,-7.8
6.3743,2.2474,1.0351,-2.0265,0.47495,0.28436,-41.16,21.78,-7.32
6.1564,3.5822,0.55843,-1.7559,1.4056,0.21869,-40.92,22.92,-6.6
6.0066,4.522,0.24517,-1.3864,1.9416,-0.0956,-40.56,24.9,-5.58
5.7342,6.2517,-0.21793,-0.63438,1.6371,-0.7761,-40.2,25.74,-4.92
5.4073,6.9055,-0.38137,-0.082467,1.0968,-1.1411,-40.02,26.76,-4.38
4.413,6.8374,-0.19068,0.40806,0.42394,-1.3265,-39.66,27.96,-3.24
4.0452,6.1836,0.21793,0.81031,-0.35003,-1.4261,-39.54,28.38,-2.88
4.3449,5.993,-0.21793,1.1509,-1.2944,-1.3925,-39.66,28.8,-2.04
4.6718,6.0611,-0.49033,1.5186,-2.1866,-0.67501,-39.66,28.68,-1.74
7.7091,4.6309,-0.01362,1.616,-1.9105,-0.25626,-39.84,28.26,-1.62
18.605,-1.8115,4.4811,1.8549,-0.19548,1.062,-39.84,27.3,-1.86
19.409,-8.2539,6.6195,2.3323,-1.4508,1.1689,-39.9,26.7,-2.34
19.518,-12.898,5.2575,2.8243,-2.6741,0.15699,-39.96,25.98,-2.7
19.532,-15.146,1.4438,2.5369,-0.70433,-1.1325,-40.08,24.48,-3.84
19.532,-12.735,0.61292,2.2907,0.54031,-1.6897,-40.2,23.7,-4.2
16.385,-9.9292,0.31327,2.3075,0.78985,-1.7743,-40.44,22.8,-4.74
9.793,-7.7091,0.70826,2.2843,0.63347,-1.6402,-40.38,21.06,-6.0
7.6274,-7.4231,0.76274,2.149,0.18143,-1.4151,-40.38,20.16,-6.84
5.5299,-7.0553,0.89894,1.9239,-0.27428,-1.1875,-40.2,19.32,-7.38
1.6481,-6.2381,1.1441,1.5754,-0.77244,-0.91172,-39.66,17.7,-8.7
-0.27241,-6.1292,1.1577,1.31,-0.87232,-0.77824,-39.48,16.98,-9.36
-0.96704,-6.2517,1.0488,0.94562,-0.81153,-0.67256,-39.18,16.5,-9.84
-2.0158,-6.1155,1.0079,0.52565,-0.66951,-0.5452,-38.88,15.18,-10.68
-2.0839,-6.0883,0.89894,0.14325,-0.4722,-0.42822,-38.7,14.64,-10.92
-2.1656,-6.3335,-0.32689,-0.26389,-0.40714,-0.36041,-38.82,14.04,-11.1
-1.8932,-6.2926,-1.1169,-0.88575,-0.45907,0.13622,-38.94,12.78,-11.28
0.36775,-6.6059,-0.24517,-1.412,-0.29505,1.0592,-38.88,12.18,-11.34
5.8976,-7.6819,-0.027241,-1.5388,-0.21472,1.5382,-38.94,11.76,-11.28
18.96,-11.019,3.4459,-2.073,0.98319,2.4771,-39.12,11.28,-10.92
19.463,-10.828,-0.29965,-1.9658,0.66157,2.755,-39.18,11.16,-10.56
19.518,-10.896,-2.3972,-1.6512,1.4416,1.7743,-39.42,11.16,-10.2
19.532,-3.8818,-3.3778,-1.4169,3.0216,0.6463,-39.78,11.46,-9.48
19.45,-2.1248,-2.547,-1.5052,2.605,0.5678,-39.9,11.7,-9.36
16.808,0.38137,-0.85808,-1.5449,1.8686,0.57818,-40.08,12.0,-9.36
12.83,2.3699,0.40861,-1.6576,0.60964,0.083078,-40.32,13.14,-9.0
10.597,3.5958,0.027241,-1.686,0.21319,-0.16707,-40.44,13.74,-8.82
9.4253,4.2632,-0.35413,-1.6994,-0.44104,-0.21747,-40.38,14.46,-8.7
6.6059,4.9306,-0.96704,-1.66,-1.0956,-0.24587,-40.38,16.14,-8.4
4.7671,4.8897,-1.0215,-1.5168,-1.2801,-0.4105,-40.62,17.04,-8.16
3.5958,4.8216,-0.96704,-1.3124,-0.89828,-0.59804,-40.62,17.88,-7.92
1.3757,4.5764,-0.054481,-0.99785,-0.36163,-0.8717,-40.8,19.26,-7.14
1.7979,4.3449,0.47671,-0.49663,-0.081856,-1.2382,-40.8,19.98,-6.78
2.8058,3.9363,-0.054481,0.040623,0.42241,-1.6741,-40.8,20.52,-6.48
3.4187,3.8954,-0.55843,0.49572,1.0293,-2.0412,-40.86,20.94,-6.18
4.4811,5.3528,-0.55843,1.0449,1.336,-2.2074,-41.1,21.3,-5.7
6.7012,7.6683,0.29965,1.3048,1.1539,-2.1325,-41.4,21.06,-5.4
14.056,9.2618,3.3506,2.0348,0.3375,-1.4435,-41.82,19.74,-5.58
19.123,4.0861,5.0804,2.4792,0.15241,-0.8042,-41.94,18.9,-5.82
19.477,-1.5119,5.5299,2.6542,0.25565,-0.89492,-41.88,17.76,-6.06
19.532,-3.6911,3.8818,3.0693,-0.024129,-1.4172,-41.4,15.3,-7.08
19.532,-3.0237,3.4732,3.2073,0.94043,-1.5806,-41.1,14.04,-7.74
19.532,-3.6094,3.2825,3.1661,0.88117,-1.5776,-40.86,12.84,-8.58
14.601,-6.2109,3.4187,3.0152,0.47586,-1.3295,-40.5,11.58,-9.24
11.605,-6.7421,3.0237,2.5461,0.017104,-0.76572,-40.02,8.64,-10.92
8.7987,-6.6604,2.3699,2.1872,-0.22541,-0.45173,-39.84,7.08,-11.76
6.4833,-6.2654,1.8932,1.803,-0.44471,-0.16463,-39.54,5.64,-12.48
3.1054,-5.6252,1.6481,1.2165,-0.59407,0.33353,-38.82,3.06,-13.56
1.7298,-5.4209,1.4438,0.89767,-0.53206,0.60109,-38.34,2.04,-14.04
0.25879,-5.4073,1.0896,0.61178,-0.42608,0.7645,-37.92,1.32,-14.22
-1.6753,-5.6661,0.28603,0.28711,-0.21625,0.83963,-37.32,0.48,-14.34
-1.9341,-6.3198,0.027241,-0.074526,0.034208,0.94776,-37.26,-0.3,-14.22
-1.4438,-6.7557,-0.81722,-0.53542,0.09499,1.0742,-37.14,-0.66,-13.74
-0.31327,-5.2438,-0.54481,-1.4765,0.047342,1.4844,-37.2,-0.9,-13.5
1.8387,-4.4947,2.0567,-1.9041,0.26023,2.4218,-37.2,-1.2,-13.14
4.7399,-4.7399,2.9965,-2.0641,0.7871,3.3121,-37.2,-1.38,-13.08
18.714,-11.169,3.1463,-2.3121,2.0876,3.6576,-37.14,-1.2,-12.54
19.436,-12.98,2.4244,-2.6591,2.4887,3.0852,-36.96,-0.9,-12.6
19.518,-9.2482,1.9613,-2.1622,1.7016,1.7049,-36.72,-0.3,-12.54
19.532,-4.3721,0.74912,-2.0772,2.2981,0.27245,-36.66,0.66,-12.66
19.477,-2.5334,0.61292,-2.0772,1.1176,-0.2135,-36.54,1.26,-12.78
15.827,-0.68102,0.8036,-2.1658,0.27886,-0.45326,-36.54,1.98,-12.96
9.3708,2.1112,0.9398,-2.2565,-0.034514,-0.54153,-36.6,3.72,-13.2
7.6819,2.9011,0.8717,-2.2862,-0.25351,-0.56872,-36.66,4.56,-13.5
6.5378,3.8682,0.85808,-2.2486,-0.62492,-0.51954,-36.72,5.52,-13.62
4.5492,4.8352,0.68102,-1.9856,-1.0507,-0.33353,-36.9,7.5,-13.68
3.0918,4.7399,-0.054481,-1.7025,-1.0079,-0.24709,-37.08,8.64,-13.56
2.438,4.4266,-0.14982,-1.5476,-0.86132,-0.23885,-37.14,9.78,-13.08
0.68102,4.3449,0.1362,-0.97097,-0.24557,-0.39798,-37.38,11.76,-12.72
0.31327,4.8216,0.24517,-0.46823,0.066584,-0.52473,-37.68,12.6,-12.24
0.65378,5.0259,0.14982,0.061697,0.085521,-0.59162,-37.92,13.2,-11.94
2.0839,5.1485,0.55843,0.57085,-0.14416,-0.69822,-38.04,14.52,-11.4
3.2825,6.7012,1.5663,1.262,-0.33567,-0.62125,-38.22,15.12,-10.92
5.9112,7.8862,2.8194,1.5372,-0.44349,-0.49633,-38.28,15.36,-10.44
16.739,7.7091,5.4073,2.1793,0.12034,-0.057116,-38.34,15.3,-10.26
19.491,-2.261,8.1177,3.0565,-0.10873,0.53298,-38.34,14.88,-10.02
19.532,-8.4991,6.5922,3.3665,-0.53451,-0.58063,-38.28,14.28,-10.08
19.532,-5.2438,3.3506,3.4709,0.48717,-1.3619,-37.74,12.96,-10.86
18.864,-3.5549,2.3155,3.5445,1.0718,-1.4792,-37.26,12.24,-11.58
16.644,-4.9987,2.4925,3.4615,0.40439,-1.4056,-36.9,11.4,-12.42
14.301,-6.1836,2.5606,3.2971,0.10812,-1.2737,-36.48,10.56,-13.08
10.188,-7.1643,2.2337,2.5708,-0.55558,-0.7816,-35.64,8.88,-14.4
7.8045,-6.8647,1.9341,2.1154,-0.84941,-0.64019,-35.28,8.16,-15.18
5.6661,-6.674,1.9886,1.6729,-0.98135,-0.45051,-35.04,7.26,-15.66
2.3291,-6.674,1.7843,1.2575,-0.96731,-0.16616,-34.62,5.4,-16.68
0.34051,-6.6876,1.3212,0.87934,-0.82772,0.022907,-34.32,4.74,-17.22
-0.54481,-6.6331,1.076,0.50488,-0.70311,0.10293,-34.14,4.14,-17.58
-1.9477,-5.9249,0.76274,-0.083689,-0.49602,0.15577,-33.78,3.36,-18.12
-1.9613,-5.598,0.65378,-0.44746,-0.2926,0.23824,-33.9,3.06,-18.12
-1.7706,-5.2575,-0.14982,-0.81978,-0.28283,0.4499,-34.26,2.88,-17.58
-0.76274,-4.127,-0.19068,-1.4865,-0.42333,0.92332,-34.74,2.7,-17.16
0.7355,-3.6503,1.1032,-1.6597,-0.22633,1.9716,-35.1,2.76,-16.74
3.5549,-3.9908,2.8467,-1.6716,0.68845,2.8219,-35.4,2.82,-16.44
18.551,-10.842,3.4868,-1.8696,2.4902,2.9963,-35.82,3.24,-16.02
19.409,-12.844,3.1463,-2.522,2.3491,2.3091,-36.0,3.42,-15.72
19.518,-8.6625,1.1441,-2.1002,1.8583,1.3677,-36.0,3.78,-15.54
19.532,-4.3177,0.51757,-2.1389,2.6738,0.27397,-36.06,4.86,-15.66
19.532,-3.3506,0.54481,-2.2801,1.321,-0.013134,-35.94,5.22,-15.72
16.726,-1.3484,1.0624,-2.2959,0.624,-0.16463,-35.94,5.82,-15.84
11.85,0.7355,0.85808,-2.3118,-0.57055,-0.42577,-35.94,7.32,-15.96
10.256,1.6072,0.57205,-2.281,-1.2278,-0.40959,-36.0,8.22,-16.02
8.3765,2.438,0.31327,-2.2419,-1.7526,-0.29566,-36.12,8.94,-15.96
5.3528,3.3506,-0.027241,-2.1521,-1.7443,-0.10934,-36.18,10.74,-15.54
5.3528,3.3506,-0.027241,-2.0821,-1.4887,-0.029627,-36.18,10.74,-15.54
2.7649,3.6503,-0.38137,-1.5537,0.52382,-0.23091,-36.6,13.56,-14.1
2.5198,4.0044,-0.29965,-1.3815,0.71838,-0.32376,-36.66,14.46,-13.32
2.1793,4.5628,-0.095342,-0.95478,0.759,-0.47189,-36.84,15.36,-12.78
1.9613,5.1621,-0.10896,-0.40409,0.36255,-0.60231,-37.14,16.2,-12.24
3.0237,5.5707,0.36775,0.42944,-0.13103,-0.83689,-37.74,17.46,-10.92
3.2825,5.6388,0.7355,0.68845,-0.22449,-0.91569,-38.1,18.3,-10.32
7.5457,7.5865,1.9886,1.197,-0.50366,-0.90103,-38.64,19.08,-8.94
14.71,7.3141,2.7649,1.8763,-0.45418,-0.54153,-38.82,19.02,-8.46
18.932,4.5764,4.2495,2.2819,-0.25473,-0.35522,-38.82,18.84,-8.16
19.532,-3.0101,4.8625,2.6808,-0.56169,-0.53817,-38.4,18.12,-8.28
19.532,-4.2359,4.1542,3.0149,-0.37202,-1.3021,-38.16,17.7,-8.64
19.532,-4.7263,3.1327,3.1893,0.20586,-1.4884,-37.92,17.16,-9.18
18.319,-4.699,2.6423,3.1994,0.28466,-1.4138,-37.56,15.66,-10.44
16.29,-5.6661,2.9556,2.9975,-0.17349,-1.1515,-37.32,15.06,-11.34
14.274,-6.8783,3.0237,2.7144,-0.32437,-0.85491,-37.2,14.16,-12.0
10.433,-7.2596,2.4925,2.3769,-0.45418,-0.61758,-36.72,12.54,-13.26
7.927,-6.7012,1.8796,2.0122,-0.50244,-0.45082,-36.48,11.64,-13.8
3.732,-5.6116,1.7706,1.6625,-0.43188,-0.24984,-36.42,10.74,-14.34
1.9341,-5.094,1.4846,1.2025,-0.12156,-0.047037,-36.06,9.36,-15.42
0.9398,-5.0395,1.076,1.0693,-0.033598,-0.026878,-35.88,8.7,-15.72
0.43585,-4.9169,0.83084,0.61484,0.05284,-0.06689,-35.76,8.16,-16.08
-0.89894,-5.0259,0.28603,0.2587,0.029932,-0.021075,-35.94,7.5,-16.2
-1.0896,-5.1213,-0.14982,-0.10354,-0.020769,0.11332,-35.94,7.02,-16.2
-1.185,-5.0668,-0.6674,-0.77549,-0.36011,0.40195,-36.24,6.18,-15.84
-0.16344,-5.0259,-0.054481,-1.0855,-0.38179,1.0727,-36.42,5.94,-15.72
2.2337,-5.0668,0.74912,-1.3234,0.025045,1.9551,-36.54,5.64,-15.36
8.0088,-6.5105,1.7025,-1.5366,1.1527,2.5189,-36.48,5.58,-15.0
19.273,-14.029,2.4244,-2.1182,3.1887,2.6478,-36.42,5.64,-14.76
19.504,-11.918,1.9613,-2.2828,2.7669,2.1444,-36.06,5.76,-14.82
19.532,-6.5786,0.89894,-1.9615,2.1408,0.8995,-35.82,5.76,-14.94
18.456,-2.5742,0.29965,-1.9896,1.9511,-0.010385,-35.1,6.06,-15.18
14.982,-0.42223,0.44947,-2.0733,1.0043,-0.14997,-34.86,6.3,-15.42
12.803,0.6674,0.74912,-2.2101,0.50396,-0.20006,-34.8,6.6,-15.6
8.2267,2.8875,1.1986,-2.2523,0.35277,-0.29077,-34.8,7.5,-15.84
6.7966,3.8273,1.4029,-2.2055,0.24251,-0.24557,-34.8,8.22,-15.9
5.6388,4.5764,1.3212,-1.9789,0.051007,0.039706,-34.98,9.72,-16.02
2.9965,5.3528,0.7355,-1.7468,0.23885,0.18906,-34.98,10.56,-16.02
1.6072,5.4073,0.10896,-1.4636,0.54978,0.2981,-34.98,11.28,-15.9
1.4982,5.1485,-0.50395,-1.1167,0.82009,0.24618,-35.16,11.88,-15.96
2.9011,4.7399,-0.85808,-0.6524,0.72174,0.036346,-35.64,13.5,-15.84
4.0044,4.7535,-0.6674,-0.11332,0.0562,-0.12675,-36.0,14.22,-15.54
3.8682,4.8488,0.027241,0.67592,-1.2721,-0.25076,-36.66,15.54,-15.0
3.0782,5.1485,0.95342,1.1637,-1.7724,-0.30665,-37.14,16.08,-14.64
6.4016,6.3335,1.7162,1.5769,-1.7242,-0.39309,-37.5,16.38,-14.16
10.61,6.674,2.152,1.9227,-1.0153,-0.43066,-37.68,16.38,-13.68
19.286,2.0158,5.3119,2.138,-0.30452,-0.14447,-37.32,15.18,-13.38
19.504,-2.4108,6.7966,2.3457,-0.25595,-0.11057,-36.72,14.4,-13.56
19.532,-5.5299,5.0531,2.6579,-0.32132,-1.0171,-36.0,13.68,-13.86
19.532,-6.1836,3.7592,2.8075,-0.0076358,-1.3854,-34.38,12.18,-14.7
18.319,-5.3937,2.9829,2.7248,-0.38179,-1.4065,-33.84,11.64,-15.18
15.718,-5.8159,2.8467,2.54,-0.70891,-1.2679,-33.36,11.1,-15.66
12.0,-7.3141,2.6968,2.2639,-0.93126,-1.0171,-32.52,9.54,-16.32
9.6023,-7.4912,2.261,1.9404,-1.1301,-0.79382,-32.16,8.76,-16.56
6.4288,-7.1234,1.975,1.5492,-1.193,-0.60873,-32.1,8.04,-16.86
2.7513,-6.4833,1.866,1.1768,-1.029,-0.42455,-31.68,6.3,-17.22
1.58,-6.0883,1.8251,0.82039,-0.66768,-0.26603,-31.5,5.7,-17.52
1.0079,-5.9793,1.6753,0.37843,-0.24404,-0.10263,-31.44,5.34,-17.82
0.027241,-5.5707,0.7355,0.074831,-0.2025,-0.044593,-31.74,5.34,-17.88
-0.24517,-5.4481,0.58567,-0.27733,-0.19395,0.0281,-32.4,5.46,-17.58
-0.58567,-5.4481,-0.35413,-0.88698,-0.4664,0.2813,-34.02,5.22,-16.8
-0.69464,-5.0668,0.027241,-1.3635,-0.66768,0.57513,-34.68,5.04,-16.44
-0.1362,-5.1349,0.91256,-1.6695,-0.64721,1.284,-35.28,4.74,-15.84
1.7706,-5.1213,1.866,-1.8207,-0.49236,2.2791,-35.76,4.5,-15.42
6.2654,-5.9385,2.6696,-1.9291,0.36713,2.9743,-36.06,4.5,-14.94
19.028,-13.416,2.4517,-2.3812,2.6118,3.204,-36.36,4.62,-14.46
19.477,-13.593,2.261,-2.6218,2.8372,2.7196,-36.24,4.92,-14.28
19.532,-5.6116,0.83084,-2.3879,2.7064,1.5434,-36.12,5.16,-14.16
19.246,-3.2689,0.49033,-2.3103,3.1967,0.66554,-35.7,6.0,-14.34
16.154,-0.8717,0.57205,-2.2431,2.0461,0.37324,-35.34,6.48,-14.34
12.994,1.1986,0.92618,-2.219,1.0027,0.22419,-35.04,7.02,-14.46
9.9701,2.8875,0.99429,-2.1753,0.3769,0.14233,-34.92,8.34,-14.64
9.0575,3.2825,0.76274,-2.0986,-0.24038,0.074831,-34.92,9.36,-14.52
7.6955,3.6639,0.14982,-1.9621,-1.0107,0.079718,-34.86,11.28,-14.22
5.993,4.0861,-0.43585,-1.6753,-1.5049,-0.021991,-34.92,12.36,-14.1
4.1542,4.2223,-0.77636,-1.4713,-1.2297,-0.13897,-34.92,13.44,-13.92
2.9829,4.5356,-0.95342,-1.1631,-0.59223,-0.23091,-34.92,14.34,-13.74
1.4438,5.1076,-0.7355,-0.74373,0.068111,-0.41172,-35.04,15.24,-13.44
0.70826,5.9657,-0.38137,-0.23091,0.24709,-0.62492,-35.58,16.92,-12.6
1.0896,6.4833,-0.10896,0.61972,0.029322,-0.84238,-35.7,17.64,-12.18
2.7649,6.1564,0.57205,0.8998,-0.072693,-0.93218,-36.06,18.24,-11.64
5.4073,6.7557,1.471,1.3995,-0.56505,-1.0486,-36.72,19.2,-10.56
11.836,7.2869,2.2746,1.8751,-1.3457,-0.89064,-37.02,19.32,-9.9
17.162,6.456,2.656,2.4444,-1.3018,-0.36438,-36.9,19.2,-9.6
19.504,-2.7922,5.9793,2.6224,-0.96853,-0.41844,-36.66,18.24,-9.6
19.532,-6.7966,5.9385,2.8653,-0.68997,-1.7425,-36.42,17.4,-9.78
19.532,-7.069,3.051,2.9874,0.13378,-1.8894,-35.52,16.02,-10.5
19.532,-6.2926,2.6423,2.8766,0.29108,-1.9022,-35.16,15.18,-10.74
18.592,-6.6604,2.7377,2.6683,-0.27947,-1.7278,-34.98,14.28,-11.22
12.708,-8.9349,3.4868,2.3744,-0.56719,-1.4135,-34.62,12.3,-11.94
9.7385,-9.0303,3.1872,2.0446,-0.64355,-1.1393,-34.5,11.28,-12.48
4.8625,-8.1995,2.1248,1.7046,-0.65301,-0.91569,-34.56,10.32,-12.78
3.0101,-7.7772,1.7706,1.168,-0.49694,-0.46151,-34.5,8.28,-13.26
1.866,-7.2188,1.5527,0.84849,-0.32132,-0.14325,-34.56,7.44,-13.5
1.0351,-6.456,1.2258,0.69272,-0.25412,-0.020464,-34.68,6.78,-13.86
0.31327,-5.6388,0.57205,0.28375,-0.27153,0.23549,-35.22,6.0,-13.62
-0.61292,-5.2847,0.29965,-0.026878,-0.38393,0.36652,-35.58,5.64,-13.38
-0.99429,-5.203,0.19068,-0.35369,-0.43952,0.53726,-36.06,5.52,-12.9
-1.0079,-5.1757,-1.1713,-0.92118,-0.68692,0.82406,-37.14,4.8,-12.0
-0.85808,-4.6037,-0.91256,-1.3595,-0.82864,1.1246,-37.68,4.38,-11.64
-0.51757,-4.4266,-0.24517,-1.5528,-0.53603,2.0156,-37.98,4.14,-11.16
7.069,-6.1564,1.5255,-1.6994,0.52657,2.9499,-38.64,4.02,-10.08
16.549,-9.6841,1.7979,-1.9157,2.3885,3.2434,-38.76,4.2,-9.54
19.164,-13.443,1.6753,-2.4209,3.8039,2.8735,-38.76,4.44,-9.24
19.532,-7.6138,0.8717,-2.2174,2.3992,0.97708,-38.7,4.92,-8.88
19.532,-5.6661,0.17706,-2.1841,2.3421,0.53787,-38.82,5.34,-8.76
19.436,-3.4051,-0.35413,-2.2235,1.8344,0.20067,-38.64,5.7,-8.64
13.702,-0.72188,0.095342,-2.3567,0.54489,-0.17562,-38.82,6.72,-8.52
10.964,0.58567,0.14982,-2.4703,0.31918,-0.30849,-38.94,7.38,-8.4
8.7034,2.3291,0.24517,-2.4838,0.16157,-0.30971,-39.12,8.22,-8.34
7.7227,3.7865,0.19068,-2.3796,-0.2251,-0.17837,-39.36,9.96,-8.22
6.7557,4.3449,-0.01362,-2.2251,-0.52198,-0.11759,-39.54,11.04,-8.04
5.9249,4.4675,-0.47671,-2.0159,-0.71135,-0.059559,-39.72,12.0,-7.86
2.3563,5.203,-1.4301,-1.6704,-0.78313,-0.057727,-40.02,13.74,-7.74
1.2395,6.0338,-1.7025,-1.1518,-0.7028,-0.17868,-40.2,14.4,-7.44
1.2395,6.7557,-2.1112,-0.4835,-0.54703,-0.47922,-40.56,15.12,-7.02
3.514,6.8647,-2.7649,0.46365,-0.64813,-0.95356,-40.86,16.38,-6.12
4.4402,6.3198,-2.3427,0.71746,-0.82467,-1.0657,-41.04,16.92,-5.58
4.5356,5.5843,-0.99429,1.1823,-1.1582,-1.2853,-41.34,17.4,-5.16
5.1757,5.8159,-0.38137,1.5858,-1.1261,-1.3952,-41.4,17.58,-4.56
16.93,7.246,2.8739,1.7553,-0.38515,-1.054,-41.52,17.28,-3.72
19.205,4.2768,5.8704,1.9267,0.14966,-0.55131,-41.46,16.74,-3.6
19.491,-1.0215,7.2733,2.4132,-1.0638,-1.5913,-41.4,16.2,-3.42
19.532,-6.6331,3.8001,2.6426,-0.81184,-2.2174,-41.04,14.64,-3.48
19.436,-5.2438,2.4653,2.6973,0.20525,-2.0864,-40.8,13.8,-3.48
18.469,-3.9363,1.8796,2.8146,0.25168,-2.1005,-40.44,12.9,-3.72
16.263,-6.2245,1.6889,2.7605,-0.098349,-1.8158,-39.96,10.8,-4.14
13.811,-7.8045,2.2065,2.4914,-0.32559,-1.3338,-39.72,9.6,-4.5
9.398,-7.7364,1.8387,2.0553,-0.48747,-0.9447,-39.3,7.5,-5.04
5.993,-7.4503,0.98067,1.8592,-0.40989,-0.79412,-39.18,6.36,-5.34
4.3994,-7.3822,0.5993,1.6564,-0.11881,-0.51374,-38.88,5.1,-5.52
3.5413,-7.3686,0.35413,1.5348,0.083994,-0.34453,-38.52,4.08,-6.0
1.9068,-7.2869,0.21793,1.1341,0.47373,0.098044,-37.8,2.46,-6.48
1.0351,-7.0281,0.040861,0.82711,0.562,0.20708,-37.56,1.8,-6.6
0.38137,-6.4833,-0.027241,0.44471,0.54703,0.34117,-37.26,1.08,-6.72
-0.74912,-5.2302,-0.31327,0.028405,0.54734,0.53817,-36.9,-0.12,-6.72
-0.85808,-4.5764,-1.6072,-0.41478,0.40164,0.72632,-36.78,-0.66,-6.84
-0.54481,-3.6366,-1.4982,-1.1997,-0.019548,1.2104,-36.66,-1.2,-6.72
1.3076,-2.4108,0.47671,-1.4994,0.073609,2.0977,-36.36,-1.8,-6.78
7.6274,-2.7922,2.4244,-1.6328,0.93523,3.0146,-36.06,-2.04,-6.84
17.039,-8.431,1.9886,-2.1658,2.7107,3.1796,-35.88,-2.1,-6.96
19.491,-10.61,0.72188,-2.5299,3.0409,2.1985,-34.92,-1.98,-7.74
19.532,-6.6331,1.1169,-2.2645,2.8576,1.492,-34.56,-1.62,-8.1
19.532,-5.2711,1.0896,-2.1231,2.503,0.21808,-34.2,-1.5,-8.52
17.557,-1.9205,0.28603,-2.0302,1.2868,0.062003,-33.72,-1.02,-9.48
14.124,-0.28603,0.36775,-1.9212,0.53329,-0.084605,-33.6,-0.66,-9.9
11.577,0.77636,0.38137,-1.8524,0.34361,-0.18173,-33.42,-0.18,-10.44
9.112,2.261,0.14982,-1.7568,-0.093157,-0.34331,-33.3,1.14,-11.34
8.2812,2.7241,-0.12258,-1.7074,-0.67501,-0.38271,-33.18,1.86,-11.64
7.1371,3.3097,-0.12258,-1.6878,-0.9502,-0.37996,-33.3,2.64,-11.94
4.6173,4.1814,-0.14982,-1.4933,-1.0177,-0.35552,-33.06,4.44,-12.36
2.9965,4.699,-0.27241,-1.285,-0.43677,-0.40531,-33.12,5.4,-12.66
1.5391,5.2166,-0.29965,-0.94592,0.21044,-0.54581,-33.06,6.18,-12.72
1.4165,6.0202,-0.38137,-0.16646,0.55986,-0.77885,-33.42,7.5,-12.66
1.9613,6.4833,-0.31327,0.41417,0.31521,-0.83566,-33.54,8.04,-12.72
2.152,6.6195,-0.14982,0.98471,-0.15333,-0.82803,-33.6,8.76,-12.6
2.6015,6.6059,0.77636,1.4881,-0.50732,-0.83689,-33.48,9.66,-12.42
4.8352,7.2052,1.58,1.9206,-0.72143,-0.73487,-33.3,10.02,-12.36
10.869,7.4503,2.9011,2.2932,-0.52534,-0.53542,-33.24,10.08,-12.24
19.314,2.1656,6.2245,2.5482,-0.11057,-0.35033,-32.4,9.3,-12.24
19.504,-2.152,7.0145,2.7507,-0.47831,-0.43127,-31.8,8.7,-12.78
19.532,-4.0725,6.2926,2.9334,-0.37813,-1.0574,-30.96,8.04,-13.2
19.532,-3.4459,4.3858,3.091,0.37843,-1.3625,-29.58,6.48,-14.28
19.532,-3.732,3.732,2.9984,0.11545,-1.3326,-28.92,5.4,-14.82
17.189,-5.0259,3.8137,2.7923,-0.22297,-1.135,-28.44,4.5,-15.48
12.926,-6.8374,3.2825,2.4566,-0.39034,-0.7871,-27.24,2.82,-16.44
9.112,-7.3414,2.5061,2.2584,-0.51924,-0.65882,-26.58,1.98,-16.74
7.355,-7.355,1.9886,2.1231,-0.58002,-0.5901,-26.16,0.96,-17.04
3.2416,-7.3005,1.3076,1.631,-0.73518,-0.24679,-25.32,-0.84,-17.7
1.6753,-7.1234,1.4301,1.2437,-0.74923,0.040012,-24.9,-1.68,-17.94
0.27241,-6.9328,1.4301,0.86621,-0.63163,0.25717,-24.54,-2.28,-18.12
-1.7025,-6.17,0.62654,0.45845,-0.48167,0.42761,-24.18,-3.0,-18.48
-1.9886,-5.7069,0.53119,-0.15974,-0.11576,0.7419,-24.24,-3.3,-18.3
-1.9341,-5.4073,0.21793,-0.52809,0.04215,0.96242,-24.42,-3.42,-18.3
-1.3076,-5.2302,-1.8932,-0.9447,-0.056505,1.2144,-24.66,-3.72,-17.76
-0.89894,-5.5435,-1.4438,-1.4389,0.10079,1.7856,-25.02,-3.66,-17.58
0.81722,-6.1428,-0.1362,-1.8243,1.2972,2.8143,-25.08,-3.78,-17.4
9.9701,-9.0439,4.0861,-2.2984,3.5363,3.4395,-24.9,-3.66,-17.16
18.782,-11.931,8.0224,-2.4984,4.6313,3.1652,-24.84,-3.54,-17.28
19.355,-12.667,8.322,-2.6551,3.3912,2.7388,-24.54,-3.18,-17.64
19.518,-10.256,5.6388,-2.7465,0.45357,1.5589,-24.3,-2.82,-17.82
19.532,-7.0553,3.3097,-2.4722,0.37904,0.5174,-24.12,-2.52,-18.0
17.911,-2.7649,1.0896,-2.4322,0.68234,-0.12767,-23.88,-1.56,-18.3
14.124,-1.1441,0.96704,-2.4526,0.99602,-0.55344,-24.0,-0.84,-18.3
9.9292,1.185,1.2803,-2.4294,1.3262,-0.84177,-23.94,0.96,-18.3
9.1393,2.0703,1.58,-2.4105,1.2355,-1.0186,-24.0,1.98,-18.24
8.54,2.7513,1.7025,-2.3127,0.89828,-0.94562,-24.0,3.18,-18.42
5.8976,4.8352,1.7298,-2.1002,0.53115,-0.76633,-23.88,5.58,-18.3
4.6445,5.4754,1.3484,-1.7663,0.34331,-0.60537,-23.82,6.96,-18.24
3.6911,5.8295,0.61292,-1.3146,0.34636,-0.62217,-23.76,8.04,-18.12
2.5198,5.4073,-0.47671,-0.58154,0.53054,-1.0159,-24.18,10.2,-17.64
2.0975,5.5435,-0.54481,-0.072998,0.34147,-1.1939,-24.3,11.28,-17.16
2.0294,5.7614,-0.21793,0.1741,0.10751,-1.2462,-24.48,12.54,-16.86
1.9068,5.1894,1.0896,0.9163,-0.75442,-1.4068,-24.78,14.64,-16.56
1.9477,5.3528,2.3972,1.3415,-1.153,-1.4349,-24.9,15.3,-16.56
3.5277,7.464,2.942,1.7724,-1.31,-1.2376,-24.9,15.66,-16.38
16.372,6.7693,5.094,2.4404,-0.59682,-0.35186,-25.02,15.54,-16.38
19.137,1.5936,7.6274,2.5727,-0.14416,0.07422,-24.84,15.24,-16.56
19.436,-2.0839,8.7306,2.949,-0.25168,0.59804,-24.54,14.52,-16.8
19.532,-6.8919,6.6604,3.5586,-0.18845,-0.71563,-23.76,12.96,-17.58
19.532,-5.8023,5.1485,3.6722,0.38332,-0.97494,-23.46,12.06,-18.06
19.532,-5.1485,4.3858,3.6072,0.1066,-0.98869,-23.16,11.4,-18.54
14.315,-6.7012,4.0452,3.1527,-0.27092,-0.71257,-23.04,9.9,-19.26
11.482,-7.355,3.8001,2.7364,-0.32009,-0.5229,-23.04,8.94,-19.38
8.8668,-7.3958,3.2008,2.5174,-0.35216,-0.46029,-23.16,7.86,-19.74
4.8352,-6.9872,2.3563,1.832,-0.43463,-0.2587,-23.34,6.12,-20.22
2.1112,-6.7829,1.9477,1.3586,-0.37996,-0.019242,-23.58,5.1,-20.46
0.58567,-6.1564,1.7025,0.94409,-0.31215,0.21075,-23.7,4.32,-20.64
-0.89894,-5.6661,0.65378,0.58704,-0.26909,0.36408,-24.0,3.24,-21.06
-1.4438,-5.1757,0.12258,0.028405,-0.26114,0.46914,-24.42,2.94,-21.12
-1.6344,-5.094,-0.14982,-0.15974,-0.25351,0.54459,-25.02,2.64,-20.94
-1.1169,-5.775,-1.6344,-0.72479,-0.39156,0.84727,-26.34,2.46,-20.34
-0.57205,-5.7205,-1.9613,-1.2682,-0.7816,1.1613,-27.12,2.34,-20.1
0.35413,-5.5571,-0.40861,-1.6845,-0.81489,1.9554,-27.78,2.22,-19.74
7.5729,-7.3141,3.9227,-2.0794,0.60476,3.2849,-28.74,2.16,-19.5
16.181,-9.6432,5.8567,-2.0562,1.1839,3.4331,-29.16,2.4,-19.56
19.123,-12.844,4.1678,-2.2639,2.3262,3.2391,-29.22,2.58,-19.38
19.518,-10.338,2.7513,-2.5858,2.4926,1.5586,-29.58,3.3,-19.08
19.532,-7.3141,2.6968,-2.5204,2.7306,0.59956,-29.52,3.9,-18.9
19.532,-4.5356,2.2882,-2.4823,1.1774,0.15027,-29.7,4.44,-18.9
16.44,-1.2939,1.0896,-2.3476,-0.83689,-0.24221,-30.06,5.76,-18.66
13.797,-0.53119,0.38137,-2.2822,-1.7773,-0.49083,-30.3,6.48,-18.3
9.5206,0.7355,-0.068102,-2.2452,-2.1826,-0.56994,-30.54,7.32,-17.94
4.5764,2.0431,-0.27241,-2.4022,-0.94684,-0.50916,-31.14,9.48,-17.22
2.7104,3.228,-0.27241,-2.4264,0.38087,-0.33659,-31.44,10.56,-16.74
1.9477,4.3449,0.054481,-2.2571,1.5721,-0.12889,-31.74,11.58,-16.26
1.9886,4.8625,-0.12258,-1.9484,2.4215,-0.089797,-32.04,13.68,-15.3
2.3972,4.9714,-0.39499,-1.2935,2.438,-0.44074,-32.22,14.7,-14.82
3.228,5.2575,-0.54481,-1.0406,2.1695,-0.60079,-32.58,15.78,-14.58
3.4051,5.6116,-0.40861,-0.47464,1.5256,-0.84055,-32.82,16.68,-14.22
3.1054,6.2245,-0.054481,0.41692,0.51801,-0.99296,-33.06,17.52,-13.98
3.3097,6.1428,1.58,0.94959,0.095295,-1.1496,-33.48,19.14,-13.44
5.1485,7.069,2.833,1.3754,-0.44043,-1.2071,-33.72,19.62,-13.14
9.7522,8.6217,4.9033,1.7547,-0.96731,-0.94043,-34.08,20.04,-12.9
19.246,4.3585,8.5536,2.1802,-1.0098,-0.45082,-34.08,19.98,-13.02
19.504,-0.96704,8.4446,2.5678,-1.7199,-0.24709,-34.08,19.5,-13.44
19.532,-3.8001,7.6002,2.9205,-1.7236,-1.2627,-34.02,18.9,-13.8
19.532,-6.0202,4.6037,3.0442,-0.4554,-1.5204,-33.9,17.82,-14.7
19.532,-5.9521,3.9227,2.9865,0.023824,-1.4914,-34.08,16.92,-15.24
18.333,-6.96,3.8001,2.7235,-0.23182,-1.2202,-34.32,16.08,-15.66
13.184,-8.5127,3.8001,2.5947,-0.22235,-1.0531,-34.98,13.98,-16.14
10.324,-8.3901,3.2416,2.2129,-0.13622,-0.63286,-35.34,12.78,-16.38
7.8045,-7.8045,2.4244,1.9578,-0.15638,-0.46853,-35.82,11.58,-16.56
4.3585,-7.2188,1.5391,1.6725,-0.16157,-0.19181,-36.9,9.36,-16.8
2.4108,-6.7557,1.4301,1.3546,-0.10934,0.091935,-37.32,8.34,-17.04
0.64016,-6.4833,0.92618,0.87262,-0.15944,0.35797,-37.92,6.54,-17.04
0.14982,-6.1973,0.5993,0.68234,-0.20617,0.43158,-38.28,5.76,-16.98
-0.24517,-5.8704,0.51757,0.25534,-0.30482,0.62522,-38.7,5.22,-16.92
-0.8036,-5.489,0.58567,-0.31826,-0.38698,0.98105,-39.66,4.08,-16.5
-0.70826,-5.6116,-0.89894,-0.64324,-0.52321,1.1429,-40.08,3.54,-16.26
-0.054481,-5.4754,-0.89894,-1.1035,-0.58704,1.4242,-40.44,3.24,-15.96
2.3563,-5.1621,1.0488,-1.6643,0.32406,2.5278,-41.04,3.0,-15.3
6.7012,-5.6661,2.833,-1.8274,1.4722,2.8518,-41.1,3.06,-15.12
14.478,-7.4231,4.0861,-1.8894,2.0308,2.7752,-41.16,3.36,-14.7
19.45,-10.61,3.8001,-2.5611,2.6756,2.0152,-41.16,3.96,-14.34
19.518,-7.2052,3.3778,-2.4212,2.211,1.1161,-40.92,4.32,-14.4
19.532,-4.8488,2.7513,-2.4184,2.2126,0.51924,-40.68,4.8,-14.16
17.952,-2.2882,1.866,-2.4031,1.7721,0.11454,-40.74,5.94,-14.16
15.949,-1.3348,1.757,-2.3692,1.073,-0.28986,-40.8,6.6,-14.1
12.803,0.095342,1.58,-2.3549,0.94195,-0.34178,-40.98,7.26,-13.86
10.174,2.4108,1.1169,-2.2568,0.45509,-0.43097,-41.28,8.88,-13.74
8.2267,3.6094,0.7355,-2.1545,-0.012523,-0.41997,-41.46,9.72,-13.68
6.8238,4.4266,0.68102,-1.9737,-0.31215,-0.32132,-41.76,10.74,-13.56
4.0725,5.0531,-0.28603,-1.7663,-0.32284,-0.19151,-41.94,12.6,-13.32
2.8739,4.9033,-1.0215,-1.2941,0.0039706,-0.12737,-42.12,13.5,-13.14
2.3155,5.0395,-1.185,-0.81886,0.23091,-0.3149,-42.3,14.34,-13.08
1.58,5.4481,-1.1169,-0.54734,0.27153,-0.44471,-42.42,15.18,-12.84
2.3155,5.7342,-0.46309,0.35094,0.060781,-0.78771,-42.9,16.62,-12.24
2.9556,5.7069,0.31327,0.92882,-0.35583,-0.9163,-43.02,17.22,-12.06
2.7786,6.1292,1.4438,1.6567,-0.91385,-0.94104,-43.26,18.0,-11.7
7.9951,7.4231,2.9556,2.0458,-1.0941,-0.78557,-43.44,18.0,-11.46
16.331,7.0553,4.2904,2.3686,-0.58429,-0.49052,-43.38,17.64,-11.34
18.742,4.9987,5.6116,2.5623,-0.54795,-0.094073,-43.14,17.04,-11.34
19.518,-3.5822,7.75,2.7565,-1.2065,-0.26237,-41.94,15.3,-11.7
19.532,-5.6524,6.5105,2.8628,-0.99235,-1.0009,-41.1,14.34,-12.06
19.532,-6.0338,4.7671,2.8781,-0.16066,-1.1616,-40.44,13.5,-12.54
18.415,-6.0202,4.5901,2.7797,-0.14752,-1.0928,-39.12,11.46,-13.5
15.473,-7.2188,4.3721,2.6331,-0.32987,-0.86254,-38.58,10.5,-13.92
12.585,-8.145,3.8954,2.5467,-0.40439,-0.74464,-37.86,9.36,-14.4
8.1858,-8.0632,2.9011,2.2153,-0.60353,-0.49266,-36.9,7.56,-15.36
5.4754,-7.8317,2.4108,1.9038,-0.69364,-0.35919,-36.54,6.6,-15.66
3.7728,-7.5729,2.2065,1.3702,-0.67501,-0.062003,-35.64,5.16,-16.14
1.3484,-6.565,1.6344,1.0244,-0.64568,0.061697,-35.1,4.62,-16.44
0.57205,-5.8976,1.1169,0.68631,-0.65912,0.1179,-34.68,4.32,-16.56
0.095342,-5.5435,0.89894,0.33903,-0.74098,0.22571,-34.5,4.32,-16.62
-0.92618,-5.1485,0.76274,-0.020159,-0.72082,0.3656,-34.62,4.5,-16.32
-1.3893,-5.3528,0.095342,-0.35827,-0.46456,0.51282,-34.74,4.44,-15.96
-1.6481,-5.4073,-0.88532,-0.79779,0.015577,0.67928,-35.04,4.38,-15.66
-0.054481,-5.38,0.54481,-1.4459,1.3286,1.6698,-35.34,4.26,-15.0
3.9635,-5.7614,2.5334,-1.7514,1.9563,2.4028,-35.28,4.26,-14.64
12.572,-7.7227,5.4754,-1.8408,2.4331,2.5653,-35.34,4.38,-14.4
19.314,-13.716,4.9306,-2.5427,2.3671,2.2547,-34.92,4.8,-14.28
19.518,-9.3027,2.5061,-2.4761,1.066,1.4032,-34.5,5.04,-14.22
19.532,-5.4618,1.3212,-2.2446,1.3201,0.6411,-34.2,5.4,-14.28
18.183,-3.0782,0.7355,-2.3418,1.5595,0.025962,-33.6,5.76,-14.4
15.445,-1.58,1.2803,-2.4273,0.81092,-0.099876,-33.48,6.24,-14.4
13.825,-0.57205,1.5391,-2.4487,0.54856,-0.23427,-33.3,6.78,-14.64
10.869,1.9613,1.3076,-2.354,0.23396,-0.37965,-33.36,8.22,-14.7
9.8475,2.833,1.0351,-2.2294,-0.2138,-0.42364,-33.36,9.0,-14.76
8.2812,3.5277,0.62654,-2.0834,-0.60506,-0.38973,-33.3,9.84,-14.52
4.6582,4.7399,0.21793,-1.6417,-0.29322,-0.28772,-33.36,11.94,-14.28
3.0237,5.4073,-0.36775,-1.2104,0.24801,-0.32651,-33.54,12.9,-14.16
2.547,6.279,-0.96704,-0.93065,0.39431,-0.42272,-33.84,13.8,-13.86
2.6968,6.96,-1.076,0.051924,0.20464,-0.99907,-33.96,14.58,-13.38
2.1112,6.7421,-0.32689,0.7138,-0.33292,-1.2782,-34.5,15.9,-12.78
1.6072,6.0338,0.01362,1.3283,-0.81764,-1.2966,-34.68,16.62,-12.36
1.7979,5.1757,0.53119,1.8066,-0.86193,-1.3763,-35.04,17.16,-11.88
2.4244,6.2109,0.91256,2.2675,-0.66096,-1.317,-35.52,17.82,-11.4
6.5105,8.2539,1.8932,2.4031,-0.44349,-0.63835,-35.46,17.7,-11.16
15.786,8.0088,4.2768,2.4047,0.45815,0.3882,-35.16,17.28,-11.04
19.409,-2.1384,8.6762,2.4041,0.020159,0.62217,-34.08,16.14,-11.22
19.532,-8.8941,7.1507,2.3824,-0.93615,-0.49755,-33.3,15.54,-11.82
19.532,-7.7091,3.7728,2.6362,0.11209,-1.1863,-32.1,14.28,-12.9
19.532,-5.8704,3.7728,2.6658,0.18662,-1.3821,-32.1,14.28,-12.9
19.096,-6.4152,2.6151,2.5849,-0.40348,-1.3903,-31.38,13.56,-13.38
12.844,-8.3629,2.9829,2.1805,-0.91233,-0.95753,-30.48,12.0,-14.34
9.8339,-8.5127,2.7649,1.8198,-0.91508,-0.67531,-30.0,11.28,-14.7
7.1507,-8.2539,2.2065,1.4789,-0.88575,-0.4441,-29.82,10.56,-15.24
3.3642,-7.464,1.8932,1.1393,-0.6805,-0.21533,-29.34,9.42,-16.26
2.0294,-7.355,1.7025,0.62675,-0.25656,0.12492,-29.1,8.94,-16.74
1.1713,-7.1507,1.2803,0.29688,-0.17959,0.27642,-28.86,8.58,-17.16
0.43585,-6.2381,0.44947,-0.039095,-0.27947,0.33903,-28.98,8.28,-17.52
-0.21793,-5.8295,0.43585,-0.40348,-0.42944,0.41356,-29.28,8.34,-17.52
-0.85808,-5.4481,0.44947,-0.74373,-0.48197,0.62797,-29.7,8.34,-17.58
-1.3484,-4.6173,-1.0488,-1.1304,-0.46884,0.8265,-30.6,8.22,-17.04
-1.185,-4.3858,-0.53119,-1.8115,0.050091,1.5437,-30.9,8.1,-16.98
-0.35413,-4.304,0.64016,-2.113,1.0229,2.5714,-31.32,8.22,-16.86
9.1393,-6.456,3.7456,-2.3466,2.2559,3.069,-31.38,8.52,-16.86
18.483,-10.038,5.8295,-2.4566,3.4453,2.9868,-31.44,8.82,-16.98
19.409,-11.577,5.0259,-2.8534,2.814,2.2773,-31.14,9.24,-17.04
19.532,-6.7421,2.8467,-2.7122,1.8958,1.1438,-30.48,9.84,-17.28
19.532,-4.127,2.0294,-2.4627,2.3124,0.2529,-30.24,10.14,-17.34
17.924,-1.6344,1.8932,-2.3995,2.0101,0.032376,-30.0,10.5,-17.4
14.615,-0.19068,1.866,-2.2779,1.0037,-0.27611,-29.58,11.46,-17.4
11.414,1.4574,1.3757,-2.2013,0.71868,-0.45326,-29.46,12.0,-17.4
10.351,2.1929,1.1441,-2.1017,0.40775,-0.47709,-29.46,12.84,-17.4
8.3493,3.9635,0.16344,-1.9557,-0.083994,-0.36255,-29.58,14.4,-17.16
7.2733,4.4675,-0.24517,-1.7581,-0.59651,-0.22083,-29.64,15.24,-16.92
4.699,4.9578,-0.77636,-1.46,-0.65546,-0.24068,-29.94,16.74,-16.26
2.8875,5.9112,-0.70826,-0.73182,-0.20586,-0.50427,-30.3,17.4,-15.78
2.4925,6.2381,-0.58567,-0.11087,0.18937,-0.83047,-30.66,17.88,-15.42
2.6015,6.2926,-0.6674,0.52351,0.29413,-1.1136,-31.44,18.66,-14.04
3.4051,5.8704,-0.36775,1.087,-0.10843,-1.2624,-31.8,18.84,-13.44
4.0997,5.1213,0.28603,1.5886,-0.76633,-1.3583,-32.28,19.14,-12.72
5.1894,5.8295,1.5255,1.9725,-1.4517,-1.3897,-33.18,19.26,-11.52
8.0496,6.9872,1.3757,2.2691,-2.069,-1.2095,-33.42,18.96,-10.86
11.891,6.7421,0.96704,2.4682,-2.0357,-0.87781,-33.54,18.3,-10.62
19.368,-0.99429,3.337,2.5611,-0.51343,-0.48136,-33.24,16.56,-9.9
19.504,-4.9306,4.413,2.6194,-0.71013,-0.87415,-32.82,15.6,-10.02
19.532,-6.0202,3.7592,2.5611,-0.74862,-1.4032,-32.52,14.58,-10.02
19.532,-5.094,2.833,2.4059,-0.5397,-1.6955,-31.98,12.66,-10.2
18.673,-5.9657,2.5198,2.1979,-0.72998,-1.5769,-31.68,11.76,-10.2
15.704,-6.9191,2.3427,2.0299,-0.60598,-1.2013,-31.44,10.74,-10.08
10.174,-6.9191,2.0839,1.5522,-0.3146,-0.89797,-31.08,9.18,-10.38
8.1177,-6.4152,1.6889,1.3121,-0.20586,-0.73059,-31.02,8.46,-10.32
6.3879,-6.0611,1.3076,1.0519,-0.28008,-0.42119,-30.6,7.08,-10.68
3.4596,-5.9249,1.2667,0.96853,-0.30146,-0.27886,-30.36,6.6,-10.86
2.2201,-6.0202,1.1713,0.70372,-0.36896,0.045509,-30.06,6.12,-11.16
1.362,-5.9657,1.0215,0.58582,-0.36163,0.10904,-29.94,5.94,-11.16
-0.38137,-5.4754,0.96704,0.17501,-0.088881,0.29749,-30.0,5.88,-10.98
-0.57205,-5.4754,1.1577,-0.15516,0.043066,0.51526,-30.42,5.88,-10.62
-0.8036,-5.5843,0.9398,-0.48564,0.11362,0.65118,-30.6,5.76,-10.44
-0.19068,-4.3858,-0.55843,-1.1695,-0.13073,1.1054,-30.9,5.64,-9.9
0.8036,-4.018,-0.19068,-1.3861,-0.087659,1.4771,-30.96,5.58,-9.66
5.1485,-4.5492,0.70826,-1.8167,0.39187,2.449,-31.08,5.58,-9.6
18.238,-8.7579,3.2144,-2.3915,1.9419,3.0867,-30.9,5.76,-9.3
19.382,-10.665,2.6968,-2.7177,2.6334,2.6411,-30.54,6.0,-9.18
19.504,-7.6002,1.8387,-2.5189,2.0717,1.4844,-30.18,6.24,-9.12
19.532,-4.0589,1.0896,-2.4297,2.1518,0.5397,-29.94,6.48,-9.24
17.693,-1.3212,1.0215,-2.4175,1.7733,0.40195,-29.7,6.78,-9.24
14.247,-0.027241,0.78998,-2.3833,0.86651,0.26023,-29.46,7.68,-9.06
11.768,1.2531,0.44947,-2.405,0.57727,0.16066,-29.58,8.1,-9.0
10.161,2.3155,0.081722,-2.3674,0.45296,0.078802,-29.76,8.7,-9.0
8.0224,3.8818,0.027241,-2.3384,0.18204,0.028405,-30.0,10.14,-8.46
6.8374,4.5764,0.081722,-2.2122,-0.14386,0.15302,-30.06,10.92,-8.28
4.6718,4.8488,-0.28603,-1.9743,-0.28588,0.20678,-30.18,11.88,-7.98
3.2008,4.8216,-0.62654,-1.4233,-0.078802,0.18479,-30.42,13.62,-7.38
1.9886,5.1076,-1.0624,-0.92454,0.12737,-0.047647,-30.6,14.46,-7.08
1.8251,5.3528,-1.2258,-0.34117,0.13744,-0.37385,-30.84,15.36,-6.66
2.0158,6.1292,-0.51757,0.24709,-0.086437,-0.6127,-31.56,16.92,-6.0
2.3155,6.1019,0.054481,0.80634,-0.47861,-0.7141,-31.98,17.58,-5.58
2.656,6.0338,1.0215,1.5165,-0.81337,-0.90347,-32.52,18.78,-4.74
5.8431,7.2733,2.152,1.9377,-1.0663,-0.87506,-32.88,19.02,-4.26
10.079,7.7636,2.6423,2.2886,-1.0592,-0.52931,-33.0,19.08,-3.96
19.314,1.757,4.1542,2.46,-0.78618,-0.10263,-32.88,18.3,-3.9
19.504,-4.4402,4.9578,2.5769,-0.96975,-0.23671,-32.58,17.58,-4.02
19.532,-8.3765,4.4675,2.558,-0.69914,-0.98624,-32.22,16.74,-4.38
19.532,-5.5299,2.0839,2.5998,0.16768,-1.2294,-31.32,15.24,-5.7
19.15,-4.9442,1.6753,2.6667,-0.24893,-1.2654,-30.66,14.46,-6.18
17.897,-5.7886,1.7025,2.5684,-0.72968,-0.9502,-30.24,13.74,-6.84
13.539,-7.464,2.0839,2.3014,-0.90652,-0.61911,-29.64,12.36,-8.04
11.25,-7.5865,1.866,1.9945,-0.91019,-0.46762,-29.52,11.58,-8.58
7.927,-7.4095,1.8251,1.6869,-0.82894,-0.35736,-29.34,10.92,-9.06
4.6037,-6.8374,1.7979,1.3573,-0.60934,-0.20525,-29.22,9.72,-10.32
2.4653,-6.3471,1.6617,1.0299,-0.34208,-0.046731,-28.92,9.36,-10.86
1.4438,-6.1428,1.4982,0.74464,-0.16616,0.083383,-28.74,9.18,-11.28
-0.58567,-6.0338,0.92618,0.25931,-0.11912,0.20433,-28.86,9.06,-11.88
-0.98067,-5.993,0.76274,-0.12217,-0.15333,0.27397,-29.16,9.24,-12.0
-1.5119,-5.993,0.51757,-0.51007,-0.27214,0.31215,-29.64,9.6,-12.12
-2.0294,-5.0531,-0.068102,-1.2611,-0.56749,0.69364,-30.6,9.9,-11.64
-1.1032,-4.7399,0.99429,-1.5409,-0.24648,1.5149,-31.2,9.9,-11.46
0.81722,-4.808,1.471,-1.6393,0.40409,2.4832,-31.62,9.96,-11.16
12.313,-7.4503,2.9965,-1.8402,1.5745,2.916,-32.1,9.96,-10.74
19.082,-12.395,1.9613,-2.4364,2.5769,2.6857,-32.58,10.44,-10.32
19.518,-8.9894,-0.10896,-2.4004,2.3219,1.9447,-32.64,10.92,-9.96
19.532,-4.9306,-0.61292,-2.1182,2.4474,0.35186,-32.4,11.64,-9.84
19.532,-3.5685,-0.46309,-2.0794,1.5079,0.079718,-32.4,11.76,-9.84
15.01,-0.84446,-0.1362,-2.0388,0.57177,-0.07758,-32.46,12.78,-9.6
10.447,0.99429,-0.054481,-2.0394,0.36316,-0.19303,-32.52,13.98,-9.42
7.9951,2.5334,0.10896,-1.9988,0.41325,-0.24923,-32.76,15.3,-9.18
6.8647,3.7865,0.34051,-1.898,0.33934,-0.21411,-33.06,16.74,-8.94
5.6661,4.8625,0.36775,-1.6887,0.012828,-0.12553,-33.36,18.0,-8.76
4.1406,5.3119,-0.50395,-1.2254,-0.35247,0.0088575,-33.66,19.26,-8.28
2.4789,5.3664,-1.2258,-0.83108,-0.28253,-0.055589,-34.08,20.52,-7.62
1.6753,5.4618,-1.471,-0.36621,-0.10965,-0.27306,-34.44,21.12,-7.2
0.92618,5.9521,-0.92618,0.14905,0.051618,-0.57574,-34.62,22.56,-6.72
0.76274,6.3471,-0.28603,0.70677,0.033598,-0.83902,-34.74,22.92,-6.48
1.4165,5.9793,0.62654,1.5015,-0.1573,-1.1087,-35.04,23.34,-6.0
2.547,5.6388,1.2667,1.9093,-0.43158,-1.2144,-35.16,23.4,-5.94
5.1757,6.6059,1.7706,2.2929,-0.70097,-1.1493,-35.34,23.16,-5.76
11.536,7.355,2.9692,2.6667,-0.24618,-0.69578,-35.64,22.68,-5.82
19.368,0.99429,5.8704,2.9074,-0.36072,-0.041844,-35.46,21.24,-6.3
19.504,-5.1894,6.3743,2.9948,-0.57146,-0.37415,-35.16,20.4,-6.84
19.532,-8.4991,3.9635,2.9431,-0.59987,-1.2633,-34.92,19.68,-7.5
19.532,-6.5514,3.0237,2.8378,-0.1011,-1.3357,-34.32,17.64,-9.0
18.51,-6.8102,2.5742,2.6948,-0.18082,-1.5091,-34.14,16.74,-9.6
16.549,-7.246,2.6696,2.2901,-0.40317,-1.1695,-34.08,15.96,-10.44
10.91,-7.355,2.3427,1.9633,-0.37477,-0.83902,-34.02,14.04,-11.76
8.4174,-6.7829,1.9341,1.6713,-0.45723,-0.61087,-34.08,13.08,-12.3
6.0202,-6.1564,1.471,1.2761,-0.58887,-0.33323,-34.02,11.4,-13.32
1.7979,-5.9385,1.4846,1.139,-0.58765,-0.19823,-34.2,10.62,-13.8
0.31327,-5.8976,1.6753,0.85765,-0.53603,0.06353,-34.32,9.9,-14.22
-0.49033,-6.1428,1.4165,0.39248,-0.43524,0.2303,-34.38,9.48,-14.4
-1.6753,-6.4833,0.85808,0.0064141,-0.44166,0.34728,-35.16,8.88,-14.7
-1.7162,-6.6467,0.5993,-0.3989,-0.54825,0.47067,-35.58,8.58,-14.46
-1.4438,-6.674,-0.43585,-0.82558,-0.80481,0.69242,-36.12,8.4,-14.1
0.6674,-7.0553,-0.54481,-1.4523,-0.75381,1.5586,-37.2,8.22,-13.26
5.1894,-7.5048,0.64016,-1.8943,0.36408,2.5213,-37.74,8.1,-12.72
9.3027,-8.6353,2.6423,-2.1597,1.2767,2.8659,-38.04,8.04,-12.24
18.565,-10.801,5.5162,-2.324,3.23,2.9477,-38.34,8.22,-11.88
19.504,-10.447,3.5277,-2.4768,2.3705,2.1133,-38.64,8.88,-11.4
19.532,-6.3879,1.2939,-2.0443,2.0583,1.0226,-38.58,9.3,-11.4
17.924,-0.96704,-1.1169,-1.9236,2.3161,0.41936,-38.58,10.14,-11.04
14.683,-0.027241,-0.50395,-2.0159,1.1567,-0.15149,-38.4,10.74,-11.04
12.517,0.28603,0.14982,-2.091,0.8488,-0.28986,-38.22,11.46,-11.1
8.3084,2.0703,1.1169,-2.3262,0.60964,-0.59071,-38.04,13.14,-10.98
7.3141,3.5685,1.3757,-2.4001,0.36774,-0.61636,-37.98,14.04,-11.04
6.4833,4.9987,1.1577,-2.2648,-0.049786,-0.40775,-37.92,14.88,-10.98
3.5004,6.8102,0.24517,-1.6451,-0.67837,-0.19487,-37.8,16.74,-10.86
0.99429,7.2052,-0.76274,-0.97738,-0.8097,-0.14325,-37.92,17.58,-10.8
