Ax,Ay,Az,Gx,Gy,Gz,Mx,My,Mz
14.043,-1.3212,-3.7592,0.82772,-1.3803,-0.35308,-26.1,32.94,-4.86
18.769,-6.3471,-3.5413,0.96272,-2.0769,-0.31734,-26.22,32.46,-4.8
19.518,-17.666,-0.17706,1.1805,-2.6368,-0.68264,-26.82,31.14,-4.74
19.532,-19.286,-0.49033,1.2929,-2.1444,-1.1542,-27.42,30.3,-4.86
19.504,-19.504,-0.7355,1.3616,-1.7058,-1.2853,-28.08,29.52,-4.86
11.55,-16.031,-0.054481,1.3726,-1.5479,-1.153,-29.34,27.24,-5.4
8.4174,-14.165,0.081722,1.1707,-0.99327,-0.65088,-30.0,26.22,-5.64
3.8546,-10.338,0.50395,1.051,-0.66096,-0.41508,-30.54,25.14,-6.06
1.8387,-7.9679,1.2531,0.73212,0.080634,0.084299,-31.08,24.12,-6.48
0.10896,-6.9055,1.7025,0.36438,0.99968,0.81489,-32.34,21.9,-7.32
-1.2258,-5.7069,0.99429,0.26634,1.2077,1.284,-32.82,20.82,-7.8
-1.4301,-3.0237,-0.43585,0.19914,1.0327,1.5513,-33.6,18.54,-8.94
-1.1577,-3.2553,-0.53119,-0.0058032,0.57085,1.5773,-34.14,17.7,-9.54
-1.1441,-3.6366,-0.28603,-0.19273,0.19059,1.6035,-34.5,16.98,-10.08
-1.5936,-4.0725,0.32689,-0.39004,0.084299,1.5843,-34.68,16.56,-10.38
-1.8796,-3.6094,0.35413,-0.58002,0.32529,1.5385,-34.02,16.62,-10.38
0.21793,-4.4675,-0.21793,-0.71654,0.52046,1.514,-33.48,16.98,-10.32
4.8625,-8.8668,-1.3757,-0.94501,0.54459,1.3528,-32.1,18.36,-9.72
7.8317,-15.541,0.01362,-1.3479,0.56719,1.2593,-31.32,19.02,-9.36
10.556,-19.0,1.4301,-1.576,0.74159,1.5229,-30.42,19.92,-8.82
13.076,-17.815,0.61292,-1.7165,0.9954,1.7413,-29.52,20.88,-8.22
13.947,-16.086,-0.40861,-1.504,1.3338,1.616,-28.62,21.96,-7.74
12.326,-13.539,-2.8603,-0.99449,1.628,1.2364,-26.64,24.48,-6.48
10.338,-11.4,-3.3642,-0.50732,1.6637,1.0208,-25.56,25.86,-5.76
8.2812,-7.6546,-2.6151,-0.24465,1.4239,0.99449,-23.16,28.8,-4.62
7.3005,-5.5571,-1.4301,-0.10599,1.0916,1.0751,-21.9,30.24,-4.26
6.9055,-4.808,-0.83084,-0.044288,0.96608,1.2593,-20.46,31.44,-4.14
7.4503,-4.3449,-0.57205,-0.077885,1.3427,1.3051,-18.18,33.42,-4.38
6.96,-3.2416,-1.0624,-0.023824,1.5556,1.212,-17.04,34.32,-4.62
6.4152,-1.362,-1.6753,0.11668,1.529,1.0137,-16.08,35.04,-4.74
4.7944,2.1112,-2.2746,0.32406,1.2495,0.73334,-14.16,36.42,-5.52
4.2495,2.3155,-2.1929,0.5849,0.64019,0.46242,-13.2,36.9,-5.7
3.8001,1.9341,-1.7979,0.77244,0.20831,0.44104,-12.36,37.32,-6.18
3.909,1.1305,-1.5936,0.87293,-0.0051924,0.45418,-11.4,37.8,-6.66
3.9771,1.0079,-1.6753,1.1707,-0.89583,0.47922,-10.56,38.1,-7.2
5.7342,-2.4517,-1.7979,1.2288,-1.4606,0.41569,-9.06,38.7,-8.1
6.8647,-8.5944,-1.6481,1.1811,-2.0214,0.61025,-8.52,38.88,-8.7
10.61,-18.551,-0.095342,1.1973,-2.1997,0.84696,-7.56,38.76,-9.66
13.007,-19.409,0.96704,1.2391,-2.6255,1.2352,-7.2,38.82,-10.02
12.177,-19.518,0.7355,0.90775,-2.6368,1.1518,-6.9,38.82,-10.5
9.1256,-19.532,1.5936,0.65088,-2.3671,0.95997,-6.42,38.64,-11.1
7.3822,-19.532,3.514,0.26145,-1.8451,0.64752,-6.24,38.52,-11.52
5.4209,-19.532,4.5628,-0.28375,-1.1765,0.35491,-6.3,38.34,-11.76
2.8058,-17.271,4.1678,-0.70738,-0.23427,0.25779,-6.48,38.16,-12.42
0.7355,-12.503,3.6366,-0.63163,0.48717,0.082161,-6.48,37.98,-12.54
0.054481,-10.202,3.4732,-0.4102,1.0501,0.025351,-6.54,37.8,-12.6
-0.99429,-5.2575,2.7649,-0.12584,1.3683,0.079412,-7.02,37.32,-12.84
-1.0896,-3.5958,1.9613,0.12859,1.2706,0.19823,-7.2,37.02,-12.96
-1.58,-1.9205,1.1577,0.33842,0.84635,0.25809,-7.2,36.9,-13.02
-2.9284,1.2803,0.16344,0.416,0.2135,0.25412,-7.26,36.9,-13.2
-3.2416,1.8524,0.068102,0.21716,-0.35339,0.19609,-7.14,36.72,-13.38
-2.7786,0.64016,0.25879,-0.034819,-0.17623,0.12065,-7.02,36.54,-13.44
-1.6344,-1.8524,0.31327,-0.29902,0.057116,-0.076969,-6.72,36.48,-13.68
-0.24517,-3.0373,-1.5255,-0.52351,0.26634,-0.4612,-6.54,36.36,-13.56
2.9556,-7.8453,-2.0294,-0.93554,0.30055,-0.85796,-6.24,36.36,-13.5
7.75,-18.837,2.2746,-1.4795,0.36285,-1.2312,-5.64,36.3,-13.38
8.4174,-19.491,1.7298,-1.7068,0.58002,-1.4661,-5.46,36.36,-13.38
9.2891,-18.864,0.14982,-2.0336,0.9389,-1.5721,-5.34,36.36,-13.26
11.305,-16.862,-4.2087,-1.3027,0.75014,-1.8894,-5.04,36.54,-12.66
8.7034,-15.105,-4.5083,-0.85827,0.65363,-2.0684,-4.92,36.66,-12.3
7.8589,-12.326,-3.7047,-0.69119,0.43433,-1.9432,-4.92,36.6,-12.0
7.1507,-6.4152,-1.3757,-0.68906,-0.053451,-1.587,-5.34,36.42,-10.98
6.8647,-4.6037,-0.92618,-0.76786,0.21197,-1.2923,-5.76,36.6,-10.44
6.3335,-2.5742,-0.84446,-0.81092,0.55436,-1.1961,-6.42,36.66,-9.9
5.5299,-0.35413,-1.185,-0.80879,1.5143,-1.1127,-7.26,36.54,-8.88
5.1757,0.89894,-1.4982,-0.68234,1.7211,-1.1744,-7.86,36.54,-8.46
4.1951,2.2474,-1.6344,-0.47647,1.5748,-1.3317,-8.4,36.54,-7.98
2.3836,2.6015,-1.3893,-0.12187,1.0424,-1.5766,-9.72,36.36,-7.2
1.5119,2.5742,-1.2258,0.11698,0.62553,-1.6359,-10.5,36.36,-6.9
1.4846,2.5061,-0.96704,0.34086,0.15241,-1.6176,-11.22,36.18,-6.6
2.6968,1.8115,-0.6674,0.53634,-0.28375,-1.5968,-12.78,35.82,-6.12
4.0725,0.88532,-1.0624,0.69058,-0.62339,-1.6102,-13.56,35.46,-5.88
4.9578,0.27241,-1.2939,0.87781,-0.894,-1.6503,-14.46,35.04,-5.7
11.836,-3.4868,-0.8036,1.1689,-1.7297,-1.3619,-16.32,33.9,-5.52
16.086,-6.1292,-0.64016,1.3885,-2.0516,-0.96883,-17.4,33.06,-5.76
19.109,-11.768,0.49033,1.5317,-2.156,-0.77,-18.42,32.34,-6.0
19.532,-17.053,-0.34051,2.1359,-1.8879,-1.0785,-21.06,30.84,-6.72
19.504,-17.325,-1.1169,2.3225,-1.4099,-1.4923,-22.2,29.94,-7.38
17.298,-16.916,-0.12258,2.2721,-1.7113,-1.5201,-23.28,28.86,-8.1
12.354,-14.383,1.58,1.916,-2.2562,-1.3906,-25.44,27.0,-9.48
7.7636,-11.073,2.1929,1.4404,-1.8402,-1.0049,-26.4,25.92,-10.26
6.1292,-9.4934,2.3699,1.0339,-1.0385,-0.59773,-27.3,24.96,-10.92
2.9556,-6.7693,1.6481,0.75259,-0.2926,-0.24801,-29.04,22.8,-12.48
1.1305,-5.9385,1.4165,0.52809,0.14508,0.089186,-29.76,21.84,-13.44
-1.0624,-4.8625,1.2531,0.40684,0.21105,0.40623,-30.3,21.06,-14.1
-2.261,-3.1054,0.61292,0.30727,0.23793,0.56566,-30.78,19.56,-15.54
-1.9886,-2.8603,0.49033,0.07086,0.31704,0.53084,-30.78,18.9,-16.02
-1.7706,-2.7513,0.31327,-0.12248,0.15119,0.55589,-30.66,18.24,-16.38
-2.2065,-2.9556,0.38137,-0.34422,-0.034819,0.60964,-30.42,16.74,-16.98
-2.1248,-3.2825,0.12258,-0.58765,-0.0281,0.69669,-30.42,16.32,-16.62
-2.1248,-3.2825,0.12258,-0.58765,-0.0281,0.69669,-30.42,16.32,-16.62
2.3291,-6.4969,-1.5391,-1.2593,0.6744,0.63011,-30.72,15.54,-14.22
5.1213,-8.9349,-1.2531,-1.4209,0.93554,0.57879,-30.9,15.6,-13.32
8.1041,-12.599,-1.0079,-1.8485,1.3415,0.82925,-30.9,15.6,-12.42
17.747,-17.897,0.21793,-2.6423,1.635,1.7046,-30.54,16.5,-10.62
19.314,-16.14,-0.12258,-2.8494,2.3253,1.4813,-30.48,17.04,-9.66
19.504,-16.004,-0.89894,-2.6771,2.7446,0.73823,-30.36,17.76,-8.88
19.177,-13.089,-3.8682,-1.9975,1.7846,0.405,-30.3,19.26,-7.38
14.342,-8.7715,-3.9499,-1.4389,0.68631,-0.028405,-30.24,20.28,-6.48
11.387,-5.6661,-2.6423,-1.2025,0.2813,-0.18326,-30.12,21.3,-5.76
9.2346,0.16344,-0.17706,-1.1222,0.61728,-0.04948,-29.7,24.06,-4.14
8.3084,2.3155,0.19068,-1.0687,0.8772,-0.031154,-29.34,25.26,-3.6
7.246,3.0782,0.040861,-0.90133,0.99113,-0.046426,-28.98,26.58,-3.42
2.8058,5.0668,-1.471,-0.6353,0.99938,-0.11484,-27.96,28.56,-3.18
1.5936,5.4754,-1.7843,-0.32223,0.81367,-0.2926,-27.54,29.4,-3.3
1.1986,4.9578,-1.866,0.18357,0.61881,-0.32895,-26.52,31.02,-3.36
1.866,4.3858,-1.6753,0.33781,0.52412,-0.33384,-26.4,31.5,-3.42
2.2474,4.0316,-1.58,0.66951,0.16921,-0.36713,-26.1,32.22,-3.54
3.732,2.7649,-1.6208,1.08,-0.44776,-0.45662,-25.68,32.7,-3.3
4.7399,2.3427,-1.5936,1.2761,-0.7251,-0.60109,-25.74,32.82,-3.36
7.7908,1.185,-1.3348,1.566,-0.93768,-0.78649,-25.68,32.7,-3.3
14.751,-2.0703,-2.3836,1.6774,-1.0046,-0.73793,-25.98,31.98,-3.42
19.177,-9.0439,-1.58,1.8497,-1.1548,-0.34392,-26.28,31.08,-3.6
19.491,-15.977,0.64016,1.9282,-1.3537,-0.013439,-26.7,30.24,-4.14
19.518,-18.646,1.5119,1.7587,-0.29413,-0.73609,-27.3,29.28,-5.04
19.177,-15.759,1.2258,1.6319,-0.0045815,-0.9276,-28.26,27.24,-7.14
17.257,-14.724,0.92618,1.7034,-0.58521,-0.96333,-28.62,26.04,-8.4
13.62,-13.062,1.1441,1.7156,-1.2465,-0.81795,-29.28,23.52,-10.8
8.7306,-9.9429,1.866,1.6252,-1.1936,-0.69333,-29.46,22.32,-12.18
6.9464,-8.1586,2.3427,1.2055,-0.75167,-0.36866,-29.58,20.94,-13.38
5.0395,-7.0009,2.656,0.91721,-0.67042,-0.18387,-29.7,19.74,-14.76
0.61292,-5.884,1.7706,0.64568,-0.67195,-0.013134,-29.52,17.22,-17.22
-1.0079,-4.9578,1.2258,0.31307,-0.70066,0.066584,-29.46,16.02,-18.42
-2.1112,-3.8137,0.57205,0.079107,-0.62492,0.000305,-29.1,13.8,-20.76
-3.2825,-2.9011,0.47671,-0.062003,-0.5791,-0.028711,-28.92,12.84,-21.6
-3.4732,-3.2825,0.57205,-0.4945,-0.46334,0.039401,-28.74,11.94,-22.2
-3.3506,-3.5277,0.65378,-0.78435,-0.25931,0.17501,-28.44,11.04,-22.32
-1.7298,-3.8546,0.5993,-1.0385,0.010385,0.29932,-28.44,9.3,-21.66
0.16344,-4.9442,-0.24517,-1.255,0.19212,0.40042,-28.5,8.76,-20.94
5.1485,-8.5808,-1.3484,-1.5931,0.31643,0.41294,-29.04,7.68,-19.44
9.9837,-13.661,-0.83084,-1.9926,0.31826,0.7086,-29.4,7.14,-18.36
16.086,-16.685,-0.14982,-2.4682,0.29627,1.2984,-29.82,6.78,-17.22
19.096,-15.05,-0.69464,-2.7987,1.0385,1.6945,-30.18,6.66,-16.2
19.518,-12.653,-4.0589,-2.5552,1.1765,1.2752,-31.14,7.08,-13.98
18.279,-10.992,-5.8704,-2.0644,0.37935,0.93401,-31.56,7.62,-12.78
13.062,-6.3471,-5.7886,-1.6771,-0.22541,0.57146,-32.28,9.06,-10.32
11.536,-2.6015,-3.7456,-1.4948,-0.18143,0.51007,-32.46,10.14,-9.3
10.338,0.054481,-2.5061,-1.4117,0.14294,0.58796,-32.52,11.28,-8.1
9.3708,1.4301,-2.0158,-1.321,0.72357,0.59132,-32.46,12.6,-6.96
5.4209,3.7728,-1.8115,-1.179,1.2034,0.54153,-32.04,15.48,-5.28
3.623,4.7263,-2.0022,-0.88881,1.4322,0.45235,-31.98,16.86,-4.74
1.2122,5.4754,-2.2201,-0.37415,1.3647,0.26542,-31.2,19.74,-3.78
1.2258,4.9442,-1.9886,-0.21961,1.2978,0.19181,-30.78,21.3,-3.36
1.6208,4.5356,-1.7706,0.22816,0.97189,-0.022602,-30.3,22.5,-3.18
3.0646,3.9635,-1.2531,0.50274,0.4893,-0.12767,-29.52,24.78,-2.7
4.0589,3.6639,-1.0896,0.70677,-0.051313,-0.24312,-29.28,25.62,-2.64
5.2711,2.9692,-1.0896,0.88178,-0.46242,-0.42425,-28.92,26.28,-2.4
10.624,1.5936,-1.2531,1.1881,-0.6747,-0.66371,-28.44,27.12,-2.34
17.257,-0.91256,-1.7025,1.4016,-0.81917,-0.50427,-28.26,27.18,-2.16
19.246,-6.5786,-0.44947,1.5556,-1.4554,-0.24832,-28.08,27.06,-2.28
19.532,-14.642,1.0896,1.9456,-1.8271,-0.97005,-28.38,26.58,-2.88
19.532,-14.138,0.054481,2.3873,-1.6646,-1.8338,-28.44,26.22,-3.12
19.532,-13.648,-1.0896,2.6337,-2.6579,-2.3448,-28.74,25.2,-3.84
17.271,-13.43,-0.54481,2.5244,-3.4095,-2.3503,-29.04,24.54,-4.14
13.198,-11.959,0.54481,2.1166,-3.3882,-2.1469,-29.4,23.7,-4.5
8.9349,-10.025,1.4846,1.8912,-3.0998,-2.0046,-29.88,23.04,-4.86
2.3018,-7.4231,1.471,1.3241,-1.7917,-1.3967,-30.54,21.36,-5.4
0.62654,-6.674,1.0624,1.0614,-0.7813,-0.9447,-30.84,20.58,-5.52
-0.17706,-6.4697,1.0215,0.80054,0.16188,-0.59071,-31.14,19.74,-5.94
-3.6366,-4.6718,0.34051,0.50641,0.66584,-0.021686,-31.62,18.18,-6.3
-4.0997,-4.3721,0.40861,0.36377,0.72724,0.2813,-31.74,17.46,-6.6
-4.1814,-4.3858,0.46309,0.28161,0.81215,0.37446,-31.98,16.86,-6.72
-3.6366,-4.6037,0.57205,0.016188,0.85735,0.70585,-32.04,15.42,-6.96
-3.3097,-5.203,0.6674,-0.20342,0.74587,1.0208,-32.22,14.88,-6.84
-2.7377,-5.8567,0.53119,-0.43188,0.83689,1.3051,-32.34,14.22,-6.72
-0.84446,-6.1973,-1.3757,-0.83414,1.2324,1.7086,-32.4,13.62,-6.06
4.7807,-9.6704,-0.89894,-1.2462,1.6383,2.1472,-32.58,13.62,-5.7
9.6568,-13.375,-0.095342,-1.8534,2.1631,2.5308,-32.46,13.56,-5.22
19.286,-18.224,1.0215,-2.4377,2.6108,2.8372,-32.22,13.98,-4.5
19.504,-15.895,-0.53119,-2.4587,3.3567,2.0223,-31.86,14.22,-4.2
19.532,-12.844,-1.7162,-2.0534,2.9804,0.9502,-31.68,14.76,-4.02
17.053,-7.3414,-3.2144,-1.5177,2.0217,0.065057,-31.08,16.02,-3.66
14.288,-5.6116,-3.0918,-1.0931,1.2987,-0.30665,-30.84,16.74,-3.3
11.278,-2.7786,-2.4244,-1.0745,1.2437,-0.35675,-30.48,17.76,-3.18
9.5615,1.3893,-0.64016,-1.1023,1.0837,-0.3259,-29.52,19.86,-2.58
8.826,2.261,-0.7355,-1.007,0.60415,-0.31673,-28.98,20.88,-2.64
6.7421,2.6832,-1.471,-0.82192,-0.054672,-0.34331,-28.38,21.96,-2.52
2.6968,3.5958,-2.261,-0.55772,-0.69211,-0.405,-27.24,23.94,-2.16
0.50395,3.6094,-2.3155,-0.21228,-1.2233,-0.44654,-26.46,24.66,-2.04
0.095342,3.4187,-2.1929,-0.039095,-1.0556,-0.49388,-25.98,25.38,-1.92
0.24517,3.1191,-1.9341,0.049175,-0.85613,-0.5171,-25.56,25.92,-1.86
1.3348,2.8467,-1.6617,0.32926,-0.29596,-0.5901,-25.02,26.94,-1.5
2.656,2.6696,-1.7298,0.5284,-0.096822,-0.65179,-24.78,27.24,-1.26
6.17,1.8524,-1.5255,0.80298,0.017104,-0.79962,-24.42,27.3,-0.48
10.161,1.185,-1.6481,0.94776,-0.14752,-0.75747,-24.48,27.0,-0.36
15.704,-0.96704,-1.9341,1.3946,-0.53573,-0.46548,-24.48,26.46,-0.18
19.055,-5.9657,-1.7979,1.507,-0.87934,-0.24954,-24.66,25.62,-0.06
19.532,-17.829,0.61292,1.7736,-1.6032,-0.67714,-25.38,24.06,-0.54
19.532,-17.434,0.31327,1.8463,-1.2947,-1.4306,-25.68,23.1,-1.02
19.532,-15.418,-0.34051,1.9209,-1.522,-1.8027,-25.86,22.08,-1.5
13.988,-11.836,-1.4982,1.9914,-1.9316,-1.8824,-26.28,19.74,-2.76
10.174,-9.7794,-1.0351,1.7733,-1.5043,-1.6774,-26.34,18.72,-3.42
6.7421,-8.2131,-0.12258,1.6008,-1.1619,-1.4957,-26.34,17.58,-4.02
2.3836,-6.8783,0.98067,0.9841,-0.21533,-0.77,-26.46,15.42,-5.28
1.2803,-6.0202,1.185,0.54398,0.30727,-0.31948,-26.52,14.34,-5.82
0.095342,-4.5764,0.9398,0.21625,0.5791,0.017104,-26.7,13.56,-6.42
-2.5879,-2.9965,0.65378,0.014355,0.46548,0.39951,-26.4,12.12,-7.56
-3.6639,-2.7104,-0.35413,-0.054367,0.34575,0.56108,-26.34,11.52,-7.86
-3.4732,-2.833,-0.35413,-0.11881,0.36957,0.60964,-26.22,11.16,-7.98
-2.4925,-2.7649,0.040861,-0.27947,0.35919,0.78924,-25.86,10.44,-7.44
-2.0975,-2.9965,0.35413,-0.37904,0.37935,0.93126,-25.86,10.32,-6.78
-1.4438,-3.4596,0.14982,-0.49572,0.45051,1.0864,-26.04,10.44,-6.12
0.62654,-4.8216,-1.8932,-0.68295,0.64935,1.2733,-26.46,10.92,-4.62
1.6617,-6.3743,-1.7162,-1.3592,1.576,1.7147,-26.64,11.16,-3.78
5.884,-10.842,-0.57205,-1.639,1.9432,2.0207,-26.82,11.7,-2.88
18.837,-18.864,0.25879,-2.8738,2.507,2.704,-26.94,12.72,-0.96
19.45,-18.401,-0.64016,-3.0846,2.9569,1.6893,-26.88,13.26,-0.18
19.518,-15.554,-1.8932,-2.7532,2.6783,0.58674,-26.58,13.86,0.48
18.946,-8.3357,-3.9227,-2.0809,1.9013,0.20281,-26.34,15.24,1.8
16.835,-6.2109,-3.7865,-1.5162,0.79718,-0.54489,-25.98,16.08,2.22
12.449,-3.0237,-1.866,-1.5336,0.48747,-0.60384,-25.68,16.92,2.46
9.4525,1.0624,0.64016,-1.6374,0.31765,-0.52412,-24.42,18.66,3.06
8.2267,2.8058,0.38137,-1.5605,0.021991,-0.47617,-23.7,19.5,3.12
6.5786,3.8273,-0.054481,-1.3381,-0.34239,-0.50763,-22.98,20.28,3.18
2.7377,4.7944,-0.98067,-1.0779,-0.489,-0.55283,-21.66,21.42,3.12
0.84446,5.2166,-1.2258,-0.52412,-0.54489,-0.57055,-21.12,21.9,3.0
-0.46309,5.2575,-1.2939,-0.12981,-0.52046,-0.51374,-20.4,22.26,2.82
0.16344,4.2495,-1.1577,0.24251,-0.31734,-0.49602,-19.62,22.98,2.52
0.99429,3.7865,-0.99429,0.61942,-0.13073,-0.56139,-19.32,23.34,2.4
1.9341,3.5685,-0.81722,0.96486,-0.19334,-0.613,-19.08,23.46,2.46
5.8976,3.0918,-0.84446,1.2685,-0.29963,-0.62705,-18.84,23.7,2.34
13.062,1.7162,-1.185,1.6909,-0.3372,-0.43433,-18.9,23.64,2.46
17.543,-0.17706,-0.77636,1.8289,-0.79168,-0.097738,-18.9,23.34,2.28
19.504,-12.585,2.2746,1.9035,-1.3366,-0.28008,-19.44,22.98,1.2
19.532,-17.257,3.0646,1.9667,-1.3812,-1.2055,-19.68,22.74,0.6
19.532,-17.162,2.2474,2.076,-1.5201,-1.7153,-19.98,22.38,-0.06
16.399,-12.64,0.081722,2.1408,-1.6478,-2.0088,-20.46,21.78,-1.8
13.729,-11.182,-0.01362,2.1029,-1.5345,-1.8289,-20.58,21.36,-2.64
10.065,-9.2482,0.25879,1.9019,-1.3836,-1.4059,-20.88,20.94,-3.48
3.4323,-7.2733,1.0624,1.7486,-1.3076,-1.1668,-21.42,19.98,-5.46
0.89894,-6.4424,0.99429,1.2361,-0.88362,-0.53817,-21.66,19.56,-6.3
-1.5391,-5.5435,0.89894,0.92974,-0.43555,-0.17746,-22.02,19.02,-7.26
-4.2223,-4.4811,0.85808,0.64966,-0.0076358,0.20769,-22.62,17.88,-8.76
-4.7399,-4.2087,0.64016,0.29291,0.281,0.63988,-22.98,17.4,-9.54
-4.6309,-3.7728,-0.28603,0.046426,0.50396,0.79382,-23.52,16.5,-10.38
-3.4596,-3.8409,-0.31327,-0.17898,0.5565,1.0116,-23.82,15.96,-10.62
-2.8603,-4.4675,-0.068102,-0.4047,0.51801,1.252,-24.0,15.42,-10.5
-2.1929,-4.9306,-0.095342,-0.62125,0.52809,1.4316,-24.24,15.06,-10.44
0.99429,-5.4754,-1.7706,-0.81978,0.66829,1.5351,-24.72,14.22,-9.66
4.5764,-7.6819,-1.4165,-1.4719,1.4093,1.8219,-25.2,13.98,-9.24
17.025,-16.957,0.99429,-1.7727,1.5849,2.0183,-25.8,13.92,-8.28
19.382,-19.314,0.7355,-2.5226,1.7083,2.3176,-26.04,13.8,-7.8
19.504,-16.126,-1.1305,-2.4963,1.9028,1.6814,-26.28,13.74,-7.38
19.532,-13.443,-2.6151,-1.8656,1.4371,0.354,-26.34,13.98,-7.02
19.532,-10.283,-4.7126,-1.4022,0.57299,-0.17501,-26.4,14.4,-6.78
10.869,-2.547,-3.2553,-1.1845,0.095295,-0.37935,-26.64,15.54,-5.76
8.7987,0.42223,-1.7025,-1.4203,0.10293,-0.15302,-26.64,16.38,-5.28
7.4912,2.5606,-0.8036,-1.5516,0.26206,0.043982,-26.7,17.34,-4.8
6.3198,3.8001,-0.65378,-1.5391,0.33048,0.099571,-26.7,18.3,-4.26
3.8273,4.7671,-1.1986,-1.3482,0.46701,0.2025,-26.64,19.26,-3.9
0.81722,5.8567,-1.4029,-1.1466,0.51313,0.26298,-26.28,21.36,-3.42
0.81722,5.6933,-1.2667,-0.92699,0.69364,0.26848,-25.92,22.26,-3.12
0.61292,4.8761,-1.185,-0.64752,0.79718,0.2642,-25.2,24.24,-2.52
1.866,4.2495,-1.0896,-0.32315,0.68111,0.20769,-24.96,25.02,-2.34
2.9011,3.8273,-0.99429,0.11576,0.40317,0.0027489,-24.6,25.8,-2.22
4.413,3.4051,-0.89894,0.39492,0.20953,-0.14478,-24.48,26.52,-2.04
9.2755,2.1929,0.040861,0.74923,0.052534,-0.3036,-24.3,27.36,-1.56
13.866,0.8717,-0.24517,1.1897,-0.12401,-0.23885,-24.06,27.36,-1.68
19.436,-9.221,1.5391,1.7119,-0.73365,0.042455,-23.94,26.88,-2.04
19.518,-15.323,2.4108,2.1988,-1.2208,-0.75381,-24.06,26.58,-2.4
19.532,-18.156,2.4108,2.4291,-1.2956,-1.2028,-24.12,26.04,-3.0
19.532,-17.053,0.98067,2.8521,-1.9086,-1.9429,-24.54,24.6,-4.62
16.944,-14.805,0.91256,2.9126,-2.5183,-2.2321,-24.84,23.82,-5.46
12.204,-12.64,0.89894,2.8017,-2.6133,-2.1634,-25.14,22.86,-6.42
5.094,-8.826,1.6208,2.4981,-2.3506,-1.8891,-25.62,20.58,-8.16
2.0975,-7.7364,1.7979,1.9199,-1.6835,-1.358,-25.86,19.5,-8.88
-0.50395,-7.0281,1.7298,1.4789,-1.029,-0.94165,-26.22,18.36,-9.54
-2.5061,-6.0202,1.2531,1.0577,-0.23946,-0.51313,-26.34,17.16,-10.2
-3.6094,-4.1814,0.43585,0.686,0.28191,-0.092852,-26.76,15.06,-11.28
-4.1542,-4.0044,0.081722,0.36499,0.41386,0.1909,-26.94,14.22,-11.76
-4.0452,-3.623,-0.51757,-0.09163,0.42272,0.47495,-27.42,12.48,-12.0
-3.5685,-3.3234,-0.29965,-0.24679,0.42119,0.58185,-27.6,11.64,-11.82
-3.4459,-3.2008,-0.027241,-0.54306,0.35827,0.82894,-27.84,10.92,-11.4
-3.2689,-2.7241,-0.21793,-0.85338,0.46548,1.233,-28.38,9.9,-10.02
-2.2474,-3.1872,-1.3757,-1.0458,0.88026,1.4737,-28.56,9.66,-9.36
0.9398,-5.1213,-1.4846,-1.3864,1.5861,1.8653,-28.86,9.6,-8.46
17.189,-17.802,2.9556,-1.7657,2.2465,2.3085,-29.58,9.84,-6.96
18.946,-19.096,4.1406,-3.2409,1.6958,3.2214,-29.7,10.02,-6.18
19.504,-19.504,1.8932,-3.3976,1.9477,2.5849,-29.82,10.44,-5.4
19.532,-10.801,-4.1542,-1.8445,1.7226,0.24557,-29.94,11.46,-4.2
14.996,-7.7772,-6.4424,-1.0861,1.1292,-0.15913,-30.18,12.42,-3.78
12.068,-4.7671,-5.4073,-0.8265,0.70891,-0.52382,-30.18,13.32,-3.24
8.7987,-0.47671,-1.7706,-1.0299,0.79748,-0.3204,-30.18,15.54,-2.58
8.3084,2.2474,-0.35413,-1.4645,0.81764,-0.16188,-30.0,16.5,-2.34
7.6683,4.3449,-0.20431,-1.4587,0.69608,-0.12339,-29.76,17.76,-2.28
4.3177,5.6524,-1.1169,-1.2657,0.085827,-0.12217,-29.04,19.62,-2.22
2.0839,6.4697,-1.4165,-1.0931,-0.14936,-0.11209,-28.74,20.4,-1.98
0.77636,6.96,-1.4846,-0.83078,-0.35033,-0.054367,-28.5,21.84,-1.8
-0.21793,6.4697,-1.5391,-0.53054,-0.33964,-0.068111,-27.96,22.38,-1.68
0.57205,5.7886,-1.471,-0.014355,-0.10476,-0.11912,-27.84,22.98,-1.5
2.7922,4.7944,-1.4029,0.15485,-0.022602,-0.18234,-27.84,23.4,-1.38
5.6661,2.9965,-0.76274,0.65729,0.055283,-0.47709,-27.9,23.4,-0.96
8.322,2.2474,0.054481,1.0067,0.014966,-0.65149,-27.78,23.1,-0.72
15.445,2.2474,0.14982,1.3625,-0.12401,-0.66554,-27.9,22.62,-0.3
19.409,-8.6762,1.8387,1.6661,-0.71624,-0.49847,-28.14,21.06,-0.06
19.518,-15.078,3.1872,2.1787,-1.9141,-1.2013,-28.38,20.46,0.24
19.532,-18.742,2.7241,2.4184,-1.8314,-1.956,-28.68,19.62,0.42
19.518,-15.241,0.16344,2.5681,-2.1338,-2.3231,-28.98,18.42,0.84
16.181,-12.544,0.040861,2.6017,-2.587,-2.4581,-28.98,17.88,0.84
11.618,-10.365,0.57205,2.4425,-2.4853,-2.2581,-28.86,17.4,0.72
2.1656,-7.9815,1.0896,2.1973,-1.8958,-1.6359,-28.44,16.38,0.9
-0.14982,-7.3414,1.2803,1.806,-0.5901,-1.1677,-28.32,15.9,0.78
-2.1929,-6.1836,1.1577,1.6597,-0.13378,-0.92271,-28.02,15.42,0.72
-2.7241,-4.2223,0.89894,1.2217,0.7761,-0.16493,-27.48,14.88,0.42
-2.6696,-3.8273,0.57205,0.95081,0.78099,0.23579,-27.3,14.76,0.06
-2.4517,-3.7456,0.51757,0.65363,0.72082,0.4893,-27.06,14.58,-0.3
-2.4925,-3.7047,0.62654,0.35491,0.68356,0.6298,-26.64,14.76,-0.6
-2.1656,-3.8546,0.040861,-0.07086,0.57788,0.832,-26.4,14.64,-0.84
-1.4982,-4.4947,-0.12258,-0.35369,0.68783,0.91935,-26.04,14.7,-0.9
0.68102,-5.6933,-0.50395,-0.64385,0.82253,0.87445,-25.98,14.58,-1.08
5.1485,-7.2324,-1.8115,-1.0773,0.93493,0.85124,-26.28,14.52,-0.96
10.038,-11.182,-1.58,-1.6313,0.94257,1.2245,-26.58,14.58,-1.02
19.246,-17.57,0.61292,-2.1576,0.68539,1.8558,-27.6,14.7,-1.02
19.518,-14.015,-0.84446,-2.4398,2.0611,0.98227,-28.08,14.88,-1.02
19.532,-11.128,-2.5334,-2.0666,1.8943,0.42302,-28.68,15.12,-1.08
19.504,-9.3572,-3.6639,-1.6655,0.9502,-0.015272,-29.34,15.42,-1.14
13.348,-4.3177,-3.1191,-1.533,0.39737,-0.25045,-30.48,16.26,-0.9
10.27,-1.5255,-1.9613,-1.5986,0.29658,-0.19792,-30.96,17.04,-0.9
8.1995,1.1441,-1.0351,-1.7917,0.24771,-0.051313,-31.44,17.94,-0.72
5.3528,4.5628,-0.8717,-1.8598,0.24954,0.1124,-32.46,19.8,-0.48
3.6775,5.1757,-1.1986,-1.7523,0.22877,0.13989,-32.94,20.76,-0.36
1.9886,6.0066,-1.471,-1.5629,0.13928,0.14172,-33.18,21.66,-0.24
0.84446,6.4424,-1.975,-1.3427,0.27794,0.12981,-33.72,23.76,-0.18
0.43585,5.7886,-1.8524,-1.0657,0.4215,0.14325,-33.78,24.72,-0.18
0.83084,5.3256,-1.7025,-0.7251,0.37171,0.20036,-33.78,25.5,0.18
3.2416,4.3585,-1.3484,-0.22052,0.21014,0.083078,-33.84,26.94,0.12
5.1757,3.8001,-0.76274,0.075136,0.11332,-0.16402,-34.02,27.54,0.12
7.0281,3.3234,-0.76274,0.24526,0.062919,-0.29413,-33.96,28.2,0.12
15.432,2.5198,0.8036,0.86651,-0.076664,-0.44471,-34.14,28.5,-0.3
19.028,-0.40861,1.8115,1.3222,-0.27703,-0.40897,-34.38,28.2,-0.72
19.477,-5.8295,3.1872,1.8155,-0.47312,-0.53939,-34.56,27.66,-1.32
19.532,-14.996,3.051,2.3732,-0.16432,-1.0993,-34.98,26.52,-3.0
19.532,-15.296,2.2474,3.0601,-0.54153,-1.7541,-35.22,25.74,-4.26
19.532,-14.002,1.2531,3.2367,-1.514,-1.9209,-35.58,24.78,-5.46
13.184,-9.7385,0.24517,3.2342,-2.0818,-1.8659,-36.06,22.56,-7.8
9.2891,-7.7908,0.054481,2.9832,-2.2034,-1.6842,-36.48,21.3,-8.76
6.674,-6.4697,0.49033,2.5898,-2.1017,-1.5241,-36.78,20.16,-9.72
0.51757,-5.3119,1.0896,2.1264,-1.8323,-1.2306,-37.74,17.46,-10.8
-2.0022,-5.1894,1.3757,1.3247,-0.91844,-0.37996,-38.1,16.26,-11.22
-3.5549,-4.9987,1.3484,0.75014,0.024435,0.086743,-38.46,15.0,-11.52
-4.9306,-4.7944,0.76274,0.34361,0.89797,0.35155,-38.88,13.98,-11.88
-4.2495,-5.1485,-0.31327,0.083689,1.4468,0.5058,-39.18,12.48,-12.0
-3.3506,-5.3119,-0.83084,-0.12034,1.4707,0.6353,-39.3,11.76,-11.82
-2.6423,-5.7478,-0.6674,-0.34483,1.1109,0.86101,-39.36,10.98,-11.52
-1.1169,-6.6195,-1.0624,-0.54214,0.68478,1.0855,-39.48,10.02,-10.2
1.1713,-6.8919,-1.6208,-0.83017,0.41142,1.3277,-39.48,9.78,-9.3
3.9908,-7.9134,-0.68102,-1.3659,0.53542,1.6527,-39.48,9.66,-8.64
18.061,-15.936,4.5356,-2.485,1.1264,2.5772,-39.66,9.72,-7.14
19.355,-16.235,4.1814,-3.0055,2.244,2.7526,-39.72,9.84,-6.48
19.504,-13.171,1.471,-2.5082,2.8662,1.2795,-39.54,10.38,-6.06
19.532,-7.0417,-2.6423,-1.5269,0.92821,0.032987,-39.06,11.28,-5.88
17.924,-5.1757,-2.6696,-1.43,0.3708,-0.2474,-38.88,12.0,-5.82
14.002,-2.7377,-2.0567,-1.4203,0.09896,-0.57482,-38.7,12.84,-5.64
9.7385,1.3484,-0.49033,-1.6741,0.10965,-0.58887,-38.34,15.0,-5.4
7.1915,3.6639,-0.25879,-1.6878,-0.033292,-0.49724,-38.16,16.08,-5.34
4.1542,5.2983,-1.2939,-1.3482,-0.22602,-0.33628,-37.74,18.48,-4.92
2.0567,5.9657,-1.9477,-1.2083,-0.21747,-0.28405,-37.74,19.74,-4.62
0.25879,6.279,-2.2746,-0.70372,-0.19517,-0.16554,-37.68,21.06,-4.56
-0.38137,5.1621,-2.152,-0.36713,0.015272,-0.036652,-37.38,23.16,-4.14
0.23155,4.2223,-1.7979,-0.025045,0.23763,0.03207,-37.14,24.0,-4.14
0.7355,3.5413,-1.5119,0.32865,0.33414,0.0018326,-36.9,25.08,-4.2
2.2474,3.1054,-1.2258,0.68325,0.26298,-0.027794,-36.9,26.46,-4.14
3.7865,2.6423,-0.99429,1.1484,-0.0054978,-0.1741,-36.96,26.82,-3.9
5.775,2.3155,-0.96704,1.536,-0.21961,-0.24465,-36.9,26.94,-3.96
16.426,2.5334,-0.83084,1.9929,-0.51282,-0.084299,-36.66,25.74,-4.32
19.15,-1.7843,0.21793,2.2513,-0.97861,0.34239,-36.54,24.66,-4.62
19.477,-9.5206,2.6696,2.2724,-1.336,0.17562,-36.48,23.46,-5.4
19.532,-16.521,3.3506,2.343,-1.3014,-0.95295,-36.42,21.06,-7.68
19.532,-15.05,2.5334,2.4743,-1.7333,-1.4789,-36.12,19.8,-8.94
17.992,-12.435,1.4846,2.4267,-2.0003,-1.7113,-35.7,18.42,-9.96
10.134,-8.7715,0.95342,2.0904,-1.5354,-1.4835,-34.98,16.02,-11.82
7.5048,-7.7091,1.076,1.912,-1.2266,-1.2908,-34.68,14.88,-12.6
5.094,-7.0962,1.3348,1.3573,-0.31185,-0.79229,-34.5,13.62,-13.32
1.3348,-5.8431,1.3212,0.98777,0.10201,-0.4609,-33.72,11.34,-14.52
0.36775,-5.2847,1.1713,0.51954,0.27245,0.047647,-33.3,10.44,-15.18
-1.5391,-4.127,0.29965,0.25198,0.096517,0.36713,-32.46,8.94,-16.26
-2.5198,-4.1406,-0.027241,0.010079,-0.036957,0.60628,-32.4,8.82,-16.44
-2.5606,-4.5764,0.027241,-0.12645,-0.027794,0.69028,-32.28,8.58,-16.38
-2.4789,-4.7671,0.12258,-0.50793,0.13714,0.9896,-32.22,8.52,-15.96
-1.8932,-4.8897,-0.12258,-0.65821,0.24771,1.2245,-32.28,8.46,-14.4
-1.0215,-4.8897,-0.8717,-0.91049,0.5342,1.5336,-32.4,8.34,-13.56
1.866,-5.9249,-0.9398,-1.2688,1.0751,1.8317,-32.94,8.82,-12.18
6.8374,-9.2346,0.9398,-1.744,1.6753,2.2895,-33.3,8.94,-11.52
15.159,-12.939,3.7184,-2.1044,1.8497,2.5293,-33.6,9.36,-11.1
19.395,-12.694,2.3563,-2.6154,2.3097,1.9172,-34.08,10.2,-10.02
19.532,-9.6977,-0.40861,-2.1652,2.0534,0.55741,-34.08,10.68,-9.66
19.532,-6.9055,-2.0158,-1.7135,0.76175,0.01405,-34.2,11.34,-9.24
16.453,-4.3858,-2.7649,-1.3726,-0.21655,-0.85491,-34.62,13.14,-8.4
12.435,-1.5936,-2.6968,-1.3363,-0.20281,-1.0391,-34.74,13.86,-8.04
9.5615,1.3212,-2.2882,-1.3515,-0.2587,-1.138,-34.86,14.76,-7.74
5.6252,4.0997,-1.4574,-1.2926,-0.37415,-0.86926,-34.98,16.92,-7.08
4.018,3.9363,-2.0022,-1.1087,-0.16768,-0.7196,-35.16,18.06,-6.6
2.1793,3.4459,-2.5742,-0.84025,0.10324,-0.68692,-35.22,19.14,-6.12
0.40861,3.0782,-3.4732,-0.36988,0.21594,-0.57696,-35.7,20.46,-5.34
0.35413,2.4244,-3.4187,-0.0956,0.33017,-0.53817,-35.88,21.0,-4.92
0.91256,2.3018,-2.9965,0.18234,0.2135,-0.51282,-36.06,21.3,-4.5
1.866,2.4108,-2.3291,0.4612,-0.018631,-0.45876,-36.6,21.54,-4.14
4.3313,2.0703,-1.8387,0.72326,-0.098044,-0.43524,-36.9,21.3,-4.02
7.2324,2.4108,-2.0022,1.0522,-0.027794,-0.38637,-37.14,20.82,-4.08
17.584,0.54481,-2.4517,1.4942,-0.51129,0.37293,-37.32,18.9,-4.62
19.286,-4.9578,-0.72188,1.7526,-1.044,0.3656,-37.38,17.94,-5.46
19.504,-11.278,1.471,1.8112,-1.2572,-0.013134,-37.56,16.98,-6.48
19.532,-12.299,2.0975,1.9285,-1.7462,-0.76633,-37.5,15.0,-8.7
19.504,-11.182,1.471,1.978,-1.843,-1.1768,-37.38,13.98,-9.6
16.998,-10.542,1.1169,1.9554,-1.4346,-1.3079,-37.26,12.9,-10.5
7.0417,-7.5729,1.6889,1.5962,-0.54642,-0.9841,-36.9,11.28,-12.0
4.8625,-7.1371,1.8387,1.1655,0.020464,-0.66432,-36.6,10.56,-12.78
1.2803,-5.9657,2.0567,0.91721,0.29383,-0.49694,-36.54,9.9,-13.38
-0.77636,-4.9578,1.9205,0.19151,0.85979,0.030238,-36.24,8.76,-14.22
-2.152,-3.9908,1.2258,-0.15516,0.84025,0.44471,-36.0,8.46,-14.58
-2.833,-3.3778,0.51757,-0.3262,0.5565,0.75717,-36.0,8.34,-14.7
-2.8058,-2.9011,-0.6674,-0.46273,0.36713,0.92668,-36.12,8.7,-14.64
-2.8603,-2.7377,-0.47671,-0.5568,0.34636,1.0427,-36.12,9.0,-13.98
-2.7241,-2.942,-0.1362,-0.66004,0.51526,1.175,-36.0,9.24,-13.08
-0.1362,-4.0861,-0.095342,-0.74587,0.71654,1.248,-36.36,9.42,-11.04
2.7786,-4.9033,-1.2803,-0.88575,0.93371,1.1759,-36.66,9.42,-10.26
6.9328,-5.6116,-1.6889,-1.2074,1.0779,1.0638,-37.08,9.9,-9.54
18.864,-14.737,1.58,-1.5892,0.93921,1.7908,-37.74,10.8,-8.04
19.368,-16.126,2.4108,-2.2083,0.53206,1.504,-38.22,11.52,-7.26
19.518,-14.192,-0.29965,-2.1716,0.77213,0.71838,-38.34,12.18,-6.66
16.426,-8.0905,-4.5764,-1.4423,0.78741,-0.2813,-38.82,13.74,-5.64
13.443,-5.0531,-5.2166,-1.128,0.30513,-0.65515,-39.06,14.4,-5.16
11.223,-2.8875,-3.9908,-1.0482,0.41111,-0.90408,-39.18,15.12,-4.68
8.9622,1.3348,-0.38137,-1.1753,1.2798,-0.85582,-39.6,16.8,-3.96
8.1995,3.1191,0.51757,-1.2901,1.3525,-0.79412,-39.84,17.64,-3.72
6.565,4.3994,0.24517,-1.1588,1.1359,-0.67042,-40.08,18.6,-3.66
2.0294,4.9033,-1.4982,-0.92454,0.90683,-0.49999,-39.96,20.34,-3.48
1.2531,4.5628,-1.975,-0.70311,0.8436,-0.40714,-40.02,21.24,-3.36
1.7979,4.0861,-2.1793,-0.46914,0.7929,-0.3372,-39.78,21.9,-3.3
3.0646,3.5413,-2.0158,-0.16921,0.51129,-0.28222,-39.84,22.86,-3.54
2.9965,3.2825,-1.8251,0.29627,-0.025962,-0.26725,-39.78,22.92,-3.66
3.1463,2.7649,-1.0896,0.56933,-0.0054978,-0.33659,-39.9,22.86,-3.78
5.094,2.2337,-0.24517,0.88728,0.33231,-0.4609,-40.02,22.44,-3.84
11.509,3.6094,1.2667,1.3631,0.60323,-0.31826,-39.96,20.94,-4.56
17.856,2.1384,2.6832,1.8024,0.2645,0.17257,-39.66,19.74,-5.52
19.123,-0.50395,4.2223,2.2367,-0.29413,0.30574,-39.24,18.42,-6.72
19.532,-12.572,6.3198,2.952,-1.0705,-0.35125,-38.16,15.72,-10.02
19.532,-13.675,5.4073,3.2073,-1.6664,-0.8717,-37.32,14.58,-11.64
19.518,-13.089,4.3313,3.2461,-2.0473,-1.0397,-36.66,13.44,-13.26
12.626,-9.902,4.2495,3.1221,-2.7098,-1.1246,-35.1,11.34,-15.84
8.1313,-8.0769,3.5549,2.8537,-2.773,-0.91111,-34.56,10.32,-16.92
5.6116,-7.4367,2.6423,2.4936,-2.5659,-0.67837,-33.9,9.3,-17.7
0.36775,-6.8919,1.866,1.8347,-1.8494,-0.31154,-33.06,7.5,-19.14
-1.7025,-6.0474,1.8796,1.569,-1.4755,-0.18021,-32.64,6.72,-19.62
-2.5742,-5.4345,1.7843,0.98624,-0.58429,0.1011,-32.16,6.12,-20.04
-3.6775,-4.7263,1.2939,0.16952,0.52809,0.49633,-31.8,5.82,-20.34
-4.1951,-4.0044,0.47671,-0.28222,0.93279,0.6353,-31.86,6.06,-20.04
-3.6911,-3.8546,0.068102,-0.64721,1.1756,0.79168,-32.16,6.3,-19.26
-2.6151,-4.8488,-0.76274,-0.94134,1.3329,1.0043,-32.82,6.54,-16.8
-1.3212,-4.7944,-2.1384,-1.4587,1.6848,1.2159,-33.54,6.6,-15.6
0.44947,-5.5435,-1.3893,-1.9132,2.0791,1.6255,-34.2,6.66,-14.4
13.498,-12.762,5.7886,-2.5513,2.0617,2.0391,-35.82,6.6,-12.54
19.15,-17.352,6.7012,-3.3866,2.6246,2.1481,-36.36,6.66,-11.82
19.491,-13.92,4.6173,-3.3497,3.4499,1.3592,-36.84,6.72,-11.4
19.532,-7.2596,-1.076,-2.4425,2.0852,0.22144,-37.32,7.26,-11.04
18.21,-5.775,-1.6072,-1.7892,0.38637,-0.49572,-37.38,8.16,-11.1
13.593,-3.228,-0.31327,-1.7947,0.36744,-0.64049,-37.5,9.06,-11.22
11.931,-0.6674,0.40861,-1.8741,0.23366,-0.6857,-37.56,10.14,-11.4
8.0632,2.9556,0.32689,-1.8176,0.053756,-0.63958,-37.38,12.54,-11.76
6.2245,3.8546,-0.14982,-1.6716,0.10782,-0.55436,-37.44,13.86,-12.0
2.7786,4.9987,-1.1441,-1.5049,0.44379,-0.5962,-37.5,15.12,-12.3
0.28603,5.5707,-1.866,-1.2727,0.69578,-0.59315,-37.26,17.58,-12.78
-0.55843,5.5162,-1.9886,-0.97952,0.74403,-0.47892,-37.14,18.78,-13.14
-0.20431,5.1485,-1.7706,-0.49266,0.72815,-0.37904,-37.02,19.8,-13.56
1.4165,4.2632,-1.0624,-0.13164,0.57666,-0.38607,-36.78,21.36,-14.4
2.5606,4.0452,-0.6674,0.2416,0.29108,-0.40012,-36.66,22.14,-14.64
4.1133,3.3234,-0.081722,0.59712,0.09163,-0.50702,-36.66,22.56,-15.0
9.2482,2.8603,1.6072,1.2028,-0.17959,-0.54275,-37.02,22.38,-15.12
16.29,2.2337,2.9556,1.3974,-0.27061,-0.39798,-37.02,21.78,-15.24
18.728,-0.69464,4.2904,1.7135,-0.61392,0.14905,-36.96,21.0,-15.3
19.436,-5.9521,6.674,2.018,-0.62247,0.085216,-36.96,20.04,-15.54
19.532,-11.482,7.6955,2.3702,-0.5846,-0.44532,-36.54,17.88,-16.62
19.532,-10.924,6.0202,2.6032,-0.72113,-0.74495,-36.0,16.8,-17.34
14.873,-9.5887,2.8058,2.8445,-1.2553,-1.015,-35.04,14.52,-18.42
10.556,-7.8453,1.8524,2.9025,-1.6704,-0.95661,-34.62,13.38,-18.78
8.2812,-7.0826,1.7706,2.8485,-1.8958,-0.88301,-34.08,12.36,-19.02
2.9011,-6.6467,1.7706,2.4881,-2.3512,-0.67226,-33.3,10.56,-19.56
0.81722,-6.5105,1.58,2.095,-2.2394,-0.4609,-32.94,9.66,-19.8
-0.85808,-5.5162,0.7355,1.5965,-1.8961,-0.16829,-32.82,8.94,-19.86
-3.6366,-5.2166,0.36775,0.82284,-1.3845,0.47312,-32.22,7.74,-20.04
-3.9499,-5.1894,0.1362,0.56902,-1.1906,0.66432,-32.16,7.38,-20.04
-3.7728,-5.4073,0.53119,-0.20769,-0.14752,1.0537,-32.1,7.14,-20.04
-2.7786,-5.5026,0.5993,-0.69914,0.61911,1.2773,-32.16,6.78,-18.96
-0.88532,-6.3062,0.068102,-1.0681,1.0986,1.4478,-32.58,6.54,-18.24
1.5663,-6.3607,-1.3076,-1.4478,1.2492,1.5302,-33.0,6.36,-17.46
10.379,-9.4117,1.2531,-2.2306,1.4759,2.0192,-34.32,6.3,-16.08
17.747,-13.838,3.5822,-2.5611,1.573,2.3216,-34.92,6.36,-15.42
19.096,-14.969,3.6503,-3.1066,2.496,2.3118,-35.52,6.54,-14.52
19.532,-8.7306,0.57205,-2.5815,2.7406,0.97891,-36.18,7.38,-13.38
19.532,-6.2245,-1.3484,-1.8344,1.5348,0.1573,-36.48,7.92,-12.9
16.821,-4.7535,-2.5742,-1.4704,0.43127,-0.36866,-36.66,8.58,-12.6
11.863,-1.6481,-1.6753,-1.4175,-0.033292,-0.52504,-36.9,10.2,-12.0
9.4389,0.34051,-0.50395,-1.5531,-0.0956,-0.50366,-36.9,11.04,-11.88
8.2131,2.1248,-0.50395,-1.6301,-0.1689,-0.43524,-37.02,12.0,-11.7
6.5514,3.337,-0.77636,-1.6396,-0.20342,-0.3821,-37.02,13.02,-11.46
3.8409,4.6173,-1.471,-1.5492,-0.18357,-0.13744,-37.08,14.04,-11.22
1.7843,4.6173,-2.261,-1.4242,-0.070555,0.036652,-37.08,16.26,-10.44
2.2201,4.1814,-2.152,-1.1814,0.63163,0.017104,-37.02,17.34,-9.96
3.4732,3.7047,-1.8115,-1.0528,0.78038,-0.045509,-36.78,18.3,-9.42
4.2495,3.514,-1.6617,-0.71288,0.77458,-0.18967,-36.3,19.74,-8.76
4.9033,3.0373,-1.3757,-0.32529,0.57513,-0.43249,-36.36,20.04,-8.22
6.0611,2.6968,-0.81722,0.41172,0.37965,-0.92943,-36.48,20.22,-7.86
11.768,2.7377,-0.095342,0.97036,0.40897,-1.1142,-36.54,19.62,-7.32
17.175,1.7298,0.35413,1.532,0.036957,-0.90469,-36.42,18.96,-7.26
19.504,-6.1019,2.6423,1.9771,-1.1252,-0.39126,-36.3,17.28,-7.56
19.532,-10.406,3.8001,2.2553,-1.6689,-0.52626,-36.18,16.5,-7.98
19.532,-11.904,3.0373,2.4542,-1.5996,-0.91294,-36.0,15.78,-8.52
19.532,-11.21,2.6832,2.562,-1.952,-1.2016,-35.82,14.88,-9.0
14.029,-9.2891,1.6208,2.5168,-2.0036,-1.2217,-35.04,13.32,-10.02
10.079,-8.0632,1.4301,2.3265,-1.7517,-0.88575,-34.74,12.42,-10.62
4.699,-6.9055,1.4165,1.8546,-1.2364,-0.55772,-34.32,10.56,-11.7
1.4165,-6.7693,1.2395,1.4972,-0.70219,-0.22938,-34.14,9.78,-12.12
0.28603,-6.5786,1.0896,1.149,-0.060476,0.079718,-33.72,8.94,-12.54
-1.7025,-5.0668,0.36775,0.8604,0.44776,0.3937,-33.06,7.86,-13.08
-2.547,-4.6037,-0.095342,0.60537,0.58063,0.67684,-32.52,7.5,-13.32
-2.8194,-4.5083,-0.50395,0.34728,0.49358,0.8433,-32.22,7.2,-13.32
-2.4108,-4.0589,-0.54481,-0.11209,0.67653,0.94928,-31.74,6.66,-12.6
-2.2201,-4.0861,-0.61292,-0.37446,0.86499,1.0828,-31.68,6.36,-12.0
-1.9613,-4.3994,-1.2531,-0.76847,1.2801,1.1997,-31.68,5.94,-11.4
1.7025,-5.9249,-2.5742,-1.303,1.872,1.4841,-31.74,5.16,-10.26
7.7227,-9.7794,-0.054481,-1.9462,2.7691,1.8344,-31.86,4.86,-9.6
16.794,-14.247,6.5786,-2.6484,3.0888,2.0198,-32.16,4.68,-8.22
19.491,-13.934,4.6037,-2.8973,3.9199,1.0977,-32.16,4.74,-7.62
19.532,-10.038,0.50395,-2.4377,3.6401,0.49419,-32.16,4.86,-7.14
19.532,-7.4503,-0.84446,-1.7089,2.6368,-0.31918,-32.22,5.22,-6.96
17.897,-5.5435,-1.1032,-1.3873,0.84483,-0.64599,-32.1,5.64,-6.72
10.869,-1.0215,1.1986,-1.4844,0.44074,-0.65637,-32.04,7.2,-6.24
9.0303,1.6481,1.6344,-1.5495,0.29749,-0.60506,-31.92,8.22,-6.06
9.0303,1.6481,1.6344,-1.5495,0.29749,-0.60506,-31.92,8.22,-6.06
4.2223,5.1213,-0.78998,-1.2926,-0.20739,-0.54336,-31.5,10.68,-5.7
2.6015,5.598,-1.3212,-0.97158,-0.69639,-0.3711,-30.9,13.14,-5.52
2.3291,5.3528,-1.5527,-0.6576,-1.0788,-0.27458,-30.06,15.66,-5.46
2.2474,4.699,-1.3757,-0.32284,-1.5275,-0.26603,-29.7,16.8,-5.52
3.0918,3.7184,-0.9398,0.057727,-1.9978,-0.2416,-28.62,18.66,-5.52
4.9578,2.656,-0.77636,0.3824,-2.109,-0.38332,-28.02,20.34,-5.34
7.1507,1.9886,-0.85808,0.83475,-1.6331,-0.78771,-27.48,21.06,-4.98
10.038,1.2803,-0.49033,1.1212,-1.2694,-0.87445,-27.24,21.12,-4.74
17.448,-0.77636,0.27241,1.4963,-1.3946,-0.63499,-27.06,20.7,-4.56
19.477,-7.3414,1.8115,1.715,-1.606,-0.6127,-27.12,19.62,-4.98
19.532,-11.005,2.4925,1.8283,-1.5522,-0.98471,-27.24,18.42,-5.7
19.532,-11.931,2.1793,1.8751,-1.3757,-1.2379,-27.3,17.04,-6.54
18.142,-10.924,1.2395,2.0323,-1.4597,-1.7294,-27.48,15.72,-7.38
16.521,-9.7522,0.62654,2.2294,-1.1991,-1.8637,-27.42,14.94,-7.98
9.0167,-7.2869,0.027241,2.3747,-0.9276,-1.7883,-27.24,13.44,-9.24
5.094,-6.2517,-0.34051,2.4288,-0.75992,-1.6173,-27.18,12.42,-10.32
2.7649,-5.598,-0.19068,2.3695,-0.69822,-1.3919,-27.12,11.52,-11.22
1.1169,-4.9306,0.51757,2.1606,-0.76541,-1.109,-27.12,10.5,-11.34
0.46309,-4.7807,0.6674,1.8256,-0.96456,-0.79657,-27.18,10.2,-11.28
-1.5255,-4.4266,0.43585,1.4135,-1.193,-0.52015,-27.24,9.36,-10.5
-2.7922,-4.2904,0.27241,0.73609,-1.0977,-0.15211,-27.54,8.64,-9.54
-2.9965,-4.3449,0.054481,0.26756,-0.65515,0.055894,-27.84,8.16,-9.18
-2.6968,-4.7399,-0.49033,-0.15333,-0.25443,0.30146,-28.26,7.5,-8.4
-1.5119,-6.17,-2.2882,-0.50244,0.014661,0.52779,-28.92,6.84,-7.44
0.027241,-6.1836,-3.7047,-0.89706,0.31643,0.85582,-29.1,6.6,-7.08
4.413,-8.7987,-2.5334,-1.3182,0.7813,1.5183,-29.28,6.06,-6.3
14.465,-12.585,-0.57205,-2.2489,1.7397,2.8882,-29.52,6.0,-5.76
19.368,-13.525,-1.1577,-2.722,2.7519,2.6432,-29.16,6.0,-5.46
19.491,-12.422,-2.152,-2.7501,2.7382,1.8372,-28.62,6.18,-5.76
19.532,-7.6683,-4.6037,-2.1896,1.5504,1.2343,-28.44,6.24,-5.94
16.767,-3.5004,-4.8625,-1.8305,0.76419,0.62125,-28.2,6.66,-5.94
12.776,-0.58567,-3.5822,-1.89,0.85216,0.16493,-28.02,7.74,-5.82
10.801,1.185,-2.656,-2.0372,0.84727,0.062308,-27.84,8.4,-5.64
8.2812,3.0237,-1.7298,-2.0375,0.6408,0.0015272,-27.9,9.84,-5.28
4.8761,5.1894,-1.6617,-1.8439,0.36408,0.014966,-28.08,11.52,-4.62
3.7592,6.0611,-1.975,-1.5568,0.22327,0.029322,-28.02,12.24,-4.56
2.0975,7.1234,-2.5742,-1.2062,0.17287,0.013134,-28.08,13.86,-4.14
1.5119,6.5786,-2.9011,-0.81734,0.083078,-0.048869,-28.38,15.6,-3.6
1.7979,5.9657,-2.8603,-0.18357,-0.14875,-0.27,-28.44,16.44,-3.12
3.1872,4.4402,-2.6696,0.22938,-0.32559,-0.55436,-28.26,18.3,-2.52
4.1542,3.4459,-1.975,0.62583,-0.56169,-0.85155,-28.2,19.08,-2.28
6.2926,3.6094,-1.3348,0.96181,-0.65943,-1.0828,-27.96,19.5,-2.52
8.9077,3.6366,-1.3212,1.2737,-0.60567,-1.0195,-27.78,19.44,-2.7
18.537,-0.054481,-0.83084,1.5036,-0.8546,-0.59284,-27.3,19.26,-3.72
19.477,-7.4503,1.5119,1.5214,-1.4029,-0.21014,-26.88,18.96,-4.92
19.532,-11.931,2.6423,1.4728,-0.81031,-0.98655,-26.76,18.84,-5.34
19.532,-11.468,1.2122,1.6093,-0.48289,-1.3717,-26.76,18.24,-6.78
15.963,-8.9894,-0.01362,1.886,-0.55008,-1.5467,-26.82,17.52,-8.28
11.605,-7.5593,-0.53119,2.1014,-0.42241,-1.5238,-26.88,16.98,-9.0
8.3357,-6.2381,-1.0079,2.2006,-0.12278,-1.2743,-27.12,16.14,-10.44
5.9249,-5.9657,-1.0624,2.1683,0.093768,-0.81245,-27.3,15.3,-11.82
4.6309,-5.8976,-0.42223,1.9835,-0.032376,-0.44471,-27.48,14.82,-12.36
2.261,-5.2438,0.32689,1.7052,-0.18876,-0.058948,-28.08,13.8,-13.08
0.1362,-4.7671,0.31327,1.354,-0.21197,0.30604,-28.2,13.38,-13.5
-2.1112,-4.4402,0.01362,0.99876,-0.1179,0.5733,-28.86,12.3,-13.74
-2.7377,-4.6445,-0.40861,0.61025,0.20556,0.73182,-29.52,10.98,-13.98
-2.6287,-4.5628,-0.58567,0.057727,0.64904,0.89156,-29.88,10.26,-13.86
-1.6617,-4.5356,-1.3757,-0.25443,0.68753,0.97769,-30.84,9.24,-13.68
-1.0488,-5.1349,-2.9148,-0.64538,0.55711,1.1255,-31.62,8.16,-13.62
4.3721,-8.2131,-0.53119,-1.1335,0.63897,1.379,-32.4,7.32,-13.26
11.182,-10.801,1.0079,-1.7523,0.80879,1.8628,-32.88,7.08,-13.14
18.891,-12.095,0.76274,-2.4444,1.1579,2.4664,-33.6,6.84,-12.42
19.491,-13.484,-2.4517,-2.7574,1.5675,1.704,-34.26,7.02,-12.18
19.518,-12.953,-4.6445,-2.5097,0.35461,0.83933,-34.44,7.08,-12.0
16.263,-6.3879,-5.884,-2.029,-0.26023,0.18234,-34.68,7.86,-11.52
10.964,-0.95342,-4.5356,-1.8335,0.063835,-0.21533,-35.1,9.06,-10.92
9.9292,0.76274,-3.4868,-1.872,0.5846,-0.27092,-35.22,9.6,-10.5
7.8045,3.6503,-1.3893,-1.8732,0.98044,-0.23854,-35.34,11.1,-10.08
4.9578,5.598,-0.92618,-1.77,1.1585,-0.18173,-35.52,12.84,-9.48
2.1248,6.3335,-1.58,-1.4035,1.2043,-0.16127,-35.4,14.46,-9.06
0.01362,6.6604,-2.2882,-1.0455,1.0531,-0.11484,-35.28,15.12,-9.0
-0.96704,6.17,-2.5061,-0.68692,0.81551,-0.058032,-35.16,16.74,-8.76
0.62654,4.3177,-2.3291,-0.34422,0.53848,0.035736,-35.1,17.82,-8.46
1.1577,3.7728,-2.1929,0.026573,0.25565,0.053145,-35.22,18.3,-8.46
1.8932,3.0782,-1.2258,0.43188,-0.1066,-0.013439,-35.04,18.84,-8.46
3.2689,2.6015,-0.42223,1.0104,-0.24557,-0.17959,-34.74,18.78,-8.76
5.5571,2.5198,0.16344,1.4197,-0.018631,-0.31918,-34.68,18.54,-8.76
12.286,2.6968,-0.12258,1.8818,0.13958,-0.23579,-34.38,17.52,-9.24
19.409,-3.514,2.6423,2.2,-0.13897,0.19334,-33.84,16.08,-10.08
19.504,-10.569,4.1542,2.2691,-0.74128,0.25443,-33.6,15.24,-10.68
19.532,-15.296,4.3449,2.3928,-1.1817,-0.70066,-33.3,13.26,-12.24
19.327,-11.863,2.1112,2.4783,-1.5855,-1.314,-32.7,11.7,-13.68
16.658,-10.447,1.2122,2.5299,-1.6872,-1.4441,-32.46,10.86,-14.34
9.7385,-7.6546,-0.081722,2.485,-1.4273,-1.3192,-32.1,9.06,-15.6
6.3879,-6.6059,-0.29965,2.2648,-0.96089,-1.0284,-31.5,7.38,-16.5
3.3778,-6.851,0.53119,1.982,-0.50855,-0.69608,-31.14,6.06,-17.4
1.0079,-6.6059,1.2258,1.4578,-0.057421,-0.20739,-30.96,4.92,-17.7
-0.85808,-5.9249,1.3484,1.0528,0.20342,0.11576,-31.02,4.62,-17.7
-2.8194,-5.6524,0.7355,0.65576,0.354,0.38026,-31.02,3.78,-17.04
-3.3506,-5.7478,0.027241,0.28314,0.41905,0.54031,-30.96,3.54,-16.68
-3.1872,-5.489,-0.17706,-0.08491,0.45571,0.61239,-30.96,2.82,-15.84
-2.3427,-5.1894,-0.054481,-0.45326,0.51343,0.69761,-31.26,2.4,-14.76
-1.8115,-5.4481,-0.38137,-0.75961,0.51404,0.85338,-31.32,2.22,-14.34
1.2531,-5.7614,-1.2939,-1.3888,0.76633,1.1869,-31.98,1.8,-13.38
7.2869,-8.9077,1.6208,-2.0504,1.2727,1.551,-32.76,1.62,-12.6
15.214,-12.435,3.1191,-2.8042,1.412,2.1301,-33.12,1.56,-12.12
19.395,-14.778,2.6015,-3.1744,2.1197,2.0354,-33.78,1.74,-11.46
19.532,-10.052,-0.96704,-2.8173,2.3964,0.85521,-34.44,2.16,-10.98
19.532,-8.1586,-1.7298,-2.2153,1.266,0.20708,-34.86,2.34,-10.8
13.838,-4.6037,-2.2474,-1.7984,0.37293,-0.30604,-35.64,3.42,-10.2
9.9292,-0.96704,-1.5527,-1.6542,0.6243,-0.49388,-36.36,4.68,-9.78
8.145,1.4165,-0.89894,-1.7034,0.71349,-0.34453,-36.78,5.58,-9.48
6.3335,3.8273,-0.54481,-1.6463,0.63958,-0.22846,-37.5,7.56,-9.0
3.8273,5.3256,-1.4165,-1.5174,0.62858,-0.10721,-37.86,9.54,-8.82
2.8194,5.5435,-1.8524,-1.2972,0.49205,0.02474,-37.86,10.68,-8.76
2.8058,5.0123,-2.4789,-0.88637,0.1744,0.18906,-37.62,12.54,-8.52
3.228,3.9635,-2.5198,-0.57513,0.01741,0.11912,-37.38,14.34,-8.7
3.0782,3.4732,-2.0022,-0.20739,-0.22083,0.056505,-37.14,16.26,-8.22
3.2689,3.1872,-1.7162,0.15669,-0.3543,-0.078802,-37.02,16.8,-7.98
5.2166,2.3563,-0.91256,0.51465,-0.38362,-0.30268,-37.02,17.4,-7.68
6.6059,2.3427,-0.51757,0.91599,-0.36041,-0.56566,-36.96,17.4,-7.38
10.46,2.7922,-0.64016,1.3485,-0.40623,-0.68997,-36.96,17.16,-7.5
19.205,-2.261,-0.12258,1.8524,-1.0577,-0.25168,-36.6,15.84,-7.86
19.491,-8.3357,1.5936,1.9187,-1.6945,-0.24221,-36.6,15.12,-8.34
19.518,-12.122,2.6696,1.9264,-1.7785,-0.91966,-36.78,14.28,-8.82
19.45,-12.653,2.0703,1.9276,-1.6622,-1.2559,-36.9,12.72,-9.96
17.175,-11.223,1.3212,2.0385,-1.6536,-1.441,-36.9,11.94,-10.44
11.863,-9.6841,0.44947,2.2694,-1.4878,-1.1982,-37.02,11.04,-10.74
6.2654,-8.2948,0.34051,2.2614,-1.2077,-0.87293,-36.9,9.42,-11.34
4.3177,-7.246,0.96704,2.0772,-0.96059,-0.54703,-37.02,8.64,-11.58
2.6151,-6.4424,1.5663,1.7342,-0.72174,-0.20708,-37.02,7.98,-11.7
-0.12258,-5.4345,1.9205,1.3115,-0.43188,0.19028,-36.72,6.9,-11.88
-1.3893,-5.0259,1.4165,0.70616,0.025045,0.77397,-36.48,6.6,-11.94
-1.6072,-4.6309,0.92618,0.31307,0.34453,0.94562,-36.3,6.42,-11.82
-1.4438,-3.8001,0.40861,-0.044288,0.60353,0.95478,-36.06,6.6,-11.34
-1.2803,-3.623,0.21793,-0.35339,0.72296,0.95509,-35.7,6.84,-10.68
-0.50395,-3.8818,0.17706,-0.60476,0.79412,0.92974,-35.34,6.96,-9.9
1.4029,-4.413,-0.74912,-0.8436,0.9166,0.86712,-35.34,7.5,-8.22
2.438,-4.3449,-1.4982,-1.0962,0.99479,0.82986,-35.46,7.92,-7.5
5.3256,-5.1213,-1.4438,-1.4441,1.1176,0.91996,-35.46,8.64,-6.96
18.36,-12.967,1.4165,-2.2159,1.1616,1.6475,-35.88,9.96,-5.88
19.382,-14.07,1.7979,-2.5947,1.4926,1.3708,-35.88,10.62,-5.64
19.518,-11.768,0.12258,-2.3378,1.5192,0.16402,-35.94,11.34,-5.64
17.407,-6.8783,-3.4596,-1.6945,0.98594,-0.31704,-36.36,12.78,-5.58
14.261,-4.4811,-4.5492,-1.2129,0.31521,-0.81215,-36.72,13.5,-5.58
10.324,-1.4438,-3.5277,-1.0947,0.27978,-0.92485,-37.32,15.06,-5.7
8.6625,0.50395,-2.4517,-1.2526,0.4215,-0.86132,-37.5,15.84,-5.64
7.5048,1.7843,-1.8387,-1.3436,0.3656,-0.75198,-37.86,16.62,-5.76
5.2166,2.8875,-1.8387,-1.3457,0.27611,-0.64049,-38.16,18.12,-6.12
3.2553,3.4187,-2.3836,-1.2776,0.28527,-0.51465,-38.28,18.84,-6.3
2.7922,3.6775,-2.6968,-1.0993,0.36469,-0.42425,-38.4,19.44,-6.48
2.4244,3.3506,-2.3155,-0.86621,0.46273,-0.41417,-38.7,19.86,-6.54
2.4244,3.3778,-2.3155,-0.55161,0.41661,-0.43219,-38.76,19.98,-6.78
2.8603,3.3642,-2.0431,-0.37935,0.34819,-0.46853,-38.88,19.92,-6.78
3.9635,2.6832,-1.4165,0.24526,0.096517,-0.72388,-39.24,19.38,-7.02
5.8023,2.9556,-1.2803,0.76297,-0.0094684,-0.82986,-39.18,18.72,-7.38
14.383,2.0294,-1.6617,1.3241,-0.197,-0.56322,-39.0,17.16,-8.4
19.191,-3.051,1.0215,1.9334,-1.4481,0.43555,-38.88,16.14,-9.18
19.491,-8.2539,3.4459,2.186,-1.4823,0.013744,-38.64,15.3,-10.08
19.532,-11.836,3.6366,2.5565,-0.92546,-0.31124,-38.46,14.46,-10.92
19.532,-10.283,0.50395,2.9563,-1.0446,-0.35522,-38.16,12.66,-12.6
18.551,-9.3572,-0.27241,3.0757,-1.6112,-0.34819,-37.92,11.7,-13.5
13.811,-8.3493,0.46309,2.8607,-1.6692,-0.27733,-37.5,10.74,-14.34
8.322,-6.8919,1.4846,2.241,-1.2285,-0.081245,-37.02,9.0,-15.9
5.2847,-6.2517,1.6617,1.7471,-0.86315,0.034208,-36.66,8.22,-16.5
1.7298,-4.5083,1.58,1.2248,-0.36438,0.16799,-36.24,7.02,-17.22
0.78998,-3.9635,1.2531,0.75106,0.12981,0.31307,-36.0,6.6,-17.46
0.19068,-3.7728,0.77636,0.36438,0.38912,0.44868,-35.76,6.42,-17.4
-2.0294,-3.3778,0.99429,0.045204,0.48747,0.50916,-35.58,5.94,-17.28
-2.547,-3.1463,0.88532,-0.34392,0.68783,0.51099,-35.64,5.88,-16.74
-2.2474,-3.4187,0.50395,-0.5452,0.80054,0.54,-35.82,5.76,-16.26
-0.20431,-4.699,-0.1362,-0.74464,0.86071,0.55864,-36.12,5.46,-15.06
2.4517,-4.8897,-1.1169,-0.99815,0.87048,0.56261,-36.6,5.46,-14.52
5.38,-6.1292,-0.47671,-1.3763,1.0883,0.79351,-36.96,5.4,-13.92
15.977,-11.509,2.261,-1.8418,1.2669,1.3879,-37.98,5.7,-12.9
19.096,-11.741,1.975,-2.3112,1.9383,1.3008,-38.22,6.18,-12.42
19.477,-10.828,-0.29965,-1.9988,1.3699,0.24465,-38.52,6.54,-12.06
18.265,-7.8045,-4.985,-1.5876,0.10751,-0.036957,-38.88,7.32,-11.82
16.072,-5.8704,-5.1213,-1.3775,-0.74678,-0.40623,-39.24,7.74,-11.64
14.383,-3.6775,-4.0725,-1.4163,-0.79779,-0.60873,-39.66,8.34,-11.52
10.093,0.64016,-1.5391,-1.5983,-0.52993,-0.69822,-40.26,10.02,-11.1
8.0496,1.5119,-1.3076,-1.6438,-0.2248,-0.50091,-40.5,10.86,-10.92
3.9363,2.547,-1.5391,-1.5992,-0.19945,-0.34483,-40.8,11.64,-10.56
1.2803,3.2961,-2.4244,-1.4578,0.4499,0.02474,-40.98,13.56,-9.9
1.6072,3.8954,-2.9965,-1.3616,1.2422,0.1127,-41.16,14.34,-9.6
3.6775,3.4051,-3.4323,-1.124,1.5907,0.05681,-41.16,15.24,-9.42
4.985,2.7241,-3.5413,-0.72907,1.2202,-0.17165,-41.1,16.62,-8.94
4.1951,2.9692,-3.0373,-0.064141,0.095295,-0.58063,-41.22,16.98,-8.76
4.127,2.7513,-2.2882,0.14111,-0.18967,-0.72724,-41.34,17.16,-8.64
6.2517,2.2065,-1.5119,0.52962,-0.49786,-1.0079,-41.64,17.22,-8.58
9.9837,1.9886,-1.7025,1.1164,-0.39462,-1.0296,-41.52,16.98,-8.64
13.348,1.5119,-1.7979,1.4581,-0.5791,-0.46609,-41.28,16.38,-9.24
19.382,-5.2166,0.21793,1.5941,-1.2315,0.13134,-40.68,15.3,-10.8
19.518,-9.112,1.6481,1.8228,-1.1683,-0.44288,-40.5,14.88,-11.94
19.532,-9.1529,0.98067,1.9328,-1.2901,-0.56016,-39.9,13.74,-13.86
19.0,-9.6023,0.31327,2.1805,-1.9471,-0.74067,-39.66,13.2,-14.88
15.473,-9.3163,0.31327,2.1921,-1.8928,-0.70799,-39.3,12.6,-15.78
11.741,-7.8589,0.6674,2.0137,-1.2074,-0.44593,-38.94,12.0,-16.62
5.9657,-6.0474,1.5391,1.8115,-0.73243,-0.21472,-38.52,10.74,-18.12
2.6696,-5.4754,1.7298,1.485,-0.040623,0.19853,-38.28,10.2,-19.08
0.34051,-5.4481,1.7706,1.3616,0.18448,0.36285,-37.74,9.54,-20.28
-0.5993,-5.2302,1.8251,1.0956,0.57116,0.66432,-37.62,9.24,-20.94
-1.4438,-4.9578,1.471,0.71105,0.87476,0.85094,-37.5,9.06,-21.54
-1.8115,-3.909,0.65378,0.4554,0.89614,0.82284,-37.68,8.58,-21.84
-1.6617,-3.623,0.095342,0.20892,0.91416,0.80817,-37.92,8.16,-21.78
-1.2803,-4.1542,-0.47671,-0.090408,1.2633,0.8378,-37.98,7.56,-21.42
1.7706,-5.1076,-1.9613,-0.71349,1.8179,0.72724,-38.46,6.3,-21.18
7.3277,-6.4697,-0.6674,-0.95387,1.8528,0.67531,-38.76,5.58,-21.06
11.101,-8.5672,0.47671,-1.7672,1.9884,0.62186,-39.12,5.1,-21.0
18.36,-13.293,3.7047,-2.2746,1.9688,0.71441,-39.54,4.38,-21.0
19.504,-12.136,2.5606,-2.4416,2.5992,0.41233,-39.84,3.48,-20.76
19.532,-10.815,-0.081722,-2.0782,2.7978,-0.33323,-39.84,3.0,-20.58
16.808,-8.5263,-2.4108,-1.5107,0.98044,-0.97647,-39.9,2.1,-20.88
13.076,-6.1564,-1.5119,-1.5531,0.43097,-1.054,-39.66,1.86,-20.76
10.174,-2.9011,-0.54481,-1.6921,0.37843,-0.85582,-39.72,1.74,-20.7
7.1234,2.0294,0.027241,-1.7425,0.5171,-0.64752,-39.42,1.74,-20.52
5.6388,3.5958,-0.47671,-1.6432,0.80543,-0.48319,-39.24,2.04,-20.4
3.8273,4.5083,-1.2531,-1.4725,1.0101,-0.33903,-38.94,2.4,-20.34
1.58,4.9714,-2.3427,-1.0537,0.83627,-0.13958,-38.1,3.12,-20.04
1.2395,4.5764,-2.3291,-0.7758,0.77519,-0.073304,-37.44,3.72,-19.74
1.4029,4.127,-2.0567,-0.5003,0.77427,-0.025656,-36.78,4.32,-19.44
2.5742,3.2008,-1.0215,-0.21166,0.65668,-0.014661,-35.52,5.58,-18.9
3.7728,2.9692,-0.31327,0.068417,0.56077,-0.10324,-34.98,5.94,-18.54
5.2711,2.5198,0.14982,0.3879,0.34697,-0.24557,-34.62,6.54,-18.0
8.6353,1.6072,1.5391,0.9108,-0.28008,-0.39645,-33.78,7.74,-16.56
8.6353,1.6072,1.5391,1.3069,-0.88698,-0.042455,-33.78,7.74,-16.56
18.755,-1.6889,5.094,1.4331,-1.5931,0.60628,-33.0,8.64,-15.42
19.477,-9.8339,9.0712,1.2706,-1.7333,0.71227,-32.52,9.12,-15.06
19.532,-13.838,10.215,1.2306,-1.6881,0.10843,-32.16,9.36,-14.82
19.532,-11.85,5.2302,1.5009,-1.7935,-0.40348,-31.74,9.78,-14.58
16.058,-9.6023,3.337,2.0149,-2.1438,-1.0605,-31.62,9.9,-14.64
11.931,-7.7772,1.1577,2.5439,-2.1515,-1.1802,-31.5,9.72,-14.7
7.1507,-6.6331,1.0624,2.6341,-1.9077,-1.1939,-31.5,9.54,-14.82
5.4754,-6.4288,1.5255,2.6038,-1.7489,-1.168,-31.56,9.24,-14.82
4.2087,-6.1973,1.8932,2.2758,-1.2144,-0.96028,-31.62,8.88,-15.0
0.55843,-5.4481,2.0294,1.8809,-0.72571,-0.70983,-31.92,8.16,-15.3
-0.70826,-5.0259,1.2531,1.2663,-0.082467,-0.32681,-32.1,7.62,-15.48
-1.8796,-4.0725,-0.57205,1.0806,0.021991,-0.21991,-32.34,6.72,-15.48
-2.0431,-4.1133,-0.7355,0.70952,0.058338,-0.060781,-32.76,6.24,-15.24
-1.9886,-4.699,-0.96704,0.32803,0.080634,0.067501,-33.06,5.64,-14.94
-1.5936,-5.3256,-1.3212,-0.21533,0.14019,0.2865,-33.36,5.1,-14.4
0.1362,-6.17,-3.1599,-0.62522,0.27306,0.40959,-33.96,4.08,-13.26
2.1384,-5.9657,-3.4323,-1.2339,0.63133,0.90316,-34.26,3.78,-12.54
13.116,-11.128,1.0079,-2.2263,1.1365,1.7297,-35.16,3.24,-11.46
18.701,-13.089,3.1054,-2.6084,1.4465,2.1515,-35.34,3.06,-10.8
19.436,-13.362,2.3155,-3.5015,3.3243,1.4224,-35.52,2.88,-10.44
19.518,-10.597,0.19068,-2.9734,2.522,0.9331,-35.64,2.7,-10.26
16.739,-4.4402,-3.0101,-2.2816,0.99785,0.27428,-36.0,2.7,-9.96
13.253,-3.6775,-2.0158,-1.9981,0.45082,-0.27428,-36.06,3.24,-9.6
10.215,-0.53119,0.98067,-1.9508,0.93187,-0.31643,-36.36,4.5,-9.66
9.0303,2.5061,1.2122,-1.9526,1.0043,-0.37018,-36.42,5.46,-9.54
7.8726,3.6366,1.1305,-1.8879,0.905,-0.34147,-36.06,6.42,-9.48
4.2359,4.9442,0.01362,-1.5675,0.3656,-0.17898,-35.7,8.4,-9.6
3.5413,4.8216,-0.42223,-1.281,-0.07025,-0.090408,-35.46,9.72,-9.84
3.514,4.1814,-0.7355,-1.0037,-0.41142,-0.10996,-35.16,10.86,-10.02
2.8194,3.2008,-0.53119,-0.57635,-0.39981,-0.15027,-34.2,13.14,-9.9
3.0646,3.1599,-0.12258,-0.27458,-0.22846,-0.16738,-33.72,14.04,-9.96
3.6911,3.1191,0.24517,0.090408,-0.082467,-0.25015,-33.3,15.06,-9.9
5.5435,3.0101,0.99429,0.56963,-0.015882,-0.38943,-32.04,16.74,-9.78
10.76,2.9692,1.3076,1.0922,-0.025045,-0.50855,-31.38,17.04,-9.78
17.257,1.3757,1.8251,1.5818,-0.42455,-0.44257,-30.66,16.86,-10.2
19.463,-4.9442,4.5356,1.96,-1.3189,-0.30727,-28.74,16.08,-11.58
19.532,-10.569,5.7069,2.0339,-1.3766,-0.47281,-27.9,15.48,-12.66
19.532,-11.768,5.8023,2.2275,-0.9502,-0.99174,-27.3,14.88,-13.56
17.897,-9.616,3.6094,2.4429,-0.86285,-1.2474,-25.44,13.44,-15.24
13.729,-8.5808,2.3563,2.7202,-1.0314,-1.2999,-24.66,12.54,-15.96
13.729,-8.5808,2.3563,2.843,-1.113,-1.2511,-24.66,12.54,-15.96
13.729,-8.5808,2.3563,2.843,-1.113,-1.2511,-24.66,12.54,-15.96
2.9011,-6.0611,1.362,2.5986,-1.1857,-0.39126,-21.54,8.28,-19.26
1.3076,-6.0883,1.6072,2.1878,-0.9447,-0.0058032,-21.12,7.08,-19.92
-0.44947,-6.0474,1.2258,1.6906,-0.6973,0.42883,-20.76,5.88,-20.46
-1.7162,-5.8295,0.50395,1.1863,-0.45601,0.83017,-20.46,4.92,-21.06
-2.4244,-5.4754,-0.54481,0.66096,-0.17379,1.0742,-20.22,3.3,-21.48
-2.6015,-5.6116,-1.1305,0.14752,0.09896,1.2272,-20.4,2.76,-21.36
-2.5198,-5.203,-0.96704,-0.36041,0.52595,1.3604,-20.82,1.38,-20.16
-1.0624,-5.3392,-1.3076,-0.83139,0.94501,1.5317,-21.18,0.78,-19.44
0.7355,-5.4618,-1.9886,-1.5641,1.3503,1.7376,-21.72,0.12,-18.54
7.0281,-7.6546,-1.1577,-2.1292,1.2993,1.9963,-23.04,-0.54,-16.86
17.434,-13.893,1.6344,-2.7962,1.4291,2.2523,-23.88,-0.72,-16.02
19.273,-16.208,3.0101,-3.219,2.1221,2.1319,-24.66,-0.6,-15.12
19.532,-9.7113,0.6674,-2.9218,2.6988,0.89278,-25.74,0.18,-13.62
19.423,-7.5729,-0.76274,-2.2474,1.7315,0.014661,-25.98,0.96,-13.08
17.366,-6.7557,-1.185,-1.693,0.5003,-0.58399,-26.16,1.74,-12.84
10.583,-2.1656,-0.74912,-1.4038,0.15302,-0.95631,-26.46,3.42,-12.24
8.8396,0.068102,0.081722,-1.5278,0.30788,-0.78374,-26.52,4.68,-11.94
6.7421,2.2746,0.46309,-1.6032,0.416,-0.5678,-26.58,6.96,-11.82
4.5356,3.5413,-0.35413,-1.5211,0.60934,-0.39095,-26.4,8.34,-11.88
2.5606,4.6445,-1.1169,-1.3644,0.6857,-0.26267,-26.28,9.66,-12.12
1.0488,5.4754,-1.5255,-1.1613,0.58674,-0.087659,-26.04,10.98,-12.36
0.57205,5.3528,-1.3757,-0.91233,0.52565,0.031765,-25.14,13.38,-13.26
1.6072,4.7399,-1.0215,-0.62583,0.6182,0.026573,-24.66,14.46,-13.68
3.3506,4.1678,-0.85808,-0.29932,0.6408,-0.081856,-24.18,15.18,-14.28
5.2438,3.909,-0.27241,0.28863,0.28772,-0.35247,-23.1,16.26,-15.06
6.9464,3.4187,0.61292,0.75717,0.057727,-0.58063,-22.86,16.26,-15.48
8.7851,3.5822,1.0896,1.292,-0.1237,-0.73609,-22.68,16.2,-15.72
18.755,1.3484,1.7843,1.7492,-0.36621,-0.63652,-22.08,15.36,-16.32
19.436,-4.127,3.732,1.9606,-1.0745,-0.38454,-21.6,14.4,-17.1
19.518,-10.161,5.9112,2.2349,-1.6154,-0.88087,-21.06,13.68,-17.7
19.532,-12.653,4.7944,2.6215,-1.5809,-1.7025,-19.98,12.0,-19.14
19.491,-11.836,3.1191,2.792,-1.6671,-1.9838,-19.32,11.04,-19.8
15.8,-10.896,1.9613,2.8369,-1.7074,-1.9942,-18.84,10.02,-20.28
11.686,-9.4389,1.3076,2.7086,-1.762,-1.5724,-18.42,8.88,-20.7
5.9112,-7.3822,0.92618,2.4618,-1.8757,-1.1518,-17.88,6.6,-21.12
3.0101,-7.2324,1.2258,2.1252,-1.9248,-0.74464,-17.76,5.46,-21.36
-1.2531,-6.3198,0.76274,1.5403,-1.6493,-0.0030543,-17.88,3.42,-21.54
-3.8273,-5.1349,0.5993,1.1585,-1.212,0.4664,-17.88,2.58,-21.48
-4.7126,-4.7263,0.50395,0.74342,-0.72113,0.86254,-18.0,1.8,-21.42
-4.9306,-5.0259,0.21793,0.29719,-0.18479,1.113,-18.42,0.72,-21.06
-4.1406,-5.2847,0.14982,-0.12156,0.36835,1.2706,-18.72,0.6,-20.52
-3.3642,-5.2438,0.095342,-0.47983,0.69303,1.4273,-19.2,0.36,-19.92
-0.76274,-5.4754,-1.5391,-0.94898,0.83078,1.733,-20.16,-0.24,-18.36
0.69464,-5.8976,-1.3484,-1.4032,1.1328,2.055,-20.58,-0.54,-17.64
3.8818,-7.8998,0.24517,-1.6686,1.376,2.2739,-21.0,-0.66,-17.1
17.992,-14.628,4.0589,-2.5458,2.2239,2.9425,-21.84,-0.6,-16.02
19.341,-14.764,2.8467,-2.7972,2.8869,2.6881,-22.08,-0.42,-15.6
19.518,-12.762,0.21793,-2.3863,2.8057,1.2153,-22.08,-0.12,-15.36
19.218,-7.8998,-2.4789,-1.6252,0.96975,0.084605,-22.14,0.66,-14.94
16.29,-6.4016,-2.7922,-1.3317,0.45082,-0.41722,-22.14,1.38,-14.82
13.375,-3.5822,-2.3155,-1.2617,0.5507,-0.60384,-21.96,2.16,-14.64
10.706,1.5936,-0.99429,-1.3082,0.91324,-0.77366,-21.78,3.96,-14.46
9.3572,3.514,-0.6674,-1.2767,0.68417,-0.72907,-21.78,4.98,-14.28
7.4776,4.5083,-0.65378,-1.1542,0.38515,-0.69303,-21.66,6.0,-14.04
3.2416,5.094,-1.5936,-0.97219,0.35125,-0.71624,-21.48,8.28,-13.98
1.4301,5.2438,-2.2474,-0.55467,0.37263,-0.72571,-21.6,9.42,-14.04
0.76274,5.1213,-2.6423,-0.2135,0.20983,-0.72326,-21.78,10.44,-13.98
2.0975,3.9635,-2.6968,0.091324,0.17196,-0.77763,-22.14,12.06,-13.98
2.547,3.9227,-2.4789,0.37446,0.04612,-0.82497,-22.62,12.78,-13.86
2.8467,3.6639,-1.9613,0.66035,-0.16952,-0.84574,-23.28,13.26,-13.56
4.7944,3.4051,-1.2667,0.98044,-0.33964,-0.73151,-24.48,13.74,-13.2
9.4253,3.0782,-0.85808,1.4349,-0.3708,-0.078802,-25.08,13.5,-13.08
14.179,1.9068,-0.20431,1.5363,-0.40897,0.54153,-25.38,13.14,-13.08
18.864,-2.2201,3.337,1.5391,-0.2755,0.67806,-25.8,12.6,-13.2
19.518,-10.896,6.3335,1.6722,0.72449,0.061392,-26.1,11.64,-14.04
19.532,-11.959,5.5162,2.1402,0.65363,-0.32529,-26.1,11.16,-14.76
19.532,-9.9973,3.4868,2.6282,-0.2303,-0.72479,-26.16,10.14,-16.26
13.593,-7.9679,2.9011,2.8271,-1.2361,-0.91477,-26.1,9.66,-16.8
8.3493,-6.5922,2.5879,2.8036,-1.4795,-0.85399,-26.1,9.12,-17.28
6.2381,-6.4424,2.547,2.6099,-1.7715,-0.66829,-26.28,8.58,-17.76
0.89894,-6.6195,2.4925,2.0418,-1.6145,-0.3708,-26.22,7.8,-18.6
-0.7355,-5.7614,1.9068,1.5156,-1.1845,-0.12553,-26.16,7.44,-18.9
-1.6481,-4.2495,0.40861,1.0171,-0.8659,0.15577,-26.16,7.2,-19.26
-1.7979,-4.2359,0.040861,0.38454,-0.95142,0.42516,-26.16,7.08,-20.1
-2.3291,-4.4266,0.040861,0.18143,-0.98013,0.43097,-26.58,7.2,-20.16
-3.2144,-4.413,0.095342,-0.22083,-0.87781,0.45021,-26.94,7.32,-20.04
-3.2961,-4.6854,-0.44947,-0.81001,-0.19548,0.57452,-28.32,7.38,-19.14
-2.2337,-4.6854,-1.3212,-1.2098,0.37477,0.76083,-29.16,7.32,-18.48
0.054481,-5.4618,-0.36775,-1.6686,0.97158,1.2086,-30.0,7.2,-17.58
10.76,-10.719,3.337,-2.5895,1.7171,2.2306,-31.62,7.26,-16.08
18.864,-12.953,4.3994,-3.1004,2.7874,2.4383,-32.28,7.32,-15.54
19.368,-12.354,3.2961,-2.7709,3.0723,1.1692,-32.64,7.56,-15.12
19.532,-6.9872,-1.1032,-1.883,1.0394,0.32009,-33.36,8.28,-14.58
19.532,-7.0553,-2.0975,-1.39,-0.68692,-0.20464,-33.6,8.58,-14.58
17.843,-5.4209,-2.1929,-1.2932,-1.212,-0.49236,-33.84,9.18,-14.16
11.659,0.83084,-1.7706,-1.387,-1.5684,-0.64874,-34.56,10.38,-13.14
8.7443,2.8603,-2.0294,-1.4575,-1.6054,-0.6182,-34.86,11.1,-12.84
6.1564,3.909,-2.4925,-1.4548,-1.3573,-0.45418,-35.1,11.82,-12.24
4.1951,5.2575,-3.0101,-1.2184,-0.56139,-0.31276,-35.28,12.54,-11.76
1.8932,5.775,-3.3778,-0.99418,0.059865,-0.36499,-35.52,14.1,-10.62
1.7434,5.203,-3.1872,-0.71227,0.55741,-0.45051,-35.64,14.88,-10.26
2.4517,4.1542,-2.5606,-0.23763,0.75931,-0.70677,-35.94,15.66,-9.12
2.7377,3.3506,-1.9341,0.1011,0.6182,-0.88026,-36.24,15.84,-8.82
2.8603,3.0237,-1.58,0.46151,0.50274,-1.0748,-36.48,15.72,-8.52
3.3778,2.6423,-1.2667,0.86865,0.44043,-1.2449,-36.66,15.48,-8.28
7.7364,2.547,-0.8717,1.3039,0.39279,-1.1741,-36.72,14.76,-8.1
15.282,1.5119,-0.47671,1.7853,0.057421,-0.52443,-36.6,14.04,-8.52
19.0,-2.6015,0.89894,1.8958,-0.71074,0.28711,-36.42,13.38,-9.18
19.532,-12.381,2.8875,1.7312,-0.63163,-0.31734,-36.0,12.24,-10.68
19.532,-12.177,2.2746,1.6252,-0.61728,-0.60415,-35.76,11.7,-11.52
19.532,-11.387,1.6072,1.613,-0.70433,-0.69852,-35.52,11.04,-12.3
13.321,-7.8045,0.068102,1.646,-0.42944,-0.89919,-34.92,9.66,-13.86
9.3299,-6.3743,0.054481,1.715,-0.017104,-0.73059,-34.8,8.88,-14.64
4.9169,-5.7614,0.21793,1.7926,0.1689,-0.47739,-34.14,7.68,-16.08
2.6968,-4.8488,0.095342,1.8659,0.081856,0.045509,-33.84,7.38,-16.5
2.0022,-3.8954,-0.14982,1.8445,-0.033292,0.26817,-33.6,7.08,-16.86
1.1577,-3.4732,-0.19068,1.7086,-0.32437,0.67867,-33.48,6.78,-17.16
-0.99429,-3.8682,0.095342,1.3625,-0.7028,1.1365,-33.36,6.48,-17.16
-1.9886,-4.304,0.095342,1.0595,-0.63347,1.2303,-33.42,6.42,-16.92
-2.547,-4.018,-0.054481,0.6857,-0.33964,1.1991,-33.54,6.24,-16.26
-1.6617,-3.514,-0.21793,0.28986,0.03207,1.1576,-33.6,5.7,-14.82
0.32689,-4.5083,-0.31327,-0.12217,0.15394,1.1994,-33.78,5.52,-14.22
1.4438,-4.7807,-0.76274,-0.57452,0.19731,1.1258,-33.84,5.28,-13.62
5.094,-4.5628,-1.0488,-1.4108,0.45509,1.0269,-34.02,5.04,-13.2
15.159,-9.8611,1.9068,-2.0574,0.58551,1.2911,-34.32,5.22,-12.0
18.987,-12.803,3.1599,-2.7058,0.64568,1.6383,-34.56,5.46,-11.46
19.532,-11.836,-1.2803,-2.8894,1.3063,0.87476,-34.8,5.82,-10.68
19.532,-10.392,-3.4732,-2.3714,1.2972,0.1182,-34.8,6.18,-10.32
17.992,-9.4389,-4.4539,-1.5705,0.89919,-0.71624,-34.74,6.54,-9.9
15.445,-7.9407,-4.4266,-1.3864,0.81031,-0.84299,-34.86,6.84,-9.78
11.591,-2.438,-1.9886,-1.4887,0.8827,-0.75503,-35.22,7.68,-9.06
10.079,0.23155,-0.29965,-1.6704,0.69944,-0.53695,-35.4,8.46,-8.82
6.9328,3.4596,0.21793,-1.5992,0.61025,-0.23335,-35.7,9.78,-8.52
4.4947,4.1951,-1.3484,-1.3494,0.80726,-0.053451,-35.76,10.44,-8.28
3.5413,4.3858,-2.1656,-0.93982,0.84422,0.018021,-35.88,11.22,-8.16
1.975,4.6309,-3.7047,-0.48381,0.77061,-0.072693,-36.0,12.9,-7.8
1.7979,4.4811,-3.5685,-0.017104,0.51862,-0.10751,-35.94,13.74,-7.92
2.1929,4.4402,-2.9965,0.41081,0.097128,-0.12798,-35.88,14.34,-8.1
2.9692,4.1814,-1.7025,0.94257,-0.3094,-0.23946,-36.12,15.3,-8.28
3.9908,3.4596,-1.2531,1.2388,-0.28833,-0.34086,-36.18,15.66,-8.58
5.5707,3.2553,-0.83084,1.5769,-0.21747,-0.47159,-36.36,15.84,-8.88
11.795,3.3778,-1.1713,1.8549,-0.27336,-0.33659,-36.3,15.72,-9.96
18.156,0.70826,-0.34051,1.9001,-0.72265,0.19823,-36.18,15.18,-10.98
19.45,-5.2302,3.2144,1.7013,-1.069,0.31185,-35.88,14.52,-12.24
19.532,-12.04,4.8488,1.6188,-0.94715,-0.44899,-35.64,13.2,-15.12
19.532,-10.651,3.5958,1.7077,-0.1573,-0.66248,-35.46,12.18,-16.86
18.905,-9.6432,2.2337,1.8378,-0.14997,-0.86621,-35.16,11.28,-18.42
11.822,-8.8805,1.4982,1.8964,-0.29444,-0.88209,-34.56,9.0,-21.06
8.8941,-8.1313,1.5391,1.8497,-0.45754,-0.74373,-34.2,7.68,-22.08
6.456,-7.5321,1.6753,1.7113,-0.68509,-0.5171,-33.9,6.36,-23.04
2.8058,-6.3607,1.4301,1.4969,-0.84086,-0.16341,-33.24,4.08,-24.6
1.0215,-6.3198,1.185,1.051,-0.80634,0.15455,-33.12,3.0,-24.9
-0.47671,-5.7342,0.72188,0.69608,-0.65637,0.48564,-32.88,1.86,-25.14
-1.6481,-4.8625,0.28603,0.34728,-0.45968,0.67928,-32.7,1.14,-25.2
-2.7649,-4.3721,-0.027241,0.0039706,-0.19426,0.76297,-32.52,0.18,-24.54
-2.9556,-4.7399,0.14982,-0.34056,0.15455,0.88362,-32.64,-0.18,-23.7
-1.6344,-4.6445,-0.27241,-0.66371,0.52962,0.97341,-32.82,-1.2,-21.72
0.47671,-4.8625,-1.6072,-1.1191,0.75656,1.0904,-33.0,-1.32,-20.34
2.3155,-5.2302,-1.4574,-1.5895,0.98197,1.2129,-33.3,-1.5,-19.14
14.369,-11.441,2.2201,-2.1393,1.1613,1.5073,-34.14,-1.68,-17.16
18.891,-13.934,3.4732,-2.7086,1.4197,1.992,-34.62,-1.5,-16.26
19.45,-13.103,2.5198,-2.7074,1.9343,1.4426,-35.1,-1.2,-15.36
19.532,-9.1937,-2.833,-2.0174,1.405,0.23824,-35.94,-0.42,-14.04
18.878,-7.9407,-3.8954,-1.1622,-0.057421,-0.60873,-36.3,0.12,-13.62
16.235,-6.17,-4.3177,-0.99907,-0.51832,-0.94592,-36.78,0.96,-13.38
11.414,-1.1305,-2.2201,-1.1622,-0.63774,-0.98533,-37.5,2.34,-12.72
9.3572,0.81722,-0.64016,-1.4197,-0.47831,-0.86468,-38.04,3.06,-12.48
6.3471,2.8603,-0.19068,-1.5128,-0.068722,-0.73884,-38.46,3.9,-12.42
3.7456,4.6173,-1.4165,-1.5024,0.45418,-0.66615,-39.18,5.94,-11.94
2.9829,4.985,-1.9477,-1.2776,1.0131,-0.71044,-39.36,6.84,-12.06
1.3212,5.2438,-2.6015,-0.97555,0.92363,-0.69364,-39.6,7.56,-11.94
0.34051,4.9987,-2.3155,-0.61606,0.73518,-0.64019,-40.02,8.94,-12.12
1.362,4.2495,-1.866,-0.25687,0.53512,-0.66829,-40.38,9.24,-12.24
2.0294,3.8137,-1.2258,0.14264,0.26817,-0.77,-40.62,9.54,-12.36
3.3097,3.5685,-0.65378,0.53634,0.15699,-0.88087,-41.16,9.24,-12.54
5.3528,3.6775,-0.61292,1.1961,0.20708,-0.88087,-41.16,8.82,-12.84
9.1937,4.522,-0.6674,1.6609,0.072998,-0.54459,-41.04,8.04,-13.08
19.123,0.27241,0.6674,1.8167,-0.14661,-0.10415,-40.2,6.06,-14.4
19.477,-6.4152,3.1191,1.8237,-0.30696,-0.3091,-39.66,5.16,-15.48
19.532,-10.992,4.7944,2.044,-0.53726,-0.956,-39.06,4.32,-16.56
19.532,-8.6625,2.0975,2.2309,-0.88759,-1.325,-37.68,2.58,-18.42
19.423,-8.3765,1.1169,2.3983,-1.8463,-1.7718,-37.2,1.86,-18.9
13.729,-8.1177,1.3893,2.3405,-1.9569,-1.6939,-36.42,0.3,-19.74
7.5321,-7.75,1.8932,2.2834,-1.8408,-1.5528,-36.12,-0.54,-19.74
4.4402,-7.2733,1.9341,2.0354,-1.3308,-0.96914,-35.82,-1.2,-19.62
1.58,-6.7966,1.8932,1.7333,-0.91721,-0.49511,-35.58,-1.92,-19.5
-2.1656,-6.3743,1.9341,1.2975,-0.38851,0.073609,-35.16,-2.82,-18.96
-3.5549,-6.3471,1.6889,0.83811,0.060781,1.0577,-35.22,-2.94,-18.6
-3.8954,-5.6933,0.8036,0.40806,0.2978,1.3375,-35.64,-2.58,-17.52
-3.7728,-5.7614,0.49033,0.037874,0.48564,1.7159,-36.06,-2.28,-16.38
-3.8001,-5.8431,0.054481,-0.27886,0.72143,1.9771,-36.42,-1.92,-14.88
-3.6094,-5.8431,-0.38137,-0.64966,1.0602,2.3488,-36.78,-1.86,-13.68
-1.8387,-5.6797,-2.0567,-0.8882,1.379,2.5516,-37.8,-1.44,-11.76
1.0896,-6.3335,-2.5198,-1.2196,1.8928,3.0516,-38.16,-1.44,-10.98
16.916,-16.181,2.9692,-1.6866,2.0104,3.248,-38.64,-0.78,-10.14
19.205,-19.096,5.8704,-2.3766,1.9279,3.6765,-38.76,-0.3,-9.84
19.45,-17.87,5.7614,-2.9199,3.073,3.2791,-38.7,0.36,-9.84
19.532,-8.7306,0.081722,-2.1108,2.8243,0.90866,-38.64,2.34,-10.14
19.532,-6.8647,-1.3212,-1.5424,1.3079,0.1182,-38.34,3.66,-10.32
17.924,-5.4754,-1.1441,-1.4013,0.48991,-0.47434,-37.98,5.04,-10.32
11.536,-1.3076,0.50395,-1.6493,0.67104,-0.77152,-37.56,7.74,-10.62
9.4117,0.96704,0.6674,-1.7935,0.64019,-0.90194,-37.56,9.18,-10.74
7.5865,3.0646,0.5993,-1.8091,0.53634,-0.96456,-37.5,10.56,-11.1
5.7886,5.3392,-0.14982,-1.7089,0.41569,-1.0638,-37.38,13.38,-11.1
4.7807,5.6388,-0.65378,-1.5635,0.24251,-1.186,-37.2,14.52,-11.1
3.5958,5.3937,-1.076,-1.354,0.15088,-1.2507,-37.14,15.78,-11.1
3.0918,5.0259,-1.0896,-1.098,0.27519,-1.3338,-37.02,18.06,-11.04
3.5685,4.699,-0.99429,-0.56474,0.27489,-1.4765,-37.08,18.9,-10.92
4.0316,4.5628,-0.74912,-0.34056,0.19914,-1.5565,-37.38,19.56,-10.74
4.522,4.304,-0.38137,0.44318,-0.075747,-1.7706,-37.74,19.74,-10.62
5.38,5.1894,-0.29965,1.0708,-0.33475,-1.7611,-37.98,19.44,-10.62
8.826,5.9249,-0.23155,1.5461,-0.57544,-1.4542,-38.16,18.96,-10.74
18.891,0.027241,3.0782,1.8372,-1.6811,-0.27703,-38.46,17.52,-11.58
19.45,-7.7091,5.775,1.792,-1.7514,-0.16738,-38.46,16.74,-12.0
19.518,-13.607,6.7421,2.043,-1.7593,-0.65088,-38.52,16.08,-12.36
19.532,-11.482,3.514,2.6655,-1.3619,-1.1176,-38.76,14.52,-13.32
17.706,-11.169,2.152,2.9874,-1.3372,-1.186,-38.82,13.86,-13.56
11.686,-10.297,1.7025,3.2006,-1.2788,-0.89797,-38.88,13.08,-13.86
8.1313,-8.8941,1.6344,3.2028,-1.2288,-0.46151,-38.76,12.18,-13.98
5.1076,-7.3822,1.2122,3.0024,-1.1555,-0.24404,-38.58,10.5,-14.16
3.8273,-7.2733,1.076,2.4187,-1.0455,0.27672,-38.34,9.84,-14.28
2.0703,-7.1098,0.84446,1.9141,-0.84635,0.57605,-38.1,9.24,-14.16
-1.1169,-6.1292,-0.23155,1.3879,-0.50091,0.86957,-37.86,8.58,-13.74
-2.2882,-5.094,-1.0896,0.89034,-0.10201,1.0977,-37.62,8.16,-13.38
-2.2474,-4.4811,-1.2667,0.19945,0.3934,1.2483,-37.14,7.8,-12.06
-1.8932,-4.5764,-1.2667,-0.22571,0.68325,1.3268,-37.02,7.5,-11.34
-1.076,-5.0123,-1.4574,-0.63347,0.94776,1.3638,-36.84,7.08,-10.62
-0.25879,-5.1485,-1.7979,-1.0311,1.1344,1.379,-36.72,6.54,-9.72
2.9148,-5.2166,-2.547,-1.5055,1.2541,1.4258,-36.66,6.06,-8.76
10.665,-9.2482,-0.83084,-2.0189,1.1976,1.8088,-36.96,6.0,-7.2
18.701,-15.187,2.4925,-2.6988,0.92638,2.4994,-37.38,6.12,-6.42
19.504,-12.926,0.10896,-3.0281,1.6588,1.4694,-37.56,7.02,-5.04
19.532,-8.9894,-2.3972,-2.3546,1.5971,0.73793,-37.5,7.62,-4.44
18.878,-6.5105,-4.0997,-1.7898,0.58582,0.24618,-37.68,8.34,-4.14
14.86,-5.1894,-4.018,-1.5324,-0.031765,-0.072388,-37.74,10.02,-3.0
12.408,-2.6423,-2.6015,-1.5773,0.14264,-0.20983,-37.8,11.22,-2.46
9.4525,0.70826,-1.471,-1.7147,0.23243,-0.25504,-37.92,12.24,-2.04
6.9872,3.1191,-1.5391,-1.7239,0.03146,-0.24954,-38.28,14.46,-1.26
5.2575,4.1814,-1.9886,-1.6191,-0.19364,-0.19273,-38.28,15.72,-0.78
3.8818,4.6037,-2.2201,-1.4099,-0.25229,-0.12309,-38.28,17.04,-0.6
0.35413,5.4481,-2.438,-1.2031,-0.16707,-0.11484,-37.74,19.44,-0.12
0.36775,5.2711,-2.2474,-1.0128,0.13378,-0.10171,-37.44,20.34,-0.12
1.4982,4.5764,-1.9613,-0.78924,0.5962,-0.13806,-37.02,21.24,0.12
3.4323,3.9635,-1.2531,-0.33414,0.68783,-0.29749,-36.54,22.44,0.12
4.127,3.7456,-0.96704,0.022602,0.61056,-0.50641,-36.42,22.74,0.18
5.489,3.3778,-0.61292,0.19823,0.61423,-0.64752,-36.36,22.86,0.42
8.5672,3.732,-0.10896,0.91477,0.69211,-1.0281,-36.3,22.98,0.42
18.565,2.5879,-0.44947,1.3857,0.37996,-0.87262,-36.18,22.38,0.06
19.409,-2.5061,0.74912,1.6631,-0.2926,-0.65668,-36.24,21.9,-0.36
19.532,-12.108,3.2825,2.0046,-0.63133,-1.1762,-36.12,20.82,-1.8
19.532,-13.348,2.1112,2.3564,-0.54,-1.7526,-36.24,20.16,-2.64
19.532,-12.858,1.3212,2.6692,-0.7532,-2.1221,-36.12,19.56,-3.6
13.239,-10.651,0.25879,2.927,-1.1875,-2.2526,-36.06,18.06,-5.64
9.4798,-9.2482,0.24517,2.9196,-1.2019,-1.9261,-36.0,17.22,-6.54
6.3607,-7.7908,0.21793,2.7993,-1.1387,-1.5067,-36.06,16.32,-7.44
1.2803,-6.0202,0.50395,2.4157,-0.82039,-0.83872,-36.3,14.4,-8.94
-0.38137,-5.8976,0.65378,2.0238,-0.40745,-0.31643,-36.54,13.44,-9.54
-1.5255,-5.8023,0.5993,1.8027,-0.20006,-0.055894,-36.48,12.66,-10.38
-2.4789,-5.4481,0.44947,1.1222,0.20739,0.68417,-36.54,11.82,-11.04
-2.9284,-5.4345,0.21793,0.67684,0.42577,0.98991,-36.72,10.62,-11.88
-2.8875,-5.3664,0.14982,0.26389,0.67867,1.1848,-36.84,10.14,-11.94
-2.6423,-5.1894,0.14982,-0.10934,0.80726,1.35,-36.9,9.72,-11.88
-1.471,-5.2166,-0.5993,-0.42791,0.86285,1.5079,-36.78,9.36,-11.58
1.5663,-5.598,-1.866,-0.82467,0.86071,1.6383,-36.96,8.64,-11.22
5.1894,-7.069,-0.28603,-1.5727,0.92424,2.0256,-37.08,8.4,-10.68
9.507,-9.4798,0.96704,-2.2736,0.9447,2.4984,-37.26,8.22,-10.44
19.395,-14.07,2.547,-2.876,1.383,2.7712,-37.8,8.22,-9.72
19.504,-12.803,1.1577,-2.8314,2.4367,1.054,-37.92,8.46,-9.54
19.532,-8.7306,-2.7649,-1.8845,1.4954,0.2813,-38.1,9.3,-9.24
18.033,-5.9249,-3.2825,-1.6677,1.0037,-0.085216,-38.34,10.08,-9.06
14.438,-4.0997,-2.942,-1.4725,0.51129,-0.55222,-38.34,10.8,-8.94
11.373,-1.4574,-2.0158,-1.6102,0.50152,-0.64141,-38.52,11.7,-8.7
8.1313,3.051,-0.6674,-1.7129,0.489,-0.56688,-38.52,13.62,-8.28
6.0474,4.8352,-0.9398,-1.5879,0.46212,-0.42822,-38.76,14.52,-8.16
3.8137,5.598,-2.0839,-1.5052,0.48808,-0.42058,-39.3,16.44,-7.74
1.757,5.9249,-2.6287,-1.1261,0.34239,-0.37874,-39.48,17.4,-7.44
1.1713,5.5435,-2.8058,-0.9896,0.24038,-0.33537,-39.6,18.36,-7.32
1.471,4.9169,-2.6968,-0.56108,0.34361,-0.28558,-39.66,19.26,-6.84
3.2008,3.3915,-1.9477,-0.25107,0.35003,-0.36316,-39.84,20.64,-6.42
3.6503,3.1872,-1.3484,0.08491,0.081245,-0.47617,-40.02,21.12,-6.3
5.8431,2.7922,-0.40861,0.63194,-0.26023,-0.74587,-40.2,21.36,-6.3
8.6353,3.337,-0.31327,1.0568,-0.45143,-0.81673,-40.08,21.06,-6.42
12.217,3.4459,-0.29965,1.452,-0.80817,-0.53451,-40.08,20.52,-6.9
19.382,-3.7047,1.1986,1.6313,-1.4349,-0.15547,-39.96,19.56,-8.34
19.518,-9.902,3.2553,1.7312,-1.6594,-0.58735,-39.96,18.96,-9.06
19.532,-12.858,3.8137,1.8427,-1.4444,-1.3522,-39.84,18.42,-9.84
19.532,-10.869,2.1248,1.9807,-1.4334,-1.8094,-39.54,17.22,-11.28
16.045,-9.8203,1.7298,2.1747,-1.0376,-2.1173,-39.36,16.44,-11.76
11.836,-8.3901,1.5391,2.2281,-0.51526,-1.8766,-39.36,15.6,-12.24
6.4697,-6.7966,1.2122,2.295,-0.28069,-1.4502,-39.24,14.34,-13.56
3.0373,-6.1155,1.1169,2.2944,-0.2474,-0.98746,-39.24,13.68,-13.98
0.96704,-5.7478,0.84446,2.1961,-0.24801,-0.50213,-39.24,12.96,-14.34
-1.1441,-5.094,0.70826,1.9685,-0.23366,0.012523,-39.24,11.82,-14.76
-2.5061,-4.9578,0.31327,1.6454,-0.23915,0.50793,-39.3,11.4,-14.7
-2.8058,-4.9306,0.21793,1.2795,-0.32926,0.94012,-39.3,11.16,-14.46
-3.3506,-5.1485,0.1362,0.60598,-0.14783,1.2462,-39.48,10.32,-13.32
-3.5822,-5.1213,0.39499,0.13103,0.12859,1.4068,-39.54,10.02,-12.78
-3.5413,-4.9987,0.24517,-0.30329,0.46181,1.5641,-39.6,9.72,-12.06
-1.4438,-5.0259,-1.7162,-0.86346,0.90988,1.8079,-40.14,9.24,-10.86
0.44947,-5.1213,-1.7434,-1.3302,1.2428,2.0525,-40.32,9.18,-10.38
4.522,-7.2188,-0.20431,-1.8821,1.544,2.5412,-40.44,9.12,-10.02
17.965,-15.541,4.0861,-2.6151,1.5867,3.1432,-40.56,9.24,-9.0
19.341,-17.448,3.2825,-3.0473,2.4374,3.0653,-40.62,9.6,-8.7
19.518,-13.838,0.43585,-2.481,2.814,1.2312,-40.44,9.96,-8.28
19.532,-8.4038,-3.3506,-1.6148,1.441,-0.15791,-40.38,11.34,-7.74
16.998,-6.6331,-4.0044,-1.0421,0.1463,-0.63774,-40.26,12.06,-7.32
13.416,-4.2904,-3.5277,-1.1475,0.30971,-0.79107,-40.2,12.96,-7.02
9.6704,-0.76274,-1.4846,-1.463,0.74067,-0.64477,-40.08,14.22,-6.72
6.674,2.4244,-0.19068,-1.6145,1.0232,-0.46884,-40.14,16.38,-6.12
5.2711,3.4459,-1.0896,-1.5785,1.0928,-0.32132,-40.2,17.4,-6.0
4.2495,4.1133,-2.4108,-1.4404,1.1231,-0.28833,-39.96,19.44,-5.7
1.3893,5.4209,-2.6015,-1.2217,0.84025,-0.28741,-39.96,20.52,-5.52
1.2258,5.3392,-2.2882,-0.95814,0.62827,-0.31887,-39.78,21.54,-5.4
1.6072,4.8897,-2.0703,-0.65515,0.59682,-0.39737,-39.66,22.38,-5.4
2.152,4.3449,-1.5119,-0.29169,0.41905,-0.49877,-39.54,23.58,-5.22
2.2882,4.2495,-1.2122,0.10629,0.11515,-0.58949,-39.66,24.06,-5.04
6.1019,3.6775,-0.38137,0.48381,-0.022297,-0.72479,-39.66,24.0,-4.8
10.896,4.1814,0.095342,0.8491,-0.031154,-0.73151,-39.72,23.64,-5.04
17.897,2.5334,0.6674,1.1799,-0.22755,-0.37477,-39.78,22.98,-5.34
19.327,-3.1735,3.0237,1.2181,-0.40409,-0.083383,-39.66,22.02,-6.12
19.532,-13.28,6.565,1.4456,0.091019,-1.0073,-39.36,20.16,-8.1
19.532,-12.994,5.2847,1.8518,0.20311,-1.5183,-39.12,19.26,-9.24
19.532,-12.095,4.0725,2.1753,-0.39706,-1.8796,-38.58,18.54,-10.44
12.231,-9.8611,3.5549,2.5354,-0.58826,-1.8564,-37.44,16.44,-12.54
8.4991,-8.4174,2.833,2.584,-0.42028,-1.6677,-37.08,15.42,-13.56
6.5922,-7.5729,2.4108,2.6292,-0.32467,-1.1781,-36.72,14.34,-14.4
2.5606,-6.3879,1.3893,2.5201,-0.71349,-0.43097,-35.88,12.24,-16.2
0.8036,-6.6331,1.185,2.2434,-0.92454,0.048258,-35.46,11.22,-16.98
-0.62654,-6.5786,0.19068,1.8027,-0.96303,0.47586,-34.68,9.9,-18.42
-2.9148,-4.3721,-0.12258,1.1093,-1.1243,0.90316,-34.38,9.54,-18.84
-3.3097,-3.9908,-0.39499,0.68906,-1.1771,1.0055,-34.08,9.06,-19.02
-3.5822,-4.4811,-0.58567,0.23732,-0.96883,1.0779,-33.96,8.82,-18.84
-3.8682,-4.9033,-0.068102,-0.21411,-0.57421,1.1863,-33.96,8.16,-17.52
-2.9011,-4.7126,-0.55843,-0.65301,-0.0064141,1.2187,-34.02,7.92,-16.74
-1.0624,-4.7807,-1.7162,-1.0974,0.38118,1.2892,-34.32,7.62,-15.96
6.7421,-5.9249,0.74912,-1.5852,0.72968,1.4319,-35.34,7.38,-14.34
14.955,-11.387,3.5685,-2.1197,0.748,1.824,-35.7,7.44,-13.56
18.387,-14.152,4.8488,-2.8857,1.2391,2.4257,-36.24,7.74,-12.9
19.463,-13.566,3.732,-3.1631,3.3259,1.2599,-36.6,8.22,-12.18
19.532,-8.2948,-0.76274,-2.2379,2.0006,0.416,-37.02,9.3,-11.46
19.491,-6.9736,-1.8387,-1.5293,0.23305,-0.14905,-37.26,9.96,-11.1
14.574,-4.9578,-0.89894,-1.3201,0.53451,-0.53451,-37.56,11.4,-10.44
12.449,-2.3836,-0.027241,-1.4401,0.82589,-0.55955,-37.86,12.3,-10.2
10.392,0.20431,0.095342,-1.6096,0.97464,-0.56536,-38.04,13.2,-10.02
7.641,3.3778,-1.2531,-1.5308,0.59101,-0.50213,-38.04,15.12,-9.9
6.0883,4.5083,-1.7706,-1.3506,0.2248,-0.51007,-38.16,16.02,-9.6
4.4675,5.094,-1.9886,-1.1008,-0.0039706,-0.56108,-38.22,16.92,-9.36
1.2122,5.4345,-1.8387,-0.68539,0.11698,-0.57177,-38.1,18.66,-9.0
-0.054481,5.2847,-1.5119,-0.38943,0.46029,-0.51801,-38.16,19.38,-8.94
-0.054481,5.3392,-1.1169,-0.080634,0.60353,-0.45601,-37.98,19.74,-8.94
1.866,4.2087,-0.25879,0.33414,0.49999,-0.46212,-37.92,20.16,-8.82
3.051,3.3915,-0.20431,0.7929,0.24648,-0.49663,-38.1,20.28,-8.76
4.1814,3.1191,-0.35413,1.2657,-0.10843,-0.4273,-38.1,20.04,-8.82
12.476,2.5879,0.83084,1.6741,-0.52046,0.33017,-38.1,19.02,-9.36
17.448,-0.28603,1.9886,2.0595,-1.376,0.98869,-37.92,18.36,-9.78
19.273,-6.8783,3.5822,2.0595,-1.9422,0.77091,-37.74,17.64,-10.44
19.532,-11.836,3.5004,2.1548,-2.1124,0.16768,-37.5,16.2,-11.82
19.532,-11.046,2.2337,2.3668,-2.2553,-0.24557,-37.32,15.42,-12.72
19.0,-11.237,0.96704,2.5302,-2.295,-0.62766,-37.02,14.58,-13.5
13.43,-9.0712,0.70826,2.4041,-1.7483,-0.70677,-36.54,12.54,-14.94
11.632,-7.9407,0.84446,2.0296,-0.79351,-0.4664,-36.18,11.52,-15.48
8.6353,-6.2517,0.61292,1.9184,-0.65637,-0.3598,-35.94,10.86,-15.96
5.0668,-4.9714,-0.20431,1.6136,-0.69669,-0.08827,-35.28,9.36,-16.86
3.7047,-4.2223,-0.24517,1.4019,-0.81092,0.051007,-34.92,8.52,-16.86
2.7649,-3.8137,-0.16344,1.1408,-0.82803,0.14447,-34.44,7.98,-16.86
-0.054481,-3.8137,-0.27241,0.88942,-0.83719,0.18051,-33.84,7.08,-16.5
-1.2803,-4.1678,0.054481,0.42302,-0.50824,0.081856,-33.6,6.78,-16.08
-2.2746,-3.9227,0.21793,0.093462,-0.15149,0.0027489,-33.3,6.42,-15.3
-2.6287,-3.3642,0.24517,-0.22113,0.28069,-0.052534,-33.18,6.0,-14.7
-0.49033,-4.3177,-1.7434,-0.51343,0.64782,-0.025656,-33.0,5.16,-13.02
1.866,-5.7886,-1.5119,-1.0226,0.78893,0.13744,-33.06,4.74,-12.42
8.1177,-10.256,2.3155,-1.4337,0.7367,0.67134,-33.06,4.38,-11.28
12.503,-12.149,3.623,-2.1918,1.4032,1.5608,-33.18,4.08,-10.98
19.382,-13.157,-0.095342,-2.8176,1.9633,1.1622,-33.06,3.6,-10.74
19.504,-10.733,-1.9886,-2.4871,1.3421,0.38026,-33.06,3.42,-10.86
17.979,-9.4117,-2.7104,-2.0452,0.2022,-0.082467,-33.12,3.54,-11.16
16.14,-8.7987,-2.6968,-1.938,-0.075442,-0.063225,-33.48,3.48,-11.34
12.667,-4.0589,-1.0351,-2.157,0.51649,0.011912,-33.9,3.96,-11.58
10.624,-1.3348,-0.61292,-2.273,1.3769,0.013744,-34.26,4.26,-11.7
9.0439,1.2803,-0.70826,-2.2022,1.5043,0.02138,-34.56,4.56,-11.88
7.8045,3.8682,-1.7298,-1.971,1.4581,0.081856,-34.74,4.98,-11.94
6.279,4.9578,-2.3836,-1.4481,0.97005,0.063835,-34.98,6.18,-12.12
5.4209,4.9033,-2.2474,-1.0348,0.7535,-0.040012,-35.1,6.84,-12.12
4.6718,4.7944,-1.6617,-0.63163,0.57452,-0.18601,-35.22,7.92,-12.24
4.4947,4.6582,-1.4165,0.047037,0.12278,-0.37202,-35.16,8.76,-12.24
4.0044,3.0646,-0.64016,0.26695,0.0018326,-0.42638,-35.28,9.12,-12.3
4.4675,1.7434,-0.36775,0.69058,-0.10507,-0.4945,-35.76,9.78,-12.12
5.4209,0.34051,0.20431,1.2724,-0.15944,-0.41875,-35.82,9.96,-12.12
7.8045,-0.99429,1.0215,1.493,-0.19456,-0.053451,-35.52,10.26,-12.3
15.432,-5.2166,2.4517,1.5043,-0.49602,0.62644,-35.04,10.44,-13.32
19.205,-8.5808,3.4732,1.343,-0.68234,0.97677,-34.86,10.56,-14.22
19.518,-8.1858,2.7241,1.347,-0.67592,0.83902,-34.56,10.92,-15.78
19.532,-8.7034,1.1577,1.5269,-0.84391,0.67012,-34.56,10.92,-16.44
18.66,-9.4798,0.31327,1.821,-1.1738,0.53665,-34.2,10.74,-17.28
16.916,-9.2755,0.054481,1.9542,-1.2312,0.31368,-33.9,10.56,-17.94
10.637,-6.7966,-0.19068,1.8854,-1.1096,0.26389,-33.36,10.26,-19.38
8.1858,-5.7886,-0.31327,1.6368,-0.92943,0.29932,-33.24,9.9,-19.98
4.8352,-5.0259,-0.78998,1.536,-0.88575,0.34697,-32.64,9.66,-20.7
3.2961,-4.9578,-0.83084,1.2853,-0.80481,0.47128,-32.4,9.6,-20.7
2.0158,-4.8625,-0.6674,0.92241,-0.72357,0.60201,-31.98,9.6,-20.7
0.77636,-5.0668,0.068102,0.28986,-0.54917,0.77152,-31.8,9.54,-20.04
0.35413,-5.38,0.23155,-0.1347,-0.25473,0.69089,-31.74,9.48,-19.38
-0.76274,-5.1076,0.35413,-0.80848,0.29077,0.37568,-31.62,9.36,-18.54
-1.1305,-4.0044,0.14982,-0.99815,0.52962,0.27031,-31.62,9.12,-16.86
-0.16344,-3.4459,-0.77636,-1.5253,1.0556,0.07025,-31.68,9.3,-16.02
1.58,-4.0861,0.19068,-1.8723,1.2785,0.22816,-31.98,9.66,-15.24
6.674,-8.5808,2.4517,-2.2694,1.3604,0.6747,-32.46,10.68,-13.74
14.029,-10.324,2.8194,-2.6618,1.5507,1.1047,-32.7,11.16,-12.9
18.987,-10.079,0.01362,-2.7269,1.8314,0.91477,-32.88,12.48,-11.58
17.516,-8.1586,-1.7025,-1.7544,0.93921,-0.1179,-33.06,13.32,-11.16
16.317,-8.0496,-1.975,-1.1515,0.13439,-0.3879,-33.18,14.1,-10.8
16.031,-7.9679,-1.9886,-0.86254,0.029627,-0.50152,-33.54,15.0,-10.32
14.601,-5.993,-1.6072,-0.89461,0.30207,-0.59193,-33.9,15.9,-9.9
11.509,-2.3836,-0.85808,-1.0113,0.56902,-0.59162,-34.14,17.88,-9.36
9.9565,-0.29965,-1.1169,-1.014,0.68264,-0.48594,-34.32,18.78,-9.12
7.7908,2.1929,-2.0975,-0.97525,0.66248,-0.44624,-34.32,20.22,-9.06
6.4833,2.5742,-2.3972,-0.88117,0.50457,-0.40623,-34.02,20.88,-8.94
4.8897,2.833,-2.4108,-0.67928,0.47556,-0.43891,-34.02,21.24,-8.88
3.4051,3.337,-1.8932,-0.32865,0.7367,-0.52107,-33.96,21.66,-8.4
3.3097,3.3778,-1.5255,-0.062614,0.7645,-0.57727,-34.02,21.84,-8.34
3.4732,3.4596,-1.3484,0.41905,0.28588,-0.70402,-34.2,21.96,-8.1
3.9227,2.4925,-1.1713,0.78038,-0.10263,-0.76816,-34.38,21.72,-8.04
4.6445,2.0567,-1.2531,0.96853,-0.29383,-0.76664,-34.56,21.3,-8.04
5.8023,1.9613,-1.3212,1.3189,-0.53176,-0.63591,-34.56,20.7,-8.52
11.278,0.24517,-1.5663,1.7648,-0.85979,0.0064141,-34.62,20.04,-9.0
19.055,-6.4697,0.44947,1.839,-1.4612,0.5174,-34.62,18.42,-10.8
19.477,-10.787,2.0294,1.8641,-1.7681,0.15699,-34.62,17.82,-11.94
19.532,-11.319,1.3757,1.9059,-2.0357,-0.49724,-34.74,16.8,-13.8
19.532,-11.523,0.25879,1.9752,-2.3204,-0.83841,-34.68,16.32,-14.76
17.053,-11.264,-0.1362,1.8995,-2.1066,-0.98869,-34.5,15.72,-15.48
12.558,-9.7385,0.19068,1.7165,-1.4337,-0.84238,-34.38,15.24,-16.44
5.8159,-6.1428,0.40861,1.5055,-0.73182,-0.53695,-33.96,14.1,-18.06
3.8954,-4.8352,0.23155,1.2993,-0.23671,-0.18143,-33.96,13.56,-18.66
1.6344,-3.909,0.42223,1.0055,0.099876,0.32437,-33.42,12.84,-19.44
0.65378,-3.6503,0.24517,0.78954,0.091324,0.62278,-32.94,12.42,-19.74
0.20431,-3.623,-0.054481,0.56413,0.023824,0.84452,-32.46,12.18,-19.8
-0.35413,-4.1951,-0.16344,0.30452,0.045509,0.92424,-32.04,12.06,-19.2
-0.99429,-4.127,0.12258,0.048869,0.04948,0.90011,-31.74,11.94,-18.66
-1.185,-4.1814,0.35413,-0.18937,0.081245,0.8772,-31.44,11.64,-17.88
0.027241,-4.8216,0.44947,-0.4496,0.31124,0.85521,-31.26,10.86,-16.08
0.74912,-4.6718,-0.027241,-0.79626,0.66279,0.79718,-31.32,10.56,-15.18
2.152,-4.3449,-0.64016,-0.90988,0.75075,0.81398,-31.62,10.44,-14.52
9.5615,-10.174,0.64016,-1.3949,1.0916,1.2223,-31.74,10.56,-12.84
15.854,-14.41,1.8796,-1.8567,1.2602,1.6551,-31.86,10.74,-12.0
19.3,-14.124,1.2531,-2.1298,1.6356,1.5229,-31.74,10.92,-11.34
19.532,-11.673,-2.5606,-1.861,1.9007,0.51129,-31.92,11.7,-10.32
18.537,-10.379,-4.0452,-0.99418,0.93585,-0.22999,-32.1,12.3,-9.84
17.121,-9.507,-4.5083,-0.72479,0.38423,-0.52901,-32.22,13.02,-9.36
13.729,-6.7693,-4.0589,-0.79168,0.13011,-0.67165,-32.28,13.62,-8.82
10.624,-2.9284,-1.9613,-1.1151,-0.041539,-0.59651,-32.52,15.12,-7.86
8.322,-0.040861,-1.2939,-1.3534,-0.18967,-0.45662,-32.64,15.9,-7.26
6.5922,1.4165,-1.6753,-1.4511,-0.17257,-0.35186,-32.7,16.8,-6.78
3.3915,2.8467,-2.7377,-1.4386,0.1518,-0.23366,-32.52,18.48,-6.18
2.0022,3.4187,-2.833,-1.3964,0.28253,-0.20495,-32.22,19.14,-5.82
1.4029,3.5685,-2.7104,-1.2007,0.81886,-0.24038,-32.1,19.8,-5.64
1.4029,3.6366,-1.8932,-0.9954,1.0672,-0.28405,-32.1,20.4,-5.4
2.2882,3.6775,-1.4301,-0.71227,1.1173,-0.40317,-32.04,21.24,-5.04
3.4732,3.5413,-0.96704,-0.39431,1.1151,-0.59773,-31.92,21.66,-4.56
5.1485,3.2144,-0.74912,-0.0024435,1.0259,-0.76236,-31.86,21.36,-4.02
6.7693,3.3234,-0.62654,0.69822,0.77336,-0.80054,-31.86,21.06,-4.02
14.642,2.1929,-0.16344,1.1616,0.31521,-0.54184,-31.92,20.1,-4.38
18.851,-1.2258,0.24517,1.4102,-0.42333,-0.19426,-31.74,18.84,-5.64
19.504,-9.0575,2.2065,1.5855,-0.94348,-0.42241,-31.74,17.46,-7.2
19.532,-11.114,2.6015,1.693,-1.1173,-0.93829,-31.56,15.96,-9.0
19.532,-10.774,1.7434,1.8042,-1.4789,-1.2565,-31.26,14.52,-10.98
16.753,-9.6568,0.6674,1.9383,-1.824,-1.5605,-30.96,13.32,-12.66
11.605,-7.8317,0.16344,1.9212,-1.5916,-1.5333,-30.72,12.42,-14.28
6.2109,-6.6195,0.64016,1.8069,-1.3231,-1.3619,-30.54,11.88,-15.36
4.1951,-6.17,0.8036,1.6493,-1.0345,-1.0773,-30.6,11.76,-15.72
0.53119,-5.2166,0.96704,1.4655,-0.66859,-0.69211,-30.48,11.4,-15.78
-0.40861,-4.985,1.0215,1.2318,-0.29688,-0.26053,-30.48,11.16,-15.6
-2.9011,-4.2632,0.85808,0.98869,-0.05681,0.17532,-30.36,10.74,-14.82
-4.0725,-4.413,0.49033,0.66065,0.036346,0.64507,-30.54,10.44,-13.8
-4.2632,-4.4675,0.49033,0.3711,0.29108,0.8491,-30.66,10.26,-13.2
-4.2495,-4.3994,0.46309,0.08827,0.48197,1.0748,-30.9,9.84,-12.0
-3.3642,-4.6445,0.14982,-0.16738,0.57391,1.3323,-31.08,9.6,-11.58
-2.7513,-4.6582,-0.61292,-0.40897,0.61056,1.6109,-31.62,9.06,-10.68
0.69464,-5.7614,-1.7298,-0.68203,0.76114,1.967,-32.04,8.76,-9.84
9.4253,-11.55,0.95342,-1.4407,1.2764,2.7642,-32.58,8.76,-8.7
17.924,-17.352,3.5277,-2.2165,1.4215,3.3472,-32.7,9.12,-8.16
19.436,-18.483,1.3757,-2.5867,1.9239,3.0073,-33.0,9.84,-6.9
19.532,-11.795,-3.1599,-2.0519,1.9007,1.3604,-33.0,10.98,-5.94
19.532,-8.9486,-4.7399,-1.5531,1.0702,0.52534,-33.0,12.54,-5.34
18.279,-7.7908,-4.8216,-1.3033,0.36896,-0.019548,-32.82,13.32,-4.86
12.803,-3.6775,-3.4868,-1.2862,-0.010385,-0.35186,-32.52,15.18,-4.14
9.7794,-0.83084,-2.1248,-1.6377,-0.036957,-0.41783,-32.28,17.22,-3.36
7.4776,0.8717,-1.8524,-1.7071,0.17746,-0.3598,-32.1,18.18,-3.12
5.0531,2.8603,-2.0567,-1.6506,0.43494,-0.25443,-31.44,20.28,-2.64
3.6094,4.7126,-2.8058,-1.5305,0.68967,-0.25168,-30.6,21.78,-2.64
2.3836,5.0395,-2.7649,-1.343,0.80451,-0.31918,-30.0,23.1,-2.94
1.9886,4.9033,-2.8467,-1.065,0.68906,-0.3427,-29.88,23.58,-3.12
2.6423,3.7047,-2.3427,-0.58002,0.45235,-0.53817,-29.58,24.24,-3.06
3.5822,3.1191,-1.7434,-0.23579,0.2361,-0.72785,-29.52,24.66,-3.18
5.4481,2.9011,-0.7355,0.10507,0.1124,-0.96425,-29.7,24.54,-3.36
6.4288,2.9556,-0.28603,0.48869,-0.15974,-1.2049,-29.76,23.82,-3.96
10.978,2.9011,-0.1362,0.87445,-0.4273,-1.2123,-29.88,23.22,-4.26
18.796,0.24517,1.3212,1.1585,-0.71349,-0.89247,-30.18,21.9,-5.04
19.491,-4.8352,3.3097,1.4197,-0.7703,-0.58338,-30.78,20.7,-6.06
19.532,-10.12,4.2495,1.6564,0.0956,-0.98685,-31.26,19.38,-7.02
19.532,-10.842,3.4868,2.1341,0.48197,-1.1643,-31.32,18.84,-7.68
19.137,-9.6432,2.0431,2.6545,-0.025045,-1.2993,-31.56,17.64,-9.24
13.13,-9.6023,2.0839,2.9389,-0.92699,-1.336,-31.8,16.26,-10.68
9.0439,-9.4253,2.4244,3.0433,-1.759,-1.0657,-31.62,15.12,-11.94
6.6195,-8.8668,2.4108,2.9209,-1.9719,-0.84635,-31.74,14.64,-12.24
4.0589,-7.9407,2.261,2.6484,-1.9392,-0.61239,-31.56,13.98,-12.96
0.99429,-8.0769,1.9341,2.2666,-1.7397,-0.37141,-31.74,13.26,-13.14
-2.0294,-7.7364,1.6344,1.8002,-1.4581,-0.10721,-31.86,12.6,-13.08
-2.942,-7.3141,1.5527,1.2764,-0.97494,0.090103,-31.8,12.24,-13.02
-4.7671,-6.0202,1.1169,0.73915,-0.40256,0.23946,-31.86,11.52,-12.36
-5.0259,-5.6116,0.74912,-0.019853,0.3427,0.54947,-31.92,10.74,-11.58
-4.6582,-5.598,0.40861,-0.48625,0.65118,0.87751,-31.8,10.44,-11.1
-3.3778,-5.6797,-1.1169,-0.92577,0.89797,1.1994,-31.8,10.02,-10.32
-1.5391,-5.884,-2.3836,-1.3894,1.244,1.6585,-31.98,9.84,-9.96
3.909,-10.706,-0.36775,-1.9725,1.9328,2.3961,-32.04,9.48,-9.36
14.179,-15.255,4.699,-2.7101,2.7629,3.2522,-32.16,9.48,-8.82
19.368,-15.282,3.0918,-3.671,4.8341,3.0488,-31.86,9.66,-8.46
19.491,-12.49,1.5663,-2.9923,5.1087,1.2306,-31.68,9.9,-8.4
19.532,-7.6002,-0.38137,-2.2245,3.4841,0.33964,-31.68,10.32,-8.76
17.489,-4.127,0.44947,-1.7028,1.664,-0.18845,-31.86,11.4,-8.64
14.737,-2.2474,0.8717,-1.4936,0.42852,-0.48014,-31.92,12.12,-8.34
10.351,1.8524,1.1169,-1.4734,0.052534,-0.57696,-31.98,13.68,-8.16
7.9543,3.6775,0.6674,-1.3683,-0.040928,-0.59315,-31.92,15.6,-7.68
6.5105,4.2087,0.12258,-1.2336,-0.012523,-0.5849,-31.8,16.62,-7.44
5.1894,4.6445,-0.78998,-1.0336,0.10018,-0.65882,-31.62,18.66,-6.96
3.7184,5.0123,-1.7298,-0.75136,0.12981,-0.71716,-31.62,20.34,-6.3
3.1872,4.4947,-1.8251,-0.39615,-0.011606,-0.72662,-31.68,21.84,-5.64
3.0646,4.0589,-1.5391,-0.028711,-0.18204,-0.73182,-31.8,22.38,-5.04
3.9908,3.2553,-0.77636,0.33567,-0.36377,-0.85674,-31.98,23.1,-3.96
5.1213,2.4789,-0.32689,0.88392,-0.44715,-1.0125,-32.28,22.92,-3.42
9.3163,2.5334,0.095342,1.2602,-0.46517,-1.0974,-32.94,21.96,-3.24
12.871,2.2201,0.28603,1.5797,-0.57238,-0.88117,-33.12,21.06,-3.36
18.891,-1.0079,1.6072,1.7092,-1.0272,-0.38057,-33.54,18.96,-4.2
19.504,-8.2403,4.3858,1.7086,-1.5327,-0.24282,-33.96,16.92,-5.7
19.532,-11.713,5.0259,1.7052,-1.2639,-0.85582,-34.08,15.0,-7.32
19.532,-11.618,3.6639,1.9129,-1.4035,-1.2804,-33.84,13.26,-9.06
17.543,-10.937,2.4653,2.1918,-1.7663,-1.5296,-33.6,12.54,-9.9
11.509,-9.6704,1.8387,2.3314,-1.8335,-1.4902,-33.12,11.34,-11.34
6.1836,-8.7306,2.0975,2.3243,-1.6176,-1.2627,-32.34,10.08,-12.66
4.4947,-8.3357,2.1793,2.1954,-1.2886,-0.92241,-31.92,9.9,-12.96
0.70826,-7.6683,1.5391,2.0394,-0.96792,-0.52046,-31.02,9.3,-13.26
-1.2939,-7.7091,0.99429,1.6399,-0.56291,0.14233,-30.42,8.94,-12.9
-2.7377,-7.1915,0.7355,1.2605,-0.38485,0.55467,-30.06,8.64,-12.6
-4.6037,-6.1428,0.095342,0.86437,-0.17868,0.78771,-29.22,8.22,-11.46
-5.2438,-5.38,-0.53119,0.41478,0.24129,0.95814,-28.62,7.38,-10.26
-5.0395,-5.4209,-0.61292,-0.097433,0.91019,1.2135,-28.32,6.84,-9.72
-2.7104,-5.6116,-0.72188,-0.64263,1.5241,1.4181,-27.84,5.88,-8.58
-0.12258,-5.0531,-2.6015,-1.4401,2.0824,1.6805,-27.72,4.68,-7.5
2.5061,-5.4481,-1.8387,-2.0085,2.1909,1.9703,-27.6,4.38,-7.02
13.579,-11.836,2.9829,-2.6588,1.9264,2.3234,-27.72,3.72,-6.36
19.355,-14.301,4.6445,-3.1343,1.8955,2.5748,-28.2,3.54,-5.52
19.491,-12.572,3.4051,-2.9783,2.8381,1.6927,-28.44,3.54,-5.4
19.532,-6.8919,-0.24517,-2.0678,2.1738,0.39187,-28.56,4.02,-4.92
19.028,-6.3198,-0.57205,-1.2452,-0.36805,-0.45204,-28.8,4.92,-4.62
15.541,-4.9987,0.17706,-1.1518,-0.66157,-0.74923,-29.22,6.24,-4.38
13.28,-2.7241,0.88532,-1.3769,-0.17898,-0.85032,-29.16,6.96,-4.38
10.91,0.095342,1.1713,-1.6157,0.13164,-0.81703,-29.22,8.7,-4.38
7.8045,1.9477,0.32689,-1.6677,0.20006,-0.79657,-29.16,10.26,-4.5
6.7421,2.4244,-0.081722,-1.6127,0.17562,-0.7309,-28.92,11.1,-4.74
4.2904,3.8273,-0.99429,-1.3647,0.1014,-0.71746,-28.02,12.42,-5.16
3.2825,4.5083,-1.1577,-1.0641,0.18143,-0.72876,-27.72,13.08,-5.22
1.1713,4.8625,-1.4301,-0.6576,0.45968,-0.7086,-27.06,14.04,-5.16
1.8387,4.2904,-1.5119,-0.1909,0.81153,-0.70647,-26.64,14.4,-5.04
3.8001,3.5277,-1.4165,0.36499,0.7871,-0.8094,-26.46,14.28,-5.22
4.5083,3.3097,-1.185,0.93798,0.42883,-1.014,-26.22,13.86,-5.46
5.775,3.5004,-0.35413,1.5174,-0.0058032,-1.2147,-26.22,13.38,-5.7
10.052,5.4481,0.68102,2.3265,-0.60262,-1.3048,-26.22,11.94,-6.6
17.666,5.2166,1.5527,2.6038,-0.94409,-1.0644,-25.86,11.04,-7.26
19.477,-1.6344,2.4789,2.6408,-1.6209,-0.71868,-24.9,8.88,-9.54
19.532,-8.7851,3.3778,2.5171,-1.9462,-0.95631,-24.72,8.16,-10.86
19.532,-12.926,3.514,2.437,-2.1457,-1.332,-24.3,7.32,-12.24
18.197,-11.891,2.4925,2.2975,-1.9832,-1.8524,-23.34,5.94,-14.58
12.762,-9.9973,1.6208,2.1686,-1.5009,-2.1341,-22.98,5.16,-15.3
8.4446,-8.1722,1.0624,2.2211,-0.96486,-1.7901,-22.8,4.44,-16.08
5.1757,-7.0962,1.1169,2.1713,-0.77824,-1.3008,-22.38,2.94,-17.58
3.1599,-7.3141,1.5391,2.0821,-0.52107,-0.54336,-22.08,2.1,-17.88
0.21793,-6.9328,2.2201,1.9487,-0.47983,-0.2642,-21.66,0.96,-18.36
-1.7025,-6.7012,1.9068,1.6121,-0.34178,0.58124,-21.42,0.66,-18.42
-2.833,-6.4969,1.471,1.4759,-0.32895,0.82711,-21.3,0.36,-18.42
-3.0646,-6.3335,0.92618,0.97861,-0.08491,1.1634,-21.36,0.18,-18.06
-3.1872,-5.5435,0.61292,0.60598,0.15882,1.2715,-21.66,0.24,-16.5
-2.5334,-5.8295,0.19068,0.25748,0.36713,1.4966,-21.66,-0.24,-15.66
0.21793,-6.4969,-2.6287,-0.36194,0.74098,1.6631,-21.96,-0.96,-14.1
2.6696,-7.6138,-1.5119,-0.96272,1.2547,1.9429,-22.08,-1.38,-13.62
5.2438,-9.7249,0.36775,-1.7052,1.5983,2.4603,-22.2,-1.74,-13.5
14.737,-12.953,4.7399,-2.5259,1.8925,3.1875,-22.14,-2.04,-13.38
19.382,-13.743,2.656,-3.0195,3.1939,2.915,-21.72,-2.4,-13.44
19.532,-10.692,-0.35413,-2.6243,3.0971,1.7474,-21.66,-2.52,-13.92
19.532,-7.1779,-2.1384,-2.1319,1.679,1.1041,-21.48,-2.64,-14.76
15.704,-4.8625,-1.8932,-1.8964,0.73731,0.35552,-21.42,-2.46,-15.0
12.612,-2.656,-1.4982,-1.8463,0.43371,0.20495,-21.36,-2.16,-15.06
11.032,-1.185,-1.3757,-1.8558,0.047037,0.22449,-21.42,-1.68,-15.06
7.4776,0.81722,-0.92618,-1.8439,-0.23121,0.4047,-21.42,-0.24,-14.64
6.9464,1.1986,-0.85808,-1.8137,-0.17318,0.58796,-21.42,0.84,-14.34
6.2517,2.0022,-1.6344,-1.5519,0.17837,0.54672,-21.06,3.12,-13.86
4.4402,4.1814,-2.1929,-1.1952,0.24374,0.39065,-21.06,4.44,-13.62
3.4868,4.7807,-2.6015,-0.71777,0.26237,0.087354,-20.88,5.76,-13.26
2.6968,5.4073,-2.9011,-0.20403,0.29413,-0.26542,-20.64,7.02,-12.9
4.0589,6.0611,-2.4244,0.26084,0.30207,-0.60964,-20.7,9.48,-12.0
5.4073,5.8023,-2.0431,0.6802,0.25779,-0.91477,-20.7,10.62,-11.4
7.1915,5.9521,-1.185,1.2144,-0.018326,-1.1545,-20.82,11.7,-10.74
17.366,4.1678,-0.51757,1.4423,-0.15944,-1.0156,-20.64,13.2,-10.14
19.259,-0.47671,0.92618,1.4371,-0.10721,-0.91935,-20.58,13.62,-10.26
19.504,-7.2869,3.6366,1.1613,1.1628,-1.555,-20.46,13.86,-10.86
19.532,-12.299,5.8704,1.208,1.4502,-2.0831,-20.46,13.92,-11.64
19.532,-10.896,4.4675,1.4725,0.5733,-2.1548,-19.92,13.44,-13.74
19.314,-11.536,4.2087,1.9355,-1.3057,-2.4141,-19.74,13.14,-14.76
10.637,-9.4117,4.4266,2.0418,-1.5339,-2.3692,-19.74,12.6,-15.48
6.851,-7.8998,3.8818,2.2672,-1.9462,-2.1631,-19.98,11.4,-17.1
3.623,-7.1507,3.0918,2.4386,-2.2932,-1.7874,-20.34,10.8,-17.64
1.6617,-6.9328,2.6968,2.3863,-1.9297,-1.1313,-20.64,10.08,-18.24
-2.1929,-6.5105,2.0975,2.1802,-1.255,-0.64752,-21.36,8.7,-18.96
-3.2961,-6.0883,1.8524,1.6942,-0.59834,0.16096,-21.54,8.1,-19.26
-4.6445,-5.7478,1.6344,1.5131,-0.52809,0.36805,-22.56,7.02,-19.44
-4.8761,-5.8976,1.5527,0.93401,-0.10996,0.69578,-22.98,6.66,-19.2
-5.0123,-5.9112,1.2395,0.70219,0.10812,0.80207,-23.22,6.3,-18.66
-4.5901,-6.0611,0.84446,0.059559,0.62919,1.1991,-23.58,5.94,-18.06
-2.656,-6.6331,-1.1305,-0.39034,0.90683,1.4728,-24.9,5.28,-16.74
0.8036,-7.3686,-1.2122,-0.97402,1.5773,2.1744,-25.44,4.92,-16.2
10.76,-12.599,3.9908,-2.1331,1.8302,2.733,-26.34,4.14,-15.24
18.129,-15.963,5.8431,-3.0329,2.2807,3.3002,-26.34,3.96,-15.06
19.355,-16.44,4.7807,-3.3103,3.7403,2.4633,-26.46,3.72,-14.94
19.504,-13.416,2.1248,-2.7376,3.1243,1.2666,-26.46,3.6,-14.94
19.532,-7.8181,-1.6753,-2.3231,1.6784,0.70891,-26.58,3.54,-15.0
17.366,-5.4618,-1.5119,-2.1148,0.7535,0.18601,-26.82,3.96,-14.76
12.19,0.7355,-0.081722,-2.0889,0.46395,0.007025,-26.82,5.7,-14.34
10.978,2.8603,0.1362,-2.1912,0.11606,-0.03146,-26.82,6.78,-14.28
9.4798,4.1542,0.027241,-2.058,-0.37904,-0.045815,-26.82,7.92,-14.1
7.5729,4.8488,-0.57205,-1.8127,-0.80756,-0.055894,-26.7,9.24,-13.98
2.6151,5.9521,-1.6753,-1.5479,-0.96028,-0.064752,-26.46,11.82,-13.2
1.58,6.0066,-1.9205,-1.2608,-0.90194,-0.053145,-26.58,13.2,-12.78
0.95342,5.6524,-1.8115,-0.79077,-0.34575,-0.0281,-26.7,14.4,-12.3
2.4653,4.5356,-1.3484,-0.44776,0.12339,-0.14172,-26.88,16.98,-11.16
3.623,4.1814,-0.99429,-0.094684,0.32773,-0.32132,-27.06,18.18,-10.56
4.1542,4.0316,-0.68102,0.32773,0.26328,-0.53084,-27.24,19.38,-9.84
8.5536,3.1463,0.12258,0.76877,0.16035,-0.76786,-27.3,21.54,-8.76
12.803,3.0646,0.21793,1.2862,0.079718,-0.99785,-27.36,22.08,-8.58
19.355,-0.89894,1.1305,1.7562,-0.20403,-0.9728,-27.3,21.84,-8.7
19.504,-5.993,2.8058,2.0388,-1.1866,-0.87079,-27.48,21.42,-9.0
19.532,-10.937,3.8682,2.2199,-1.8518,-1.31,-27.78,20.94,-9.54
19.532,-13.021,3.8682,2.4148,-2.087,-1.9477,-28.08,20.28,-10.08
19.314,-11.972,2.8058,2.4609,-2.273,-2.1609,-28.8,18.96,-11.16
13.729,-10.896,2.2201,2.4609,-2.1423,-2.0818,-29.1,18.18,-11.7
7.3686,-8.826,1.7434,2.4117,-1.562,-1.7895,-29.58,17.46,-12.06
4.413,-7.4367,1.7434,2.2092,-0.48503,-1.1292,-30.66,15.84,-12.9
2.7377,-7.0553,1.9341,1.9984,0.10934,-0.70463,-31.08,14.88,-13.26
1.7162,-7.1234,1.7979,1.7507,0.56169,-0.27214,-31.56,13.98,-13.62
-0.76274,-6.8919,1.3076,1.4933,0.62369,0.21411,-32.1,13.2,-13.92
-2.8467,-5.8159,0.19068,1.2086,0.37629,0.58521,-32.76,11.52,-14.1
-3.0237,-5.775,0.10896,0.62308,0.21777,0.89553,-33.18,10.98,-14.4
-2.9011,-6.1292,0.25879,0.22724,0.17532,1.1054,-33.66,10.14,-13.68
-2.4653,-6.0883,0.027241,-0.15547,0.26664,1.3109,-33.72,9.6,-13.08
-1.7025,-6.17,-0.34051,-0.5058,0.44013,1.5284,-33.9,9.12,-12.42
1.1169,-5.8295,-1.7843,-0.93065,0.79535,1.6371,-34.38,8.1,-11.22
7.4367,-7.2733,-1.0896,-1.4203,1.2645,1.7245,-34.74,7.56,-10.62
14.805,-10.542,0.8036,-2.0565,1.5397,1.9361,-34.92,7.2,-10.02
19.463,-10.733,1.7706,-2.6194,1.5336,2.1166,-35.52,6.48,-8.76
19.532,-9.1393,-0.61292,-2.299,1.8702,1.1225,-35.7,6.24,-8.22
19.532,-8.0224,-2.152,-1.6805,1.4007,0.55833,-36.0,6.18,-7.74
18.496,-6.1973,-4.127,-1.2782,0.61178,-0.067501,-36.54,6.12,-7.32
15.323,-5.1485,-3.3506,-1.1475,0.18479,-0.43616,-37.62,6.78,-6.24
13.893,-3.9227,-2.5061,-1.4264,0.13958,-0.60231,-38.1,7.44,-5.34
9.1801,-0.54481,-1.1032,-1.6875,0.30421,-0.57666,-39.12,8.88,-4.08
6.5105,1.2531,-1.0624,-1.7727,0.56902,-0.49114,-39.78,9.66,-3.48
4.3721,2.6696,-1.2939,-1.7196,0.7984,-0.34239,-40.26,10.44,-2.94
2.4244,4.413,-1.9886,-1.5311,0.89034,-0.21655,-41.04,12.42,-1.98
1.8932,4.9714,-2.3155,-1.2431,0.86437,-0.17959,-41.34,13.44,-1.56
2.3155,4.6037,-2.2746,-0.93096,0.78374,-0.23671,-41.46,14.4,-1.32
3.9771,3.4187,-1.7979,-0.40714,0.61117,-0.49266,-41.76,16.2,-0.96
4.5356,3.228,-1.3893,-0.21625,0.49083,-0.59987,-42.0,16.92,-0.84
4.9987,3.2689,-1.0079,0.41905,-0.0024435,-0.84788,-42.0,17.34,-0.84
9.5615,3.2825,0.027241,0.84452,-0.35858,-0.92057,-41.64,17.58,-1.26
14.71,2.4108,0.25879,1.1894,-0.66035,-0.70769,-41.4,17.1,-1.8
18.823,-0.8036,1.0896,1.3097,-1.2233,-0.23182,-41.22,16.62,-2.64
19.518,-10.188,4.9442,1.3131,-1.2346,-0.4777,-40.92,15.6,-4.74
19.532,-11.155,5.4481,1.3454,-0.98746,-0.64294,-40.56,15.18,-5.7
19.532,-10.338,4.6037,1.6072,-0.74128,-0.91691,-40.14,14.64,-6.78
14.506,-9.6023,2.0975,2.3647,-0.79687,-1.1564,-39.42,13.2,-8.76
10.651,-8.2812,1.0215,2.6328,-0.75411,-0.96853,-39.0,12.36,-9.66
8.3493,-7.5184,1.4982,2.6386,-0.87262,-0.61606,-38.1,10.92,-11.46
4.1406,-6.674,1.5391,2.4416,-0.8265,-0.30849,-37.68,10.26,-12.12
2.261,-6.2517,1.2531,2.2941,-0.72754,-0.13958,-37.02,9.54,-12.78
0.95342,-5.9657,0.72188,1.7917,-0.46487,0.34056,-36.66,9.12,-13.26
-2.4653,-5.094,-0.55843,1.4337,-0.40592,0.60781,-35.52,8.46,-13.74
-3.4187,-5.1894,-0.65378,0.99785,-0.1967,0.78282,-35.04,8.46,-13.8
-4.018,-5.5435,-0.6674,0.4945,0.13439,0.93065,-34.56,8.16,-13.56
-3.8273,-5.8567,-0.76274,-0.25595,0.83261,1.2593,-33.42,7.26,-12.78
-3.1327,-5.4209,-0.85808,-0.49938,1.0693,1.383,-33.06,6.72,-12.48
-1.866,-5.6388,-1.4438,-0.905,1.4419,1.5889,-32.88,6.3,-11.94
0.14982,-6.1292,-1.6208,-1.6112,1.981,1.9294,-32.82,6.0,-11.46
11.06,-11.754,2.2201,-2.226,2.1667,2.1185,-32.76,5.64,-10.8
18.156,-14.152,4.1814,-2.7739,1.7159,2.5052,-32.76,5.7,-10.44
19.504,-12.803,2.8467,-2.6264,1.9746,1.6362,-32.7,5.64,-9.9
19.532,-10.542,0.43585,-2.1958,1.6441,0.96028,-32.7,6.0,-9.96
19.532,-9.902,-1.0488,-1.1145,0.088881,-0.16035,-32.64,6.3,-9.9
15.35,-7.7772,-1.7434,-0.82131,-0.49052,-0.68814,-32.7,7.44,-9.72
13.007,-5.7614,-1.1577,-0.8094,-0.50916,-0.90347,-32.88,7.98,-9.54
10.569,-3.3642,-0.35413,-1.0519,-0.29902,-0.9279,-33.0,8.88,-9.42
6.3607,1.3348,-0.12258,-1.31,-0.047953,-0.73915,-33.36,10.8,-8.88
5.4754,2.3427,-0.39499,-1.4337,0.33842,-0.66462,-33.48,11.94,-8.64
4.2904,3.3506,-1.0624,-1.3793,0.55375,-0.66584,-33.42,13.02,-8.46
2.3155,4.1133,-1.7298,-1.2248,0.6689,-0.70127,-33.18,15.06,-7.92
1.7298,4.2359,-1.8251,-0.97494,0.71563,-0.77366,-32.94,16.02,-7.62
1.7298,4.2359,-1.8251,-0.65027,0.77427,-0.86407,-32.94,16.02,-7.62
3.3915,3.6366,-1.5391,-0.093157,0.86834,-1.1219,-32.88,16.62,-7.32
3.3915,3.6366,-1.5391,0.36224,0.81978,-1.358,-32.88,16.62,-7.32
4.9306,2.9284,-1.1032,0.85063,0.55253,-1.5055,-32.64,17.16,-7.14
7.3414,3.5685,-0.54481,1.2474,0.068417,-1.4774,-32.52,17.22,-7.08
17.094,2.152,-0.027241,1.47,-0.69425,-1.1151,-32.22,16.74,-7.32
19.232,-1.5527,1.2531,1.4841,-1.7086,-0.4609,-31.92,16.26,-7.86
19.532,-10.433,3.6366,1.3063,-1.8085,-0.49175,-31.32,15.36,-9.36
19.532,-11.931,3.9635,1.2,-1.3757,-0.76602,-30.84,14.4,-10.98
18.905,-9.7385,2.8058,1.335,-1.0299,-0.98013,-29.88,13.08,-12.84
13.702,-8.7443,1.4846,1.5898,-0.73273,-0.94623,-29.04,11.58,-14.52
9.7522,-7.1915,0.29965,1.8118,-0.35888,-0.6857,-28.14,10.44,-16.02
7.8317,-6.3062,0.17706,1.8857,-0.15272,-0.36163,-27.12,9.6,-17.7
5.5162,-5.993,0.8036,1.7871,-0.15821,-0.065057,-26.28,9.84,-18.42
2.0022,-6.7693,1.0896,1.4584,-0.46304,0.40653,-25.74,10.32,-18.12
0.21793,-6.6059,0.8036,1.3525,-0.51954,0.5565,-25.5,10.5,-17.64
-3.0237,-5.4481,-0.55843,1.0296,-0.57177,0.81245,-24.9,10.62,-16.98
-3.4732,-5.4209,-0.72188,0.73151,-0.42455,0.93065,-24.48,10.74,-16.56
-3.732,-6.0474,-0.62654,0.31796,0.020769,0.95356,-24.36,10.86,-15.78
-3.2144,-5.2166,-0.47671,-0.12462,0.42791,0.96761,-24.12,10.92,-15.3
-1.3757,-4.699,-0.77636,-0.59987,0.7532,1.062,-24.0,10.62,-14.82
1.2531,-5.0395,-0.70826,-1.0944,1.0241,1.1167,-24.0,10.5,-14.58
9.7249,-9.7385,1.7434,-1.9957,1.5082,1.2724,-24.24,10.38,-14.1
14.397,-11.291,3.3915,-2.5336,1.5363,1.5418,-24.3,10.5,-13.92
19.355,-10.515,2.8194,-2.6524,1.814,1.4383,-24.6,10.92,-13.5
19.532,-8.1858,-0.53119,-2.2028,1.6322,0.56505,-24.9,11.1,-13.2
19.532,-7.6955,-1.7025,-1.6527,0.44807,0.064446,-25.02,11.46,-13.02
19.191,-7.1098,-1.8932,-1.3182,-0.6408,-0.31276,-25.08,11.82,-12.84
14.792,-3.2144,-1.58,-1.2944,-0.87659,-0.58154,-25.5,12.78,-12.18
10.896,0.24517,-1.866,-1.4288,-0.32284,-0.57757,-26.04,14.04,-11.46
8.5808,2.0839,-2.2201,-1.5128,0.4945,-0.58246,-26.4,14.7,-11.04
6.2245,3.3778,-2.5198,-1.547,1.1671,-0.5849,-26.88,16.02,-10.26
4.3177,4.6173,-2.7649,-1.4841,1.4844,-0.56627,-27.18,17.46,-9.18
3.8001,4.9306,-2.6696,-1.3268,1.4453,-0.55405,-27.48,18.0,-8.76
2.9692,5.0531,-2.547,-1.1295,1.0104,-0.56994,-27.9,19.08,-8.22
3.1599,3.8818,-2.8603,-0.74159,0.71349,-0.64568,-28.5,19.98,-7.62
3.1463,3.5685,-2.6968,-0.43371,0.37202,-0.75992,-28.8,20.34,-7.32
3.5413,3.2144,-2.1929,-0.069944,0.10568,-0.90958,-29.4,20.04,-7.74
6.4969,3.0918,-1.3484,0.35125,0.010079,-1.1307,-29.52,19.02,-8.88
12.163,2.9965,-1.471,0.79443,0.015272,-1.2156,-29.04,17.34,-11.04
15.554,2.3836,-1.362,1.3699,-0.40989,-0.8604,-28.86,16.44,-12.12
19.395,-1.8932,0.89894,1.5889,-0.93279,-0.63774,-28.74,14.82,-14.7
19.504,-4.0725,1.9613,1.6747,-0.77733,-0.91172,-28.56,13.86,-15.84
19.532,-7.1915,3.6094,1.8286,-0.9053,-1.0821,-28.26,12.3,-17.58
19.532,-8.1586,3.4596,1.9737,-1.4022,-1.2013,-27.84,10.98,-18.66
15.868,-7.3141,3.0237,2.0739,-1.3381,-1.168,-27.48,9.66,-19.32
11.713,-6.2517,2.9692,2.1044,-1.0498,-1.015,-27.36,9.36,-19.38
6.1155,-5.8023,2.5742,2.0653,-0.85949,-0.40164,-27.36,9.0,-18.84
4.127,-5.7069,2.2337,2.0504,-0.77305,-0.036652,-27.48,8.94,-18.24
0.89894,-5.9112,1.3757,1.9648,-0.63652,0.29749,-28.08,9.36,-16.26
-1.7979,-6.0747,1.0215,1.7791,-0.50213,0.63011,-28.38,9.6,-14.22
-3.6366,-5.2847,0.81722,1.5287,-0.40806,0.94928,-28.68,9.78,-12.18
-4.9578,-5.0804,0.40861,0.98044,-0.21472,1.3219,-28.8,9.72,-10.68
-5.1894,-5.4209,0.027241,0.47464,0.15974,1.569,-28.8,9.54,-10.2
-4.4402,-5.993,-0.027241,-0.057116,0.58338,1.7813,-28.8,9.36,-9.6
-1.2531,-6.7693,-0.69464,-0.57849,0.95631,1.9606,-28.5,9.36,-9.12
0.44947,-6.9328,-1.5527,-1.1228,1.1738,2.0962,-28.32,9.24,-8.88
9.8611,-8.5127,-0.14982,-1.7181,1.3018,2.1493,-27.84,9.06,-8.76
18.578,-13.416,2.9284,-2.7025,1.2859,2.3763,-27.48,9.36,-8.46
19.409,-12.572,3.3506,-3.1179,0.81612,2.6912,-27.48,9.66,-8.28
19.532,-10.515,-0.14982,-2.919,0.79138,1.511,-27.3,10.2,-7.62
19.532,-9.398,-2.9965,-2.241,0.38698,0.74403,-27.12,10.62,-7.26
15.554,-6.5378,-4.5628,-1.6884,0.27519,0.18845,-27.18,11.34,-6.78
11.931,-3.5958,-3.228,-1.4743,0.69608,-0.24129,-27.42,12.24,-6.18
9.6977,-0.54481,-1.4438,-1.4618,1.394,-0.43891,-27.48,13.62,-5.16
8.1041,1.58,-0.51757,-1.5299,1.4798,-0.45204,-27.6,14.16,-4.8
5.9112,3.8273,-0.14982,-1.4551,1.2614,-0.33323,-27.78,15.72,-3.84
5.1894,3.9908,-0.81722,-1.3091,1.0314,-0.24129,-27.78,16.5,-3.18
4.4947,3.909,-1.8115,-1.1151,0.82406,-0.29138,-27.96,17.4,-2.28
3.8137,3.8818,-2.5061,-0.85307,0.53054,-0.43005,-27.72,18.18,-1.5
3.051,4.2087,-2.3018,-0.3543,0.18418,-0.6692,-27.72,18.9,-1.08
3.1599,4.4402,-2.152,-0.16921,0.063835,-0.71288,-27.72,19.26,-0.66
4.2495,4.3313,-1.6072,0.37721,-0.12828,-0.96486,-27.66,19.56,-0.12
6.3879,4.5628,-0.34051,0.76083,0.092241,-1.1851,-27.84,19.26,0.06
8.5127,4.9987,-0.28603,1.1347,0.74923,-1.2929,-27.96,18.6,-0.3
17.162,4.4947,1.3212,1.449,1.6356,-1.1802,-27.54,17.34,-1.38
19.463,-2.7241,4.9714,1.4954,1.4126,-1.0333,-26.88,15.9,-3.72
19.518,-5.7342,5.2847,1.715,-0.36377,-1.9108,-26.46,15.3,-5.1
19.532,-8.1995,4.5356,2.156,-1.2926,-2.4392,-25.68,14.28,-7.98
19.532,-9.4389,4.2495,2.1579,-1.8867,-2.8072,-25.14,13.32,-10.32
17.911,-10.406,4.4811,2.1188,-1.8375,-2.8146,-24.9,12.78,-11.4
10.229,-9.0031,4.2087,2.1341,-1.4823,-2.4089,-24.72,11.58,-13.2
4.7944,-7.4231,3.1599,2.2,-1.1475,-1.8289,-24.84,10.44,-14.82
-0.027241,-6.9736,2.2746,2.3222,-1.0446,-0.87904,-24.72,9.78,-15.66
-2.5742,-7.0281,2.0022,2.2367,-0.97586,-0.22388,-24.9,9.48,-15.72
-5.1621,-6.5378,1.58,1.9829,-0.80481,0.41417,-25.68,9.3,-15.24
-5.9793,-5.598,1.2939,1.5977,-0.61545,1.0653,-26.76,8.7,-13.44
-5.3664,-5.2983,0.92618,1.1588,-0.37996,1.5922,-27.84,8.1,-11.7
-5.2166,-5.5707,0.85808,0.67623,0.11545,1.9529,-28.26,7.68,-10.8
-4.8352,-5.775,0.49033,0.16646,0.61056,2.2477,-29.04,7.2,-9.78
-2.2474,-6.0611,-0.77636,-0.59956,1.127,2.5388,-29.28,7.14,-9.3
-0.21793,-5.5435,-1.471,-1.0947,0.98991,2.7669,-29.16,7.08,-8.88
6.0611,-7.8181,-0.01362,-1.744,0.93798,3.1854,-29.1,7.14,-8.58
18.428,-16.072,3.2825,-2.5788,1.4563,3.4865,-28.98,7.56,-8.4
19.463,-14.928,2.9692,-3.0152,2.9856,3.2816,-28.86,8.04,-7.92
19.532,-10.978,1.5391,-2.697,4.0195,2.1499,-28.68,8.34,-7.8
19.532,-8.5944,-0.24517,-1.9319,2.1854,0.64996,-28.62,8.88,-7.68
19.532,-7.9543,-0.38137,-1.6399,0.44349,-0.025045,-28.74,9.12,-7.5
17.734,-5.6116,-0.38137,-1.5751,-0.35216,-0.37446,-28.74,10.38,-7.26
12.463,-1.58,-0.49033,-1.6463,-0.50091,-0.4893,-28.92,12.0,-6.78
10.842,-0.12258,-0.61292,-1.7959,-0.31215,-0.4722,-28.86,12.78,-6.48
8.0632,2.1929,-0.61292,-1.9203,-0.10476,-0.46395,-28.92,15.06,-5.58
6.5105,3.0101,-0.9398,-1.8531,0.027489,-0.59132,-28.92,17.1,-4.62
4.8625,4.3449,-1.4165,-1.6005,0.032376,-0.80909,-28.68,19.02,-3.84
3.4868,5.3664,-1.6481,-1.2715,-0.076053,-1.0577,-28.68,19.98,-3.48
1.0351,6.4833,-0.98067,-0.94195,0.037263,-1.1496,-28.62,21.9,-2.7
0.85808,6.6467,-0.77636,-0.55528,0.30299,-1.1423,-28.38,23.22,-1.92
1.7298,6.3062,-0.54481,-0.16585,0.58368,-1.179,-28.5,23.58,-1.44
4.1678,5.3528,-0.01362,0.51832,0.66462,-1.3457,-28.74,23.76,-0.96
5.5707,5.3256,0.21793,1.0137,0.45998,-1.3909,-28.98,23.46,-0.9
13.348,5.2166,0.1362,1.4917,0.10415,-1.1054,-29.52,22.26,-1.26
19.314,-1.6481,2.9965,1.73,-0.6747,-0.45937,-29.64,20.64,-2.7
19.518,-11.237,6.3198,1.7205,-0.88698,-0.71288,-29.64,19.86,-3.72
19.532,-12.163,6.2926,2.1032,-1.2675,-1.4013,-29.7,19.2,-4.86
19.532,-9.8066,2.6968,2.587,-1.4505,-1.6405,-29.88,18.6,-6.0
16.358,-9.6704,1.6208,3.1121,-0.89034,-1.8219,-30.24,17.28,-7.98
12.544,-8.3493,1.0351,3.1783,-0.67562,-1.4044,-30.42,16.56,-8.82
4.808,-7.0417,1.4029,3.094,-0.72082,-0.94837,-30.78,15.36,-10.62
2.6423,-6.9328,1.4165,2.8549,-0.62827,-0.48136,-30.84,14.7,-11.46
0.01362,-6.8647,1.2258,2.47,-0.31429,-0.010079,-30.96,13.98,-12.12
-3.2825,-5.775,0.46309,1.9658,0.071166,0.50396,-31.02,12.96,-13.26
-4.1678,-4.9033,-0.25879,1.4539,0.32284,1.022,-31.02,12.54,-13.74
-4.2495,-4.3721,-0.76274,0.77244,0.30665,1.5204,-31.08,12.54,-14.16
-2.7377,-4.4402,-1.2531,0.32193,0.22724,1.7028,-31.32,12.36,-14.04
-1.9613,-4.9714,-0.85808,-0.13744,0.21686,1.8311,-31.62,12.18,-13.68
-0.40861,-5.3256,-0.8717,-0.57085,0.34483,1.8751,-31.98,11.52,-12.9
1.4165,-5.5571,-1.7979,-0.97402,0.53145,1.9032,-32.16,11.34,-12.48
3.4732,-5.7478,-1.8387,-1.5971,0.9896,1.8008,-32.16,11.16,-12.18
16.644,-11.632,2.547,-2.1909,0.93371,1.8387,-32.46,11.04,-11.64
19.177,-14.642,4.3721,-2.6756,0.77519,1.9875,-32.58,11.04,-11.16
19.491,-12.926,1.4438,-2.7706,1.4762,1.259,-32.7,11.46,-10.74
19.532,-8.3084,-0.7355,-1.8903,1.2749,-0.21166,-32.64,12.12,-10.5
19.532,-7.5048,-2.1793,-1.4939,0.48564,-0.6689,-32.52,12.54,-10.2
16.344,-5.7886,-2.7649,-1.4557,0.32498,-0.87262,-32.64,12.84,-9.84
11.278,-1.6889,-1.6208,-1.66,0.47342,-0.79871,-32.82,13.98,-9.0
8.3765,1.6072,-0.53119,-1.7767,0.55467,-0.71135,-33.12,14.52,-8.46
6.6059,3.4187,-0.65378,-1.6869,0.50305,-0.62736,-33.36,15.18,-8.1
3.6366,4.9169,-1.9477,-1.423,0.33506,-0.56627,-34.08,16.68,-7.26
2.0703,5.2847,-2.2201,-1.2007,0.14997,-0.5116,-34.2,17.4,-6.84
1.2939,5.4209,-2.3427,-1.0727,0.038485,-0.45082,-34.5,18.06,-6.54
0.7355,5.38,-1.6072,-0.61911,0.040623,-0.33353,-35.04,19.26,-5.94
1.362,4.9033,-0.92618,-0.29719,0.17807,-0.3204,-35.22,19.8,-5.7
2.2746,4.6037,-0.27241,0.05284,0.20342,-0.37782,-35.46,19.98,-5.52
4.7944,3.7047,0.40861,0.73457,-0.093768,-0.55803,-35.94,20.16,-5.28
6.4288,3.7728,0.96704,1.0159,-0.28039,-0.64232,-36.18,20.04,-5.34
9.8611,4.5764,1.5119,1.5666,-0.65699,-0.76572,-36.12,19.92,-5.64
16.304,4.2087,2.4789,2.0534,-1.1267,-0.39218,-36.12,19.5,-6.06
19.477,-5.1349,5.4754,2.073,-1.2245,-0.2474,-36.0,18.72,-7.32
19.532,-11.346,6.5378,2.2016,-1.1536,-0.78405,-36.06,18.3,-8.1
19.532,-10.406,3.3506,2.5687,-0.94043,-1.6136,-35.7,17.46,-9.3
18.319,-9.7249,1.7298,2.7703,-1.0421,-2.0149,-35.64,16.92,-10.14
15.159,-9.2074,1.0624,2.9184,-1.2251,-1.8931,-35.4,16.44,-10.68
7.1915,-7.4776,0.12258,2.8912,-1.3344,-1.4633,-34.86,15.0,-11.76
4.2768,-7.355,0.10896,2.7382,-1.288,-0.97952,-34.68,14.28,-12.3
2.3427,-7.641,0.19068,2.4978,-1.0922,-0.49541,-34.5,13.68,-12.84
-1.6753,-7.5865,-0.65378,1.9203,-0.4273,0.20739,-34.32,12.6,-13.02
-1.9886,-7.0281,-1.0624,1.4016,-0.039401,0.67867,-34.2,12.36,-13.14
-1.9886,-6.1973,-1.7025,1.1325,-0.0051924,0.85491,-34.2,12.06,-12.96
-1.7162,-6.4833,-1.2667,0.15882,0.12523,1.0492,-34.08,11.4,-12.42
-2.0567,-6.0883,-0.7355,-0.55619,0.42425,1.0354,-33.96,11.04,-12.0
-1.7298,-5.1485,-0.62654,-1.1637,0.78038,1.0721,-33.72,10.56,-11.4
1.3757,-5.4073,-2.0567,-1.6603,0.98105,1.2272,-33.72,9.66,-10.62
4.2223,-6.2654,-1.185,-2.4578,1.2709,1.6396,-33.78,9.36,-10.14
8.2812,-8.7987,1.0896,-2.9767,1.2743,2.2193,-34.02,9.06,-9.78
18.837,-10.134,2.4517,-3.2834,1.9236,2.6121,-34.14,9.3,-8.94
19.45,-9.4253,1.2803,-3.1127,2.9138,1.8586,-34.2,9.42,-8.7
19.518,-7.6683,-0.12258,-2.3668,1.7486,1.0293,-33.96,9.78,-8.46
18.129,-5.4073,-2.0703,-1.4111,-0.38393,0.23671,-33.78,10.68,-8.52
15.241,-3.732,-1.8796,-1.2514,-0.44288,-0.047037,-33.72,11.28,-8.28
12.953,-1.4438,-1.5527,-1.3195,-0.3711,-0.1405,-33.84,11.94,-8.04
9.5887,1.6753,-0.92618,-1.4462,-0.23121,-0.14508,-33.96,13.62,-7.38
6.4833,2.7649,-1.0215,-1.4954,0.021991,-0.12309,-34.08,14.58,-7.02
4.7807,4.1814,-1.2803,-1.4914,0.37141,-0.084605,-34.2,15.42,-6.6
2.5879,5.4754,-1.58,-1.405,0.64691,-0.051007,-34.14,17.28,-5.52
1.5663,5.7614,-1.7298,-1.0993,0.68875,-0.036957,-34.02,18.18,-5.22
1.2803,5.5435,-1.7025,-0.84147,0.8546,-0.11606,-33.84,19.02,-4.8
2.2882,4.7126,-1.4438,-0.54581,0.99785,-0.26786,-33.78,20.52,-4.2
2.6287,4.5764,-1.1986,-0.1576,0.92057,-0.42791,-33.72,21.12,-3.9
3.2825,4.3449,-0.85808,0.29138,0.80604,-0.58735,-33.9,21.24,-3.72
8.2539,4.8488,0.35413,0.80268,0.78069,-0.76297,-33.78,21.42,-3.36
12.054,5.0531,0.42223,1.5708,0.44196,-0.6576,-33.72,21.18,-3.78
18.279,3.3778,1.6617,1.8149,-0.50274,-0.34606,-33.36,20.88,-4.26
19.504,-7.3822,4.2768,2.0504,-1.379,-0.73304,-33.18,20.22,-6.0
19.532,-10.746,4.522,2.2965,-1.8274,-1.434,-33.06,19.86,-7.08
19.532,-12.245,3.1735,2.3863,-1.9923,-1.8747,-32.88,19.68,-8.16
16.753,-11.141,1.7706,2.427,-2.0039,-2.1374,-32.7,18.84,-10.14
12.095,-9.0031,1.362,2.3781,-1.4041,-1.7578,-32.76,18.3,-10.92
8.7715,-7.3958,1.1305,2.339,-1.0403,-1.2291,-32.94,17.58,-11.64
5.775,-6.4833,0.81722,2.3314,-0.93798,-0.97158,-33.12,16.74,-12.18
0.95342,-6.5786,1.076,2.2642,-0.6185,-0.24679,-33.36,15.36,-13.2
-0.39499,-6.5786,0.98067,2.1221,-0.32529,0.22174,-33.48,14.76,-13.5
-2.2474,-5.2847,0.38137,1.9126,-0.15149,0.64843,-34.02,13.8,-13.74
-2.8603,-4.9442,0.12258,1.4111,-0.18937,1.1539,-34.2,13.44,-13.44
-3.4732,-4.6718,-0.28603,0.92516,-0.037263,1.3476,-34.8,12.9,-12.48
-3.9908,-4.4947,-0.23155,0.3769,0.2926,1.5363,-34.98,12.42,-12.0
-3.6775,-4.5901,-0.28603,-0.15272,0.84147,1.7016,-35.16,11.94,-11.16
-3.0646,-4.9169,-0.77636,-0.70708,1.4572,1.854,-35.22,11.28,-10.38
2.261,-5.598,-1.6344,-1.3494,2.029,1.9752,-35.64,10.62,-9.36
5.8704,-7.2869,0.44947,-1.9395,2.6139,2.1521,-35.7,10.38,-9.06
18.864,-14.819,5.3528,-2.5513,2.6017,2.241,-35.7,10.38,-8.82
19.45,-13.62,3.9363,-3.0864,3.1386,2.2819,-35.88,10.62,-8.34
19.532,-8.7306,1.3757,-2.1625,3.0412,0.57513,-35.76,10.8,-8.46
19.532,-7.8998,0.84446,-1.6041,1.3344,-0.11301,-35.7,11.22,-8.58
18.156,-7.0145,0.8036,-1.4151,0.6805,-0.38546,-35.7,11.94,-9.12
14.71,-3.7865,0.70826,-1.4435,0.87751,-0.61392,-35.76,12.48,-9.24
10.433,-0.1362,-0.35413,-1.4563,0.85124,-0.67745,-36.12,13.62,-9.6
8.1586,1.7979,-0.99429,-1.4224,0.63133,-0.67562,-36.36,14.28,-9.48
6.9464,2.656,-1.185,-1.3784,0.32742,-0.6744,-36.54,15.0,-9.54
6.3743,2.9556,-1.1441,-1.3228,-0.20953,-0.71349,-36.72,15.84,-9.54
5.6661,2.9011,-1.2803,-1.2315,-0.6692,-0.75075,-37.02,17.04,-9.24
4.7944,2.7922,-1.2803,-1.1014,-1.0146,-0.89919,-37.2,17.58,-9.06
1.2395,3.2825,-1.4029,-0.90316,-1.0513,-0.94348,-37.56,18.36,-8.52
0.5993,3.7728,-1.2939,-0.45418,-0.37385,-1.0372,-37.74,18.66,-8.28
0.99429,3.9227,-1.0896,-0.10049,0.29444,-1.1991,-38.04,18.84,-7.86
4.1951,4.4266,-0.70826,0.36744,0.60048,-1.3448,-38.52,18.54,-7.32
7.355,5.7886,-0.50395,0.9783,0.74892,-1.3387,-38.7,18.24,-7.14
13.035,6.1973,1.1713,1.5256,0.54398,-0.86376,-38.52,16.86,-7.62
19.409,-2.3427,3.5958,1.8528,-0.92057,-0.17318,-38.58,16.14,-8.04
19.518,-9.0303,5.9793,1.9172,-1.1695,-0.5681,-38.52,15.24,-8.76
19.532,-11.605,6.456,2.3014,-2.1896,-1.2419,-38.28,14.58,-9.3
19.532,-9.6023,4.0316,2.4435,-2.3488,-1.6961,-38.22,13.02,-10.26
13.607,-8.3765,2.547,2.5488,-2.0769,-1.8176,-37.98,12.24,-10.62
9.6704,-7.3822,2.0158,2.4749,-1.4142,-1.383,-37.68,10.62,-11.16
3.2144,-7.3141,2.261,2.2016,-0.9389,-1.0592,-37.62,9.66,-11.46
0.14982,-7.4095,2.2882,2.0293,-0.68722,-0.89644,-37.5,8.94,-11.58
-1.362,-7.246,2.0567,1.6383,-0.12401,-0.53787,-37.44,8.16,-11.7
-2.8603,-6.5922,1.1169,1.0809,0.43035,0.16493,-37.56,7.38,-11.88
-3.8682,-5.5299,-0.17706,0.71227,0.44288,0.61239,-37.44,6.3,-11.52
-4.7126,-4.9987,-0.92618,0.36255,0.29352,0.96486,-37.5,5.94,-11.16
-4.5901,-5.3119,-0.96704,-0.21014,0.58765,1.5174,-37.68,5.46,-10.02
-3.5413,-5.8295,-1.1169,-0.58124,0.93157,1.8353,-37.74,5.22,-9.18
-2.2474,-6.0747,-1.6617,-0.97464,1.2547,2.0427,-37.92,4.92,-8.64
2.2882,-6.5786,-1.7706,-1.4786,1.5058,2.2009,-37.98,4.44,-7.98
11.005,-10.583,1.0624,-2.0959,1.6854,2.4141,-38.16,4.38,-7.98
18.17,-14.397,3.8682,-2.8512,1.4331,2.7608,-38.34,4.44,-7.92
19.504,-11.073,2.2882,-3.281,1.846,2.6356,-38.58,4.62,-7.86
19.532,-8.5808,0.068102,-2.9251,2.0653,1.6121,-38.46,4.86,-8.16
19.532,-7.7364,-1.1577,-2.3137,1.2288,0.98044,-38.34,5.22,-8.4
15.732,-4.6582,-2.3155,-1.6768,0.0027489,0.14233,-38.28,6.66,-8.4
13.457,-2.4108,-1.8524,-1.5079,-0.55711,0.040928,-38.16,7.38,-8.34
11.822,-0.24517,-1.1441,-1.5235,-1.0825,0.067501,-38.22,8.4,-8.16
7.8726,2.6423,-0.49033,-1.4981,-1.4215,0.22846,-38.22,10.38,-7.62
7.0281,2.8739,-0.51757,-1.4642,-1.0614,0.27917,-38.16,11.46,-7.32
5.6797,3.5004,-0.92618,-1.4349,-0.75411,0.26939,-38.1,12.54,-6.84
3.8273,4.3858,-1.5119,-1.1982,0.084605,0.12462,-38.16,14.46,-5.58
3.5413,4.6445,-1.6481,-0.94654,0.58215,-0.11912,-37.92,15.3,-4.8
3.909,4.4402,-1.3757,-0.64263,0.92149,-0.45723,-37.68,16.14,-4.2
5.3528,3.9771,-0.8036,-0.28466,0.93707,-0.80298,-37.44,17.64,-3.18
6.2109,3.8409,-0.49033,0.34422,0.72662,-1.3573,-37.5,18.12,-2.64
7.2869,4.0452,-0.44947,0.58154,0.6634,-1.5443,-37.62,18.42,-2.1
13.007,4.7535,0.34051,1.3192,0.60628,-1.9477,-37.44,18.18,-1.92
18.101,4.5628,1.1169,1.7755,0.83658,-1.9108,-37.38,17.7,-2.28
19.355,1.7025,3.1327,2.0278,1.1319,-1.6683,-37.08,17.1,-2.88
19.532,-8.7034,6.6604,2.4429,0.89034,-2.12,-36.48,15.48,-4.56
19.532,-10.011,6.4697,2.7794,-0.14203,-2.4538,-36.12,14.82,-5.58
19.532,-9.6841,5.3392,2.9181,-0.79535,-2.6008,-35.82,13.92,-6.6
17.352,-10.093,4.1951,3.0916,-1.8118,-2.5336,-35.64,13.02,-7.56
8.4174,-8.8124,2.4108,3.025,-1.7037,-2.1936,-35.4,10.92,-9.12
4.9987,-7.6546,1.757,2.8692,-1.39,-1.7752,-35.34,9.78,-9.78
1.8387,-7.0826,1.2939,2.5727,-0.48289,-0.96272,-35.1,7.38,-10.92
-2.8739,-7.355,0.29965,2.4618,-0.19395,-0.59712,-34.98,6.3,-11.28
-4.0589,-7.0962,-0.16344,1.978,0.23305,0.55894,-34.8,5.34,-11.64
-4.3177,-6.3743,-0.47671,1.5766,0.28558,1.2037,-34.68,4.44,-11.94
-3.8546,-6.3743,-0.9398,1.0684,0.64813,1.5669,-34.62,3.66,-12.06
-3.4596,-7.1098,-1.2395,0.45784,1.0977,1.8378,-34.44,2.76,-11.46
-3.3506,-7.1234,-1.1305,-0.51191,1.5498,2.2074,-34.5,2.46,-10.98
-2.0567,-7.5048,-1.2258,-1.1118,1.8683,2.3726,-34.26,2.16,-10.5
-0.38137,-7.8726,-1.2531,-1.4465,2.0296,2.4028,-34.14,1.62,-10.2
8.7987,-9.3436,2.5742,-2.5058,2.642,2.3778,-33.96,1.44,-9.72
16.113,-11.863,6.17,-3.2052,2.5119,2.3192,-33.78,1.44,-9.84
19.109,-13.184,8.0905,-3.8573,2.8775,2.3863,-33.48,1.44,-9.96
19.518,-8.7034,6.7148,-3.5788,3.3356,1.5033,-32.64,1.5,-10.44
19.532,-6.8919,4.7671,-2.6341,0.89492,0.33934,-32.22,1.68,-10.86
19.532,-6.9872,2.7377,-2.3421,0.067195,0.083689,-31.92,1.98,-11.28
16.29,-4.1814,1.757,-1.8384,-0.6182,-0.51954,-31.38,3.36,-11.82
13.307,-1.3212,1.2258,-1.8072,-0.3989,-0.62492,-31.32,4.2,-11.94
11.795,0.01362,0.96704,-1.8448,-0.025656,-0.65637,-31.2,5.04,-12.0
7.2869,3.1191,0.054481,-1.8036,0.25015,-0.66065,-31.32,6.96,-11.94
5.8295,4.4811,-0.54481,-1.646,0.31551,-0.6182,-31.62,7.8,-11.82
4.2904,6.1428,-1.2803,-1.2281,0.059254,-0.6692,-32.04,9.66,-11.1
3.1191,6.4016,-1.6072,-1.0464,-0.034514,-0.68997,-32.34,10.56,-10.62
2.2201,6.0611,-1.471,-0.47953,-0.0058032,-0.76938,-32.52,11.46,-10.26
2.152,5.38,-0.96704,-0.070555,0.076053,-0.84086,-33.3,13.2,-9.36
2.9011,5.0804,-0.53119,0.36621,-0.071166,-0.96059,-33.78,14.04,-8.88
4.5628,4.6854,0.32689,0.80756,-0.2755,-1.0779,-34.44,15.06,-8.22
8.322,5.1213,1.0896,1.1936,-0.4163,-1.0886,-34.5,15.12,-8.1
13.498,4.9306,2.2065,1.5403,-0.71196,-0.64599,-34.44,15.0,-8.4
17.666,3.5549,3.6639,1.543,-0.97464,-0.34911,-34.2,14.76,-9.06
19.409,-2.8058,6.0202,1.5012,-1.0336,-0.67653,-34.14,14.46,-9.66
19.532,-8.6353,6.3062,1.8744,-1.1958,-1.2929,-33.78,13.68,-11.04
19.532,-10.134,5.3528,2.2944,-1.5586,-1.6958,-33.66,13.32,-11.7
16.739,-9.5887,3.9363,2.4196,-1.4166,-1.6503,-33.36,12.12,-12.84
11.768,-7.7636,3.1599,2.5253,-1.2572,-1.3121,-33.3,11.46,-13.26
8.1177,-6.7557,2.4789,2.5882,-1.1811,-0.82864,-33.3,10.92,-13.68
3.8954,-6.4697,1.58,2.6145,-1.1512,-0.33964,-33.24,9.48,-14.16
1.0351,-6.7966,1.185,2.5775,-1.1982,0.069028,-33.18,8.94,-14.34
-0.96704,-6.8374,0.50395,2.4267,-1.1738,0.48869,-33.42,8.28,-13.86
-3.4868,-5.8704,-0.054481,1.9707,-1.0684,1.098,-33.6,8.1,-13.5
-4.3721,-5.6116,-0.040861,1.5611,-0.8659,1.3494,-33.84,7.92,-12.9
-4.7671,-5.6116,-0.095342,1.3412,-0.69455,1.4682,-34.08,7.98,-12.06
-5.0668,-6.0883,-0.027241,0.55497,0.25351,1.7972,-34.26,7.8,-11.1
-3.051,-6.5105,-1.1577,0.28161,1.0211,1.9206,-34.14,7.44,-9.6
0.24517,-6.8238,-2.6287,-0.60018,1.5305,1.9896,-34.08,7.26,-9.0
8.2131,-10.188,-0.10896,-1.2782,1.6936,2.1163,-34.14,7.32,-7.92
17.72,-15.636,4.3449,-2.3845,1.16,2.5186,-34.14,7.2,-7.68
19.314,-14.955,4.127,-2.9209,1.3237,2.5598,-33.96,7.32,-7.26
19.477,-13.225,2.3563,-2.6841,1.839,1.5611,-33.66,7.68,-7.02
19.532,-9.3708,-1.7298,-2.0094,0.74953,0.60964,-33.24,8.4,-6.66
19.532,-8.8396,-2.3836,-1.5455,-0.73548,-0.016493,-33.0,8.82,-6.66
13.579,-5.094,-2.2882,-1.4371,-0.69761,-0.62919,-32.46,9.9,-6.36
10.515,-2.7104,-1.9886,-1.679,0.043066,-0.67501,-32.22,10.56,-6.06
8.8941,-1.2939,-1.58,-1.9209,0.66493,-0.55467,-32.1,11.28,-5.82
5.7478,2.8603,-1.3484,-2.0021,1.1008,-0.46365,-32.22,13.02,-5.22
4.7944,4.5356,-1.58,-1.9239,1.273,-0.43188,-32.28,13.74,-4.86
3.5685,5.598,-1.975,-1.7178,1.2608,-0.42547,-32.4,14.64,-4.26
2.3563,5.7069,-2.7649,-1.1579,0.95081,-0.4496,-32.52,16.14,-3.42
2.6423,5.2575,-2.9965,-0.7309,0.6802,-0.54856,-32.58,17.16,-2.94
2.7922,4.8352,-2.8058,-0.49847,0.49663,-0.62156,-32.52,17.94,-2.64
2.8875,4.7399,-2.152,0.1854,0.034208,-0.87354,-32.7,18.96,-1.92
3.7047,4.7399,-1.7162,0.59834,-0.10263,-1.0046,-32.94,19.14,-1.68
4.9987,5.1076,-1.2803,0.98135,-0.2022,-1.0956,-33.0,19.32,-1.62
10.515,6.3471,-1.076,1.3317,-0.47892,-1.1017,-33.06,19.02,-1.98
15.677,5.4073,-0.64016,1.5589,-1.0082,-0.85888,-32.82,18.72,-2.34
19.055,1.7298,0.24517,1.5052,-1.4013,-0.72846,-32.58,18.06,-2.88
19.532,-10.515,2.3972,1.0907,-1.7272,-1.4163,-31.86,16.86,-4.44
19.532,-10.624,2.4653,1.0079,-1.7947,-1.8277,-31.8,16.32,-5.22
19.532,-9.5479,2.2065,0.95967,-1.4462,-2.0296,-31.62,15.6,-6.6
15.473,-9.3436,1.8524,1.054,-0.27519,-1.9526,-31.5,14.16,-7.14
13.089,-8.717,1.5255,1.5369,0.32681,-1.6072,-31.38,13.32,-7.74
9.1937,-7.8726,0.76274,1.755,0.37751,-1.397,-31.62,12.48,-8.22
5.5026,-7.0145,0.31327,2.2804,-0.2474,-0.72143,-31.68,11.04,-9.12
1.9341,-6.5105,0.12258,2.4835,-0.76419,-0.22144,-31.68,10.5,-9.24
-0.34051,-6.0338,0.12258,2.499,-1.0403,0.28314,-31.62,9.96,-9.42
-3.514,-4.9306,-0.43585,2.2425,-0.92913,0.96181,-31.86,9.18,-9.0
-4.7126,-4.522,-0.99429,1.9169,-0.73334,1.3573,-32.28,8.76,-8.7
-5.0531,-4.699,-1.2803,1.4652,-0.38179,1.6817,-32.46,8.52,-8.4
-4.4675,-5.7069,-0.98067,0.967,0.094684,1.9728,-33.12,7.92,-7.08
-3.4732,-6.1428,-1.2939,0.43677,0.59315,2.2113,-33.18,7.62,-6.36
-2.3836,-6.17,-2.3836,-0.18998,1.0235,2.4462,-33.24,7.56,-5.64
9.0848,-9.7385,-1.7706,-0.90836,1.3277,2.7709,-33.48,7.38,-4.68
15.582,-13.661,0.28603,-2.036,0.80054,3.3124,-33.54,7.26,-4.14
19.041,-17.448,1.7025,-2.5901,0.74678,2.8179,-33.48,7.38,-3.54
19.532,-12.762,-3.732,-2.3289,1.3567,1.409,-33.42,8.1,-2.4
19.532,-9.8611,-5.2711,-1.919,0.99846,0.55283,-33.36,8.64,-2.04
18.592,-8.3765,-4.7807,-1.6955,0.31826,0.12828,-33.42,9.24,-1.68
13.443,-4.4675,-2.8739,-1.7275,0.5058,-0.27092,-33.24,10.86,-1.02
11.645,-2.0839,-1.866,-1.9929,1.1243,-0.29413,-33.12,11.7,-0.66
10.365,-0.27241,-1.5663,-1.9871,1.0397,-0.28802,-33.24,12.42,-0.18
7.355,2.8194,-2.0022,-1.8689,0.8433,-0.29719,-33.42,13.98,0.66
5.6388,4.1406,-2.152,-1.7419,0.81306,-0.35858,-33.54,14.76,0.96
3.8954,5.0804,-2.1248,-1.5412,0.86621,-0.41661,-33.6,15.36,1.26
1.2531,5.4481,-1.7298,-1.2905,0.9896,-0.43463,-33.78,16.44,2.04
0.88532,5.3937,-1.5527,-0.76877,1.2013,-0.50305,-33.9,17.16,2.34
0.88532,5.3937,-1.5527,-0.37018,1.223,-0.60567,-33.9,17.16,2.34
2.0839,4.413,-1.3893,-0.16524,1.1463,-0.66065,-33.9,17.16,2.34
4.0452,4.0725,-1.0215,0.52718,0.7028,-0.86376,-34.26,17.64,2.64
6.4697,4.1406,-0.72188,1.153,0.1967,-1.0718,-34.32,17.7,2.52
10.76,4.5083,-1.0624,1.3176,-0.14264,-0.97097,-34.5,17.34,2.22
19.286,-0.47671,-0.7355,1.4389,-0.31093,-0.86682,-34.32,16.5,1.02
19.477,-3.6775,-0.31327,1.4004,-0.97586,-0.905,-34.38,15.9,1.02
