Ax,Ay,Az,Gx,Gy,Gz,Mx,My,Mz
-1.8932,-12.83,1.7843,-0.80573,3.0672,4.1566,-43.68,27.42,-4.74
0.95342,-17.284,1.8387,-1.3635,3.5406,5.0913,-43.44,27.36,-5.76
13.307,-19.463,0.38137,-1.5088,3.452,5.3741,-43.32,28.86,-8.7
19.15,-19.532,-0.5993,-0.92943,3.3228,3.1056,-43.5,29.88,-10.08
19.436,-19.532,-2.1384,-0.62217,4.0781,2.2697,-43.74,30.9,-11.28
18.742,-18.347,-5.1213,-0.478,3.0369,2.2743,-43.62,33.42,-13.38
13.157,-13.675,-5.2302,-0.062919,1.5504,-0.14722,-43.38,34.56,-14.16
9.0575,-7.7908,-4.3177,0.17104,0.97983,-0.69914,-43.14,35.7,-14.76
7.2733,-2.6151,-4.8488,-0.49358,1.0434,0.13011,-41.7,37.62,-15.36
5.598,0.78998,-4.4266,-1.0779,1.657,0.23335,-40.62,38.52,-15.36
6.2245,3.5413,-3.8682,-1.2865,1.7223,0.13164,-39.66,39.24,-15.42
6.674,9.3436,-4.6173,-1.0446,0.42119,0.18723,-38.34,40.5,-14.52
4.9306,10.896,-4.6445,-0.54306,-0.72357,0.062003,-37.74,40.98,-13.44
3.1463,11.959,-3.9499,-0.2813,-1.1848,-0.39492,-36.9,41.46,-11.94
2.3155,11.278,-4.0589,0.31246,-1.1674,-0.77397,-34.86,41.52,-8.64
4.3721,8.0632,-3.051,0.78374,-1.8775,-0.64966,-33.6,41.4,-7.2
6.2517,4.4947,-2.7649,0.75931,-1.7886,-1.0941,-32.52,41.16,-5.94
16.385,-4.018,-3.514,0.63652,-1.5467,-1.6136,-31.5,40.44,-3.9
19.137,-11.373,-4.8216,0.61117,-2.0024,-1.7126,-31.38,40.38,-3.54
19.477,-18.319,-5.1621,2.1441,-3.2025,-1.9404,-32.04,40.74,-3.9
19.532,-19.518,-0.5993,1.3677,-2.8595,-2.8671,-32.88,41.1,-4.56
19.532,-19.532,1.8387,0.43402,-2.5742,-3.324,-34.08,41.4,-5.1
16.576,-19.532,2.5334,-1.3234,-1.4624,-4.2208,-35.22,41.46,-5.7
3.4051,-18.673,0.58567,-0.81031,-0.7477,-4.4428,-37.32,40.98,-6.48
0.24517,-14.519,0.21793,-0.32223,-0.69975,-4.481,-38.52,40.38,-6.66
-2.2201,-10.964,1.4165,0.57513,-1.0113,-3.693,-39.72,39.48,-6.84
-5.0395,-6.6059,3.0918,0.95387,-0.89003,-1.8754,-41.88,37.5,-7.02
-6.8238,-4.6445,3.5822,0.96242,-0.69211,-1.2327,-42.96,36.36,-6.96
-8.4038,-2.8739,3.6503,0.77458,-0.47373,-0.18204,-43.98,35.4,-7.02
-15.514,-0.83084,3.7047,0.32345,-1.2361,0.29658,-45.06,33.54,-6.9
-17.584,0.83084,3.0918,0.022602,-1.6872,0.54245,-45.24,32.4,-6.42
-12.149,0.47671,2.7377,-0.13592,0.024129,1.4447,-45.36,31.32,-5.7
-6.0883,-3.9227,3.051,-0.71563,1.5394,2.4523,-45.12,29.04,-4.26
-4.0589,-5.5707,2.5742,-0.98349,1.7611,2.751,-44.88,27.9,-3.72
-2.9148,-7.1234,2.0567,-1.4132,2.0824,3.339,-44.46,27.06,-3.42
2.4925,-17.216,-1.0215,-1.5531,2.3112,4.6911,-43.8,26.52,-4.14
7.8317,-19.246,-2.2065,-1.1652,2.3127,5.6395,-43.68,26.82,-5.1
16.794,-19.504,-3.6775,-1.2242,1.9725,5.1484,-43.62,27.42,-6.24
19.491,-19.532,-6.7693,-1.1023,4.1771,2.0721,-44.46,29.58,-8.34
19.518,-18.796,-7.2188,-1.0027,2.894,1.4948,-44.76,30.72,-9.42
16.126,-14.22,-6.0202,-0.64355,1.449,-0.33903,-45.0,31.68,-10.26
10.174,-8.826,-5.5299,-0.31796,1.507,0.047037,-45.3,33.3,-11.34
7.8998,-3.6775,-4.0452,-0.63988,0.86957,0.53267,-45.0,34.02,-11.58
7.3141,-0.40861,-3.3778,-0.78832,1.0183,1.0931,-44.4,34.74,-11.88
6.3879,4.5764,-3.1872,-0.7477,0.9499,1.1677,-43.14,36.42,-11.64
6.0611,6.6604,-3.3234,-0.62583,0.32742,1.0052,-42.42,37.14,-11.58
5.8023,7.8589,-3.2961,-0.52198,0.029016,0.86957,-41.82,37.92,-10.98
4.8352,9.8203,-3.4596,-0.19273,-0.57574,0.22113,-41.34,38.34,-10.14
4.2495,11.087,-2.7649,0.064752,-0.76144,-0.20953,-40.02,39.06,-7.74
4.8352,10.379,-2.152,0.71044,-0.96792,-0.60537,-39.06,39.12,-6.36
7.6683,4.9169,-2.6423,1.252,-1.1674,-0.97922,-36.42,38.76,-4.02
9.9292,1.8115,-2.6151,1.6573,-1.47,-1.5207,-35.34,38.46,-3.06
14.179,-2.7377,-5.1213,1.4474,-1.639,-1.6121,-34.44,38.4,-2.46
19.355,-16.671,-5.5571,1.3833,-2.3213,-1.3879,-33.3,38.88,-2.28
19.355,-16.671,-5.5571,1.7126,-3.6401,-1.5507,-33.3,38.88,-2.28
19.532,-19.518,-1.7298,0.92577,-3.6655,-2.6402,-33.48,39.66,-3.18
17.57,-19.532,1.2395,-1.1878,-2.1261,-4.4007,-34.62,39.66,-4.32
10.174,-19.532,2.0839,-1.6695,-1.1897,-4.6569,-35.28,39.54,-4.68
1.7025,-17.298,1.1577,-1.3506,-0.87445,-4.737,-36.9,38.82,-5.4
-0.69464,-14.41,1.1986,-0.71319,-0.84971,-4.6404,-37.8,38.28,-5.58
-5.2166,-8.7851,1.7706,0.15577,-0.35247,-3.635,-39.78,36.54,-5.64
-6.4424,-6.7693,2.9011,0.58429,-0.065668,-2.2752,-42.0,34.68,-5.52
-7.4776,-4.7944,3.8682,0.51099,-0.1347,-0.894,-43.38,32.82,-5.16
-10.706,-2.3836,4.127,0.31979,-0.51924,0.025962,-44.4,30.84,-4.2
-17.148,-0.84446,3.8954,0.074526,-1.3775,0.22724,-45.12,28.56,-3.06
-18.347,-0.027241,2.7649,-0.06017,-1.6054,0.80726,-45.72,26.58,-1.74
-11.101,-3.1872,1.9205,0.018326,0.32467,1.9642,-46.14,25.08,-0.24
-7.2324,-6.279,0.68102,-0.12614,1.4358,3.0852,-46.2,24.54,0.36
-4.0316,-10.924,-0.91256,-0.4102,2.0516,4.0054,-45.36,25.02,0.12
-1.3757,-15.486,-1.471,-0.4725,2.43,5.039,-44.76,25.56,-0.42
11.019,-19.409,-1.8796,-0.13714,2.7413,6.1584,-43.38,27.36,-1.74
17.298,-19.504,-2.1793,-0.34117,1.8363,5.9908,-42.66,28.38,-2.76
19.246,-19.532,-5.5843,-1.2275,3.3295,2.5006,-42.12,29.52,-3.72
19.532,-18.183,-7.246,-1.208,3.4309,2.5925,-41.22,31.92,-5.7
15.99,-14.179,-5.9249,-0.79779,2.4914,-0.17868,-40.86,33.06,-6.48
9.3163,-6.5378,-4.8352,-0.60659,1.9523,-0.23335,-40.14,34.92,-7.74
8.3357,-3.5413,-4.4811,-0.62492,1.481,0.66218,-39.66,35.76,-8.28
7.6819,-0.31327,-4.0589,-0.62889,1.3228,1.2327,-39.0,36.42,-8.52
7.4503,1.2531,-3.7728,-0.61911,1.0308,1.5989,-38.04,37.2,-8.52
6.3198,5.1757,-3.2689,-0.57818,0.61789,1.492,-36.3,38.7,-8.46
5.6524,6.8374,-3.228,-0.47464,0.31368,1.1237,-35.58,39.36,-8.22
5.1485,9.1937,-3.0918,-0.24771,0.021075,0.41875,-34.02,40.32,-7.08
5.1894,10.338,-2.9284,-0.13775,-0.18418,-0.11668,-33.18,40.5,-6.18
5.5299,10.706,-2.6287,0.12126,-0.43127,-0.60812,-32.28,40.68,-5.04
6.8919,7.7227,-2.0975,0.65851,-0.82009,-1.0626,-30.42,40.68,-3.0
8.036,5.0259,-2.2337,0.84483,-1.2388,-1.4731,-29.46,40.44,-1.8
9.1937,3.0918,-1.7843,0.66309,-1.536,-1.8521,-28.68,40.2,-0.9
18.374,-3.9635,-3.1735,1.1466,-1.7923,-2.0495,-27.6,40.26,-0.12
19.382,-14.969,-5.3119,2.6826,-2.186,-2.0601,-27.36,40.44,-0.12
19.518,-18.96,-4.9169,3.1011,-2.7278,-2.62,-27.54,40.56,-0.54
19.532,-19.532,0.34051,1.3088,-2.5232,-4.0858,-28.44,40.62,-1.68
16.971,-19.532,2.1793,-0.38149,-1.5632,-4.7641,-29.34,40.26,-2.46
9.1393,-19.532,1.5663,-0.71074,-0.65332,-4.9563,-30.06,39.78,-3.0
0.14982,-16.154,-0.40861,-0.25779,-0.40317,-4.9089,-31.92,38.64,-3.84
-4.7126,-11.455,0.1362,0.45937,-0.57941,-4.1072,-33.18,37.68,-4.14
-6.2245,-7.9815,0.6674,0.86621,-0.45937,-3.3891,-34.38,36.66,-4.5
-7.8862,-5.0259,1.6889,1.4752,-0.32681,-1.0107,-36.78,34.26,-4.92
-10.188,-3.0237,1.9341,1.4022,-0.36682,0.37141,-37.8,33.36,-5.28
-13.77,-1.4574,2.2474,1.1609,-0.88545,1.0385,-38.58,32.46,-5.52
-19.368,0.5993,1.2122,0.81459,-2.1615,1.1677,-39.84,30.78,-5.52
-14.152,-0.38137,0.6674,0.45876,-0.4102,2.1166,-40.08,29.88,-5.28
-11.591,-2.2201,1.3212,0.33964,0.64049,2.5568,-40.32,29.16,-4.92
-7.0281,-5.9385,1.5391,-0.2416,1.2697,3.3478,-40.38,28.38,-4.68
-1.4438,-11.196,-0.1362,-0.96242,1.4804,4.3527,-39.42,27.54,-4.08
2.5334,-18.36,-0.55843,-1.051,1.6561,5.4025,-38.94,27.54,-4.5
8.2403,-19.382,-0.89894,-0.90897,1.5415,6.2201,-38.4,27.6,-5.1
19.286,-19.532,-3.8273,-0.86346,1.058,5.3799,-37.44,28.74,-6.6
19.504,-19.532,-6.5786,-0.43097,2.7483,3.7904,-37.08,29.88,-7.2
19.532,-19.532,-7.0417,-0.15363,2.9554,3.842,-36.48,30.96,-7.8
10.351,-13.77,-4.2904,-0.11454,2.2804,-0.90316,-35.82,32.94,-8.94
8.8396,-9.7249,-3.4187,-0.18112,2.5537,-1.2779,-35.52,33.78,-9.3
8.4855,-6.3335,-3.228,-0.45601,2.3601,-0.8769,-34.98,34.44,-9.3
8.1313,-0.20431,-3.4051,-1.0898,1.6096,0.02474,-33.54,35.46,-9.06
5.993,3.9635,-4.0316,-1.1994,1.0159,0.39156,-32.58,35.94,-8.76
5.1894,5.993,-4.0316,-1.19,0.69119,0.48594,-31.56,36.42,-8.34
3.4459,9.9837,-3.9227,-0.67928,-0.2923,0.23793,-30.48,37.08,-6.96
2.2474,10.678,-3.909,-0.12431,-0.67867,-0.13775,-30.0,37.32,-5.7
1.5936,10.719,-3.8682,0.33353,-0.86224,-0.4722,-29.4,37.5,-4.38
4.2495,8.6489,-3.7728,0.85918,-1.0916,-0.7028,-28.08,37.14,-1.74
6.3198,6.5105,-3.8954,1.1393,-1.5934,-0.84116,-27.18,36.66,-0.72
7.4776,4.7807,-4.0044,1.0302,-2.2208,-1.1148,-26.58,36.24,0.36
15.445,-1.185,-3.7184,0.85765,-2.784,-1.3002,-25.62,35.58,2.04
19.028,-7.0553,-5.3528,1.2495,-3.0039,-1.3308,-25.32,35.4,2.4
19.477,-17.284,-7.1234,2.1826,-3.2089,-1.0821,-25.2,35.64,2.34
19.532,-19.504,-2.9011,2.0033,-3.3246,-3.0485,-25.74,36.3,1.02
19.532,-19.532,0.095342,-1.31,-1.9514,-4.309,-26.46,36.6,0.06
15.01,-19.532,3.7456,-2.5061,-0.9331,-4.7177,-27.24,36.6,-0.72
4.6854,-19.232,1.6617,-2.1814,-0.52443,-4.8915,-28.98,36.3,-1.92
-0.78998,-13.116,0.92618,-1.0467,-0.54917,-5.0277,-29.88,35.82,-2.52
-4.3721,-8.7579,1.185,0.27947,-0.4835,-4.2617,-31.02,35.1,-3.06
-6.4288,-5.7205,3.3506,1.1918,-0.31032,-2.8063,-33.36,33.66,-3.6
-7.5048,-4.9578,3.7592,1.0797,-0.079107,-0.79932,-34.62,32.82,-3.78
-8.7306,-4.2904,4.0861,0.86224,-0.23305,-0.22266,-35.7,32.04,-4.08
-12.898,-2.2065,3.9363,0.25198,-1.5366,0.74556,-36.6,31.32,-4.32
-17.597,-0.36775,2.4789,0.093157,-2.1399,0.99205,-37.98,29.94,-3.84
-12.626,-1.7979,2.0294,0.10537,-0.78985,1.7376,-38.4,29.1,-3.42
-9.6432,-5.4481,2.4517,-0.068111,0.96364,2.6713,-39.18,27.6,-2.34
-3.9499,-7.5593,1.6753,-0.78069,1.9196,3.5644,-39.36,27.0,-1.8
-1.471,-10.283,-0.23155,-0.98716,1.9954,4.1814,-39.36,26.64,-1.56
2.0567,-13.702,-2.6832,-0.84819,1.9813,4.6682,-39.0,26.52,-1.86
14.901,-19.423,-3.7184,-0.36621,2.1142,5.7101,-38.46,26.88,-3.3
18.96,-19.518,-5.5162,-0.76022,2.1973,4.1087,-38.22,27.66,-4.2
19.504,-19.532,-7.5457,-1.255,4.4905,2.5226,-37.68,29.28,-6.48
18.142,-14.914,-5.6388,-1.3531,2.6838,0.022297,-37.44,30.24,-7.56
10.746,-9.4661,-4.3585,-1.2749,2.171,-0.70494,-37.38,30.96,-8.4
8.1177,-5.489,-4.5083,-1.1148,1.8433,-0.36011,-37.26,31.56,-9.0
8.145,-2.6968,-4.3858,-1.1023,1.9975,0.47312,-37.14,32.1,-9.3
7.1915,1.0488,-3.5549,-1.1267,1.9367,0.87537,-36.06,33.6,-9.48
6.2654,3.5004,-2.8603,-1.1432,1.3943,1.1023,-35.28,34.14,-9.42
5.4481,6.3062,-2.1656,-1.0345,0.14905,0.87445,-34.44,34.92,-9.24
4.8216,9.0575,-2.152,-0.88087,-0.10201,0.7364,-33.72,35.46,-8.88
3.8001,12.299,-1.866,-0.31154,-0.60659,0.22571,-32.76,36.48,-7.68
3.9499,12.354,-1.975,0.041539,-0.75533,-0.094379,-32.28,36.9,-6.6
4.7944,12.476,-1.9341,0.50121,-1.0956,-0.41875,-31.62,37.14,-5.46
8.7034,6.5241,-2.6015,1.2327,-1.5821,-0.96822,-30.42,37.14,-3.06
11.387,2.942,-2.4517,1.6173,-2.2074,-1.697,-29.82,37.14,-1.8
15.541,-0.095342,-2.7786,1.8011,-2.3256,-1.9154,-29.4,37.02,-0.66
19.477,-13.28,-5.9521,2.9984,-2.241,-2.4184,-29.1,37.5,-0.66
19.532,-18.755,-5.5707,3.6264,-2.4483,-2.5632,-29.16,37.8,-0.36
19.532,-19.341,-4.1406,2.3976,-2.8387,-3.2119,-29.52,38.1,-1.08
18.537,-19.532,2.6423,-0.11484,-2.6622,-4.1117,-31.08,38.34,-2.88
13.471,-19.532,3.3915,-1.8842,-1.518,-4.6084,-31.98,38.1,-3.48
0.51757,-17.597,0.89894,-1.7223,-1.2333,-4.6511,-32.94,37.68,-3.96
-3.3778,-12.013,0.16344,-0.42364,-0.59254,-4.5494,-35.34,36.18,-4.56
-5.4754,-8.3765,0.8036,1.0021,-0.219,-3.6023,-36.66,35.1,-4.74
-6.0474,-6.7012,1.6344,1.7904,-0.50793,-2.2791,-38.04,33.9,-4.92
-6.7421,-5.5571,3.0237,1.7147,-0.48869,-1.0748,-40.44,31.44,-5.1
-9.1393,-4.7399,3.3915,1.2437,-0.46609,0.21594,-41.64,30.36,-5.28
-15.228,-2.8875,3.1054,1.0666,-0.66248,0.53176,-43.26,28.26,-5.04
-17.584,-2.5061,2.7377,0.24496,-1.4129,1.1289,-43.68,27.06,-4.32
-14.288,-2.6968,2.0567,0.0033598,-1.0944,1.2416,-44.04,26.1,-3.6
-10.787,-3.9499,2.261,-0.49114,1.6231,2.303,-44.34,24.9,-2.94
-4.6037,-7.2324,1.8115,-0.96944,2.113,3.2147,-44.46,23.1,-1.5
-2.8194,-9.6977,0.44947,-1.3302,2.5348,4.4819,-44.4,22.5,-1.14
6.3471,-18.306,-0.21793,-1.2486,2.5681,5.1123,-43.62,22.32,-1.68
16.494,-19.45,-0.32689,-1.7113,1.5934,5.5974,-42.96,22.62,-2.46
18.769,-19.504,-3.1054,-1.6548,1.4621,3.2574,-42.54,23.16,-3.48
19.491,-19.532,-6.7693,-1.0553,4.3356,3.7687,-42.36,23.94,-4.5
19.532,-16.072,-6.2517,-0.51099,3.1621,1.5363,-41.94,25.68,-6.42
13.866,-12.122,-4.9714,-0.26176,2.5647,-0.39156,-41.76,26.58,-7.32
10.569,-3.7592,-4.5764,-0.20159,2.4144,-0.054062,-41.16,27.96,-8.58
10.12,-1.4438,-3.9227,-0.65485,1.5751,0.76786,-40.56,28.74,-8.82
8.54,0.89894,-3.5685,-1.0067,1.1017,1.0458,-39.78,29.58,-8.94
5.4481,5.0395,-3.0918,-1.1246,0.343,1.1313,-37.92,31.44,-8.76
4.0589,7.246,-2.833,-1.0308,-0.25198,0.91111,-37.2,32.28,-8.7
2.4789,9.398,-2.8194,-0.73915,-0.35369,0.5287,-36.42,33.12,-8.34
1.9613,10.91,-2.6968,-0.11698,-0.37018,-0.032376,-35.52,34.26,-6.84
2.9011,10.91,-2.4517,0.059254,-0.40959,-0.19975,-35.1,34.8,-5.76
3.7728,10.392,-2.1929,0.33659,-0.57513,-0.53817,-34.62,35.1,-4.56
6.96,7.6683,-1.9205,0.67195,-1.3231,-0.96211,-32.94,35.34,-1.86
8.54,5.5571,-1.9205,0.85032,-1.96,-1.3619,-32.22,35.4,-0.6
11.06,1.9341,-2.7513,1.0464,-2.3848,-1.7895,-31.56,35.52,0.72
19.246,-5.7886,-6.3743,1.6353,-2.6347,-1.9496,-31.26,35.94,1.86
19.504,-17.189,-7.75,2.937,-2.5128,-1.8528,-31.62,36.3,1.86
19.532,-19.246,-5.9521,3.6215,-2.996,-2.5537,-31.98,36.54,1.44
19.532,-19.532,0.50395,0.30574,-2.7687,-5.0271,-33.42,36.72,0.3
17.271,-19.532,3.6094,-1.81,-1.551,-5.2754,-34.14,36.6,0.3
5.7614,-17.529,1.4846,-1.3127,-0.36774,-5.2046,-35.82,35.52,-0.66
-2.8467,-11.727,0.47671,0.093157,-0.054062,-4.8188,-36.9,34.56,-0.72
-5.993,-7.464,1.5391,0.89858,0.062614,-4.3839,-37.92,33.54,-0.72
-6.456,-6.8374,2.3836,2.1417,-0.46212,-2.8863,-39.0,32.64,-0.6
-7.355,-6.1564,4.2768,2.0427,-0.81886,-0.1127,-41.28,30.42,-0.96
-10.665,-4.7126,4.1542,1.6148,-0.50457,0.99785,-42.3,29.4,-1.14
-16.413,-3.1054,3.6911,1.2419,-0.7761,1.6234,-43.08,28.5,-1.32
-16.385,-1.5936,1.9341,0.624,-1.5183,1.8885,-43.8,27.06,-0.9
-11.237,-2.942,2.6151,0.55864,-0.39004,2.0546,-43.98,26.16,-0.48
-8.3357,-4.6445,3.051,0.022907,1.1154,3.1967,-44.16,25.26,0.18
-3.1054,-7.8317,1.9477,-0.43127,1.1558,3.8228,-44.28,24.0,1.2
0.24517,-10.515,0.095342,-0.62125,1.135,4.2232,-44.04,23.82,1.32
5.1621,-17.884,-1.3484,-0.61239,1.2483,4.7104,-43.62,24.18,1.02
17.162,-19.477,-1.9205,-1.0168,0.98288,4.6469,-42.54,25.56,-0.78
18.946,-19.518,-4.1951,-0.39095,3.2513,2.646,-42.12,26.58,-2.04
19.504,-19.532,-6.5378,-0.39065,5.0149,2.2468,-41.76,27.84,-3.48
16.903,-13.961,-4.6309,-1.0852,3.4373,0.17532,-41.34,30.3,-6.78
11.986,-9.3299,-4.699,-0.86163,2.6337,-0.8207,-41.46,31.32,-8.34
10.025,-6.1019,-5.2438,-0.64019,2.2712,-0.15088,-41.82,31.8,-9.66
9.1801,-1.9068,-5.3256,-0.87598,1.6438,0.76541,-42.3,32.82,-11.1
6.7966,-0.054481,-5.5843,-1.6133,2.3375,1.0183,-42.12,33.36,-11.46
6.5378,2.6696,-4.8216,-1.7171,2.2633,0.90652,-42.06,33.96,-11.52
5.094,6.3198,-3.1599,-1.5293,0.59071,0.405,-41.46,34.98,-11.46
3.4459,8.1586,-2.6287,-1.0531,-0.40592,0.21777,-41.34,35.34,-11.04
1.9068,9.2755,-2.0294,-0.78374,-0.64446,-0.080329,-41.4,35.52,-10.26
1.0488,10.079,-0.78998,-0.62003,0.058032,-0.6182,-41.28,35.82,-7.98
1.5391,9.9292,-0.31327,-0.093462,-0.079412,-0.80207,-41.1,35.76,-6.48
2.9692,10.12,-0.29965,0.22174,-0.3598,-0.89125,-40.74,35.64,-4.8
7.8998,5.1485,-1.8796,1.5296,-1.5,-1.3604,-40.26,35.16,-1.32
11.455,2.4108,-2.6015,2.3931,-2.0659,-1.5913,-40.14,35.1,-0.06
19.286,-8.9349,-5.4073,3.1566,-2.2388,-1.6206,-40.32,36.0,0.48
19.477,-16.385,-5.3937,3.3042,-2.1796,-1.9505,-40.74,36.72,-0.06
19.532,-19.137,-2.1112,2.6536,-3.2993,-2.6634,-41.46,37.32,-1.08
19.532,-19.532,0.095342,0.6014,-3.3512,-3.0216,-42.72,37.86,-3.24
15.364,-19.532,1.9613,-1.4716,-2.1979,-3.7431,-43.5,38.1,-3.84
7.3005,-18.701,1.7979,-1.0314,-1.5256,-3.7021,-44.22,37.92,-4.5
-1.5936,-11.101,0.44947,0.047647,-0.93187,-3.5846,-45.72,36.78,-5.4
-3.3778,-8.7987,1.1577,0.99815,-0.48961,-2.9028,-46.62,35.88,-5.7
-4.2495,-6.96,2.2474,1.3051,-0.71868,-1.0559,-47.7,35.04,-6.06
-5.7342,-4.1133,3.2008,1.211,-0.8375,-0.47006,-49.44,33.24,-6.78
-8.4038,-2.8603,3.4596,0.96028,-0.8039,0.70433,-50.04,32.52,-6.72
-11.196,-2.2337,3.5685,0.73762,-0.8772,1.1903,-50.28,31.98,-6.42
-16.467,-0.57205,2.4789,0.44227,-1.3671,1.6093,-49.62,30.48,-4.8
-12.04,-1.5119,2.2337,0.23885,-0.52565,1.8415,-49.2,29.58,-3.84
-7.7364,-3.7047,3.0237,-0.21197,1.2159,2.8112,-48.78,28.86,-2.64
-3.4187,-7.6002,2.5198,-0.72326,1.4923,3.3851,-47.88,27.96,-0.84
-1.2939,-10.392,1.185,-1.066,1.8344,3.8417,-47.4,27.66,-0.36
1.0488,-15.146,0.14982,-1.2156,2.3509,4.4844,-46.74,27.48,-0.54
10.474,-19.395,-0.027241,-1.427,2.5287,4.7614,-45.66,28.26,-1.86
18.851,-19.518,-2.0839,-1.5592,1.8137,3.3995,-45.24,28.92,-2.94
19.45,-19.532,-5.3664,-0.67684,4.5067,1.4523,-44.28,30.66,-4.98
18.919,-15.241,-5.5435,-0.35827,3.1337,0.4496,-43.98,31.56,-6.18
13.579,-11.101,-5.3119,0.000305,2.591,-0.93157,-43.8,32.28,-7.44
11.182,-8.3357,-5.3664,0.096822,2.5565,-0.79382,-43.8,32.7,-8.58
9.221,-4.1678,-4.7671,-0.36591,1.9584,-0.10934,-43.86,33.12,-9.54
6.8374,0.29965,-4.9442,-1.109,1.5571,0.33262,-43.26,34.02,-10.08
5.1621,3.5685,-4.6854,-1.8686,1.514,0.15424,-42.78,34.38,-10.2
4.8897,6.5105,-4.4811,-1.7168,0.98258,0.052534,-42.42,34.68,-10.32
3.1191,9.8475,-3.6094,-0.86163,-0.49266,0.12614,-41.58,35.1,-10.2
2.4517,10.27,-2.9965,-0.61331,-0.93737,-0.094379,-41.46,35.34,-9.54
2.2201,10.433,-2.438,-0.49205,-1.1857,-0.41997,-41.28,35.64,-8.58
1.8387,9.0303,-1.6344,-0.16829,-1.6038,-0.62583,-41.04,35.64,-6.3
2.2882,8.4174,-1.7298,0.45173,-1.7349,-0.91049,-40.74,35.52,-5.28
4.4539,6.2381,-2.0022,1.1576,-1.5766,-1.3357,-40.32,35.1,-3.96
12.612,0.92618,-3.4051,1.7694,-1.5162,-1.7428,-40.26,34.2,-1.92
18.387,-2.6423,-4.6445,2.5953,-1.7266,-2.0745,-40.38,34.14,-1.56
19.395,-9.8884,-6.8919,3.3445,-1.8222,-2.0443,-40.56,34.32,-1.8
19.532,-19.164,-5.5707,3.1542,-2.9719,-2.3873,-41.46,34.68,-3.66
19.532,-19.504,-1.7298,0.75075,-3.2043,-3.0134,-42.06,34.74,-4.56
16.304,-19.532,2.3018,-1.6185,-2.3647,-3.6579,-43.32,34.32,-5.88
8.8124,-18.224,2.5061,-1.7715,-0.73518,-4.0739,-43.98,33.84,-6.24
3.2144,-14.315,1.5119,-0.57666,-0.37141,-4.0467,-44.82,33.12,-6.48
-2.4244,-9.8611,1.1577,0.51588,-0.26298,-3.5284,-46.38,31.02,-7.2
-5.0531,-8.0224,2.3155,1.0156,-0.5061,-2.386,-47.22,29.82,-7.44
-6.3471,-6.17,3.1191,1.1118,-0.55772,-0.022602,-48.78,27.72,-7.92
-12.667,-2.6015,2.9011,1.263,-0.66645,1.1041,-49.2,27.0,-7.98
-17.543,-1.4982,2.6423,1.2862,-1.2804,1.719,-49.2,26.34,-7.62
-19.028,-1.471,2.4517,1.1845,-1.7361,1.8647,-49.02,25.62,-6.96
-12.19,-3.8682,1.9886,0.8042,-0.24648,2.1145,-48.54,24.06,-4.68
-9.2482,-4.7535,2.2474,0.34636,1.08,2.791,-48.42,23.28,-3.48
-6.1564,-5.9385,2.1384,-0.23488,1.6206,3.3839,-48.18,22.62,-2.58
-0.31327,-9.8339,1.1169,-0.686,1.784,3.7675,-47.76,22.2,-1.62
3.0373,-14.901,-0.76274,-0.95631,1.682,4.1197,-47.28,22.26,-1.68
7.1507,-18.96,-0.98067,-1.1634,2.1796,4.6728,-46.68,22.68,-2.46
18.592,-19.518,-2.0703,-1.3292,1.9285,3.8735,-45.66,24.48,-4.26
19.409,-19.532,-4.2904,-0.49144,3.817,1.6078,-45.18,25.74,-5.34
19.532,-19.096,-5.8704,-0.69547,4.6588,2.4282,-44.82,27.12,-6.36
14.301,-10.719,-4.7399,-0.82467,2.0461,-1.0886,-44.28,29.4,-9.12
10.637,-6.674,-5.094,-0.47403,1.493,-0.89919,-44.22,30.36,-10.62
8.9622,-5.2302,-5.1213,-0.47953,1.1832,-0.56016,-44.22,30.9,-11.7
5.1757,-0.57205,-4.304,-1.0479,0.68997,0.19823,-44.1,31.5,-12.96
3.0918,2.3018,-4.2495,-1.2556,0.78099,0.44502,-43.86,32.04,-13.08
1.58,5.1076,-4.3858,-1.3964,1.4053,0.28924,-43.68,32.4,-12.9
1.9477,9.112,-3.3642,-0.88301,1.0024,-0.18265,-43.38,32.88,-12.18
2.4244,9.1665,-3.2144,-0.59193,0.35094,-0.18082,-43.38,33.06,-11.58
2.4517,8.7715,-2.833,-0.50824,0.07422,-0.27184,-43.32,33.06,-10.44
2.2201,8.9894,-2.6151,-0.11179,-0.4612,-0.55528,-43.08,32.76,-7.98
2.8603,8.3765,-2.547,0.35797,-0.74006,-0.67165,-42.96,32.34,-6.78
5.094,6.1564,-2.3155,0.8714,-1.0565,-0.84483,-42.84,31.68,-5.58
10.283,3.5413,-1.4301,1.397,-1.7205,-1.1942,-43.14,30.96,-3.48
16.154,0.81722,-2.4517,1.803,-1.9963,-1.4032,-43.38,30.78,-2.7
18.687,-1.9886,-4.1814,3.0274,-1.708,-1.5015,-43.5,31.08,-2.7
19.518,-18.673,-3.8273,3.9535,-1.8995,-1.7226,-43.98,32.1,-3.84
19.532,-19.423,-0.95342,2.7135,-3.8182,-2.1209,-44.34,32.4,-4.92
19.532,-19.518,1.1032,0.14142,-3.9645,-2.78,-44.58,32.88,-5.94
7.3005,-18.578,1.7979,-1.2437,-2.1005,-3.9428,-45.36,32.94,-7.56
3.6503,-16.235,0.96704,-0.85307,-0.2419,-4.1007,-45.84,32.58,-8.16
0.68102,-12.572,0.040861,-0.50916,-0.023824,-3.9166,-46.44,32.04,-8.64
-3.2416,-7.1234,0.35413,0.60445,-0.15547,-2.4905,-47.58,30.66,-9.24
-4.4947,-6.1155,1.2122,1.0828,-0.63286,-1.1506,-48.12,30.06,-9.48
-5.598,-4.7671,2.152,1.2401,-0.53481,0.12584,-48.42,29.4,-9.48
-8.9894,-3.0782,2.5742,1.1469,-0.25626,1.0318,-48.3,28.08,-9.0
-13.661,-2.3155,2.4789,0.79596,-0.58521,1.668,-48.12,27.48,-8.58
-15.255,-2.1112,2.4108,0.64477,-0.80634,1.8124,-47.82,26.88,-7.62
-15.255,-2.1112,2.4108,0.64477,-0.80634,1.8124,-47.82,26.88,-7.62
-6.6467,-5.2438,2.4517,-0.10415,1.0177,2.5158,-46.68,24.78,-4.74
-5.2438,-5.9385,2.2882,-0.56047,1.4361,3.0824,-46.5,24.24,-4.08
-1.2939,-10.855,1.0215,-0.83963,1.9972,3.6899,-45.78,23.76,-3.84
3.5549,-17.407,-0.6674,-0.66829,2.547,4.6621,-45.18,24.0,-4.44
18.088,-19.477,-1.6344,-0.17746,2.4706,4.7852,-44.16,25.2,-6.66
19.45,-19.532,-4.4402,-0.92668,1.5492,0.93432,-44.04,26.16,-8.04
19.518,-19.532,-5.3256,-1.9395,3.2593,1.9221,-44.1,26.94,-9.42
14.329,-13.321,-4.1814,-2.3586,2.8873,-0.46151,-44.34,27.9,-10.86
10.27,-8.5263,-4.5628,-1.9288,3.3555,-1.1509,-44.94,29.28,-13.38
9.4798,-4.8352,-4.6445,-1.6408,2.7602,-0.37171,-45.06,29.64,-14.16
7.0281,1.1713,-3.6094,-1.6347,1.6735,0.28222,-45.3,30.24,-14.76
4.5628,3.2008,-3.2553,-1.5568,0.75595,0.83933,-45.06,30.6,-14.46
3.337,4.5764,-3.0782,-1.2278,0.5061,1.1209,-44.64,31.2,-14.22
2.2746,8.1995,-2.3699,-0.66035,0.049175,0.80665,-43.68,32.04,-13.32
1.7843,8.6898,-2.4653,-0.10507,-0.10507,0.50396,-43.38,32.52,-12.66
1.7434,8.9077,-2.2474,0.16127,-0.17501,0.21594,-43.26,32.76,-11.58
2.3563,9.0848,-1.9613,0.28588,-0.44074,-0.15241,-42.6,33.24,-8.7
3.5413,8.6353,-1.9477,0.45571,-0.832,-0.30604,-41.76,33.42,-7.08
4.8625,7.1643,-2.0294,0.7648,-1.3378,-0.5565,-40.74,33.54,-5.46
7.8589,4.2087,-2.4517,1.0531,-1.8387,-0.95845,-39.12,33.72,-2.7
13.334,1.7979,-2.9965,1.3149,-2.12,-1.3515,-38.58,34.02,-1.62
18.619,-1.471,-5.094,2.0146,-2.2382,-1.4859,-38.04,34.5,-1.02
19.518,-18.496,-7.2869,3.4951,-2.5259,-1.8164,-38.1,35.4,-1.74
19.532,-19.409,-4.6582,2.248,-3.2516,-3.058,-38.52,35.76,-2.88
19.532,-19.504,-2.7104,0.65515,-2.926,-3.6194,-39.24,35.82,-4.08
18.742,-19.532,0.92618,-2.3503,-1.273,-4.7562,-40.08,35.7,-4.98
2.6968,-15.745,0.70826,-2.0705,-0.3766,-4.8096,-41.52,34.62,-6.06
0.068102,-13.416,-0.12258,-0.79993,0.15852,-4.4874,-42.3,33.84,-6.36
-3.9908,-9.8203,1.3348,-0.34911,0.052534,-4.1429,-43.32,32.88,-6.54
-6.6876,-8.2267,2.5742,0.66554,-0.96639,-2.4074,-45.66,30.36,-6.84
-9.1529,-6.8919,3.514,0.99388,-0.89522,-0.8772,-46.68,28.98,-7.02
-11.155,-5.993,3.6911,1.0366,-0.70799,0.56169,-47.64,27.78,-6.96
-17.775,-3.0918,2.9692,0.96761,-1.1237,1.5776,-48.84,25.5,-6.66
-17.666,-3.0237,2.5198,0.66859,-0.8546,2.1328,-49.26,24.42,-6.18
-9.6023,-6.4833,3.1599,0.51862,-0.0082467,2.3903,-49.38,22.38,-4.62
-6.7966,-7.75,3.1872,-0.35736,1.2862,3.4685,-49.38,21.42,-3.6
-5.1485,-8.3357,2.9965,-0.91599,1.6154,3.9334,-49.26,20.82,-2.7
-1.3757,-11.741,0.50395,-1.2126,1.8051,4.3744,-48.96,20.34,-1.86
1.6889,-17.339,-1.185,-1.1625,1.9236,5.1783,-48.72,20.58,-1.92
10.951,-19.259,-3.2689,-0.64782,2.0421,5.725,-48.24,21.06,-2.34
19.382,-19.532,-5.7342,0.4047,1.5656,3.6627,-47.34,22.62,-3.66
19.518,-19.532,-6.5786,0.26573,3.4144,3.7794,-46.74,23.7,-4.5
19.532,-18.183,-6.96,-0.40287,2.0772,2.0959,-46.26,24.96,-5.34
17.516,-13.838,-5.7069,-0.76664,1.8222,-0.22113,-45.66,26.28,-6.18
10.542,-6.96,-4.985,-0.8375,2.5959,-0.016188,-44.4,28.8,-7.44
10.665,-4.0452,-4.7944,-0.94531,2.4505,0.55344,-43.56,30.18,-7.92
8.9349,1.5255,-4.522,-1.2153,1.5143,0.86987,-41.58,32.82,-8.28
7.3686,3.9635,-4.1814,-1.2587,1.1157,0.94165,-40.56,34.14,-8.28
6.1292,5.4754,-3.8001,-1.1777,0.15516,0.7758,-39.48,35.16,-8.22
2.6968,9.112,-3.0918,-1.0806,0.072388,0.39279,-37.38,37.08,-7.86
1.8524,10.733,-3.0646,-0.89797,0.21441,-0.041844,-36.54,37.92,-7.5
2.1248,11.918,-3.1872,-0.613,0.31001,-0.44257,-35.7,38.58,-6.84
4.699,9.9701,-3.5685,0.019242,-0.23518,-1.0993,-33.9,39.78,-5.4
6.1428,7.641,-3.623,0.082467,-0.56719,-1.2401,-33.12,40.08,-4.44
7.9543,5.6524,-3.1872,0.26756,-1.7129,-1.642,-32.46,40.26,-3.54
13.116,1.9613,-2.7786,0.4218,-1.9991,-1.9768,-32.16,40.32,-2.64
19.0,-3.6366,-5.8704,1.073,-1.7901,-2.1976,-32.22,40.38,-2.46
19.463,-15.023,-7.3822,2.357,-1.3662,-2.4429,-32.58,40.32,-2.7
19.532,-19.395,-4.4947,2.1347,-2.113,-3.948,-33.96,39.96,-4.08
19.532,-19.518,-2.6423,1.3231,-2.1628,-4.39,-34.98,39.42,-4.92
19.532,-19.532,-0.16344,-0.18173,-2.2086,-4.9492,-36.0,38.88,-5.58
5.1349,-19.532,0.65378,-0.55131,-1.7312,-4.988,-38.28,37.14,-6.24
-0.27241,-17.352,0.38137,-0.10293,-1.3754,-4.5864,-39.6,35.94,-6.42
-3.8818,-12.612,0.40861,0.58918,-0.78099,-4.0024,-40.98,34.62,-6.54
-7.8045,-7.1507,2.4244,1.3112,-0.42883,-1.8613,-43.38,31.5,-6.54
-9.8339,-5.4481,3.1872,1.5815,-0.3992,-0.32315,-44.76,30.06,-6.6
-13.116,-3.8818,3.7047,1.4264,-0.99021,0.77,-45.66,28.62,-6.54
-17.107,-2.5198,3.6775,1.2092,-1.7706,1.4013,-46.38,27.24,-6.18
-14.71,-1.866,2.3972,1.0534,-1.4419,1.6032,-47.34,24.78,-5.16
-11.073,-3.0373,2.7922,0.9334,0.53787,2.0507,-47.58,23.64,-4.38
-6.4697,-5.598,2.1929,0.4386,1.4817,2.7187,-47.64,21.84,-2.4
-5.0259,-6.8919,1.362,-0.30849,2.7651,3.4984,-47.28,21.36,-1.62
-3.8682,-8.6762,0.54481,-0.74251,3.372,3.9755,-46.92,21.0,-1.2
-3.1191,-12.258,-0.027241,-1.1793,3.7018,4.8536,-46.5,20.88,-1.26
6.1292,-19.123,0.21793,-1.3784,2.967,5.974,-45.24,21.78,-2.52
18.347,-19.504,-1.866,-1.7404,0.1518,4.8781,-44.58,22.5,-3.36
19.382,-19.532,-5.3119,-1.4432,0.062003,2.2715,-44.16,23.58,-4.02
19.532,-15.677,-5.3664,-1.3705,2.2358,3.1029,-43.32,26.28,-5.28
15.078,-11.019,-4.1542,-0.82558,2.3381,-0.65393,-42.96,27.6,-5.76
12.326,-9.4389,-4.1951,-0.47128,2.8955,-0.78893,-42.48,28.86,-6.24
10.978,-3.6366,-4.4947,0.0051924,2.8744,0.025045,-41.16,31.02,-6.72
10.011,-0.95342,-4.0725,-0.13103,2.2336,0.35308,-40.2,31.98,-6.72
8.4174,2.547,-4.3994,-0.22144,0.60415,0.80634,-39.12,32.94,-6.96
6.9055,5.884,-4.0452,-0.44288,-0.562,0.82009,-38.04,33.84,-7.08
5.5707,8.0224,-4.0725,-0.38454,-0.99357,0.46884,-37.02,34.44,-7.02
2.833,10.869,-3.6775,-0.22602,-0.89247,0.015577,-35.4,35.76,-6.18
2.6151,11.278,-3.5277,-0.032681,-0.6747,-0.40989,-34.8,36.06,-5.16
3.8001,10.569,-2.9965,0.23305,-0.74464,-0.85032,-34.2,36.24,-4.08
7.0553,7.0417,-2.6968,0.36438,-1.1118,-1.1606,-32.82,36.0,-2.28
9.1529,5.1213,-2.0703,0.51526,-2.0971,-1.5605,-32.16,35.58,-1.38
11.931,2.8058,-1.2803,0.54123,-2.3918,-1.7168,-31.44,35.1,-0.66
17.148,0.027241,-2.0703,0.72388,-2.7859,-1.9169,-31.08,34.56,-0.18
19.504,-17.271,-5.38,2.6405,-2.7691,-2.1881,-30.66,34.32,-0.18
19.532,-19.246,-3.9635,3.3133,-3.0537,-2.9798,-30.72,34.2,-0.6
19.532,-19.504,0.9398,1.5693,-2.8317,-4.1863,-31.08,34.08,-1.26
14.547,-19.532,2.3155,-0.26817,-2.1777,-4.6826,-32.22,33.42,-2.58
7.7091,-19.532,1.8251,-0.89828,-1.3259,-4.7186,-33.06,33.12,-2.82
2.942,-17.897,1.2667,-0.56536,-0.79229,-4.3601,-33.84,32.34,-3.24
-2.1929,-11.441,1.3893,0.032681,-0.20036,-3.8008,-35.34,30.48,-3.66
-4.4402,-8.0496,2.4517,0.81001,-0.1857,-2.6438,-36.24,29.46,-3.84
-5.7342,-6.4833,2.833,1.2663,-0.39065,-1.3857,-36.96,28.5,-4.02
-8.8941,-4.6718,3.1191,1.4062,-0.26176,-0.065363,-38.4,26.76,-4.5
-12.204,-3.7047,2.9556,1.2379,-0.41997,0.54734,-39.0,26.04,-4.8
-15.786,-2.9692,2.5742,0.91996,-0.85552,0.95387,-39.3,25.38,-5.04
-13.321,-1.9477,1.4438,0.53298,-0.53145,1.1576,-39.9,23.82,-4.68
-9.7794,-2.8603,1.3484,0.26695,0.94318,1.7923,-40.02,23.1,-4.38
-7.1507,-4.4266,0.89894,-0.17074,1.4175,2.5962,-40.08,22.38,-4.14
-3.2144,-9.3027,-0.57205,-0.90103,2.0156,3.6389,-39.66,21.42,-3.66
-0.027241,-15.2,-1.2939,-1.303,2.3976,4.5946,-39.36,21.06,-3.96
9.6432,-19.0,-0.77636,-1.5586,2.3002,4.8176,-38.7,21.24,-4.5
19.177,-19.518,-3.4732,-1.6771,0.21319,1.9438,-37.98,22.08,-6.42
19.504,-19.532,-4.9306,-1.3439,3.2519,2.5061,-37.8,22.86,-7.68
19.532,-17.216,-5.2847,-1.4074,2.9832,2.4059,-37.68,23.7,-9.12
12.245,-7.9543,-4.8488,-0.98044,2.3586,-0.25412,-37.62,24.9,-12.06
10.243,-5.4073,-5.094,-0.3992,2.0125,0.19731,-37.86,25.02,-13.32
9.6296,-3.8137,-4.8216,-0.49022,1.5611,0.63622,-38.04,25.08,-14.16
8.0905,-1.0896,-4.1542,-0.5678,1.3506,0.84941,-38.22,25.08,-14.7
4.7807,2.7241,-3.7865,-0.83566,0.78313,1.4447,-38.1,25.44,-14.7
3.4596,6.0066,-3.6775,-0.95631,0.99357,1.2892,-37.68,25.74,-14.28
3.0646,8.7987,-3.0237,-0.58429,0.36927,0.77305,-37.38,26.34,-13.44
2.833,9.1937,-3.0782,-0.11545,0.12767,0.48014,-37.08,26.52,-12.72
3.051,9.0167,-3.1599,0.26817,0.058032,0.068417,-37.02,26.64,-11.7
3.5277,8.7034,-2.9965,0.50671,-0.045815,-0.2981,-36.78,26.88,-10.56
5.9521,6.6876,-2.6968,0.68295,-0.48533,-0.55039,-35.76,26.82,-7.98
7.2188,5.2847,-2.6696,0.81612,-1.1374,-0.82558,-35.28,26.64,-6.54
8.8941,1.4438,-2.7922,0.91752,-1.7229,-1.1124,-34.8,26.52,-5.22
18.551,-2.2201,-4.0861,1.6215,-2.2022,-1.1106,-33.9,27.0,-3.48
19.409,-10.351,-4.9033,2.4285,-2.5708,-0.88759,-33.24,27.66,-3.12
19.518,-18.347,-4.3994,2.4523,-3.6533,-1.7446,-32.64,28.62,-3.36
19.532,-19.504,-0.99429,0.99754,-3.5977,-3.2794,-32.16,29.94,-4.8
19.382,-19.532,0.68102,-0.51435,-2.3027,-4.0949,-32.22,30.24,-5.94
12.544,-19.532,1.0896,-1.1002,-1.04,-4.1948,-32.4,30.36,-6.66
2.9556,-14.506,0.84446,-0.81673,-0.76725,-3.985,-33.12,30.42,-7.92
-0.76274,-11.768,1.2803,-0.3146,-0.86743,-3.6615,-33.84,30.18,-8.4
-2.5879,-10.42,1.8524,0.27642,-0.85246,-2.8552,-34.56,29.52,-8.7
-6.2926,-6.3062,3.1599,0.70952,-0.44838,-0.87598,-36.3,28.44,-9.3
-8.7851,-4.5901,3.3506,0.74067,-0.25748,0.11515,-36.84,28.02,-9.48
-12.027,-3.1054,3.1191,0.6408,-0.62308,1.0999,-37.74,27.36,-9.3
-15.949,-1.471,2.9556,0.49052,-0.96517,1.2712,-38.04,27.0,-8.82
-12.585,-1.8387,2.2882,0.40012,-0.75533,1.2883,-38.4,26.64,-8.46
-9.7658,-2.7649,2.4108,0.10507,1.0852,2.0681,-38.7,25.98,-7.86
-6.7012,-5.4618,1.5936,-0.2697,1.7422,2.7639,-39.06,24.72,-7.2
-4.8352,-8.3357,0.76274,-0.68783,2.3808,3.3723,-39.24,24.6,-6.78
-3.623,-11.972,0.40861,-1.0586,2.9856,4.1774,-39.12,24.48,-6.96
9.6296,-19.286,-0.027241,-1.2559,3.1713,5.2376,-38.52,24.78,-8.22
17.992,-19.504,-0.44947,-1.0379,0.30604,4.1041,-38.22,25.44,-9.3
19.15,-19.532,-3.228,-0.91538,-0.80543,3.2281,-37.86,26.28,-10.38
19.532,-19.532,-6.4152,-0.53665,1.31,4.7528,-37.14,28.2,-12.24
17.57,-15.2,-6.2517,-0.3259,1.1829,1.6903,-36.9,29.28,-13.08
12.463,-11.782,-5.4618,-0.31276,2.0455,-0.39034,-36.48,30.24,-13.68
10.964,-5.6116,-5.0123,-0.19181,2.6447,-0.29963,-35.52,31.74,-14.46
10.474,-2.9284,-4.6445,-0.36133,1.974,0.040012,-34.86,32.46,-14.64
9.4253,-0.12258,-4.6445,-0.57513,1.0372,0.53878,-34.08,33.18,-14.88
7.355,5.0259,-4.6445,-0.63622,0.054062,0.77763,-32.46,34.62,-14.64
5.3119,8.3765,-4.5083,-0.63286,-0.56688,0.61911,-31.74,34.98,-14.46
3.9363,9.9565,-4.127,-0.59956,-0.67134,0.18295,-31.38,35.4,-14.16
2.6423,10.978,-3.3915,-0.35858,-0.40225,-0.6298,-30.9,35.94,-12.54
3.0646,10.474,-2.9965,-0.03543,-0.30696,-1.0818,-30.54,35.94,-11.4
3.9908,9.3844,-2.8058,0.39615,-0.54275,-1.3604,-30.36,35.7,-10.38
8.1586,4.1542,-3.5685,0.64446,-1.0082,-1.551,-30.24,35.16,-8.82
10.869,1.2939,-3.2689,0.87201,-1.6124,-1.5886,-30.48,34.62,-8.34
14.451,-1.6344,-3.0646,1.1081,-2.2547,-1.3525,-30.84,34.32,-8.16
19.436,-16.045,-5.3528,1.872,-2.6906,-0.72937,-32.1,33.96,-8.76
19.518,-19.096,-5.0531,2.4679,-3.5623,-0.99327,-32.76,33.9,-9.18
19.532,-19.477,-2.9011,1.9236,-3.715,-2.0134,-33.6,33.78,-9.66
19.532,-19.532,-0.57205,-0.68539,-2.4086,-4.0919,-34.68,33.72,-10.26
8.6353,-19.532,2.4653,-1.7013,-1.5965,-4.6762,-36.9,33.0,-10.5
3.0782,-17.339,1.9886,-1.639,-1.2413,-4.8927,-37.98,32.28,-10.38
-1.2122,-12.926,1.6344,-0.11668,-0.6243,-3.9899,-40.26,30.36,-9.96
-4.7671,-6.2109,2.3155,0.72846,-0.10385,-2.5617,-41.28,29.28,-9.72
-5.6524,-4.3177,3.7047,0.90683,0.044593,-1.8329,-42.24,28.14,-9.36
-6.8102,-3.4323,4.0316,0.95203,0.21228,-0.58521,-43.02,27.0,-9.06
-14.683,-1.4029,3.4051,0.68875,-0.40348,0.57574,-44.16,25.2,-8.1
-16.848,-1.1032,2.8467,0.4386,-1.5525,1.2306,-44.58,24.36,-7.44
-13.225,-1.8932,2.2474,0.20861,-1.4132,1.3421,-44.76,23.52,-6.42
-8.1041,-4.4402,2.6968,0.043982,0.44166,1.6228,-45.18,21.54,-4.56
-6.0474,-5.7614,2.3972,-0.38301,1.4456,2.3512,-45.36,20.64,-3.6
-4.7399,-6.5922,2.0294,-0.85185,2.4905,3.0058,-45.36,19.92,-2.88
-1.3757,-11.414,0.21793,-0.99082,2.85,3.5384,-45.0,19.26,-2.7
2.0703,-17.271,0.14982,-0.96456,2.8891,4.5369,-44.94,19.44,-3.12
12.939,-19.246,-0.14982,-0.78069,1.7388,5.1105,-44.52,19.86,-3.78
19.327,-19.532,-5.6524,-0.10537,0.14142,3.7916,-44.46,21.48,-5.7
19.518,-19.532,-7.8045,0.0079412,1.0721,3.3842,-44.46,22.68,-6.42
18.891,-18.565,-7.0145,-0.04948,1.5006,2.675,-44.4,23.88,-7.2
9.2755,-11.523,-5.0259,-0.18784,2.8112,-0.87109,-44.22,26.04,-8.22
9.3708,-6.7285,-4.808,-0.25137,3.6108,-0.50793,-44.04,26.94,-8.58
10.569,-3.9227,-4.6718,-0.49724,3.2758,0.015882,-43.68,27.9,-8.82
9.9292,1.5527,-4.6854,-0.73182,2.3366,0.87415,-42.42,29.76,-9.18
8.8396,4.2087,-4.5628,-0.78313,0.30452,1.208,-41.7,30.72,-9.36
7.8589,5.6116,-4.5356,-0.68692,-0.24129,1.1955,-41.04,31.5,-9.42
5.2847,7.9951,-4.3721,-0.23366,-0.72082,0.54184,-40.5,32.28,-9.24
2.6015,10.215,-4.3449,0.014966,-0.60201,-0.10385,-39.18,33.66,-8.16
2.4244,10.42,-3.732,0.28497,-0.48869,-0.63683,-38.7,34.2,-7.26
5.0531,6.9736,-4.1951,0.67378,-0.59956,-1.0708,-37.14,34.68,-5.34
7.641,4.9306,-3.909,0.69089,-1.5165,-1.1558,-36.48,34.62,-4.62
9.0575,2.3427,-3.5685,0.68509,-2.3802,-1.211,-36.12,34.5,-3.96
17.121,-2.8739,-5.1894,0.95753,-3.0262,-1.1597,-35.82,34.2,-3.36
19.382,-14.724,-6.6059,1.7599,-3.2483,-0.93646,-35.88,34.26,-3.36
19.518,-18.932,-6.1836,2.2504,-3.5128,-1.2898,-36.36,34.44,-3.54
19.532,-19.532,-1.0624,-0.17318,-2.814,-3.7785,-37.68,34.8,-3.96
17.897,-19.532,1.757,-1.9199,-1.6881,-4.6667,-38.52,34.74,-4.08
13.062,-19.532,2.5879,-2.2944,-0.98533,-4.8478,-39.42,34.44,-4.14
1.8387,-16.494,1.3484,-1.7437,-0.80879,-4.7556,-41.28,33.24,-3.84
-2.2065,-11.632,1.2803,-0.76877,-0.36041,-4.4651,-42.36,32.34,-3.54
-4.8625,-8.3493,2.2337,0.38271,-0.044899,-3.463,-43.38,31.32,-3.36
-6.9872,-5.1213,3.337,1.1603,0.047647,-1.4181,-45.42,29.04,-2.88
-7.8862,-4.8625,3.5685,1.073,-0.22235,-0.41142,-46.26,28.02,-2.52
-10.937,-3.7047,3.9363,0.83139,-0.74709,0.29291,-47.1,27.06,-2.16
-15.895,-2.1793,3.4732,0.59407,-1.1414,0.72021,-47.76,25.26,-1.02
-15.813,-1.7434,2.8058,0.35339,-1.0107,0.98502,-48.0,24.36,-0.48
-11.795,-2.833,2.6423,0.12798,0.48533,1.4609,-48.0,23.46,0.18
-7.5321,-5.8023,2.3155,-0.22449,1.5473,2.6582,-48.24,21.78,1.14
-5.3937,-7.4503,2.0294,-1.0033,2.4331,3.2501,-48.3,21.18,1.44
-3.8273,-9.616,1.0896,-1.2071,2.6838,3.5894,-48.06,20.88,1.32
-2.4108,-13.607,0.36775,-1.3958,3.1579,4.5167,-47.88,20.88,0.96
2.7104,-18.605,-0.054481,-1.3699,2.1194,5.3399,-47.7,21.24,0.12
19.164,-19.532,-3.7865,-1.1365,0.14997,3.6282,-47.46,22.98,-2.04
19.491,-19.532,-6.2381,-0.51526,2.5708,3.9221,-47.28,24.24,-3.0
16.889,-13.157,-5.3392,0.021991,1.5693,0.64996,-47.1,27.0,-5.04
11.741,-10.311,-4.8488,0.33323,2.5919,-0.82161,-46.74,28.14,-5.76
10.501,-8.4446,-4.7944,0.23946,3.4004,-0.30513,-46.38,29.22,-6.66
11.019,-4.7535,-4.4811,-0.053756,3.2461,0.13408,-45.96,30.42,-7.26
10.256,0.39499,-4.4266,-0.39462,2.2672,0.55467,-44.34,32.76,-8.28
8.9213,3.1599,-4.2223,-0.77213,0.8262,0.95203,-43.26,33.84,-8.82
5.8976,7.3141,-3.8818,-0.92607,-0.41814,1.0476,-41.4,35.88,-9.48
3.7728,9.6023,-3.8273,-0.78985,-0.84788,0.82406,-40.62,36.84,-9.48
3.1191,11.482,-3.8409,-0.54734,-0.72082,0.48747,-39.84,37.56,-9.36
3.5549,11.291,-2.4517,0.012828,-0.57941,-0.21105,-38.4,38.52,-8.16
4.3721,8.9894,-2.5198,0.67042,-0.67806,-0.69914,-37.5,38.88,-7.56
5.6661,6.6331,-2.9011,0.81825,-0.9502,-1.0101,-36.6,38.88,-6.9
8.6625,2.9556,-1.8932,0.95967,-1.6273,-1.4865,-35.4,38.58,-5.76
11.673,0.27241,-1.4438,0.96486,-1.8732,-1.5959,-35.16,38.52,-5.52
17.475,-3.1735,-2.2201,1.1509,-2.3537,-1.576,-35.46,38.46,-5.4
19.504,-18.537,-4.6718,2.7315,-3.6554,-1.0146,-36.54,38.1,-6.12
19.532,-19.409,-3.7592,2.9169,-4.7144,-2.1264,-37.56,37.86,-6.48
19.532,-19.518,0.42223,1.0119,-4.0699,-3.6206,-38.82,37.56,-6.72
10.774,-19.532,3.5004,-1.616,-1.6612,-4.4416,-41.1,36.48,-7.32
3.7728,-19.532,2.0839,-1.7202,-0.40775,-4.543,-42.42,35.52,-7.5
1.9068,-16.317,1.3076,-1.0162,0.058948,-4.4129,-43.5,34.56,-7.5
-2.9556,-7.1779,0.54481,0.055589,0.36774,-3.8576,-45.66,31.8,-7.68
-4.2768,-5.38,1.471,1.1371,0.0088575,-2.6383,-46.86,30.24,-7.56
-4.7535,-4.3994,2.2882,1.5311,-0.45296,-1.3806,-47.88,28.62,-7.68
-7.5865,-2.2201,2.8194,1.2556,-0.54978,0.20769,-49.44,25.62,-7.8
-10.937,-0.8036,2.8058,1.0455,-0.74159,0.75656,-49.86,24.24,-7.8
-13.961,0.054481,2.4108,0.79168,-1.2388,1.2046,-49.98,23.04,-7.5
-14.601,-0.70826,1.7162,0.37782,-1.335,1.6774,-50.1,20.52,-6.42
-9.507,-2.8603,1.9341,-0.018021,0.34117,2.0214,-49.86,19.44,-5.94
-6.7966,-4.3994,2.833,-0.62308,1.5543,2.5809,-49.44,18.42,-5.64
-2.6015,-7.7091,2.2201,-1.2333,2.2984,3.2464,-48.66,17.1,-5.46
-1.7162,-10.093,0.92618,-1.3726,2.7022,3.8924,-48.12,16.92,-5.88
1.7843,-17.638,-0.85808,-1.0873,2.7074,4.8723,-47.7,16.86,-6.6
15.745,-19.477,-1.5119,-1.091,1.1173,4.8939,-47.34,17.88,-8.82
19.3,-19.532,-4.1814,-0.83994,0.69119,2.795,-47.28,18.96,-9.9
19.504,-19.532,-6.96,-0.85002,3.2635,2.3683,-47.46,20.22,-10.86
15.922,-12.967,-5.1213,-0.41753,2.2052,0.47373,-47.7,22.74,-12.9
12.476,-10.025,-5.1485,0.29749,2.781,-1.5418,-48.0,23.64,-13.68
11.822,-8.0088,-5.2983,0.26481,2.6735,-1.2052,-48.12,24.36,-14.4
10.637,-4.2495,-4.9987,-0.34025,1.9713,-0.61331,-48.24,25.08,-15.18
4.7944,1.0351,-5.3528,-1.2853,0.94318,-0.12767,-48.3,26.16,-16.02
2.5198,4.2904,-4.6718,-1.8512,1.062,0.0067195,-48.3,26.76,-16.02
1.8387,7.246,-4.127,-1.4343,0.23243,-0.18173,-48.48,27.24,-15.84
0.72188,10.61,-3.2144,-0.5904,-0.10507,-0.14478,-48.36,28.02,-14.76
0.61292,10.801,-2.8058,-0.37904,-0.21686,-0.15211,-48.48,28.26,-13.92
0.61292,10.447,-2.1793,-0.23152,-0.17165,-0.29749,-48.36,28.62,-12.72
1.2258,10.215,-1.1441,0.002138,-0.35797,-0.41233,-47.46,28.32,-10.44
3.1463,8.6625,-0.57205,0.43219,-0.78466,-0.62766,-47.1,27.96,-9.54
6.9328,4.9442,-0.14982,0.81367,-1.2294,-0.83017,-46.86,27.54,-8.76
15.868,0.84446,-1.2258,1.8173,-2.1759,-0.91202,-47.1,27.48,-8.52
19.314,-8.145,-4.6854,3.1227,-2.543,-0.66371,-47.1,27.9,-8.76
19.477,-15.8,-5.6116,4.2281,-3.1606,-1.0461,-47.16,28.5,-9.0
19.532,-19.477,-4.127,3.6576,-4.3527,-2.6899,-47.46,29.76,-9.72
19.532,-19.532,-2.0567,1.2846,-3.6502,-4.0067,-47.64,30.12,-10.26
16.753,-19.532,0.27241,-1.0272,-2.0018,-4.262,-47.82,30.18,-10.68
2.8467,-17.706,0.72188,-1.6304,-0.61087,-4.2776,-48.78,29.58,-11.22
0.57205,-12.803,0.35413,-0.67592,0.15119,-3.9007,-49.2,28.92,-11.22
-2.2474,-8.54,0.19068,-0.16157,0.21441,-3.6441,-49.68,27.96,-11.16
-5.3119,-5.4209,2.4653,1.0052,-0.57269,-2.0046,-50.64,25.98,-10.98
-6.3471,-4.4402,3.2008,1.1191,-0.47128,-0.5681,-51.0,24.9,-10.74
-10.188,-3.1191,3.4732,1.058,-0.20647,0.45998,-51.18,23.88,-10.26
-18.061,-0.77636,3.1191,0.79596,-1.3607,1.4206,-50.88,21.66,-8.4
-16.508,-0.40861,2.3018,0.46701,-1.7376,1.5696,-50.82,20.4,-7.08
-13.089,-1.6072,2.1929,0.25229,0.24038,1.9166,-50.64,19.02,-5.88
-7.6138,-4.8761,3.1327,-0.26481,1.3247,2.6255,-50.4,16.62,-3.96
-5.203,-6.3471,2.9556,-0.89461,1.9719,3.1924,-50.22,15.84,-3.24
-2.7922,-8.2267,2.7241,-1.3943,2.3784,3.6527,-50.04,15.3,-2.76
3.0373,-17.72,2.3427,-1.7532,2.4749,4.5824,-49.08,15.3,-2.76
8.0632,-19.082,2.5742,-1.8387,1.2569,4.864,-48.3,15.78,-3.36
17.57,-19.477,0.8717,-0.92638,0.58338,3.748,-47.76,16.44,-4.2
19.504,-19.532,-6.2926,-0.54917,2.8772,2.8616,-47.22,18.66,-6.24
19.532,-19.423,-6.3743,-1.3213,1.8775,2.0281,-47.1,19.86,-7.44
13.675,-15.623,-5.3528,-1.6203,1.9044,-0.44563,-47.1,21.0,-8.7
9.7113,-6.9464,-6.4152,-1.4529,2.0708,0.78405,-47.64,22.62,-10.68
9.3844,-4.9442,-6.1836,-1.3686,1.7947,1.3008,-47.88,23.34,-11.22
7.7636,-1.7706,-6.6331,-1.7446,2.5366,1.6548,-47.94,24.0,-11.58
7.3822,3.2144,-4.5356,-1.8977,2.4716,1.7367,-47.16,25.62,-11.58
7.246,7.2188,-3.3097,-1.3857,1.1054,1.5241,-46.56,26.4,-11.4
6.3062,9.398,-2.7922,-0.61758,0.017715,1.4038,-45.84,27.24,-11.1
4.9714,12.163,-2.3563,-0.16524,-0.52168,1.0858,-44.4,28.68,-9.84
4.5628,12.572,-1.8251,0.081856,-0.54428,0.046731,-43.8,29.4,-8.82
4.3449,12.108,-1.7706,0.24923,-0.65424,-0.34544,-43.08,30.12,-7.74
5.2575,9.0575,-1.9886,0.80909,-1.1695,-0.74892,-42.18,30.54,-6.54
9.6568,4.6582,-2.2882,1.3781,-1.6267,-1.4218,-40.8,30.96,-3.72
12.871,1.2939,-3.0918,1.708,-1.9273,-1.784,-40.2,31.26,-2.52
18.006,-3.2825,-4.9442,2.0531,-1.7541,-2.018,-39.6,31.8,-1.74
19.504,-18.51,-6.3743,2.9563,-1.4175,-2.2529,-38.16,33.54,-1.32
19.532,-19.409,-4.2904,2.7895,-2.0583,-2.6353,-37.86,34.32,-1.92
19.532,-19.518,-2.0294,1.2547,-2.9648,-3.8396,-37.8,34.86,-2.7
15.99,-19.532,1.8524,-1.4917,-2.6469,-4.2724,-38.46,35.04,-3.9
8.3901,-19.532,2.0703,-2.0763,-1.8677,-4.2159,-39.18,34.8,-4.38
1.7162,-15.868,0.96704,-1.5681,-1.3934,-4.0284,-39.9,34.38,-4.56
-3.5413,-8.1177,1.3212,0.060476,-0.8995,-3.1942,-41.88,32.52,-4.8
-4.9987,-5.993,3.2689,0.5904,-0.81795,-2.5632,-42.9,31.14,-4.74
-5.2847,-5.2166,4.2223,1.1304,-0.75411,-1.1228,-43.92,29.94,-4.86
-9.7113,-3.2553,5.6933,1.0382,-0.3149,0.38332,-45.18,28.02,-4.92
-14.601,-2.0839,5.6116,0.92271,-0.6408,1.014,-45.54,27.06,-4.56
-17.965,-0.72188,4.985,0.82222,-1.5357,1.4432,-45.54,26.16,-4.02
-9.8748,-2.7241,3.9499,0.76114,0.11698,1.8222,-45.48,24.24,-2.64
-8.5672,-3.9635,3.9227,0.4441,1.16,2.4954,-45.36,23.28,-1.92
-6.4424,-5.7478,3.1191,-0.06689,1.7559,3.076,-45.36,22.38,-1.08
-1.6072,-9.2346,2.3427,-0.53787,2.1142,3.4499,-44.88,21.66,-0.42
0.7355,-12.177,2.0567,-0.93126,2.1035,3.777,-44.4,21.6,-0.54
6.279,-18.578,1.1032,-1.1121,1.8592,4.2739,-43.98,21.72,-1.14
18.578,-19.504,-2.6287,-0.14416,0.83139,3.821,-43.2,22.92,-2.76
19.477,-19.532,-6.0338,0.71349,2.7498,2.4844,-42.84,23.7,-3.72
19.518,-19.532,-7.1915,0.22755,2.5583,2.2883,-42.54,24.48,-4.62
18.633,-16.44,-6.2381,0.069028,1.653,-0.64568,-42.36,25.5,-5.58
13.416,-13.062,-5.8023,0.14416,2.412,-1.1078,-42.24,26.16,-6.6
8.9486,-6.8374,-5.8976,-0.082772,2.6475,-0.84208,-42.24,26.94,-8.28
8.0632,-4.1406,-6.2654,-0.61789,2.4948,-0.51038,-42.3,27.3,-8.76
5.8023,1.185,-6.0883,-1.8112,3.4044,-0.16249,-41.64,27.9,-9.3
5.5843,4.0044,-5.1485,-2.0913,2.5678,-0.24618,-41.22,28.26,-9.48
4.7126,5.5707,-4.7263,-1.5937,0.69486,-0.031154,-40.74,28.44,-9.48
3.0101,7.4912,-4.3449,-1.1338,0.025351,0.018631,-40.38,28.62,-9.24
0.78998,10.243,-3.732,-0.75075,-0.17593,-0.13592,-39.72,28.8,-8.46
1.5119,11.196,-3.0237,-0.32681,-1.0534,-0.24923,-39.42,28.68,-7.74
3.3234,9.6296,-2.8194,0.17257,-1.4056,-0.28069,-38.1,28.5,-6.24
5.1213,7.7091,-2.5061,1.1921,-2.0913,-0.61148,-37.56,28.2,-5.4
8.2539,5.489,-3.1327,1.4966,-2.3335,-0.70127,-37.02,27.84,-4.62
17.366,-0.70826,-4.6718,2.0238,-2.853,-1.1768,-36.18,27.36,-3.42
19.395,-7.0962,-6.3471,2.303,-2.9978,-1.4896,-35.94,27.54,-3.36
19.518,-17.924,-6.1564,2.5733,-3.1814,-1.7116,-35.7,27.72,-3.72
19.532,-19.477,-2.9965,0.99479,-3.3958,-2.8552,-36.12,28.14,-4.86
19.532,-19.532,-0.58567,-1.0818,-2.5864,-3.5003,-36.24,28.14,-5.34
18.129,-19.532,0.85808,-1.7581,-2.0314,-3.7904,-36.66,28.02,-5.7
5.5843,-17.897,1.2531,-1.948,-0.85552,-4.0601,-37.74,27.42,-6.24
1.9613,-14.301,0.65378,-1.3354,-0.64599,-3.9019,-38.52,26.76,-6.3
-0.96704,-11.128,0.72188,-0.70494,-0.8604,-2.9661,-39.9,25.08,-6.36
-3.5004,-7.5184,3.2553,-0.44013,-1.5003,-1.8934,-40.86,24.12,-6.36
-5.489,-5.2575,4.3858,-0.39584,-1.43,-1.383,-41.58,23.28,-6.12
-8.7443,-3.0646,4.5628,0.1576,-0.28619,-0.19548,-42.24,22.32,-5.94
-16.208,-0.64016,4.0997,0.52412,-0.42241,0.45082,-42.84,20.82,-5.16
-16.208,-1.0896,4.2768,0.63713,-1.0033,1.0293,-43.02,19.86,-4.56
-10.937,-3.0373,4.5356,0.63102,-0.037874,1.3415,-43.2,18.9,-3.72
-6.2517,-5.4754,4.0725,0.29535,1.0595,2.5482,-43.26,17.22,-2.22
-4.0725,-7.2869,3.337,0.0281,1.3702,3.1722,-43.44,16.56,-1.56
-2.7377,-8.0224,2.7513,-0.03879,1.5556,3.6896,-43.26,16.14,-1.32
1.0215,-15.078,-0.8036,0.29077,1.7199,4.4104,-42.72,15.66,-1.26
8.3493,-18.973,-2.261,1.0073,1.752,5.5289,-42.36,16.02,-1.68
17.216,-19.463,-3.9635,1.7617,1.5281,5.0913,-42.12,16.68,-2.58
19.504,-19.532,-8.3493,1.7697,2.9551,2.5391,-41.58,18.36,-4.8
19.532,-19.532,-8.7034,0.98105,2.1081,2.0269,-41.52,19.26,-6.18
18.319,-16.644,-7.4367,0.1854,1.0739,-0.32834,-41.52,20.16,-7.5
11.863,-11.032,-6.279,-0.40134,1.4951,-0.28894,-42.0,21.48,-9.54
11.223,-7.3822,-5.9521,-0.87018,1.7407,0.20311,-41.94,22.02,-10.2
9.9565,-2.7649,-5.2166,-1.354,1.6273,0.43433,-41.76,22.56,-10.68
7.1234,3.0373,-4.6582,-2.0882,1.4792,0.58979,-40.8,23.7,-11.22
6.2381,5.0531,-4.0044,-1.8747,0.84116,0.30177,-40.26,24.3,-11.34
4.6309,7.9951,-2.9965,-1.5669,0.48808,0.10629,-39.9,24.6,-11.22
1.7979,10.774,-2.6287,-0.45021,-0.12614,-0.34453,-39.0,25.38,-10.86
0.7355,11.128,-2.6151,-0.12614,-0.41325,-0.65454,-38.52,25.56,-10.26
-0.095342,10.433,-2.833,0.022297,-0.52657,-0.88759,-38.04,25.62,-9.24
2.6015,7.5729,-2.6423,0.50121,-0.6298,-1.0372,-37.2,25.32,-6.96
4.5492,6.2245,-2.9965,0.88942,-1.1823,-1.0061,-36.6,24.96,-5.76
7.1779,3.8001,-3.3915,1.2019,-1.8118,-0.96731,-36.18,24.66,-4.98
11.387,1.3076,-3.7456,1.5944,-2.3274,-0.95539,-35.82,24.42,-4.5
19.314,-11.182,-7.6546,2.262,-2.5177,-0.84238,-35.4,24.96,-4.5
19.504,-18.469,-8.2403,2.73,-2.584,-1.4838,-35.52,25.38,-5.1
19.532,-19.409,-4.5083,1.1823,-2.7086,-3.8152,-36.18,25.62,-6.24
19.532,-19.532,-1.5119,-0.91538,-2.4325,-4.0125,-36.78,25.68,-6.84
16.086,-19.532,0.8036,-1.5702,-2.324,-4.1817,-37.32,25.56,-7.32
9.221,-19.0,1.2803,-1.836,-1.8216,-4.2788,-37.92,25.26,-7.56
1.0624,-13.525,1.1986,-1.1298,-1.2874,-3.9538,-39.54,24.3,-7.92
-3.3097,-9.0303,2.3563,-0.29077,-0.69761,-3.4352,-40.32,23.64,-8.04
-5.0531,-6.4833,4.3449,0.39859,-0.22083,-2.4456,-41.04,22.92,-8.1
-9.5206,-3.3506,4.8352,0.83841,0.50091,-0.7477,-42.42,21.78,-8.22
-13.988,-2.3972,4.7535,0.91538,0.32865,-0.30116,-42.78,21.12,-7.86
-16.699,-1.7025,4.6309,0.91599,-0.79993,0.62094,-43.02,20.64,-7.5
-14.587,-1.3076,3.3506,0.72388,-1.6548,1.3173,-43.38,19.26,-6.0
-11.782,-2.6423,3.3506,0.70677,-0.022297,1.7972,-43.74,18.48,-5.16
-9.398,-6.3198,2.5742,0.15638,1.2422,2.9951,-43.92,17.4,-3.66
-4.0316,-8.3765,2.3155,-0.36377,1.813,3.6282,-43.92,17.04,-2.88
-1.0215,-10.924,1.5936,-0.63225,1.9713,3.8698,-43.98,16.92,-2.58
1.4982,-15.023,0.47671,-0.99296,2.2113,4.2205,-43.92,17.1,-2.64
10.569,-19.382,-0.36775,-1.2058,2.1667,4.8161,-43.38,18.42,-3.54
18.823,-19.518,-1.8387,-1.2565,1.0666,3.842,-43.14,19.38,-4.44
19.45,-19.532,-3.5413,-0.39645,3.4181,2.4416,-42.84,20.64,-5.22
19.205,-14.669,-5.8295,0.03543,2.5476,1.9856,-42.6,23.34,-7.38
14.329,-11.305,-5.4754,0.66951,1.5788,-0.32651,-42.48,24.72,-8.58
11.754,-9.902,-5.6388,0.91844,1.6875,-0.34392,-42.66,25.74,-9.54
9.8066,-7.1507,-5.5707,0.49541,1.9627,0.62125,-42.84,26.4,-10.68
8.9213,-3.1872,-4.522,-0.26603,1.948,1.0672,-42.54,28.02,-11.94
7.0009,0.24517,-4.9578,-0.85185,1.847,1.2281,-42.24,28.86,-12.24
5.598,4.8352,-4.5628,-1.6084,2.193,1.1121,-41.64,29.52,-12.48
5.598,4.8352,-4.5628,-1.0599,0.41569,0.74037,-40.98,30.42,-12.84
3.5549,9.5206,-4.1814,-0.24832,-0.38393,0.64813,-39.36,32.04,-12.6
2.942,10.46,-4.2632,0.11393,-0.83872,0.43188,-38.64,32.46,-12.24
2.5742,11.169,-4.2087,0.22633,-0.77458,-0.056505,-37.2,33.24,-11.1
4.6173,8.2812,-4.4539,0.58521,-1.1011,-0.3653,-35.46,33.36,-9.54
7.8862,5.6933,-4.1951,0.7929,-1.6698,-0.50855,-33.84,33.3,-7.56
12.681,1.6889,-4.1678,0.67531,-2.3268,-1.098,-32.16,33.9,-5.94
16.372,-0.89894,-4.5356,0.65668,-2.8225,-1.3244,-31.74,34.26,-5.58
19.436,-12.0,-6.6195,1.335,-2.9447,-1.4169,-31.92,34.8,-6.0
19.532,-19.409,-4.9306,1.8656,-2.9343,-1.9801,-34.26,34.8,-7.08
19.532,-19.504,-3.1191,0.80207,-3.0082,-3.226,-35.22,34.56,-7.5
19.532,-19.532,0.61292,-0.98869,-2.646,-4.1673,-37.14,33.9,-8.16
11.959,-19.532,2.3836,-1.8393,-1.81,-4.6013,-39.3,32.94,-8.52
4.413,-18.837,2.0431,-1.3375,-1.0754,-4.3875,-41.1,31.62,-8.94
-0.44947,-13.443,2.1656,-0.54245,-0.68295,-4.0623,-42.84,30.42,-8.64
-4.0861,-8.6081,3.0237,0.43646,-0.28283,-3.2019,-43.74,29.04,-8.04
-6.1292,-6.3198,3.4323,1.0143,-0.087659,-1.956,-43.86,28.08,-7.44
-7.464,-5.4481,3.5549,1.0748,-0.0039706,-0.90469,-44.28,25.92,-6.12
-12.408,-3.1872,3.4732,0.90164,-0.37568,-0.062614,-44.64,23.7,-4.62
-14.247,-2.3836,3.4596,0.61209,-1.3195,0.81948,-44.7,22.68,-3.9
-14.901,-1.0079,2.9692,0.50763,-1.014,1.1301,-45.0,20.88,-2.34
-11.06,-1.7298,2.833,0.42638,0.46914,1.5357,-45.12,20.22,-1.68
-7.1915,-4.5764,2.261,0.23793,1.3375,2.2455,-45.24,19.32,-0.72
-4.4402,-7.6002,1.7843,-0.10476,1.821,2.9138,-44.7,19.26,-0.3
-2.656,-10.583,1.0215,-0.51282,2.1915,3.5519,-44.4,19.38,-0.48
-1.1986,-18.183,-0.7355,-0.73121,2.4868,4.9645,-43.68,20.4,-1.86
15.936,-19.518,-0.42223,-0.7532,2.2092,5.1294,-43.56,21.24,-2.76
18.633,-19.504,-1.9886,-0.71105,0.66401,2.4254,-43.2,22.2,-3.78
19.504,-19.532,-4.3858,-0.70952,2.7083,2.1579,-43.32,24.3,-5.7
19.532,-18.878,-5.0804,-0.69852,2.6481,2.1579,-43.38,25.44,-6.6
11.972,-11.182,-4.9033,-0.33353,2.321,0.015882,-43.8,27.24,-8.64
10.215,-7.3414,-4.9306,-0.19212,2.74,0.28039,-44.1,28.62,-10.38
9.8884,-4.2904,-4.4402,-0.57391,2.3653,0.88698,-44.1,29.28,-10.98
7.8862,-0.61292,-4.2768,-0.87262,2.0299,1.2236,-43.62,30.54,-11.46
6.8374,4.2359,-4.413,-1.004,1.5296,1.5415,-42.66,31.62,-11.34
6.3879,6.3335,-4.4539,-0.75411,0.98227,1.4621,-42.06,32.04,-10.98
5.1213,11.21,-4.5492,-0.40256,0.43952,1.1771,-40.8,32.88,-9.78
4.8352,11.741,-4.3313,-0.23396,0.0054978,0.71807,-39.84,33.12,-9.06
4.9714,9.4117,-4.3449,0.10843,-0.2813,-0.40684,-37.62,33.66,-7.68
6.7557,7.1234,-4.5356,0.13347,-0.45418,-0.78496,-35.28,33.96,-6.12
7.7636,6.0338,-4.6718,0.22694,-0.93585,-1.1051,-34.26,34.26,-5.4
10.624,2.4244,-4.5764,0.19426,-1.5794,-1.4499,-32.76,34.8,-4.5
17.543,-3.2144,-5.0531,0.047037,-2.2086,-1.7782,-32.34,34.98,-4.2
19.409,-14.111,-6.3062,0.31734,-2.5094,-1.6576,-33.06,34.98,-4.62
19.504,-18.183,-6.1428,1.2132,-3.2794,-1.8805,-34.68,34.68,-5.34
19.532,-19.491,-3.4868,0.4609,-3.4981,-3.3155,-35.46,34.5,-5.88
19.532,-19.532,-0.27241,-1.0531,-2.7287,-4.5726,-37.32,33.72,-6.48
13.511,-19.532,1.3757,-1.8176,-1.751,-5.0818,-39.48,32.46,-6.84
5.598,-19.395,1.0624,-1.6997,-1.3048,-5.0076,-40.44,31.62,-6.72
-0.61292,-13.852,0.69464,-1.0605,-1.0971,-4.5442,-42.48,29.82,-6.66
-3.4459,-10.746,2.0567,0.30849,-0.97555,-2.9377,-43.86,27.66,-6.18
-4.2768,-8.9213,3.3234,0.6973,-1.0391,-1.514,-44.28,26.52,-5.76
-6.0202,-6.2517,4.9578,0.68722,-0.90591,-0.32162,-45.3,24.24,-4.44
-12.231,-3.4732,5.4754,0.5452,-0.81276,0.38576,-45.84,22.08,-2.94
-16.018,-2.4517,4.9714,0.44929,-1.0217,0.95936,-45.96,21.06,-2.04
-17.584,-1.9341,4.1406,0.36041,-1.4047,1.5012,-46.5,18.84,-0.12
-10.256,-5.4754,4.699,0.25779,1.0629,2.1542,-46.62,17.58,1.62
-7.6002,-7.3141,4.522,-0.14355,1.7242,2.9157,-46.62,17.16,2.28
-4.9306,-9.7385,4.5901,-0.60628,2.0598,3.5375,-46.38,16.98,2.94
-2.6423,-13.484,3.6911,-0.88148,2.4056,4.1478,-46.08,17.1,3.0
0.19068,-16.331,2.7786,-0.74526,2.5785,5.0546,-45.36,18.54,2.52
13.157,-19.436,-1.0896,0.037874,2.2684,5.3157,-44.64,20.4,1.14
19.109,-19.532,-4.6037,1.1796,1.7507,4.6737,-44.1,22.38,-0.66
19.423,-19.532,-5.2847,1.9792,2.6334,3.5983,-43.86,23.46,-1.56
19.532,-19.532,-7.8181,1.5033,3.2351,3.7263,-43.26,25.68,-3.24
18.183,-15.445,-6.8647,0.84574,2.503,1.9868,-42.24,28.02,-4.86
12.803,-8.0632,-5.8295,0.1628,2.8121,0.8937,-40.44,30.24,-6.36
11.741,-5.5571,-5.6661,-0.18998,2.9364,0.63561,-38.34,32.4,-7.44
11.032,-0.8036,-5.993,-0.31857,2.3399,0.87232,-37.26,33.54,-7.86
10.774,5.2166,-6.8647,-0.094684,1.492,1.0397,-35.28,35.1,-8.58
9.507,8.3493,-7.2869,0.34575,0.54123,0.96089,-32.88,36.6,-8.94
7.6274,9.2891,-7.1507,0.66157,-0.13378,0.4945,-31.68,37.2,-9.06
5.6388,9.3436,-6.5786,0.7141,-0.51801,-0.24893,-28.98,38.64,-9.18
5.8431,9.4253,-5.884,0.58857,-0.68203,-0.91691,-26.7,39.42,-9.42
7.0962,7.75,-5.3392,0.49572,-1.0876,-1.3653,-25.08,40.08,-9.78
8.1722,5.1485,-4.9169,0.36224,-2.2434,-1.9019,-24.84,40.26,-9.9
9.793,1.3348,-3.228,0.037568,-3.0891,-2.1857,-25.26,40.08,-10.02
15.854,-3.3097,-2.6423,-0.33139,-3.4966,-2.3775,-26.52,39.42,-9.84
18.605,-8.3765,-3.9363,0.084299,-3.2843,-2.2315,-27.66,38.88,-9.66
19.504,-19.109,-4.0316,1.4884,-2.8054,-1.9083,-30.48,37.8,-9.06
19.532,-19.518,1.471,1.2361,-2.9157,-2.9486,-33.48,36.84,-9.06
19.532,-19.532,4.0316,-1.4859,-2.3246,-4.3946,-34.98,36.18,-8.94
9.2482,-19.532,4.3177,-1.5852,-1.6261,-4.9908,-37.86,34.68,-8.64
3.6366,-19.532,2.152,-0.83169,-1.1958,-5.0592,-39.24,33.84,-8.16
-1.6072,-14.261,1.6208,-0.015272,-0.78679,-4.8048,-41.88,31.86,-7.2
-5.1076,-8.8124,3.0646,0.75564,-0.53665,-3.5635,-44.22,29.7,-6.18
-6.4016,-6.0883,3.4596,1.1328,-0.26176,-1.8595,-45.9,27.18,-5.58
-8.0905,-4.3449,3.732,1.0171,-0.197,-0.0085521,-46.44,26.16,-5.46
-12.163,-1.9341,4.018,0.90225,-0.57482,0.5678,-46.8,24.3,-4.74
-15.977,-0.62654,3.8682,0.81764,-1.0235,0.88667,-46.86,22.5,-3.66
-16.903,0.068102,3.1599,0.7138,-1.0742,1.2398,-46.98,21.6,-3.12
-10.297,-2.6696,3.5685,0.52687,0.54336,1.8069,-47.04,20.22,-1.86
-5.9521,-5.7886,4.3177,0.077274,1.6118,2.4957,-46.98,19.86,-1.5
-4.4402,-6.8647,4.5083,-0.61758,2.1411,3.0403,-46.44,19.62,-1.74
-2.0703,-9.7794,3.7456,-1.3308,2.558,3.667,-45.3,20.58,-2.58
0.6674,-17.979,1.5255,-1.3256,2.9221,4.3836,-44.04,22.26,-4.62
5.4618,-19.15,0.6674,-1.1338,2.7687,4.9608,-43.14,24.24,-7.38
17.23,-19.504,0.1362,-0.9053,1.0214,3.7864,-43.14,25.26,-8.58
19.463,-19.532,-4.5901,-0.32742,0.72968,1.7688,-43.38,27.78,-10.98
18.061,-18.796,-6.2109,0.069639,2.8045,2.5253,-43.56,30.12,-12.36
13.539,-15.432,-5.1894,0.24679,2.1145,0.08827,-43.56,31.08,-13.08
9.7249,-10.12,-4.7399,-0.098349,2.8961,0.33811,-43.08,32.76,-13.92
10.42,-3.6775,-3.8137,-0.67776,2.8592,0.84574,-42.06,34.14,-14.04
10.311,-1.7025,-3.9227,-1.047,2.4056,1.0669,-41.46,34.92,-13.92
9.793,3.0101,-3.9908,-1.3088,1.5168,1.4413,-40.26,36.18,-13.2
8.7034,6.565,-4.0589,-0.88942,0.1179,1.3763,-38.76,37.2,-11.52
7.7908,8.1586,-4.2087,-0.63713,-0.085521,1.1924,-37.86,37.68,-10.32
6.0474,10.474,-4.4811,-0.11545,-0.29658,0.26359,-35.04,38.58,-8.4
5.7069,10.706,-3.9908,0.12217,-0.36957,-0.50152,-31.74,39.48,-7.32
7.1643,8.0224,-4.2223,0.35522,-0.50366,-1.0705,-29.22,40.14,-6.72
7.9679,6.9191,-4.0589,0.39156,-1.1075,-1.3778,-28.14,40.62,-6.6
9.8339,3.8954,-3.6094,0.39004,-2.0238,-1.6365,-27.6,41.1,-6.36
12.313,-1.0488,-2.4244,0.19548,-2.8567,-1.8833,-27.36,41.46,-6.24
18.415,-6.3198,-3.5685,0.13897,-3.233,-1.9743,-28.08,41.46,-5.88
19.395,-16.072,-4.5356,1.0308,-2.97,-1.7608,-28.8,41.22,-5.7
19.518,-19.096,-3.7047,1.6127,-3.1515,-2.408,-29.58,41.28,-5.76
19.532,-19.532,1.6753,0.31307,-2.8369,-3.7263,-31.5,40.98,-6.0
16.671,-19.532,4.1542,-1.3427,-2.0577,-4.4315,-32.52,40.56,-6.0
9.3572,-19.532,3.5685,-1.7132,-1.2236,-4.6908,-33.72,40.02,-5.94
-0.35413,-15.704,1.5119,-0.72113,-0.90225,-4.6252,-36.3,38.52,-5.46
-3.6366,-10.27,1.8387,0.28497,-0.53542,-3.9544,-37.68,37.5,-4.98
-5.5843,-7.464,2.3972,1.091,-0.39859,-2.5876,-39.06,36.3,-4.5
-7.8726,-4.6582,3.0237,1.2098,-0.45571,-0.65851,-41.52,33.96,-3.66
-10.065,-3.5549,3.0101,1.0314,-0.5681,0.10782,-42.6,32.76,-3.3
-11.7,-2.7922,2.9965,0.9838,-0.64446,0.36346,-43.56,31.74,-3.0
-15.173,-1.6753,2.5879,0.74006,-0.72418,0.79932,-44.82,29.82,-2.1
-11.346,-2.7241,2.4108,0.4444,-0.032376,1.0669,-45.3,29.04,-1.62
-8.5808,-4.127,2.9556,0.031154,0.93982,1.6848,-45.6,28.02,-0.96
-5.1349,-6.8374,3.0237,-0.86376,1.4716,2.6118,-45.78,26.76,-0.18
-3.8409,-8.5808,2.547,-1.3326,1.8531,3.16,-45.66,26.64,-0.18
-3.8546,-11.741,2.0839,-1.5293,2.4328,3.9651,-45.48,26.46,-0.18
4.2359,-19.15,1.7298,-1.3509,2.9563,5.2333,-44.7,27.06,-1.38
15.432,-19.504,1.9068,-0.53573,2.4157,5.5705,-44.28,27.9,-2.58
19.028,-19.532,-1.0079,0.69058,0.93371,4.5858,-43.92,29.04,-3.84
19.518,-19.532,-5.4345,1.2895,1.2349,4.4578,-43.8,31.44,-5.82
15.827,-17.094,-5.5843,1.4627,1.1894,1.642,-43.5,32.64,-6.54
11.169,-14.846,-3.732,1.3308,2.3708,-0.34178,-43.02,33.72,-6.96
10.583,-7.9407,-3.6775,0.46701,3.5745,-0.092241,-41.4,35.88,-7.92
13.021,-4.0861,-4.0316,-0.29627,3.3243,0.81337,-40.02,36.9,-8.52
14.805,-0.92618,-4.6718,-0.57849,2.0629,1.2272,-38.46,38.04,-9.12
11.822,4.2223,-5.8023,-0.69791,0.48289,1.3992,-35.52,39.96,-9.9
8.3357,7.0826,-6.1292,-0.46487,-0.85888,0.86499,-34.02,40.74,-10.26
6.5922,9.3844,-6.0611,-0.38179,-0.88087,0.45723,-32.7,41.46,-10.44
4.7535,10.338,-5.598,-0.050091,-0.46762,-0.80634,-31.44,42.0,-10.26
5.7069,8.6353,-5.38,0.10629,-0.16035,-1.3686,-29.1,42.66,-9.24
7.2188,6.7966,-5.5162,0.10751,-0.48778,-1.7471,-27.78,42.78,-8.64
9.6568,4.5901,-5.6797,-0.11026,-1.4236,-1.9407,-26.46,42.72,-7.92
11.441,-0.64016,-4.2495,-0.77946,-2.9517,-2.2895,-24.66,42.66,-6.96
13.866,-3.3642,-3.3506,-1.149,-3.3863,-2.4154,-24.42,42.48,-6.78
17.543,-5.8023,-4.5083,-0.61423,-3.1826,-2.1615,-24.54,42.36,-6.78
19.504,-18.932,-5.8023,0.8207,-2.7746,-1.7685,-26.46,42.12,-6.96
19.532,-19.463,-3.6366,0.9108,-2.8815,-2.7816,-28.02,42.06,-7.08
19.532,-19.532,2.4925,-0.59895,-2.8439,-3.8882,-29.46,41.88,-7.02
10.229,-19.532,4.018,-2.0009,-2.0436,-4.6545,-32.64,41.04,-6.66
4.8761,-19.518,2.9556,-1.7782,-1.6054,-4.7458,-34.14,40.32,-6.18
2.0294,-17.38,2.3155,-1.4465,-1.3763,-4.7354,-35.82,39.54,-5.7
-5.2166,-8.6489,2.2474,0.27214,-0.19028,-3.6426,-39.24,37.44,-4.5
-6.6604,-6.4424,2.8058,1.062,0.089186,-2.0601,-40.98,36.12,-3.78
-7.3958,-5.1349,3.8001,1.1955,0.072693,-0.63499,-42.54,34.86,-3.3
-10.665,-2.833,4.2087,0.99113,-0.33567,0.74128,-44.94,32.7,-2.52
-14.097,-1.4029,4.0589,0.84269,-0.7086,1.2932,-45.66,31.8,-2.16
-15.268,-1.0896,3.9227,0.64874,-0.74159,1.6594,-46.2,30.84,-1.8
-9.7658,-3.0646,3.5413,0.47861,0.23152,2.0369,-46.62,29.28,-0.54
-7.0826,-4.6445,3.5004,0.27122,1.5061,2.6628,-46.62,28.44,0.12
-4.7807,-6.0747,3.1191,-0.061392,2.1032,3.182,-46.56,27.9,0.54
-0.31327,-10.447,2.3699,-0.56597,2.6276,3.5931,-46.26,27.42,0.24
1.6481,-15.99,2.438,-1.007,2.9282,3.9086,-46.08,27.72,-0.3
5.3119,-18.646,2.8739,-1.4053,3.0311,3.9813,-45.72,28.14,-1.26
18.973,-19.518,-0.068102,-1.5882,2.1301,1.8827,-45.24,29.7,-3.3
19.463,-19.532,-2.5061,-0.62705,2.9993,1.6753,-45.12,30.72,-4.44
19.532,-19.382,-4.3721,-0.53603,3.6166,2.1634,-45.12,31.98,-5.46
13.866,-12.612,-4.7126,-0.097433,4.8188,0.40653,-45.24,33.66,-7.14
14.301,-8.7579,-5.7069,-0.095906,3.1252,-0.29688,-45.3,34.38,-7.8
12.912,-6.456,-5.5707,-0.32254,2.503,-0.17013,-45.18,35.28,-8.28
7.1643,-1.8932,-6.7557,-1.6548,2.5925,0.90072,-44.04,36.54,-9.12
7.6138,2.3563,-5.4209,-1.7355,2.6093,0.79932,-43.26,37.14,-9.42
8.322,5.1349,-4.4675,-1.0049,1.0021,1.128,-42.48,37.62,-9.54
6.279,8.2948,-3.7592,-0.074831,-0.27917,1.2364,-40.8,38.76,-8.94
4.6309,9.7658,-3.9908,0.93523,-1.5308,1.0085,-39.9,39.3,-8.34
2.8603,10.379,-4.2768,1.2517,-1.5421,0.65363,-39.0,39.72,-7.68
2.5061,7.7636,-4.5901,1.2749,-1.3891,0.28772,-37.8,39.9,-7.08
4.8625,6.4833,-4.6037,1.1469,-1.3952,-0.024129,-36.48,40.14,-6.48
8.9486,3.732,-4.2632,1.0736,-2.0156,-0.39065,-34.02,40.38,-5.16
10.883,1.0351,-3.1735,0.78649,-2.7581,-0.78343,-32.94,40.62,-4.74
13.579,-1.5936,-2.5198,0.34697,-3.3582,-0.88911,-31.98,40.92,-4.38
19.395,-13.021,-4.4811,0.46395,-3.5336,-0.89339,-30.78,41.52,-3.96
19.518,-18.728,-4.8216,1.5104,-3.4279,-0.85338,-30.84,41.82,-4.14
19.532,-19.327,-4.1814,1.5122,-4.0583,-2.281,-31.32,42.24,-4.32
19.532,-19.532,0.8717,-0.44288,-3.7449,-3.4511,-32.88,42.54,-4.74
15.881,-19.532,2.8875,-2.0513,-2.19,-4.0222,-33.84,42.36,-4.98
5.8976,-19.45,2.9011,-2.6023,-1.2871,-4.0256,-36.24,41.28,-5.04
0.5993,-13.021,2.6696,-2.3201,-1.0446,-4.0057,-37.5,40.62,-4.62
-1.7706,-9.793,2.9556,-0.75839,-0.067501,-3.434,-38.82,39.84,-4.2
-7.0826,-5.1894,4.5356,0.13989,0.15485,-2.2901,-41.52,37.8,-3.06
-9.3708,-4.2495,4.9306,0.52809,0.22785,-1.142,-42.72,36.66,-2.52
-12.054,-2.7104,4.5356,0.62797,-0.059254,-0.18601,-43.56,35.52,-1.98
-14.369,-1.4301,4.1814,0.58857,-0.8375,0.62736,-44.82,33.6,-1.02
-12.967,-1.6072,3.8682,0.57849,-0.81001,0.71105,-45.36,32.46,-0.48
-10.842,-2.6968,3.8137,0.51068,0.013134,1.1457,-45.6,31.44,0.12
-7.8045,-5.5026,3.3097,0.080023,1.0467,2.1365,-45.6,29.88,1.14
-5.7069,-7.0962,3.1191,-0.32773,1.5434,2.7263,-45.54,29.1,1.5
-2.9011,-8.9894,2.8058,-0.68906,1.8134,3.3237,-45.3,28.62,1.8
1.185,-18.061,0.84446,-0.48289,2.2355,4.7672,-44.64,28.38,1.32
6.1155,-19.164,0.14982,-0.24374,2.3989,5.1756,-44.22,28.62,0.48
17.407,-19.504,-1.1169,0.26267,2.1921,4.3494,-43.86,29.04,-0.36
19.504,-19.532,-4.0997,0.64599,2.1338,2.6964,-43.38,30.72,-2.34
19.532,-19.436,-4.8761,0.49022,2.4474,2.6893,-42.96,31.74,-3.54
16.508,-16.195,-4.7535,0.62705,1.4316,0.84849,-42.6,32.82,-4.38
10.583,-11.264,-4.9578,0.55833,1.8127,0.44929,-41.76,34.5,-5.64
10.283,-7.6546,-4.9578,0.22022,1.9691,0.70738,-41.04,35.28,-6.24
9.8475,-4.5356,-4.9033,0.13286,1.9114,0.76969,-40.14,36.18,-6.78
8.4719,0.74912,-5.4481,0.066279,1.1909,1.1677,-38.1,37.62,-7.68
7.7227,3.5549,-5.9657,0.23488,0.53298,1.1255,-36.84,38.4,-7.98
6.4424,6.7829,-6.7966,0.54428,0.084299,0.77122,-35.64,39.06,-8.16
4.5628,8.7443,-7.6683,0.77244,-0.17654,0.055283,-33.48,40.38,-8.4
4.7671,8.2812,-7.7364,0.61972,-0.34147,-0.35308,-32.22,40.68,-8.4
6.2109,7.4503,-7.5457,0.26359,-0.7477,-0.57085,-31.08,41.1,-8.1
7.8589,5.9112,-7.3414,-0.14997,-1.5861,-0.81276,-29.76,41.28,-7.98
9.398,3.7047,-7.0009,-0.63499,-2.4874,-1.1038,-28.68,41.46,-7.62
12.095,-1.3893,-4.808,-1.1277,-3.1502,-1.463,-27.18,41.52,-6.9
15.514,-4.4402,-5.0123,-1.149,-3.0922,-1.5708,-26.82,41.52,-6.66
19.477,-17.897,-6.8647,-0.67867,-2.8317,-1.4221,-27.12,41.88,-6.54
19.532,-19.327,-5.3119,0.197,-2.613,-1.4395,-27.66,42.12,-6.54
19.532,-19.477,-3.337,-0.85032,-2.6258,-3.5287,-28.5,42.06,-6.54
16.726,-19.532,3.228,-2.0934,-2.1817,-4.1212,-30.96,41.76,-5.94
9.5479,-19.532,3.8682,-2.5284,-1.47,-4.2586,-32.4,41.34,-5.64
4.0997,-18.374,2.7786,-1.6991,-1.244,-4.2165,-33.84,40.68,-4.98
-3.5277,-10.597,3.4732,0.59193,-1.3882,-3.0155,-36.66,39.0,-3.42
-4.522,-8.1177,5.2847,1.1295,-1.5516,-1.6096,-38.1,37.74,-2.76
-5.5707,-5.6797,7.2596,1.0767,-1.3573,-0.94409,-39.54,36.6,-1.86
-14.002,-1.7162,7.927,0.88209,-0.62827,0.48717,-41.82,34.26,-0.42
-18.755,0.47671,6.565,1.2248,-1.5788,1.211,-42.72,33.24,0.3
-15.473,0.19068,3.9908,1.3616,-1.5369,1.3528,-43.26,32.28,0.96
-9.3163,-2.7649,4.3994,1.5198,1.0742,1.4071,-43.5,30.48,2.34
-6.7012,-4.5764,3.5004,1.274,1.6741,1.7688,-43.56,29.4,2.94
-5.6116,-5.5435,2.9965,0.50855,2.3769,2.4144,-43.56,28.8,3.06
-3.8954,-7.5457,2.3972,-0.069028,2.6121,2.7416,-43.26,28.14,3.06
-3.909,-11.482,2.9965,-0.66309,2.9905,3.3653,-42.66,27.36,2.1
-0.29965,-16.467,3.4459,-1.0718,3.299,4.5268,-42.42,27.3,1.38
14.955,-19.477,-0.054481,-0.3989,2.62,5.5763,-42.36,28.2,-0.48
19.246,-19.532,-3.5958,0.88911,2.2208,4.8017,-42.18,29.16,-1.32
19.504,-19.532,-5.3664,1.0776,3.467,1.2407,-41.82,30.0,-2.16
19.532,-19.532,-5.094,0.87109,2.6258,0.69944,-41.4,30.9,-3.06
12.585,-14.397,-4.3449,0.78802,2.197,-0.67898,-40.5,32.58,-4.5
11.373,-11.55,-4.6173,0.25137,2.4007,-0.48136,-39.78,33.24,-5.4
9.7658,-3.5413,-4.9169,-0.42028,2.2633,-0.090408,-38.28,34.56,-7.14
8.3357,-0.44947,-5.3664,-0.62797,1.7031,0.21136,-37.44,35.34,-7.98
7.5184,2.5606,-5.7478,-0.36255,0.68234,0.78527,-36.42,35.76,-8.28
6.7012,5.5707,-6.2381,0.027794,0.27825,0.5791,-35.4,36.3,-8.76
5.0668,9.5887,-6.8374,0.37171,0.046731,0.11209,-33.42,37.38,-8.88
4.0452,9.9292,-6.7829,0.56139,-0.1857,-0.49633,-32.16,37.68,-8.82
4.9306,6.9872,-6.5378,0.54764,-0.31765,-0.94806,-29.46,37.74,-8.64
6.7693,5.0123,-6.4424,0.18509,-0.97861,-1.1585,-28.44,37.74,-8.64
8.4446,2.8058,-6.2517,0.061087,-1.397,-1.1704,-27.6,37.68,-8.64
11.4,-1.7162,-4.6718,-0.26206,-2.737,-1.2575,-26.52,37.26,-8.64
14.833,-4.9033,-4.0997,-0.40531,-3.084,-1.3299,-26.52,37.2,-8.76
18.823,-10.052,-5.1621,0.58063,-3.5418,-1.7703,-27.0,37.32,-9.0
19.518,-19.286,-4.9987,0.5733,-3.5048,-2.3628,-27.66,37.32,-9.24
19.532,-19.477,-3.8001,0.19975,-3.5171,-2.9673,-28.5,37.2,-9.42
17.257,-19.532,2.152,-1.2269,-3.2764,-3.5048,-30.78,37.08,-9.6
10.583,-19.532,3.8954,-2.3784,-2.2859,-3.9584,-32.1,36.78,-9.36
7.0962,-19.532,4.0316,-2.5724,-1.1915,-4.2034,-33.42,36.48,-8.94
-0.38137,-13.225,3.8409,-1.8607,-0.50091,-4.1667,-36.24,35.34,-8.1
-3.2144,-9.4389,4.0044,-0.67592,0.0058032,-3.7846,-37.86,34.56,-7.56
-6.0474,-5.9249,4.2223,0.34728,0.34941,-3.007,-40.92,32.64,-6.18
-7.355,-4.5764,4.0589,0.66432,0.68142,-1.9248,-42.24,31.68,-5.64
-7.355,-4.5764,4.0589,0.65851,0.6802,-0.60781,-42.24,31.68,-5.64
-9.7658,-2.4789,2.9692,0.65118,0.32742,0.04215,-43.44,30.72,-5.16
-11.891,-1.362,2.2201,0.51221,-0.16921,0.54581,-44.34,29.76,-4.86
-10.161,-3.1735,1.7706,0.051618,0.11668,1.2871,-44.88,28.92,-4.5
-8.0905,-4.699,1.4982,-0.36591,0.89583,1.9728,-45.3,28.02,-4.02
-5.4481,-6.7421,1.1986,-0.80146,1.4288,2.6273,-45.72,26.52,-3.18
-3.2689,-10.215,0.50395,-1.1631,1.8738,3.379,-45.48,25.26,-2.88
2.6423,-17.311,-0.91256,-1.2196,2.2877,4.4581,-45.06,24.78,-3.84
16.957,-19.395,-1.7979,-0.84513,2.2516,5.4578,-44.58,25.26,-5.52
18.891,-19.504,-3.8954,-1.0837,0.75106,3.7238,-44.4,25.86,-6.3
19.491,-19.532,-6.0883,-1.3363,0.88667,2.3078,-43.8,27.6,-8.16
19.532,-17.734,-6.7966,-0.72296,2.0598,1.6173,-43.38,29.58,-9.96
15.514,-13.934,-5.8023,-0.41386,2.6374,-0.10873,-43.2,31.44,-11.7
11.863,-8.9077,-4.8625,-0.58002,3.3616,-0.028711,-43.38,32.52,-12.84
11.128,-6.2654,-4.4811,-0.73212,3.3262,0.15821,-43.32,32.94,-13.14
9.2891,-1.1577,-3.909,-0.86651,3.0226,0.51313,-43.08,33.78,-13.26
7.6138,1.0896,-3.1872,-1.1099,2.3491,0.68539,-42.12,34.44,-12.36
6.2245,5.38,-2.5334,-1.1222,2.0528,0.63072,-41.46,34.74,-11.64
5.1894,7.1915,-1.7434,-1.3396,1.5317,-0.023824,-40.62,34.92,-10.98
4.4402,8.2676,-1.4982,-1.1625,1.5974,-0.47556,-39.72,35.16,-10.38
3.6094,10.924,-1.4301,-0.69883,1.4285,-0.67776,-37.98,35.52,-9.24
3.5685,11.577,-1.3484,-0.23182,0.61239,-0.47525,-36.9,35.58,-8.58
4.4811,12.34,-1.0896,0.21228,-1.2184,-0.17898,-36.18,35.7,-7.92
7.4776,10.392,-0.54481,0.43097,-1.6212,-0.45326,-34.62,35.88,-6.48
8.1586,6.8647,0.35413,1.1261,-1.7168,-2.4618,-34.02,35.88,-5.88
8.2267,3.5822,1.2803,1.6127,-1.8347,-2.4065,-33.84,35.76,-5.52
18.02,0.054481,0.54481,2.357,-2.0024,-2.1338,-34.02,35.28,-6.12
19.45,-13.566,-2.5061,3.5589,-2.2547,-1.9896,-34.5,35.16,-7.02
19.532,-19.355,0.98067,3.372,-3.9602,-3.8851,-36.12,34.86,-9.06
19.532,-19.518,3.1735,1.2321,-3.4111,-3.7953,-36.84,34.38,-10.08
15.827,-19.532,3.2144,-0.3989,-1.1927,-4.0525,-37.8,33.96,-10.74
10.065,-19.123,2.1112,0.013439,0.67256,-4.5537,-38.7,33.12,-11.22
1.6344,-12.544,-0.58567,1.029,0.72479,-3.941,-40.56,31.02,-12.18
0.77636,-9.5751,-0.28603,1.5452,-0.16157,-2.875,-41.64,29.82,-12.54
-1.0351,-5.5707,0.88532,1.4346,-1.069,-1.963,-42.42,28.38,-13.02
-5.1213,-4.5356,1.0351,1.2373,-1.3454,-0.6408,-44.1,25.74,-13.62
-7.3141,-4.0861,1.1169,1.2434,-0.83994,0.38912,-44.82,24.54,-13.92
-10.406,-3.4323,0.98067,1.1985,-0.66065,1.2404,-45.06,23.4,-13.98
-15.663,-1.8796,1.0079,1.0385,-1.2831,1.525,-45.42,21.78,-13.02
-13.525,-3.1191,0.64016,0.80481,-1.4685,1.5266,-45.36,20.64,-11.94
-10.038,-5.6661,1.3212,0.12737,0.6524,2.2242,-45.24,18.66,-9.96
-6.0883,-7.4776,1.4165,-0.64721,1.2007,2.9954,-45.3,18.06,-9.06
-4.1814,-9.0167,0.74912,-1.2242,1.6261,3.6774,-45.36,17.52,-8.52
-3.1054,-10.706,0.74912,-1.3925,1.9535,4.5797,-45.06,17.4,-8.34
6.5786,-19.0,-0.068102,-1.0537,1.8051,5.8445,-43.92,18.06,-8.76
16.521,-19.477,0.61292,-0.69242,0.53237,5.6679,-43.2,18.84,-9.42
19.15,-19.532,-4.8352,0.80359,0.52779,4.5684,-42.48,21.3,-11.04
19.532,-19.532,-6.8919,0.71105,0.51496,5.901,-42.12,22.62,-11.82
15.091,-18.033,-5.4754,0.31398,0.64691,1.4881,-41.88,24.12,-12.66
9.0303,-14.996,-3.4732,0.055589,1.4847,-0.0082467,-41.52,25.5,-13.26
7.9951,-8.0496,-2.152,-1.1524,3.9642,-0.38943,-40.68,27.66,-14.1
10.869,-4.6173,-1.9341,-1.9334,4.0027,0.22205,-40.02,28.86,-14.34
11.795,0.76274,-2.6423,-2.3738,3.1511,0.79932,-39.24,30.0,-14.52
9.9973,4.0044,-2.6287,-2.4972,1.0666,1.4969,-36.96,32.22,-14.52
8.6489,6.6331,-2.2337,-2.1173,-0.2248,1.6109,-35.7,33.42,-14.4
7.5184,8.322,-2.0158,-1.8616,-0.64721,1.5107,-34.68,34.38,-14.22
5.203,12.612,-1.3757,-0.96883,-0.92943,0.83566,-32.94,35.82,-12.66
5.0531,12.994,-1.2258,-0.38546,-0.76633,0.24771,-32.22,36.24,-11.34
5.7478,13.035,-1.5255,0.21869,-0.79351,-0.37202,-31.32,36.72,-9.9
9.8611,6.9872,-2.6696,1.0989,-1.1738,-1.1823,-29.04,37.02,-7.26
11.659,2.833,-2.7377,1.5464,-1.6011,-1.7672,-28.02,37.08,-5.94
15.119,-0.38137,-2.9011,1.7877,-2.1673,-1.9829,-27.06,37.32,-5.04
19.382,-10.065,-4.2904,2.3042,-2.3509,-2.2605,-25.92,37.92,-3.78
19.504,-17.979,-3.6094,2.4963,-2.6053,-2.6939,-25.86,38.1,-3.66
19.532,-19.436,-1.9886,1.7895,-3.0766,-3.5097,-25.98,38.28,-3.72
19.532,-19.532,1.58,-0.98502,-2.1878,-4.4624,-27.36,38.04,-4.08
15.718,-19.532,2.8603,-1.6762,-1.6716,-4.6356,-28.38,37.68,-4.32
9.0303,-19.532,2.3155,-1.8714,-0.74984,-4.9856,-29.4,37.14,-4.5
0.64016,-14.097,0.50395,-0.39065,-0.83017,-4.7559,-32.04,35.46,-4.62
-2.7922,-10.283,0.91256,0.69119,-0.76908,-4.1273,-33.6,34.38,-4.8
-5.0531,-8.0905,1.8932,1.3879,-0.63835,-2.9764,-34.92,33.12,-4.86
-8.826,-6.17,2.5742,1.2831,-0.11179,-0.84208,-37.68,30.66,-5.04
-12.108,-4.8625,2.6423,0.98655,-0.54856,0.2251,-38.82,29.52,-5.16
-15.2,-3.1463,2.6015,0.81703,-1.0586,0.55925,-40.14,28.08,-5.1
-14.737,-1.8932,1.8387,0.38271,-1.7205,0.79015,-41.82,25.74,-4.8
-10.855,-2.9829,1.975,0.24282,-0.21869,1.222,-42.42,24.72,-4.38
-8.7715,-4.699,2.1793,-0.095295,0.81948,2.0834,-43.02,23.7,-3.72
-4.3994,-6.96,2.0431,-0.88973,1.6377,3.0271,-43.56,22.08,-2.88
-2.6287,-9.4389,1.4846,-1.4029,2.051,3.5311,-43.56,21.54,-2.52
-1.9068,-11.822,0.89894,-1.8305,2.6234,4.1325,-43.44,21.36,-2.28
11.237,-19.3,-0.54481,-2.1851,2.8784,4.6191,-42.66,21.84,-2.94
18.415,-19.504,-1.3076,-1.806,1.938,2.9929,-41.94,22.44,-3.42
19.395,-19.532,-2.8603,-1.1976,2.2547,1.3723,-41.52,23.28,-4.08
19.532,-15.2,-5.9385,-1.0296,2.478,3.5009,-40.98,25.14,-5.76
18.673,-11.291,-5.8704,-0.09499,0.97616,0.52168,-40.86,26.1,-6.6
13.675,-9.0984,-5.5299,0.1576,0.98197,0.021991,-40.68,27.0,-7.32
9.9701,-5.3528,-4.5083,-0.1124,1.7556,0.77946,-40.5,28.26,-8.4
9.7385,-2.6287,-3.9635,-0.58857,1.7269,1.1099,-40.32,28.68,-8.64
8.0769,0.10896,-3.9635,-0.85521,1.3958,1.3656,-39.78,29.28,-8.82
5.6388,3.6775,-3.2416,-1.0162,1.0146,1.4215,-38.52,30.54,-8.58
4.0044,5.9657,-2.547,-0.97097,1.3146,0.99296,-37.86,30.96,-8.4
2.8467,8.3493,-2.2882,-0.89675,1.6881,0.85094,-37.32,31.44,-8.16
3.8001,11.768,-1.7298,-0.46426,1.7568,0.55711,-36.06,32.28,-7.08
5.6797,12.054,-1.7706,-0.11637,0.66829,0.47464,-35.58,32.52,-6.42
7.8998,11.509,-1.8524,0.43188,-0.43799,0.071471,-34.86,32.52,-5.7
10.651,5.8431,-2.2882,1.0397,-1.3873,-0.64691,-33.36,32.52,-3.72
12.803,2.942,-2.1384,1.8164,-2.5537,-1.2709,-32.88,32.52,-2.76
16.753,-0.53119,-2.1248,2.0302,-2.8405,-1.5372,-32.22,32.7,-2.16
19.191,-6.3062,-2.9965,2.4786,-3.124,-1.8274,-31.92,32.94,-1.98
19.532,-19.109,-2.5606,2.8677,-4.0406,-2.1405,-31.56,34.02,-2.58
19.532,-19.477,-0.88532,2.0287,-4.6713,-3.3946,-31.8,34.38,-3.18
19.532,-19.532,2.3155,-0.85491,-3.0998,-4.0592,-32.76,34.68,-4.2
11.509,-19.532,3.4051,-2.0907,-1.9025,-4.3289,-33.6,34.62,-4.5
6.0066,-18.401,3.6503,-2.3347,-1.5559,-4.4272,-34.38,34.2,-4.56
2.3427,-14.397,3.1463,-1.992,-1.149,-4.3933,-35.4,33.72,-4.56
-3.4596,-7.1915,3.3506,-0.16341,-0.33445,-3.6802,-37.68,32.04,-4.2
-6.5786,-4.8625,3.7592,0.9221,0.01741,-2.463,-38.82,31.08,-3.96
-9.1529,-3.7865,4.127,1.233,0.3375,-1.0718,-39.96,30.06,-3.54
-16.63,-2.3291,3.4459,1.0913,-0.26603,0.62614,-41.58,28.08,-3.3
-17.012,-2.261,2.547,0.9334,-0.83872,0.96364,-42.36,27.06,-2.88
-14.002,-3.1463,1.975,0.65088,-1.1564,1.0595,-42.84,26.22,-2.22
-9.3844,-5.2166,1.6344,0.2419,0.66126,1.7715,-43.32,24.24,-0.36
-7.5729,-6.3198,1.5391,-0.24923,1.5064,2.3485,-43.56,23.4,0.3
-5.6933,-7.2052,1.4438,-0.73731,2.3622,2.7779,-43.56,22.68,1.02
-1.8115,-9.6023,0.8717,-1.2727,2.759,3.2635,-43.32,21.72,1.62
-0.99429,-12.0,0.50395,-1.4392,2.7379,3.9227,-43.08,21.6,1.38
3.7047,-18.578,0.027241,-1.4786,2.5794,4.4049,-42.66,21.72,0.96
18.02,-19.504,-0.027241,-1.3625,-0.009163,4.1013,-41.76,22.8,-0.72
19.45,-19.532,-4.0861,-0.34758,0.21228,2.8454,-41.4,23.64,-1.62
19.518,-19.532,-6.0883,0.18509,1.1307,4.6139,-41.1,24.6,-2.46
14.288,-13.334,-4.8488,0.61484,0.45143,0.34667,-40.62,26.4,-3.66
11.141,-11.414,-4.3994,0.48289,1.8918,-0.35644,-40.5,27.3,-3.96
10.651,-9.4798,-4.2495,-0.11332,2.8549,0.03146,-40.02,27.9,-4.26
11.182,-4.8761,-3.9635,-0.77458,2.595,0.40378,-39.54,28.56,-4.56
9.7249,0.38137,-3.4868,-1.3042,1.7529,0.71716,-38.16,29.82,-4.74
7.0962,4.0589,-2.9556,-1.7,0.83505,0.86651,-37.5,30.36,-4.92
5.2575,6.4697,-2.2882,-1.6985,-0.13408,0.72693,-35.94,31.26,-4.44
2.7377,10.787,-2.3836,-1.2669,-0.33445,0.53481,-35.28,31.68,-3.96
2.3291,11.891,-2.547,-0.64996,-0.33445,0.29993,-34.74,31.86,-3.36
2.1248,12.054,-2.5742,-0.015577,-0.3824,0.051924,-33.96,31.98,-2.46
2.9148,11.605,-2.3972,0.47403,-0.74953,-0.38087,-32.28,31.8,-0.72
4.6173,8.5808,-2.1248,1.157,-1.0843,-0.91599,-31.56,31.5,-0.06
6.5514,4.8625,-3.1191,1.431,-1.4383,-0.9444,-30.72,31.08,0.48
13.729,-0.81722,-3.4323,1.4612,-1.8353,-0.91141,-29.4,30.3,1.02
18.605,-5.5026,-4.4402,1.8598,-2.0855,-0.71135,-28.98,30.18,0.96
19.409,-14.751,-4.6173,2.3002,-2.6209,-0.58826,-28.8,30.0,0.66
19.532,-19.382,-2.9556,2.5974,-3.4975,-2.1506,-29.28,29.28,-0.36
19.532,-19.532,-1.2258,1.2914,-3.6313,-3.576,-29.7,28.86,-0.96
18.932,-19.532,1.471,-0.56658,-3.2626,-3.8579,-30.24,28.26,-1.68
4.3858,-19.123,2.9148,-1.8167,-2.0375,-4.3191,-31.38,26.88,-3.06
-0.054481,-15.459,2.5061,-1.7691,-1.7645,-4.3521,-31.86,26.16,-3.54
-2.3972,-12.272,2.4108,-1.1506,-1.0009,-4.0867,-32.46,25.26,-4.08
-6.3198,-5.5026,3.2416,0.5507,-0.074526,-2.8222,-33.78,23.16,-4.92
-7.75,-3.909,3.9908,1.2275,-0.029932,-1.5427,-34.26,22.2,-5.28
-9.6568,-2.833,4.4947,1.2688,0.042761,-0.32529,-34.74,21.3,-5.34
-15.813,-1.076,4.7263,0.97464,-0.89889,0.86651,-35.34,19.56,-5.76
-15.99,-1.3076,4.0861,0.6744,-1.5021,1.1536,-35.58,18.6,-5.76
-11.904,-2.7649,3.4868,0.48961,-0.2923,1.3265,-35.7,17.7,-5.58
-8.7579,-4.1133,2.9965,0.22327,0.75289,1.8909,-35.7,16.02,-4.98
-6.1292,-5.5435,2.3018,-0.18082,1.4945,2.4074,-35.64,15.3,-4.86
-4.1406,-6.96,1.8387,-0.62217,2.0663,2.8298,-35.34,14.88,-4.74
-2.2746,-11.564,0.38137,-1.1115,2.821,3.7959,-35.04,14.1,-5.34
0.74912,-17.57,-0.28603,-1.1646,3.0766,4.3445,-34.98,13.92,-6.0
9.507,-19.286,0.1362,-1.102,2.8778,5.025,-34.98,13.8,-6.84
19.355,-19.532,-2.8194,-0.53359,1.6863,1.9758,-35.22,14.52,-8.46
19.504,-19.532,-4.9987,-0.38057,3.331,2.89,-35.4,15.0,-9.24
19.368,-16.862,-5.1485,0.048869,1.675,1.8189,-35.64,15.54,-10.26
9.793,-10.828,-4.3994,0.93004,1.5076,-0.75381,-35.94,16.62,-11.7
8.7034,-9.4798,-4.6037,0.93035,1.8323,-0.5171,-35.88,17.16,-12.24
9.3027,-5.6797,-4.2632,0.44654,2.2202,0.16249,-35.76,17.64,-12.9
8.4174,-1.4438,-4.4811,-0.082772,1.639,0.81703,-34.68,18.48,-13.98
7.1507,1.6617,-4.5901,-0.29108,0.77183,1.1353,-34.14,18.9,-14.16
6.2654,4.4402,-4.8488,-0.22663,0.047037,1.0531,-33.66,19.26,-14.4
4.2768,9.507,-5.8159,0.34758,-0.31307,0.51282,-32.28,20.22,-14.22
3.8409,11.618,-6.3471,0.71899,-0.35888,0.14386,-31.5,20.64,-13.92
4.1678,12.095,-6.2926,1.025,-0.58796,-0.36408,-30.84,21.12,-13.56
6.6059,6.7829,-5.9249,1.1167,-0.95784,-0.66309,-29.04,21.48,-13.02
8.6353,4.3177,-5.5707,0.7648,-1.6096,-0.78405,-28.08,21.42,-12.78
10.787,1.6344,-5.094,0.31551,-2.3805,-1.0296,-27.3,21.36,-12.54
15.854,-4.0452,-3.3778,-0.35827,-2.8995,-1.3329,-26.4,21.18,-12.3
18.387,-5.7478,-3.3642,-0.73518,-3.1234,-1.4025,-26.34,21.18,-12.48
19.395,-11.223,-4.0316,-0.54123,-3.1453,-1.3512,-26.4,21.18,-12.66
19.532,-19.382,-2.8875,0.27458,-3.0745,-2.3207,-27.42,21.6,-13.2
19.532,-19.504,-0.62654,-0.10018,-2.7797,-3.3744,-27.9,21.78,-13.56
16.903,-19.532,1.866,-1.2031,-2.2162,-3.8112,-28.56,21.78,-13.74
4.9033,-18.932,2.4108,-1.7174,-1.4529,-4.1615,-30.18,21.54,-13.74
0.96704,-14.928,2.0022,-0.84452,-0.69914,-4.1053,-31.14,21.18,-13.44
-1.7843,-11.496,1.8932,-0.33109,-0.32467,-3.7883,-32.04,20.7,-13.14
-4.2632,-6.6195,2.2882,0.76236,0.073609,-2.5485,-33.0,20.16,-13.02
-5.4481,-3.9363,3.2825,1.4303,0.02138,-0.80298,-34.8,19.5,-12.3
-7.7364,-2.4108,3.7456,1.4514,-0.050091,0.22052,-35.58,19.2,-12.0
-10.678,-1.2803,3.8546,1.3628,-1.0293,1.4218,-36.42,18.9,-11.22
-14.451,-1.4438,3.7728,1.1255,-1.7291,1.8967,-36.72,18.9,-10.62
-12.585,-2.8194,3.7865,0.95387,-1.5999,1.9447,-36.96,18.72,-9.84
-11.536,-3.337,3.8682,0.53634,-0.10415,1.7,-37.08,18.66,-9.3
-7.4231,-4.413,3.7728,-0.19517,1.8158,2.2272,-37.32,18.54,-8.1
-4.699,-6.0883,3.8818,-0.68692,2.3405,2.7144,-37.32,18.66,-7.92
-2.438,-8.9758,2.4653,-1.0531,2.4987,3.3894,-37.26,18.72,-7.98
5.2711,-18.837,1.8524,-1.1002,2.6588,4.831,-36.84,19.86,-8.58
14.07,-19.45,0.64016,-0.95387,2.058,4.755,-36.42,20.7,-9.24
18.851,-19.518,-1.5391,-0.84116,1.8485,3.9648,-36.24,21.84,-9.9
19.504,-19.532,-4.808,-0.6072,3.2819,1.9358,-35.64,24.12,-11.1
18.129,-17.979,-4.9714,-0.061087,2.5131,0.98044,-35.4,25.32,-11.7
13.757,-14.206,-4.7944,0.65149,2.1313,-0.48045,-35.28,26.28,-12.3
10.474,-9.3163,-5.1485,0.83291,2.2361,-0.082161,-34.86,27.66,-13.14
10.093,-6.456,-4.8488,0.26848,2.0815,0.36194,-34.38,28.38,-13.68
9.2346,-3.7047,-4.8488,0.1237,1.8989,0.58643,-33.84,28.8,-13.92
6.7421,1.3212,-4.8352,-0.25962,0.91263,1.0944,-32.34,29.88,-14.16
5.6116,4.127,-5.1485,-0.30146,0.43646,0.94165,-31.56,30.48,-14.04
4.522,6.7557,-5.6661,-0.13531,0.25015,0.57085,-30.72,31.14,-13.92
3.514,10.12,-6.1292,0.064141,0.09896,0.19364,-29.1,31.92,-13.56
3.7865,10.42,-5.6388,0.1912,-0.31337,-0.33323,-28.32,32.22,-13.02
4.5764,9.6296,-5.2847,0.18601,-0.79015,-0.44532,-27.48,32.1,-12.48
5.884,7.9815,-4.7944,0.13622,-1.4542,-0.5116,-26.76,32.1,-12.0
9.112,3.8954,-3.8682,0.025962,-2.2058,-0.69822,-25.32,32.1,-11.04
10.855,1.0896,-3.3097,-0.10812,-2.7724,-0.95967,-24.78,32.1,-10.62
16.031,-2.5742,-4.0316,-0.03146,-3.1017,-0.96669,-24.36,32.28,-10.32
19.423,-15.949,-5.7069,1.1194,-3.2345,-0.54214,-24.48,33.12,-10.26
19.518,-19.096,-4.2087,1.5162,-3.0229,-1.2624,-24.78,33.72,-10.5
19.532,-19.477,-2.6696,0.17501,-2.6609,-2.956,-25.38,34.2,-10.86
17.352,-19.532,4.3449,-1.8937,-2.1848,-3.9352,-27.36,34.74,-11.22
10.011,-19.532,4.5356,-2.5192,-1.6551,-4.8041,-28.62,34.92,-11.04
4.3858,-18.292,3.0646,-1.6732,-1.3812,-5.2968,-29.88,34.92,-10.8
-3.9227,-9.902,2.9284,0.2529,-0.64141,-4.8417,-32.7,34.32,-9.9
-5.993,-7.1098,3.7184,1.0828,-0.010996,-3.7131,-34.2,33.84,-9.3
-6.8374,-5.8976,4.1542,1.2746,0.46273,-2.5284,-35.82,33.3,-8.64
-9.2482,-4.3449,4.413,1.1558,0.36224,-1.1328,-38.58,31.86,-7.68
-11.21,-3.337,4.3177,1.0104,-0.28619,0.038179,-39.84,31.14,-7.08
-13.906,-2.0703,4.4402,0.78954,-0.9612,0.82253,-40.98,30.48,-6.42
-16.249,-2.0294,3.623,0.31704,-1.1411,1.4209,-42.72,28.92,-5.1
-10.855,-3.732,3.0782,0.21655,-0.61514,1.5815,-43.62,28.14,-4.02
-8.9622,-5.0259,3.1872,-0.0018326,0.93096,2.2837,-44.16,27.42,-3.06
-3.5685,-6.8647,2.8875,-0.68234,1.6961,3.1994,-45.06,26.46,-1.56
-1.3348,-9.8066,2.1929,-1.0125,1.8476,3.7516,-45.06,26.28,-1.38
0.34051,-18.66,1.7843,-0.97525,2.094,4.6276,-45.18,26.22,-1.26
16.617,-19.477,1.5119,-0.66768,1.5446,5.3203,-45.12,27.42,-1.92
19.164,-19.532,-1.5255,0.35919,0.27428,4.3277,-44.94,28.32,-2.28
19.45,-19.532,-4.2768,0.84635,1.189,4.076,-44.52,29.46,-2.82
15.65,-19.532,-5.6116,0.42547,1.4658,2.0843,-43.86,32.22,-3.42
10.678,-16.276,-4.522,0.17471,2.4957,-0.83627,-43.5,33.66,-3.72
8.1586,-12.885,-4.4402,-0.050396,3.8405,-1.2187,-43.2,34.92,-3.9
10.474,-7.3414,-4.0997,-0.80329,3.7287,-0.3598,-42.0,37.08,-4.02
10.093,-4.304,-4.2087,-1.0134,3.2975,0.073304,-41.16,38.04,-4.38
9.0031,-0.99429,-4.0725,-1.3192,1.3573,1.2367,-40.26,38.88,-4.56
6.4016,5.6797,-4.1814,-1.1854,0.30207,1.4606,-38.16,40.5,-4.86
5.1485,8.8941,-4.6173,-0.73884,-0.098044,1.3131,-37.26,41.04,-4.62
4.1814,11.4,-4.9169,-0.24007,-0.081551,0.95387,-36.18,41.64,-4.44
4.0452,13.076,-4.7126,0.25045,-0.13347,0.14875,-33.9,42.18,-3.66
5.3256,11.087,-4.4675,0.41997,-0.22816,-0.083994,-32.94,42.48,-3.3
7.464,7.8589,-5.1485,0.68234,-0.66645,-0.26603,-32.04,42.66,-2.94
12.027,1.7025,-5.1621,0.55222,-1.8775,-0.60018,-30.6,42.36,-2.52
14.206,-2.1248,-4.4402,0.24251,-2.4697,-0.99143,-30.0,42.24,-2.16
18.02,-5.8159,-4.5628,0.087048,-2.8417,-1.2055,-29.4,42.12,-2.04
19.504,-17.843,-5.094,0.5736,-3.1356,-1.6029,-29.28,42.18,-2.22
19.532,-19.314,-4.0725,0.74098,-2.6582,-2.8961,-29.64,42.06,-2.16
19.532,-19.504,-2.6968,-0.047342,-2.3326,-3.9807,-30.48,42.0,-2.34
17.597,-19.532,1.9613,-1.4911,-2.0244,-4.3481,-32.58,41.22,-2.64
9.112,-19.532,3.337,-2.1814,-1.8815,-4.6988,-33.72,40.62,-2.82
3.909,-18.755,2.9284,-1.7883,-1.8619,-4.8423,-34.86,39.9,-2.76
-4.8352,-9.3436,2.5742,-0.81459,-0.86193,-4.3423,-37.14,37.86,-2.52
-6.8647,-6.674,2.9965,0.7929,-0.11179,-3.1857,-38.28,36.6,-2.28
-7.2596,-5.775,3.4187,1.0767,0.40042,-1.898,-39.3,35.1,-2.16
-9.3027,-3.6366,3.9635,0.93585,0.53695,-0.71502,-41.16,32.28,-1.62
-11.06,-2.3427,3.9227,0.74709,-0.26237,0.13347,-41.82,30.9,-1.56
-12.653,-1.1169,3.6094,0.64599,-1.1732,0.63286,-42.36,29.76,-1.44
-11.087,-2.656,2.8603,0.63011,-1.3473,1.2199,-43.26,27.24,-1.2
-9.1801,-4.2632,2.5606,0.2865,0.24435,1.8604,-43.26,26.16,-1.08
-7.2869,-5.6524,2.4789,0.043371,0.6466,2.1637,-43.14,25.26,-0.84
-5.0804,-6.9328,2.1929,-0.76847,1.5974,2.9096,-42.9,24.42,-0.72
-2.0703,-11.278,0.5993,-1.1738,2.178,3.4291,-42.3,23.4,-0.9
0.9398,-17.352,-0.70826,-1.3714,2.8277,4.3756,-42.0,23.28,-1.44
11.686,-19.259,-1.076,-1.347,3.0281,4.6099,-41.7,23.46,-1.92
19.409,-19.532,-4.2904,-1.3705,3.284,1.9367,-41.34,24.3,-3.78
19.532,-19.491,-4.5083,-1.711,4.0574,2.1591,-41.1,25.08,-4.68
19.532,-15.786,-4.4811,-1.4444,3.2,1.5128,-40.8,25.98,-5.76
17.08,-12.122,-4.1814,-0.28314,1.2144,-0.42913,-40.86,26.82,-6.66
10.651,-8.0905,-4.4402,-0.054367,0.71105,0.17623,-40.74,27.96,-8.28
8.6898,-5.3392,-4.1542,-0.080329,0.66096,0.47464,-40.56,28.5,-8.7
5.2847,0.14982,-3.8954,0.03543,0.93493,0.76175,-40.02,29.52,-9.12
4.1951,2.5742,-4.127,0.060781,1.2963,0.81153,-39.6,29.88,-9.36
4.0589,5.5026,-3.7184,0.014966,1.2443,0.43463,-39.0,30.36,-9.18
4.0452,6.7421,-3.6366,-0.016799,1.0049,0.17959,-38.28,30.78,-9.06
3.6094,9.1937,-4.0589,0.018631,0.51038,0.014966,-36.96,31.08,-8.52
3.2553,9.3844,-4.4675,0.14416,0.04215,-0.18265,-36.18,31.14,-8.1
3.9635,8.5127,-3.9227,0.26084,-0.32254,-0.36011,-34.62,30.84,-7.08
6.17,7.3822,-3.1463,0.4499,-1.2285,-0.3485,-34.02,30.72,-6.6
7.6138,5.7886,-2.6287,0.7025,-2.0531,-0.53451,-33.36,30.42,-5.94
9.6296,3.2825,-2.4789,1.0516,-2.7312,-0.76022,-32.76,30.3,-5.52
17.543,-3.3642,-4.2904,1.7727,-3.2278,-0.64874,-31.86,30.06,-5.16
19.286,-11.605,-5.8704,3.0238,-3.5051,0.083383,-31.44,30.24,-5.34
19.532,-19.395,-5.094,3.4318,-4.2547,-0.071471,-31.02,30.42,-5.7
19.532,-19.518,-2.7241,0.17685,-4.1521,-2.609,-30.84,30.54,-6.9
18.946,-19.532,0.78998,-2.23,-2.9294,-3.6414,-30.9,30.42,-7.5
14.982,-19.532,1.6344,-2.7706,-2.4233,-4.1597,-31.26,30.42,-8.16
3.6094,-16.889,1.4029,-2.6915,-1.365,-4.6637,-32.34,30.0,-8.64
0.35413,-13.157,1.4301,-1.8106,-0.84696,-4.6902,-33.12,29.76,-8.76
-1.8796,-10.42,2.0567,-0.72388,-0.47617,-4.2849,-33.9,29.28,-8.82
-6.1292,-6.565,4.7126,-0.12004,-0.58979,-3.3506,-35.52,28.26,-8.52
-8.3901,-4.5628,5.3119,0.078191,0.034819,-1.5256,-36.48,27.54,-8.46
-11.836,-3.2416,5.1349,0.23274,0.047037,-0.24312,-37.26,26.76,-8.22
-15.936,-2.2474,4.6718,0.43158,-0.73823,0.87537,-37.98,26.22,-7.92
-15.159,-3.2008,3.4459,0.45632,-1.0263,1.4496,-38.94,24.78,-7.02
-11.7,-5.0668,3.4459,0.034514,0.68936,2.2498,-39.66,24.0,-6.42
-7.5048,-7.4095,3.2144,-0.54398,1.467,3.0128,-40.98,22.8,-5.34
-4.808,-10.283,2.6015,-1.0681,2.1826,3.6649,-41.64,22.32,-5.04
-3.9227,-12.762,2.4244,-1.4484,2.999,4.572,-42.12,21.84,-4.5
7.2052,-19.314,1.4846,-1.3735,3.6481,5.6539,-42.66,21.72,-4.56
16.93,-19.504,1.0624,-0.63499,3.7034,5.3677,-42.72,21.78,-5.04
19.45,-19.532,-2.5061,-0.095295,2.926,4.441,-42.66,22.86,-6.06
19.532,-19.532,-5.7069,1.1936,1.9392,4.4135,-42.42,23.64,-6.78
17.625,-19.123,-6.5514,2.3873,0.72082,2.4505,-42.24,24.6,-7.56
13.416,-17.965,-6.1292,2.5821,0.71868,1.5424,-42.0,25.5,-8.16
10.297,-15.418,-5.5435,1.5281,1.7785,0.89247,-41.7,26.28,-8.46
8.3765,-6.3335,-4.1951,0.058032,2.4951,1.2947,-40.8,28.08,-8.7
8.7443,-2.3972,-4.1406,-0.91294,2.3793,1.5247,-39.66,29.1,-8.82
8.9213,3.5685,-4.4539,-1.4383,2.0223,1.6163,-36.84,30.84,-8.82
9.3163,7.6546,-4.5628,-1.0779,0.71685,1.8134,-35.4,31.92,-8.7
9.221,9.0031,-4.808,-0.47098,0.10049,1.602,-34.02,32.88,-8.58
8.2812,10.924,-4.808,0.078802,-0.23671,1.0547,-30.96,34.32,-7.86
8.322,11.387,-4.5356,0.42608,-0.37354,0.32254,-29.4,34.98,-7.32
8.5808,9.0031,-3.9771,0.66187,-0.53145,-0.34728,-27.78,35.46,-6.66
11.346,4.9306,-4.304,0.85246,-0.894,-0.88423,-24.48,36.24,-5.46
12.503,1.9341,-4.1678,0.68997,-1.43,-1.4108,-22.92,36.48,-4.86
13.348,-0.17706,-3.8273,0.3882,-2.0391,-1.8714,-21.54,36.9,-4.32
18.864,-9.6568,-4.7399,0.16585,-2.6744,-2.0238,-19.44,37.74,-3.9
19.45,-18.006,-5.7342,0.66432,-2.7205,-1.7178,-19.02,38.04,-3.96
19.518,-19.355,-4.6037,0.64263,-2.6402,-2.9083,-19.56,38.46,-4.5
19.205,-19.532,0.054481,-1.8274,-1.5534,-3.9706,-20.34,38.52,-4.92
12.381,-19.532,2.656,-2.587,-1.0965,-4.5384,-21.12,38.34,-5.04
9.2891,-19.532,2.5606,-2.5959,-0.98013,-4.6453,-21.96,38.04,-5.22
4.2223,-19.382,1.7979,-1.7681,-0.8827,-4.6612,-22.98,37.74,-5.46
-2.1929,-12.585,2.1929,-0.81489,-0.63347,-4.3481,-25.62,36.54,-5.34
-4.985,-8.1858,2.9284,0.24587,-0.42394,-3.2773,-27.06,35.64,-5.34
-8.1313,-3.8001,3.9908,1.182,-0.10965,-1.4438,-29.94,33.78,-5.04
-9.2074,-2.5334,4.0861,1.3961,0.034514,-0.26542,-31.26,32.76,-4.98
-11.182,-1.2939,3.8818,1.503,-0.038485,0.65485,-32.28,31.8,-4.8
-13.906,-0.5993,3.5004,1.4371,-0.62003,1.2654,-33.24,30.9,-4.74
-13.116,-1.7706,2.3563,1.1726,-0.94745,1.5959,-34.56,29.22,-4.68
-9.8066,-3.2144,2.1793,0.82772,0.013744,1.9071,-35.04,28.38,-4.68
-5.775,-6.279,2.0158,0.28955,0.81428,2.5607,-35.28,27.72,-4.38
-3.7592,-8.3357,2.2474,-0.61758,1.5562,3.427,-35.1,26.82,-4.62
-2.0431,-11.945,1.866,-1.036,2.0626,4.0977,-34.8,26.64,-5.16
-2.0431,-18.033,1.0896,-1.102,2.4044,4.5607,-34.5,26.82,-5.88
16.113,-19.491,1.9613,-1.0996,2.9224,4.9529,-34.02,27.54,-7.8
19.109,-19.532,-2.2201,-0.41966,2.3955,3.2171,-33.72,28.38,-8.58
19.504,-19.532,-5.0804,0.08827,2.8818,2.9062,-33.54,29.04,-9.54
16.535,-17.216,-4.8761,0.83108,0.8714,0.81917,-33.06,30.9,-10.56
9.8066,-14.587,-4.6173,0.8433,1.1597,-0.30879,-32.64,31.68,-11.04
8.2131,-13.198,-4.6445,-0.03207,2.3011,0.32101,-32.16,32.46,-11.22
9.3299,-6.2245,-3.3506,-1.0797,2.719,0.73182,-30.3,33.78,-11.4
8.9077,-2.6151,-3.3642,-1.6054,2.4276,0.98685,-29.16,34.44,-11.28
8.3765,0.96704,-3.3097,-1.5424,1.1322,1.4029,-26.94,35.7,-10.86
7.3958,7.927,-3.6094,-0.8659,0.21105,1.2639,-25.86,36.18,-10.44
6.5378,10.338,-3.8137,-0.17226,-0.23213,0.91569,-24.78,36.72,-9.72
5.7614,11.986,-4.0452,0.31582,-0.45968,0.42241,-23.52,36.9,-8.82
6.17,11.536,-4.1814,0.697,-0.70555,-0.11606,-21.0,37.5,-7.08
7.0962,8.8941,-4.7671,0.99724,-0.905,-0.55772,-19.68,37.56,-6.54
9.5615,5.4073,-5.2983,0.93218,-1.332,-0.99235,-18.18,37.5,-5.82
12.694,-0.74912,-4.7263,0.63591,-1.9758,-1.4429,-16.08,37.62,-4.92
16.113,-5.1485,-4.2495,0.011301,-2.5617,-1.8812,-15.54,37.68,-4.56
18.66,-7.7772,-4.7944,-0.32987,-2.8961,-1.8995,-15.24,37.8,-4.56
19.518,-18.837,-5.1757,0.42761,-3.0415,-1.8625,-15.96,38.4,-5.04
19.532,-19.45,-3.2825,0.36133,-3.1084,-3.2981,-16.8,38.82,-5.4
19.532,-19.518,-0.51757,-0.80298,-3.0592,-4.2113,-17.76,39.06,-5.94
13.484,-19.532,4.7126,-2.3253,-2.2141,-4.773,-20.34,38.76,-6.42
7.0281,-19.532,4.3994,-2.2911,-2.1426,-4.9529,-21.84,38.4,-6.6
1.4438,-17.38,3.8954,-0.99876,-1.7413,-4.9443,-23.52,38.04,-6.72
-3.4459,-11.332,3.732,0.31337,-1.0214,-4.4666,-25.14,37.38,-6.6
-7.927,-6.1019,4.6309,1.0272,-0.23121,-3.2791,-28.68,35.76,-6.0
-9.0303,-4.9033,4.6718,1.1952,0.18173,-1.6692,-30.6,34.98,-5.76
-12.803,-2.5879,4.6037,1.1484,-0.33048,-0.39584,-33.72,33.36,-5.1
-15.827,-1.6072,4.018,1.0525,-1.5568,0.59346,-35.16,32.64,-4.86
-15.541,-2.7104,3.6094,0.97891,-1.6405,0.80604,-36.42,31.68,-4.44
-12.108,-4.2087,3.6911,0.54153,0.019853,1.4716,-37.32,30.78,-4.02
-8.145,-6.3743,4.0589,0.0033598,1.0461,2.2232,-39.0,29.04,-2.88
-5.4618,-7.641,4.018,-0.60995,1.5672,2.8332,-39.48,28.38,-2.4
-2.5879,-8.7306,2.7649,-1.0437,1.8332,3.2193,-39.78,27.84,-1.8
-2.5742,-13.879,2.656,-1.1707,2.4648,4.2055,-39.96,27.96,-1.74
4.3858,-19.082,2.0294,-0.91783,2.802,5.4385,-39.78,28.26,-2.04
12.286,-19.423,1.6481,-0.069944,2.4239,5.1398,-39.54,28.86,-2.52
19.423,-19.532,-4.2768,0.64019,1.5748,3.9105,-38.82,30.78,-3.96
19.518,-19.532,-5.8295,0.82589,1.6304,3.5109,-38.4,31.92,-4.68
17.87,-19.15,-5.6116,1.3467,0.78954,1.6759,-37.92,33.0,-5.52
10.91,-14.478,-5.3119,1.3204,2.3201,-0.081245,-36.96,35.1,-6.54
10.556,-11.101,-5.2983,0.51985,2.9984,0.38943,-36.12,36.24,-7.02
10.815,-7.4776,-4.9987,-0.12401,2.912,0.76511,-35.4,37.08,-7.32
9.9156,-1.866,-5.6116,-0.4331,2.3619,0.98227,-32.76,38.82,-7.98
8.5263,1.7434,-5.9249,-0.47159,1.4306,1.1368,-31.56,39.66,-8.16
7.2052,8.4446,-6.1155,-0.072388,0.45021,1.0321,-30.0,40.44,-8.58
5.5707,10.324,-6.6467,0.62736,-0.22541,0.48381,-27.3,41.58,-8.94
5.0531,11.06,-7.246,0.81153,-0.33598,0.24862,-26.1,41.88,-8.82
5.1894,10.338,-7.3822,1.0934,-0.71196,-0.27153,-24.96,42.24,-8.58
8.0905,5.9793,-7.3822,0.95326,-1.2309,-0.38393,-22.86,42.48,-8.28
9.6704,3.4459,-7.0826,0.64935,-2.0308,-0.61484,-21.84,42.54,-8.1
11.509,-1.4165,-4.9987,-0.46914,-3.1854,-1.3073,-20.28,42.6,-7.68
13.484,-4.0861,-4.0044,-1.6099,-3.5705,-1.8335,-19.74,42.66,-7.5
18.115,-8.7443,-5.1076,-1.5449,-3.2739,-2.0094,-19.62,42.78,-7.38
19.491,-19.041,-7.0553,-0.24496,-2.365,-2.2565,-20.52,43.08,-7.2
19.532,-19.504,-4.5764,-2.4114,-0.86621,-4.0366,-21.66,43.32,-7.14
19.532,-19.504,-4.5764,-2.4114,-0.86621,-4.0366,-21.66,43.32,-7.14
14.315,-19.532,4.0316,-2.6777,-0.92057,-4.8429,-24.6,42.9,-7.02
4.7671,-15.8,2.2201,-2.091,-1.0565,-4.882,-26.16,42.36,-6.66
1.4165,-13.471,2.3836,-0.29658,-1.2953,-4.3995,-29.46,40.98,-5.94
-5.1213,-8.8396,4.3177,0.39584,-1.029,-3.5336,-32.82,39.12,-4.86
-7.927,-5.1213,5.4754,0.59895,-0.2248,-2.2779,-36.06,36.84,-3.54
-10.992,-2.3972,4.9442,0.86499,0.34086,-0.97647,-39.06,34.56,-2.52
-14.247,-0.9398,4.2359,1.2376,-0.26848,0.03879,-41.04,32.46,-1.62
-14.097,-1.5255,3.5413,1.3735,-1.2633,0.73059,-42.42,30.12,-0.96
-11.25,-2.5742,3.4051,1.2089,-0.67776,1.0498,-42.9,28.92,-0.48
-8.9894,-3.2825,3.0918,0.80268,0.31734,1.4279,-43.26,27.36,0.3
-6.5514,-4.9169,2.4517,0.30604,0.83994,1.9422,-43.5,26.4,0.48
-3.4596,-6.7421,1.8796,-0.14233,1.2343,2.4997,-43.14,26.46,0.36
-0.51757,-9.0167,0.74912,-0.47495,1.4395,2.9841,-42.48,27.06,-0.6
1.6753,-15.35,-0.31327,-0.72174,1.6851,3.4416,-41.7,28.38,-1.92
5.203,-18.483,-1.0351,-0.65027,2.0052,4.2696,-41.22,29.16,-2.52
17.829,-19.477,-1.8932,-0.070555,1.492,3.9639,-41.1,29.76,-3.42
19.504,-19.532,-5.5299,1.285,1.8173,3.2996,-40.44,31.86,-5.04
18.769,-19.532,-6.0202,1.1823,1.781,3.4337,-40.08,33.06,-5.88
13.784,-17.38,-5.8159,1.029,0.87293,0.94806,-39.96,34.14,-6.72
7.6002,-13.103,-5.1213,0.40164,2.1759,-0.2697,-39.72,35.58,-8.04
7.8862,-11.032,-4.9033,-0.5003,2.8185,0.037874,-39.48,36.24,-8.4
8.7987,-7.464,-4.5764,-1.266,2.7242,0.33017,-39.12,36.96,-8.52
7.7091,-0.92618,-4.3858,-1.7098,2.1609,0.72357,-37.68,37.98,-8.58
7.0962,5.3937,-4.6173,-1.7959,1.387,1.0944,-36.72,38.4,-8.46
6.7966,7.7636,-4.8488,-1.3155,0.54825,1.1961,-35.76,38.88,-8.1
5.8295,10.324,-5.0804,-0.70311,0.07025,1.0675,-34.68,39.3,-7.86
3.8954,11.945,-4.7399,-0.0281,-0.18815,0.33353,-32.34,40.5,-7.14
3.8273,10.637,-4.5492,0.26786,-0.18845,-0.20372,-31.08,40.98,-6.48
5.8023,8.4446,-4.5901,0.45448,-0.42822,-0.45998,-29.82,41.22,-5.94
10.065,4.2359,-4.9987,0.51252,-1.1732,-0.72815,-27.6,41.16,-4.68
12.544,0.64016,-4.7263,0.4215,-2.1182,-0.94501,-26.58,40.98,-4.14
14.982,-3.8954,-4.2768,0.15333,-2.9905,-1.1555,-24.9,41.22,-3.3
19.327,-12.34,-6.0202,0.56933,-2.8747,-0.81398,-24.54,41.64,-3.18
19.518,-18.932,-5.2166,0.92607,-2.5568,-1.3653,-24.18,41.94,-3.36
19.532,-19.382,-4.2632,0.81062,-2.4044,-2.0843,-24.36,42.3,-3.72
19.532,-19.532,-0.19068,-0.45418,-2.5772,-3.8726,-25.56,42.66,-4.26
16.031,-19.532,1.9886,-1.5226,-2.4838,-4.2648,-26.52,42.72,-4.44
5.1076,-19.191,2.8467,-2.0675,-1.9893,-4.6523,-28.98,42.06,-4.26
-1.1986,-13.702,2.3836,-1.3186,-1.2697,-4.737,-30.54,41.34,-3.9
-4.7399,-9.3572,2.6696,-0.068417,-0.50152,-4.094,-31.98,40.44,-3.48
-6.6059,-6.1564,3.2961,0.48197,-0.25809,-3.576,-33.54,39.42,-3.12
-9.4253,-4.0316,4.4402,1.3662,0.0015272,-1.8628,-36.78,37.32,-2.46
-12.149,-3.4187,4.4811,1.3781,0.015882,-0.55741,-38.22,36.3,-2.16
-16.63,-2.7513,4.2359,1.0574,-0.35003,0.78252,-40.5,34.08,-1.32
-14.833,-3.3097,3.3234,0.44532,-0.74648,1.4215,-41.4,33.0,-0.84
-10.379,-4.5764,3.2825,0.25626,-0.14966,1.5519,-42.36,31.98,-0.24
-8.8396,-5.4481,3.1599,-0.12339,0.75808,2.2849,-43.2,30.9,0.42
-4.0997,-7.927,2.5198,-0.71777,1.5177,3.0387,-43.98,29.46,1.5
-2.2201,-9.6432,1.6344,-0.88056,1.9823,3.4547,-44.22,28.86,1.74
-0.7355,-13.498,0.92618,-0.85155,2.3989,4.0589,-44.1,28.62,1.74
12.762,-19.409,-0.34051,-0.59223,2.2223,4.6404,-43.98,29.1,1.08
18.633,-19.518,-1.5527,-0.42028,1.9447,4.0503,-43.8,29.7,0.48
19.423,-19.532,-3.1191,0.20861,2.7315,3.3231,-43.62,30.66,-0.12
19.518,-19.532,-4.8216,0.37415,2.795,3.1563,-43.26,31.74,-0.6
15.187,-15.241,-5.203,0.7648,1.6047,0.83353,-42.3,34.2,-1.8
11.673,-13.144,-5.0123,0.89828,1.9279,-0.042761,-41.82,35.34,-2.34
9.6296,-7.4503,-4.304,0.42791,2.3207,0.18173,-41.28,36.36,-2.76
8.9894,-4.2904,-3.9908,-0.28344,2.3295,0.53634,-39.66,38.28,-3.48
8.3493,-1.2531,-4.3313,-0.78435,1.8146,1.0663,-38.64,39.18,-3.72
7.8589,1.6889,-4.6445,-0.68295,1.1368,1.2914,-37.56,39.96,-4.08
7.0553,6.4152,-5.2166,-0.22449,0.50121,1.215,-35.46,41.4,-4.44
5.6797,8.2539,-5.7478,0.32681,0.19151,0.82284,-34.56,41.94,-4.38
4.808,9.0303,-6.1836,0.91294,-0.048869,-0.0030543,-32.4,42.48,-4.02
5.0259,8.5127,-6.0611,0.93493,-0.22052,-0.42913,-31.38,42.66,-3.96
6.1292,7.5457,-5.8295,0.8152,-0.6182,-0.63255,-30.36,42.78,-3.78
7.9407,5.5162,-5.8295,0.63011,-1.3604,-0.80054,-29.4,42.72,-3.78
12.313,0.19068,-4.9714,0.35308,-2.4089,-1.0104,-28.08,42.6,-3.36
15.119,-3.1872,-4.1542,-0.017715,-3.3973,-1.1857,-27.72,42.6,-3.06
19.436,-12.258,-5.1757,0.20036,-4.0338,-1.0666,-27.6,42.66,-2.88
19.518,-19.041,-5.2575,0.91141,-3.6334,-1.3833,-28.14,42.48,-2.88
19.532,-19.477,-3.9227,0.43341,-2.9077,-2.7214,-28.92,42.54,-3.0
19.532,-19.532,-0.65378,-1.6099,-2.0036,-3.4047,-29.88,42.36,-3.0
17.025,-19.532,3.0646,-2.8509,-0.99021,-3.9838,-31.08,42.12,-3.0
5.6933,-18.265,3.8546,-2.583,-0.3711,-4.1701,-33.54,41.22,-2.64
1.5527,-13.198,2.4517,-1.1387,-0.24007,-4.1157,-34.86,40.56,-2.34
-3.5277,-7.246,2.8739,1.222,-0.71532,-2.9804,-37.8,38.7,-1.68
-4.6173,-5.5026,4.018,1.7291,-1.354,-2.178,-39.06,37.68,-1.2
-5.4481,-4.1678,4.6309,1.7462,-1.4865,-1.7413,-40.38,36.66,-0.72
-10.91,-1.6617,5.0395,1.5449,-0.88759,-0.23305,-42.42,34.44,0.18
-16.29,-0.88532,4.4675,1.6637,-1.1478,0.79932,-43.26,33.36,0.48
-18.156,-2.438,2.5742,1.5455,-1.85,1.6047,-44.34,31.5,1.38
-9.902,-3.6366,2.942,1.3546,-0.1799,1.6588,-44.52,30.72,1.8
-7.9951,-4.3858,3.1599,0.83017,0.56291,2.1713,-44.52,29.94,2.34
-5.8976,-5.9249,3.2008,0.19028,0.9615,2.6114,-44.52,29.28,2.64
-2.656,-9.0575,3.2144,-0.35186,1.3057,3.0852,-44.34,28.38,2.64
-1.3757,-12.572,2.6696,-0.68997,1.7431,3.7101,-44.1,28.38,2.46
2.8058,-18.891,1.6072,-0.39798,2.4001,4.7977,-43.86,28.62,2.1
18.292,-19.504,-1.4438,0.37599,2.78,5.0989,-43.02,30.0,1.32
19.382,-19.532,-3.0101,0.83566,2.6762,3.6606,-42.54,30.72,0.6
19.491,-19.532,-4.127,0.18173,3.4862,1.1942,-42.06,31.56,0.06
12.19,-16.045,-3.3506,0.46029,2.2074,-0.30452,-41.34,33.66,-1.2
8.7987,-13.77,-4.0589,0.93523,2.3167,-1.2819,-40.98,34.68,-1.74
8.3629,-11.536,-4.7944,0.6408,2.6102,-0.74159,-40.56,35.4,-2.16
8.322,-5.6116,-4.699,-0.26512,1.9917,0.17043,-39.72,36.6,-3.3
6.6331,-2.5742,-4.7399,-0.46517,1.646,0.47189,-39.12,37.14,-3.78
5.4754,0.40861,-4.6037,-0.86254,0.78313,0.89156,-38.4,37.62,-4.14
4.5764,5.5707,-4.5083,-0.74434,0.60781,0.75198,-36.6,38.52,-4.32
4.4811,7.8998,-4.7944,-0.42455,0.43219,0.54275,-35.58,38.94,-4.32
4.5492,9.0575,-4.9578,-0.13317,0.18143,0.26542,-34.44,39.12,-4.44
4.522,10.025,-4.9987,0.21472,-0.20953,-0.32681,-32.7,39.36,-4.38
5.1076,10.161,-4.7671,0.31276,-0.42364,-0.4441,-31.98,39.36,-4.14
6.9872,7.3277,-4.7671,0.54184,-1.036,-0.58887,-31.08,39.36,-4.02
10.025,1.757,-4.3858,0.34361,-1.9661,-1.0232,-29.52,39.18,-3.54
12.83,-1.3757,-4.0316,0.058948,-2.5027,-1.2434,-28.8,38.88,-3.36
18.033,-5.5435,-4.7807,0.13073,-2.8353,-1.1518,-28.38,38.88,-3.36
19.504,-19.028,-5.3119,0.70188,-2.8243,-1.3748,-28.38,38.94,-3.24
19.532,-19.477,-2.942,-0.13592,-2.6359,-3.1893,-28.8,38.94,-3.3
19.532,-19.532,0.47671,-1.0675,-2.5305,-3.5653,-29.52,38.88,-3.42
12.803,-19.532,4.2223,-2.682,-1.7159,-4.266,-31.5,38.52,-3.78
7.4095,-19.504,3.6094,-2.2791,-1.6218,-4.4242,-32.7,38.04,-3.9
2.4925,-15.922,2.6015,-1.0314,-1.1936,-4.2223,-33.96,37.62,-3.72
-4.2359,-8.2403,2.8467,0.42302,-0.78038,-2.985,-36.36,35.94,-3.24
-5.2438,-6.9872,3.5277,1.3625,-0.31918,-2.1093,-37.44,34.98,-3.12
-7.0553,-4.7671,4.1133,1.3561,0.05681,-1.1777,-38.64,33.96,-2.82
-9.8339,-1.6072,4.0044,1.3167,0.054672,-0.32406,-40.68,31.74,-2.52
-11.891,-0.64016,3.5685,1.4639,-0.37324,0.28314,-41.64,31.02,-2.46
-13.116,-0.35413,3.2689,1.4658,-1.0916,0.89522,-42.48,30.12,-2.4
-9.112,-3.0782,2.6423,1.1222,-0.65363,1.5608,-43.14,28.38,-1.86
-7.8317,-4.522,2.2065,0.63988,0.09163,2.0947,-43.32,27.78,-1.68
-5.8295,-6.2654,1.7706,0.33109,0.3708,2.3705,-43.2,27.18,-1.56
-3.5822,-8.1041,1.5391,-0.6072,1.1777,3.051,-43.14,26.7,-1.32
0.50395,-16.957,2.0703,-1.2171,1.7303,3.6127,-42.72,26.34,-1.8
7.6002,-19.218,1.8796,-1.846,2.277,4.3454,-42.72,26.46,-2.4
17.339,-19.491,0.99429,-1.5357,2.5849,3.7104,-42.66,26.88,-2.88
19.504,-19.532,-2.9965,-0.6689,2.1646,3.1249,-42.84,28.08,-3.78
18.061,-19.532,-3.3915,-0.060781,1.3937,2.6786,-42.96,28.92,-4.08
12.408,-17.271,-3.8818,0.30085,1.0208,0.94745,-43.02,29.88,-4.32
6.1836,-13.321,-4.7535,0.40042,2.722,0.73457,-42.84,31.68,-4.62
8.2948,-11.346,-4.7399,0.13653,3.2593,0.82161,-42.54,32.52,-4.5
8.6762,-7.355,-4.6173,-0.28344,3.2709,1.1292,-42.0,33.3,-4.5
8.1722,-1.9477,-4.413,-0.62186,2.3137,1.4368,-40.26,34.74,-4.5
7.5457,1.0624,-4.4539,-0.52962,1.5348,1.4059,-39.18,35.46,-4.56
7.4367,2.9284,-4.6718,-0.13256,1.0146,1.2767,-37.86,36.18,-4.68
7.8045,7.5184,-5.8976,0.35644,0.67012,0.94287,-35.58,37.56,-4.14
7.355,8.3901,-6.1019,0.70341,0.30299,0.40775,-34.08,37.86,-3.6
6.7285,8.2676,-5.9249,0.75656,-0.080329,-0.14661,-32.64,38.28,-3.24
7.1371,7.0281,-5.598,0.44104,-0.57299,-0.79718,-29.52,39.0,-3.0
8.6217,4.6445,-5.5162,0.30268,-1.0901,-1.1231,-28.02,39.3,-3.06
9.9292,2.0294,-5.3119,-0.098044,-1.8011,-1.493,-26.7,39.48,-3.0
12.817,-2.3972,-4.3449,-0.50213,-2.5846,-1.7065,-24.72,39.78,-3.3
17.924,-7.4367,-5.5299,-0.57696,-3.0574,-1.6454,-24.06,40.02,-3.54
19.327,-15.99,-7.6274,0.15394,-3.0412,-1.3454,-24.0,40.44,-3.78
19.532,-19.423,-6.5786,0.53512,-2.496,-3.8466,-24.96,40.74,-4.2
19.532,-19.504,-3.1054,-1.2752,-2.2614,-5.3548,-25.86,40.92,-4.32
18.387,-19.532,1.5936,-2.3735,-1.9334,-5.0757,-27.12,40.68,-4.56
6.5105,-18.742,4.7944,-3.1136,-1.2599,-4.7257,-29.52,39.96,-4.74
-0.1362,-12.844,3.6503,-1.6597,-0.91447,-4.1493,-30.9,39.54,-4.62
-2.5879,-10.215,3.4596,0.0015272,-0.94012,-3.1637,-32.1,38.82,-4.26
-6.8374,-5.3119,5.8704,1.0366,-1.2352,-2.0137,-34.68,37.32,-3.72
-7.6138,-4.0861,6.17,1.4175,-0.26542,-0.39981,-36.0,36.42,-3.36
-10.406,-2.9829,5.7886,1.5104,-0.20495,-0.014661,-37.32,35.64,-3.12
-15.473,-3.1463,3.6775,1.7339,-1.5382,1.0088,-39.18,34.08,-2.28
-11.005,-4.304,3.0237,1.504,-1.2049,0.99938,-39.96,33.3,-2.16
-9.9565,-4.6173,3.3234,0.99205,0.041233,1.3525,-40.38,32.58,-1.92
-7.8181,-6.4969,2.7786,-0.13317,1.4206,2.0256,-40.98,31.56,-1.32
-5.5707,-7.8317,2.3563,-0.81825,2.6227,2.3192,-41.1,31.14,-1.08
-4.4266,-8.5672,2.2474,-1.0785,3.2119,2.4013,-40.92,31.08,-0.84
-2.6151,-11.904,2.2746,-1.7242,4.4789,2.9514,-40.8,31.14,-0.84
1.757,-19.028,5.2166,-2.3314,4.9538,3.8191,-40.2,31.68,-1.86
15.609,-19.504,6.96,-2.6341,3.977,3.7965,-39.84,32.28,-2.4
19.041,-19.532,3.0918,-1.4074,2.2953,4.1539,-39.54,33.0,-3.0
19.532,-19.532,-3.7865,0.19181,1.7568,4.3243,-39.06,33.72,-3.6
17.38,-16.699,-3.9499,1.6063,-1.0272,3.0452,-37.74,35.64,-4.44
11.673,-14.601,-4.3449,2.697,-0.32773,0.29932,-36.96,36.48,-4.68
8.0224,-12.83,-4.4811,2.0183,1.8445,-0.029932,-36.18,37.32,-5.04
7.9679,-6.1564,-3.8682,0.7364,3.5769,0.2303,-34.02,39.18,-5.7
9.221,-2.7649,-4.2632,-0.16463,3.7959,0.3543,-32.64,39.9,-6.24
9.1937,0.19068,-4.8761,-0.75472,2.1564,0.5287,-31.32,40.5,-6.84
7.6683,5.2438,-5.7614,-0.67256,1.4963,0.5681,-29.94,41.16,-7.08
6.4016,7.0281,-6.2245,0.093462,0.20739,0.48808,-27.24,42.12,-7.38
5.4073,8.2539,-6.9191,0.52473,0.051618,0.32162,-25.92,42.54,-7.08
6.8647,8.6625,-6.6467,0.78618,-0.10599,0.062003,-23.52,43.08,-6.72
8.322,6.5105,-6.3743,0.96395,-0.7025,-0.14813,-22.32,43.32,-6.72
10.161,4.0316,-6.2517,0.60873,-2.2605,-0.48258,-21.3,43.44,-6.78
11.918,-0.21793,-4.8352,0.056505,-3.3133,-0.81673,-19.68,43.44,-7.02
12.286,-3.2416,-3.1599,-0.64446,-3.9951,-1.1576,-19.2,43.68,-7.26
15.064,-5.8976,-3.0101,-1.0968,-4.1337,-1.2239,-19.02,43.74,-7.2
18.319,-9.112,-4.1678,-0.69425,-3.7544,-0.79412,-19.08,43.56,-7.08
19.518,-19.286,-3.9908,0.10782,-3.4166,-1.1157,-20.52,43.62,-6.6
19.532,-19.504,-1.6753,-1.5098,-3.306,-3.1786,-21.66,43.5,-6.24
13.961,-19.532,5.1894,-2.2721,-2.8869,-3.6524,-24.18,43.02,-5.76
7.8998,-19.532,5.5299,-3.1386,-1.4453,-4.6151,-25.68,42.72,-5.34
5.203,-18.864,4.9578,-2.2697,-0.95173,-4.8442,-27.24,42.3,-4.86
-2.9556,-9.616,3.4459,-0.48472,-0.3824,-4.3604,-30.36,41.04,-3.6
-4.6718,-7.4095,3.8001,0.91752,-0.71746,-3.3103,-31.98,40.2,-2.82
-5.6933,-5.3528,4.9306,1.3793,-1.0409,-1.6041,-35.22,38.46,-1.32
-8.0632,-4.1542,4.9306,1.2324,-1.0192,-0.55039,-36.72,37.44,-0.48
-10.311,-2.9284,4.7126,1.1383,-0.90042,0.20342,-37.98,36.6,0.24
-13.675,-2.261,4.6037,0.97219,-1.0131,0.79351,-39.18,35.82,0.72
-15.691,-2.6832,3.6094,0.70799,-0.7981,1.2288,-40.8,34.26,1.56
-10.433,-4.6445,3.3234,0.27581,0.3937,1.4606,-41.4,33.54,1.92
-7.6683,-5.8295,3.6366,-0.22755,1.6817,2.2205,-41.64,32.88,2.22
-2.833,-8.54,2.9692,-0.94318,2.3472,3.0149,-42.12,31.92,2.22
-2.0567,-11.741,2.0431,-1.127,2.6826,3.5336,-42.12,31.68,1.98
-1.5255,-15.023,1.58,-1.0537,3.1545,4.4306,-42.06,31.56,1.32
13.062,-19.463,1.1305,-0.65088,3.3943,5.1591,-41.76,32.22,-0.12
18.728,-19.532,-0.44947,0.043371,2.704,4.4721,-41.76,33.0,-0.9
19.436,-19.532,-3.7865,0.65424,2.9346,3.7727,-41.52,33.9,-1.68
17.529,-16.985,-5.2711,0.90866,1.2642,1.598,-40.32,35.82,-2.88
12.34,-13.661,-4.2087,1.0742,1.1017,-0.54275,-39.66,36.72,-3.36
8.4719,-11.414,-4.1678,0.62705,1.9728,-0.80879,-38.88,37.62,-3.84
7.1098,-6.5241,-4.127,-0.22571,2.529,-0.29474,-37.02,39.36,-4.56
7.9407,-2.3699,-4.2223,-0.82253,2.4367,0.29016,-35.76,40.2,-4.98
7.3141,2.152,-4.9169,-0.95936,1.7999,0.73945,-34.56,41.1,-5.34
6.9736,5.598,-5.4345,-0.58826,0.24862,1.1915,-32.22,42.36,-5.76
6.3198,8.3084,-6.0611,-0.088881,-0.39095,1.1139,-30.96,43.02,-5.7
5.9249,10.079,-6.2381,0.16554,-0.57208,0.99876,-29.76,43.74,-5.52
5.9249,11.822,-6.6059,0.759,-0.80237,0.38118,-28.44,44.28,-5.28
7.8998,8.7579,-6.1292,1.0363,-1.1277,-0.12065,-25.8,45.0,-4.98
10.42,4.4266,-5.7614,0.51893,-2.1747,-0.98044,-24.72,45.3,-4.92
13.007,-1.0215,-4.7671,0.19517,-2.5956,-1.3186,-22.92,45.48,-4.86
15.296,-3.7728,-4.0316,-0.58826,-3.299,-1.8912,-22.44,45.54,-4.92
18.742,-7.3141,-5.0804,-1.1002,-3.6594,-2.0919,-22.56,45.54,-4.86
19.504,-18.537,-6.6467,0.32956,-2.9532,-1.5687,-23.46,45.54,-5.04
19.532,-19.477,-5.1213,0.66645,-2.8573,-2.9459,-24.42,45.42,-5.1
19.532,-19.532,-1.7298,-0.8094,-3.1386,-3.7883,-25.44,45.36,-5.1
8.1586,-19.532,4.1133,-2.7468,-2.2773,-4.4486,-27.9,44.88,-5.16
2.9965,-19.409,3.8273,-2.9306,-1.9367,-4.5836,-29.46,44.22,-5.1
0.027241,-17.08,3.514,-2.6246,-1.146,-4.6123,-31.08,43.32,-4.62
-5.598,-7.6683,3.6503,-0.44196,-0.17685,-3.4233,-34.44,41.28,-3.42
-6.5378,-5.9249,4.7944,0.62339,-0.32559,-2.2565,-36.18,40.02,-2.76
-7.1507,-3.1191,6.1292,1.0354,-0.23091,-1.0165,-37.8,38.64,-2.16
-11.346,-2.3291,5.38,1.332,-0.354,0.38973,-41.1,36.48,-1.14
-14.152,-2.2882,4.4402,1.4053,-0.94715,1.095,-42.48,35.4,-0.78
-14.547,-3.1872,3.6639,1.3256,-1.0898,1.376,-43.38,34.5,-0.48
-9.6568,-5.8295,3.1463,0.68692,0.39676,1.9047,-44.64,32.88,0.12
-6.6467,-7.2869,3.1054,0.04215,1.5247,2.5937,-44.94,32.4,0.24
-4.4402,-8.3765,2.5879,-0.53726,2.2333,2.974,-45.24,31.8,0.36
-1.7979,-13.92,1.0896,-1.0602,2.8472,3.4938,-45.36,31.44,0.36
0.43585,-18.605,1.8932,-1.4615,3.3088,4.2739,-45.3,31.56,0.36
5.0804,-19.3,2.261,-1.6881,3.4764,4.6853,-45.12,31.92,-0.66
19.082,-19.532,0.28603,-1.3204,2.9059,3.7638,-44.64,33.42,-2.04
19.477,-19.532,-3.1463,-0.19426,3.3671,3.7464,-44.1,34.44,-2.76
19.532,-18.864,-5.775,1.0134,2.3265,3.2831,-43.26,35.7,-3.3
12.449,-13.021,-5.1757,2.0458,0.7761,0.069333,-41.34,37.86,-4.62
10.188,-12.395,-5.0123,1.9114,1.7547,-0.15241,-40.32,38.94,-5.28
8.9213,-9.398,-4.5628,1.3922,2.1866,0.081245,-39.24,40.02,-5.88
9.902,-3.6911,-4.5083,-0.23763,2.3928,0.85368,-36.72,41.82,-7.08
9.0303,-0.054481,-5.1213,-0.7645,1.7,0.9612,-35.4,42.54,-7.62
8.1177,2.2337,-5.3119,-0.92332,0.76022,1.0657,-34.02,43.32,-8.04
6.5241,7.5729,-5.8295,-0.46517,-0.032376,0.78099,-31.08,44.7,-8.46
5.7478,9.7794,-6.4016,-0.058948,-0.11576,0.37385,-29.46,45.3,-8.46
5.5162,10.924,-6.6059,0.12126,-0.0956,0.13928,-27.96,45.84,-8.46
6.1836,11.182,-6.4152,0.59987,-0.27855,-0.6747,-26.34,46.26,-8.4
8.9622,7.1507,-6.3198,0.70402,-0.89828,-1.0776,-23.88,46.74,-8.64
11.087,3.1327,-5.6388,0.37477,-1.8812,-1.4569,-23.1,46.8,-8.94
12.149,0.068102,-4.699,-0.17593,-2.8424,-1.8192,-22.68,46.8,-8.82
18.088,-5.9521,-5.2166,-0.85827,-3.6615,-1.909,-22.44,46.68,-8.52
19.355,-14.179,-6.8374,0.036041,-3.2486,-1.3958,-22.8,46.44,-8.52
19.491,-18.197,-6.5105,0.80023,-2.9187,-2.2193,-23.64,46.2,-8.4
19.532,-19.504,-2.6832,-0.0051924,-3.0543,-3.7031,-26.04,45.78,-8.46
18.796,-19.532,1.2258,-1.6924,-2.832,-4.4077,-27.54,45.36,-8.52
12.013,-19.532,3.8409,-2.5589,-2.1649,-4.8436,-29.04,44.76,-8.46
0.68102,-17.216,3.2825,-2.4273,-1.6948,-4.915,-32.4,43.32,-7.68
-4.2359,-11.605,2.9556,-1.1921,-1.0299,-4.6398,-34.2,42.24,-7.2
-7.3005,-7.1098,3.7865,1.5559,-1.0125,-2.2281,-36.0,41.04,-6.66
-8.7987,-5.0531,5.9793,1.7208,-0.86315,-1.46,-37.74,39.6,-5.94
-10.651,-3.8546,6.2926,1.7202,-0.48503,-0.075136,-39.48,38.28,-5.28
-13.729,-2.7104,5.993,1.6222,-0.81123,0.96395,-41.04,36.84,-4.56
-13.144,-3.4187,4.5083,1.4905,-1.5519,1.5699,-43.62,34.44,-3.72
-10.052,-4.5764,4.1678,1.2712,-0.93951,1.682,-44.28,33.48,-3.36
-8.7306,-5.4073,3.909,0.9725,0.41264,2.262,-44.88,32.7,-3.06
-4.1814,-9.112,3.2553,0.25351,1.5849,3.1432,-44.94,31.44,-2.28
-2.0022,-11.455,2.9965,-0.23396,2.0794,3.6371,-44.88,31.02,-2.1
-0.61292,-15.922,2.9284,-0.49694,2.4694,4.2968,-44.7,30.72,-1.98
11.019,-19.477,0.91256,-0.23824,2.6964,5.0968,-44.22,30.54,-2.4
17.747,-19.532,-0.20431,0.51801,2.8078,5.1279,-43.86,30.9,-2.82
19.314,-19.532,-1.7843,1.4612,2.9477,5.0219,-43.2,31.56,-3.48
16.957,-19.532,-4.8625,1.8289,2.339,3.6032,-41.7,33.54,-4.98
11.509,-16.998,-4.9306,1.9038,1.7364,1.219,-40.56,34.74,-5.58
9.4661,-14.56,-4.6445,1.6075,2.6139,-0.50946,-38.04,36.78,-6.96
10.147,-9.8611,-4.808,0.8717,2.7632,-0.73793,-36.78,37.86,-7.62
10.243,-6.6331,-4.9033,-0.0067195,2.463,-0.47709,-35.4,38.7,-8.22
9.9429,-4.6445,-5.0531,-0.52321,1.8137,-0.11026,-33.72,39.48,-8.94
8.2812,0.12258,-5.884,-0.63622,1.4035,0.027489,-32.28,40.14,-9.6
7.2052,3.2144,-6.3879,-0.52473,0.3821,0.18692,-30.66,40.74,-10.26
5.0259,9.5342,-7.8862,-0.14416,0.092546,-0.015882,-27.54,41.64,-10.92
4.6173,10.324,-8.4038,0.54275,-0.1066,-0.44624,-26.04,42.12,-11.1
4.9714,9.221,-8.7987,0.66035,-0.23854,-0.57269,-24.66,42.3,-11.34
7.641,6.0611,-8.1995,0.52534,-0.6744,-0.8262,-21.96,42.54,-11.76
10.515,2.2474,-7.1507,0.22907,-1.4704,-1.0608,-20.88,42.66,-11.76
11.836,-0.19068,-6.6195,-0.70005,-3.0207,-1.2853,-20.22,42.48,-11.76
18.796,-9.8611,-6.1292,-1.6194,-3.8488,-1.3308,-19.98,41.88,-11.52
19.355,-15.2,-7.1507,-1.252,-3.711,-1.1949,-20.46,41.82,-11.34
19.504,-19.0,-6.9328,-1.0489,-3.1615,-1.6438,-21.12,41.64,-11.16
19.532,-19.532,-1.3076,-2.0971,-2.094,-3.9196,-23.76,41.64,-10.92
17.38,-19.532,2.4925,-3.3292,-1.6878,-4.6948,-25.32,41.46,-10.62
11.468,-19.532,4.4811,-3.8436,-1.4584,-5.1435,-26.82,41.04,-10.2
3.2689,-18.782,3.8818,-3.2394,-1.0993,-5.2901,-30.18,39.96,-8.82
-1.4301,-13.866,3.3506,-1.6231,-0.55894,-5.0641,-31.86,38.82,-7.86
-6.6059,-7.0417,4.0316,0.16066,-0.35186,-3.7913,-35.22,36.48,-5.64
-7.5457,-5.6388,4.7263,1.2532,-0.16035,-1.7367,-36.96,35.34,-4.38
-8.322,-4.5356,4.9987,1.244,-0.28375,-0.49205,-38.52,33.96,-3.42
-9.4117,-3.4187,4.8352,1.1029,-0.78435,0.37202,-39.96,32.64,-2.46
-13.007,-2.7786,3.8954,1.0018,-1.1267,0.94531,-42.0,30.24,-0.84
-14.342,-3.623,3.4732,0.79657,-0.49847,1.8063,-42.66,29.04,-0.06
-10.338,-5.9249,2.9284,0.47525,0.096211,2.0858,-42.9,26.94,1.44
-7.464,-7.355,2.9556,0.083994,1.6903,2.7886,-42.84,25.92,2.28
-5.0259,-8.8941,2.9011,-0.47373,2.843,3.6612,-42.6,25.14,2.82
-2.152,-15.323,2.0567,-0.57635,3.1826,4.2394,-42.18,24.48,2.34
2.6015,-18.919,1.5119,-0.13042,3.4129,5.2675,-42.06,24.48,1.68
11.155,-19.504,0.9398,1.1606,2.7718,6.2876,-42.3,25.8,-0.12
19.382,-19.532,-3.1872,2.2529,1.335,5.3774,-42.24,26.64,-0.78
19.504,-19.532,-4.9442,2.4829,1.39,3.7907,-41.88,27.78,-1.44
18.02,-19.532,-5.4618,2.1945,1.0574,1.4523,-41.34,28.92,-1.92
11.972,-16.508,-3.9635,1.2187,2.1615,0.15394,-39.36,31.56,-2.76
11.673,-12.19,-3.5413,0.19731,2.7278,-0.029016,-38.22,32.76,-3.48
11.659,-4.2904,-4.4402,-0.36316,2.5742,0.36194,-35.64,35.04,-4.86
11.632,-0.46309,-5.4209,-0.44043,1.4056,0.91813,-34.38,36.0,-5.58
10.215,4.5356,-6.5786,-0.2361,0.98624,1.0391,-33.24,36.96,-6.24
9.6977,6.7012,-6.9872,0.40531,0.36041,1.1383,-31.98,37.86,-6.96
9.0439,9.3299,-7.6955,1.015,0.011912,0.5901,-29.52,39.54,-7.02
8.7034,7.5865,-7.8998,1.0818,-0.22663,-0.19609,-28.2,40.08,-6.96
8.8941,5.7069,-7.9951,0.83597,-0.55283,-0.74434,-26.52,40.56,-6.66
10.256,2.4653,-7.8998,0.47159,-1.1139,-1.3711,-23.46,41.22,-6.96
11.21,-0.31327,-7.4095,-0.36224,-2.2706,-1.7877,-22.38,41.22,-7.32
11.931,-3.1054,-6.1155,-1.2498,-3.1117,-2.0446,-21.54,41.22,-7.38
15.895,-7.6546,-3.9908,-1.7978,-3.8045,-2.0107,-21.12,41.04,-7.44
18.946,-13.375,-5.4481,-1.4303,-3.9862,-1.7245,-21.48,41.04,-7.02
19.463,-18.769,-5.8567,-0.88209,-3.3552,-1.9624,-22.38,41.04,-6.66
19.532,-19.518,-2.3427,-1.2938,-2.5644,-3.3698,-24.96,41.16,-5.82
17.706,-19.532,1.9341,-3.1062,-1.3812,-4.1407,-26.34,41.1,-5.52
13.893,-19.532,3.4596,-3.7394,-1.1487,-4.7965,-27.96,41.04,-4.86
4.4947,-19.259,3.5413,-3.4957,-1.0644,-5.1313,-31.02,40.02,-3.66
-0.054481,-14.492,3.337,-2.4248,-0.84452,-5.2122,-32.7,39.18,-2.64
-4.4266,-9.0848,3.5685,-0.72265,-0.75075,-4.6914,-34.32,38.22,-1.56
-8.9077,-5.7205,4.0861,0.54581,-0.58826,-2.7061,-37.68,35.52,0.9
-10.093,-4.8352,4.8488,1.2355,-0.46426,-1.3308,-39.3,34.14,2.28
-10.924,-3.9635,5.0668,1.2944,-0.49663,-0.71196,-40.8,32.76,3.3
-12.572,-4.3177,4.9714,1.2031,-0.99632,0.64141,-43.32,30.12,4.86
-13.443,-5.0259,4.6173,0.92546,-0.89125,1.3002,-44.16,28.92,5.52
-13.021,-5.7205,4.4811,0.46365,-0.17349,1.9426,-44.64,27.78,6.18
-7.1915,-6.9464,3.8001,0.049175,1.124,2.5846,-45.06,25.38,7.44
-4.6173,-8.1722,3.4732,-0.37843,2.1732,3.5284,-45.0,24.54,7.98
-2.8603,-10.651,2.9556,-0.57605,2.471,4.0992,-44.82,23.76,8.16
-0.31327,-17.734,3.0646,-0.7364,2.8653,5.0002,-44.76,23.22,7.92
9.2074,-19.423,2.1248,-0.27764,3.2235,5.9724,-44.64,23.52,7.32
17.775,-19.518,-0.19068,0.90866,3.1069,6.2525,-44.64,24.12,6.6
19.504,-19.532,-5.094,2.2816,2.3775,5.8897,-44.34,26.58,5.16
19.532,-19.532,-5.7614,2.9154,1.6423,4.5604,-43.68,27.96,4.5
18.619,-19.355,-5.7069,2.905,1.2465,3.4086,-42.78,29.52,3.9
13.675,-15.541,-4.9987,2.4474,1.2761,1.1606,-41.7,31.2,3.18
9.9837,-8.3493,-4.3858,0.76572,2.3863,0.05284,-38.88,34.26,1.32
11.073,-4.9442,-4.7399,-0.036346,2.5644,0.16707,-37.56,35.76,0.24
11.782,-1.7025,-6.1564,-0.43219,1.828,0.40897,-36.06,37.2,-0.9
10.706,4.9442,-7.5048,-0.098044,0.22633,0.75686,-33.18,39.72,-2.64
9.3572,7.4776,-8.1177,0.48503,-0.43188,0.67042,-31.92,40.74,-3.24
8.3765,8.1586,-8.3901,0.85124,-0.71257,0.25717,-30.54,41.82,-3.72
7.1915,6.5241,-7.8317,0.77885,-0.79229,-0.31521,-27.3,43.38,-4.32
7.6546,5.1757,-6.96,0.4105,-0.98258,-0.86315,-25.74,43.98,-4.5
8.7306,3.2144,-5.993,-0.057421,-1.5195,-1.2171,-24.12,44.34,-4.62
10.12,-1.7979,-4.8352,-1.0715,-2.6777,-1.5281,-21.84,44.7,-5.04
12.149,-4.1133,-3.9908,-1.6331,-3.1371,-1.5705,-21.3,44.64,-5.1
14.86,-7.0009,-4.5083,-1.613,-3.2367,-1.503,-21.12,44.52,-4.98
19.45,-18.96,-6.17,-0.50641,-3.1615,-0.73518,-21.96,44.16,-4.2
19.518,-19.463,-4.5356,-0.45479,-2.8918,-1.9829,-22.62,44.04,-3.66
19.532,-19.532,-1.5527,-1.7364,-2.6762,-3.6365,-23.64,43.98,-3.12
13.321,-19.532,3.1599,-3.2379,-2.3689,-5.2754,-26.16,43.56,-2.28
7.5593,-19.532,3.337,-3.4761,-2.3167,-5.5677,-27.54,43.32,-1.98
3.8137,-19.532,2.942,-3.4722,-1.9988,-5.8435,-28.8,42.72,-1.5
-2.942,-9.4389,3.3097,-1.952,-1.0785,-5.236,-31.38,41.1,0.06
-4.7671,-5.3528,3.514,-0.29841,-0.90225,-3.817,-32.64,40.02,0.9
-5.5843,-4.9442,4.127,0.70372,-0.84788,-2.4148,-33.96,38.7,1.74
-7.4367,-4.4266,5.3937,0.93126,-0.7028,-1.1157,-36.42,36.24,3.42
-10.569,-3.4187,6.3471,0.46181,-0.22266,-0.47464,-37.56,34.98,4.02
-13.157,-2.9692,6.4152,0.12126,0.045509,0.19181,-38.58,33.72,4.56
-17.23,-2.5606,5.8295,-0.018631,-0.44929,0.82558,-39.42,32.4,4.92
-11.155,-3.9363,4.6037,-0.0085521,0.30665,1.7251,-40.32,30.12,5.52
-8.322,-6.1428,4.2087,-0.029322,1.2559,2.8989,-40.5,28.92,5.88
-4.8761,-13.021,3.3778,-0.28283,1.8735,3.8543,-40.14,27.18,6.36
-1.6072,-17.72,2.9692,-0.33109,2.6686,4.8884,-40.08,26.58,6.36
6.9464,-19.423,1.4982,0.43982,3.5659,6.2531,-40.14,26.46,6.0
12.503,-19.504,0.77636,1.0351,3.1566,6.0631,-40.26,26.7,5.46
19.409,-19.532,-3.732,1.5125,2.3915,4.7843,-40.62,28.14,4.2
19.518,-19.532,-4.5764,1.9771,2.5745,4.5241,-40.32,29.28,3.66
17.843,-18.156,-4.9578,2.4685,2.0146,3.5717,-39.78,30.48,3.12
14.097,-14.71,-4.9306,2.2199,0.78924,1.4603,-37.74,33.12,1.74
11.986,-11.931,-4.9169,1.5669,0.7645,1.0424,-36.36,34.38,1.08
11.196,-9.9973,-5.1894,1.2718,0.84727,1.0073,-34.8,35.82,0.3
10.924,-4.4675,-6.8102,0.81459,0.94409,0.98624,-31.86,38.46,-1.56
10.569,-1.866,-7.4776,0.83719,0.61331,0.85338,-30.42,39.66,-2.46
9.5751,0.76274,-8.431,1.014,0.073304,0.59071,-28.86,40.56,-3.18
7.4776,5.0395,-9.2346,1.0904,-0.54917,-0.11942,-25.68,42.36,-4.14
6.0474,6.2517,-9.1393,0.92057,-0.83902,-0.44838,-23.82,42.9,-4.56
5.9385,6.1292,-8.8668,0.81276,-1.0085,-0.49358,-22.02,43.26,-4.98
7.7908,2.6423,-8.0224,0.38576,-1.8173,-0.42638,-18.78,43.68,-5.94
8.4719,0.47671,-7.1507,-0.10293,-2.5937,-0.46395,-17.64,43.62,-6.36
9.0848,-1.9205,-5.9249,-0.69608,-3.5678,-0.32162,-16.38,43.74,-7.5
14.996,-8.1177,-5.6661,-1.2443,-3.8005,-0.049786,-16.26,43.5,-7.8
18.823,-14.083,-6.4152,-1.2556,-3.8442,0.28955,-16.44,43.44,-7.86
19.355,-18.088,-6.6059,-1.4939,-3.4712,-0.30268,-16.98,43.44,-7.62
19.532,-19.504,-4.2768,-2.2217,-2.7804,-2.0693,-18.72,43.08,-6.84
19.532,-19.532,-2.3563,-2.9981,-2.5858,-3.4047,-19.68,42.9,-6.48
19.532,-19.532,0.47671,-3.6945,-2.5595,-4.4834,-21.06,42.78,-5.88
13.389,-19.532,2.0294,-4.0674,-2.6664,-5.4092,-24.36,41.94,-4.56
9.0575,-18.483,3.3642,-4.0171,-2.7174,-5.5858,-26.34,41.34,-3.54
7.1643,-17.339,3.9908,-3.8408,-2.6701,-5.6282,-27.9,40.32,-2.28
2.0431,-13.375,5.6388,-2.8069,-2.2907,-5.4205,-31.2,37.5,0.66
1.1986,-10.801,5.9112,-1.7895,-1.9694,-4.9908,-32.82,35.94,2.1
0.95342,-9.0575,5.884,-0.85643,-1.6667,-4.4816,-34.32,34.14,3.72
0.25879,-7.5593,5.094,0.2306,-1.3821,-3.8039,-37.02,30.12,6.9
-0.32689,-7.4776,4.5356,0.52504,-1.4667,-3.5265,-38.28,28.14,8.22
-1.3893,-7.2052,3.8546,0.49388,-1.5247,-3.3323,-39.24,25.74,9.48
-3.3778,-6.3198,2.8194,0.35003,-1.2914,-3.0204,-40.68,20.7,12.12
-4.0452,-5.5571,2.1929,0.21808,-0.87995,-2.5094,-41.16,18.3,13.5
-5.4345,-5.6116,1.6481,0.087965,-0.33903,-1.8375,-41.4,15.78,14.64
-7.3958,-6.851,1.4301,-0.15882,1.0736,-0.39248,-41.4,11.04,17.04
-7.8317,-6.8919,1.362,-0.16921,2.2599,0.94012,-41.22,9.0,18.12
-5.884,-7.6274,1.6072,0.12553,3.2257,2.434,-41.34,7.26,18.78
1.0896,-10.311,-0.38137,0.90683,3.3723,3.9984,-41.34,4.92,19.56
6.456,-12.0,-2.1929,2.1884,2.737,5.2143,-41.34,4.2,19.44
11.632,-12.994,-4.4947,3.6609,1.3051,5.5781,-41.52,3.9,19.26
14.165,-13.702,-7.4095,4.8958,-0.64263,4.445,-41.94,4.68,18.12
12.762,-14.288,-7.9951,5.087,-1.6304,3.7116,-42.12,5.4,17.4
10.978,-15.023,-8.4446,4.4648,-0.81215,3.1609,-42.48,6.6,16.5
9.1256,-12.83,-8.4855,3.6713,-0.065668,2.9227,-43.38,9.48,14.7
10.079,-11.673,-8.5944,3.2101,0.057727,2.7672,-44.04,11.04,13.92
10.787,-10.61,-9.0167,2.956,-0.40164,2.6005,-44.46,12.78,13.14
9.507,-8.2131,-8.3357,2.7077,-1.0592,2.0333,-44.58,16.86,11.82
8.5944,-7.5729,-8.1177,2.1906,-1.5852,1.4991,-44.16,18.9,11.22
6.7966,-6.1292,-7.8181,1.8509,-1.6316,1.1558,-43.68,21.06,10.5
5.8431,-4.6582,-7.8726,1.7413,-1.6787,1.0369,-42.0,25.38,9.3
6.5378,-4.808,-8.1177,1.8372,-1.9145,1.0974,-41.16,27.24,8.88
7.6819,-6.17,-8.322,1.9875,-2.4279,1.2926,-40.08,29.1,8.52
10.025,-9.1665,-8.0769,1.8579,-3.1227,1.5223,-37.74,31.98,8.04
10.624,-10.188,-7.4367,1.0806,-3.8937,1.5,-36.54,33.24,8.1
10.937,-10.42,-6.8783,0.47006,-4.1078,1.3231,-35.22,34.32,8.1
12.054,-10.665,-5.9657,0.2419,-4.2137,1.2181,-33.84,35.34,8.22
13.702,-11.332,-4.9306,-0.30116,-4.4303,0.83047,-30.6,37.2,8.76
13.866,-11.155,-4.0044,-0.75625,-4.3995,0.50977,-29.1,38.04,9.0
13.947,-10.474,-2.2474,-1.4536,-4.1847,-0.027184,-26.58,39.24,9.6
13.92,-10.12,-0.9398,-1.7654,-4.1243,-0.27886,-25.8,39.6,10.08
14.438,-9.9837,-0.027241,-1.843,-4.105,-0.35736,-24.96,40.02,10.86
14.71,-9.9837,0.7355,-1.825,-4.138,-0.52382,-24.18,40.02,11.64
15.418,-10.637,2.6015,-1.733,-4.1798,-0.66371,-22.62,40.14,13.8
15.514,-10.542,3.6639,-1.6386,-4.1441,-0.86071,-21.84,39.9,15.0
14.901,-10.501,4.5628,-1.449,-4.0351,-1.1243,-20.94,39.72,16.5
12.721,-11.005,4.7399,-1.1432,-3.5717,-1.5354,-19.26,38.94,19.2
12.245,-11.101,5.3119,-1.0693,-3.2254,-1.6997,-18.18,38.34,20.82
11.182,-11.182,6.2245,-1.0043,-3.0626,-1.7639,-17.16,37.68,22.14
8.3493,-10.855,7.4776,-0.40775,-2.7315,-1.9261,-15.06,36.12,24.78
6.8647,-11.305,8.2948,-0.043066,-2.4764,-1.996,-14.1,35.28,26.1
5.489,-11.482,8.3493,0.35003,-2.102,-2.0247,-13.14,34.44,27.0
2.8875,-11.7,8.9349,0.89309,-2.2465,-2.051,-11.1,33.06,29.04
0.99429,-12.19,8.9758,1.3928,-2.2022,-1.9542,-10.02,32.28,29.82
-1.1305,-13.879,8.9077,1.8179,-2.0272,-1.7617,-8.94,31.86,30.42
-4.1542,-15.282,7.9815,2.0085,-1.4529,-1.3271,-7.14,31.26,30.9
-5.6116,-15.391,7.3958,2.0388,-0.6915,-0.95661,-6.3,31.2,31.14
-7.6138,-15.636,6.7693,1.9606,-0.15272,-0.52229,-5.58,31.08,31.02
-9.3844,-15.8,5.0259,1.9105,-0.018021,-0.10018,-4.14,31.32,30.48
-8.3629,-15.936,4.2087,1.96,0.46517,0.27031,-3.72,31.56,29.94
-6.7012,-16.794,2.4108,2.0537,0.82925,0.68845,-3.48,31.98,29.46
-3.4459,-16.767,-0.17706,2.1848,0.98502,0.9447,-3.3,33.3,27.96
-2.0839,-16.576,-1.3484,2.4337,0.90775,1.1677,-3.06,33.96,27.12
-0.8717,-16.344,-2.8603,2.927,0.70372,1.4587,-3.0,34.74,26.28
1.58,-16.44,-5.2302,3.3732,0.45387,1.8799,-2.88,36.36,24.06
3.8682,-16.998,-6.2517,3.5042,0.039706,2.1243,-2.88,37.26,23.04
6.456,-17.638,-6.9328,3.3463,-0.052534,2.1783,-2.64,37.92,22.02
8.1586,-17.42,-7.246,2.0641,-0.55192,1.9178,-2.28,38.7,21.06
8.2403,-14.165,-7.069,0.686,-0.87934,1.2465,-1.26,39.78,18.72
7.5048,-11.645,-6.6604,-0.72693,-0.85277,0.24068,-0.54,40.38,17.52
7.0962,-9.0167,-5.4481,-1.7129,-0.68356,-0.46945,-0.12,40.86,16.62
7.9815,-4.7807,-4.6718,-2.5009,-0.61881,-1.0638,1.02,41.34,15.48
8.4582,-2.9284,-3.7728,-2.7984,-0.84269,-1.4349,1.5,41.64,14.82
8.5127,-1.362,-2.8603,-2.8836,-1.0742,-1.5739,2.16,41.7,14.4
8.0769,0.32689,-1.58,-2.7935,-1.8518,-1.8357,3.36,41.46,14.04
7.6955,0.35413,-1.1305,-2.3851,-2.2724,-1.9875,3.84,41.16,14.16
7.1915,-0.32689,-1.0488,-1.7514,-2.4975,-2.178,4.56,40.62,14.64
6.565,-2.0975,-1.0351,-1.1298,-2.4493,-2.4331,4.68,40.44,14.82
7.1643,-4.3858,-1.2667,-0.67501,-2.1225,-2.6573,4.5,40.14,15.12
7.927,-5.5571,-1.1986,-0.4893,-1.9086,-2.8069,4.2,39.84,15.36
10.379,-8.2539,-0.84446,-0.58551,-2.4432,-2.6417,3.66,39.72,15.9
14.655,-12.803,-0.99429,-0.62461,-3.1496,-2.3338,2.4,39.54,16.56
18.306,-16.018,-0.98067,-0.54672,-3.4627,-2.0852,1.92,39.66,16.86
19.504,-19.45,0.64016,-0.77702,-3.3219,-1.9972,0.9,39.84,17.1
19.137,-19.518,1.58,-1.412,-3.1967,-2.3619,0.6,39.9,17.22
16.617,-19.532,2.3018,-1.9597,-2.9499,-3.0766,0.06,40.02,17.22
10.351,-19.532,4.6173,-2.529,-2.3155,-3.8747,-0.84,40.38,17.28
6.7285,-18.851,5.38,-2.5498,-1.7336,-4.175,-1.56,40.56,17.22
3.1191,-15.813,5.3937,-2.0046,-1.1613,-4.2244,-2.16,40.62,17.28
-1.8387,-10.256,6.3062,-0.73609,-0.035125,-3.5449,-3.9,40.32,17.52
-4.8352,-6.2109,6.4833,-0.13042,0.40592,-3.0864,-4.92,40.2,17.7
-5.6388,-5.3392,6.3471,1.4664,0.9334,-1.5443,-5.88,39.96,17.94
-7.8589,-4.5083,6.5378,1.9966,0.89644,-0.61392,-7.92,39.0,18.3
-9.1665,-4.018,6.1292,2.2107,0.54031,0.18204,-9.12,38.64,18.42
-9.5751,-3.9363,5.5843,2.2061,0.30879,1.0299,-10.44,38.28,18.6
