Ax,Ay,Az,Gx,Gy,Gz,Mx,My,Mz
-3.5277,-5.203,-0.6674,1.43,-0.95387,-0.32437,-24.54,16.8,-37.14
-4.5356,-4.7944,-1.076,1.1374,-0.73762,-0.1014,-24.66,15.78,-38.1
-5.7614,-4.3177,-1.0215,0.78679,-0.45418,0.18723,-24.48,14.94,-39.12
-7.8998,-3.2144,-1.2531,0.45265,-0.1518,0.52779,-23.52,13.86,-40.8
-7.355,-3.732,-1.9886,0.22999,0.083689,0.84208,-22.5,13.56,-41.52
-6.0611,-5.1485,-2.5061,0.033903,0.10629,1.1484,-21.06,13.86,-42.0
-3.0237,-7.3958,-1.8387,-0.43799,-0.22694,1.6099,-17.88,14.52,-41.34
0.99429,-12.381,1.7979,-1.0186,-0.34147,1.8546,-16.8,14.76,-40.68
6.1292,-18.292,4.3177,-2.0904,-0.057421,1.9722,-16.5,14.76,-40.32
16.712,-19.504,9.0167,-2.8564,0.92668,3.1191,-17.58,14.88,-40.92
18.81,-19.532,9.8066,-2.7458,2.5916,3.2345,-18.84,14.82,-41.58
19.355,-19.504,9.7385,-2.3332,3.5876,2.2113,-20.58,14.88,-41.88
19.532,-15.595,8.8532,-2.095,3.1227,1.5834,-23.64,15.18,-41.52
19.123,-11.387,7.1779,-1.8372,1.3616,1.3079,-24.78,15.54,-40.92
15.827,-7.4503,5.8023,-1.5766,-0.014966,1.1613,-25.56,16.08,-39.96
9.0303,-2.6015,4.7399,-1.4481,0.20556,1.0733,-26.7,17.76,-38.16
7.9543,-1.58,4.4675,-1.4395,1.3955,1.018,-27.18,18.66,-36.96
7.7091,0.19068,3.4732,-1.4426,2.7629,0.75472,-27.78,19.5,-35.64
9.3436,2.2882,0.99429,-1.4474,3.5116,0.35644,-28.8,21.6,-32.46
9.4661,3.8682,0.23155,-1.1429,2.8488,0.009163,-29.1,22.74,-30.66
8.2812,4.6037,-0.29965,-0.71196,1.5562,-0.26573,-29.28,23.76,-28.62
7.2324,4.8625,-1.9886,-0.35613,0.59376,-0.37049,-28.02,26.1,-23.94
6.7693,5.3119,-2.0158,-0.11698,-0.56505,-0.59895,-26.7,27.42,-21.78
5.6661,5.4754,-1.4301,-0.054367,-0.80023,-0.66065,-24.96,28.74,-20.1
5.8704,3.2144,-0.64016,0.15547,-0.6802,-0.85032,-21.66,30.9,-18.12
7.0417,1.9341,0.72188,0.32467,-0.29719,-1.1057,-20.52,31.74,-17.76
9.5615,0.40861,2.3699,0.41814,0.016799,-1.3528,-19.56,32.34,-17.76
18.714,-7.3822,8.0088,0.2865,0.29138,-1.314,-18.66,32.7,-17.76
19.436,-13.007,11.931,0.624,-0.40195,-0.86651,-18.6,32.76,-17.82
19.518,-15.119,13.811,0.91752,-0.40012,-0.84391,-18.9,32.7,-18.0
19.532,-12.994,12.34,2.0186,0.085827,-1.5919,-20.22,31.5,-18.36
19.504,-12.912,9.9565,2.7284,-0.88453,-2.2226,-21.36,30.36,-18.9
17.23,-13.076,8.7715,3.0552,-2.1301,-2.4096,-22.68,29.16,-20.04
9.793,-11.972,6.4969,3.0717,-3.04,-2.2358,-24.9,26.34,-24.42
6.1836,-10.46,5.1213,2.7755,-3.1777,-1.8085,-25.32,25.02,-26.82
4.1678,-9.398,4.2495,2.6264,-2.9309,-1.6503,-25.56,23.82,-29.22
0.57205,-7.7364,2.6832,2.0278,-1.7981,-1.1539,-25.56,22.56,-30.9
-2.7649,-5.993,1.3212,1.6194,-1.0336,-0.78282,-25.44,20.16,-33.78
-4.6582,-4.6445,0.21793,1.2437,-0.27947,-0.43066,-25.32,18.96,-34.92
-5.3937,-3.8682,-0.7355,0.90866,0.28222,0.061087,-24.72,16.86,-37.26
-6.17,-3.2961,-0.85808,0.73915,0.1912,0.23243,-24.3,15.96,-38.46
-6.8919,-3.4323,-0.64016,0.52748,-0.078191,0.3766,-23.52,15.18,-39.42
-7.2052,-3.732,-0.7355,0.30971,-0.24618,0.60567,-22.5,14.46,-40.44
-7.0417,-4.7671,-1.0624,0.073915,-0.27917,1.0296,-21.42,14.04,-41.46
-4.6173,-6.3062,-0.44947,-0.2022,-0.19273,1.4386,-18.0,14.46,-42.42
-0.8717,-9.7794,1.471,-0.62278,-0.013439,1.8021,-16.14,14.82,-42.36
7.2324,-18.742,5.4481,-1.4969,0.33689,1.9878,-14.76,15.18,-42.06
13.443,-19.477,7.8589,-2.2361,1.361,2.9514,-14.34,15.42,-43.08
16.603,-19.532,8.036,-2.1255,1.9853,3.463,-15.24,15.54,-44.34
18.769,-19.532,7.641,-1.5953,2.3787,3.1964,-16.8,15.54,-45.18
19.518,-18.565,7.2188,-1.507,1.0962,2.2886,-20.94,15.96,-45.6
18.796,-15.745,6.9055,-1.4777,0.22969,1.7419,-22.62,16.26,-45.0
13.375,-10.42,5.1076,-1.5311,0.98869,1.3225,-24.72,16.92,-42.9
9.4661,-5.8704,4.0316,-1.8732,2.6029,1.0012,-25.26,17.46,-41.88
10.351,-2.7649,2.9011,-2.0669,3.6957,0.72204,-25.68,18.3,-40.68
11.06,-1.1577,2.8058,-1.9273,3.4044,0.48106,-25.92,19.2,-39.6
11.468,1.0896,2.5742,-1.6179,2.1435,0.18418,-26.04,20.04,-38.34
9.0848,3.2553,1.5119,-1.1741,1.1414,0.0039706,-26.94,21.96,-34.8
7.9679,3.7592,0.49033,-0.77733,0.56688,-0.20006,-27.18,22.86,-32.64
6.0883,5.2711,-1.185,-0.44257,0.23488,-0.38026,-26.52,24.9,-26.88
5.8567,5.8976,-1.757,-0.082772,-0.01405,-0.49572,-25.32,25.98,-23.82
5.993,5.9385,-1.8387,0.13592,-0.19181,-0.5846,-23.4,27.06,-21.3
7.641,4.2223,-1.362,0.33048,-0.42302,-0.8375,-18.84,29.16,-18.42
8.4038,3.2825,-0.38137,0.57513,-0.70769,-1.1261,-16.98,30.0,-17.64
8.9758,2.0022,1.7979,0.79535,-0.821,-1.3137,-14.76,31.32,-17.46
16.808,-5.2575,6.0066,0.63622,-0.90927,-1.4923,-14.4,31.62,-17.4
19.191,-10.828,9.9973,0.55528,-1.0867,-1.3604,-14.64,31.8,-17.46
19.491,-14.179,13.062,1.004,-1.3442,-1.1741,-15.12,31.56,-17.34
19.532,-13.375,12.79,1.4737,-0.26848,-1.6047,-16.98,30.54,-17.64
19.532,-14.192,11.468,2.0269,-0.10537,-2.2541,-18.12,29.82,-18.12
18.469,-14.124,9.9565,2.3851,-0.87048,-2.4227,-19.5,28.86,-19.08
11.278,-12.231,7.069,2.5244,-1.9673,-2.3393,-21.66,26.58,-22.14
8.0224,-11.25,5.7614,2.4441,-2.1026,-2.0919,-22.38,25.5,-24.06
6.1155,-10.338,4.8625,2.3882,-2.029,-1.9297,-22.86,24.3,-26.04
2.942,-8.5536,3.1599,2.0892,-1.5446,-1.3815,-23.16,23.1,-27.66
-1.3484,-5.6933,0.72188,1.8729,-1.2333,-1.0449,-23.64,20.94,-30.48
-3.6366,-4.5356,-0.24517,1.6396,-0.96883,-0.55803,-23.88,19.86,-31.62
-7.0145,-2.8603,-1.1305,1.3775,-0.75136,-0.40042,-24.0,17.88,-33.84
-8.54,-2.4244,-1.4438,0.88239,-0.31979,0.093157,-23.76,16.86,-34.92
-8.7715,-2.5742,-1.4574,0.59223,-0.14813,0.40806,-23.52,16.14,-35.7
-7.9134,-3.4732,-1.2531,0.29444,-0.06353,0.72754,-22.32,15.24,-37.08
-6.7966,-4.8761,-1.471,0.043371,-0.0039706,1.1283,-21.3,14.94,-37.68
-5.3119,-6.2926,-0.92618,-0.31612,0.0012217,1.7315,-18.36,14.94,-38.04
-1.1305,-10.065,0.70826,-0.63927,0.05681,1.9908,-16.92,15.12,-38.34
2.7786,-15.732,3.6094,-1.2917,0.50213,2.1331,-16.08,15.24,-38.82
6.3335,-18.578,5.2438,-2.109,1.1127,2.6493,-15.9,15.36,-39.84
18.483,-19.518,9.902,-2.4047,1.4212,3.4514,-17.82,15.72,-42.36
19.409,-19.532,9.7658,-2.1988,2.4994,3.445,-19.56,15.78,-43.38
19.518,-17.148,8.036,-1.639,2.9774,2.3564,-21.42,16.08,-43.8
19.109,-14.547,7.0417,-1.4438,2.4386,1.5824,-24.42,16.92,-43.38
15.977,-11.713,5.6797,-1.3735,1.2214,1.4248,-25.26,17.4,-42.66
12.653,-8.3765,4.9987,-1.3769,0.73762,1.4111,-25.5,18.18,-41.82
9.9973,-5.0259,3.337,-1.7617,2.102,1.0134,-25.8,19.56,-40.08
10.052,-2.6423,2.5742,-2.1997,3.5375,0.78618,-25.8,20.46,-39.12
10.079,0.91256,2.1384,-1.9691,3.1716,0.47159,-26.22,22.5,-36.48
8.4855,3.1872,1.3757,-1.5797,2.4441,0.31826,-26.58,23.52,-34.68
8.322,4.3585,0.68102,-1.3039,1.9911,0.19609,-26.7,24.6,-32.4
7.9679,4.8897,0.21793,-0.81428,1.0867,0.031154,-26.16,25.86,-29.58
7.5457,5.1076,-1.2258,-0.27092,-0.051313,-0.13256,-23.4,28.02,-24.18
7.9679,4.7944,-1.4438,-0.030238,-0.72296,-0.29963,-21.12,29.22,-21.96
8.145,4.3858,-1.0215,0.18234,-1.0638,-0.53237,-18.9,30.3,-20.52
8.145,3.4459,0.61292,0.32926,-0.96456,-0.8491,-15.3,32.34,-19.2
8.2676,2.942,1.8932,0.40409,-0.50549,-1.4759,-14.16,33.18,-19.14
9.6977,1.0351,4.1406,0.28558,-0.17287,-1.6444,-13.68,33.78,-19.2
17.802,-5.2847,8.8941,0.083689,-0.082772,-1.5922,-13.26,34.68,-19.56
19.423,-13.28,14.451,0.31673,-0.79535,-1.4432,-13.62,34.68,-19.62
19.518,-15.091,15.772,1.2205,-0.79535,-1.2935,-14.16,34.5,-19.68
19.532,-14.642,12.449,2.7351,-0.30696,-2.1231,-16.02,33.48,-19.92
19.532,-14.969,10.883,3.5027,-1.1781,-2.4105,-17.34,32.82,-20.58
18.224,-14.873,10.093,3.686,-1.7263,-2.4651,-18.9,32.04,-21.9
10.774,-13.702,7.641,3.6099,-2.656,-2.4016,-21.66,30.36,-25.8
7.3277,-13.184,6.0883,3.31,-2.3305,-2.0592,-22.68,29.34,-27.96
4.522,-12.0,4.4811,2.959,-1.762,-1.566,-23.22,28.2,-30.0
-0.31327,-8.6217,1.58,2.2608,-1.0043,-0.91355,-23.7,25.56,-33.3
-2.0158,-7.0009,0.14982,1.7694,-0.7645,-0.5171,-23.88,24.24,-34.68
-3.6094,-5.8431,-0.83084,1.5229,-0.66279,-0.33292,-23.94,22.86,-36.0
-5.2575,-4.985,-2.0294,0.91263,-0.6973,0.42333,-24.0,21.6,-37.26
-7.3822,-3.4323,-2.1248,0.51954,-0.6802,0.85949,-23.58,19.38,-39.6
-7.9951,-3.2416,-1.9886,0.20006,-0.478,1.2535,-23.04,18.54,-40.92
-7.3958,-3.8273,-1.7298,-0.012828,-0.21869,1.5629,-22.08,17.7,-42.3
-4.6718,-5.3664,-1.58,-0.30696,-0.13103,1.8045,-19.08,16.74,-45.12
-2.8058,-6.674,-1.1169,-0.54398,-0.22297,2.0479,-17.28,16.2,-46.62
-1.6481,-7.4095,-0.65378,-0.69486,-0.30238,2.1585,-15.54,15.6,-48.06
4.1678,-15.241,2.6015,-1.5192,-0.38882,2.2147,-15.0,13.92,-50.52
8.2539,-19.0,5.4481,-2.5165,-0.050396,2.3195,-16.44,13.26,-51.24
12.435,-19.463,10.161,-3.244,1.5266,3.383,-20.34,12.66,-51.12
16.549,-19.477,9.9292,-2.8665,3.4743,3.2382,-21.9,12.66,-50.22
18.496,-17.053,8.4855,-2.0663,4.3601,2.2294,-23.16,12.84,-49.26
19.327,-14.887,7.1779,-1.5721,3.3045,1.4218,-24.12,13.38,-48.18
17.597,-12.572,6.0611,-1.3412,1.335,1.3112,-24.6,13.86,-47.04
11.073,-7.1915,4.4811,-1.2153,-0.015577,1.4835,-25.44,15.18,-44.34
8.7579,-5.1621,4.2768,-1.0873,-0.20586,1.6338,-25.8,15.9,-42.96
6.8919,-3.3642,2.7649,-1.1805,0.91569,1.5467,-26.34,16.68,-41.22
8.2948,-1.8387,1.7979,-1.4508,3.2049,1.1423,-27.48,18.6,-36.06
9.9565,-0.081722,1.5527,-1.4401,3.3985,0.94379,-27.78,19.8,-32.7
10.433,1.6617,0.83084,-1.1784,2.423,0.56505,-27.36,21.42,-29.22
10.379,3.8954,-0.095342,-0.77183,1.2825,0.35186,-23.88,24.66,-23.16
9.9701,3.9771,-0.34051,-0.35369,0.43677,-0.0061087,-21.36,26.22,-21.18
9.2891,3.5685,-0.84446,0.13592,-0.2642,-0.57941,-16.8,28.8,-19.44
9.0031,3.0237,-1.0896,0.25229,-0.46792,-0.7199,-15.18,29.82,-19.2
8.826,2.656,-0.35413,0.4554,-0.86712,-1.1802,-13.86,30.6,-19.08
8.9077,2.2201,0.64016,0.52412,-0.821,-1.5104,-12.96,31.44,-18.96
12.0,-2.4789,3.7047,0.53298,-0.47525,-1.8256,-11.88,32.4,-19.08
16.535,-7.6683,6.0883,0.46029,-0.32101,-2.0064,-11.76,32.76,-19.14
19.45,-15.023,10.665,0.99052,-1.2456,-1.6145,-12.06,33.0,-19.14
19.532,-14.519,12.068,1.5409,-0.97128,-1.7309,-12.48,32.88,-19.32
19.532,-16.671,11.959,2.0956,-0.5849,-2.3976,-13.26,32.76,-19.32
19.532,-18.524,11.359,2.5333,-0.82345,-2.6866,-14.34,32.28,-19.56
17.053,-17.162,9.221,2.6884,-1.3757,-2.8811,-17.34,31.2,-20.58
13.184,-15.541,7.5457,2.7425,-1.7507,-2.9514,-19.14,30.42,-21.78
8.4855,-12.939,4.3177,2.7092,-1.8439,-2.7623,-20.88,29.82,-23.58
3.5958,-10.147,3.1191,2.5317,-1.6832,-2.2498,-22.74,28.68,-27.84
0.38137,-8.3084,2.2474,2.2666,-1.3912,-1.883,-23.28,28.08,-29.82
-0.88532,-7.3414,1.7025,1.9587,-1.0351,-1.5351,-23.7,27.18,-31.56
-3.1599,-5.1894,-0.50395,1.6857,-0.65485,-1.2541,-24.12,25.62,-34.32
-4.1814,-4.4811,-1.8387,1.4536,-0.49236,-0.93737,-24.24,24.78,-35.34
-5.7478,-3.909,-2.6015,1.1374,-0.45723,-0.53573,-24.3,23.94,-36.42
-8.7715,-2.9011,-1.8524,0.562,-0.28619,-0.010385,-23.76,22.14,-38.16
-9.8611,-3.0101,-1.757,0.22052,-0.058643,0.45693,-23.28,21.42,-39.06
-9.1665,-3.3234,-1.7979,-0.030849,0.089186,1.0901,-22.44,20.88,-39.66
-6.279,-5.1485,-1.4438,-0.29016,0.043982,1.4255,-19.5,20.22,-40.86
-4.9306,-6.5105,-0.9398,-0.52382,-0.10751,1.7987,-17.34,20.1,-41.1
-2.4108,-9.3572,2.3836,-1.3699,0.015882,2.8417,-13.5,19.44,-41.52
4.9169,-18.987,5.1894,-2.3628,0.31154,3.7089,-12.9,18.84,-42.3
15.35,-19.504,9.4661,-2.7593,1.0852,4.1151,-13.5,18.36,-43.38
18.483,-19.532,10.474,-2.6392,1.9416,4.2593,-15.3,17.88,-44.34
19.518,-19.532,9.8203,-2.0284,4.1307,2.7608,-19.38,17.46,-43.62
19.532,-18.619,9.2482,-1.8754,3.1047,1.5922,-20.7,17.4,-42.78
19.532,-14.124,6.5241,-1.8537,1.8393,1.5834,-21.3,17.7,-41.64
12.762,-5.0259,4.2359,-1.6328,1.2281,1.339,-21.78,18.96,-39.48
10.678,-1.7706,3.228,-1.7544,1.9199,1.266,-21.72,19.56,-38.34
10.174,-0.095342,3.1327,-1.7092,2.2953,1.1448,-21.66,20.52,-37.32
10.27,2.2201,2.4244,-1.5882,2.496,0.82375,-21.84,22.08,-34.68
10.229,3.3097,1.975,-1.2385,1.901,0.63408,-22.32,22.8,-33.0
9.507,4.2223,0.69464,-0.81367,0.8714,0.49511,-22.86,23.7,-30.96
7.8317,4.4675,-0.8036,-0.36621,-0.12645,0.11148,-22.92,25.92,-24.96
7.5184,4.1814,-0.35413,-0.26206,-0.44257,-0.0085521,-21.48,27.06,-21.72
7.3141,3.9908,-0.14982,-0.061087,-0.8152,-0.28314,-19.2,28.26,-18.9
7.3822,2.7786,-0.76274,0.26176,-0.56505,-0.66523,-14.4,30.42,-16.26
8.7987,1.7979,-0.28603,0.52931,-0.67409,-0.9841,-12.72,31.32,-15.72
9.9565,-1.3484,2.7649,0.66187,-0.99235,-1.6405,-10.98,32.28,-15.36
15.309,-6.8783,5.5435,0.47159,-0.71807,-1.846,-10.74,32.52,-15.3
18.796,-13.239,8.5536,0.32009,-0.51985,-1.4019,-10.68,32.52,-15.12
19.355,-15.486,10.229,0.38851,-0.61881,-1.1933,-10.92,32.4,-14.82
19.532,-13.021,12.149,1.0577,-0.022602,-1.7926,-11.94,31.68,-14.52
19.532,-13.797,11.85,1.737,0.037874,-2.4667,-12.84,31.14,-14.4
18.565,-14.002,10.42,2.321,-0.43066,-2.609,-13.98,30.3,-14.52
14.642,-14.192,9.1393,2.8356,-1.7205,-2.4117,-16.92,28.44,-16.44
10.637,-12.476,7.3958,2.985,-2.288,-2.0803,-18.24,27.24,-18.36
8.1177,-10.924,5.884,3.1179,-2.525,-1.752,-19.08,26.4,-20.58
5.8295,-9.507,4.6037,3.1615,-2.6518,-1.5201,-19.5,25.44,-22.68
2.4789,-7.8998,3.1463,3.0213,-2.6399,-1.2996,-19.68,23.28,-26.16
0.35413,-7.2596,2.1793,2.7486,-2.5076,-1.0214,-19.62,22.2,-27.24
-2.6015,-6.3335,0.24517,2.1017,-2.2749,-0.66676,-20.1,20.1,-29.1
-7.6683,-3.8273,-0.77636,1.4627,-1.9539,-0.45998,-20.22,19.14,-29.94
-11.046,-1.7979,-0.47671,0.86621,-1.4905,-0.19426,-20.28,18.06,-30.66
-11.877,-1.3757,-0.25879,0.49358,-0.51496,0.05681,-20.28,17.22,-31.2
-9.3708,-3.8954,-0.21793,0.23213,0.21655,0.48381,-19.56,15.6,-32.34
-7.4503,-4.7671,-0.29965,-0.18357,0.41753,0.76938,-18.84,15.18,-32.76
-4.7807,-6.1836,-0.42223,-0.56383,0.56688,1.0351,-17.64,15.0,-32.76
-1.6072,-8.0632,-0.12258,-0.832,0.6805,1.3408,-14.52,14.76,-31.8
1.5527,-11.509,2.7786,-1.2993,1.0205,1.6551,-13.26,14.58,-31.26
5.775,-17.897,5.3937,-1.6942,1.2801,1.8601,-12.48,14.46,-31.56
12.095,-19.327,8.5536,-3.3515,1.6118,3.2916,-12.54,14.4,-32.46
19.395,-19.504,8.5672,-3.503,2.8298,3.7125,-15.66,14.22,-35.1
18.605,-16.453,4.9169,-2.6145,5.1267,2.3579,-17.76,14.22,-35.52
19.504,-14.015,5.6524,-2.2171,4.0106,1.5794,-20.7,14.7,-35.22
19.055,-9.6296,5.0804,-2.4105,1.6322,1.6961,-21.42,15.06,-34.56
17.257,-7.8453,4.8352,-2.35,-0.059559,2.0189,-21.66,15.6,-33.66
10.392,-2.0022,3.7592,-2.0702,-0.093157,1.9875,-21.54,17.4,-31.92
8.0905,-0.9398,3.6639,-1.7544,0.98594,1.7672,-21.3,18.18,-30.78
7.5729,-0.01362,3.623,-1.4108,2.5736,1.1188,-21.36,19.8,-28.2
9.0848,2.1384,2.3018,-0.98044,2.4548,0.92546,-21.72,20.82,-26.46
9.2482,3.4323,1.2939,-0.48289,1.5504,0.69852,-22.02,21.72,-24.36
9.4525,3.9908,0.31327,-0.10324,0.55405,0.354,-22.02,22.74,-21.54
9.3844,3.7592,-0.35413,0.18967,-0.28588,-0.078191,-19.92,24.78,-15.06
8.7034,3.5413,-0.16344,0.38485,-0.95326,-0.40684,-17.64,25.92,-12.42
8.1177,2.7649,0.14982,0.50732,-1.1753,-0.68783,-14.94,26.94,-10.68
8.826,1.8115,1.5119,0.62553,-1.0919,-0.95723,-10.8,28.92,-8.82
11.128,-0.84446,3.0918,0.74006,-0.7367,-1.3241,-9.54,29.76,-8.58
14.233,-3.3506,4.127,0.73945,-0.22907,-1.6451,-8.76,30.42,-8.76
19.436,-17.897,8.9894,0.55833,-0.48167,-1.7425,-8.4,30.9,-9.24
19.518,-17.543,10.079,0.58613,-1.2123,-1.4203,-8.4,30.96,-9.6
18.415,-15.023,9.8203,0.81489,-0.81489,-1.8558,-8.76,30.96,-10.32
15.813,-14.342,7.7908,1.7083,-0.19059,-2.5583,-10.68,30.18,-11.04
14.71,-13.579,6.8374,1.9227,-0.25779,-2.5953,-11.88,29.52,-11.88
13.457,-12.898,5.8704,2.2361,-1.2712,-2.3699,-13.32,28.92,-13.38
8.717,-10.283,4.3177,2.1878,-1.9352,-2.0931,-15.96,27.54,-16.98
6.5378,-9.0575,3.4868,2.0455,-2.3057,-1.7822,-17.16,26.88,-18.96
3.6366,-8.145,2.4244,1.7987,-2.3778,-1.493,-18.18,26.22,-20.82
0.24517,-6.1292,1.2395,1.4584,-2.1735,-1.1454,-19.98,24.54,-24.24
-0.92618,-5.3256,0.95342,1.0638,-1.7089,-1.0519,-20.76,23.76,-25.86
-3.6503,-4.2223,0.88532,0.72052,-1.0733,-0.88453,-21.48,22.8,-27.12
-4.8625,-4.0861,0.58567,0.38485,-0.15149,-0.5171,-22.2,22.02,-28.08
-5.094,-4.1814,0.12258,0.21075,0.22297,-0.30574,-23.64,20.64,-30.6
-4.7535,-4.5083,-0.31327,0.12034,0.30604,-0.18448,-23.94,19.92,-31.92
-4.018,-5.7342,-0.9398,0.057421,-0.10599,0.13439,-23.52,18.96,-33.6
-3.8273,-6.3198,-0.6674,-0.14294,-0.37232,0.4444,-23.22,18.9,-34.14
-3.1191,-7.4503,-0.49033,-0.33078,-0.34117,0.81367,-22.74,18.42,-34.26
-2.2065,-9.112,0.14982,-0.61087,0.01405,1.3372,-22.38,18.24,-34.32
2.6968,-17.516,4.1542,-1.3534,0.57024,2.0818,-22.14,17.7,-33.96
7.1507,-19.286,6.674,-2.2376,0.95631,2.7605,-22.38,17.46,-33.84
15.323,-19.477,8.2812,-2.6967,2.1047,3.7086,-23.4,17.28,-33.84
17.08,-17.243,7.069,-1.9685,3.1368,3.6154,-24.06,17.34,-33.78
18.36,-16.304,7.2188,-1.5211,3.4236,2.7327,-24.9,17.64,-33.48
19.314,-14.478,7.0281,-1.361,2.6548,2.3045,-25.2,18.0,-33.0
17.189,-9.3844,5.4073,-1.2352,1.3665,2.1906,-24.9,19.08,-31.14
14.451,-6.7148,4.5764,-1.1396,0.61575,2.0855,-24.54,19.92,-30.12
11.931,-4.2632,4.127,-1.0767,0.68295,1.8751,-24.12,20.76,-29.16
10.065,-2.152,3.051,-1.281,2.5357,1.4215,-22.68,22.32,-27.36
10.161,0.12258,1.6481,-1.3622,3.9294,1.127,-21.96,23.4,-26.22
10.964,1.4846,1.2667,-0.88973,3.6502,0.76205,-20.94,24.6,-25.14
12.122,4.9987,0.17706,-0.3821,1.971,0.41203,-18.78,26.82,-22.8
11.468,5.2847,-0.53119,0.07422,0.18723,0.17226,-17.4,27.84,-21.6
10.147,4.9033,-0.89894,0.42974,-1.1863,-0.079412,-15.96,28.98,-20.34
7.3958,3.6503,-1.4165,0.66218,-1.7174,-0.39951,-12.6,30.78,-18.18
7.0009,2.6423,-1.0624,0.6857,-1.2388,-0.8937,-10.92,31.44,-17.64
6.96,1.8115,0.27241,0.68173,-0.71654,-1.1536,-9.66,32.16,-17.34
10.202,-2.2474,2.7922,0.53573,-0.13775,-1.2889,-7.92,33.0,-17.4
15.732,-6.7693,5.0531,0.27367,0.21075,-1.2339,-7.5,33.12,-17.58
19.3,-14.165,10.093,0.41692,-0.57574,-0.94195,-7.44,33.18,-17.64
19.532,-11.863,12.0,1.0165,-0.99388,-0.84788,-7.98,32.94,-17.64
19.532,-15.119,11.387,2.1334,-1.3106,-2.1432,-8.58,32.64,-17.76
19.532,-15.772,10.733,2.5522,-2.1182,-2.4554,-9.66,31.86,-17.76
14.329,-13.974,8.5808,2.7138,-2.7388,-2.616,-12.78,29.94,-18.42
10.719,-13.144,7.5457,2.7061,-2.9248,-2.5849,-14.64,28.86,-19.38
7.6819,-11.85,6.456,2.481,-2.693,-2.3555,-16.38,27.9,-20.88
3.3915,-9.5751,4.5356,2.0067,-2.0995,-1.9768,-19.08,25.92,-24.42
1.6481,-8.8396,4.0725,1.6347,-1.6408,-1.7217,-19.98,24.96,-25.86
0.50395,-8.145,3.6911,1.4578,-1.4227,-1.5769,-20.94,23.82,-27.06
-2.7377,-5.6797,2.3155,0.98044,-0.82956,-1.1884,-22.8,21.72,-29.04
-3.7456,-4.6582,1.1032,0.8042,-0.47098,-0.88698,-23.64,20.64,-30.0
-4.3449,-3.7184,0.47671,0.6689,-0.19273,-0.60903,-24.48,19.62,-30.9
-4.9987,-3.3234,0.55843,0.51068,-0.06017,-0.2529,-25.74,17.88,-32.34
-5.4073,-3.228,0.57205,0.43463,-0.20189,-0.023518,-25.98,17.1,-33.12
-5.3528,-3.3097,0.47671,0.38332,-0.39431,0.2364,-25.98,16.56,-33.66
-4.9169,-4.7671,-0.36775,0.40714,-0.51343,0.50183,-25.62,16.2,-34.14
-3.3778,-7.6274,-1.7434,0.37904,-0.54306,0.80695,-24.24,15.9,-34.38
-2.2474,-9.2346,-1.1032,0.20006,-0.46395,1.1338,-23.58,15.78,-33.84
1.9341,-17.025,3.8546,-1.1185,0.29749,1.8854,-22.62,15.42,-32.64
11.673,-19.45,8.5808,-1.9716,0.57269,2.233,-22.56,15.3,-32.58
17.134,-19.518,9.0167,-3.5027,1.9297,3.2868,-23.04,15.42,-33.42
17.952,-17.434,6.8238,-2.814,3.6701,3.4538,-24.6,15.72,-34.92
18.96,-16.154,6.8238,-2.0956,4.2916,2.3998,-26.58,15.72,-35.7
19.504,-14.301,6.9055,-1.8964,3.3503,2.0186,-28.2,16.26,-35.16
17.652,-9.9156,6.1292,-1.8085,0.98135,2.0989,-28.92,17.16,-33.84
12.735,-6.0747,5.7342,-1.6683,-0.45937,2.0553,-29.22,18.3,-31.62
8.7715,-3.3234,5.1213,-1.3806,0.72968,1.7779,-29.22,19.74,-28.92
8.2676,-2.1929,4.8488,-1.3176,2.6466,1.4319,-29.1,20.7,-27.48
10.501,0.50395,3.2825,-1.4068,4.1218,1.1652,-28.08,22.44,-24.06
12.326,3.0373,1.8251,-1.1695,3.8097,0.99571,-25.86,24.18,-20.34
11.931,5.5571,0.62654,-0.67928,2.2984,0.7196,-22.44,26.16,-17.04
9.7794,6.8374,-0.12258,-0.075442,0.53817,-0.0018326,-19.02,28.14,-15.06
7.8998,6.7966,-0.78998,0.27,-0.22694,-0.21014,-16.32,29.76,-14.52
7.9679,6.1019,-1.3212,0.54672,-0.83017,-0.33262,-14.34,30.84,-14.34
8.4038,4.7399,-0.50395,0.72296,-1.1949,-0.55772,-13.2,31.8,-14.64
8.322,3.9363,0.29965,0.84208,-1.2031,-0.905,-12.84,32.16,-14.7
8.6081,2.2201,2.5198,0.94623,-0.77213,-1.2556,-12.36,32.46,-14.88
16.467,-3.4459,4.9714,0.81489,-0.28191,-1.4704,-12.6,32.64,-14.76
18.769,-8.0769,7.6002,0.58002,-1.2541,-1.5308,-13.08,32.46,-14.58
19.504,-18.006,13.729,0.83719,-2.6411,-1.2605,-14.28,32.28,-14.04
19.504,-13.893,13.579,1.336,-2.0073,-1.6609,-15.9,31.74,-13.44
19.096,-16.058,11.822,1.9612,-0.99846,-2.7129,-18.48,30.78,-13.5
19.218,-16.93,11.087,2.4077,-0.74373,-2.9373,-20.16,30.48,-14.1
14.547,-16.058,9.8339,2.4795,-1.4737,-2.8204,-23.28,29.58,-16.74
9.0575,-14.002,7.8181,2.3833,-2.0024,-2.7287,-25.32,28.86,-20.34
7.0009,-12.667,6.6195,2.324,-1.8387,-2.3305,-25.98,28.5,-22.02
2.9556,-9.9565,4.1814,2.3103,-1.5809,-1.9838,-26.94,27.6,-25.14
-0.50395,-7.9134,2.2746,2.1475,-1.3244,-1.5861,-27.48,26.34,-27.6
-1.6617,-6.8102,1.362,1.8387,-1.2422,-1.1683,-27.72,25.62,-28.74
-4.4402,-4.2632,-0.1362,1.4429,-1.2654,-0.75411,-28.08,24.0,-31.02
-6.0611,-3.7047,-0.35413,1.0592,-1.3057,-0.25717,-27.96,22.5,-32.7
-7.2869,-3.514,-0.70826,0.57391,-1.0449,0.489,-27.48,21.9,-33.12
-7.9679,-3.3778,-0.78998,0.30482,-0.60628,0.89247,-26.22,20.58,-32.7
-7.7364,-3.5413,-0.92618,0.13378,-0.1295,1.0531,-25.74,19.98,-31.92
-5.8704,-4.7535,-0.85808,-0.01405,0.19151,1.1664,-25.14,18.78,-30.0
-4.304,-6.1155,-0.95342,-0.23671,0.28497,1.4456,-25.08,17.94,-28.92
-2.7649,-7.3686,-1.1713,-0.71838,0.29596,1.9025,-24.48,17.88,-29.4
-1.3076,-9.0167,-0.21793,-1.1649,0.41081,2.2623,-24.0,18.06,-30.3
4.8761,-17.734,4.8625,-2.2471,0.68447,2.7089,-23.22,18.6,-33.24
16.29,-19.477,10.964,-3.4404,1.0061,2.846,-23.64,19.38,-37.02
18.728,-19.518,11.455,-3.3976,2.325,3.5128,-24.66,20.1,-38.82
19.504,-16.63,9.3436,-2.4453,4.0354,3.0659,-27.24,21.24,-40.98
19.532,-15.282,8.431,-1.763,4.0174,1.6756,-29.28,22.08,-41.52
19.504,-11.822,6.1292,-1.4875,1.4499,1.3711,-30.24,22.98,-40.8
16.889,-9.0303,5.3119,-1.4087,0.03146,1.4053,-30.48,23.46,-39.96
11.128,-4.9306,2.3155,-1.7602,0.66035,1.0562,-30.96,24.6,-37.32
8.6489,-2.0294,2.5606,-2.1041,2.5571,0.89431,-31.14,25.98,-33.96
9.4253,-0.14982,2.833,-2.069,3.4077,0.59284,-31.14,26.88,-31.92
10.229,1.471,2.6287,-1.919,3.091,0.37965,-29.94,28.68,-27.0
9.8611,3.228,1.9205,-1.3961,1.6976,0.50183,-26.76,30.48,-22.44
7.8862,4.7807,0.68102,-0.62094,0.11912,0.45784,-22.26,32.34,-19.26
7.5457,4.9306,0.24517,-0.19517,-0.35797,0.28466,-20.28,33.48,-18.36
7.7636,4.2223,-0.38137,0.16066,-0.59132,0.11057,-17.16,35.28,-17.58
7.9134,3.8954,-0.12258,0.44685,-0.74495,-0.12065,-15.36,36.9,-17.58
7.927,3.7865,0.054481,0.61484,-0.68264,-0.40684,-14.76,37.38,-17.88
8.9894,2.3155,1.7706,0.72937,-0.44196,-0.91416,-14.04,38.22,-18.3
11.414,-1.1169,3.4459,0.71502,-0.38973,-1.1099,-14.22,38.46,-18.84
16.072,-5.4618,5.7069,0.57269,-0.58002,-1.131,-14.52,38.16,-18.78
19.314,-12.708,10.093,0.75198,-1.2428,-1.0351,-15.6,37.44,-18.9
19.532,-13.634,12.708,1.4322,-1.5,-1.0965,-17.34,36.48,-18.9
19.532,-13.13,12.34,2.04,-1.015,-1.7935,-18.48,35.76,-19.14
19.532,-14.015,10.174,2.8805,-1.1887,-2.6304,-21.24,33.78,-19.5
19.314,-14.356,9.4253,3.0956,-2.0162,-2.8256,-23.16,32.58,-20.4
14.043,-13.634,7.6138,2.9945,-2.7019,-2.853,-27.06,30.48,-23.64
7.927,-11.237,5.7614,2.7009,-2.8445,-2.7248,-29.7,28.56,-28.38
3.8137,-9.4798,4.6445,2.3787,-2.5388,-2.4798,-30.9,26.7,-32.28
2.2065,-8.8668,4.3449,2.0638,-1.9227,-2.1609,-31.32,25.92,-33.96
-1.0488,-7.1915,2.7377,1.7278,-1.2028,-1.7895,-31.98,24.36,-36.3
-2.8058,-6.1019,1.2122,1.3778,-0.48808,-1.2208,-31.92,22.8,-38.22
-3.7865,-5.5299,0.31327,1.2294,-0.33689,-0.81245,-31.74,22.08,-38.82
-4.7944,-5.2302,-0.50395,1.0843,-0.34178,-0.39828,-31.2,20.76,-40.14
-5.7069,-4.5356,-1.1713,0.87293,-0.54856,0.0030543,-29.64,20.1,-40.2
-6.0338,-4.1406,-1.2803,0.61697,-0.79015,0.23182,-28.5,19.8,-39.54
-6.5105,-4.0861,-1.185,0.36957,-0.90927,0.46487,-26.58,18.78,-36.6
-6.0338,-5.0123,-0.81722,-0.038485,-0.72601,1.0574,-26.04,17.82,-33.18
-5.4073,-5.6661,-0.95342,-0.38179,-0.37507,1.2846,-26.04,17.4,-31.92
-2.9284,-8.4719,-0.17706,-0.70005,0.081856,1.4798,-25.5,16.8,-31.02
-0.14982,-15.241,2.7513,-1.1784,0.75014,2.0073,-24.84,16.44,-31.86
11.019,-19.395,8.0905,-2.5632,1.4291,2.824,-24.42,16.26,-34.62
16.726,-19.504,9.3844,-3.685,1.5284,3.123,-24.48,16.44,-36.42
19.355,-19.191,8.4174,-3.6044,2.1539,3.8759,-26.34,16.8,-39.24
19.532,-16.181,7.5593,-2.1356,3.2577,2.5901,-28.8,17.22,-40.62
19.532,-15.282,7.4095,-1.7709,2.7614,2.0214,-30.0,17.46,-40.56
18.932,-11.06,5.7069,-1.6796,1.3631,2.2901,-31.02,18.18,-39.6
13.811,-6.9736,4.6718,-1.6609,0.36896,2.4404,-31.32,19.38,-38.16
10.924,-3.4596,3.9771,-1.6646,0.56474,2.2831,-31.26,21.0,-36.0
10.379,-2.5879,3.5413,-1.8332,2.3045,1.93,-31.26,22.14,-34.74
10.828,-0.78998,2.8058,-1.8127,3.0852,1.7877,-30.78,24.3,-30.96
11.782,1.9477,1.6344,-1.4713,2.6667,1.6759,-29.16,26.52,-26.1
11.155,4.2632,0.14982,-0.95784,1.8906,1.3763,-25.2,28.86,-21.9
10.501,5.9249,-0.78998,-0.416,1.0736,0.83627,-20.46,31.26,-19.26
9.9701,6.0883,-1.1441,0.020769,0.32284,0.27733,-18.12,32.4,-18.66
9.3844,4.985,-1.4438,0.31826,-0.34789,-0.15272,-14.64,34.56,-18.42
8.0769,3.228,-1.0896,0.55253,-0.93218,-0.65699,-12.42,36.18,-18.48
7.7091,2.6832,-0.64016,0.59987,-1.0153,-0.94226,-11.64,36.66,-18.48
7.0417,1.3484,0.83084,0.62797,-0.76572,-1.2877,-10.62,37.26,-18.6
9.8066,-2.7786,1.7979,0.57299,-0.47922,-1.4655,-10.32,37.44,-18.78
15.99,-8.5672,5.2847,0.25107,-0.58429,-1.3473,-10.5,37.26,-18.54
18.619,-11.809,7.0553,0.089797,-1.7718,-0.88911,-10.98,37.14,-18.36
19.504,-13.974,8.2403,0.80115,-1.9578,-0.79015,-12.06,36.3,-18.06
19.532,-17.802,9.2482,1.4077,-1.8268,-1.726,-13.92,35.58,-18.06
19.532,-19.246,9.5342,1.6722,-1.7422,-2.6203,-16.5,34.32,-18.12
16.862,-17.38,8.6898,1.8143,-1.5678,-2.8292,-17.88,33.78,-18.54
11.536,-15.05,6.4969,2.0101,-1.3861,-2.8815,-20.94,32.28,-19.8
8.0905,-12.694,4.9987,2.1683,-1.2892,-2.7691,-23.82,30.9,-22.32
5.7614,-10.733,4.2359,2.1579,-1.325,-2.4227,-25.08,30.18,-23.64
2.6151,-8.2403,3.4187,1.9694,-1.2611,-2.1444,-27.0,28.8,-26.64
-1.362,-6.4424,1.8524,1.6738,-1.0275,-1.8152,-28.2,27.48,-29.52
-3.623,-5.5162,0.57205,1.3635,-0.78252,-1.4035,-29.22,26.1,-32.16
-4.2904,-4.8897,0.1362,1.0449,-0.6408,-1.0198,-29.46,25.44,-33.3
-4.7126,-3.8273,-0.12258,0.78618,-0.44043,-0.80176,-29.4,24.36,-35.46
-5.094,-3.6775,-0.12258,0.57666,-0.12614,-0.71471,-29.1,23.76,-36.18
-5.9249,-4.0997,-0.28603,0.40684,0.12126,-0.45082,-28.8,23.04,-36.9
-6.7285,-4.9033,-1.6481,0.29932,0.13836,0.072082,-27.66,22.32,-37.62
-5.8295,-6.0202,-2.1929,0.26695,0.0058032,0.60353,-27.0,21.96,-37.56
-3.2416,-9.4389,-0.92618,0.058643,-0.27275,1.1246,-25.62,21.66,-37.5
-0.49033,-13.457,1.3212,-0.52229,-0.23824,1.5449,-24.96,21.66,-37.56
3.7456,-18.319,2.6968,-1.2501,0.30788,2.0186,-24.54,21.9,-38.22
15.255,-19.504,6.1564,-1.6719,1.6762,2.7297,-24.6,22.2,-40.62
18.905,-18.687,6.9328,-1.6677,2.4505,2.8903,-25.08,22.2,-41.94
19.463,-17.23,6.3879,-1.5797,2.6035,2.0653,-26.1,22.2,-43.5
17.094,-15.2,5.1076,-1.9264,1.6509,1.835,-28.98,21.66,-44.82
13.539,-12.34,4.9033,-2.3341,1.0311,2.0653,-30.12,21.42,-44.64
10.801,-10.188,4.8216,-2.6325,1.5046,2.263,-30.9,21.48,-43.86
6.851,-5.0259,5.2438,-2.6884,2.7122,2.2914,-31.02,22.26,-41.82
8.4719,-3.6094,5.3119,-2.6255,3.3369,2.1347,-30.66,22.86,-40.8
10.501,-2.2882,5.0395,-2.2449,2.8234,2.1081,-30.18,23.64,-39.72
11.645,0.31327,4.5764,-1.6115,1.9309,2.1493,-29.04,25.14,-37.38
11.577,0.99429,3.8818,-0.53145,1.2709,1.7452,-28.56,25.74,-35.94
11.727,2.0294,2.3291,-0.20464,1.062,1.5415,-27.9,26.28,-34.02
10.978,4.1542,-0.49033,0.45082,0.17807,0.87934,-25.44,27.9,-29.34
9.9565,4.5492,-1.9068,0.5507,-0.082161,0.51618,-23.88,28.86,-26.94
10.025,3.4732,-2.4517,0.49847,-0.21533,0.16738,-21.48,29.82,-24.42
9.3844,2.2474,-2.3836,0.44807,-0.71868,-0.32895,-16.26,32.4,-21.36
8.1858,1.7298,-1.3212,0.4609,-0.85216,-0.64171,-14.04,33.66,-20.7
7.6002,1.0215,-0.42223,0.4945,-0.77213,-0.80359,-12.36,34.74,-20.64
8.7851,-3.2144,1.185,0.38087,-0.71349,-0.84116,-11.22,35.52,-21.0
15.35,-10.937,4.7263,0.27733,-1.6811,-0.38485,-9.96,36.12,-21.48
19.082,-15.541,9.1256,0.52412,-2.6237,-0.086437,-9.84,36.3,-21.48
19.477,-16.331,11.25,0.89828,-2.5638,-0.49511,-9.9,36.3,-21.42
19.532,-18.864,11.645,1.5174,-1.8653,-1.9001,-10.92,35.94,-21.48
18.646,-19.0,10.733,1.813,-1.8265,-2.3799,-11.64,35.64,-21.48
16.399,-18.251,9.8066,1.9731,-1.9016,-2.6325,-12.9,35.04,-21.72
9.3844,-14.492,7.0145,2.0733,-1.7611,-2.7016,-16.14,33.6,-22.5
6.565,-12.381,5.7342,2.1041,-1.6542,-2.5192,-18.06,32.94,-23.52
3.9635,-10.474,4.699,2.0265,-1.5928,-2.0094,-19.98,32.22,-24.78
1.0215,-8.1586,3.623,1.9199,-1.5287,-1.6222,-21.66,31.44,-26.28
-2.5061,-5.2575,2.261,1.8338,-1.3415,-1.255,-24.12,29.82,-29.94
-3.8273,-4.0725,1.5391,1.7911,-1.2398,-1.0779,-25.08,29.1,-31.68
-4.413,-3.4187,1.1577,1.6823,-1.1564,-0.63469,-25.86,28.38,-33.3
-6.2109,-2.3018,0.6674,1.5553,-1.2895,-0.38271,-27.24,26.94,-36.72
-7.2869,-2.2882,0.31327,1.3555,-1.3442,-0.16096,-27.66,26.28,-38.34
-7.3005,-3.2553,-0.24517,1.0724,-1.2092,0.15485,-27.96,24.84,-41.46
-5.5026,-4.2087,-0.61292,0.74556,-0.71746,0.4664,-27.9,24.18,-43.02
-4.127,-5.0531,-0.78998,0.1912,-0.31185,0.66676,-27.6,23.88,-44.7
0.31327,-10.964,2.3836,-0.45998,0.023518,0.85979,-26.4,23.34,-47.88
3.9227,-16.957,3.6775,-1.3919,0.59407,1.2034,-25.92,23.16,-48.9
9.0575,-19.218,5.7342,-1.9713,0.99663,1.6719,-25.56,22.98,-49.62
14.315,-18.823,6.7557,-2.1341,2.2556,2.0904,-26.46,22.92,-50.28
15.35,-17.516,5.7886,-2.1283,2.6979,1.6918,-27.6,23.28,-49.86
15.8,-16.481,4.808,-2.1261,2.4105,1.3735,-28.92,23.46,-49.26
13.675,-14.043,3.3915,-2.1915,1.755,1.3176,-31.38,24.0,-47.16
9.7794,-9.9565,2.547,-2.1331,1.4297,1.3308,-32.52,23.94,-46.02
7.6819,-7.4503,2.2474,-2.0336,1.6982,1.3213,-33.48,24.06,-44.76
6.3062,-5.0531,2.6968,-2.0382,2.4743,1.4923,-34.5,24.78,-41.94
6.2517,-3.8137,2.9692,-1.7966,2.7226,1.7034,-34.68,25.2,-40.38
6.6195,-2.3563,2.9284,-1.5934,2.7849,1.89,-34.5,25.62,-38.52
9.7658,0.28603,1.3348,-0.79657,2.2037,1.7294,-33.66,26.76,-34.5
11.319,1.3348,0.62654,-0.28375,1.0385,1.3079,-32.82,27.54,-32.46
11.223,1.9205,0.28603,0.090408,-0.17623,0.91599,-31.62,28.26,-30.48
9.112,2.6423,-0.44947,0.40256,-1.197,0.42577,-28.08,29.4,-26.52
7.8045,2.6696,-0.74912,0.50121,-1.0501,0.048258,-26.04,29.88,-25.08
7.3277,2.3563,-0.69464,0.57971,-0.63622,-0.26664,-23.82,30.24,-23.82
8.6898,0.57205,-0.61292,0.61392,-0.44349,-0.53451,-19.8,31.02,-22.5
13.157,-4.7807,0.42223,0.26298,-0.71074,-0.6973,-18.18,31.68,-22.14
16.998,-9.9973,3.4732,-0.29352,-1.4584,-0.79565,-16.74,32.1,-21.9
16.304,-14.152,8.9622,-0.19823,-1.4795,-0.4444,-15.06,32.76,-21.66
15.214,-14.478,9.9973,0.39095,0.046731,-0.97036,-14.7,33.0,-21.54
15.84,-15.187,9.221,1.2199,0.60506,-1.7254,-14.64,33.06,-21.66
17.311,-15.091,6.9464,1.8268,-0.52504,-1.828,-15.42,32.94,-22.02
14.955,-14.506,6.2926,2.1273,-2.2596,-1.8402,-16.14,32.46,-22.38
12.231,-13.797,5.9521,2.2162,-3.2608,-1.8833,-17.22,31.92,-22.68
6.3471,-11.768,5.5843,2.0968,-3.2898,-1.8515,-20.1,30.54,-24.18
3.8001,-10.61,5.0668,1.7,-2.0736,-1.6814,-21.84,29.76,-25.26
1.8932,-9.2618,4.3177,1.4102,-0.98991,-1.4499,-23.4,28.98,-26.46
0.50395,-7.8317,3.4459,1.2782,-0.54703,-1.3201,-24.84,28.14,-27.6
-1.4438,-5.4345,2.2201,0.91905,0.23885,-0.88148,-27.24,26.28,-30.66
-2.7649,-4.8625,1.3757,0.76267,0.50091,-0.57269,-28.26,25.38,-32.4
-3.909,-4.3177,0.29965,0.62705,0.59193,-0.30849,-28.98,24.6,-34.26
-5.4481,-3.732,-0.43585,0.40348,0.52534,-0.13928,-30.06,22.98,-38.4
-5.7205,-3.8682,-0.74912,-0.010079,0.34667,0.18998,-30.24,22.26,-40.68
-5.4754,-4.127,-1.1577,-0.27,0.24648,0.48961,-30.24,21.48,-43.2
-4.0997,-4.8216,-1.5255,-0.52534,0.034514,0.82345,-30.12,20.28,-48.66
-2.8194,-6.3198,-0.76274,-0.8097,-0.12614,1.076,-30.06,19.68,-51.54
-0.85808,-8.826,0.96704,-1.3134,-0.010996,1.1756,-30.12,19.08,-54.06
5.0804,-18.51,5.5299,-2.0378,0.67623,1.2617,-30.84,18.24,-56.88
8.7987,-19.409,7.5321,-2.2352,2.1912,2.2889,-31.62,17.94,-57.24
10.801,-19.504,8.036,-2.1417,2.6084,2.5672,-32.28,17.82,-57.06
16.481,-17.38,6.6059,-1.6924,2.7043,2.3017,-33.18,18.18,-55.2
17.284,-16.058,5.775,-1.4331,1.4853,1.6952,-33.18,18.72,-53.82
14.969,-14.533,5.0123,-1.3812,0.84086,1.2642,-33.18,19.14,-52.08
9.5615,-10.637,3.6775,-1.2474,0.57818,1.0088,-32.88,19.62,-50.16
6.5922,-7.5729,2.8194,-1.2599,1.1533,0.96853,-32.58,20.22,-48.18
6.4424,-6.0611,2.6696,-1.4707,3.3365,0.94134,-31.8,21.66,-43.08
7.9815,-4.2087,2.6696,-1.3928,3.7773,0.92241,-31.08,22.62,-40.14
8.6353,-3.0237,2.438,-1.0232,3.0137,0.88575,-30.06,23.64,-37.02
9.3027,0.40861,1.1577,-0.61972,1.927,0.74587,-27.12,26.04,-30.78
9.2482,1.3076,0.27241,-0.28069,0.91202,0.59132,-24.96,27.36,-28.26
9.1529,2.261,-0.61292,0.17226,-0.37049,0.32406,-19.68,29.76,-24.66
8.7306,2.8739,-0.85808,0.40867,-0.90103,0.14722,-17.1,30.96,-23.64
8.7715,3.2553,-1.1577,0.48442,-0.99968,0.045815,-14.64,31.86,-22.92
9.9156,2.6696,-1.6753,0.61545,-0.90164,-0.6017,-12.72,32.7,-22.56
10.379,0.57205,-0.5993,0.62797,-1.1081,-1.1979,-9.66,33.84,-22.26
10.665,-3.1054,0.72188,0.097738,-1.0812,-1.8387,-8.82,34.2,-22.26
15.541,-12.939,5.38,-0.17715,-0.99663,-1.9013,-7.68,34.74,-22.44
17.802,-15.623,8.8668,-0.11545,-0.95784,-1.5983,-7.56,34.86,-22.56
18.483,-15.091,10.501,0.1124,-0.63469,-1.6481,-7.8,34.74,-22.68
19.504,-15.568,10.774,1.1072,0.16554,-2.9771,-8.88,33.9,-22.68
19.532,-17.121,10.801,1.7095,-0.46181,-3.569,-9.9,33.24,-22.98
18.919,-16.154,10.42,2.0042,-1.5858,-3.5708,-11.28,32.28,-23.4
11.101,-14.233,8.9622,2.262,-2.2874,-3.4346,-15.0,29.94,-25.62
7.8998,-12.217,7.1915,2.5116,-2.1115,-3.1738,-16.74,28.5,-27.18
5.1757,-10.774,5.6388,2.5574,-1.8372,-2.8866,-18.3,27.06,-28.92
1.6072,-8.4446,3.6503,2.3955,-1.5913,-2.4877,-20.4,23.7,-31.86
-0.95342,-6.4697,2.8467,2.0766,-1.2828,-1.9093,-21.42,22.02,-33.12
-2.4789,-5.1485,2.1112,1.733,-0.98471,-1.3922,-22.14,20.4,-33.96
-3.732,-3.2553,0.68102,1.3314,-0.60598,-0.88973,-23.58,16.92,-35.4
-4.1133,-2.2474,0.19068,1.2474,-0.50152,-0.76847,-24.18,15.18,-36.0
-4.4675,-1.7843,-0.36775,1.0876,-0.32529,-0.52107,-24.48,13.56,-36.36
-4.5083,-2.8058,-0.58567,0.75778,0.012523,-0.11362,-24.9,10.8,-37.2
-4.4811,-2.9965,-0.6674,0.47983,0.2193,0.10049,-24.6,9.48,-37.38
-4.2087,-3.2689,-1.0215,0.23335,0.37935,0.23793,-22.86,7.68,-36.9
-2.5742,-4.5356,-2.1793,-0.14019,0.94348,0.37996,-21.54,7.2,-35.88
-1.3484,-5.2438,-1.9341,-0.55253,1.463,0.43371,-20.04,6.78,-34.74
0.36775,-7.3958,-0.62654,-1.1047,1.6026,0.74006,-18.48,6.42,-33.66
6.8374,-15.105,3.0237,-2.0165,1.1008,1.3522,-15.12,6.0,-33.18
11.918,-19.164,7.3822,-2.6814,0.47709,2.3054,-13.14,5.7,-33.9
12.967,-17.162,8.3765,-2.941,0.95936,3.3869,-11.34,5.22,-35.94
17.625,-16.889,9.1529,-2.6652,1.6716,3.2739,-11.34,4.2,-41.94
19.286,-15.909,8.826,-2.3983,1.9563,2.6341,-13.38,3.96,-44.04
19.477,-14.642,7.75,-2.2865,1.5986,2.2074,-15.78,3.84,-44.94
16.222,-9.1937,5.8704,-2.0195,0.14722,1.9413,-18.84,4.56,-43.98
13.321,-6.7148,4.3177,-2.142,0.50946,1.6698,-19.56,5.4,-43.08
11.577,-4.4811,3.2825,-2.4065,1.8973,1.3934,-19.92,6.42,-42.12
11.673,-1.5119,3.4187,-2.1041,2.1845,0.79901,-20.58,8.76,-40.74
10.801,-0.36775,3.337,-1.7089,1.8347,0.52473,-21.12,10.02,-39.96
9.9292,0.55843,3.0782,-1.4884,1.7318,0.40287,-21.96,11.4,-38.94
8.4446,2.1929,1.8251,-0.68875,0.7981,0.20739,-24.3,14.16,-35.94
7.4503,3.3097,0.70826,-0.16341,0.06689,0.0956,-25.86,15.78,-33.66
6.6467,3.6503,0.01362,0.18815,-0.54428,-0.042761,-27.3,17.46,-30.54
5.2847,2.9556,-0.8036,0.44379,-0.98655,-0.21716,-26.52,21.12,-22.68
4.808,2.5061,-0.61292,0.49083,-0.97677,-0.29016,-24.12,22.68,-19.62
4.808,2.5061,-0.61292,0.5174,-0.86834,-0.38759,-24.12,22.68,-19.62
7.3277,-0.12258,0.81722,0.54672,0.19456,-0.9557,-17.94,25.5,-17.22
10.297,-2.1112,1.8932,0.47953,0.21136,-0.98166,-16.98,25.86,-17.22
15.704,-6.2926,3.8954,0.21869,-0.13225,-0.78252,-16.74,25.74,-17.22
19.477,-11.346,9.8884,0.16921,-0.64446,-0.55711,-16.74,25.08,-16.62
19.518,-9.1529,10.488,0.56933,-0.53206,-0.87506,-16.92,24.6,-16.26
19.532,-11.223,10.093,1.2162,-0.0058032,-1.7086,-17.88,23.64,-15.42
19.177,-11.577,9.1665,2.0632,-0.5733,-1.9383,-18.78,23.04,-15.36
17.053,-11.005,8.5808,2.3179,-1.5855,-1.7333,-19.8,22.2,-15.66
14.179,-10.869,8.1177,2.4193,-2.171,-1.6246,-20.64,21.36,-16.38
9.3844,-9.8066,6.5378,2.4404,-2.0265,-1.4319,-22.14,19.8,-19.32
7.6819,-9.1256,5.6116,2.3998,-1.6386,-1.3317,-22.5,19.08,-21.42
5.9249,-8.8532,4.8625,2.1625,-1.2602,-1.2575,-22.5,18.42,-23.46
3.6911,-7.75,3.6775,1.5834,-0.82925,-1.0174,-22.38,18.0,-25.38
1.0215,-5.8295,2.1112,1.2339,-0.72113,-0.83719,-21.48,17.28,-29.1
-0.47671,-5.0123,1.3212,0.99235,-0.67592,-0.63561,-20.7,17.22,-30.84
-3.0101,-4.1406,-0.14982,0.82528,-0.67409,-0.42058,-19.26,16.98,-34.26
-3.6775,-3.9499,-0.72188,0.64324,-0.67165,-0.24343,-18.6,16.8,-35.94
-4.6309,-3.2825,-1.58,0.51343,-0.61087,-0.076664,-17.76,16.5,-37.56
-5.2438,-2.833,-1.9613,0.37996,-0.46853,0.092546,-15.42,16.26,-40.26
-4.5492,-4.5083,-2.0839,0.23427,-0.27733,0.36713,-13.86,16.38,-41.1
-3.0646,-5.9112,-2.1929,-0.11881,-0.10018,0.61025,-12.48,16.68,-41.46
0.14982,-9.8066,1.0896,-0.6185,0.12309,1.171,-9.66,17.04,-41.1
3.4596,-14.887,3.6366,-1.7251,0.78069,1.7828,-8.58,17.16,-40.68
8.3765,-18.81,5.993,-2.0311,1.0229,1.8641,-8.04,17.16,-40.5
14.846,-16.821,7.355,-2.0229,2.0504,2.0021,-7.68,16.92,-41.52
15.895,-16.903,7.4503,-1.7715,2.2416,2.0501,-8.34,16.56,-42.48
15.636,-16.903,7.3686,-1.8054,1.7342,1.7856,-9.54,16.02,-43.38
14.478,-13.579,5.6524,-1.9105,1.3085,1.9331,-12.9,15.06,-43.56
13.321,-11.945,5.0531,-1.8692,1.1603,1.7791,-14.28,14.76,-43.02
10.774,-9.3436,4.4266,-1.8454,1.3225,1.5947,-15.42,14.52,-41.94
8.8532,-4.8352,4.5083,-2.0278,2.0638,1.2236,-16.86,14.88,-39.66
9.1801,-2.1112,4.9033,-2.2122,2.2782,1.306,-17.46,15.24,-38.46
10.079,-0.32689,4.9306,-2.1463,2.1783,1.4197,-17.76,15.66,-37.2
10.692,2.152,3.3506,-1.8036,1.8448,1.299,-18.24,16.86,-34.2
10.515,3.4051,2.5198,-1.1771,1.1564,0.71135,-18.48,17.46,-32.46
9.2618,4.4675,1.1986,-0.94715,0.91783,0.48075,-18.54,18.24,-30.6
8.5536,4.0589,0.35413,-0.4273,0.35033,0.10629,-18.18,20.16,-26.04
7.5457,3.7184,0.027241,-0.23488,0.22969,-0.040317,-17.22,21.18,-23.4
7.1915,3.8546,-0.068102,-0.073609,0.2532,-0.19212,-16.08,22.32,-20.94
7.8317,3.5685,0.068102,0.19914,0.17929,-0.42791,-12.6,24.6,-17.76
8.3493,2.6015,1.4438,0.75961,-0.055589,-0.81153,-10.92,25.62,-16.98
10.515,0.57205,4.3449,0.96853,-0.13928,-0.86743,-8.7,27.18,-16.56
16.44,-4.1133,6.7557,1.4606,-0.71441,-0.9108,-8.1,27.54,-16.38
18.769,-8.3765,7.9134,1.6121,-1.4484,-0.905,-7.74,27.72,-16.2
19.041,-13.062,11.659,1.5149,-2.032,-0.85765,-7.74,27.48,-15.9
17.557,-10.733,11.196,1.8158,-1.6597,-1.2278,-8.1,27.18,-15.78
17.434,-12.381,9.9701,2.2874,-1.1182,-1.9187,-9.18,26.28,-15.48
15.895,-14.329,9.1529,2.1689,-1.3781,-1.9597,-10.2,25.5,-15.84
12.898,-13.893,8.5127,1.9392,-1.5049,-1.8958,-11.16,24.48,-16.32
10.801,-12.898,7.6955,1.8384,-1.3949,-1.8219,-12.42,23.52,-17.58
6.0474,-9.3299,5.9657,1.7431,-0.82284,-1.5119,-13.98,21.42,-21.3
4.3449,-8.322,4.8216,1.759,-0.57757,-1.241,-14.34,20.58,-23.7
1.2531,-6.5105,2.3836,1.6948,-0.60353,-0.89095,-14.58,19.74,-26.1
-0.10896,-5.5299,1.185,1.5079,-0.99999,-0.23732,-13.98,18.06,-31.02
-2.1112,-4.3177,-0.10896,1.321,-1.3442,0.090713,-13.56,17.58,-33.48
-3.2553,-3.9227,-0.64016,1.087,-1.6564,0.34361,-12.96,16.98,-35.76
-5.4073,-3.3506,-0.98067,0.84025,-1.6252,0.53084,-12.24,16.56,-38.22
-7.246,-3.3097,-1.1169,0.58093,-1.2477,0.71105,-10.56,16.02,-43.14
-6.8374,-4.1542,-1.2803,0.07758,-0.40561,0.77183,-9.54,15.78,-45.96
-3.5549,-6.0883,-1.2667,-0.11637,-0.19823,0.77366,-6.48,15.84,-51.12
-1.7706,-6.9328,-0.38137,-0.51588,0.065363,0.8323,-5.1,15.84,-53.58
-0.27241,-8.431,1.0488,-1.2449,0.53206,1.0803,-3.84,15.84,-55.74
7.3414,-18.442,5.5435,-2.0956,0.95906,1.4303,-3.24,15.9,-58.74
11.713,-19.395,7.4912,-2.3775,1.2361,1.6823,-4.08,15.72,-59.46
13.729,-18.17,7.8317,-2.1805,1.9526,2.0556,-5.46,15.42,-59.7
15.541,-15.99,7.2869,-1.6994,2.2538,1.4795,-9.24,15.18,-58.32
16.767,-15.364,6.7693,-1.6496,1.9835,1.2776,-11.16,15.12,-56.88
16.126,-14.547,6.3607,-1.6912,1.233,1.175,-12.84,15.24,-55.32
11.414,-10.542,5.598,-1.8054,0.92454,1.1292,-15.42,15.42,-51.36
9.4798,-8.1586,5.2983,-1.7657,1.6686,0.94195,-16.44,15.66,-49.2
8.9349,-4.9578,5.1076,-1.7462,2.6142,0.71838,-17.22,16.14,-46.86
9.3163,-2.6968,4.4811,-1.7901,3.2073,0.63377,-18.54,17.46,-42.06
9.6296,-0.68102,3.7184,-1.558,2.718,0.77427,-18.84,18.3,-39.3
9.8611,0.65378,3.051,-1.1515,1.8256,0.79412,-18.72,19.44,-36.3
9.4798,4.127,1.7706,-0.63561,0.91263,0.5959,-17.1,21.6,-30.42
8.4719,4.9169,0.8036,-0.12675,0.25351,0.29932,-15.54,22.86,-27.72
7.7227,4.9714,-0.054481,0.21289,-0.16341,0.032681,-13.86,24.12,-25.56
7.0145,4.0997,-0.40861,0.39676,-0.58796,-0.21716,-10.08,26.34,-23.22
6.96,3.732,-0.54481,0.59101,-0.66401,-0.37813,-8.4,27.12,-22.92
7.0281,2.9965,-0.38137,0.65271,-0.65179,-0.50274,-7.08,27.84,-22.86
7.7364,1.4029,0.51757,0.8433,-0.51404,-0.99846,-5.22,28.92,-23.46
8.0088,-0.21793,2.547,0.90011,-0.37721,-1.2718,-4.74,29.16,-23.7
11.291,-2.3018,5.1213,0.81856,0.024435,-1.3463,-4.56,29.04,-23.94
19.286,-12.844,11.577,0.95264,-1.0684,-1.1527,-5.16,28.44,-24.24
19.504,-14.41,13.443,1.3326,-1.9322,-0.71013,-5.82,27.96,-24.42
17.257,-11.346,13.116,1.898,-1.6832,-1.3219,-6.78,27.3,-24.48
15.909,-11.877,12.258,2.4725,-1.1075,-1.9465,-7.98,26.28,-24.48
13.934,-11.55,9.3436,2.781,-0.99021,-1.8506,-11.58,23.22,-25.32
12.503,-11.414,8.2267,2.6789,-1.3943,-1.6277,-13.44,21.48,-26.76
10.283,-11.741,7.4912,2.2208,-1.6777,-1.2468,-16.56,17.76,-30.84
5.0395,-9.0712,5.6524,1.9264,-1.3179,-0.97494,-17.34,16.08,-33.36
2.9284,-7.7227,4.6854,1.7791,-0.75503,-0.75503,-17.52,14.34,-35.7
1.3757,-7.0553,3.4323,1.6609,-0.40287,-0.53206,-17.64,12.72,-37.68
-0.054481,-5.2847,1.5663,1.5082,-0.45876,-0.25809,-17.16,9.84,-41.7
-0.96704,-4.3858,0.70826,1.2981,-0.7532,0.13134,-16.8,8.64,-43.56
-2.4517,-2.8194,-0.16344,1.0507,-1.0427,0.54184,-15.42,6.48,-47.28
-4.5901,-2.0431,-0.19068,0.6918,-1.1658,1.0443,-14.58,5.58,-49.02
-5.3256,-1.757,-0.49033,0.58796,-0.89828,1.2572,-13.32,4.74,-50.88
-5.203,-2.2474,-0.6674,0.56841,-0.66218,1.3143,-11.58,4.32,-53.1
-3.6775,-4.0452,-1.1577,0.41783,-0.048564,1.3195,-9.42,4.32,-55.38
-1.0624,-5.8976,-1.5391,0.15944,-0.10568,1.2862,-4.08,4.62,-59.88
0.44947,-7.5184,-1.3484,-0.30665,-0.45418,1.2501,-1.8,4.68,-61.86
1.9613,-15.282,3.623,-1.1109,-0.38637,1.3216,-0.18,4.74,-65.04
5.2166,-18.932,5.9249,-2.2886,1.0589,1.9875,-1.2,4.92,-66.18
8.145,-19.382,7.5048,-2.4936,1.8952,1.9679,-3.36,5.16,-67.38
15.977,-19.123,9.2755,-2.4346,2.4823,1.9111,-9.0,5.7,-67.56
17.189,-17.775,8.8805,-2.2187,2.3668,1.543,-12.0,5.94,-66.78
15.936,-16.317,8.2948,-2.0971,1.8381,1.131,-14.58,6.24,-65.64
13.702,-12.068,7.1234,-2.117,1.2526,1.1664,-18.96,7.44,-62.34
10.937,-8.4855,6.0883,-2.0931,1.3494,1.1845,-20.7,8.22,-60.42
10.065,-6.9328,5.7614,-1.9679,2.1105,0.98594,-22.44,9.06,-58.26
9.8203,-3.7728,4.2223,-1.9526,3.1145,0.65454,-25.8,11.16,-52.38
10.161,-2.3836,3.7047,-1.8644,3.5116,0.52809,-27.42,12.66,-49.02
10.338,-0.054481,2.547,-1.4823,2.6518,0.47495,-29.4,15.9,-41.04
9.9156,1.6617,1.3484,-0.99479,1.6551,0.42333,-29.22,17.52,-36.84
9.6296,2.6423,0.49033,-0.72204,1.1142,0.33934,-28.26,19.08,-33.18
9.0848,3.0918,-0.081722,-0.10599,-0.30849,-0.096822,-26.34,20.4,-30.0
6.6195,3.337,-0.21793,0.10965,-0.91049,-0.23732,-21.78,23.22,-25.68
5.7069,2.7104,-0.36775,0.25626,-0.98288,-0.31276,-19.44,24.48,-24.66
5.5571,2.2065,0.12258,0.38637,-0.70219,-0.47434,-17.58,25.74,-23.94
6.9872,0.83084,1.9886,0.51282,-0.070555,-0.94776,-15.0,27.48,-23.52
7.7364,-0.19068,2.9556,0.53603,0.11973,-1.1145,-14.1,28.08,-23.58
11.128,-3.9908,4.9578,0.45296,0.47525,-1.346,-13.68,28.56,-23.64
18.673,-12.381,10.079,0.47037,0.041844,-1.0186,-13.44,28.68,-23.94
17.924,-10.978,11.891,0.9447,-0.82009,-0.76786,-13.68,28.38,-23.94
16.549,-10.134,12.258,1.5128,-0.74464,-1.1371,-14.28,28.14,-23.94
16.385,-12.585,11.155,2.4645,-0.96089,-1.7156,-16.08,26.88,-24.06
15.772,-13.062,10.297,2.7012,-1.7196,-1.6921,-17.4,25.86,-24.48
14.165,-12.939,9.5206,2.704,-2.1151,-1.631,-19.08,24.78,-25.14
11.414,-11.673,8.5808,2.4783,-2.7581,-1.4343,-20.76,23.34,-26.28
7.641,-10.256,7.1234,2.2907,-2.459,-1.3338,-22.62,21.96,-28.2
3.9635,-7.9951,5.2711,2.0708,-1.7388,-1.266,-24.72,19.02,-33.0
1.7025,-7.1234,3.8682,1.6047,-0.63713,-1.0211,-25.14,17.76,-35.4
-0.01362,-4.9442,2.1656,1.4587,-0.44929,-0.9218,-25.02,15.36,-40.14
-0.8036,-3.9363,1.185,1.1014,-0.3485,-0.56658,-24.54,14.34,-42.3
-1.3348,-3.3642,0.49033,0.9279,-0.60506,-0.36957,-24.0,13.5,-44.28
-2.7649,-3.4459,-0.35413,0.76419,-0.87476,-0.2022,-22.44,12.48,-48.18
-3.5685,-3.7865,-0.6674,0.64843,-1.0544,-0.044593,-21.42,12.0,-49.92
-4.1814,-4.9033,-0.8036,0.34819,-1.0486,0.14355,-18.96,11.94,-53.22
-4.5083,-5.3937,-0.50395,0.076664,-0.77641,0.25473,-17.22,12.18,-54.6
-4.4811,-6.1292,-0.47671,-0.19487,-0.19792,0.39492,-15.12,12.6,-55.62
-3.8001,-6.8647,-0.44947,-0.51221,0.37263,0.55253,-12.96,13.02,-56.52
1.3212,-14.737,2.4244,-1.0831,0.71441,0.73731,-8.82,13.86,-57.12
5.4618,-18.769,4.6718,-1.8555,0.92699,1.189,-7.74,14.28,-57.66
13.089,-18.578,7.8453,-2.2865,1.1652,2.3879,-8.1,14.58,-59.28
16.862,-17.992,8.4582,-2.2092,1.6472,2.5937,-9.72,14.52,-60.0
18.238,-16.862,8.54,-2.0885,1.6124,1.777,-12.24,14.46,-60.12
18.074,-16.14,8.322,-2.0687,1.2981,1.478,-14.88,14.22,-59.52
15.05,-12.081,7.0962,-2.1105,1.0366,1.5919,-19.38,13.92,-56.64
12.245,-8.826,6.1428,-2.065,1.0962,1.5382,-21.06,14.22,-54.78
9.4389,-5.4073,5.1894,-2.0415,1.7352,1.412,-22.26,14.52,-52.8
8.9486,-2.6968,3.8682,-2.1512,2.8152,1.2303,-24.3,15.96,-49.02
9.1665,-0.8036,2.8058,-2.011,3.0137,1.266,-25.08,16.8,-47.1
9.221,0.23155,2.438,-1.7098,2.605,1.1689,-25.62,17.82,-45.0
10.161,3.2144,1.4438,-1.2074,1.609,0.93096,-26.58,20.46,-40.08
9.9837,4.0316,0.88532,-0.73548,0.59559,0.63744,-26.7,21.9,-37.14
9.3436,4.0316,0.44947,-0.33506,-0.16463,0.34697,-26.28,23.46,-33.96
7.5457,4.0725,-0.14982,-0.000611,-0.54672,0.09499,-23.7,26.58,-27.66
7.3141,4.2495,-0.31327,0.36591,-0.61025,-0.12767,-21.42,28.08,-25.44
7.9679,3.9227,-0.21793,0.45754,-0.6182,-0.20617,-18.9,29.58,-24.12
9.8611,2.0703,1.0624,0.74495,-0.77427,-0.63163,-15.18,31.92,-23.16
10.637,0.61292,2.2882,0.94898,-0.79474,-0.92913,-13.86,32.82,-23.28
14.506,-3.8273,4.0725,0.89217,-0.91538,-1.0547,-13.08,33.36,-23.64
19.273,-12.776,8.2812,0.90408,-1.8662,-0.89522,-12.84,33.42,-24.3
17.775,-12.898,10.488,1.2126,-1.9887,-0.89003,-13.14,33.12,-24.54
17.107,-12.027,10.842,1.5201,-1.5345,-1.5327,-13.92,32.76,-24.9
18.469,-15.064,10.134,1.8732,-1.5501,-1.9988,-16.26,31.14,-25.26
17.448,-16.413,10.065,1.9331,-2.2416,-2.055,-17.58,30.18,-25.8
13.893,-16.154,10.324,1.719,-2.5959,-2.135,-19.02,28.92,-26.52
6.2926,-12.286,8.5536,1.4908,-1.861,-2.0128,-21.96,26.4,-28.44
4.0589,-9.8066,7.0281,1.4569,-0.1967,-1.7871,-23.28,25.02,-29.64
2.8058,-8.0905,5.5162,1.4731,0.15088,-1.6994,-24.36,23.58,-30.72
1.3484,-6.1836,3.0782,1.485,0.18662,-1.2083,-26.22,20.64,-33.42
0.14982,-5.2302,1.7298,1.4044,-0.30635,-0.7422,-26.94,19.26,-34.8
-1.8524,-4.1678,0.21793,1.2611,-0.83658,-0.25412,-27.48,17.82,-36.18
-4.0316,-3.1735,-0.89894,1.0339,-1.2263,0.28924,-27.78,15.12,-38.94
-5.6933,-2.6151,-1.4165,0.69944,-1.1796,0.5681,-27.72,13.98,-40.56
-6.2245,-2.6423,-1.6208,0.46273,-0.77885,0.77183,-27.48,12.96,-42.0
-5.8704,-4.1814,-1.6481,0.21716,-0.26817,0.88362,-26.4,11.34,-45.66
-4.8897,-4.8897,-1.6344,-0.0085521,0.13073,1.0241,-25.62,10.56,-47.28
-3.4732,-6.2517,-2.1112,-0.25809,0.31918,1.1616,-24.96,9.96,-49.02
1.757,-13.471,0.36775,-1.0938,0.1967,1.3567,-23.7,8.82,-51.9
5.4754,-18.306,3.2553,-2.0745,0.21655,1.7727,-23.76,8.46,-52.92
9.7249,-19.218,6.279,-2.5943,0.80481,2.1307,-24.36,8.22,-53.58
13.784,-19.109,8.5808,-2.5601,2.0763,2.3702,-26.22,8.22,-53.64
15.623,-17.311,8.3765,-2.1099,3.1273,1.912,-27.18,8.34,-53.34
17.597,-16.385,7.2324,-1.6301,3.0204,1.4349,-28.02,8.76,-52.74
16.413,-13.825,5.2166,-1.4511,1.0641,1.4423,-29.22,9.96,-50.64
11.891,-10.433,4.6037,-1.4306,0.17746,1.4303,-29.64,10.62,-49.14
9.5751,-8.9077,4.5356,-1.4016,0.16585,1.409,-29.7,11.46,-47.58
6.565,-6.1973,3.9227,-1.4374,1.4261,1.1832,-29.64,12.54,-45.72
6.1973,-4.5356,3.5822,-1.5055,2.4758,1.0473,-29.46,13.74,-43.74
7.927,-1.6753,3.2008,-1.4044,3.047,1.1139,-28.68,16.56,-39.48
9.2346,-0.12258,2.152,-0.74464,2.5128,1.0993,-27.96,18.12,-37.32
11.564,2.7377,-0.10896,-0.48686,2.0134,0.98258,-25.26,21.72,-33.18
11.06,3.9363,-0.99429,-0.08094,0.77519,0.58307,-23.1,23.34,-31.56
10.406,3.8954,-1.471,0.15974,-0.33537,0.21533,-20.82,24.96,-30.18
9.3436,3.337,-1.9341,0.32132,-0.99174,-0.060476,-18.72,26.52,-29.22
8.5263,2.7649,-2.152,0.40531,-0.93523,-0.4777,-16.56,27.84,-28.44
8.6898,0.88532,-0.89894,0.39187,-0.49358,-0.8433,-13.38,30.0,-27.54
9.2891,0.88532,0.10896,0.33781,-0.14569,-1.4914,-12.24,30.84,-27.3
15.418,-6.1836,4.7399,0.25779,-0.16371,-1.6658,-11.28,31.62,-27.36
18.891,-11.128,8.4446,0.15547,-0.7703,-1.8833,-10.14,32.28,-27.36
19.45,-13.402,11.332,0.697,-1.361,-1.5953,-9.9,32.4,-27.36
18.115,-11.509,12.217,1.346,-1.062,-1.9743,-10.14,32.28,-27.3
18.864,-12.585,11.85,1.9761,-0.63835,-2.6267,-11.46,31.32,-27.3
19.45,-14.356,11.155,2.4581,-0.74709,-2.7791,-12.66,30.48,-27.54
18.101,-15.187,10.311,2.605,-1.7275,-2.7972,-15.84,28.02,-29.1
11.645,-13.198,8.4855,2.5662,-1.8793,-2.7379,-17.52,26.64,-30.42
8.6762,-11.291,6.8783,2.5104,-1.8057,-2.3888,-18.78,24.9,-31.98
7.1234,-10.12,5.8567,2.4651,-1.6319,-2.1521,-19.86,23.28,-33.66
2.3699,-7.5048,2.9284,2.3243,-1.5293,-1.8918,-21.0,20.1,-36.6
1.0624,-6.9872,1.9886,2.0684,-1.3833,-1.3155,-21.6,18.6,-37.68
-2.9148,-5.3119,-0.21793,1.7208,-1.3274,-1.1044,-22.2,16.8,-38.58
-4.4539,-4.3449,-0.78998,1.1374,-1.1634,-0.48411,-23.52,13.56,-40.02
-5.6116,-3.6366,-0.76274,0.7532,-0.9499,-0.1631,-24.12,11.88,-40.5
-6.5378,-3.1735,-0.7355,0.5058,-0.58887,0.11362,-24.54,10.44,-41.04
-7.3141,-3.2689,-0.57205,0.38759,-0.19975,0.30604,-24.96,7.68,-41.46
-6.7693,-3.8682,-0.8717,0.12248,0.12492,0.39279,-24.78,6.66,-41.52
-4.4811,-5.3392,-1.4438,0.02138,0.13989,0.44379,-23.94,5.28,-40.5
-2.4244,-6.7421,-1.2258,-0.27397,-0.11576,0.80084,-23.4,4.74,-39.36
-0.14982,-9.4253,1.0488,-0.36713,-0.1408,0.96089,-23.04,4.44,-38.16
5.1757,-17.829,4.9987,-1.3665,0.13439,1.5513,-23.46,3.78,-35.94
10.106,-19.314,8.1722,-2.8274,0.61087,1.5873,-23.64,3.6,-35.28
15.663,-16.058,8.3765,-3.1957,1.8564,2.094,-24.0,3.42,-35.04
17.734,-16.29,8.0224,-2.8592,3.3885,2.8534,-24.84,3.18,-35.82
19.355,-15.282,8.2131,-2.7287,3.3485,2.2376,-25.68,3.06,-36.3
19.491,-14.301,8.0496,-2.8527,1.737,1.9826,-26.7,3.24,-36.54
16.018,-9.2074,6.565,-2.6295,0.94287,1.9545,-28.02,4.08,-36.06
12.708,-6.6195,6.5105,-2.3106,1.1087,1.8421,-28.38,4.8,-35.52
10.569,-4.4402,6.2109,-2.1509,1.9371,1.7242,-28.38,5.76,-34.8
10.052,-0.6674,4.8216,-1.9557,2.8118,1.7911,-28.08,8.1,-33.48
10.311,1.1169,3.9227,-1.653,2.7767,1.7358,-27.78,9.54,-32.88
10.447,2.9556,2.3155,-1.215,2.3799,1.4456,-27.36,10.98,-32.16
10.569,4.5628,1.0624,-0.77152,1.631,0.99357,-26.76,12.36,-31.38
9.6841,6.3743,0.068102,-0.36102,0.81276,0.56474,-25.44,15.72,-29.52
8.826,6.0338,-0.19068,0.029932,-0.12401,0.16982,-24.54,17.34,-28.38
8.3765,4.7807,-0.35413,0.35858,-0.30238,0.062919,-22.32,20.82,-25.32
8.9349,4.2632,-0.027241,0.74312,-0.5904,-0.42974,-20.7,22.5,-23.82
9.2482,3.6639,0.62654,0.85246,-0.62186,-0.64721,-18.96,24.06,-22.68
10.869,1.185,4.4402,1.211,-0.35522,-1.295,-15.9,26.64,-21.78
15.037,-2.0294,6.3198,1.2733,-0.15638,-1.6078,-15.06,27.54,-21.72
18.864,-7.7364,7.7364,1.2184,-0.52809,-1.6564,-14.22,28.02,-21.78
19.504,-12.735,10.91,1.7465,-1.992,-1.2413,-13.68,28.2,-21.96
18.905,-11.21,11.7,2.1365,-1.6973,-1.832,-13.98,27.9,-21.96
19.355,-13.062,12.122,2.4593,-1.4413,-2.3127,-14.94,27.3,-21.96
19.532,-14.056,11.632,2.686,-1.9374,-2.2657,-17.46,25.68,-23.7
17.529,-13.593,10.733,2.7642,-2.6903,-2.3552,-18.96,24.48,-25.26
12.667,-13.198,8.9213,2.5342,-2.9108,-2.3072,-21.18,22.32,-28.74
6.1973,-10.61,7.5457,2.2807,-2.4517,-2.0834,-21.9,21.12,-30.3
2.0431,-8.3765,6.0883,2.0806,-1.6793,-1.8265,-22.74,19.86,-31.56
0.34051,-7.5048,5.094,1.97,-1.2248,-1.6777,-23.46,18.72,-32.7
-2.7104,-5.1076,2.3018,1.639,-0.22969,-1.1399,-24.72,16.14,-34.38
-3.514,-4.1678,1.2803,1.4413,-0.10446,-0.67745,-25.14,14.88,-35.04
-4.127,-3.4187,0.51757,1.2175,-0.18845,-0.20861,-25.74,13.86,-35.76
-4.699,-2.547,-1.1577,0.97464,-0.41294,0.40073,-26.34,11.88,-36.78
-4.5764,-2.9011,-1.7706,0.89034,-0.67042,0.76511,-26.16,11.16,-37.38
-4.1814,-3.9635,-1.9341,0.82314,-0.78221,0.90133,-25.62,10.74,-37.68
-3.7728,-5.1076,-2.0294,0.47647,-0.92149,1.2944,-24.84,10.38,-37.56
-2.3155,-7.8589,-2.438,0.20097,-0.91111,1.5724,-22.74,10.32,-36.06
-1.1169,-9.0167,-1.866,-0.18265,-0.8882,1.7849,-21.84,10.26,-34.92
0.57205,-11.536,0.28603,-0.71257,-0.68386,1.9673,-20.4,10.08,-33.48
7.2188,-19.191,5.9385,-2.4352,0.28436,2.0143,-19.98,10.08,-33.72
10.801,-19.491,8.4174,-3.2376,1.5837,2.0348,-19.8,10.02,-34.32
13.852,-19.532,9.8611,-3.4563,2.4902,2.354,-19.92,10.2,-35.28
17.053,-18.224,10.828,-3.5852,4.459,2.6194,-21.48,10.44,-37.2
18.742,-16.413,10.174,-3.5018,4.2101,2.2911,-22.5,10.68,-37.68
18.319,-11.795,9.0303,-2.8023,3.0354,2.0858,-23.94,11.46,-37.38
14.097,-5.2847,6.5786,-2.1783,2.2605,1.6982,-24.3,11.94,-36.72
11.863,-3.4732,5.8023,-1.7587,1.8146,1.3094,-24.3,12.54,-35.94
10.815,-2.5061,5.1485,-1.4737,1.6426,1.2984,-24.06,13.32,-35.22
9.6977,0.38137,2.8603,-1.3916,1.6921,1.3647,-23.34,15.18,-33.66
9.4661,1.8932,1.866,-1.3744,1.9419,1.3091,-22.86,16.2,-32.82
9.6568,3.0918,0.72188,-1.0895,1.9251,1.1976,-22.62,17.28,-31.86
11.196,4.6718,-0.83084,-0.42761,1.0342,0.6017,-21.36,19.56,-29.28
11.319,5.3528,-0.88532,-0.011606,0.16982,0.22083,-20.4,20.7,-27.36
10.665,5.6797,-0.99429,0.16432,-0.15791,0.040623,-19.14,21.72,-25.38
10.025,5.4754,-1.3076,0.70921,-0.81581,-0.51282,-15.42,23.82,-21.6
9.9156,5.1213,-0.28603,0.95448,-1.2095,-0.87812,-13.26,24.78,-20.28
9.3436,3.8954,1.9613,1.0938,-1.4374,-1.1301,-11.34,25.56,-19.44
13.402,-1.6753,6.2109,1.0458,-1.2523,-1.3958,-8.82,26.64,-19.02
19.028,-9.5479,10.188,0.71135,-1.1753,-1.908,-8.1,26.88,-19.14
19.409,-13.797,12.912,0.81886,-1.5647,-1.8934,-7.92,26.7,-19.26
19.355,-13.13,14.274,1.6014,-1.182,-2.1725,-8.4,25.56,-19.62
19.355,-13.934,13.144,2.1591,-0.50091,-2.9019,-9.06,24.96,-20.1
19.259,-14.642,11.223,2.6176,-1.2666,-2.8741,-11.04,23.1,-21.72
14.247,-13.688,10.597,2.4844,-1.9978,-2.7632,-11.94,22.08,-23.16
10.324,-12.449,9.9156,2.3753,-2.1142,-2.6548,-12.78,20.82,-24.78
6.7285,-10.433,8.5808,2.1854,-1.8088,-2.2428,-13.32,19.74,-26.22
2.0294,-7.7636,5.993,2.1206,-0.85307,-1.5653,-14.28,17.46,-28.92
-0.50395,-7.2188,4.3177,2.106,-0.37171,-1.0321,-14.82,16.32,-30.12
-3.3506,-6.1155,1.7706,2.0235,-0.2587,-0.40195,-15.24,15.3,-31.26
-4.8216,-4.9033,-0.57205,1.7605,-0.54092,0.45754,-15.66,13.26,-33.3
-5.5707,-5.203,-1.0351,1.4691,-0.7761,1.0211,-15.72,12.42,-34.26
-5.9249,-5.5843,-1.2122,1.1631,-1.0006,1.3537,-15.54,11.76,-35.22
-6.8238,-5.6797,-2.6968,0.85613,-0.9334,1.3512,-14.46,11.1,-36.72
-6.6059,-5.6797,-3.3915,0.59682,-0.68814,1.3091,-13.5,10.8,-37.38
-5.6933,-6.5241,-3.8137,0.22663,-0.50366,1.4032,-12.18,10.86,-37.98
-2.6423,-9.4798,-2.833,-0.29505,-0.43982,1.7113,-8.58,11.22,-39.36
-0.92618,-11.046,-1.2531,-1.5653,-0.12614,1.9337,-6.9,11.7,-40.62
2.6968,-15.282,2.5742,-2.9034,0.48258,2.0885,-6.0,11.76,-42.6
13.144,-19.463,8.5808,-3.5684,1.5137,2.4377,-7.26,11.4,-46.62
16.072,-19.341,10.406,-3.2929,3.1683,3.0843,-8.76,11.1,-48.0
18.156,-16.903,9.4525,-2.5525,4.2553,2.5317,-10.56,10.98,-48.6
19.491,-15.023,7.8317,-2.0583,3.3982,1.5629,-13.26,10.92,-48.12
15.881,-13.144,6.9191,-2.0052,0.28833,1.427,-14.1,11.04,-47.28
12.626,-11.4,6.3879,-1.9184,-0.25443,1.7358,-14.7,11.34,-46.38
6.4833,-6.6059,5.1894,-1.7602,0.46731,1.7504,-15.78,11.76,-44.34
6.2926,-5.3392,4.699,-1.7801,1.7862,1.441,-16.38,12.18,-43.32
7.6002,-4.4539,3.9499,-1.8528,2.864,1.1454,-16.86,12.48,-42.0
9.1665,-0.61292,2.0431,-1.8543,3.0039,1.0467,-18.72,13.14,-37.98
8.7306,1.8251,1.076,-1.4759,2.2623,1.1347,-19.62,13.56,-35.1
8.6353,4.1814,0.68102,-1.3494,1.8247,1.1185,-19.8,14.22,-31.74
9.6023,6.4424,0.91256,-0.84788,0.79229,0.59712,-17.34,16.26,-25.02
9.9701,5.9793,0.96704,-0.38026,0.25168,0.36682,-15.18,17.52,-22.62
10.801,4.5764,0.7355,0.04948,-0.15852,0.092546,-12.72,18.48,-20.88
10.869,3.9635,1.2122,0.37996,-0.51038,-0.52321,-8.88,20.52,-19.2
10.706,3.3778,1.5391,0.89583,-0.83291,-0.99327,-7.5,21.3,-19.14
10.706,1.2803,3.1054,1.1332,-0.94348,-1.3164,-6.54,21.66,-19.14
17.175,-6.4833,5.5435,1.1182,-1.2251,-1.6127,-5.16,22.44,-19.2
19.246,-13.28,7.927,0.86254,-1.927,-1.9655,-4.68,22.44,-19.08
19.504,-14.914,9.6704,0.99388,-2.5666,-1.7034,-4.68,22.56,-18.96
17.734,-11.319,10.924,1.3366,-2.2733,-2.1673,-5.22,22.38,-19.08
17.557,-13.593,10.964,1.9163,-0.9163,-3.2037,-5.88,22.08,-19.2
18.646,-16.549,11.032,2.219,-0.72724,-3.1331,-6.72,21.54,-19.32
17.08,-18.701,9.5342,2.4462,-1.2089,-3.146,-9.0,20.46,-20.22
13.92,-17.597,8.7034,2.5562,-1.5879,-3.0467,-10.26,19.8,-21.24
8.9349,-14.901,7.3822,2.6023,-1.6463,-2.8882,-11.52,19.32,-22.38
3.2825,-11.768,5.1757,2.6298,-1.3201,-2.4942,-13.56,18.12,-24.84
1.2258,-10.706,3.4187,2.471,-0.99235,-2.0476,-14.46,17.52,-25.8
-2.1793,-8.7579,0.8036,2.3476,-0.88759,-1.7703,-15.18,16.86,-26.64
-4.8897,-6.1292,-0.25879,1.7132,-0.80573,-0.78557,-16.92,15.42,-28.44
-6.279,-5.0259,-0.76274,1.3002,-0.81856,-0.17685,-17.7,14.76,-29.22
-7.7364,-4.2223,-1.0215,0.98044,-0.70769,0.343,-18.48,13.98,-30.06
-9.6432,-3.7047,-1.4029,0.72662,-0.30635,0.71563,-19.56,12.72,-31.5
-9.5479,-3.9908,-1.362,0.39218,0.4383,1.131,-19.74,12.24,-32.4
-6.8374,-5.993,-1.7979,0.29169,0.60903,1.3179,-19.8,12.0,-33.18
-4.9578,-7.3686,-2.0294,-0.11209,0.624,1.9184,-18.84,11.76,-34.62
-2.8875,-8.3765,-1.8251,-0.53176,0.32406,2.2605,-18.12,11.94,-35.22
-1.3757,-9.3708,-0.81722,-0.98533,0.16341,2.5907,-17.34,12.12,-36.0
5.2575,-18.251,4.4539,-1.784,0.36591,3.0192,-17.28,12.06,-38.34
11.264,-19.382,7.3822,-2.6029,1.0321,3.2196,-18.12,12.0,-39.54
19.314,-19.532,9.1665,-2.5333,2.4086,3.219,-20.52,12.36,-41.1
19.355,-19.014,8.9349,-2.1625,3.2303,2.4386,-21.36,12.78,-41.16
19.15,-18.537,9.0439,-2.0876,3.2028,1.6994,-22.02,13.38,-40.98
17.666,-14.764,7.3414,-2.138,2.5021,1.6127,-22.2,14.94,-40.26
14.805,-10.76,6.0883,-1.8732,1.7953,1.5565,-22.08,15.84,-39.78
12.04,-7.5457,5.3937,-1.5687,1.6466,1.3121,-21.78,16.86,-38.94
8.9349,-3.7865,4.1951,-1.4539,1.9694,1.0922,-21.18,18.96,-37.26
8.4174,-2.1248,3.514,-1.4221,2.1802,1.0828,-20.94,19.86,-36.12
8.5127,-0.40861,2.6423,-1.2584,2.2529,1.0883,-20.64,20.82,-34.68
9.793,2.7377,1.0624,-0.99754,2.0067,0.98044,-19.86,22.98,-30.6
10.733,4.8761,-0.36775,-0.60903,1.3833,0.68295,-18.66,24.18,-28.44
10.719,5.6116,-0.95342,-0.24465,0.54703,0.23763,-16.86,25.44,-26.34
9.5479,4.0861,-1.2667,0.057421,-0.23243,-0.1854,-12.84,27.96,-23.34
9.0575,3.0101,-1.362,0.343,-0.92088,-0.55192,-10.8,29.16,-22.62
8.9486,2.7104,-1.3757,0.40897,-1.0009,-0.66248,-9.3,30.0,-22.32
9.3572,1.9341,-0.62654,0.66401,-1.0825,-1.1466,-8.16,30.72,-22.08
10.787,-0.76274,2.3427,0.85277,-1.0739,-1.5852,-6.66,32.04,-21.96
15.391,-6.3743,4.6582,0.7981,-1.0886,-2.1667,-6.48,32.34,-22.02
19.314,-15.8,9.2891,0.50519,-1.4746,-1.9086,-6.66,32.58,-22.08
17.666,-12.871,11.005,0.72693,-1.2773,-1.6854,-7.14,32.52,-22.08
16.658,-11.4,11.21,1.2352,-0.6353,-2.3812,-8.1,32.22,-22.26
18.347,-15.241,10.583,1.6762,-0.62644,-2.7599,-10.38,30.84,-22.8
17.012,-15.282,9.3844,1.8616,-1.2795,-2.6683,-11.76,30.18,-23.22
13.702,-14.601,8.9486,1.806,-1.8607,-2.6841,-13.38,29.16,-23.82
6.279,-11.319,6.8647,1.7269,-1.4102,-2.2965,-16.56,27.0,-26.04
3.8682,-9.3299,5.7342,1.7587,-1.0553,-2.1344,-18.18,25.56,-27.18
2.9148,-8.1995,4.8488,1.8011,-0.40317,-1.8161,-19.44,24.36,-28.32
1.5527,-6.9464,3.6094,1.6579,-0.12004,-1.2184,-20.46,23.16,-29.52
-0.35413,-5.9249,1.8932,1.4447,-0.33811,-0.76083,-22.14,20.34,-31.8
-1.9613,-4.7535,0.42223,1.1515,-0.62308,-0.36591,-22.8,19.14,-32.94
-3.732,-3.6366,-0.69464,0.84605,-0.75167,-0.077274,-23.64,16.74,-35.46
-4.5492,-3.2553,-1.1169,0.47342,-0.7645,0.24496,-23.82,15.66,-36.6
-5.1213,-2.9829,-1.0215,0.3543,-0.72693,0.34636,-23.76,14.7,-37.62
-6.0202,-3.337,-1.362,0.11118,-0.36713,0.58246,-22.98,13.44,-39.84
-5.5162,-4.304,-1.8524,-0.017715,0.042761,0.73518,-22.38,12.9,-40.8
-4.7944,-5.2847,-2.0158,-0.26756,0.34025,0.9331,-21.42,12.54,-41.82
-3.4323,-8.0088,1.0351,-0.89339,0.98471,1.5238,-19.74,12.06,-43.56
-1.6481,-13.375,2.5742,-1.5094,1.7877,2.2584,-19.32,11.82,-44.46
0.91256,-17.529,4.4539,-2.5598,2.2162,2.9877,-19.38,11.82,-45.54
15.2,-19.504,8.2812,-3.022,1.8641,3.2865,-20.88,12.36,-46.92
17.965,-19.491,7.5048,-2.7694,1.8824,4.0995,-21.96,12.96,-46.92
17.706,-19.218,6.3743,-2.2709,1.4374,3.2755,-22.8,13.56,-46.5
16.372,-19.0,5.2166,-1.9838,1.102,2.4224,-23.76,15.36,-44.64
14.996,-16.93,4.7944,-1.93,0.68111,2.2306,-23.82,16.5,-43.62
12.749,-14.342,4.8352,-1.9444,0.88698,2.0262,-23.82,17.52,-42.54
9.2891,-9.1665,5.094,-1.9071,2.5223,1.2107,-23.58,19.68,-39.84
8.8941,-6.2245,5.1621,-1.7074,3.2245,0.95417,-23.34,20.76,-38.4
9.6977,-4.5356,4.5356,-1.4267,2.8643,0.8717,-23.22,21.96,-36.78
10.746,-1.5255,3.3506,-1.1081,1.9416,0.90683,-22.26,24.6,-32.7
10.556,0.54481,2.6968,-0.47739,0.89309,0.79107,-21.24,26.1,-30.54
10.093,2.2746,1.7979,-0.25687,0.68661,0.63438,-20.1,27.42,-28.14
9.2891,3.8001,0.081722,0.23702,0.15821,0.092241,-16.38,29.7,-24.36
8.8532,3.8409,-0.19068,0.34789,-0.042761,-0.02474,-14.4,30.54,-23.04
8.3765,3.8137,-0.19068,0.65027,-0.59865,-0.27092,-12.6,31.26,-22.26
7.927,3.1599,1.3212,0.97189,-0.82803,-0.67012,-11.4,31.86,-21.9
8.1586,2.0431,2.1248,1.1072,-0.87109,-0.83933,-10.14,32.46,-21.54
10.501,-2.6015,4.699,1.2382,-0.96517,-1.1414,-8.76,32.88,-21.42
13.607,-7.8317,6.7012,1.0825,-1.4392,-1.2193,-8.28,32.88,-21.3
15.105,-10.569,8.6898,1.1698,-1.803,-0.83627,-8.28,33.0,-21.3
15.936,-9.9292,10.774,1.4948,-1.445,-0.88881,-8.52,32.82,-21.42
17.298,-11.032,11.06,1.9135,-0.88026,-1.4404,-9.18,32.46,-21.36
19.177,-12.708,11.223,2.3057,-1.0806,-1.9224,-10.74,31.2,-21.84
19.532,-14.315,11.237,2.5464,-2.0085,-2.1961,-11.88,30.36,-22.32
18.401,-15.486,10.924,2.6224,-2.9679,-2.6686,-13.56,29.22,-22.86
16.453,-15.445,10.406,2.3909,-3.441,-3.0342,-15.18,28.08,-24.0
8.2812,-11.618,7.4776,2.1958,-3.1218,-3.1124,-18.3,26.16,-27.6
6.1836,-10.515,6.674,2.1032,-2.4514,-3.1316,-19.32,25.02,-29.34
2.9692,-8.5944,4.5356,1.9258,-1.2178,-3.0024,-21.42,22.74,-32.1
-0.99429,-8.0496,3.2825,1.7636,-0.52993,-2.6344,-22.26,21.42,-32.88
-3.6366,-7.3005,1.9477,1.6857,-0.2868,-2.3812,-23.1,20.16,-33.66
-4.4811,-6.456,1.4438,1.39,0.013744,-1.7055,-23.82,18.66,-34.26
-5.8159,-5.8023,0.64016,1.2132,-0.034208,-1.3021,-25.38,15.66,-35.28
-5.6797,-5.5843,-0.31327,0.99693,-0.43707,-0.89247,-26.16,14.16,-36.0
-5.9657,-5.2575,-0.8036,0.74403,-0.91111,-0.57544,-26.76,12.66,-36.36
-6.0202,-5.9521,-1.5119,0.43738,-1.179,-0.14325,-27.36,10.26,-36.48
-5.1485,-6.7966,-1.7979,0.15302,-1.0116,0.18754,-27.24,9.18,-36.24
-4.3177,-7.4231,-1.5391,-0.24923,-0.59132,0.5452,-27.0,8.22,-35.52
-0.29965,-12.844,2.3291,-0.84696,0.22785,1.1576,-26.52,6.12,-32.88
4.413,-16.576,4.8352,-1.9297,1.0238,1.8711,-26.4,5.22,-31.68
9.8475,-17.938,8.4174,-2.8097,1.3638,2.3445,-26.16,4.38,-31.02
15.677,-16.317,8.036,-3.2245,2.3683,3.2409,-25.5,3.78,-31.68
17.543,-16.113,8.0905,-3.0397,3.2626,3.0891,-25.26,3.6,-33.24
19.246,-15.514,8.7987,-3.007,2.7284,2.7351,-25.5,3.54,-35.22
19.532,-12.122,8.2948,-2.868,1.6487,2.5226,-27.24,3.12,-38.28
16.916,-8.3084,7.1234,-2.5158,0.98197,2.1582,-27.96,3.12,-38.46
12.122,-5.1076,6.0066,-2.2235,1.0986,1.7223,-28.38,3.54,-38.28
9.5751,-2.9011,5.2847,-2.124,1.9652,1.3402,-28.08,5.34,-37.68
8.54,-1.1577,4.6037,-2.1423,2.4725,1.3809,-27.6,6.66,-37.38
8.2403,0.14982,4.2904,-2.0601,2.6649,1.4105,-26.88,8.1,-37.14
8.4855,3.9908,2.6151,-1.7825,2.4462,1.3036,-25.26,11.04,-36.66
8.9349,5.2575,1.2258,-1.2981,1.9676,1.0128,-24.54,12.6,-36.36
9.0848,6.0474,0.54481,-0.5565,0.91416,0.47098,-23.22,15.48,-34.8
8.6625,6.1292,0.49033,-0.19364,0.30635,0.29474,-22.86,16.86,-33.36
8.7715,6.1155,0.040861,0.14233,-0.20739,0.25534,-22.32,18.24,-31.38
9.4798,5.5707,-0.36775,0.30604,-0.49052,0.18357,-21.3,19.68,-29.16
9.507,4.6445,0.12258,0.65546,-1.0806,-0.35797,-19.68,21.48,-27.12
8.4174,2.1248,3.2416,0.77091,-0.90225,-0.66798,-15.66,24.66,-25.2
11.455,-0.95342,5.1894,0.42974,-0.22327,-1.0586,-14.28,25.8,-25.14
19.123,-10.556,11.128,0.45876,-0.52229,-1.0782,-12.9,27.0,-25.44
19.341,-12.149,13.28,1.073,-0.95051,-0.82497,-12.72,27.06,-25.62
19.286,-11.319,13.77,1.832,-0.47312,-1.2456,-12.78,27.0,-25.62
19.532,-15.091,12.354,2.5498,-0.74739,-2.087,-14.04,25.86,-25.74
19.532,-16.753,11.155,3.0125,-1.9062,-2.3341,-15.36,24.78,-26.1
17.706,-16.058,9.8066,3.0885,-2.8802,-2.3005,-16.98,23.76,-27.06
10.569,-12.898,7.3958,2.8537,-2.9303,-2.1591,-20.16,21.36,-30.6
7.5865,-11.114,5.9385,2.7217,-2.6551,-2.0659,-21.3,20.46,-32.64
7.5865,-11.114,5.9385,2.2914,-1.6145,-1.7871,-21.3,20.46,-32.64
3.623,-8.4446,3.9363,1.9539,-1.0101,-1.5577,-21.96,19.44,-34.44
0.47671,-6.0338,1.866,1.5705,-0.5733,-1.2559,-23.04,16.98,-36.24
-0.095342,-5.3528,1.362,1.2599,-0.30329,-0.978,-23.64,15.9,-36.96
-1.0215,-4.5764,0.01362,0.88637,-0.26512,-0.59834,-24.66,13.74,-37.92
-1.4982,-4.5628,-1.3484,0.61453,-0.51954,-0.39767,-25.5,11.82,-39.12
-2.3427,-4.4402,-1.4438,0.29291,-0.87232,-0.21105,-25.68,10.74,-39.6
-4.1678,-4.8352,-1.5663,0.038485,-1.0431,0.057116,-25.74,9.54,-40.14
-5.884,-5.3392,-1.5391,-0.080329,-0.90561,0.36163,-24.48,9.18,-39.24
-5.2166,-5.8431,-1.9068,-0.14661,-0.59743,0.59162,-23.22,8.82,-36.3
-2.833,-7.7772,-1.2531,-0.27947,-0.4945,0.79474,-22.98,8.22,-33.12
-0.10896,-12.626,2.2201,-0.96761,-0.69364,1.2911,-23.46,7.98,-32.1
2.8058,-17.802,4.9306,-1.8317,-0.4441,1.8686,-23.88,7.74,-32.1
5.775,-18.21,7.0009,-2.3784,0.16066,2.6957,-24.48,7.8,-32.76
8.6489,-18.565,7.4503,-2.5436,1.3057,3.6252,-25.56,8.04,-33.96
10.147,-18.565,7.8181,-2.5534,2.3769,4.0167,-26.22,8.28,-34.62
14.451,-19.45,9.7385,-2.7422,2.9945,3.7532,-27.9,8.94,-35.64
19.15,-17.815,10.869,-2.8381,3.1817,3.5103,-29.52,10.26,-35.58
18.633,-13.239,9.8748,-2.2675,2.4502,2.6964,-30.12,11.94,-34.92
16.195,-9.902,8.9758,-1.7978,2.1105,2.0846,-30.18,12.78,-34.2
13.321,-6.1564,7.9679,-1.4612,2.2498,1.8057,-29.88,15.12,-32.76
12.027,-1.9613,6.5105,-1.274,2.5232,1.784,-29.04,17.88,-31.32
12.19,-0.47671,5.6116,-1.0867,2.6728,1.6671,-28.38,21.0,-29.28
12.735,2.0022,3.5685,-0.84208,2.4859,1.2969,-26.46,22.68,-28.2
11.85,4.018,1.1169,-0.48503,1.9245,0.58704,-23.52,25.68,-25.8
10.774,5.3256,-0.6674,-0.24343,1.5067,0.20495,-19.68,28.32,-24.12
10.433,5.8159,-1.5255,-0.018021,0.86315,-0.045815,-17.64,29.58,-23.7
9.3299,4.9714,-1.7434,0.15058,0.25259,-0.24435,-14.46,31.5,-23.4
9.3163,3.4868,-1.9613,0.26542,-0.028711,-0.44654,-12.3,33.0,-23.4
9.6977,1.6753,-0.76274,0.48106,-0.34819,-0.978,-10.98,34.02,-23.76
9.4117,0.57205,0.24517,0.50366,-0.25931,-1.2703,-10.5,34.38,-23.88
12.313,-3.337,3.1872,0.50335,-0.24587,-1.5421,-9.9,34.62,-24.18
18.469,-11.741,8.1586,0.49755,-0.76144,-1.5956,-9.96,34.2,-24.42
19.273,-14.043,10.052,0.90347,-1.66,-1.208,-10.32,34.02,-24.42
17.597,-12.286,12.299,1.3751,-1.6851,-1.2223,-11.34,33.54,-24.18
18.401,-13.838,12.163,1.9297,-1.2709,-1.8964,-13.26,32.16,-24.12
18.891,-15.05,11.468,2.5504,-1.9618,-2.3207,-15.96,30.48,-24.42
16.235,-15.282,11.046,2.5659,-2.9544,-2.5244,-17.64,29.58,-24.78
11.7,-14.506,10.188,2.3805,-3.3396,-2.5852,-21.24,27.66,-26.94
5.8159,-11.741,7.2869,2.2058,-3.0186,-2.3729,-24.6,25.68,-30.12
3.8954,-10.637,6.1292,2.0965,-2.3747,-2.0296,-25.86,23.76,-33.3
0.72188,-9.0848,4.4947,1.9716,-1.7257,-1.7446,-27.72,22.92,-34.62
-1.975,-7.5457,2.4108,1.7843,-1.153,-1.3842,-28.8,21.48,-37.26
-4.3858,-6.1428,0.19068,1.4423,-0.71349,-0.71044,-29.34,20.1,-39.72
-5.8431,-4.4811,-1.2122,1.2382,-0.87384,-0.14447,-29.34,19.62,-40.98
-6.8238,-2.4925,-2.0839,0.96761,-1.0831,0.32712,-28.8,19.08,-42.72
-8.1177,-2.6696,-1.4438,0.69852,-1.1432,0.697,-27.06,18.84,-44.04
-8.7851,-3.5685,-1.1169,0.3879,-0.97861,1.0727,-25.92,18.96,-43.98
-9.8611,-6.1292,-1.0215,-0.14325,-0.16707,1.2874,-23.4,19.2,-43.26
-7.641,-7.5457,-1.4846,-1.0229,1.4954,1.2675,-21.66,19.92,-42.66
-5.3528,-8.0496,-1.5663,-1.4911,2.0519,1.1817,-21.18,20.22,-42.66
0.46309,-11.141,0.24517,-2.0803,1.9725,1.2596,-21.24,20.76,-43.92
5.7478,-18.905,4.9578,-2.9841,1.9679,1.7471,-22.38,21.18,-45.06
9.7522,-19.382,7.1779,-3.5067,2.0385,2.6851,-23.58,21.24,-45.36
14.056,-19.532,10.42,-3.4428,3.2025,3.7382,-25.56,21.48,-44.76
16.263,-18.17,8.322,-2.0323,3.5274,3.0406,-26.88,22.14,-43.14
17.924,-17.611,7.641,-1.4474,2.1154,2.2868,-27.42,22.56,-41.94
17.175,-15.759,6.6195,-1.2999,-0.1628,2.3097,-27.78,23.4,-39.42
10.651,-12.0,7.3414,-1.2926,-1.1594,2.4899,-27.6,24.66,-36.06
8.5127,-8.6762,6.8374,-1.2159,-0.32987,2.3485,-26.7,25.86,-31.86
8.826,-7.3141,6.5105,-1.1646,1.4456,1.9807,-25.98,26.52,-29.34
11.25,-4.413,5.5299,-1.2236,3.0614,1.2718,-23.7,28.26,-24.3
12.204,-1.58,4.9033,-1.1191,2.9025,1.0663,-19.86,30.36,-20.46
11.972,1.0215,3.9363,-0.72724,2.332,0.95234,-17.76,31.44,-19.08
11.591,4.0044,2.1656,-0.14569,1.5666,0.67042,-14.04,33.42,-17.52
10.869,4.8625,0.57205,0.32162,0.62247,0.19548,-10.92,35.04,-16.68
9.5479,3.514,0.17706,0.62217,-0.32529,-0.17196,-8.58,36.42,-16.38
8.826,3.1872,0.081722,0.83322,-1.0626,-0.35155,-7.56,36.78,-16.44
8.0632,2.3836,-0.28603,0.90469,-0.97005,-0.69028,-6.12,37.32,-16.56
8.1177,1.7979,-0.14982,0.93798,-0.62186,-1.2202,-5.1,37.5,-16.8
8.7034,0.068102,0.89894,0.97128,-0.22663,-1.6829,-4.86,37.5,-17.04
10.161,-2.1248,2.4108,1.0024,-0.000611,-2.0464,-4.8,37.38,-17.28
16.508,-9.398,6.3471,0.87842,-0.14875,-2.3995,-5.1,37.08,-17.52
19.327,-15.663,10.379,0.91202,-1.704,-2.1634,-5.88,36.54,-17.94
18.183,-13.866,11.768,1.4022,-2.343,-1.821,-6.66,36.18,-18.18
17.107,-14.342,11.673,1.8561,-2.0843,-2.4645,-8.82,35.04,-18.72
17.747,-15.827,10.61,2.2196,-1.7901,-2.8616,-11.82,33.42,-19.44
17.189,-16.739,10.12,2.2287,-1.8931,-3.0158,-13.68,32.64,-20.28
13.062,-16.658,9.7385,1.9844,-2.1041,-2.9688,-17.58,30.66,-22.5
6.7012,-12.871,7.6002,1.803,-1.7914,-2.6765,-21.0,29.34,-26.1
3.3234,-9.793,5.5162,1.9728,-0.93615,-2.1692,-23.28,27.96,-30.18
1.7025,-8.3357,4.2904,2.0782,-0.62797,-1.824,-24.24,27.36,-32.1
-0.19068,-7.1915,2.8603,1.9707,-0.67378,-1.4013,-25.5,26.1,-35.46
-2.8739,-5.598,1.0079,1.711,-0.97219,-0.85399,-25.92,24.78,-38.34
-4.9169,-4.3177,-0.21793,1.4346,-1.2804,-0.25259,-25.86,23.76,-40.8
-5.8704,-3.7592,-0.83084,1.0889,-1.3668,0.45326,-25.74,23.4,-41.94
-7.6002,-3.0782,-1.7706,0.89186,-1.2434,0.73426,-24.36,22.86,-43.44
-8.2812,-3.8682,-2.1112,0.56077,-1.0205,0.97311,-22.2,22.74,-43.86
-7.7636,-5.0804,-2.0431,0.082772,-0.73273,1.3222,-21.12,22.44,-43.8
-6.4424,-6.6059,-1.8796,-0.42058,-0.47037,1.6814,-19.68,22.02,-43.08
-4.3449,-8.2948,-1.5119,-0.7871,-0.17562,1.9994,-18.96,22.2,-43.32
-0.61292,-14.192,2.3427,-1.4218,0.4612,2.3903,-19.44,22.02,-44.7
1.7162,-18.02,3.9771,-2.1753,1.0672,2.879,-20.28,22.02,-45.48
10.61,-19.491,8.1177,-2.7159,1.4025,3.116,-22.98,22.32,-46.8
15.023,-19.532,8.9213,-2.8188,1.952,3.4334,-25.86,22.68,-46.74
15.827,-19.532,8.54,-2.54,2.9144,3.547,-27.0,22.98,-46.26
17.829,-19.436,8.2131,-2.1939,3.0962,2.6545,-28.32,24.0,-44.4
16.93,-15.977,7.2733,-2.0452,2.2452,2.109,-28.98,24.96,-42.3
15.228,-13.511,6.7966,-1.9462,1.952,2.0467,-28.98,25.68,-40.74
11.087,-8.1722,5.993,-1.529,1.927,1.7599,-28.62,26.88,-37.32
9.9156,-5.4345,5.3119,-1.3644,2.3552,1.6393,-27.66,28.44,-33.0
10.188,-2.5198,4.5356,-1.2688,2.6292,1.6283,-25.26,30.3,-28.2
10.515,-1.2803,4.0861,-1.0983,2.5443,1.5534,-23.34,31.08,-26.22
11.496,1.185,2.0294,-0.80237,2.1142,1.42,-18.54,33.06,-23.16
11.713,2.4517,0.8036,-0.34239,0.91966,0.87568,-13.8,35.1,-21.66
10.637,2.9011,0.55843,-0.13592,0.19364,0.44929,-11.88,35.94,-21.3
8.8668,3.3506,0.19068,0.016188,-0.069333,0.18998,-9.06,37.56,-20.94
8.6081,3.3506,-0.32689,0.17104,-0.053756,-0.020464,-6.84,38.88,-20.64
8.8532,2.7649,-0.31327,0.34361,-0.0281,-0.36866,-6.06,39.24,-20.64
9.4661,1.9068,-0.054481,0.58124,-0.10079,-0.99938,-4.56,39.84,-20.58
9.9292,0.85808,0.58567,0.79657,-0.2251,-1.2043,-4.2,40.08,-20.64
10.46,-0.61292,1.9613,0.86773,-0.51649,-1.6545,-3.78,40.38,-20.7
18.319,-10.815,6.4969,0.64813,-0.89736,-1.9474,-3.78,40.26,-20.76
19.382,-16.93,9.3027,0.94043,-1.9914,-1.8821,-3.96,40.08,-20.76
19.246,-14.914,10.351,1.5134,-2.5085,-1.7831,-4.62,40.02,-20.76
16.086,-15.595,9.1393,1.9016,-2.0711,-2.7107,-6.3,39.24,-20.7
16.263,-15.936,8.0224,2.2199,-1.482,-3.1566,-7.56,38.64,-20.7
15.677,-15.514,7.464,2.1371,-1.5339,-3.1802,-9.18,37.8,-20.94
12.599,-14.315,6.4016,1.8757,-1.7935,-3.1643,-13.44,35.7,-22.26
10.76,-13.348,5.6661,1.5858,-1.8708,-2.9752,-15.72,34.62,-23.52
6.674,-10.61,4.4675,1.2947,-1.8213,-2.715,-19.98,32.7,-26.64
3.7456,-8.9622,3.4187,0.95264,-1.4777,-2.3613,-21.72,31.68,-27.96
2.438,-7.7364,2.9965,0.85827,-1.2868,-2.2501,-23.4,30.6,-29.1
0.39499,-6.8647,2.2474,0.63835,-0.5959,-1.7434,-25.02,29.4,-30.3
-3.6094,-5.2983,1.1577,0.54611,-0.15516,-1.2593,-28.02,27.48,-31.86
-4.8761,-4.8625,0.64016,0.55864,0.19517,-0.80848,-29.4,26.4,-32.46
-5.1894,-4.9306,0.17706,0.61453,0.25901,-0.46456,-30.48,25.32,-33.12
-4.5901,-6.3198,-0.72188,0.55833,-0.55864,-0.30971,-32.28,23.34,-34.26
-5.1349,-6.5514,-0.76274,0.36316,-1.1472,-0.14111,-32.82,22.5,-34.8
-5.2575,-6.5378,-0.77636,0.23274,-1.2804,-0.022297,-33.12,21.84,-35.1
-3.6775,-8.036,0.5993,-0.17104,-1.0675,0.38332,-32.7,20.88,-34.62
-2.2746,-12.49,3.0101,-0.60476,-0.33842,0.97311,-32.46,20.52,-34.08
-0.10896,-16.739,6.0202,-1.4618,0.69791,1.8103,-32.28,20.1,-33.18
7.927,-18.864,7.0553,-2.0757,1.4569,2.3772,-32.34,19.38,-31.5
11.032,-17.162,6.0883,-2.27,2.1747,3.1047,-32.46,19.2,-31.02
12.204,-16.767,5.2711,-1.8271,2.8466,3.8103,-32.52,19.14,-30.9
16.154,-17.38,5.9249,-1.8925,2.2364,3.6771,-32.88,19.38,-30.9
18.374,-16.671,6.6604,-2.0598,0.96914,3.6725,-33.18,19.62,-30.72
18.21,-14.179,6.2654,-2.0831,-0.20342,3.616,-33.12,20.16,-30.24
11.645,-8.5672,5.1894,-1.8384,-0.29413,3.3176,-32.52,21.9,-28.92
8.7034,-6.5378,4.3449,-1.3644,1.6863,2.503,-31.86,22.92,-28.08
8.7851,-4.9578,3.8001,-1.3295,2.5064,2.27,-30.72,24.0,-27.42
11.577,-2.3427,2.0294,-1.4203,3.4722,2.1447,-28.26,26.64,-26.22
12.286,-0.47671,1.1169,-1.376,2.8442,2.1218,-26.64,28.08,-25.44
12.408,2.4517,-0.01362,-1.1545,1.9117,1.8201,-25.2,29.58,-24.78
11.509,4.1814,-0.068102,-0.6411,0.7025,0.98013,-21.48,32.4,-23.04
10.637,4.4539,0.38137,-0.4554,0.43341,0.64538,-19.74,33.72,-21.9
10.079,4.2495,0.32689,-0.069028,0.13317,0.16402,-18.12,35.1,-20.64
10.665,3.0782,0.31327,0.22907,-0.10079,-0.19456,-14.34,37.26,-18.3
10.774,2.5061,1.7025,0.48655,-0.48319,-0.62094,-12.66,38.22,-17.58
10.515,1.0488,3.514,0.75656,-0.7083,-0.96944,-10.98,39.0,-17.1
17.448,-9.5479,6.6467,0.70463,-0.79504,-1.7471,-8.52,39.96,-17.1
19.409,-18.823,10.106,0.66279,-1.3014,-1.883,-7.68,40.08,-17.22
18.428,-17.543,11.046,0.8265,-1.4322,-1.5345,-7.38,40.38,-17.22
16.44,-13.866,10.937,1.639,-0.73243,-2.2303,-7.2,40.32,-17.22
18.265,-17.339,10.379,2.463,-0.97708,-2.7706,-7.86,39.66,-17.46
18.319,-18.387,10.27,2.8628,-1.9532,-2.9413,-8.46,39.06,-17.64
14.056,-18.483,10.052,2.8613,-3.0082,-2.916,-11.46,37.26,-18.54
8.1995,-14.533,8.1586,2.8109,-2.7125,-2.8427,-13.32,36.24,-19.86
4.1542,-11.809,5.993,2.8011,-2.098,-2.6872,-15.12,34.98,-21.42
2.6968,-10.569,5.2575,2.7443,-1.544,-2.4713,-16.8,33.78,-23.58
0.01362,-8.826,3.6775,2.5684,-1.0788,-2.1695,-18.12,32.52,-26.04
-2.547,-6.9872,1.3076,2.3802,-0.8937,-1.7416,-19.8,29.94,-30.42
-3.4187,-6.1973,0.21793,1.9001,-0.85094,-1.0235,-20.46,28.56,-32.34
-4.3449,-5.6388,-0.65378,1.7474,-0.94531,-0.75778,-21.0,27.3,-34.08
-5.4754,-5.1213,-1.5663,1.4258,-1.219,-0.27153,-21.72,24.78,-37.08
-6.7557,-4.6718,-1.3484,1.0693,-1.3732,0.064752,-21.9,23.58,-38.4
-7.5321,-4.4539,-1.2122,0.55283,-1.0977,0.4441,-21.96,22.38,-39.66
-7.7091,-4.7807,-1.2122,0.22235,-0.62369,0.73823,-21.66,20.22,-42.3
-6.7012,-5.3119,-1.5391,-0.12095,-0.10629,1.1558,-20.82,19.26,-43.44
-4.7807,-6.674,-1.0624,-0.5171,0.17013,1.3408,-19.8,18.48,-44.64
-1.1986,-16.167,3.0101,-1.0446,0.61087,1.9377,-17.82,16.8,-46.14
2.5198,-19.123,5.9657,-2.6371,1.2312,3.2144,-17.46,16.26,-46.26
6.2926,-19.477,8.54,-3.2849,1.7181,3.5458,-18.0,15.78,-46.08
13.729,-19.532,9.793,-3.277,2.8433,3.9685,-20.94,15.42,-44.64
16.045,-19.532,8.9349,-2.5275,3.4328,3.3885,-22.44,15.78,-43.32
17.162,-18.047,7.8998,-2.3549,3.2736,3.1423,-24.3,16.98,-40.62
16.78,-14.724,7.0962,-1.9765,1.8048,2.9847,-24.72,17.88,-39.12
15.268,-12.381,5.884,-1.5748,0.95417,2.7736,-24.9,18.9,-37.92
10.134,-6.7285,5.0668,-1.2196,0.84849,2.401,-24.66,21.54,-35.46
8.5127,-5.1076,4.5764,-1.0259,1.3219,2.1576,-24.48,23.04,-34.26
7.8181,-2.1929,2.8603,-0.88331,1.8967,2.062,-24.12,24.78,-32.7
9.7794,-0.39499,1.866,-0.68967,2.0681,1.9151,-22.98,28.26,-29.28
11.577,1.7979,0.81722,-0.48136,1.6796,1.6261,-22.08,30.06,-27.24
12.0,2.3836,0.47671,-0.27886,0.97464,1.1225,-20.64,31.8,-25.2
11.046,2.2882,-0.01362,-0.013744,-0.08827,0.25626,-16.2,35.16,-21.78
10.065,2.261,-0.19068,0.11057,-0.49205,-0.12492,-13.68,36.48,-20.76
9.1665,2.7377,-0.25879,0.21533,-0.52382,-0.40195,-11.28,37.44,-20.28
9.8884,1.9341,0.65378,0.45754,-0.37629,-1.0162,-7.98,38.88,-20.04
10.706,0.28603,1.7298,0.63438,-0.42883,-1.5153,-6.78,39.24,-20.22
11.931,-1.5936,2.1656,0.67501,-0.53878,-1.7077,-6.0,39.54,-20.4
17.924,-9.1937,3.7592,0.55925,-1.7443,-2.4511,-5.58,39.6,-20.4
18.633,-19.028,9.8611,0.67226,-2.9957,-2.3344,-5.58,39.06,-20.7
14.86,-15.691,10.964,0.83169,-2.2425,-2.2895,-6.18,38.7,-20.94
14.056,-17.107,8.2948,1.2657,-0.54428,-3.186,-6.78,38.28,-20.94
16.767,-18.387,7.9543,1.945,-0.067501,-3.8714,-9.06,36.66,-21.24
14.873,-17.884,9.221,1.8442,-0.95753,-3.7675,-10.62,35.58,-21.66
10.924,-16.304,9.9565,1.7477,-1.1875,-3.6346,-12.6,34.26,-22.26
7.9951,-14.288,8.826,1.9621,-0.53787,-3.149,-14.52,32.82,-23.28
5.6661,-10.243,5.1894,2.4065,-0.13317,-2.8408,-18.18,29.94,-26.7
5.0531,-8.8124,3.8273,2.6967,-0.45937,-2.4047,-19.56,28.38,-28.68
2.4789,-6.6331,1.975,2.6738,-0.71685,-2.1939,-21.36,25.44,-32.28
0.01362,-5.775,1.6072,2.3359,-1.5375,-1.4496,-22.02,24.0,-33.6
-2.6968,-4.9714,0.78998,2.2034,-1.759,-1.1802,-22.74,22.56,-34.74
-4.6718,-4.3449,0.12258,1.872,-1.9768,-0.45173,-23.28,21.24,-35.64
-6.2517,-4.5356,-0.34051,1.7254,-1.7669,-0.080023,-24.06,18.6,-37.26
-6.7285,-5.0668,-0.47671,1.1481,-1.2428,0.3543,-24.36,17.34,-38.04
-6.5786,-4.4947,-0.19068,0.92149,-1.0547,0.41661,-24.54,15.36,-39.18
-5.8295,-4.4402,-0.19068,0.46884,-0.39706,0.5849,-24.42,14.7,-39.54
-4.1814,-5.5435,-0.85808,0.28772,-0.13622,0.80237,-23.7,14.16,-39.72
-0.53119,-10.569,0.51757,-0.12309,-0.085521,1.0635,-22.26,13.62,-38.82
1.1169,-16.549,3.1599,-1.1115,0.13317,1.7923,-21.9,13.38,-38.1
4.0316,-19.355,8.2539,-2.7272,0.54703,3.0421,-21.78,13.32,-37.02
9.5479,-19.532,8.6353,-2.8689,1.5449,3.7021,-22.38,13.44,-37.2
15.159,-19.532,7.927,-2.3045,2.5855,3.817,-23.52,13.74,-37.68
16.916,-19.532,7.7364,-1.9261,2.6145,3.1414,-24.96,14.1,-38.28
17.87,-16.508,7.7364,-1.9251,1.8729,2.627,-27.66,15.18,-38.52
16.086,-13.225,6.6195,-1.9254,1.0226,2.5146,-28.56,15.84,-38.22
13.021,-10.215,5.4481,-1.7969,0.65149,2.376,-29.22,16.56,-37.8
8.7851,-5.9657,3.9499,-1.8323,1.3604,2.0681,-29.22,18.54,-36.66
8.2812,-3.9635,3.2144,-2.2434,4.0781,1.7016,-28.74,19.74,-36.12
8.9894,-2.8603,3.228,-2.0015,4.5335,1.7459,-28.2,21.12,-35.58
11.305,0.5993,2.9965,-1.6548,3.6273,1.4175,-26.82,24.24,-34.32
11.673,1.9886,1.9205,-1.2966,2.2248,1.0754,-26.1,25.62,-33.3
9.9429,3.0373,0.7355,-0.91233,0.9725,0.77122,-25.2,27.06,-32.16
8.145,3.623,0.38137,-0.38515,-0.20831,0.46853,-22.92,29.94,-28.98
7.7636,3.3642,0.49033,-0.23366,-0.37813,0.42394,-21.0,31.14,-27.12
8.0088,3.228,0.43585,0.092546,-0.41875,0.25137,-18.78,32.4,-25.44
9.7794,2.4789,0.77636,0.47037,-0.44807,-0.39401,-14.34,34.56,-23.4
10.025,1.3212,1.7979,0.5962,-0.64355,-0.80176,-12.48,35.58,-23.04
11.237,-1.7706,2.8739,0.42425,-0.66126,-1.1087,-10.74,36.48,-22.92
18.919,-13.825,8.5808,0.089186,-0.76083,-1.4908,-8.94,37.74,-23.16
19.45,-16.222,10.883,0.55008,-1.0281,-1.4114,-8.52,38.04,-23.22
19.409,-13.253,11.346,1.1842,-0.4777,-2.0608,-8.46,38.04,-23.28
19.314,-15.282,10.093,1.836,-0.19273,-3.0754,-9.18,37.5,-23.22
19.504,-16.222,9.0575,2.3045,-0.62705,-3.412,-10.02,37.02,-23.46
18.673,-16.535,8.0905,2.43,-1.5217,-3.5384,-11.16,36.24,-23.7
12.653,-15.296,6.7012,2.1539,-2.4456,-3.503,-14.4,34.02,-24.96
10.433,-14.233,5.884,1.952,-2.4202,-3.2614,-16.32,32.94,-26.34
6.565,-11.863,4.1678,1.8805,-2.2633,-3.1356,-18.06,31.8,-28.32
1.6344,-9.3436,2.942,1.6692,-1.4618,-2.6921,-20.4,29.4,-31.8
-0.64016,-8.1313,2.8603,1.3772,-0.74953,-2.2813,-21.3,28.26,-33.18
-2.2474,-6.9872,2.5742,1.1704,-0.1857,-1.7776,-22.2,27.06,-34.32
-3.051,-5.0531,1.3076,1.0626,-0.019548,-0.99999,-23.64,24.48,-36.18
-3.0918,-4.4811,0.6674,1.0794,-0.36591,-0.56169,-24.36,23.1,-37.02
-3.4868,-4.0861,0.21793,1.0379,-0.80604,-0.16127,-24.84,22.02,-37.68
-3.9908,-3.732,0.21793,0.9279,-1.1075,0.19945,-25.32,20.82,-38.46
-4.9987,-3.7047,0.095342,0.73609,-1.193,0.48961,-25.5,19.08,-39.84
-4.8897,-3.7728,-0.19068,0.50946,-1.0886,0.69058,-25.44,18.48,-40.38
-4.1542,-4.0589,-0.35413,0.16096,-0.69333,0.8998,-24.9,17.88,-40.62
-3.3778,-5.4073,-0.17706,-0.1292,-0.39737,1.2428,-24.18,17.4,-40.56
0.054481,-14.478,3.0237,-0.35003,-0.13958,1.4957,-23.34,16.86,-40.08
3.6775,-18.769,4.8216,-1.7168,0.90225,2.5711,-22.2,16.32,-38.64
8.8941,-19.45,6.0474,-2.2349,1.2266,3.0287,-22.14,16.14,-38.4
15.84,-19.504,6.2245,-2.3311,1.9642,3.6615,-22.98,16.14,-39.18
16.576,-19.532,6.5922,-2.1753,2.2608,3.4758,-23.7,16.26,-39.6
17.148,-19.504,7.3141,-2.1371,2.2657,3.1194,-24.66,16.62,-39.66
17.148,-19.504,7.3141,-2.1457,2.259,2.8585,-24.66,16.62,-39.66
15.418,-13.089,5.3664,-1.8085,1.4303,2.0476,-26.04,17.1,-38.88
11.482,-8.4446,4.4811,-1.6286,1.5626,1.7196,-25.98,18.24,-37.26
9.6432,-6.2654,4.413,-1.7171,2.1429,1.6451,-25.62,18.96,-36.42
8.7579,-1.7979,3.9635,-1.8824,2.9526,1.8344,-24.06,20.94,-34.74
9.3163,-0.12258,3.7047,-1.737,3.4138,1.9621,-23.22,22.08,-33.9
11.441,4.3313,2.0431,-1.3686,3.1117,1.7178,-21.3,24.36,-31.98
11.931,5.5026,1.0624,-0.92057,2.0302,1.244,-20.22,25.44,-30.66
11.673,5.6116,0.72188,-0.33598,0.18876,0.49938,-18.96,26.46,-29.22
10.243,4.3585,0.31327,-0.027794,-0.50977,0.29016,-15.78,28.08,-25.8
10.065,4.5356,0.12258,0.28802,-0.70952,0.035736,-13.92,28.86,-24.24
10.474,4.1814,0.77636,0.56322,-0.64049,-0.43219,-9.54,30.36,-22.38
10.637,2.3291,2.1248,0.77336,-0.46609,-0.98135,-8.22,31.02,-22.26
12.354,-0.6674,3.1327,0.92485,-0.32956,-1.4334,-7.14,31.56,-22.08
16.535,-5.2302,4.7944,0.71105,-0.74403,-1.8805,-6.36,31.8,-22.02
19.45,-14.261,9.4661,0.832,-1.5314,-2.0079,-5.76,31.92,-22.02
19.123,-14.274,11.291,1.2504,-1.4737,-2.1191,-6.06,31.56,-22.08
19.15,-15.119,10.093,1.6719,-0.74953,-2.835,-7.38,30.54,-21.78
19.477,-15.99,9.7794,2.1133,-0.80604,-3.2932,-8.7,29.82,-21.72
17.87,-14.942,9.5615,2.1011,-1.4603,-3.2968,-10.2,28.74,-22.2
16.413,-14.901,9.2891,2.0351,-1.7871,-3.3527,-11.94,27.9,-22.92
10.61,-13.77,8.4582,1.9902,-1.8051,-3.1398,-15.3,26.34,-25.44
7.1507,-12.013,7.6683,1.9542,-1.5012,-2.8616,-16.56,25.38,-26.88
1.9477,-9.902,4.5083,2.0455,-0.80237,-2.2663,-18.48,23.64,-29.34
-1.2531,-8.8941,2.6015,2.0369,-0.58887,-1.7196,-19.26,22.8,-30.18
-3.1191,-7.8317,1.185,1.9209,-0.71777,-1.138,-20.04,21.9,-31.02
-4.8488,-6.5378,0.027241,1.7929,-0.80604,-0.84177,-20.76,20.94,-31.92
-6.9328,-4.1542,-1.2803,1.3454,-1.0507,-0.1011,-22.14,19.2,-33.3
-7.6683,-2.8875,-1.7162,1.0293,-1.0754,0.20861,-22.44,18.54,-33.84
-7.2733,-2.3563,-1.4438,0.7535,-1.0333,0.55894,-22.68,17.94,-34.5
-5.8023,-3.0646,-0.57205,0.3488,-1.1496,1.193,-22.38,16.98,-35.76
-4.3585,-3.732,-0.64016,0.20525,-1.1918,1.3439,-21.84,16.86,-36.12
-3.5277,-4.0316,-0.58567,-0.15302,-0.85674,1.7065,-20.88,16.86,-36.06
1.58,-8.9894,0.5993,-0.25381,-0.30329,1.7813,-19.32,16.74,-35.4
4.7399,-15.895,2.547,-0.74006,0.36499,1.9505,-19.02,16.92,-35.28
9.0031,-19.082,4.4675,-1.613,0.87965,2.3072,-18.96,16.98,-35.34
14.833,-19.532,6.0747,-2.2904,1.992,2.978,-19.5,17.64,-36.84
15.949,-19.068,5.7342,-2.3479,2.4435,3.0785,-20.22,18.18,-37.86
17.516,-18.496,5.5299,-2.3314,2.8246,2.5204,-21.24,18.84,-38.64
18.96,-16.521,5.5162,-2.3094,1.7767,1.974,-23.58,19.8,-39.12
16.44,-13.77,5.2847,-2.0763,0.98685,1.9865,-24.48,20.16,-38.82
11.032,-8.5263,5.0531,-1.8134,1.0241,1.8243,-25.44,20.7,-37.44
9.9973,-6.4424,4.7944,-1.7129,2.0406,1.5253,-25.5,21.36,-36.42
9.0848,-3.7592,4.2359,-1.6878,2.5879,1.4988,-25.26,22.08,-35.34
8.9894,-2.2337,3.8273,-1.5653,2.6545,1.5516,-25.08,22.62,-34.26
9.9565,2.8603,1.5527,-0.92363,1.6936,1.6066,-24.3,24.18,-31.56
10.025,4.5083,0.47671,-0.57879,0.70921,1.3143,-23.76,24.84,-30.06
9.3163,5.0531,-0.85808,-0.37568,-0.0067195,0.8378,-23.16,25.68,-28.2
7.3005,4.8216,-1.3348,-0.26634,-0.31887,0.28986,-21.3,26.88,-24.0
7.0826,4.5356,-1.5119,-0.26267,-0.13561,0.025351,-19.8,27.24,-21.72
7.3958,4.2768,-1.076,-0.25076,-0.0015272,-0.11973,-17.94,27.66,-19.8
8.8124,3.8546,0.98067,-0.046731,0.15638,-0.73365,-14.22,28.8,-17.46
9.6023,2.8875,2.7649,0.25779,0.13408,-1.1579,-12.54,29.52,-16.86
12.449,-2.3155,4.9169,0.52534,0.051313,-1.3986,-11.22,30.12,-16.56
18.973,-8.0088,7.8181,0.66523,-0.5339,-1.6023,-9.84,30.96,-16.5
19.504,-15.514,11.645,0.90011,-1.0498,-1.7034,-9.72,30.96,-16.62
19.532,-15.255,11.904,1.5834,-0.79565,-1.7617,-9.96,30.84,-16.62
19.532,-14.506,9.8339,2.2987,-0.81367,-2.4969,-11.1,29.76,-16.62
19.532,-15.309,9.221,2.7345,-1.3818,-2.7553,-12.24,29.1,-16.74
17.87,-15.677,8.5672,2.762,-2.0974,-2.799,-13.68,28.02,-17.22
11.169,-14.41,8.0496,2.51,-2.2724,-2.6496,-17.4,25.8,-19.62
7.8045,-12.354,6.9872,2.284,-1.824,-2.5253,-18.96,24.78,-21.84
5.1621,-10.46,5.775,2.251,-1.1267,-2.3286,-20.1,23.82,-24.24
2.3427,-8.2676,3.7047,2.1915,-0.17287,-1.8903,-20.82,22.2,-28.74
0.99429,-7.1915,2.1929,2.1148,-0.1909,-1.4575,-20.76,21.54,-30.6
-0.9398,-5.8704,2.1929,1.9416,-0.57605,-0.94134,-20.82,20.76,-31.98
-3.3778,-4.7126,-0.99429,1.452,-1.2834,-0.15577,-20.76,19.2,-34.5
-4.413,-4.4811,-1.1169,1.1118,-1.4658,0.17318,-20.76,18.48,-35.34
-6.456,-4.0316,-1.7706,0.75686,-1.4337,0.42699,-20.64,17.88,-36.48
-7.3414,-3.9227,-1.7025,0.40623,-1.1258,0.53329,-19.86,16.92,-38.16
-6.851,-4.8897,-1.7025,0.10293,-0.68631,0.62369,-19.08,16.74,-38.94
-6.0883,-5.6116,-1.6344,-0.31337,-0.24435,0.80726,-17.88,16.92,-39.48
-3.4187,-6.2926,-0.88532,-0.90591,0.34636,1.1148,-14.28,17.4,-39.72
-0.96704,-8.6081,0.83084,-1.2483,0.74312,1.4884,-12.66,17.64,-39.3
2.6287,-14.492,2.5198,-1.9972,1.1396,2.0989,-11.7,17.88,-39.3
11.836,-19.382,9.3163,-3.0528,1.3024,2.664,-12.42,17.76,-40.14
17.475,-19.504,11.223,-3.2822,1.9196,3.0888,-14.16,17.64,-40.68
19.409,-17.734,10.351,-2.3573,3.0418,3.3509,-16.2,17.7,-41.22
19.532,-16.372,8.5944,-1.5247,2.1631,1.7929,-20.28,17.7,-40.86
18.033,-13.266,6.4016,-1.3555,0.84513,1.8818,-21.84,17.82,-40.2
15.813,-11.182,5.4754,-1.3445,0.31673,1.9728,-22.86,17.94,-39.12
11.046,-7.246,4.5083,-1.3561,0.020464,1.9728,-23.7,18.36,-38.16
8.6625,-5.0259,3.3234,-1.7807,1.9108,1.4276,-24.24,19.02,-37.2
8.3493,-1.2803,2.1929,-2.0253,3.4212,1.1802,-24.72,20.16,-34.98
9.2482,0.44947,2.4653,-1.9529,3.6817,1.1451,-25.08,20.94,-33.84
10.746,4.127,1.2258,-1.5299,2.8799,1.1496,-25.98,22.38,-30.6
11.25,5.5707,0.50395,-0.72082,0.74037,1.0088,-26.1,23.1,-28.14
11.237,5.8976,0.21793,-0.41814,0.0036652,0.84025,-25.8,23.88,-25.62
9.1256,3.6639,-0.21793,0.26542,-1.3717,0.29932,-23.64,25.68,-20.46
8.3765,3.3778,-0.31327,0.45051,-1.4193,0.078191,-21.72,26.7,-18.48
8.2812,3.514,-0.12258,0.51526,-1.1179,-0.22052,-19.74,27.54,-17.16
8.6762,2.6968,2.2882,0.64966,-0.82986,-0.66371,-16.32,29.22,-16.14
9.8339,1.1986,3.5413,1.0263,-0.58124,-1.1796,-15.3,30.0,-16.08
13.579,-2.0567,4.6445,1.2117,-0.90408,-1.2944,-14.58,30.54,-16.2
19.246,-13.13,8.6353,1.1661,-1.7553,-1.4532,-14.4,30.9,-16.32
19.504,-16.426,11.618,0.98197,-2.2688,-1.3937,-14.7,30.78,-16.26
17.257,-12.449,11.468,1.2413,-1.3714,-1.6741,-15.24,30.54,-16.02
18.837,-15.445,10.311,1.7926,-0.3036,-2.6081,-17.22,29.28,-16.02
18.932,-16.086,9.2755,2.208,-0.66462,-2.7648,-18.66,28.56,-16.38
16.794,-15.677,9.1529,2.2013,-1.1191,-2.7901,-20.1,27.54,-17.22
9.112,-12.34,7.6819,2.1218,-1.6228,-2.4984,-22.68,25.56,-20.1
6.5241,-10.093,6.6331,2.2385,-1.4743,-2.1243,-23.64,24.54,-21.78
4.699,-8.5536,6.1836,2.3213,-1.285,-1.8112,-24.3,23.58,-23.58
1.7298,-7.5184,4.6582,2.3237,-1.0825,-1.3754,-24.9,21.6,-26.22
0.17706,-7.2733,3.4596,2.2529,-1.0421,-1.0898,-25.02,20.64,-27.36
-1.4029,-6.7421,1.5119,2.087,-1.0644,-0.79046,-24.96,19.62,-28.32
-3.7592,-5.1213,-1.6344,1.8008,-1.2874,-0.43188,-24.78,17.4,-29.88
-4.9987,-4.4811,-2.0022,1.3567,-1.5922,-0.12217,-24.54,16.38,-30.48
-6.96,-4.1133,-2.0703,0.88117,-1.7019,0.16646,-24.12,15.48,-31.08
-7.8862,-4.018,-2.3291,0.39187,-1.4615,0.59498,-22.74,14.04,-31.8
-7.4776,-4.0316,-2.547,-0.17623,-0.63286,0.72662,-21.54,13.56,-31.74
-5.5571,-4.1814,-2.3563,-0.48136,-0.18173,0.967,-20.28,13.2,-31.38
-2.3972,-6.9872,0.10896,-0.76847,0.17135,1.2691,-17.76,12.48,-29.76
0.46309,-11.264,1.7434,-1.2123,0.624,1.6878,-16.8,12.12,-29.16
5.38,-17.284,4.2495,-1.8482,0.91111,2.1454,-16.08,11.94,-28.74
18.183,-19.463,9.5479,-2.4963,1.0702,2.6243,-16.2,11.76,-29.58
19.177,-19.532,9.8339,-2.5116,1.9673,2.8231,-16.8,11.7,-30.48
18.279,-18.755,9.0303,-2.2709,2.7614,1.9707,-18.06,11.64,-31.26
17.257,-15.691,6.4833,-2.1093,3.1661,1.5873,-20.88,11.58,-32.46
16.767,-13.171,5.1621,-2.109,2.3396,1.6231,-22.26,11.28,-32.82
13.552,-9.2755,4.0044,-2.1423,1.3763,1.7071,-23.4,11.16,-32.58
9.4117,-5.2575,3.8409,-2.1622,1.434,1.751,-24.42,11.4,-31.56
8.4446,-2.7104,3.5413,-2.3735,2.565,1.7239,-24.66,11.58,-30.9
8.5536,-1.5391,3.4187,-2.4288,3.1805,1.7568,-24.66,12.0,-30.18
10.42,2.1793,3.1599,-2.0583,3.8619,1.7248,-24.54,13.14,-28.86
11.959,3.5413,2.7377,-1.5058,3.1918,1.3002,-24.36,13.8,-27.78
12.953,4.4675,1.9205,-0.98197,1.9945,0.82314,-24.06,14.34,-26.28
11.128,5.2166,0.21793,-0.45448,0.56322,0.25168,-22.5,15.6,-23.04
10.093,5.2711,-0.40861,0.19914,-0.94867,0.040928,-21.12,16.2,-21.12
9.0712,5.2575,-0.8036,0.49297,-1.4441,-0.20617,-19.32,16.74,-19.56
8.4719,4.2087,-0.24517,0.70158,-1.5711,-0.55467,-15.06,18.24,-17.34
8.3629,3.2008,1.471,0.86804,-1.3778,-0.90408,-13.02,19.14,-16.8
9.5751,0.99429,2.9965,1.0198,-0.86132,-1.2092,-11.28,19.74,-16.74
17.298,-6.1836,5.2302,0.87537,-0.3937,-1.6133,-9.12,20.52,-17.64
18.973,-10.542,7.1234,0.7813,-0.97219,-1.678,-8.46,20.58,-18.12
19.504,-16.413,10.637,0.83353,-1.0791,-1.5937,-8.22,20.58,-18.6
19.532,-13.457,11.182,1.4499,-0.52718,-2.259,-8.7,19.62,-19.32
19.532,-15.391,10.079,1.9673,-0.76328,-3.1004,-9.24,18.78,-19.8
19.436,-16.903,9.2618,2.2165,-1.5036,-3.2193,-10.26,17.82,-20.64
11.155,-15.514,8.1586,2.1851,-1.9511,-3.0809,-12.72,15.78,-23.04
8.9622,-13.443,7.1779,2.1777,-1.4251,-2.6383,-13.92,14.7,-24.84
4.2632,-9.507,4.7671,2.2022,-1.0171,-2.3476,-15.06,12.54,-28.74
2.3427,-7.8317,3.8409,2.1069,-0.72418,-1.9627,-15.48,11.52,-30.36
0.38137,-6.4152,3.0373,1.9395,-0.55131,-1.5296,-15.6,10.5,-31.74
-0.83084,-5.4754,2.2474,1.7419,-0.42486,-1.0394,-15.6,9.54,-33.12
-3.9908,-3.4323,-0.53119,1.5336,-0.38485,-0.51557,-15.42,8.1,-35.1
-4.5492,-3.1872,-1.6072,1.248,-0.51099,-0.030543,-15.3,7.5,-36.0
-4.8352,-4.2223,-2.9284,0.82314,-0.64385,0.36285,-14.64,6.3,-37.62
-5.489,-4.3721,-2.9692,0.4105,-0.93798,0.91874,-13.98,5.94,-38.22
-5.9657,-4.2904,-2.7377,-0.000916,-0.94562,1.4468,-13.2,5.88,-38.7
-6.1019,-4.2495,-2.3836,-0.19639,-0.64782,1.6145,-12.3,6.0,-38.88
-6.1019,-4.2495,-2.3836,-0.4444,-0.46059,1.7758,-12.3,6.0,-38.88
1.2531,-10.065,0.10896,-1.1451,-0.5397,1.8918,-10.92,6.12,-39.12
4.699,-16.004,2.5742,-1.8311,-0.39584,2.0885,-9.6,6.36,-39.6
11.972,-19.423,7.2596,-2.3527,0.46853,2.5727,-8.82,6.84,-40.08
17.597,-19.532,9.9565,-2.4144,2.0272,3.0956,-10.14,7.08,-40.86
19.409,-18.415,8.7443,-2.0727,3.2281,2.8714,-13.08,7.5,-42.12
19.532,-15.187,6.4969,-1.6047,3.069,2.0012,-16.68,7.56,-43.08
17.162,-11.509,4.5083,-1.3705,1.7171,1.5372,-20.16,7.44,-42.96
14.397,-9.8066,3.9499,-1.2892,0.50671,1.35,-21.6,7.32,-42.54
8.6489,-6.0883,3.3234,-1.3705,0.57269,1.4126,-24.06,7.14,-41.34
6.3062,-3.7728,3.2008,-1.5015,1.4838,1.3772,-25.68,7.32,-39.42
6.279,-1.9341,3.1191,-1.7138,2.5146,1.2767,-26.16,7.86,-35.52
7.2052,-0.17706,2.5061,-1.795,3.2635,1.2104,-25.26,8.82,-31.44
8.0905,0.78998,2.1656,-1.4606,3.076,1.2679,-24.24,9.48,-29.64
9.3708,3.0918,0.91256,-0.72418,1.6533,1.0773,-21.06,10.98,-26.1
9.8066,3.4459,0.32689,-0.23396,0.45815,0.78343,-19.08,11.82,-24.72
9.398,3.4051,0.01362,-0.048258,0.45815,0.61606,-17.16,12.72,-23.58
8.2539,3.514,-0.36775,0.31368,-0.59468,0.29596,-15.18,13.62,-22.74
7.9951,3.2553,-1.5527,0.39615,-0.35766,0.036652,-11.82,15.78,-22.02
9.221,2.3836,-0.95342,0.51618,-0.46731,-0.54184,-10.44,16.74,-21.84
11.768,-1.4301,1.866,0.50396,-0.45876,-0.99418,-8.28,18.18,-22.38
15.5,-4.9578,3.7047,0.32803,-0.27153,-1.3778,-7.62,18.66,-22.56
18.101,-7.8998,5.3528,0.31551,-0.32223,-1.431,-7.2,18.96,-22.74
19.055,-12.708,10.202,0.77733,-1.0446,-1.2596,-6.66,19.26,-23.04
18.292,-12.476,10.42,1.2462,-0.63194,-1.5482,-6.66,19.26,-22.92
18.483,-13.266,9.6977,1.7904,-0.4441,-2.1038,-6.96,19.02,-22.56
17.979,-13.484,7.8045,2.2599,-1.3815,-2.3451,-8.4,18.18,-22.38
15.745,-13.348,7.1915,2.1903,-2.2046,-2.4819,-9.66,17.64,-22.68
13.089,-13.184,6.9328,2.0653,-2.4413,-2.5009,-11.28,17.04,-23.58
8.1313,-11.373,6.4424,1.6115,-2.27,-2.2489,-13.86,15.78,-26.76
5.4481,-9.8611,5.38,1.4294,-1.5632,-2.084,-14.88,15.3,-28.68
2.3836,-8.1313,3.5685,1.3189,-0.27489,-1.7691,-15.9,14.64,-32.4
-0.29965,-5.993,1.757,1.2978,0.11606,-1.4587,-16.32,14.4,-33.9
-0.92618,-4.808,0.62654,1.2257,-0.070555,-1.0635,-16.44,14.16,-35.28
-1.4029,-4.3177,-0.027241,1.1765,-0.32681,-0.86773,-16.5,14.04,-36.42
-3.7047,-3.8001,-0.83084,0.90805,-1.2147,-0.26939,-16.74,13.5,-38.82
-5.3392,-3.4732,-0.9398,0.67928,-1.4691,0.15088,-16.68,13.44,-40.02
-6.5786,-3.3778,-0.89894,0.42974,-1.3305,0.52443,-16.38,13.38,-41.22
-6.4288,-4.9306,-1.0624,0.16402,-0.90927,0.78313,-15.42,13.62,-43.38
-5.0123,-6.1155,-1.1305,-0.087659,-0.42913,0.92638,-14.34,13.92,-44.16
-3.6503,-7.2188,-0.54481,-0.42638,-0.095295,1.1041,-13.08,14.22,-44.52
-2.3018,-9.6023,1.1577,-1.1836,0.52779,1.7755,-12.06,14.58,-44.46
4.018,-18.864,4.5356,-1.8198,0.98807,2.584,-11.34,14.76,-44.4
9.6977,-19.45,6.8374,-2.2394,1.1921,3.0024,-11.82,14.76,-44.34
16.957,-19.355,7.1234,-1.8937,1.9783,3.3857,-14.1,14.82,-43.98
18.101,-17.516,6.6604,-1.4343,1.9664,2.7746,-15.6,14.82,-43.44
17.775,-16.916,6.3198,-1.3451,1.7144,2.3986,-16.86,14.94,-42.72
15.05,-13.348,4.5628,-1.3225,0.68631,2.3063,-18.66,15.36,-40.92
12.258,-10.801,3.8546,-1.3189,0.42089,2.3619,-19.32,15.78,-39.78
10.597,-9.2074,3.6366,-1.3448,0.96517,2.241,-19.8,16.26,-38.64
8.4719,-5.094,3.1463,-1.3815,2.408,2.0262,-20.04,17.4,-36.24
9.2755,-4.3449,2.9284,-1.3265,2.8317,1.8509,-19.98,18.06,-35.04
10.692,-3.0646,2.3836,-1.0846,2.4752,1.7132,-19.8,18.84,-33.48
12.122,0.61292,0.99429,-0.66371,1.5525,1.5812,-18.9,20.46,-30.06
11.809,2.6151,0.24517,-0.17623,0.5849,1.2211,-18.06,21.36,-28.2
10.665,4.2495,-0.21793,0.18173,-0.20281,0.69669,-16.8,22.26,-26.16
9.6704,3.0646,-0.55843,0.36591,-0.91385,0.10018,-13.5,24.0,-22.92
9.5751,2.1248,-0.61292,0.32987,-0.99815,-0.045204,-11.7,24.78,-21.9
9.6023,2.0567,-0.76274,0.33262,-0.80756,-0.4554,-10.26,25.44,-21.36
9.9565,1.4029,0.61292,0.42089,-0.45265,-1.1164,-7.8,26.94,-20.64
9.9973,1.4029,1.6072,0.56291,-0.13928,-1.7031,-6.96,27.54,-20.58
12.04,-3.0237,2.3018,0.5681,-0.10629,-1.9743,-6.42,27.96,-20.64
19.028,-14.029,6.2381,0.37202,-0.61209,-2.0354,-6.12,28.56,-20.64
18.878,-15.282,7.7227,0.40836,-1.3314,-1.8601,-6.48,28.68,-20.4
17.175,-12.803,9.1256,0.83383,-0.72449,-2.3998,-6.96,28.8,-20.22
17.325,-15.173,8.9622,1.3668,-0.25717,-3.018,-8.88,28.74,-20.04
18.51,-16.29,8.2131,1.7327,-0.60995,-2.988,-10.38,28.44,-19.98
16.235,-16.195,7.8317,1.8008,-1.4765,-2.9761,-12.24,27.96,-20.16
10.624,-13.498,6.8374,1.7266,-1.7492,-2.9013,-16.32,27.0,-21.48
8.5808,-12.095,5.8567,1.6982,-1.0571,-2.7177,-18.24,26.4,-22.8
5.0395,-9.4253,4.699,1.7336,-0.77488,-2.572,-19.98,25.92,-24.12
1.7025,-7.0553,2.4789,1.7712,-0.25229,-2.1118,-22.86,24.9,-27.0
0.32689,-6.4424,1.3076,1.7049,-0.32742,-1.635,-23.94,24.36,-28.32
-1.1305,-5.3119,0.16344,1.4841,-0.65668,-1.1319,-24.9,23.94,-29.4
-4.1814,-4.304,-0.89894,1.2562,-1.0201,-0.61881,-26.52,22.74,-31.32
-4.7944,-4.6037,-0.95342,1.0553,-1.2343,0.033903,-27.18,22.2,-32.28
-5.4345,-5.1349,-1.1577,0.77397,-1.16,0.17959,-27.84,21.48,-33.18
-4.3177,-6.2654,-1.471,0.26359,-0.71105,0.45357,-28.38,20.58,-34.74
-3.2689,-6.5514,-1.7298,-0.010079,-0.56933,0.55986,-28.2,20.4,-35.4
-2.0294,-7.8317,-0.8717,-0.28069,-0.5061,0.65454,-26.88,20.16,-36.36
-1.3757,-10.433,0.74912,-0.67898,-0.29566,0.90683,-26.04,20.04,-36.36
-0.14982,-14.574,2.2474,-1.3262,0.18021,1.8323,-25.56,19.8,-36.12
5.8023,-17.965,6.9464,-1.9242,0.71532,2.0751,-25.14,19.26,-35.82
10.025,-18.51,8.54,-2.2962,1.7178,2.4288,-25.68,19.02,-35.7
13.048,-18.442,8.8805,-2.0998,2.4401,2.7413,-26.58,18.66,-35.88
19.041,-16.644,8.2539,-1.8729,2.1484,2.649,-29.46,18.3,-35.64
19.327,-15.01,7.3141,-1.737,1.3085,2.419,-30.84,18.3,-35.22
17.815,-12.735,5.1894,-1.5751,0.63866,2.2,-31.92,18.48,-34.44
11.863,-7.7227,4.4675,-1.4716,0.68661,1.8891,-32.94,19.26,-32.64
9.6023,-5.6252,3.8682,-1.554,2.0156,1.62,-33.18,19.74,-31.56
8.9622,-3.8273,2.7377,-1.6713,2.5785,1.5669,-33.24,20.4,-30.66
10.474,-1.3348,0.57205,-1.8448,3.1621,1.5235,-33.06,22.2,-28.56
10.474,-1.3348,0.57205,-1.6319,2.3815,1.5531,-33.06,22.2,-28.56
9.793,3.5958,0.77636,-1.0159,0.96517,1.3564,-31.98,24.54,-26.16
9.3844,4.1814,0.47671,-0.51374,0.51191,1.0043,-31.26,25.98,-24.9
9.1665,4.4675,-0.19068,-0.30391,0.32987,0.80207,-30.48,27.24,-23.4
9.4117,2.9148,-1.0215,0.21594,-0.1799,0.27733,-27.72,29.94,-20.46
9.112,3.0237,-1.0215,0.39951,-0.39156,0.087965,-25.92,31.14,-19.2
9.6704,2.9011,-0.83084,0.5733,-0.59987,-0.1799,-24.0,32.28,-18.3
10.529,1.2803,1.471,0.82284,-1.033,-0.71502,-20.58,34.32,-17.7
12.258,-1.5119,3.1463,0.94623,-1.2043,-0.94654,-19.38,34.98,-17.82
14.179,-3.8137,3.7728,1.0033,-1.2278,-1.0113,-18.48,35.58,-18.0
18.633,-10.815,6.1155,0.84208,-1.8433,-1.1387,-17.82,36.0,-18.48
18.714,-12.762,9.1256,0.90133,-2.1261,-1.1206,-17.52,35.82,-18.84
18.224,-11.591,9.0303,1.1723,-1.8644,-1.6701,-17.82,35.46,-18.84
19.314,-13.648,8.6081,1.4459,-1.7849,-2.3946,-18.48,34.74,-18.9
17.257,-16.031,8.5127,1.3476,-2.3424,-2.7907,-20.52,32.82,-19.02
13.702,-15.323,8.54,1.0788,-2.1099,-2.8332,-21.84,31.68,-19.38
11.359,-14.478,8.2812,0.98807,-1.7388,-2.814,-23.34,30.3,-19.98
5.7069,-10.338,6.0747,1.0574,-0.41233,-2.6508,-26.1,27.3,-21.78
3.7456,-8.7306,4.8625,1.2715,0.12401,-2.4688,-27.12,26.04,-22.92
2.152,-7.4503,3.5685,1.4334,0.092546,-2.135,-27.9,24.66,-23.94
-0.83084,-6.1292,1.6753,1.4413,-0.63225,-1.4826,-29.1,21.96,-26.1
-2.4244,-5.8023,0.92618,1.2941,-1.1252,-1.0055,-29.52,20.7,-27.06
-3.7456,-5.2983,0.50395,0.99296,-1.3683,-0.52382,-29.94,19.38,-27.66
-5.8976,-4.3994,0.054481,0.73212,-1.3619,-0.11393,-30.48,17.1,-29.04
-6.7693,-3.6639,-0.54481,0.5284,-1.08,0.17654,-30.54,16.08,-29.88
-6.8647,-3.2144,-0.65378,0.35675,-0.61056,0.39218,-30.12,14.7,-31.2
-4.4811,-5.8023,-0.78998,0.23671,-0.24801,0.64691,-29.52,14.16,-31.86
-3.3642,-8.3493,-0.78998,0.013439,-0.0012217,0.956,-28.92,13.8,-32.28
-2.6423,-10.937,0.61292,-0.38087,0.3149,1.4627,-28.02,13.5,-32.52
2.8194,-16.916,3.1599,-1.2517,0.73121,2.6337,-26.82,13.2,-32.46
7.1371,-18.864,5.2575,-1.5211,0.82467,3.0003,-26.58,13.08,-32.4
11.468,-19.45,6.1019,-1.595,1.2303,3.2865,-26.76,13.02,-32.46
15.922,-19.096,5.7069,-1.3042,1.6909,3.4178,-27.84,13.2,-31.92
16.481,-18.224,5.4754,-1.2181,1.5791,3.1127,-28.56,13.32,-31.26
16.195,-16.181,5.1485,-1.2355,1.3537,3.0274,-28.92,13.8,-30.6
14.969,-13.28,4.413,-1.2077,1.2391,2.8106,-28.92,14.34,-29.76
11.536,-7.8998,3.0918,-1.168,1.4364,2.5345,-28.14,15.9,-27.96
10.311,-5.8295,2.8467,-1.1609,1.8305,2.3048,-27.54,16.86,-27.18
9.7658,-2.9965,2.0703,-1.1445,2.1475,2.1692,-26.82,17.82,-26.4
10.161,-1.6344,1.2395,-1.0544,2.4572,1.8931,-25.2,19.86,-24.72
11.182,0.095342,0.95342,-0.83719,1.9013,1.6643,-24.18,21.12,-23.94
11.427,2.0022,0.16344,-0.69211,1.5467,1.4905,-22.98,22.32,-23.1
10.515,4.2495,-0.47671,-0.11057,0.34361,0.77519,-20.4,24.6,-21.0
9.2346,3.9227,-0.74912,0.27,-0.19426,0.22724,-18.9,25.5,-19.8
9.2482,2.6832,-1.2803,0.42608,-0.40928,-0.044288,-17.22,26.7,-18.9
9.616,2.0567,-0.64016,0.54917,-0.58704,-0.61117,-13.38,28.5,-17.76
9.3844,1.0896,0.57205,0.7083,-0.47831,-1.1264,-11.82,29.04,-17.58
9.6704,1.0896,1.4438,0.8827,-0.17776,-1.5828,-10.44,29.4,-17.58
16.835,-9.5751,3.514,1.073,-0.14813,-1.9624,-8.64,29.64,-18.0
19.191,-17.475,6.6059,0.57177,-0.81703,-2.0223,-8.22,29.58,-18.06
18.81,-14.315,9.3299,0.68478,-1.3173,-1.697,-7.92,29.34,-18.18
17.516,-15.868,8.6081,1.4841,-1.0351,-2.9505,-7.56,28.56,-18.3
17.638,-17.175,7.7364,1.9209,-0.99785,-3.4218,-7.68,27.9,-18.12
16.739,-18.265,7.0417,1.9059,-1.4029,-3.4917,-8.16,27.12,-18.12
11.468,-17.693,6.7012,1.5782,-1.7123,-3.3973,-10.2,25.44,-18.96
7.0009,-14.519,5.6933,1.2895,-1.4065,-3.1469,-11.34,24.54,-19.86
3.0918,-10.392,3.9908,1.2767,-0.74617,-2.7773,-12.6,23.52,-21.3
1.4438,-7.9407,2.9011,1.4197,0.062308,-2.2318,-14.46,21.78,-25.02
0.8036,-6.9328,1.8524,1.427,0.12492,-1.835,-14.82,21.12,-27.12
0.55843,-6.3471,1.0896,1.3433,-0.26267,-1.4126,-15.18,20.64,-29.34
-0.88532,-4.8216,-0.49033,1.1365,-0.86682,-1.0061,-15.48,19.56,-33.06
-1.8115,-4.5492,-0.8036,0.85949,-1.3402,-0.64782,-15.54,19.08,-34.92
-2.6832,-4.304,-0.89894,0.50274,-1.5751,-0.37813,-15.6,18.78,-36.54
-2.9284,-3.8001,-1.1577,0.024129,-1.5241,-0.25504,-15.96,18.24,-39.84
-2.6287,-3.5277,-1.2258,-0.19548,-1.1961,-0.30482,-16.08,18.0,-41.64
-2.1248,-3.732,-1.1713,-0.35369,-0.67317,-0.41692,-16.02,17.94,-43.08
-0.92618,-5.9249,-1.0215,-0.51526,-0.18021,-0.45876,-15.36,17.46,-45.18
0.54481,-9.6568,0.51757,-0.90988,0.25717,-0.27642,-14.88,17.28,-45.54
1.7298,-13.961,1.9068,-1.5879,0.66157,0.48228,-14.4,17.04,-45.42
7.0553,-18.537,5.2847,-2.0491,0.78832,1.3121,-14.7,16.38,-44.52
9.5342,-18.279,5.9793,-2.1838,1.1322,1.8005,-15.3,16.08,-43.74
10.992,-17.597,5.9385,-1.8689,2.1386,2.1838,-16.26,15.66,-43.08
14.819,-17.08,6.0611,-1.7654,2.084,2.0143,-18.72,15.12,-42.48
15.623,-15.732,5.3937,-1.8082,1.3094,2.098,-20.16,14.82,-42.0
14.969,-13.239,4.6718,-1.8176,0.53603,2.4163,-21.84,14.34,-41.46
10.719,-7.8045,4.304,-1.7623,0.69425,2.4691,-24.6,13.68,-39.36
9.6432,-5.598,4.3313,-1.7449,1.1503,2.459,-25.74,13.68,-37.62
9.6704,-3.8273,3.8546,-1.7853,2.179,2.3888,-26.4,13.86,-36.0
10.896,-2.152,2.9965,-1.7245,2.7373,2.2752,-26.64,14.4,-34.44
11.727,0.92618,1.8796,-1.5479,2.3723,2.1014,-26.64,15.9,-31.62
11.237,2.6287,1.0215,-1.1979,1.803,1.8564,-26.4,16.98,-29.94
11.114,5.3528,0.095342,-0.81734,1.1884,1.4389,-25.14,19.2,-26.7
10.91,4.985,0.027241,-0.13958,0.044593,0.6014,-24.48,20.4,-25.26
10.052,3.6911,-0.27241,0.19853,-0.49327,0.17776,-23.64,21.48,-23.52
9.2618,2.9011,-0.28603,0.27,-0.59804,0.018631,-22.56,22.56,-21.6
9.2346,2.1112,-0.31327,0.45815,-0.6017,-0.51282,-19.92,24.66,-18.18
9.7794,0.57205,1.2803,0.59376,-0.48197,-0.93493,-18.3,25.86,-16.74
13.974,-4.4811,3.0918,0.69272,-0.27245,-1.2666,-16.8,26.94,-15.66
18.769,-12.163,5.4754,0.66432,-0.28344,-1.441,-14.52,28.74,-14.82
19.3,-14.233,7.2733,0.49144,-0.7871,-1.4661,-13.86,29.34,-14.52
18.401,-12.054,7.7227,0.6353,-0.76205,-1.4511,-13.74,29.64,-14.34
17.025,-11.223,7.8045,1.3925,-0.45265,-2.3482,-13.8,29.76,-14.1
17.992,-14.315,6.7693,1.7706,-0.71868,-2.5061,-14.94,29.22,-14.46
16.263,-14.056,6.2517,1.8488,-1.7614,-2.5131,-15.96,28.86,-15.12
11.836,-13.307,5.6661,1.7156,-1.9267,-2.3989,-18.48,27.54,-16.74
9.1393,-11.972,5.3256,1.492,-1.543,-2.1173,-19.62,26.82,-18.24
6.8102,-10.12,4.8352,1.3292,-0.92974,-1.8393,-20.76,25.86,-19.8
3.8001,-7.3686,3.5277,1.2538,-0.38179,-1.6353,-22.32,24.3,-22.86
2.0294,-6.2245,2.3427,1.2089,-0.096211,-1.3861,-22.86,23.52,-24.48
0.88532,-5.5843,0.64016,1.1487,-0.16341,-1.0617,-23.1,22.8,-26.1
-0.53119,-4.7807,-0.068102,0.94348,-0.87629,-0.50183,-23.28,21.36,-28.8
-1.4301,-4.6037,-0.21793,0.83719,-1.1631,-0.33964,-23.28,20.64,-30.0
-2.2201,-4.5356,-0.24517,0.55986,-1.624,-0.023824,-23.22,20.1,-31.32
-4.4811,-3.732,-0.31327,0.18631,-1.5901,0.33842,-22.56,19.38,-33.42
-5.3392,-3.1599,-0.38137,0.057727,-1.0797,0.45479,-22.02,19.08,-34.32
-5.7342,-3.1191,-0.83084,0.028405,-0.10904,0.49786,-20.04,18.66,-35.4
-2.7649,-6.6059,-0.54481,-0.13806,0.21197,0.61758,-19.08,18.66,-35.64
-0.7355,-10.365,1.076,-0.61117,0.43371,0.99815,-18.3,18.6,-35.52
2.152,-15.187,2.6015,-1.5779,0.59987,1.5953,-17.7,18.6,-35.58
10.093,-18.673,6.3198,-2.0779,0.85338,1.8076,-17.7,18.66,-35.64
13.988,-17.965,7.4231,-1.9221,1.6237,2.3998,-18.06,18.6,-35.76
14.914,-16.222,6.7966,-1.5577,2.2321,2.2785,-18.84,18.6,-35.76
16.794,-14.996,5.2166,-1.284,1.7999,1.8415,-21.06,18.6,-35.64
15.377,-13.375,4.3994,-1.3497,1.3717,1.8906,-22.2,18.66,-35.4
13.62,-12.149,4.0725,-1.5098,0.71135,2.0608,-23.1,18.54,-34.5
9.0712,-8.1313,4.1678,-1.6625,1.3732,2.0204,-24.12,18.78,-32.34
8.4038,-6.2381,4.1133,-1.6503,2.5015,1.8473,-24.18,19.26,-31.02
8.7715,-4.9033,3.6639,-1.6945,3.4636,1.6188,-24.24,19.74,-29.52
10.787,-2.3155,1.7025,-1.5999,3.3662,1.5354,-23.58,20.94,-26.88
11.305,-0.51757,1.6753,-1.2929,2.1466,1.6231,-22.98,21.72,-25.56
11.346,1.6072,1.2258,-1.1359,1.5449,1.5678,-22.26,22.5,-23.94
10.719,4.127,-0.14982,-0.52993,0.10354,1.1591,-19.92,24.3,-20.58
9.3299,4.4266,-0.57205,-0.135,-0.478,0.76786,-18.54,25.2,-18.96
8.2131,3.8818,-0.91256,0.13531,-0.49816,0.37415,-17.16,26.04,-17.22
7.9134,3.4051,-1.4982,0.22144,0.028711,-0.1631,-13.44,27.9,-14.64
8.826,2.9965,-1.1986,0.30391,0.047037,-0.54336,-11.7,28.8,-13.92
9.4798,1.9886,0.14982,0.36744,-0.071166,-0.72479,-10.08,29.7,-13.44
13.498,-3.8001,3.2961,0.43891,-0.40073,-1.113,-7.44,31.08,-13.38
17.543,-9.6841,5.6933,0.29902,-0.74037,-1.2074,-6.84,31.44,-13.62
19.286,-14.805,8.54,0.28191,-1.0076,-1.2004,-6.24,31.8,-13.92
18.524,-10.91,9.1256,0.96822,-0.69242,-1.825,-6.24,32.04,-13.98
18.374,-13.021,8.54,1.445,-0.63286,-2.5583,-6.66,31.86,-13.86
18.565,-14.015,7.8589,1.562,-0.7532,-2.6313,-7.32,31.68,-13.98
15.418,-14.547,7.4503,1.4163,-1.4566,-2.7614,-9.78,30.78,-14.82
11.482,-13.825,7.7636,1.1759,-1.4465,-2.7022,-11.28,30.12,-15.54
8.8805,-12.04,7.2869,1.197,-0.9502,-2.471,-12.6,29.34,-16.62
5.3528,-8.5127,5.5026,1.4529,-0.43768,-2.2645,-15.54,27.9,-19.56
4.0861,-7.6683,4.5901,1.813,-0.29169,-1.9178,-16.38,27.12,-21.48
2.833,-7.1915,2.9556,1.8747,-0.65271,-1.5134,-17.1,26.46,-23.4
1.4029,-6.5786,2.0975,1.8335,-0.905,-1.2914,-17.7,25.68,-25.26
-1.3757,-5.0259,0.21793,1.4416,-1.5052,-0.60659,-18.54,24.42,-28.68
-3.3234,-3.8273,-0.24517,1.1417,-1.6658,-0.21777,-18.96,23.7,-30.3
-4.4811,-3.337,-0.6674,0.86132,-1.6054,0.03146,-19.26,23.1,-31.86
-6.1836,-3.2825,-0.53119,0.4945,-1.1603,0.23854,-19.56,22.26,-35.16
-6.2517,-4.0861,-0.85808,0.39034,-0.89278,0.28986,-19.32,21.96,-36.6
-5.7886,-4.7671,-1.1441,0.050396,-0.16524,0.48075,-18.72,21.84,-37.98
-3.0782,-6.6059,-1.6617,-0.23182,-0.067195,0.65546,-16.98,21.96,-40.62
-1.362,-8.6353,-1.6617,-0.61789,-0.01405,1.0098,-16.14,22.08,-41.7
1.0215,-13.062,3.8001,-1.2373,0.36682,1.6484,-15.3,22.14,-42.96
10.597,-19.382,6.6331,-2.1835,0.90591,2.3161,-15.78,22.14,-43.02
14.506,-19.436,7.6955,-2.2724,1.1988,2.4526,-16.5,22.26,-43.14
16.14,-17.516,7.2869,-1.9636,2.0806,2.8219,-17.76,22.44,-42.96
16.453,-16.576,5.9112,-1.4639,2.0363,2.0412,-20.4,22.68,-41.82
15.405,-14.737,4.6582,-1.4945,1.2239,2.1044,-21.48,22.92,-41.04
13.607,-12.286,4.304,-1.6503,0.46731,2.3567,-23.1,23.34,-38.52
9.902,-7.5729,4.5083,-1.6906,0.46884,2.3234,-23.34,23.76,-37.14
9.2074,-6.0338,4.0589,-1.704,1.3308,2.0018,-23.46,24.3,-35.7
9.1393,-5.0259,3.5413,-1.8515,2.624,1.6295,-23.4,24.84,-34.2
10.297,-1.7025,2.5061,-1.5791,3.0177,1.5211,-22.92,26.22,-30.36
10.665,-0.21793,2.0839,-1.2339,2.189,1.5501,-22.5,27.06,-28.5
11.169,1.1032,1.185,-0.82039,1.1402,1.4221,-21.66,27.84,-26.4
10.283,2.6015,-0.34051,-0.25137,-0.32315,0.78343,-19.32,30.0,-22.2
8.5672,2.833,-0.39499,-0.055894,-0.68875,0.36621,-17.82,30.78,-20.22
7.3822,3.051,-0.50395,0.043677,-0.55283,0.23702,-15.96,31.74,-18.54
7.5865,2.9965,-0.70826,0.14508,-0.29077,0.13134,-12.18,33.54,-16.02
9.0303,2.5061,-0.35413,0.26878,-0.16463,-0.21014,-10.5,34.32,-15.24
9.7794,2.0158,0.55843,0.42913,-0.2193,-0.65546,-9.06,35.1,-14.82
12.095,-1.3076,2.5606,0.6072,-0.35797,-1.0388,-7.08,36.48,-14.58
15.854,-5.7614,3.8954,0.50335,-0.82009,-1.2935,-6.6,36.84,-14.52
18.973,-11.782,6.7421,0.50732,-1.1863,-1.3005,-6.3,37.08,-14.52
19.532,-12.149,10.706,0.96944,-1.4835,-1.339,-6.78,37.26,-14.7
19.532,-13.089,10.815,1.4813,-1.1243,-2.3369,-7.32,37.14,-14.52
19.532,-14.901,10.501,1.8995,-1.1307,-2.9856,-9.42,36.54,-14.94
16.739,-16.126,9.0575,2.0513,-1.6594,-3.0846,-10.86,35.82,-15.3
14.451,-15.568,8.7306,2.0314,-1.9923,-3.0989,-12.6,35.4,-16.02
9.9292,-13.852,7.3414,2.0553,-1.8647,-3.0128,-14.52,34.56,-17.28
5.5435,-10.474,5.1349,2.2953,-1.2556,-2.7303,-18.0,33.12,-21.18
3.337,-8.7715,3.8001,2.3305,-0.9615,-2.5265,-19.2,32.34,-23.1
1.7979,-7.7636,3.1599,2.1927,-0.81276,-2.1771,-20.16,31.56,-24.96
-1.0079,-5.993,1.4029,1.8115,-0.83108,-1.532,-21.9,29.58,-27.78
-2.3155,-5.0531,0.57205,1.4759,-0.85002,-1.0956,-22.74,28.68,-28.98
-3.1872,-4.522,0.19068,1.2975,-0.85124,-0.91508,-23.52,27.66,-30.18
-4.699,-3.6639,-0.14982,0.83139,-0.73121,-0.47495,-24.3,26.58,-31.08
-5.8976,-3.514,-0.43585,0.63622,-0.54978,-0.23427,-25.32,24.54,-32.88
-6.0474,-4.1406,-0.40861,0.40653,-0.33903,0.0018326,-25.62,23.58,-33.72
-5.6661,-4.7671,-0.58567,0.11851,-0.19548,0.19028,-25.56,22.92,-34.44
-3.9635,-6.3879,-1.2258,-0.2642,-0.17104,0.61056,-24.6,21.72,-35.22
-2.7786,-8.2267,-0.10896,-0.53481,-0.071166,1.0128,-23.58,21.36,-34.92
-1.9341,-10.351,1.362,-1.0464,0.3934,1.7672,-22.62,21.12,-34.56
3.4187,-18.074,5.9793,-1.9227,0.97341,2.722,-21.54,20.34,-33.9
8.3493,-19.341,7.927,-2.3439,1.4059,3.0415,-21.66,20.1,-34.2
13.552,-19.246,8.0769,-2.3766,2.2205,3.4428,-22.14,19.98,-34.8
19.218,-18.442,7.2052,-1.8732,2.5171,3.3674,-24.18,19.68,-36.24
19.382,-18.115,7.1234,-1.8977,1.6374,3.054,-25.62,19.8,-36.12
19.341,-16.317,6.9328,-1.9563,0.76694,3.0647,-26.46,20.1,-35.82
15.759,-10.719,5.1757,-1.7263,0.47159,2.7394,-27.18,21.18,-34.44
13.28,-8.2676,4.7263,-1.4804,1.1072,2.1405,-27.06,21.84,-33.6
11.496,-6.4969,3.732,-1.598,2.3946,1.5327,-26.58,22.56,-32.64
10.27,-3.3915,2.4789,-1.711,3.3265,1.339,-25.68,24.66,-30.96
10.188,-1.2258,2.0158,-1.6469,3.1707,1.3424,-25.2,25.8,-30.0
10.052,0.76274,1.757,-1.3931,2.2975,1.3091,-24.6,26.76,-28.8
9.1937,3.9499,0.70826,-0.83261,0.99082,1.0369,-23.46,28.8,-25.38
8.4038,4.7671,0.27241,-0.46487,0.39065,0.64966,-22.5,30.06,-23.28
7.8998,4.7944,0.027241,-0.17623,0.066584,0.27245,-21.24,31.14,-21.06
7.8181,4.413,-0.027241,0.2419,-0.17868,-0.033903,-19.56,32.34,-18.84
9.0303,4.0589,0.027241,0.48747,-0.40867,-0.29627,-14.94,34.56,-16.02
9.7522,3.7047,0.21793,0.75014,-0.79596,-0.73182,-13.14,35.52,-15.3
10.924,1.7025,2.3972,0.98471,-1.2107,-1.2129,-10.5,36.9,-15.0
14.996,-3.9635,4.8897,1.0861,-1.4261,-1.5492,-9.36,37.74,-15.18
17.952,-7.8045,6.4424,0.95356,-1.4337,-1.8567,-9.0,37.86,-15.12
19.286,-13.103,10.637,1.0143,-1.6686,-1.8983,-9.6,37.2,-15.18
19.082,-11.863,10.61,1.2908,-1.0565,-2.2962,-10.02,37.02,-15.24
19.45,-14.683,10.256,1.6414,-0.62461,-2.9807,-11.76,35.7,-15.18
19.532,-16.889,9.1801,1.8134,-0.75961,-3.0482,-14.22,34.08,-15.78
17.557,-16.78,8.0088,1.7477,-1.379,-3.0464,-17.58,32.34,-17.28
12.286,-14.587,7.355,1.5324,-1.8332,-3.0696,-20.64,30.42,-20.16
7.1234,-11.741,5.9657,1.423,-1.6429,-2.9544,-22.92,28.86,-23.46
3.1872,-9.4661,4.699,1.5308,-0.91783,-2.7385,-24.36,27.3,-26.7
1.1305,-8.2812,3.3506,1.7697,0.2416,-2.3017,-24.9,26.58,-28.2
-0.36775,-7.1234,1.1169,1.8534,0.51771,-1.8628,-25.08,25.32,-30.84
-1.0215,-6.0611,-0.51757,1.7703,0.11148,-1.3357,-25.32,24.18,-33.36
-2.3836,-4.9578,-0.7355,1.5153,-0.67531,-0.86224,-24.66,23.28,-35.46
-3.4187,-4.4947,-0.54481,0.95234,-1.5082,-0.24709,-24.42,22.74,-36.24
-6.4152,-3.8273,-0.31327,0.80115,-1.5693,-0.054978,-23.94,22.32,-36.66
-6.5514,-4.5628,-0.7355,0.58613,-1.39,0.28436,-22.8,21.66,-36.24
-5.6388,-5.2575,-0.85808,0.32498,-0.99938,0.55772,-22.5,21.36,-35.58
-4.6173,-5.3937,-0.88532,-0.19731,-0.46059,0.88301,-22.2,21.0,-34.98
-2.4517,-6.0747,-0.35413,-0.34453,-0.26389,1.1533,-22.2,20.28,-33.54
-0.70826,-8.8668,0.92618,-0.47342,0.10751,1.8072,-22.38,19.92,-33.0
3.8954,-17.72,4.699,-1.5886,0.46701,2.5888,-22.8,19.2,-32.64
7.8998,-17.992,6.4288,-1.9429,0.8546,2.7944,-23.1,19.08,-32.64
11.319,-18.183,6.8783,-1.971,1.1371,2.8445,-23.64,18.9,-32.82
18.823,-18.823,7.641,-1.7648,2.1533,3.2813,-24.96,19.02,-33.12
19.0,-18.319,8.1995,-1.8372,1.8781,2.7477,-25.74,19.38,-33.18
18.673,-16.985,7.5321,-1.9841,1.5641,2.4148,-26.4,19.74,-32.82
16.344,-10.937,6.5378,-1.8766,1.3781,2.0797,-26.88,20.82,-31.86
13.729,-8.145,5.5299,-1.566,1.5363,1.6396,-26.7,21.36,-31.02
11.931,-5.8704,4.9714,-1.3744,2.0125,1.3155,-26.22,22.26,-30.3
10.665,-2.3699,3.6094,-1.3586,2.4059,1.3106,-25.32,24.36,-28.44
10.896,0.69464,2.547,-1.2599,2.2086,1.4694,-24.66,25.32,-27.42
11.441,4.1678,-0.040861,-0.81153,1.4145,1.3088,-23.16,27.66,-25.5
11.06,6.4288,-1.1305,-0.4893,0.77549,0.82131,-22.26,28.92,-24.3
9.8066,7.3141,-1.2667,-0.33201,0.48961,0.5229,-21.36,30.06,-23.1
8.9758,7.2324,-1.3484,0.000916,-0.0024435,0.068111,-20.28,31.26,-21.84
8.3901,5.4481,-1.9477,0.31551,-0.47647,-0.13439,-17.7,33.24,-19.5
8.4855,4.7399,-1.7843,0.40806,-0.59376,-0.50641,-16.26,34.14,-18.6
8.0905,4.2495,-1.1713,0.54978,-0.49266,-0.96242,-14.88,34.98,-17.82
9.2891,1.6753,1.471,0.80329,-0.26573,-1.4667,-12.9,36.48,-17.16
15.187,-3.1599,4.0589,0.79504,-0.57391,-1.6286,-12.42,36.9,-17.22
18.279,-7.0962,6.3607,0.72021,-0.86651,-1.6649,-12.42,37.14,-17.28
19.491,-17.175,13.375,0.41142,-1.2721,-1.5345,-12.48,37.02,-17.4
19.518,-14.478,13.934,1.1399,-0.75228,-1.7944,-12.96,36.84,-17.52
19.532,-16.998,12.762,1.9435,-1.0647,-2.7297,-15.18,36.0,-18.06
19.532,-17.965,12.422,2.3353,-2.0589,-2.9468,-16.74,35.28,-18.42
12.844,-15.119,11.414,2.237,-2.6081,-2.9508,-18.6,34.38,-19.32
8.9622,-12.735,9.3163,2.1365,-2.0128,-2.8442,-22.32,32.1,-21.96
6.4288,-10.515,7.1234,2.4068,-0.70677,-2.5293,-23.82,30.9,-23.52
4.304,-8.9622,5.1213,2.5989,-0.37232,-2.1692,-25.02,29.7,-25.08
1.6344,-7.5865,2.7649,2.6484,-0.41814,-1.6823,-26.88,27.12,-28.02
0.16344,-6.674,1.6208,2.3931,-0.70524,-0.95692,-27.6,25.68,-29.28
-2.3836,-5.2166,-0.21793,2.2339,-0.77885,-0.74678,-28.26,24.18,-30.42
-3.8409,-4.5628,-1.0896,1.6533,-0.99388,-0.18784,-29.28,21.36,-32.22
-5.0531,-3.514,-1.7025,1.4496,-1.0119,-0.023824,-29.58,19.98,-32.88
-5.4481,-3.1191,-1.8796,0.92974,-0.81886,0.40317,-29.7,18.84,-33.54
-6.3607,-3.4459,-2.1248,0.69578,-0.62644,0.68722,-28.74,16.74,-34.5
-6.0338,-4.0589,-2.1248,0.43463,-0.39065,0.91477,-27.84,15.96,-34.62
-5.3664,-5.0668,-1.7025,0.12187,-0.16463,1.0559,-25.38,14.94,-34.2
-3.4459,-6.5378,-1.5391,-0.23976,-0.049786,1.2679,-24.0,14.7,-33.66
-1.5391,-8.6762,-1.5391,-0.50641,0.039706,1.6115,-22.86,14.46,-33.48
1.2803,-14.056,1.9068,-1.2581,0.40714,2.6518,-21.84,14.28,-33.6
10.351,-19.341,8.1858,-2.4734,0.6185,2.8976,-20.88,13.92,-35.52
15.173,-19.491,9.0848,-2.6567,2.0724,3.5,-21.36,13.86,-37.02
19.409,-18.714,8.2403,-2.149,2.6267,3.6322,-24.48,13.86,-39.36
19.518,-18.387,8.7715,-2.0757,2.0626,2.6011,-26.1,14.04,-39.6
19.532,-17.352,8.8668,-2.2294,1.1777,2.4667,-27.6,14.4,-39.6
16.508,-10.896,6.9328,-1.9765,0.6463,2.1808,-29.46,15.42,-38.16
12.926,-7.7091,6.2654,-1.6628,1.3054,1.6038,-29.94,16.26,-37.5
9.9837,-5.3119,3.9908,-1.7599,2.733,0.97708,-30.3,17.16,-36.72
9.5479,-1.4165,3.2008,-1.9022,3.7474,0.83994,-30.66,19.26,-34.92
10.161,1.5527,2.5742,-1.8457,3.7064,0.91844,-31.02,20.34,-33.9
10.569,2.833,2.0567,-1.5452,2.6463,0.93951,-31.26,21.24,-32.52
9.902,4.8897,-0.31327,-0.87048,0.80665,0.70372,-31.62,23.52,-28.68
8.717,4.9714,-0.70826,-0.49419,0.15272,0.32742,-31.38,24.72,-26.22
7.6002,4.8625,-0.89894,-0.21808,-0.059254,0.022602,-30.48,25.98,-23.58
7.7364,4.1951,-0.92618,0.11515,-0.12767,-0.1857,-26.46,28.62,-19.38
8.4582,3.5549,-0.49033,0.22113,-0.19181,-0.28986,-24.24,29.82,-18.3
9.0303,3.1191,-0.12258,0.43097,-0.41294,-0.62705,-22.38,30.84,-17.7
9.0575,1.5391,2.8058,0.75411,-0.72326,-1.2141,-19.74,32.46,-17.76
10.637,-0.7355,4.1542,0.87354,-0.75931,-1.3595,-19.14,32.82,-17.94
15.5,-5.0531,6.9872,0.78985,-0.80298,-1.4297,-18.72,33.0,-18.42
19.477,-18.156,11.986,1.1054,-1.4581,-1.4096,-19.14,32.76,-18.36
19.532,-13.389,12.245,1.3021,-1.3506,-1.4154,-19.68,32.34,-18.36
19.532,-13.511,11.795,2.091,-0.64355,-2.7098,-20.46,31.92,-18.54
19.532,-16.235,10.297,2.4862,-0.85216,-3.0183,-22.98,30.12,-19.26
18.701,-15.8,9.8203,2.5076,-1.6383,-3.1365,-24.42,28.98,-20.28
14.928,-14.601,9.0575,2.2428,-1.9966,-3.2526,-25.86,27.84,-21.6
7.5593,-9.5342,6.4288,1.9688,-1.7043,-3.1499,-28.02,25.56,-24.66
4.5356,-7.464,5.4209,1.7455,-0.77916,-3.0106,-28.5,24.12,-26.04
2.152,-6.4969,4.4947,1.6988,-0.42211,-2.9129,-28.98,22.74,-27.06
0.53119,-5.6116,3.1872,1.7431,0.11087,-2.4584,-29.52,21.36,-28.02
-1.1305,-5.6661,0.42223,1.8201,-0.32162,-1.9364,-30.54,18.36,-29.22
-2.4925,-5.3937,-0.64016,1.7135,-1.0345,-1.3741,-30.96,16.8,-29.7
-4.2495,-5.0259,-1.3893,1.4444,-1.6579,-0.80146,-31.14,15.24,-30.06
-7.3958,-4.3721,-1.3893,0.98594,-1.825,-0.07086,-31.44,12.42,-30.72
-8.2539,-4.6445,-1.2531,0.7025,-1.4255,0.37354,-31.38,11.1,-30.84
-7.927,-5.2575,-1.0488,0.41722,-0.86437,0.70311,-31.2,10.14,-30.66
-6.9191,-5.9385,-1.2803,0.094379,-0.27733,0.85765,-30.9,9.3,-30.12
-3.2825,-6.6331,-1.7979,-0.10293,0.17776,1.1093,-29.82,8.04,-28.02
-0.99429,-9.4525,-0.16344,-0.33995,0.65851,1.8589,-29.46,7.5,-26.7
3.5685,-18.592,3.8137,-1.6054,1.0547,2.8824,-29.4,6.6,-24.72
10.651,-19.45,7.6683,-2.2797,1.3134,3.2755,-29.22,6.48,-24.48
14.097,-19.055,8.1858,-2.1377,2.0501,3.9068,-28.86,6.42,-24.78
19.395,-18.891,8.1995,-1.784,2.106,4.404,-28.98,6.48,-26.76
19.518,-17.72,9.4389,-1.9676,0.99174,3.8094,-29.7,6.72,-27.72
19.532,-15.813,9.7658,-2.1304,0.31765,3.8106,-30.72,7.14,-28.26
16.126,-10.733,8.4174,-2.1371,0.84299,3.1945,-31.62,8.52,-28.2
13.961,-8.9894,7.9543,-2.1286,2.1667,2.6325,-31.68,9.72,-27.72
11.945,-6.4288,7.2869,-2.1869,3.4945,2.2052,-31.5,10.98,-27.42
12.19,-2.5198,4.9442,-2.1756,4.0723,1.9774,-30.0,13.74,-26.82
12.572,-0.53119,3.3506,-1.9969,3.5983,1.8815,-29.1,15.3,-26.58
12.612,1.9341,0.81722,-1.398,1.9951,1.7022,-27.48,18.66,-25.74
12.0,4.3858,-0.01362,-0.8937,1.1023,1.2831,-26.7,20.28,-25.02
11.005,5.3937,-0.42223,-0.50641,0.44746,0.64507,-25.98,21.66,-24.12
10.42,5.5026,-0.53119,-0.2193,0.068111,0.073304,-25.32,23.16,-22.86
8.9486,4.3858,-0.68102,-0.012828,-0.15821,-0.25809,-23.22,26.22,-19.74
8.7987,4.1542,-0.58567,0.092546,-0.22235,-0.57299,-21.48,27.72,-18.24
8.8805,3.4323,1.3484,0.32223,-0.13164,-1.2336,-17.64,30.48,-16.8
10.256,1.4165,2.8058,0.63713,-0.12828,-1.6839,-16.38,31.56,-16.56
12.967,-1.4438,4.4539,0.80359,-0.20678,-1.8491,-15.42,32.1,-16.86
17.884,-4.6309,6.5514,0.91844,-0.61178,-2.1005,-14.52,32.4,-16.98
19.477,-16.998,11.25,1.0366,-1.7074,-2.0934,-14.34,32.76,-17.1
18.578,-14.356,12.136,1.4352,-1.4218,-2.018,-14.76,32.58,-17.04
17.652,-14.192,11.605,1.9264,-0.62369,-2.7709,-15.3,32.04,-16.98
19.15,-16.113,10.542,2.5073,-0.69944,-2.9303,-17.58,30.3,-17.46
15.8,-16.208,9.3844,2.4682,-1.5259,-2.9563,-19.2,29.22,-18.36
13.253,-15.459,8.5808,2.39,-1.7611,-2.9111,-20.94,27.78,-19.74
6.5786,-11.005,5.5299,2.2153,-1.6115,-2.4697,-23.64,25.08,-23.76
3.7728,-9.1393,4.2495,2.1191,-1.1393,-2.1279,-24.36,23.7,-26.1
1.6481,-7.6819,3.0646,1.9166,-0.59834,-1.8363,-24.84,22.2,-28.2
-1.8932,-5.1076,0.8036,1.6054,-0.10293,-1.3647,-24.96,19.62,-31.62
-3.1463,-4.127,0.8036,1.0424,-0.15669,-0.9108,-24.78,18.6,-33.0
-4.1542,-3.4459,-0.57205,0.87293,-0.23702,-0.68111,-24.72,17.58,-34.32
-5.2575,-3.0918,-0.95342,0.5397,-0.55955,0.07025,-23.94,15.54,-37.02
-5.7205,-3.5822,-1.1032,0.51343,-0.67409,0.46884,-23.46,14.76,-38.4
-5.6388,-4.6445,-1.2122,0.38546,-0.71319,0.71074,-22.68,14.16,-39.72
-4.5764,-5.8295,-1.4574,0.0058032,-0.81612,1.0614,-20.1,13.92,-42.12
-3.7456,-6.7557,-1.4165,-0.31765,-0.83872,1.3625,-18.42,14.16,-42.96
-3.228,-7.2869,-1.3212,-0.64446,-0.5901,1.6646,-16.5,14.76,-43.62
-1.4165,-10.065,0.6674,-0.84422,-0.33414,1.8445,-15.0,15.12,-44.04
1.7025,-14.942,2.4653,-1.8399,0.68875,2.6954,-14.28,15.36,-44.52
12.476,-19.463,8.3357,-2.3992,0.96456,3.0439,-15.9,16.32,-45.36
15.977,-19.246,8.7851,-2.2248,1.9707,3.4587,-17.64,16.62,-45.48
17.924,-19.232,7.7772,-1.9505,2.1475,3.2287,-21.66,17.28,-44.52
18.565,-19.259,7.3958,-1.748,1.8091,2.3527,-23.28,17.7,-43.68
17.775,-17.87,6.8647,-1.9096,0.66187,2.2223,-24.48,18.12,-42.3
11.414,-11.509,6.0611,-1.9569,0.78649,2.1249,-26.16,19.44,-39.48
8.9758,-8.431,5.5571,-1.9102,1.854,1.8421,-26.76,20.22,-38.04
8.322,-5.8295,4.413,-1.9676,3.273,1.5241,-27.24,21.06,-36.48
9.8475,-1.7843,4.0589,-1.7984,3.3955,1.5678,-27.96,22.74,-33.06
10.311,-0.095342,3.5277,-1.5452,2.263,1.6713,-28.14,23.4,-30.84
9.9973,1.4982,2.5879,-1.1423,1.2666,1.6115,-28.08,24.42,-28.38
8.826,3.2144,1.1305,-0.72724,0.66187,1.408,-26.28,26.7,-22.74
