Ax,Ay,Az,Gx,Gy,Gz,Mx,My,Mz
-3.4732,-7.8589,1.975,-0.49083,0.29474,4.3289,-13.08,-8.28,53.52
0.92618,-9.7658,0.42223,-0.65515,0.4105,4.5977,-12.66,-7.14,53.46
4.7126,-11.659,-0.24517,-1.2089,0.32559,5.2201,-12.36,-6.3,53.16
8.1041,-13.212,-0.91256,-1.6958,0.24923,5.3576,-12.0,-5.58,52.92
19.341,-19.314,-4.3449,-2.2135,1.1191,5.1924,-11.4,-4.26,52.38
19.504,-18.17,-5.8023,-2.6567,1.8204,4.9358,-11.4,-3.72,52.14
19.532,-14.424,-6.7148,-2.6942,1.4615,3.959,-11.52,-3.12,52.08
19.532,-9.616,-8.0632,-2.2318,0.57482,2.6585,-11.22,-1.74,52.62
19.409,-5.8295,-7.1643,-1.9832,0.51221,2.1154,-11.22,-0.96,52.98
17.434,-4.0861,-5.9657,-2.1524,0.74556,1.8579,-11.1,-0.3,53.34
10.924,1.757,-1.975,-2.3836,1.0602,1.7095,-10.2,0.96,53.82
8.717,5.0259,-0.76274,-2.3121,1.3512,1.5617,-10.02,1.44,54.3
7.4095,8.036,-0.39499,-1.861,1.4734,1.3549,-9.84,1.98,54.72
5.2438,11.319,-1.362,-1.0699,1.3525,0.57544,-9.84,2.46,55.38
4.4539,10.855,-1.7979,-0.65576,1.0602,-0.066279,-9.9,2.7,55.86
4.4266,10.42,-1.7979,-0.40959,0.86285,-0.78191,-10.08,2.94,56.22
5.4754,9.2074,-1.3757,-0.087048,0.6802,-1.6967,-10.38,3.6,56.58
6.1973,7.6546,-1.5663,0.30513,0.34086,-2.6325,-10.32,3.9,56.64
7.246,5.6661,-2.3563,0.56077,0.20556,-3.5281,-10.44,4.02,56.58
14.587,3.6094,-2.2474,0.74128,0.31429,-4.335,-11.22,3.42,56.22
19.218,4.3858,-2.4108,0.96975,0.44746,-4.9825,-11.58,2.64,56.04
19.436,2.5061,-2.7104,2.0763,-0.16493,-5.2825,-12.24,1.5,55.68
19.532,-7.5457,-5.9249,2.3644,-1.3473,-5.1866,-12.96,-1.38,54.42
19.532,-12.476,-6.0066,2.7199,-2.109,-4.8026,-12.9,-2.34,53.64
19.532,-12.027,-5.0259,2.9172,-2.1793,-4.1795,-12.9,-4.26,52.68
14.547,-10.474,-2.152,2.8381,-1.7633,-3.8039,-12.78,-5.22,52.5
10.174,-9.7658,-1.1577,2.715,-1.2074,-3.2892,-12.6,-6.06,52.32
7.8181,-9.112,-0.65378,2.5226,-0.67165,-2.6441,-12.66,-6.9,52.2
1.6617,-7.6274,0.7355,2.3356,-0.17318,-1.9212,-12.54,-8.4,52.14
-0.88532,-7.5048,1.6753,2.0797,0.27917,-1.2266,-12.42,-8.94,52.08
-2.9011,-8.0769,2.6287,1.7022,0.894,-0.67165,-12.06,-9.54,52.08
-5.7614,-8.0632,3.9908,0.92882,1.3906,0.079412,-11.16,-9.72,51.9
-6.5105,-6.4016,3.7728,0.64966,1.2856,0.34728,-10.74,-9.66,51.72
-6.8374,-5.4073,2.8875,0.12126,0.99113,0.86071,-10.32,-9.18,51.84
-5.4073,-6.456,1.8387,-0.59101,0.49999,2.1191,-10.26,-8.28,52.08
-0.43585,-8.8668,-0.054481,-0.92485,0.26695,3.1255,-10.74,-6.84,53.16
1.6617,-9.6568,-0.74912,-1.2171,0.11087,3.8827,-11.04,-6.24,53.4
9.9292,-13.77,-1.7025,-2.1121,0.65546,4.7956,-11.34,-5.1,53.52
17.992,-18.251,-3.8137,-3.0317,2.2333,4.9755,-11.46,-4.56,53.46
19.15,-18.319,-5.1894,-3.4514,2.7516,4.8591,-11.64,-3.96,53.16
19.532,-11.686,-8.3765,-3.2907,1.9648,4.2669,-12.0,-3.42,52.8
19.532,-10.093,-8.7715,-3.0598,0.90225,3.5797,-12.42,-3.12,52.68
19.532,-7.3141,-7.8862,-2.8576,0.64996,3.0983,-13.08,-2.88,52.74
16.29,-0.24517,-2.9556,-2.8518,0.70097,2.6774,-13.98,-1.92,53.1
11.768,3.3097,-0.83084,-2.7202,1.0608,2.4948,-14.1,-1.14,53.34
10.76,5.9249,0.39499,-2.3283,0.98105,2.1221,-14.22,-0.54,53.52
7.1507,8.6081,-0.42223,-2.0159,1.1182,1.7825,-14.34,0.6,53.88
5.5571,9.4798,-0.28603,-1.5036,1.1005,1.1716,-14.46,1.08,54.12
5.0259,10.678,0.16344,-0.96456,0.85521,0.4725,-14.58,1.56,54.3
4.9033,11.196,0.54481,-0.42089,0.65424,-0.30696,-15.12,2.4,54.9
5.4073,10.433,0.47671,0.36835,0.25198,-1.7501,-15.6,2.76,55.26
6.2245,8.9077,-0.095342,0.84238,-0.16768,-2.8512,-15.9,3.0,55.56
7.8998,5.0395,-1.471,1.1292,-0.31368,-3.9144,-16.74,3.54,56.22
11.904,4.6582,-1.5663,1.2358,-0.11057,-4.8381,-16.92,3.42,56.46
17.87,6.6059,-2.5334,1.4462,0.19273,-5.4914,-17.16,3.24,56.58
19.504,2.4517,-6.0883,2.1041,-0.25626,-5.6239,-17.46,1.32,55.98
19.532,-2.3836,-7.0553,2.9664,-2.2602,-5.8267,-17.64,0.3,55.68
19.532,-10.692,-7.0826,2.9654,-2.5397,-5.4266,-17.64,-0.72,55.38
19.123,-12.749,-3.5958,2.5959,-2.2242,-3.9609,-17.28,-2.76,55.08
12.136,-10.774,-0.5993,2.1518,-1.0507,-3.3317,-17.04,-3.72,55.2
7.927,-10.161,0.027241,2.0675,0.018631,-2.6899,-16.86,-4.68,55.2
4.5764,-8.717,0.081722,1.9942,0.60323,-1.8992,-16.68,-6.6,55.44
2.9011,-7.5048,0.19068,2.0256,0.49938,-0.58643,-16.56,-7.44,55.44
1.3212,-6.8919,0.77636,1.8876,0.37751,0.20006,-16.32,-8.16,55.56
-1.9886,-6.8783,2.5061,1.6414,0.44013,0.82436,-15.6,-8.94,55.62
-3.8001,-6.96,3.1054,1.2969,0.60445,1.3598,-15.24,-8.88,55.68
-4.8488,-6.7421,3.3642,0.87384,0.70616,1.7651,-14.76,-8.64,55.74
-4.4266,-6.2517,2.2882,0.42455,0.72326,2.1435,-14.1,-7.2,56.16
-2.6696,-6.9736,1.4165,-0.14294,0.5452,3.0482,-13.92,-6.42,56.28
-1.5119,-7.641,0.98067,-0.50121,0.55619,3.6991,-13.8,-5.58,56.64
0.50395,-8.1858,0.46309,-0.67714,0.58032,3.9825,-13.8,-4.8,56.64
8.6081,-10.025,-1.7298,-1.2511,0.59895,4.6078,-13.5,-3.12,56.64
17.053,-14.07,-5.2438,-1.4853,1.6719,4.7895,-13.5,-2.52,56.58
19.218,-18.605,-8.0632,-1.8204,2.2349,4.8704,-13.38,-1.86,56.46
19.532,-13.471,-8.6081,-2.1121,-0.0024435,3.8313,-13.44,-0.24,56.64
19.532,-10.093,-9.2618,-2.0516,-0.51068,3.4031,-13.32,0.48,56.82
19.382,-7.246,-9.0848,-2.0165,-0.070555,2.9422,-13.26,1.44,57.18
15.159,-1.975,-6.3335,-2.5412,0.85094,2.4664,-12.66,3.0,57.78
12.912,3.1872,-3.7728,-2.5693,0.75198,2.2095,-12.36,3.66,58.2
10.665,7.7636,-1.8932,-2.0684,0.44624,1.8592,-12.0,4.32,58.74
6.3062,12.449,-1.1441,-1.1017,0.38332,1.0091,-11.28,5.4,59.46
5.38,10.719,-2.1384,-0.61453,0.43402,0.21838,-10.98,5.76,59.7
5.3528,9.902,-2.4789,-0.58674,0.63866,-0.62675,-10.68,6.12,60.24
5.4481,11.114,-1.7843,-0.50641,0.60934,-1.5473,-10.74,6.48,61.02
5.5435,10.134,-1.4982,-0.18204,0.20311,-2.5079,-10.8,6.72,61.44
5.8431,7.5457,-1.5663,0.099571,-0.073609,-3.4621,-10.8,6.9,61.8
10.188,3.8954,-3.4187,0.20128,-0.041539,-4.8771,-10.74,6.42,62.46
17.053,4.4539,-4.2495,0.33995,0.34361,-5.6847,-10.98,5.88,62.64
18.919,5.4073,-4.9442,1.0082,-0.010996,-5.9672,-11.16,4.8,62.4
19.45,4.6445,-6.2245,1.9111,-0.61209,-5.6392,-11.52,3.6,61.98
19.532,-8.3901,-7.8045,2.7614,-1.2761,-5.6884,-11.94,1.2,61.14
19.532,-15.663,-8.0632,2.441,-1.6649,-5.1472,-12.24,0.06,60.66
15.337,-9.2891,-2.6423,1.7077,-1.0446,-4.4868,-12.72,-2.4,60.42
10.637,-9.0303,-1.5527,1.8323,0.67104,-3.8451,-13.14,-3.48,60.24
6.5378,-8.7306,-0.8036,1.8909,0.99143,-3.4163,-13.56,-4.62,60.12
3.2416,-7.7091,-0.40861,2.0629,1.1109,-2.4764,-13.8,-5.82,59.88
0.28603,-6.9872,0.38137,2.1148,0.79565,-1.0015,-14.22,-6.78,59.64
-3.0101,-7.4231,2.5879,1.8894,1.0061,-0.1518,-14.76,-8.58,59.22
-3.0101,-7.4231,2.5879,1.569,1.3228,0.63561,-14.76,-8.58,59.22
-6.9464,-6.7421,3.732,1.1414,1.5284,1.3735,-15.3,-9.06,58.2
-6.1155,-6.0474,3.3642,0.66065,1.584,1.8867,-15.42,-9.18,57.78
-5.1076,-6.0611,2.6696,0.062308,1.0119,2.8366,-15.66,-8.88,57.42
-1.5119,-8.2812,0.027241,-0.1857,0.52504,3.488,-16.08,-7.68,57.0
0.29965,-9.7658,-0.6674,-0.38026,0.27367,4.116,-16.26,-6.96,56.76
3.051,-10.924,-0.47671,-1.1176,0.13195,4.8698,-16.56,-5.58,56.16
16.304,-15.854,-3.0373,-1.6918,0.59071,5.3261,-16.44,-4.74,55.74
19.327,-19.068,-7.8998,-2.4899,1.9065,5.3228,-16.14,-4.02,55.32
19.477,-19.314,-9.2482,-2.6334,2.178,5.1585,-15.96,-3.48,54.9
19.532,-14.22,-8.9758,-2.9636,0.71319,3.7031,-15.96,-2.28,54.78
19.532,-8.6898,-7.7364,-3.0693,0.30696,3.0116,-15.78,-1.56,54.84
18.565,-3.9635,-5.5707,-3.218,0.66615,2.5968,-15.66,-0.78,55.14
11.387,4.9578,-1.7298,-2.9661,0.81153,2.4059,-15.06,0.72,55.68
8.7987,8.4719,-0.35413,-2.6615,1.357,2.2721,-14.64,1.5,56.04
7.8045,9.9973,-0.1362,-2.0617,1.5076,1.6622,-14.28,2.04,56.34
6.17,10.828,-0.25879,-1.4966,1.1558,0.94348,-13.8,2.64,56.7
4.4811,11.073,-0.89894,-0.83994,0.78221,0.18082,-13.38,3.18,57.72
3.7865,11.319,-0.51757,-0.36102,0.51618,-0.58429,-13.56,3.36,58.2
3.6911,10.243,-0.21793,0.21044,0.44074,-1.8714,-13.8,3.72,58.92
5.1213,8.54,-0.44947,0.50121,0.50244,-2.7779,-14.34,3.78,59.46
6.4288,6.3743,-0.53119,0.63438,0.56108,-3.2837,-14.7,3.84,59.64
12.967,3.5004,-0.8036,1.1112,0.31215,-4.6783,-15.3,3.72,59.76
17.611,3.0782,-1.5527,1.4542,0.28191,-5.4233,-15.72,3.18,59.52
19.286,3.0646,-3.228,1.7086,0.81062,-5.6392,-16.14,2.34,59.1
19.532,-5.6388,-5.38,2.0565,1.2175,-5.1664,-16.68,-0.3,57.78
19.532,-10.433,-4.1133,2.7626,-1.4227,-4.9279,-16.86,-1.56,57.12
19.532,-11.019,-1.8387,2.6808,-2.2437,-4.2727,-17.04,-2.76,56.7
18.115,-10.174,-0.83084,2.4273,-1.2352,-3.8387,-17.28,-3.96,56.4
7.1915,-7.9951,0.58567,2.3204,0.028405,-3.0888,-17.88,-6.18,55.86
3.9635,-6.7829,0.46309,2.3753,0.9276,-2.1805,-17.82,-7.32,55.56
1.5391,-5.7614,0.21793,2.5107,1.131,-1.1469,-18.06,-8.46,55.32
-0.89894,-5.7205,0.040861,2.4517,1.0119,0.13653,-18.36,-10.26,54.54
-3.3234,-5.8567,-0.20431,2.2648,1.3405,0.87262,-18.36,-10.8,54.3
-5.5843,-6.0202,-0.14982,1.8341,1.7834,1.5562,-18.24,-11.16,53.76
-4.7535,-6.4152,1.6753,1.1958,1.7452,1.8836,-18.3,-11.22,52.98
-3.514,-5.489,2.3018,0.48655,0.84513,1.8772,-18.36,-10.68,52.44
-4.2223,-4.1678,1.3076,0.19884,-1.0632,2.5171,-18.6,-9.18,52.56
-3.2416,-6.7693,0.14982,-0.17287,-0.98074,3.065,-18.66,-8.34,52.56
0.39499,-9.1529,-0.095342,-0.96272,-0.31337,3.5265,-18.72,-7.5,52.5
2.8194,-9.2755,0.20431,-1.518,-0.30177,3.9328,-18.78,-6.66,52.32
16.535,-11.482,-0.38137,-1.9083,-0.090408,4.1505,-18.06,-4.56,51.78
19.15,-17.815,-3.3234,-2.5513,1.5434,3.9685,-17.7,-3.72,51.6
19.491,-19.314,-5.5707,-3.0794,1.9233,3.47,-16.86,-2.46,51.42
19.532,-10.937,-6.9328,-3.04,0.37813,2.1087,-16.86,-2.16,51.66
19.532,-7.7636,-6.4288,-2.8616,-0.043677,1.693,-16.86,-1.74,51.96
18.742,-3.7047,-5.3392,-2.8995,-0.01069,1.554,-16.92,-1.44,52.68
14.833,-0.14982,-4.127,-3.0387,0.23824,1.5705,-16.86,-1.02,53.28
7.8862,4.2223,-1.1169,-3.0555,0.78252,1.4322,-16.08,-0.36,54.72
6.2654,5.094,0.57205,-2.6948,1.1903,1.2132,-15.96,-0.18,55.5
4.3858,7.7364,0.76274,-2.3521,1.1399,1.025,-15.72,0.18,56.64
2.6423,9.5887,-0.10896,-1.938,1.0122,0.81551,-15.66,0.24,57.18
2.0431,9.9565,-0.98067,-1.0806,0.56352,0.29932,-15.72,0.18,57.66
1.58,9.2891,-2.7786,-0.63622,0.32284,-0.23427,-16.38,-0.42,58.62
1.9613,8.54,-2.7649,-0.25992,0.13531,-1.1011,-16.86,-0.6,59.1
2.7377,8.1722,-1.4029,0.055283,-0.19242,-2.0009,-17.34,-0.6,59.7
6.7557,7.6683,-0.32689,0.69303,-0.31582,-3.1704,-17.88,-0.42,60.3
11.564,7.5729,-1.4438,0.8543,-0.087965,-3.5226,-18.12,-0.78,60.48
15.677,7.8453,-2.4789,1.0876,0.55222,-4.0913,-18.3,-1.08,60.48
19.477,3.337,-5.9521,2.2984,0.4722,-4.3433,-18.6,-2.94,60.0
19.532,-4.4947,-6.3607,2.9654,-0.97005,-5.0054,-18.6,-4.2,59.46
19.532,-10.283,-5.6797,2.8509,-2.3479,-4.3524,-18.06,-6.12,58.38
18.701,-10.297,-2.7649,2.5727,-1.679,-4.0088,-17.82,-6.9,58.08
11.577,-9.6023,-1.2531,2.4416,-1.0895,-3.7626,-17.58,-7.68,57.9
8.8668,-9.0575,-0.91256,2.2465,0.039095,-3.0253,-17.34,-8.46,57.78
3.5413,-7.1915,-0.054481,2.1047,0.82436,-1.7355,-16.92,-9.78,57.42
1.6753,-6.9872,0.35413,2.0253,0.76389,-0.78466,-16.74,-10.26,57.3
-0.12258,-7.069,0.76274,1.8005,0.9108,0.089186,-16.62,-10.86,57.12
-2.6015,-7.0281,1.2667,1.4331,1.1692,1.0443,-16.14,-11.46,56.58
-4.2904,-6.5241,1.2939,1.2853,1.2156,1.2923,-15.84,-11.52,56.28
-5.4073,-5.5162,1.58,0.87781,1.2908,1.66,-15.54,-11.46,55.98
-5.0804,-4.7807,1.5391,0.13286,0.64171,2.0644,-15.3,-10.86,55.5
-4.3177,-5.4209,1.3212,-0.25473,-0.030849,2.554,-15.18,-9.18,55.62
-3.1872,-6.3062,1.2531,-0.63561,-0.093462,3.0849,-15.48,-8.34,55.62
0.1362,-7.0009,-0.35413,-1.1145,0.31337,3.8124,-15.84,-7.08,55.56
8.3084,-8.6625,-0.76274,-1.3891,0.19303,4.4236,-16.08,-6.54,55.44
15.772,-12.027,-1.6889,-1.5073,0.70188,4.9917,-16.26,-5.82,55.26
19.477,-19.382,-7.927,-2.0525,1.321,5.0583,-16.44,-4.68,54.96
19.532,-16.222,-8.9077,-2.0663,1.5904,3.634,-16.62,-4.26,55.02
19.532,-12.422,-9.0303,-2.1151,1.1075,1.9682,-16.86,-3.84,55.08
18.415,-4.1542,-6.6059,-2.1683,1.0327,1.3625,-17.46,-2.7,56.04
15.868,0.76274,-5.4073,-2.3839,1.1451,1.0577,-17.76,-1.74,56.34
12.476,4.5901,-3.8409,-2.35,1.1374,0.99876,-17.94,-0.96,56.64
7.4367,8.8396,-2.0431,-1.9242,0.85063,0.63805,-18.36,0.3,57.6
5.5435,9.793,-1.7843,-1.4016,0.47525,0.30055,-18.6,0.84,57.9
3.4459,10.297,-1.8932,-1.0278,0.45265,-0.10751,-18.84,1.26,58.26
2.0022,9.7113,-2.0431,-0.71196,0.42699,-0.58032,-19.74,1.98,59.1
2.4517,8.6625,-1.362,-0.2868,0.16157,-1.4563,-20.28,2.34,59.16
2.7377,7.9951,-1.0079,0.076358,-0.0076358,-2.2452,-20.88,2.58,59.52
4.2632,5.6661,-0.027241,0.45815,-0.098655,-3.1918,-21.96,2.88,60.24
5.7069,3.7184,-0.095342,0.76358,-0.086132,-4.018,-22.44,2.82,60.3
8.9077,3.6503,-0.38137,1.0165,0.088575,-4.6643,-22.92,2.7,60.18
17.475,6.674,-1.7298,1.3515,0.57574,-4.9556,-23.46,1.08,59.04
19.286,5.2166,-3.9227,2.0,0.73121,-4.2092,-23.46,-0.24,58.32
19.504,-1.5936,-4.9306,2.3851,-0.51862,-3.9609,-23.64,-1.44,57.72
19.532,-10.188,-3.2553,2.532,-2.1112,-3.4013,-23.76,-3.9,56.34
19.532,-8.9894,-1.7706,2.2318,-1.8799,-3.0546,-23.94,-5.1,56.04
16.113,-8.0224,-0.7355,1.9236,-0.68692,-2.8488,-23.88,-6.36,55.8
7.5729,-6.0202,-0.53119,1.7443,0.4386,-2.2135,-23.94,-8.58,55.26
5.4754,-5.3937,-0.54481,1.7391,0.95081,-1.0043,-23.94,-9.72,55.08
2.2474,-4.5764,-0.46309,1.7529,0.82284,-0.5962,-23.88,-10.8,54.72
-1.3893,-4.8625,0.31327,1.5901,0.45235,0.60415,-23.82,-12.36,53.94
-3.5413,-5.8567,0.7355,1.3515,0.62553,1.255,-23.64,-12.72,53.76
-7.0962,-6.7966,1.1713,1.0369,1.0223,1.7987,-23.46,-12.96,53.34
-7.1507,-6.5241,1.2531,0.60445,1.2834,2.2336,-23.46,-12.66,53.28
-5.1213,-5.8704,1.185,-0.095906,0.4667,2.8521,-23.7,-12.0,53.4
-3.3097,-6.1292,0.83084,-0.44899,-0.34361,3.4004,-23.82,-10.86,53.52
-1.866,-7.4776,0.25879,-0.71807,-0.45907,3.9343,-23.82,-10.14,53.52
0.47671,-7.8589,-0.17706,-1.0559,-0.12462,4.4172,-23.7,-9.18,53.4
3.2144,-8.036,-0.44947,-1.4087,0.083383,4.6795,-23.52,-8.22,53.16
17.529,-11.155,-2.7786,-1.7727,0.16829,4.6542,-23.04,-6.42,52.8
19.286,-15.418,-4.8761,-2.0754,1.014,4.1377,-22.74,-5.4,52.8
19.532,-12.572,-7.1779,-2.2581,1.1179,3.82,-22.44,-3.6,52.98
19.532,-8.5808,-7.8317,-2.014,0.50183,1.8112,-22.5,-2.7,53.34
19.532,-7.4231,-8.0224,-1.9038,0.38912,1.1041,-22.5,-1.86,53.58
15.99,-1.4165,-5.5299,-2.0308,0.44135,0.64996,-22.32,-0.18,54.42
12.0,1.5527,-4.0589,-2.2901,0.6017,0.52809,-22.14,0.6,54.96
8.7443,4.7399,-1.3348,-2.3103,0.97647,0.43952,-21.96,1.26,55.56
5.3119,9.902,-0.8717,-1.9807,1.1118,0.33109,-21.78,2.52,56.64
3.8954,10.406,-1.1986,-1.0241,0.91813,-0.1912,-21.72,2.82,57.3
3.1872,9.6432,-2.0294,-0.58551,0.85949,-0.72265,-22.02,3.06,57.78
2.8058,8.7851,-2.3972,-0.26176,0.81367,-1.3137,-22.44,3.36,58.26
3.2144,6.8238,-2.0839,0.10599,0.77183,-1.9258,-23.16,3.48,59.16
4.2495,5.2847,-1.9613,0.51068,0.36805,-2.8738,-23.76,3.36,59.4
6.6467,2.9284,-1.7025,0.78496,0.19487,-3.2,-24.6,2.64,59.52
8.8124,2.4653,-1.6208,1.2837,-0.31612,-4.0998,-24.84,1.98,59.22
10.256,3.4187,-1.3893,1.4215,0.12217,-4.536,-25.02,1.02,58.8
18.592,7.0417,-2.0567,1.7706,0.62369,-4.4557,-25.02,-1.38,57.3
19.409,4.3313,-3.4596,2.4099,0.48167,-3.8744,-24.78,-2.52,56.4
19.518,-1.9068,-5.2166,2.8952,-0.69975,-3.8152,-24.66,-3.9,55.56
19.532,-9.5887,-3.7728,2.4523,-2.2089,-2.8729,-24.42,-6.3,54.06
18.061,-8.7443,-1.5255,2.2031,-1.9319,-2.6203,-24.3,-7.44,53.46
13.157,-7.641,-0.054481,1.7501,-0.78221,-2.328,-24.06,-8.58,52.92
6.2381,-6.5786,-0.31327,1.5956,0.67898,-1.4419,-23.22,-10.74,52.02
3.228,-5.9112,-0.70826,1.5672,1.0531,-0.71899,-22.92,-11.64,51.54
-0.44947,-4.9442,-0.46309,1.5715,0.8995,0.11637,-22.38,-12.3,51.24
-1.4982,-5.7069,0.39499,1.4462,0.54886,1.2654,-21.42,-13.14,50.7
-3.2553,-7.1779,1.4574,1.1677,0.60873,1.894,-21.0,-13.14,50.58
-4.2223,-7.4231,1.7298,0.73121,0.81948,2.3805,-20.7,-12.9,50.58
-5.2847,-5.5435,2.0567,0.25198,0.77733,2.6426,-20.58,-12.36,50.7
-4.018,-6.279,1.7434,-0.12614,0.50335,3.0387,-20.28,-10.92,51.06
-2.1656,-7.3277,1.6344,-0.59407,0.23213,3.6417,-20.1,-10.26,51.12
1.7434,-8.1177,0.35413,-1.0956,0.31582,4.3539,-19.56,-8.7,51.24
7.8453,-9.0303,0.32689,-1.2773,0.47098,4.5751,-19.32,-7.86,51.18
16.344,-12.79,-0.99429,-1.6527,1.033,5.1432,-19.08,-6.24,50.76
19.341,-18.728,-4.5492,-2.1774,1.2688,4.9831,-18.78,-4.98,50.82
19.532,-13.239,-7.2869,-2.2736,1.5937,3.7837,-18.48,-3.6,51.06
19.532,-8.9894,-7.2052,-2.1591,1.0253,2.3818,-18.9,-2.22,51.78
19.532,-4.6718,-6.1836,-2.0409,0.78741,1.6451,-18.84,-0.72,52.8
19.45,-3.6366,-5.2847,-2.1328,0.88331,1.1246,-19.08,-0.12,53.58
13.77,1.1577,-3.4323,-2.1576,0.75472,0.92363,-19.38,1.14,54.96
9.3436,4.7807,-2.3291,-2.0843,0.85674,0.7251,-19.74,2.34,56.22
6.5922,8.0905,-1.2803,-1.7709,1.0296,0.55986,-19.98,3.24,57.42
5.1894,10.351,-1.7162,-1.303,1.1298,0.25962,-20.22,4.38,58.26
4.8625,10.188,-2.7786,-0.8094,0.98991,-0.22541,-20.46,5.46,58.68
4.413,8.7987,-2.4789,-0.46487,0.62766,-0.77855,-20.22,5.88,58.8
4.2495,7.5729,-1.9205,0.12278,-0.055283,-1.6417,-19.98,6.18,58.86
4.4402,6.1973,-1.5255,0.48564,-0.36377,-2.3897,-19.98,5.94,58.92
5.3528,4.8625,-1.7979,0.69119,-0.37599,-3.2721,-20.1,5.7,58.8
8.1313,2.5061,-1.0896,0.94379,-0.22571,-4.1001,-20.52,4.32,58.74
11.564,2.7377,-0.43585,1.2269,-0.35308,-4.7299,-20.46,3.36,58.62
18.714,4.0452,-1.1577,1.6277,-0.70341,-4.7559,-20.22,0.66,57.9
19.436,0.95342,-3.4323,2.5656,-0.87934,-4.1768,-20.04,-0.72,57.3
19.518,-7.5457,-5.9249,2.6854,-0.92546,-4.1285,-19.74,-1.86,56.76
19.532,-11.931,-4.6445,2.3906,-1.6863,-3.5546,-18.96,-3.78,55.98
19.477,-9.9701,-2.1656,2.043,-1.3033,-3.1728,-18.6,-4.8,55.68
10.733,-7.8998,-1.0351,1.8164,0.014355,-2.5782,-17.88,-6.42,55.38
6.5786,-6.96,-0.6674,1.74,0.3656,-2.2339,-17.52,-7.32,55.2
2.8603,-5.7342,-0.51757,1.624,0.76511,-1.4215,-17.22,-8.04,55.14
1.7843,-5.094,-0.19068,1.4963,0.75289,-0.57177,-17.04,-8.7,54.78
-0.7355,-4.9578,0.8717,1.3576,0.43494,0.61087,-15.96,-9.42,54.24
-2.6968,-6.1155,1.4438,1.1921,0.42394,1.2233,-15.54,-9.3,53.76
-4.8625,-7.1234,1.6344,0.91324,0.70799,1.762,-15.3,-8.34,53.34
-6.8102,-4.7126,1.185,0.23793,1.3216,2.1252,-15.42,-7.68,53.46
-5.8567,-4.1678,0.74912,-0.20586,1.4285,2.4685,-15.6,-6.84,53.58
-4.0452,-5.5026,0.43585,-0.66432,1.04,3.0714,-15.84,-6.18,53.52
-1.7162,-7.4231,0.5993,-1.0913,0.84544,3.6692,-16.08,-5.28,53.1
-0.76274,-7.8317,0.34051,-1.4575,1.1872,4.0968,-16.26,-4.68,52.8
6.9464,-10.978,0.68102,-1.8769,1.7715,4.6023,-16.26,-3.9,52.14
17.162,-16.481,0.12258,-2.1237,1.6222,5.3726,-16.44,-3.48,51.72
19.382,-19.355,-2.8875,-2.6686,0.7813,5.5091,-16.62,-3.18,51.48
19.504,-19.491,-3.9771,-3.2449,1.3222,4.4636,-16.74,-2.64,51.48
19.532,-12.245,-5.5707,-2.9459,1.6616,2.0272,-17.52,-1.38,52.08
19.532,-6.9872,-4.9578,-2.4936,1.5595,1.2474,-17.76,-0.6,52.44
18.905,-2.4925,-3.4323,-2.1979,1.0867,0.70555,-17.94,0.24,52.8
11.046,4.7126,-0.28603,-2.1017,1.0156,0.61881,-18.12,1.68,53.28
9.4389,6.8238,0.21793,-2.0061,1.1289,0.56872,-18.0,2.34,53.58
7.7636,9.616,0.054481,-1.6686,1.2709,0.35247,-18.06,2.82,54.0
5.5707,11.645,-1.0896,-0.87506,1.0067,-0.29932,-18.54,3.9,54.72
4.8216,10.787,-1.3893,-0.32926,0.47709,-0.76633,-18.72,4.08,55.08
4.0589,10.052,-1.2395,0.14478,0.18662,-1.3268,-19.2,4.38,55.5
4.5356,7.5593,-1.0079,0.57116,0.15852,-2.4499,-19.74,5.22,56.22
5.5843,6.1836,-0.78998,1.1344,-0.092241,-3.2144,-19.98,5.52,56.52
8.0088,4.2904,-1.0624,1.3341,-0.32315,-4.0369,-20.4,5.58,56.7
12.177,2.7786,0.49033,1.7822,-0.39156,-4.6398,-20.82,4.02,56.28
17.638,3.6366,-0.38137,2.2663,-0.5565,-4.8579,-20.88,2.58,55.5
19.3,2.0294,-2.0975,2.5531,-0.052229,-4.7076,-20.46,0.9,54.6
19.532,-9.7385,-3.051,2.8918,-0.88056,-4.5684,-19.74,-1.8,52.62
19.532,-10.515,-2.7104,2.9239,-2.332,-4.3069,-19.62,-2.94,51.96
19.532,-10.093,-1.6889,2.5284,-2.1148,-3.8628,-19.38,-4.08,51.54
13.797,-9.1529,0.49033,2.1023,-0.88973,-3.3967,-19.08,-6.42,50.94
9.2891,-7.3822,1.185,1.8549,0.18876,-2.7232,-18.96,-7.44,50.64
4.6718,-6.17,0.57205,1.8448,0.80268,-1.9178,-18.78,-8.4,50.16
0.85808,-5.7205,0.054481,1.8155,0.84483,-0.49358,-18.42,-10.62,49.56
-0.6674,-5.8704,0.43585,1.4771,0.75442,0.45601,-18.12,-11.58,49.08
-1.6072,-6.0883,0.6674,1.1564,0.81001,1.2593,-17.58,-12.3,48.48
-4.4402,-6.3607,0.76274,0.78893,0.93065,1.9474,-17.22,-12.6,47.88
-6.5105,-6.0883,1.0896,0.36346,0.88698,2.3363,-16.74,-12.0,47.22
-6.1836,-5.7614,1.2531,-0.14752,0.74006,2.5049,-17.1,-11.4,47.22
-3.6911,-6.3743,0.51757,-0.55619,0.40439,2.9459,-17.7,-10.5,47.76
-1.8115,-7.5457,0.027241,-1.0165,0.080329,3.6624,-17.82,-10.08,47.76
0.68102,-8.4582,-0.54481,-1.3244,-0.040928,4.142,-17.88,-9.6,47.58
9.8203,-10.515,0.12258,-1.7046,-0.25962,4.5497,-17.64,-8.52,47.04
17.897,-14.56,-0.65378,-2.1075,-0.051924,4.8377,-17.4,-8.04,46.68
19.436,-18.088,-3.8273,-2.6609,0.82039,4.7046,-17.16,-7.56,46.56
19.532,-10.515,-5.4481,-2.6673,0.52351,2.649,-16.86,-6.54,46.5
19.532,-8.2403,-5.8023,-2.4398,0.31246,1.7086,-16.8,-5.94,46.56
19.532,-4.5083,-5.8295,-2.558,0.87598,1.1591,-16.8,-5.46,46.86
14.587,1.8524,-3.3506,-2.7886,0.82406,0.86804,-16.74,-4.14,47.7
10.855,5.2575,-1.4846,-2.8414,0.67165,0.74892,-16.74,-3.66,47.94
7.9134,8.4446,-0.58567,-2.4025,0.79077,0.6298,-16.68,-3.24,48.42
4.8625,9.7658,-0.61292,-1.832,0.77794,0.15608,-16.86,-2.34,49.32
4.1951,8.2267,-1.3348,-1.0479,0.38546,-0.21869,-17.04,-2.28,49.8
3.1599,7.75,-1.58,-0.92393,0.2138,-0.3992,-17.16,-2.28,50.16
1.7706,8.1586,-1.3484,-0.60964,-0.0015272,-0.82833,-17.52,-2.22,50.46
0.40861,7.927,-1.2258,0.022907,-0.14416,-1.5055,-17.94,-2.16,51.06
1.4438,5.6388,-0.76274,0.40653,-0.10293,-2.1313,-18.96,-2.34,51.9
3.7728,4.4402,-0.36775,0.70983,-0.000916,-2.9077,-19.26,-2.4,52.2
8.1041,5.0259,-0.53119,1.0379,-0.089186,-3.5222,-19.62,-2.7,52.38
16.222,7.6955,-2.0294,1.5189,-0.15577,-3.9398,-19.92,-4.2,52.02
19.123,7.246,-4.0589,1.8014,-0.057116,-3.7965,-19.74,-5.22,51.6
19.436,3.5958,-4.7399,2.7742,-0.478,-3.6872,-19.32,-6.18,51.0
19.532,-11.686,-4.6037,3.2061,-2.2721,-4.1597,-18.72,-7.98,50.1
19.532,-11.945,-3.2008,2.416,-1.8586,-3.747,-18.36,-8.94,49.86
12.49,-7.1779,-0.55843,1.8708,0.34483,-3.3268,-17.88,-10.62,49.8
8.9622,-6.456,-0.61292,1.9997,0.98502,-2.5986,-17.58,-11.34,49.92
6.96,-6.3062,-0.78998,2.0629,1.0269,-1.7572,-17.28,-12.12,49.92
1.6481,-5.0259,-1.0079,2.0378,0.89186,-0.93065,-16.74,-13.5,49.86
-0.28603,-4.8761,-0.31327,1.9074,0.64141,-0.035125,-16.56,-13.92,49.74
-1.5391,-5.1485,0.47671,1.6829,0.5287,0.82131,-16.62,-14.28,49.68
-4.5083,-6.5105,1.6617,1.2346,0.83933,1.7199,-16.08,-14.1,49.8
-5.5299,-6.5786,1.6208,0.84147,1.0311,2.0198,-16.14,-13.68,49.98
-6.5241,-6.0611,1.471,0.58002,1.0583,2.0861,-16.14,-13.14,50.28
-4.8625,-4.8488,1.076,-0.091324,0.86773,2.5039,-17.1,-12.0,51.06
-2.7922,-5.9657,0.78998,-0.44471,0.28191,3.0158,-17.46,-11.58,51.36
-0.69464,-6.8238,0.027241,-0.84544,-0.15058,3.5076,-17.7,-10.92,51.36
0.55843,-7.0553,-0.38137,-1.1664,-0.2587,3.996,-17.82,-10.14,51.18
7.5457,-14.097,-1.2939,-1.3943,-0.096822,4.521,-17.88,-9.36,51.06
19.355,-19.164,-5.3528,-2.3097,0.8094,4.9468,-18.06,-8.16,50.94
19.504,-19.246,-7.7636,-2.39,0.99815,3.9972,-18.18,-7.8,50.76
19.532,-16.903,-8.4174,-2.3757,0.026573,2.5,-18.54,-7.32,50.76
19.532,-8.1858,-6.8238,-2.5082,0.95753,1.9065,-18.84,-6.12,51.54
18.701,-3.0918,-4.9442,-2.8091,1.941,1.4685,-19.08,-5.4,51.96
13.13,4.6445,-2.0567,-2.9309,1.9878,1.1793,-19.38,-3.54,52.92
9.8475,7.927,-1.3212,-2.7058,1.5409,0.95539,-19.62,-2.88,53.1
7.9815,9.616,-1.362,-2.1322,1.2614,0.73884,-19.74,-2.28,53.34
5.094,11.346,-1.6344,-1.4108,1.0843,0.14813,-19.98,-1.92,53.76
3.0237,10.474,-1.975,-0.95661,0.74831,-0.29749,-20.64,-1.14,54.54
1.9886,9.902,-1.4438,-0.57635,0.32926,-0.75686,-21.3,-0.9,54.9
1.6753,9.1801,-0.040861,-0.12737,0.041233,-1.3393,-22.56,-0.66,55.74
2.5742,7.9543,0.51757,0.35675,0.031154,-2.0024,-23.04,-0.48,56.28
4.1406,6.456,0.6674,0.832,0.18112,-2.7617,-23.64,-0.24,56.64
9.1393,4.2495,0.027241,1.4145,-0.1573,-3.8176,-24.18,-0.72,56.94
14.301,4.4539,-0.58567,1.7159,-0.59376,-4.2974,-24.36,-1.62,56.76
18.633,6.5105,-2.2337,2.1417,-0.68722,-4.2858,-24.36,-2.76,56.22
19.518,-2.833,-2.2474,2.963,-0.59284,-4.0216,-23.58,-5.34,54.72
19.532,-9.9292,-2.1929,3.8683,-2.2379,-4.7012,-23.1,-6.18,54.24
19.532,-12.408,-3.051,3.8582,-2.8283,-4.6695,-22.62,-6.96,53.94
16.835,-11.005,-1.757,1.9077,-0.87934,-4.0729,-21.48,-8.28,53.76
12.64,-8.1858,-0.44947,1.7538,0.37782,-3.5748,-21.0,-8.94,53.88
8.9894,-7.5048,-0.095342,1.9984,0.70036,-2.7544,-20.52,-9.6,54.0
2.2201,-7.3822,-0.40861,1.8897,0.38851,-1.4853,-19.5,-10.68,53.82
-0.91256,-6.5241,-0.081722,1.6667,0.28894,-0.56566,-18.84,-11.1,53.82
-3.0918,-6.1428,0.76274,1.4737,0.34972,-0.086132,-18.3,-11.46,53.7
-4.4811,-6.279,1.9886,0.9331,0.84605,1.1539,-17.28,-11.28,53.52
-5.1757,-6.4152,1.9477,0.6408,1.1002,1.7743,-16.86,-10.68,53.46
-6.0202,-6.1973,1.3348,0.28253,1.2391,2.2361,-16.68,-9.78,53.46
-3.8273,-6.7421,0.095342,-0.39981,0.95845,2.8818,-17.28,-8.04,54.18
-1.9205,-7.9543,0.21793,-0.6579,0.67989,3.1808,-17.58,-7.38,54.42
-1.3212,-8.2403,0.27241,-1.2333,0.0015272,3.9456,-17.64,-6.9,54.48
1.3484,-8.9894,0.14982,-1.4801,0.038485,4.4746,-17.7,-5.46,53.88
6.9328,-11.046,0.76274,-1.7672,0.23671,5.1472,-17.4,-4.74,53.4
16.29,-15.99,-0.81722,-2.19,0.71685,5.7974,-16.98,-4.02,53.04
19.477,-18.891,-6.0202,-2.821,1.4471,5.5073,-16.38,-2.94,52.56
19.518,-16.549,-6.2926,-2.7996,0.7703,3.7055,-16.14,-2.52,52.32
19.532,-12.83,-6.3879,-2.719,0.16677,2.6096,-16.08,-1.92,52.44
19.532,-4.5901,-5.1894,-2.7571,1.1466,2.0351,-15.48,-0.24,52.98
18.238,-0.92618,-3.4868,-2.949,1.7462,1.5843,-15.18,0.6,53.34
16.399,1.3893,-1.7979,-3.0073,1.5956,1.2559,-14.88,1.32,53.76
9.5479,10.202,-0.14982,-2.6114,1.3131,1.0256,-14.04,2.46,54.54
7.5457,12.503,-0.6674,-1.5999,1.0479,0.4554,-13.74,3.12,54.9
5.8976,13.43,-1.2258,-0.88026,0.80512,-0.22602,-13.74,3.6,55.32
4.4402,9.8203,-1.9205,-0.47281,0.53665,-0.72113,-13.68,3.96,56.34
3.9499,9.5615,-1.4029,-0.16493,0.37415,-1.2987,-13.86,4.02,56.88
3.7865,8.6898,-0.5993,0.29841,0.19884,-2.036,-14.28,4.14,57.3
6.5378,5.1894,-0.31327,0.75014,-0.075136,-2.8286,-15.12,4.38,58.32
7.7091,4.2359,-0.25879,1.0986,-0.25229,-3.6774,-15.6,4.44,58.74
9.9156,3.2144,-0.12258,1.3763,-0.12889,-4.3784,-15.78,4.14,58.74
15.949,5.1757,-1.2939,1.7733,-0.041539,-4.8497,-16.32,2.34,58.02
19.096,5.3664,-2.547,2.2462,-0.012523,-4.4419,-16.26,1.08,57.18
19.504,-1.0896,-2.6968,2.8891,-0.71044,-4.3707,-16.08,-0.06,56.34
19.532,-11.836,-3.0918,3.335,-2.2849,-4.4822,-16.14,-1.8,54.9
19.532,-13.062,-1.9341,2.7028,-2.2755,-3.9349,-16.26,-2.58,54.42
17.053,-11.25,-0.83084,2.0934,-0.77641,-3.5894,-16.26,-3.48,54.12
8.4855,-7.8317,-0.21793,1.9132,0.94104,-2.7465,-16.5,-5.04,53.28
6.0747,-7.3958,-0.81722,2.0626,1.1518,-1.949,-16.62,-5.76,53.1
3.5958,-6.8238,-1.0488,2.1396,0.79535,-1.0928,-16.74,-6.54,52.74
-0.7355,-6.5105,-0.51757,2.0776,0.48991,-0.21808,-16.56,-7.32,51.84
-1.8387,-6.6195,-0.51757,1.843,0.3992,0.57788,-16.44,-7.38,51.3
-3.3778,-6.9055,0.7355,1.5568,0.49877,1.2911,-16.32,-7.44,51.0
-5.2438,-7.4367,1.4846,0.89034,0.82253,2.087,-16.44,-6.54,50.82
-5.3528,-5.8295,1.362,0.22724,0.89889,2.284,-16.74,-5.76,51.18
-4.2223,-5.0668,1.1169,-0.10507,0.78099,2.6961,-17.16,-5.04,51.48
-1.2258,-7.5457,-0.040861,-0.37324,0.4664,3.3051,-17.52,-3.9,51.9
0.31327,-8.0224,-0.70826,-1.1787,0.23457,4.0003,-17.28,-3.3,51.84
3.1599,-8.3765,-0.47671,-1.3882,0.25626,4.2742,-17.16,-2.52,51.66
16.426,-13.838,-0.51757,-1.9972,1.2492,4.9095,-16.44,-1.32,51.36
19.15,-18.633,-2.2882,-2.9755,2.0064,4.8139,-15.96,-0.6,51.18
19.532,-13.307,-4.699,-3.2073,2.1112,3.8109,-15.54,-0.12,51.42
19.532,-10.76,-5.1349,-3.0122,0.92882,2.5036,-15.66,0.24,51.78
19.532,-4.1814,-4.8352,-2.693,0.59987,2.0959,-15.78,1.02,52.74
17.257,-1.3757,-3.514,-2.7104,1.1701,1.5702,-15.9,1.56,53.22
14.342,1.58,-2.1929,-2.8106,1.2193,1.3497,-15.9,2.1,53.82
11.85,4.808,-1.3757,-2.7538,1.2483,1.0794,-15.84,2.52,54.36
8.3765,9.2891,-0.31327,-2.2553,1.2129,0.81551,-15.72,3.12,55.38
6.8919,10.433,-1.3757,-1.576,0.93401,0.34789,-15.84,3.3,56.04
5.5299,9.616,-2.0567,-1.0192,0.58277,-0.29566,-16.26,3.3,56.82
2.9556,9.0848,-1.471,-0.5003,0.19884,-1.0748,-16.8,3.18,58.02
2.6151,8.8941,-0.62654,-0.11668,0.11515,-1.6692,-17.22,3.12,58.74
2.7786,8.4582,-0.12258,0.3207,0.20281,-2.3992,-17.82,3.0,59.28
5.1757,6.0338,0.10896,0.71105,0.20525,-3.138,-18.24,2.94,59.76
7.4776,4.9578,0.040861,1.0501,0.013439,-3.8191,-18.36,2.52,59.7
10.12,4.2904,0.027241,1.4575,-0.12278,-4.5002,-18.36,0.96,59.4
18.401,7.0826,-0.29965,1.8631,0.084605,-4.3659,-18.18,-0.24,58.86
19.395,4.5764,-1.1577,2.5962,0.038485,-4.0736,-17.88,-1.62,58.14
19.518,-2.0431,-0.68102,3.4865,-1.1154,-4.5567,-17.64,-2.88,57.48
19.532,-6.96,-1.6344,3.5549,-2.1447,-4.331,-17.4,-3.84,56.82
19.532,-9.4798,-1.9613,2.9367,-1.2251,-3.7654,-16.68,-5.7,55.92
17.216,-7.927,-1.185,2.6625,-0.18998,-3.1249,-16.26,-6.42,55.32
8.5127,-7.0962,-0.62654,2.7321,-0.13195,-2.8127,-15.78,-7.62,54.84
5.0123,-7.069,-0.51757,2.6282,-0.19456,-1.7434,-15.54,-8.28,54.48
2.942,-6.7693,-0.38137,2.4896,-0.19639,-1.3378,-15.24,-8.76,54.12
-1.58,-6.4152,0.8036,1.9789,0.10751,-0.10904,-14.58,-9.12,53.58
-2.7786,-6.9055,1.5663,1.66,0.39828,0.63561,-14.1,-9.0,53.4
-3.8001,-7.6819,2.2201,1.3161,0.70616,1.2575,-13.56,-8.7,53.04
-5.7205,-7.3414,1.7706,0.47922,0.81917,1.9248,-12.96,-7.56,52.74
-5.094,-6.3743,1.6889,-0.026267,0.71166,2.2825,-12.84,-6.6,52.92
-3.7456,-7.0962,1.6753,-0.42638,0.54092,2.9398,-12.78,-5.88,52.86
-0.78998,-7.8998,0.85808,-0.94043,0.53176,3.4819,-12.78,-4.56,53.34
2.6968,-7.7772,0.96704,-1.3528,0.50946,4.0522,-12.6,-3.96,53.28
8.8668,-9.6977,0.76274,-1.6072,0.81673,4.5937,-12.42,-3.42,53.28
19.259,-18.101,-3.3778,-2.4038,2.2779,4.8539,-11.76,-2.52,52.74
19.504,-15.8,-4.5901,-2.733,2.4352,4.2932,-11.34,-2.1,52.44
19.532,-12.858,-4.7671,-2.7159,1.3958,2.9825,-11.1,-1.92,52.44
19.532,-7.3686,-5.8295,-2.565,0.94959,2.5345,-11.28,-1.74,52.62
19.532,-4.304,-5.2847,-2.6096,1.0369,2.0446,-11.46,-1.44,52.98
17.747,-1.58,-3.2144,-2.7199,1.1661,1.5999,-11.76,-0.6,53.94
11.673,3.7047,-1.757,-2.7736,1.2944,1.3717,-11.94,-0.18,54.48
9.5342,6.7693,-0.5993,-2.7174,1.346,1.3436,-12.0,0.12,54.96
8.5127,9.9156,-0.21793,-2.3692,1.1952,1.3152,-12.12,0.36,55.62
6.1973,11.945,-0.98067,-1.2657,0.55741,0.56322,-12.42,0.3,56.46
3.6503,10.229,-1.6208,-0.63163,0.2529,-0.11759,-12.6,0.18,56.94
2.7377,9.6432,-1.6072,-0.2865,0.2865,-0.65393,-12.84,0.12,57.48
4.0452,8.54,-0.6674,0.23518,0.40225,-1.7156,-13.68,0.06,58.8
4.8897,7.2188,-0.50395,0.7364,0.053145,-2.3998,-14.04,0.06,59.58
5.5435,6.279,-0.50395,0.96364,-0.16035,-2.7486,-14.46,0.3,60.12
7.6819,4.7399,-0.54481,1.4441,-0.41478,-3.6692,-14.64,0.48,60.6
13.076,4.8761,-0.77636,1.697,-0.39645,-4.0097,-14.4,-0.18,60.72
18.946,4.5764,-1.6481,2.175,-0.64752,-3.864,-14.22,-0.84,60.42
19.463,0.040861,-2.2882,2.8592,-1.0788,-3.7736,-13.62,-1.74,59.82
19.532,-10.869,-3.1327,3.1936,-2.6258,-4.3032,-12.54,-2.76,58.38
19.532,-10.828,-2.7377,2.474,-2.1808,-3.7681,-11.94,-3.06,57.9
19.532,-9.2482,-1.8932,2.3045,-1.489,-3.6081,-11.58,-3.12,57.42
13.089,-7.8317,-0.14982,2.1664,-0.3766,-2.7122,-10.92,-3.24,56.64
9.1393,-7.246,-0.01362,2.069,-0.14355,-2.0036,-10.68,-3.48,56.04
5.6661,-6.1836,-0.17706,2.0113,0.11759,-1.069,-10.26,-3.36,54.9
0.84446,-5.3119,-0.095342,1.9743,0.22419,-0.36285,-10.14,-3.24,54.12
-0.85808,-5.7614,1.0215,1.7663,0.34606,0.40531,-9.78,-3.12,53.46
-1.7706,-6.1836,1.4438,1.489,0.59346,1.0409,-9.6,-3.0,52.74
-3.0782,-6.565,1.6753,1.2358,0.74831,1.4682,-9.48,-1.74,51.48
-4.3858,-6.1019,0.98067,0.97158,0.72449,1.7801,-9.66,-0.72,51.0
-4.4402,-6.4016,0.76274,0.60903,0.53512,1.9248,-9.96,0.12,50.76
-2.1384,-7.7772,1.2122,0.1347,0.38057,2.3949,-10.74,1.38,50.4
0.17706,-7.9951,1.1169,-0.39554,0.24374,2.9337,-10.98,2.04,50.22
2.152,-7.927,0.77636,-1.0788,0.33139,3.5794,-11.04,2.46,49.8
12.122,-11.441,-1.2531,-1.2871,1.0394,3.9294,-10.92,3.48,48.96
18.197,-15.473,-2.3427,-1.6887,1.8207,4.3219,-10.74,4.08,48.66
19.368,-16.699,-3.8682,-2.3631,1.6884,4.372,-10.68,4.44,48.42
19.532,-11.918,-5.4209,-2.6359,0.52779,3.1001,-10.26,4.86,48.06
19.532,-9.8066,-6.1836,-2.5607,0.42913,2.9309,-10.08,4.98,48.18
19.532,-7.4095,-6.3879,-2.6035,0.98533,2.6505,-9.96,5.28,48.54
19.0,-4.7944,-6.1428,-2.7571,1.5369,2.0693,-9.78,5.46,49.14
15.023,0.28603,-3.909,-2.821,1.1973,1.6622,-9.06,6.12,50.28
12.054,3.3642,-2.3836,-2.573,0.905,1.3974,-8.88,6.3,50.94
8.3629,9.4117,-1.5119,-2.2312,0.95417,1.2443,-8.52,6.54,52.56
7.6955,10.488,-1.8251,-1.4743,1.015,0.48045,-8.34,6.48,53.22
7.6955,10.488,-1.8251,-1.4743,1.015,0.48045,-8.34,6.48,53.22
5.8295,8.7306,-1.6889,-0.63072,0.197,-0.94562,-8.58,6.12,54.9
5.4754,8.5808,-1.4438,-0.34667,0.27061,-1.7162,-8.7,5.88,55.68
6.4833,6.7966,-0.70826,-0.025656,0.53512,-2.6099,-9.42,5.46,57.3
7.5593,5.8295,-0.92618,0.34208,0.51282,-3.4441,-9.9,5.22,58.26
12.681,4.1814,-1.2258,0.6973,0.089492,-4.1563,-11.04,4.38,59.64
16.699,4.2223,-1.58,1.1044,-0.52534,-4.6578,-11.52,3.6,60.06
18.837,3.8954,-1.9613,1.879,-0.83414,-4.809,-11.88,2.76,60.0
19.518,-3.3778,-3.3234,2.5198,-0.85155,-4.7605,-12.3,0.9,59.76
19.532,-8.6081,-4.1406,2.7984,-1.2071,-4.8387,-12.54,0.24,59.64
19.273,-8.7034,-2.8875,2.1597,-1.4007,-4.3943,-13.08,-0.96,59.22
15.486,-7.1234,-1.5527,1.9276,-0.79382,-3.8591,-13.5,-1.38,59.22
12.313,-7.2869,-1.1032,2.0012,-0.098655,-3.3097,-13.98,-1.98,59.22
4.3994,-6.5786,-0.61292,1.9245,0.64202,-2.1686,-14.94,-2.64,58.62
1.7706,-5.6933,-0.40861,1.9716,0.80451,-1.3671,-15.24,-3.12,58.26
0.027241,-5.4073,-0.1362,1.9807,0.82375,-0.53878,-15.78,-3.42,57.72
-2.3018,-5.993,0.6674,1.7327,0.72815,0.69516,-16.2,-3.48,56.34
-3.0918,-6.1836,0.77636,1.4786,0.66309,1.3787,-16.26,-3.12,55.68
-3.6503,-6.4833,0.76274,1.1631,0.62553,1.8622,-16.44,-2.58,54.78
-4.0044,-6.3607,0.51757,0.72357,0.45968,2.2297,-17.1,-1.32,53.7
-2.9556,-6.674,0.7355,0.23824,0.21564,2.5513,-17.46,-0.84,53.16
-1.7706,-7.6138,0.8717,-0.20525,-0.0067195,3.0052,-17.88,-0.42,52.74
0.91256,-8.3493,0.53119,-0.71654,0.19884,3.6722,-18.18,0.6,51.66
5.0668,-9.1937,0.36775,-1.4117,0.70616,4.1682,-18.18,1.02,50.94
10.215,-10.951,-0.21793,-1.8118,1.3543,4.5656,-17.88,1.56,50.16
18.769,-16.453,-2.8739,-2.1973,1.6466,4.6462,-17.7,1.98,49.56
19.504,-16.889,-5.9521,-2.2767,1.0311,3.9376,-17.1,2.82,48.3
19.532,-13.239,-6.2245,-2.2239,0.42028,2.7489,-16.56,3.0,48.06
19.532,-6.3335,-5.8023,-2.2999,1.1222,2.3182,-16.02,3.54,48.12
18.265,-2.9284,-4.7944,-2.4813,1.741,1.9893,-16.02,4.02,48.36
15.868,-0.16344,-3.7047,-2.4651,1.6383,1.9126,-15.72,4.56,48.96
13.566,2.3018,-2.9692,-2.3497,1.3839,1.6823,-15.54,4.98,49.38
9.793,7.6819,-1.8932,-1.9285,1.2972,1.3601,-15.3,5.94,50.52
8.6081,9.7794,-2.0431,-1.4823,1.2272,0.94745,-15.24,6.36,51.0
7.3822,10.42,-2.8875,-0.97494,1.0815,0.26389,-15.42,6.96,52.38
5.1213,9.3844,-2.6423,-0.50732,0.52901,-0.63469,-15.72,7.08,52.86
4.3449,9.6023,-2.0294,-0.3711,0.32132,-0.94348,-16.14,7.32,53.52
4.0861,8.9349,-1.8251,0.0027489,0.027184,-1.6918,-16.56,7.44,54.3
5.1894,5.9793,-1.0624,0.55131,0.028711,-2.9618,-17.64,7.56,56.1
6.9055,4.8352,-0.53119,0.72357,0.29016,-3.755,-18.36,7.5,56.64
9.9565,4.6445,-0.58567,1.0876,0.20372,-4.3521,-19.02,7.2,57.0
18.742,4.7535,-1.9341,1.7935,-0.38332,-4.6496,-19.74,5.16,56.52
19.436,1.6481,-2.7649,1.9945,-0.49694,-4.5351,-19.8,3.84,55.8
19.504,-2.438,-3.0101,2.262,-0.96883,-4.4899,-19.56,2.58,55.08
19.532,-9.0303,-1.975,2.1231,-1.5941,-4.2443,-19.56,0.24,54.06
19.532,-7.1098,-1.3757,1.905,-1.3314,-3.8173,-19.62,-0.78,53.76
17.911,-7.2052,-0.61292,1.8448,-0.54581,-3.3686,-19.56,-1.98,53.58
10.351,-7.2188,-0.46309,1.839,0.25137,-2.2712,-19.8,-4.32,52.92
6.9872,-6.3062,-0.57205,1.894,0.4218,-1.5284,-19.92,-5.58,52.62
4.4266,-5.5707,-0.7355,1.9398,0.38026,-1.1573,-19.92,-6.72,52.32
2.3699,-5.1757,-0.69464,1.8662,0.16371,0.0094684,-19.8,-7.56,51.96
-1.2531,-5.6116,0.21793,1.6701,0.12584,0.73701,-19.44,-8.88,51.3
-2.9556,-6.5105,0.55843,1.3903,0.35033,1.3467,-18.96,-9.18,51.12
-5.2847,-5.8431,0.42223,0.75259,0.74251,1.9807,-18.72,-8.58,51.24
-4.9987,-5.0259,0.42223,0.21808,0.6915,2.2077,-18.84,-7.98,51.78
-4.3858,-5.3119,0.5993,-0.25381,0.4163,2.6936,-19.26,-7.38,51.96
-1.6208,-7.355,0.92618,-0.77885,0.29963,3.1762,-19.38,-6.24,52.2
-1.6208,-7.246,0.89894,-1.2941,0.50121,3.5803,-19.32,-5.82,52.14
2.7649,-7.3822,0.77636,-1.7025,0.82161,4.0384,-19.32,-5.34,51.96
17.611,-14.642,-1.6072,-2.3173,1.5858,4.6285,-18.78,-4.14,51.48
19.286,-18.279,-2.9692,-2.6896,1.5183,4.6243,-18.54,-3.6,51.18
19.504,-16.957,-3.7865,-2.77,1.3329,4.2376,-18.42,-3.36,50.88
19.532,-10.311,-4.6718,-2.6814,0.11729,2.7098,-18.78,-3.06,50.76
19.532,-6.4152,-4.9578,-2.6295,0.68631,2.2458,-19.08,-2.7,51.12
18.905,-3.3915,-4.127,-2.7492,1.1655,1.9737,-19.56,-2.04,51.6
14.642,1.471,-2.833,-2.8112,1.0586,1.8335,-19.86,-0.66,52.86
12.177,4.3449,-2.2746,-2.8194,0.92027,1.5311,-19.98,0.06,53.46
9.9973,6.3743,-1.471,-2.3521,0.77427,1.2288,-19.98,0.66,54.12
7.6683,8.431,-1.2939,-2.0036,0.69333,0.86957,-20.1,1.14,54.84
5.2575,10.283,-1.7025,-1.5901,0.84422,0.35277,-20.4,1.92,56.16
4.5764,10.61,-1.6481,-1.1973,0.81886,-0.24709,-20.76,2.16,56.94
4.4402,10.174,-1.471,-0.49358,0.25992,-1.2147,-21.48,2.58,58.68
5.2983,7.6002,-1.5936,0.043982,-0.2923,-1.9548,-21.96,2.76,59.52
5.8295,6.1564,-1.6344,0.4609,-0.63194,-2.6741,-22.38,3.24,60.48
6.3743,5.5162,-1.6889,0.60048,-0.64294,-2.9734,-22.56,3.6,61.32
8.8941,4.9306,-1.7025,0.95081,-0.30604,-3.5705,-22.86,3.6,61.92
17.298,4.7126,-3.1054,1.2697,-0.38851,-3.4065,-22.74,2.04,61.98
19.395,-0.12258,-3.4459,1.8836,-0.92057,-3.1383,-22.56,0.6,61.2
19.532,-9.1937,-3.5685,2.686,-2.2064,-3.6374,-21.96,-2.22,59.76
19.532,-11.087,-4.0725,2.7171,-2.9468,-3.8344,-21.6,-3.36,59.22
19.532,-11.795,-3.2416,1.9618,-1.6609,-3.5803,-21.3,-4.44,58.86
13.307,-9.0167,-0.78998,1.4737,-0.17349,-2.9584,-20.52,-6.6,58.5
9.1529,-7.6546,-0.78998,1.6808,-0.0033598,-2.5375,-20.1,-7.5,58.2
5.7614,-7.2324,-0.88532,1.7556,-0.047037,-1.9487,-19.44,-9.3,58.02
0.95342,-5.8431,-0.027241,1.7156,0.021686,-0.8265,-18.96,-9.9,58.14
-0.054481,-5.3528,0.36775,1.6411,0.15821,-0.44257,-18.48,-10.38,58.02
-0.62654,-5.2575,0.51757,1.4532,0.43891,0.50213,-17.88,-10.74,57.72
-2.6423,-5.2166,0.70826,1.314,0.49633,0.91172,-16.44,-10.32,57.3
-3.7047,-4.8761,0.27241,1.0617,0.47617,1.1112,-15.84,-9.72,57.48
-4.1814,-3.9499,-0.068102,0.7422,0.39156,1.193,-15.42,-8.76,57.96
-2.438,-4.6445,-0.23155,0.30727,0.11484,1.8247,-15.06,-7.26,59.04
-0.81722,-5.4754,-0.12258,-0.10782,0.043371,2.2547,-14.88,-6.9,59.46
0.40861,-5.8567,-0.44947,-0.28955,0.082161,2.4529,-14.7,-6.42,59.58
6.0611,-7.4503,-0.8036,-0.66615,0.44043,3.3579,-14.4,-5.34,59.76
15.241,-11.673,-2.1656,-0.74526,0.95631,4.0653,-14.1,-4.98,59.88
19.0,-15.391,-5.5162,-1.3552,0.97922,4.2626,-13.92,-4.32,59.58
19.532,-12.272,-7.7636,-2.1341,0.85338,2.9306,-13.56,-4.02,59.16
19.532,-9.507,-7.5321,-2.0256,0.4163,2.2345,-13.62,-4.08,59.28
19.532,-8.3493,-7.1915,-2.0944,0.78069,1.9416,-13.74,-4.14,59.76
16.957,-3.9363,-5.3937,-2.4261,1.2205,1.6823,-14.22,-3.6,61.14
14.737,-1.5255,-4.5356,-2.5415,1.2679,1.5577,-14.52,-3.24,61.74
11.591,1.6344,-3.2553,-2.6099,1.1692,1.2394,-14.64,-2.94,62.4
9.6432,4.018,-2.7104,-2.3534,0.9893,1.0492,-14.7,-2.58,63.0
6.9872,8.0905,-2.2065,-2.2083,0.99082,0.95203,-15.24,-2.16,64.14
6.1836,8.8805,-2.1793,-1.7984,0.95936,0.57971,-15.54,-2.1,64.8
5.5026,8.8941,-2.152,-1.1927,0.57788,-0.19792,-16.08,-2.1,65.22
4.3177,8.1586,-1.4982,-0.75686,0.27947,-0.65699,-16.5,-2.22,65.52
4.0861,7.8317,-1.185,-0.33139,0.038179,-1.1579,-17.04,-2.22,66.0
5.4481,6.4016,-1.3757,0.13531,-0.20647,-1.6964,-18.06,-2.7,67.26
6.8783,5.0804,-1.7298,0.76511,-0.42974,-2.5397,-18.36,-2.7,67.92
9.8339,4.5356,-1.3484,0.95509,-0.40897,-2.8161,-18.66,-2.94,68.16
14.601,4.8488,-1.5391,1.6218,-0.61789,-3.0504,-18.96,-3.9,68.46
18.837,3.6094,-2.8603,2.2022,-0.96792,-2.9102,-19.02,-4.92,68.28
19.504,-5.5162,-3.9499,2.9767,-1.2223,-3.1475,-18.78,-7.2,67.8
19.532,-11.223,-4.6718,3.4627,-2.6826,-3.3869,-18.54,-8.34,67.5
19.259,-10.256,-2.6287,2.8726,-2.6356,-3.3888,-17.88,-9.06,67.08
15.772,-8.1858,-1.0488,2.4279,-1.6081,-3.5235,-16.56,-9.9,66.72
10.992,-7.4776,-0.28603,2.2129,-0.53787,-3.3521,-15.66,-10.08,66.66
9.0712,-7.3277,-0.1362,2.0491,-0.0018326,-2.62,-14.88,-10.08,66.84
4.2632,-5.4209,0.31327,1.9487,0.058032,-2.0559,-13.2,-9.24,66.54
2.5061,-4.7944,0.65378,1.8778,0.16768,-1.1924,-12.3,-8.88,66.36
0.55843,-4.5356,1.2667,1.7746,0.18357,-0.93004,-10.44,-7.32,65.94
-0.68102,-4.7399,1.2258,1.5705,0.14019,-0.26848,-9.66,-6.36,65.52
-2.1248,-5.0123,1.0624,1.3286,0.13622,0.027184,-8.88,-5.22,64.98
-3.8546,-5.1213,0.78998,0.95356,0.23243,0.208,-8.1,-3.96,64.5
-3.5413,-4.7944,0.83084,0.478,0.31948,0.45815,-6.84,-1.2,63.72
-2.3018,-4.8625,0.7355,0.094073,0.3207,0.9499,-6.36,0.18,63.6
-0.61292,-4.7399,0.44947,-0.37354,0.4777,1.6252,-6.24,1.2,63.3
5.7205,-5.2166,0.44947,-0.47189,0.62797,1.9074,-6.12,2.7,62.7
15.745,-9.2891,-2.5198,-0.51649,1.2669,2.5412,-6.18,3.24,62.16
18.592,-11.836,-4.2087,-1.1087,2.5271,2.7828,-6.24,3.48,61.62
19.518,-8.0632,-5.8704,-1.2062,2.594,1.9065,-6.6,3.06,60.78
19.532,-5.6661,-6.1292,-1.0119,1.6206,1.1555,-7.14,2.76,60.54
19.532,-4.127,-6.2245,-0.80695,0.91569,1.0614,-7.8,2.28,60.36
14.928,-0.49033,-5.0259,-0.83444,0.90316,0.85216,-9.24,1.92,60.48
12.667,1.2531,-4.3449,-0.91172,0.9163,0.75167,-9.9,2.04,60.66
10.951,3.2008,-3.8409,-0.90439,0.88239,0.74892,-10.5,2.28,61.02
9.3436,6.4969,-3.4323,-0.71502,0.68906,0.82497,-11.76,2.94,61.44
8.7306,7.8453,-3.3097,-0.28955,0.38851,0.71196,-12.54,3.24,61.56
8.036,8.4446,-2.8875,0.34392,-0.059559,0.32742,-13.68,3.72,61.8
6.5514,8.1995,-2.6287,1.1796,-0.64019,-0.32193,-14.34,3.96,61.8
6.3743,7.5457,-2.2065,1.7107,-1.0339,-0.77152,-14.94,4.32,61.98
6.5378,7.2052,-1.8796,1.9615,-1.2184,-0.99296,-15.36,4.86,62.04
7.0417,6.7012,-0.89894,2.6753,-1.6136,-1.598,-15.72,5.58,61.98
7.9679,5.1757,0.38137,3.0766,-1.7248,-2.0342,-16.08,7.44,62.04
9.1665,4.6582,1.6208,3.5671,-2.0525,-2.4532,-15.96,8.4,61.68
16.372,5.38,2.0294,3.8955,-2.6444,-2.3146,-15.42,9.54,60.48
19.137,2.4108,2.1793,4.1511,-3.2428,-2.182,-15.06,9.84,60.0
19.477,-0.69464,3.1054,4.0054,-3.5858,-2.3143,-14.82,9.84,59.1
19.532,-5.3256,3.0237,3.4422,-3.2009,-2.6906,-14.1,9.6,57.78
19.532,-4.699,2.547,2.8442,-2.2501,-2.9523,-13.74,9.54,57.06
19.532,-5.4345,2.5742,2.2171,-1.2819,-3.1218,-13.02,9.6,55.62
17.311,-7.6002,2.8194,1.8625,-0.91324,-3.051,-12.66,9.54,54.9
12.503,-6.5378,2.8194,1.7459,-0.75075,-2.9969,-12.36,9.6,54.18
10.474,-6.1019,2.7922,1.6762,-0.42486,-2.8573,-12.36,9.6,53.4
8.2539,-5.8976,2.4108,1.8109,-0.026878,-2.3964,-12.3,9.48,52.74
5.5571,-5.3119,1.3076,1.97,-0.039706,-2.0272,-12.0,9.3,51.18
3.8818,-5.1076,0.68102,2.0342,-0.32254,-1.5003,-12.06,9.24,50.58
1.7706,-4.7399,0.5993,1.9141,-0.42547,-1.1683,-12.24,8.94,49.38
0.61292,-4.5628,0.57205,1.6991,-0.405,-0.8604,-12.24,8.76,48.66
-0.054481,-4.1406,0.57205,1.4554,-0.18906,-0.56994,-12.42,8.7,48.18
-0.6674,-2.9556,0.12258,1.3528,0.1628,-0.29749,-12.9,8.94,47.34
-0.19068,-3.0237,-0.68102,1.3457,0.45357,0.038485,-13.14,8.82,47.1
1.1713,-2.9011,-2.3836,1.306,0.66279,0.44715,-13.68,8.52,46.86
7.0962,-2.6696,-3.5958,1.4487,0.96944,1.3525,-14.28,8.28,46.5
14.751,-5.5435,-5.0531,1.682,1.2559,1.8286,-14.52,8.22,46.08
16.821,-6.6059,-5.5571,1.7236,1.1524,1.9309,-14.76,8.28,45.66
17.543,-3.9908,-5.7205,1.7058,0.73029,1.4151,-14.94,8.28,45.0
17.025,-3.2416,-5.9657,1.9444,0.45112,1.1102,-15.18,8.16,44.58
15.704,-2.6423,-6.279,2.1032,0.27397,0.99143,-15.18,8.34,44.1
12.34,0.34051,-5.8976,2.2956,-0.0085521,0.72754,-15.36,8.76,43.32
10.556,1.8932,-5.4481,2.3399,-0.14233,0.62308,-15.48,9.18,42.9
9.221,3.0373,-4.7399,2.3338,-0.33903,0.37171,-15.6,9.6,42.66
6.4833,5.8023,-2.0158,2.4664,-0.53634,-0.056505,-15.78,10.44,41.82
6.1428,6.0474,-1.1713,2.7599,-0.68142,-0.478,-15.9,10.98,41.22
6.4016,5.38,-0.43585,2.9911,-0.86682,-0.94073,-15.96,11.64,40.68
7.1234,3.7456,-0.19068,3.0262,-1.2291,-1.5052,-16.32,12.6,39.6
8.5672,3.8954,0.8717,2.9474,-1.3494,-1.6716,-16.56,12.9,38.94
10.093,4.1406,1.2395,2.8112,-1.7052,-1.8894,-16.56,12.96,38.34
18.496,2.3972,2.0158,2.6835,-1.8283,-2.0113,-17.28,13.14,36.84
19.409,-0.01362,2.2474,2.5779,-1.8793,-2.2181,-17.46,13.32,35.82
19.518,-2.5879,1.5936,2.4004,-1.9487,-2.7083,-17.7,13.14,34.86
19.532,-4.3858,0.35413,2.2174,-1.6539,-3.2981,-18.06,12.96,32.64
19.532,-4.1406,0.54481,2.0223,-1.054,-3.3891,-18.36,12.78,31.62
19.504,-4.1814,1.1169,1.9783,-0.68295,-3.3643,-18.72,12.42,30.54
16.317,-4.699,1.3757,1.9804,-0.43066,-3.2358,-19.44,11.46,28.62
14.451,-4.7535,1.1441,2.0794,-0.21991,-3.0659,-19.92,10.8,27.72
12.503,-4.8488,0.89894,2.2165,-0.12462,-2.7837,-20.34,10.02,27.0
8.3493,-4.3177,0.6674,2.3607,-0.0088575,-2.2,-21.12,8.82,25.44
6.1973,-4.0725,0.77636,2.3488,0.13928,-1.7043,-21.6,8.1,25.02
5.38,-3.9227,0.85808,2.3192,0.23488,-1.4313,-22.14,7.56,24.6
4.1406,-3.7047,0.83084,2.2141,0.45418,-0.60781,-22.5,6.96,24.12
2.8058,-3.8273,0.64016,2.1365,0.51038,-0.082467,-23.4,5.7,23.34
1.7843,-4.0589,0.50395,2.0375,0.56352,0.42669,-23.7,5.34,23.1
0.76274,-4.1951,0.16344,1.9001,0.65607,0.93768,-23.94,4.8,23.04
0.068102,-4.2359,0.068102,1.733,0.72693,1.5837,-24.48,3.78,22.38
0.20431,-4.6309,-0.23155,1.7055,0.69089,1.7749,-24.6,3.3,21.96
0.54481,-4.985,-0.53119,1.6112,0.56505,2.1402,-24.6,3.0,21.42
3.8409,-6.1836,-1.362,1.3735,0.47647,2.5733,-24.48,2.46,20.1
5.8567,-6.9055,-1.6889,1.1674,0.53603,2.8436,-24.18,2.34,19.2
8.6489,-7.8317,-2.4517,0.90683,0.8152,3.0476,-23.28,2.34,17.4
16.549,-10.351,-3.4459,0.44776,1.0745,2.9282,-22.74,2.28,16.02
18.919,-10.76,-4.127,0.197,0.69516,2.6136,-22.2,2.34,14.76
19.45,-9.9973,-4.7263,0.035125,0.41356,2.273,-21.78,2.1,13.74
18.483,-8.1313,-4.9714,-0.074831,0.48747,1.9984,-21.36,1.98,12.78
17.23,-7.1779,-4.699,-0.1909,0.59407,1.6536,-21.18,2.04,12.66
16.018,-6.1973,-4.3994,-0.3091,0.59254,1.4029,-21.12,2.52,12.78
15.459,-4.9987,-4.0861,-0.43066,0.4047,1.2822,-20.76,3.84,13.5
14.41,-4.0861,-4.0316,-0.55436,-0.0956,1.0614,-20.46,4.74,14.1
13.375,-3.623,-3.9635,-0.58796,-0.21869,0.92332,-20.22,5.58,14.82
11.032,-2.8058,-3.7592,-0.73548,-0.096517,0.42883,-19.68,6.72,15.48
8.9349,-0.81722,-3.4187,-0.86926,0.17501,0.16677,-19.2,8.64,17.16
8.4174,0.51757,-3.1191,-0.97861,0.19212,-0.038179,-19.02,9.66,18.0
7.1643,3.6775,-2.9148,-1.0015,-0.010996,-0.22999,-19.02,11.7,20.16
6.7148,4.3313,-2.6423,-0.96242,-0.19884,-0.41905,-18.96,12.66,21.36
6.4833,4.2495,-2.1384,-0.76908,-0.18326,-0.89675,-18.78,13.92,22.5
6.7421,4.2087,-1.6617,-0.6579,-0.0058032,-1.3622,-18.12,16.08,24.06
7.0826,4.0589,-1.7434,-0.43738,0.047342,-1.9441,-17.94,16.68,24.3
8.3629,3.4459,-1.7162,0.068722,-0.42089,-2.9389,-17.88,16.62,23.94
11.128,2.6015,-1.6072,0.43768,-0.85155,-3.4935,-18.0,16.14,23.52
15.636,1.9886,-1.9613,0.61514,-1.0821,-3.6713,-18.18,15.48,22.86
18.36,1.0079,-2.0294,1.2074,-1.518,-3.7257,-18.42,14.76,22.14
19.518,-6.3335,-1.0215,1.3357,-1.4438,-3.7003,-19.38,12.96,21.0
19.532,-10.093,-0.44947,1.1942,-1.4438,-3.769,-19.98,11.94,20.46
19.532,-8.8396,0.35413,0.9166,-1.1005,-3.6624,-20.58,10.86,20.16
16.494,-7.4231,1.4165,0.96975,-0.24404,-3.6212,-22.08,8.22,19.5
14.655,-7.7636,1.471,1.3329,0.040928,-3.102,-22.74,6.9,19.2
11.278,-7.9951,1.3757,1.5214,-0.047953,-2.5754,-23.4,5.46,18.78
4.127,-7.5184,1.4438,1.5608,0.086132,-1.8683,-24.54,2.46,17.94
1.3484,-7.355,1.7298,1.4697,0.47525,-1.1023,-25.08,1.02,17.64
-1.6753,-7.0826,2.4653,1.3182,0.93951,-0.34361,-25.56,-0.18,17.46
-3.8818,-6.2245,2.3291,1.1319,1.3888,0.34636,-26.16,-2.4,17.22
-4.6173,-5.8704,1.4982,0.96364,1.2898,1.3021,-26.46,-3.3,17.1
-4.7399,-5.8295,0.9398,0.81367,0.83475,1.8922,-26.76,-4.2,17.1
-4.7126,-6.0066,0.054481,0.63102,0.64843,2.4496,-26.88,-5.76,16.8
-4.1814,-6.3198,-0.10896,0.42394,0.70219,2.9688,-26.82,-6.3,16.38
-3.1599,-6.8919,-0.32689,0.17226,0.68111,3.4114,-26.64,-6.78,15.84
4.304,-8.7715,-0.95342,-0.14569,0.5061,3.8961,-25.86,-7.2,14.46
10.324,-12.095,-1.076,-0.9447,0.57116,4.6029,-25.38,-7.26,13.86
18.129,-17.325,-2.2474,-1.2584,0.65149,4.7962,-25.08,-7.2,13.26
19.504,-18.21,-5.2302,-1.8842,0.9279,4.1349,-24.78,-6.84,12.54
19.532,-14.083,-5.4754,-2.0015,0.79535,2.6741,-24.72,-6.18,12.36
19.532,-7.0281,-5.3664,-1.923,0.91721,1.8054,-24.36,-4.08,13.14
19.477,-3.623,-4.6037,-1.8845,1.3228,1.4053,-24.06,-2.64,13.62
17.216,-0.47671,-3.4187,-1.8711,1.2303,1.1234,-23.64,-1.08,14.22
11.659,5.3664,-2.3427,-1.7171,0.85246,0.78588,-22.62,2.46,15.42
9.7113,7.4503,-2.2882,-1.4465,0.48197,0.39095,-22.14,4.02,15.96
8.3765,8.2131,-2.1929,-0.96761,0.17623,-0.22846,-21.54,5.64,16.62
5.0531,8.7306,-1.866,-0.74403,0.21075,-0.58704,-20.88,8.76,18.42
4.3449,9.1529,-1.6208,-0.67104,0.4102,-1.0571,-20.58,10.2,19.38
3.4323,9.5479,-0.85808,-0.38546,0.37171,-1.6041,-20.64,11.52,20.28
3.1463,6.851,-0.92618,0.064752,0.17318,-2.2336,-20.52,13.68,22.08
4.9033,5.203,-0.91256,0.48625,0.081856,-3.4019,-20.52,14.64,22.98
7.1779,4.127,-0.47671,0.79657,0.055283,-4.0287,-20.46,14.7,23.52
11.482,3.7592,-0.16344,1.0577,-0.051924,-4.4178,-20.7,12.36,22.56
18.415,3.9771,-1.5663,1.4578,-0.28222,-4.3323,-20.46,10.44,21.06
19.395,-6.565,-3.909,2.0094,-0.68386,-3.8533,-20.04,8.58,19.2
19.532,-18.238,-3.0646,2.0843,-1.9413,-3.868,-19.62,5.46,16.2
19.532,-14.71,-1.6072,1.4019,-1.7236,-3.5479,-19.8,3.9,15.24
19.423,-11.809,-0.38137,1.2223,-0.44654,-3.4569,-20.4,2.04,14.82
10.338,-10.215,0.040861,1.3497,0.46212,-2.9465,-21.48,-2.1,13.68
7.8453,-9.112,0.040861,1.5168,0.67714,-2.1805,-22.02,-4.26,13.26
2.9284,-6.8783,-0.14982,1.6335,0.59834,-0.81764,-22.5,-6.36,12.72
-0.85808,-4.5083,0.44947,1.5779,0.50671,-0.30818,-22.98,-10.2,11.64
-1.7298,-3.7592,1.1713,1.3552,0.45296,0.69089,-22.86,-11.94,10.86
-2.2201,-4.1542,1.7979,1.0082,0.48075,1.7098,-22.8,-13.08,10.02
-3.9771,-5.7069,1.7025,0.821,0.3766,2.1872,-22.68,-13.8,10.02
-5.489,-4.6037,0.9398,0.3375,0.43799,2.5391,-23.04,-13.62,10.86
-5.2438,-3.3642,0.57205,-0.082467,0.55314,2.6756,-24.48,-13.8,13.14
-0.47671,-6.4969,0.7355,-0.37477,0.3711,3.1417,-24.72,-14.1,13.86
1.5119,-7.9679,0.61292,-0.91721,-0.11729,3.6649,-24.78,-14.28,14.28
2.7786,-8.3357,0.38137,-1.1426,-0.17226,3.7605,-24.6,-14.34,14.22
12.408,-10.229,-0.51757,-1.8002,-0.021991,3.9654,-24.0,-13.92,14.34
18.483,-14.696,-1.6344,-2.2969,0.7532,3.8888,-23.94,-13.5,14.4
19.409,-16.195,-2.8058,-2.7238,1.0892,3.6117,-23.94,-12.84,14.82
19.532,-10.883,-3.8954,-2.7935,0.47159,2.0837,-24.36,-10.86,15.84
19.532,-8.7306,-4.2223,-2.6997,0.55772,1.5693,-24.48,-9.42,16.62
19.532,-5.8704,-3.9363,-2.7364,1.2141,1.1432,-24.66,-7.92,17.46
15.214,-1.2803,-2.7649,-2.7168,1.321,0.92699,-24.6,-4.38,18.78
11.359,1.5936,-1.8932,-2.4859,1.0977,0.66371,-24.54,-2.7,19.38
8.7715,5.1485,-1.471,-2.1909,1.0107,0.47342,-24.42,-1.02,19.98
6.0202,8.4446,-1.9068,-1.4429,0.88331,0.22419,-24.24,2.16,21.24
5.5162,8.4446,-2.3155,-0.96456,0.59376,-0.18112,-24.36,3.6,22.02
4.9033,8.3084,-2.2201,-0.81337,0.40164,-0.42333,-24.36,5.04,22.92
3.7047,8.6625,-1.5391,-0.30604,0.09499,-1.2358,-24.48,6.48,23.64
3.4459,8.6081,-0.58567,0.098655,0.096211,-2.0012,-24.84,8.94,24.84
5.5162,6.2381,-0.50395,0.54642,0.26145,-2.8876,-24.9,9.96,25.14
9.4253,3.7728,-0.081722,0.86101,0.074831,-3.6533,-24.9,10.38,25.38
11.741,3.4732,0.19068,1.2214,-0.31215,-4.2483,-25.02,9.84,25.08
14.914,4.1678,0.14982,1.8305,-0.41661,-4.5366,-25.02,8.76,24.48
19.355,2.1384,-1.9613,2.4132,-0.5171,-3.9709,-24.84,5.88,22.62
19.518,-5.203,-1.5255,3.288,-1.2037,-3.8207,-24.84,4.38,21.6
19.532,-12.898,-2.0294,3.5757,-2.3515,-3.9022,-24.72,2.88,20.88
17.584,-10.869,-0.89894,2.3268,-1.6283,-3.4404,-25.2,-0.42,19.98
13.77,-8.0905,-0.19068,1.7947,0.15608,-3.0751,-25.56,-2.28,19.56
11.182,-7.5184,-0.32689,2.044,0.26114,-2.7242,-25.98,-4.08,19.14
4.6582,-6.2517,-0.70826,2.007,0.29841,-1.5214,-26.46,-8.1,18.48
1.8932,-4.6309,-0.47671,1.6814,0.35522,-0.69578,-26.46,-10.2,18.06
0.1362,-3.4732,0.36775,1.5036,0.40714,0.22388,-26.52,-12.12,17.7
-1.58,-4.6445,1.9613,1.361,0.61911,1.3552,-26.34,-15.06,17.28
-2.3699,-5.4754,2.0294,1.2593,0.69975,1.6444,-26.16,-16.08,17.22
-4.0452,-6.3062,1.5391,0.94348,0.83933,2.0754,-26.16,-16.5,17.52
-4.4266,-5.5435,0.51757,0.29535,0.88484,2.3647,-26.58,-17.16,18.84
-2.7786,-6.0202,0.57205,-0.10507,0.83566,2.7101,-26.76,-17.34,19.5
-1.2258,-7.1371,0.61292,-0.45907,0.69608,3.0824,-27.06,-17.7,20.04
2.8603,-8.5263,-0.20431,-1.0513,0.59071,3.6579,-26.94,-17.94,20.1
8.7715,-10.515,0.068102,-1.5262,0.63133,4.0241,-27.0,-17.82,20.04
14.873,-12.939,-0.01362,-1.8778,1.1585,4.2693,-26.94,-17.7,20.04
19.463,-17.597,-2.6968,-2.6386,1.5525,4.2767,-27.42,-16.26,19.98
19.532,-14.506,-3.6775,-2.8653,1.6631,3.1191,-27.72,-15.24,20.16
19.532,-11.577,-4.018,-2.78,1.2682,1.9542,-28.02,-14.04,20.34
19.532,-4.7944,-3.5004,-2.6774,1.1298,1.5565,-28.62,-10.68,20.7
18.673,-2.7241,-2.9011,-2.678,0.73457,1.2721,-28.86,-8.82,20.82
13.92,0.38137,-1.6753,-2.5833,0.72326,1.0913,-28.92,-7.08,20.94
9.1937,6.7421,-1.2531,-2.4975,0.8882,0.95081,-29.04,-5.28,21.0
7.8998,8.9486,-1.4301,-1.8641,1.3289,0.50091,-28.98,-1.92,21.42
7.4503,9.2755,-1.5119,-1.2126,1.0113,-0.0082467,-29.04,-0.18,21.66
5.4345,8.6081,-1.9205,-0.64507,0.3882,-0.54153,-29.46,3.18,22.44
4.0316,8.3629,-1.5663,0.051313,-0.10324,-1.4007,-29.4,4.62,22.86
3.0918,7.9815,-1.1713,0.26145,-0.10568,-1.7623,-29.52,6.0,23.1
3.7047,6.4152,-0.19068,0.8433,0.046731,-2.8845,-29.34,7.98,23.64
5.5026,5.3119,-0.19068,1.2104,-0.19975,-3.4465,-29.46,8.46,23.76
7.5048,4.5628,0.44947,1.3393,-0.24251,-4.0403,-29.58,8.46,23.94
16.113,5.38,0.43585,1.8665,-0.58704,-4.4022,-29.7,6.3,23.22
19.109,4.699,-0.42223,2.3088,-0.65546,-4.1432,-29.46,4.56,22.56
19.477,-0.38137,-1.362,2.4795,-0.54123,-4.0079,-28.92,3.0,21.66
19.532,-10.678,-1.4301,2.4881,-1.2862,-4.218,-28.14,-0.36,19.98
19.532,-9.4389,-2.152,2.4453,-1.5794,-3.955,-28.2,-2.16,19.68
18.837,-8.9486,-1.5391,2.3949,-0.86285,-3.8625,-28.2,-4.08,19.38
11.332,-9.902,-0.21793,2.3555,-0.44532,-3.1295,-28.44,-8.58,19.14
6.7421,-8.8396,0.16344,2.0831,0.020159,-1.6674,-28.56,-10.74,18.96
2.9965,-7.641,0.35413,1.9994,0.20922,-1.2113,-28.56,-12.9,18.84
-1.2395,-6.4833,0.57205,1.7272,0.68203,0.2419,-28.2,-17.04,18.66
-2.2337,-6.5786,0.72188,1.4661,0.90164,1.1399,-27.9,-18.78,18.54
-3.0918,-6.7421,0.69464,1.1842,1.0241,1.9093,-27.54,-20.16,18.36
-4.0997,-6.5786,0.44947,0.83872,1.1579,2.5174,-27.18,-21.06,18.3
-4.4266,-5.7886,0.19068,0.16066,1.1313,2.8937,-26.88,-21.36,18.96
-3.4187,-5.4481,0.38137,-0.10965,0.92057,3.0326,-27.3,-21.48,19.8
-1.8387,-6.9872,0.84446,-0.66615,0.13439,3.7657,-27.78,-21.54,20.82
-0.98067,-8.4855,0.36775,-1.0757,0.35736,4.1386,-27.54,-21.42,20.82
2.5606,-10.433,-0.1362,-1.5956,0.67073,4.4398,-27.18,-21.12,20.7
5.203,-11.291,-0.20431,-2.0317,0.6744,4.6432,-26.88,-20.58,20.46
18.796,-18.633,-0.68102,-2.7599,1.0693,5.0754,-26.58,-19.26,20.04
19.355,-19.314,-1.6889,-3.0968,1.3589,5.1307,-26.88,-18.18,20.34
19.532,-15.323,-3.8546,-3.3408,1.3292,4.5082,-27.36,-16.62,20.82
19.532,-11.713,-4.4266,-3.0836,0.35613,2.6466,-27.72,-12.54,21.6
19.532,-7.7636,-3.8546,-3.0968,1.1087,1.9392,-27.54,-10.14,21.9
16.208,0.53119,-1.2258,-3.2272,1.4453,1.5779,-27.0,-5.4,22.56
14.451,3.0237,-0.61292,-2.9499,1.5415,1.2654,-26.7,-3.24,22.86
12.108,6.2245,-0.095342,-2.7403,1.4554,1.1011,-26.46,-1.08,23.16
9.4525,9.5206,0.38137,-2.0907,1.1814,0.72326,-26.1,1.08,23.64
8.145,10.42,0.19068,-1.0046,0.82986,-0.12248,-25.92,3.42,24.18
5.4754,9.9973,-1.185,-0.60048,0.81062,-0.7028,-25.56,7.32,25.2
5.6116,9.9156,-0.98067,-0.2474,0.72388,-1.3738,-25.44,9.12,25.8
5.2438,9.7113,-0.44947,0.52504,0.10782,-2.5812,-25.32,10.98,26.34
6.4424,5.9657,-0.81722,0.82161,-0.070555,-3.0354,-24.54,13.98,26.76
8.5536,3.8682,-1.0896,1.2462,-0.45968,-3.8937,-24.24,14.64,26.7
9.9565,2.8875,-0.96704,1.7791,-0.96364,-4.7803,-24.24,14.82,26.76
14.029,4.3585,-1.866,1.4456,-0.36102,-5.0955,-24.48,14.04,26.64
19.273,3.2144,-2.0975,2.5259,-0.73487,-4.6071,-24.6,10.5,25.26
19.518,-5.7614,-3.0237,3.3094,-1.6796,-4.6914,-24.36,8.64,24.18
19.532,-13.961,-3.7728,3.1698,-2.5006,-4.8616,-24.3,5.1,22.56
19.477,-11.387,-2.833,3.0522,-2.5595,-4.2037,-24.48,3.06,21.9
15.377,-9.7794,-2.0294,2.8592,-1.7449,-3.9523,-24.78,0.72,21.48
8.9622,-8.826,-0.50395,2.6444,-0.57421,-2.8118,-25.62,-3.6,21.36
5.6524,-7.5048,0.054481,2.4294,-0.043982,-1.9096,-26.04,-5.88,21.3
3.6366,-6.3607,0.65378,2.2358,0.27184,-1.04,-26.28,-8.04,21.3
-0.38137,-6.0611,1.7434,2.0101,0.624,0.087659,-26.52,-12.54,21.18
-2.3699,-6.7557,1.9477,1.711,1.117,0.73334,-26.46,-14.34,21.12
-3.5277,-7.1507,2.0839,1.2565,1.5534,1.2239,-26.04,-15.84,20.82
-4.6854,-5.6933,1.757,0.82436,1.4395,1.5745,-25.26,-17.34,20.82
-4.699,-4.985,1.4438,0.5003,1.0043,1.9028,-25.5,-17.28,21.48
-4.1814,-6.4152,1.3348,0.10171,0.80054,2.7972,-26.34,-17.64,22.98
-1.185,-9.4798,2.0158,-0.76328,1.1066,3.3701,-26.28,-17.76,23.28
-0.12258,-9.4661,1.8932,-1.0046,1.2798,3.6078,-26.22,-17.58,23.4
3.2689,-9.902,1.5255,-1.431,1.3845,4.1032,-25.98,-17.34,23.1
16.808,-15.827,-0.44947,-2.0391,1.584,4.715,-25.56,-16.5,22.08
19.368,-18.673,-3.6775,-2.5998,1.6448,4.7809,-25.5,-15.9,21.66
19.504,-16.045,-5.0531,-2.6609,1.6133,4.2348,-25.8,-15.18,21.36
19.532,-10.992,-4.5492,-2.6478,1.0232,2.6264,-26.28,-12.84,21.48
19.532,-7.4095,-4.413,-2.7547,1.2126,2.3973,-26.34,-11.28,21.66
19.532,-5.2847,-3.9363,-2.9435,1.6643,1.8799,-26.52,-9.48,21.72
16.018,0.76274,-2.4789,-2.7889,1.3726,1.4019,-26.28,-5.22,21.84
12.749,4.018,-1.7025,-2.6166,1.2981,1.1322,-26.1,-3.24,22.02
10.406,7.0417,-0.98067,-2.182,1.3259,0.8885,-25.8,-1.2,22.32
7.6002,10.351,-0.92618,-1.2223,1.0348,0.25015,-25.44,2.82,22.8
6.5786,10.406,-1.2803,-0.90897,0.94715,-0.062003,-25.32,4.74,23.04
5.1894,9.7794,-2.152,-0.39554,0.7028,-0.71257,-25.26,6.54,23.46
4.1542,8.4719,-1.9341,0.23243,0.20678,-1.7828,-24.96,9.96,24.3
4.2223,6.9328,-1.3893,0.66706,-0.057421,-2.5189,-24.78,11.58,24.78
5.0123,5.6116,-1.2531,1.0168,-0.18295,-3.2669,-24.48,13.02,25.14
8.4174,2.5879,-0.81722,1.7294,-0.44502,-4.1878,-24.54,14.1,25.2
11.155,3.6503,-0.12258,1.8225,-0.65912,-4.368,-24.78,13.5,24.84
14.342,4.4266,0.58567,2.1182,-0.13806,-4.8549,-24.84,12.24,24.3
19.45,2.9965,-2.1384,2.8479,-0.32895,-4.6154,-24.6,8.34,22.44
19.518,-1.7025,-1.3212,3.0818,-0.46945,-4.5619,-24.3,6.78,21.18
19.532,-6.4152,0.24517,3.0736,-1.2669,-4.383,-24.24,4.92,20.28
19.532,-10.624,1.2258,2.7397,-1.7581,-3.6789,-24.9,0.9,19.2
14.901,-9.3708,1.185,2.3179,-0.46059,-3.434,-25.32,-1.38,18.96
10.188,-8.3901,0.50395,2.375,-0.047953,-3.1789,-25.68,-3.72,18.72
7.3686,-8.2403,-0.21793,2.5733,0.28314,-1.9215,-26.04,-6.12,18.54
2.1929,-7.4095,-0.14982,2.4257,0.10873,-0.90683,-26.64,-11.1,18.0
-0.19068,-6.8647,0.64016,2.1066,0.13103,0.062919,-26.82,-13.5,17.7
-2.0022,-6.9328,2.1384,1.7074,0.4945,0.84086,-26.58,-15.6,17.58
-5.9385,-7.3141,2.2337,1.0366,1.2352,2.1414,-26.1,-18.36,17.16
-7.0145,-6.96,1.4438,1.0366,1.2352,2.1414,-26.1,-18.36,17.16
-5.7342,-6.3879,0.83084,0.19853,1.5803,2.5754,-26.28,-19.2,17.94
-2.6015,-7.641,0.49033,-0.27275,1.357,3.0143,-27.12,-19.92,19.2
-0.76274,-8.5672,0.55843,-0.74251,1.0327,3.4645,-27.48,-19.98,19.5
5.9249,-10.379,1.0488,-1.4041,0.85246,3.7974,-27.12,-19.92,19.68
13.866,-12.599,0.99429,-2.0641,0.87934,4.0076,-26.34,-19.08,19.26
19.177,-16.726,-0.24517,-2.8705,2.281,4.0455,-25.74,-17.76,18.6
19.504,-14.465,-1.2122,-3.2202,2.4114,4.0619,-25.5,-16.62,17.52
19.532,-11.032,-0.57205,-3.2266,0.89064,2.8973,-26.04,-15.12,16.74
19.532,-7.6546,-1.471,-3.2544,0.045509,2.1591,-26.82,-13.02,16.74
19.532,-5.8431,-1.5936,-3.5522,0.92027,1.8531,-27.18,-11.7,16.8
18.142,-1.7025,-1.471,-3.7183,1.4316,1.4945,-27.9,-8.88,17.4
14.261,2.0839,-0.57205,-3.6151,1.2792,1.168,-28.38,-6.12,18.06
10.379,6.5514,-0.027241,-3.1799,1.0424,0.8882,-29.1,-2.88,18.72
8.5536,8.7987,0.095342,-2.5644,0.97433,0.65943,-29.46,-1.32,19.2
5.5435,12.013,0.12258,-1.7129,0.7813,0.27917,-30.06,2.1,19.98
4.3994,11.482,-0.17706,-0.80237,0.41356,-0.2529,-30.12,3.9,20.4
2.7922,10.447,-1.2531,0.082161,0.082467,-1.0666,-29.58,7.5,21.12
3.1599,9.9429,-0.99429,0.59376,0.020159,-1.8115,-29.34,8.7,21.36
3.8954,8.717,-0.46309,1.1194,-0.26298,-2.6084,-29.04,9.72,21.42
4.699,7.1507,-0.20431,1.6142,-0.70708,-3.3014,-28.8,10.38,21.24
8.7034,4.7126,0.19068,1.9331,-0.70769,-3.9609,-28.56,10.26,20.88
12.19,4.6037,0.35413,2.0485,-0.26603,-4.4605,-28.74,9.36,20.64
19.096,6.6059,-0.70826,2.2999,-0.24129,-4.6288,-28.68,8.16,20.28
19.504,2.0975,-0.69464,2.7507,-0.75992,-4.3567,-28.08,4.8,18.96
19.532,-3.3778,0.20431,3.2391,-1.5785,-4.5711,-27.84,2.88,18.36
19.532,-6.0611,0.50395,3.0754,-1.9038,-4.3646,-27.48,1.02,17.7
19.504,-8.4446,0.095342,2.4465,-0.91966,-4.0097,-27.54,-3.48,17.4
15.514,-8.0632,0.38137,2.1191,0.050702,-3.5907,-27.6,-5.76,17.46
11.019,-7.8453,0.74912,2.0861,0.41997,-2.7981,-27.66,-8.4,17.52
3.6366,-7.2188,0.42223,1.9991,0.29658,-1.5101,-27.66,-13.5,17.7
-0.70826,-6.7966,0.39499,1.8802,0.31001,-0.64477,-27.54,-16.02,17.64
-2.0567,-6.851,0.64016,1.5324,0.6408,0.24709,-27.3,-18.42,17.88
-3.7865,-7.5865,1.58,1.1689,0.97066,1.0522,-26.58,-22.26,18.48
-4.3721,-7.6955,1.6481,0.86926,1.0415,1.7287,-26.28,-23.64,18.72
-5.3937,-6.9872,1.3484,0.34056,0.97861,2.3195,-26.28,-25.5,19.8
-4.2087,-7.2869,0.89894,-0.10751,0.96272,2.7581,-26.7,-26.04,20.46
-1.5527,-8.4719,0.74912,-0.6182,0.6521,3.4007,-27.0,-26.28,21.06
0.1362,-9.3299,1.1169,-1.0962,0.31276,3.8778,-27.24,-26.52,21.48
3.0918,-10.215,1.0215,-1.591,0.18234,4.175,-27.3,-26.34,21.6
11.21,-11.795,0.081722,-2.1704,0.82986,4.2712,-26.88,-25.38,21.24
17.992,-14.056,0.068102,-2.8952,1.8179,4.6624,-26.7,-24.48,20.88
19.477,-15.268,-1.866,-3.1964,1.8503,4.7806,-26.04,-22.56,19.8
19.532,-10.964,-3.0646,-3.3335,0.99113,4.1139,-25.92,-21.6,19.5
19.532,-9.2346,-3.732,-3.0232,0.044899,3.0565,-26.16,-20.46,19.38
19.532,-4.808,-2.8603,-3.35,0.90286,2.4774,-27.0,-17.34,19.56
19.246,-1.6072,-1.4982,-3.693,1.2575,2.1246,-27.24,-15.12,19.74
16.263,2.6968,-0.69464,-3.488,1.2874,1.9151,-27.6,-10.38,20.04
11.169,9.9973,0.47671,-2.7431,1.4645,1.5348,-27.48,-8.04,20.1
9.4798,11.182,-0.49033,-1.8787,1.1478,0.85216,-27.36,-5.7,20.34
7.9407,10.637,-1.1032,-1.1551,0.72204,0.20831,-27.24,-3.48,20.52
4.5356,8.3493,-0.85808,-0.6466,0.56322,-0.27367,-27.06,0.42,21.24
3.4732,9.2482,-0.7355,-0.23824,0.42272,-0.80237,-27.12,2.28,21.6
2.3972,9.5751,-0.74912,0.26328,0.23305,-1.485,-27.3,3.9,22.02
2.8194,6.8647,-0.64016,0.978,-0.11637,-2.5039,-28.08,7.32,23.34
3.7728,6.0883,-0.17706,1.321,-0.37018,-3.0901,-28.5,9.12,23.94
4.808,5.7205,0.17706,1.4954,-0.38637,-3.3582,-28.62,10.26,23.94
11.795,6.2245,2.3427,1.8665,0.34911,-4.0488,-28.68,10.8,23.58
17.884,7.2733,1.9477,2.2752,0.97494,-4.2269,-28.68,9.96,23.16
19.327,4.8625,1.866,2.9187,0.84422,-3.7932,-28.5,8.58,22.56
19.532,-9.7658,2.2337,3.0668,0.49877,-3.9569,-27.3,5.46,20.64
19.532,-7.9679,1.4438,3.3463,-0.55008,-3.7168,-26.88,3.84,19.62
19.532,-6.7966,1.0215,3.583,-0.77183,-3.3698,-26.64,2.1,18.96
14.165,-7.75,0.27241,3.5036,-0.56627,-2.803,-26.64,-1.8,17.82
9.6432,-7.1507,0.24517,3.3671,-0.45601,-2.0461,-26.76,-3.78,17.34
6.4424,-6.6059,0.64016,3.1713,-0.37874,-1.3711,-26.88,-5.94,16.98
1.0896,-8.2267,1.0079,2.7632,-0.24007,-0.42913,-26.88,-10.2,16.08
-0.85808,-8.7715,0.99429,2.5049,-0.12187,-0.055589,-26.52,-12.18,15.66
-4.0725,-8.8124,1.2395,1.8531,0.31612,0.70158,-26.28,-13.8,15.48
-5.9793,-8.0769,1.1577,0.93157,1.0458,1.4374,-25.5,-16.32,15.06
-5.0804,-6.5105,1.0215,0.45601,1.0088,1.6567,-25.2,-16.86,14.94
-4.1133,-5.7069,1.1577,0.0058032,0.60384,2.0265,-25.2,-16.98,15.18
-1.6344,-8.7306,0.92618,-0.44685,0.40042,3.0015,-25.98,-17.1,16.38
0.96704,-10.324,0.74912,-1.4358,0.50824,3.5067,-26.34,-17.22,16.98
3.0237,-10.869,0.61292,-1.7709,0.49297,3.6429,-26.4,-17.04,17.22
8.7443,-11.645,1.4165,-2.383,0.65485,3.7302,-26.22,-16.68,17.4
19.068,-16.862,1.2395,-3.2672,1.7309,4.0448,-25.08,-15.84,17.4
19.477,-15.977,0.36775,-3.6346,2.1988,4.3252,-24.72,-15.24,17.16
19.532,-12.871,0.027241,-3.6646,1.5498,3.2849,-24.48,-14.82,17.1
19.532,-8.54,-1.3893,-3.3735,0.94195,2.6857,-24.72,-12.84,17.76
19.532,-5.4345,-1.6208,-3.306,1.1118,2.2165,-24.72,-11.28,18.24
19.232,-3.4732,-1.4165,-3.1741,1.1274,1.9193,-24.6,-9.36,18.66
14.41,2.2746,-0.77636,-3.0213,1.0681,1.5262,-23.94,-5.52,19.2
11.182,5.3119,-0.34051,-2.8805,1.292,1.3757,-23.7,-3.72,19.5
8.7034,10.025,-0.28603,-2.3937,1.2865,1.1316,-23.28,-1.68,19.68
7.2188,11.128,-0.78998,-1.3592,0.73945,0.37141,-22.5,1.86,20.4
5.0259,10.256,-1.2258,-0.73945,0.35675,-0.22999,-22.2,3.54,20.82
4.2495,9.6296,-1.2122,-0.48717,0.17959,-0.52412,-22.14,5.16,21.24
2.9284,9.1937,0.14982,0.19212,-0.10446,-1.3961,-22.38,8.28,22.32
3.3234,8.5808,0.55843,0.68539,-0.0012217,-2.1139,-22.26,9.78,22.92
4.4811,7.0553,0.42223,1.19,-0.077885,-2.7972,-22.14,11.46,23.52
7.641,4.2495,0.65378,1.7336,-0.60018,-3.6035,-21.66,13.08,23.64
10.951,4.5083,1.5936,1.9798,-0.39798,-3.9835,-21.54,12.78,23.4
15.8,5.1485,2.3155,2.171,-0.15821,-4.0598,-21.66,11.88,23.16
19.423,0.57205,1.4165,3.2782,-0.35216,-3.6044,-21.6,9.0,21.9
19.518,-7.1915,1.0624,4.1774,-0.95509,-4.0177,-21.24,7.38,20.88
19.532,-13.334,-0.62654,3.7248,-2.0965,-3.8833,-21.12,5.7,20.1
19.0,-9.7522,0.31327,2.959,-1.1325,-3.1676,-21.18,2.58,19.14
13.171,-9.8611,0.55843,2.8836,-0.65637,-3.003,-21.48,0.9,18.9
10.447,-9.6977,0.47671,2.6903,-0.17532,-2.3439,-21.72,-0.96,18.54
7.0553,-8.8941,0.36775,2.2639,0.1405,-1.3332,-21.96,-2.88,18.3
1.7979,-7.1643,0.51757,2.0272,0.34728,-0.58949,-22.5,-6.54,17.82
0.16344,-7.069,0.84446,1.751,0.59132,0.21014,-22.56,-8.28,17.64
-2.5061,-6.8647,0.83084,1.2199,0.89675,1.1472,-22.32,-11.22,16.92
-3.5685,-6.5105,0.7355,0.86987,1.0318,1.5644,-21.96,-12.24,16.74
-4.0044,-6.0611,0.6674,0.49297,0.98655,1.7749,-21.54,-12.78,16.62
-3.5549,-5.2983,0.23155,0.14997,0.74037,2.0024,-21.48,-13.02,17.04
-1.8115,-6.9872,0.68102,-0.23854,0.45754,2.4468,-21.66,-12.96,17.58
0.99429,-8.7851,1.2531,-0.85918,0.36377,2.7926,-21.72,-13.02,18.0
5.0395,-8.5944,1.2531,-1.7349,0.29932,3.2694,-21.48,-12.9,18.12
12.98,-11.128,1.2803,-1.9096,0.59193,3.361,-21.12,-12.84,18.0
17.747,-14.152,0.99429,-2.2987,1.6408,3.4887,-20.76,-12.6,17.76
19.504,-14.506,-0.84446,-3.4746,1.5317,3.6597,-20.1,-12.12,17.46
19.532,-11.536,-2.0975,-3.3121,0.35308,2.7574,-20.04,-11.64,17.4
19.532,-9.902,-3.2144,-3.0235,0.073915,2.241,-20.28,-11.04,17.46
19.355,-5.2166,-2.5606,-3.2361,1.1759,1.7694,-20.52,-8.88,18.3
17.72,-2.0839,-1.6617,-3.397,1.46,1.5449,-20.7,-7.44,18.66
15.609,1.3348,-0.44947,-3.4117,1.4529,1.3967,-20.7,-5.82,19.02
10.896,8.7715,0.054481,-2.6655,1.0999,0.95967,-20.46,-2.52,19.8
8.8668,11.032,-0.50395,-1.8347,0.75381,0.42913,-20.4,-0.9,20.1
6.6195,10.774,-1.0624,-0.99418,0.33262,-0.2868,-20.46,0.78,20.46
4.304,9.6023,-0.49033,-0.35216,0.18876,-1.0275,-20.64,3.72,21.48
3.8682,9.8748,-0.50395,0.032681,0.2022,-1.664,-20.88,5.16,21.96
3.4187,9.3163,-0.40861,0.49786,-0.0030543,-2.3503,-21.18,6.48,22.44
4.9169,6.3471,-0.27241,0.92485,-0.30574,-3.0626,-21.9,8.94,23.34
6.1428,4.7399,-0.095342,1.2504,-0.51313,-3.6768,-22.02,9.66,23.76
8.5808,4.0997,0.24517,1.5061,-0.43555,-4.1951,-22.08,9.84,23.64
14.547,5.0395,0.42223,1.8702,-0.54856,-4.6609,-21.84,8.76,22.5
18.673,5.0531,-0.81722,2.8857,-1.5125,-4.2809,-21.72,7.56,21.72
19.423,1.6753,-2.6968,3.2547,-1.8421,-4.0629,-21.42,6.12,20.88
19.532,-5.0123,-2.7649,3.7629,-2.2281,-3.8628,-21.3,4.68,20.28
19.532,-10.746,-2.3155,3.208,-2.3897,-2.6887,-21.54,3.12,19.8
19.532,-10.746,-2.3155,2.0678,-1.0565,-2.2727,-21.54,3.12,19.8
9.6023,-7.7772,0.17706,1.8363,0.35277,-2.0238,-22.08,1.32,19.86
6.1292,-7.1371,-0.57205,2.0195,0.84849,-0.96822,-22.8,-3.0,19.62
4.8352,-6.9464,-0.7355,1.7892,0.75625,-0.25076,-23.46,-5.22,19.74
2.0022,-6.0202,-0.53119,1.4508,0.75686,0.54,-24.36,-9.36,19.5
0.24517,-5.2983,0.47671,1.1472,0.97158,1.2449,-24.6,-12.84,19.2
-0.99429,-5.5026,1.5663,0.8995,1.1096,1.7953,-24.54,-15.12,18.84
-2.3563,-5.7342,1.7979,0.65912,1.0351,2.2568,-24.72,-16.38,19.56
-3.4732,-5.0804,1.3484,0.354,0.9557,2.4923,-25.44,-16.98,20.34
-2.4653,-6.2381,1.076,0.050396,0.78343,2.6643,-25.86,-17.16,20.64
-0.55843,-7.9543,1.2939,-0.61087,0.51313,3.2981,-25.62,-16.44,20.04
1.866,-8.826,0.98067,-1.0834,0.66432,3.62,-24.9,-15.18,19.26
7.7091,-9.8339,1.9068,-1.4908,0.9954,3.9673,-24.0,-13.86,18.48
12.463,-11.782,1.0215,-1.5666,1.4435,4.346,-23.76,-13.32,18.18
19.041,-18.565,-2.9148,-2.4499,1.6383,4.5219,-23.52,-12.3,17.7
19.518,-15.255,-4.985,-2.9175,1.2171,4.0861,-23.88,-10.86,18.12
19.532,-10.351,-5.3937,-2.8512,-0.44807,2.3802,-24.6,-8.28,19.08
19.532,-8.2948,-5.5707,-3.0186,0.70158,2.1698,-24.66,-6.9,19.74
18.456,-3.337,-4.1542,-3.2092,1.4587,1.7782,-24.9,-3.78,20.94
16.126,-0.40861,-3.514,-3.2837,1.0418,1.4936,-24.84,-2.22,21.66
12.667,4.6309,-1.8524,-3.1649,0.46395,1.1976,-24.84,0.96,22.5
7.8317,10.692,-1.5119,-2.4077,0.27917,0.96059,-24.96,4.26,23.76
5.2302,11.455,-2.2337,-1.3659,0.76297,0.25076,-24.66,7.86,25.2
4.522,10.297,-2.5742,-0.93371,1.1774,-0.40073,-24.48,9.6,25.74
4.9987,9.6023,-1.9477,-0.67165,1.1359,-0.96059,-23.58,12.72,26.34
4.7944,9.3436,-0.68102,-0.13744,0.42089,-1.6243,-22.26,14.46,26.22
4.4266,6.9872,-0.57205,0.49877,-0.16341,-2.3918,-21.54,15.3,26.1
4.4811,5.7205,-0.64016,1.1014,-0.25443,-3.5931,-21.42,15.18,26.1
7.5048,3.8682,-0.85808,1.3793,-0.22999,-4.2379,-22.08,14.1,26.4
14.206,4.808,-0.85808,1.6322,-0.26481,-4.6557,-23.04,11.82,26.52
18.769,5.1894,-2.4789,2.3268,-0.74739,-4.5503,-23.34,10.14,26.16
19.477,-0.24517,-4.2904,3.0836,-1.6588,-4.2021,-23.58,6.66,24.3
19.532,-11.809,-5.1213,3.6194,-2.394,-4.7043,-23.94,3.06,22.86
19.532,-13.116,-5.0395,3.2046,-3.0772,-4.4175,-24.24,1.56,22.56
18.51,-10.828,-2.9965,2.2709,-1.8002,-3.8695,-24.9,-1.8,22.32
11.128,-9.3299,-0.92618,1.919,-0.562,-3.2474,-25.56,-5.46,22.44
8.9077,-8.7851,0.32689,1.7672,-0.1014,-2.4273,-25.74,-7.38,22.38
4.0997,-7.6683,0.28603,1.682,0.013744,-1.7382,-25.86,-10.86,22.5
0.7355,-7.0553,0.40861,1.5745,0.021075,-1.0443,-25.44,-13.44,22.86
-2.1929,-6.3743,1.58,1.3396,0.25534,-0.27733,-25.32,-15.06,23.76
-3.1735,-5.775,2.2474,0.87995,0.76816,0.71777,-25.68,-15.6,24.78
-3.8273,-4.9033,2.6696,0.60201,0.85888,1.153,-26.52,-16.5,26.94
-3.8682,-3.7728,2.6423,0.46701,0.7199,1.3977,-26.76,-16.92,27.78
-3.4187,-4.3994,1.9613,0.40775,0.51954,1.8378,-26.94,-17.58,28.56
-0.74912,-7.4503,1.0896,0.14203,0.46365,2.4148,-26.82,-17.64,28.74
1.3076,-8.5672,0.77636,-0.29291,0.62614,2.8723,-26.7,-17.4,28.74
2.9284,-8.8941,0.46309,-0.79993,0.64904,3.2003,-26.58,-16.98,28.74
8.8668,-8.9622,-1.9613,-1.1774,0.58857,3.4758,-26.16,-15.72,28.32
17.189,-12.708,-3.6503,-1.0168,1.3482,3.9254,-25.62,-14.16,27.78
19.382,-17.897,-6.2245,-1.4349,2.0006,4.5201,-25.2,-12.54,27.3
19.532,-12.572,-6.96,-2.2138,1.3906,4.2141,-24.78,-11.04,26.7
19.532,-10.828,-7.355,-2.1658,0.37018,3.5415,-24.72,-10.38,26.7
19.409,-8.3084,-7.641,-2.0363,0.72724,3.1521,-24.6,-8.46,27.3
16.44,-4.4947,-6.0883,-2.8173,1.4597,2.9352,-24.72,-5.88,28.14
14.233,-0.61292,-4.2904,-2.996,1.5253,2.8268,-24.66,-4.32,28.62
12.108,4.7671,-2.5606,-2.7944,1.58,2.6973,-24.3,-1.02,29.4
10.379,9.4253,-1.5391,-2.2055,1.4777,2.3854,-23.64,2.04,30.42
8.7987,10.869,-1.7025,-1.5143,1.171,1.7691,-22.98,5.16,31.32
8.1586,11.441,-2.0158,-0.99999,0.91263,0.99327,-22.5,6.78,31.86
6.6604,11.332,-2.0703,-0.34331,0.43738,-0.46578,-21.6,9.84,33.06
6.1019,10.733,-1.975,0.029627,0.11942,-1.4948,-21.12,11.4,33.48
5.7069,8.2812,-1.3212,0.35888,0.068417,-2.5241,-19.98,13.8,33.9
6.2654,6.4969,-1.0215,0.61453,0.10201,-3.3604,-19.32,15.54,33.96
7.6683,5.4073,-0.98067,0.83719,0.11393,-4.0122,-19.32,15.78,34.02
12.231,4.8352,-1.3484,1.1167,-0.16005,-4.532,-19.86,15.06,34.14
18.442,4.5356,-2.5879,1.482,-0.33109,-4.6429,-20.88,12.54,33.72
19.463,-1.0896,-5.2711,2.5629,-1.2675,-4.5717,-21.84,9.24,31.86
19.532,-12.735,-4.9169,3.229,-1.8579,-4.5882,-22.5,6.12,29.4
19.532,-15.732,-5.1757,3.1689,-2.5779,-4.0931,-23.52,2.94,27.66
17.216,-15.35,-2.3427,1.7685,-1.7223,-3.8384,-24.12,1.38,27.18
10.924,-10.746,-1.0351,1.365,0.48594,-3.3778,-25.62,-1.92,26.22
6.0338,-9.5887,-1.3484,1.6725,0.75472,-2.6096,-26.58,-5.58,25.32
4.2087,-8.9622,-1.1986,1.6564,0.51465,-1.6429,-26.94,-7.32,24.84
0.81722,-6.8647,-0.70826,1.5864,0.49022,-0.66584,-27.3,-9.0,24.48
-0.98067,-5.4618,0.64016,1.4716,0.72174,0.27581,-27.72,-11.4,23.4
-2.0567,-6.2517,1.8115,1.3143,0.93371,1.0858,-28.5,-12.42,24.06
-3.8546,-6.7966,2.0022,1.0928,0.93768,1.7642,-29.52,-12.96,25.5
-4.7944,-5.9249,1.6481,0.73731,0.84238,2.3821,-30.06,-13.32,26.22
-4.699,-4.6854,0.78998,0.30818,0.66584,2.6701,-30.66,-13.92,26.64
-2.8739,-6.8102,0.57205,0.11637,0.47525,3.1854,-30.84,-14.04,26.58
-0.89894,-9.1393,0.88532,-0.29566,0.58857,3.6417,-30.54,-13.68,25.98
2.0294,-9.8339,0.36775,-0.76328,0.96608,4.0674,-30.12,-12.9,24.9
12.381,-13.552,0.01362,-1.1081,1.1075,4.7104,-29.58,-11.76,23.64
18.51,-18.551,-2.2337,-1.85,1.7853,4.9001,-29.46,-11.16,23.22
19.477,-19.477,-5.6797,-2.3488,1.9429,4.4792,-29.58,-9.42,23.1
19.532,-16.726,-6.8919,-2.3515,1.1466,3.4816,-29.64,-8.22,23.34
19.532,-12.926,-7.3005,-2.2138,0.44502,2.6594,-29.64,-5.22,23.7
18.51,-6.4833,-5.6933,-2.346,0.98013,2.0241,-29.4,-1.8,24.6
16.549,-4.0316,-4.3449,-2.6982,1.5605,1.7171,-29.22,0.24,24.9
13.13,1.9886,-1.7298,-2.8155,1.6255,1.3897,-28.86,3.78,25.74
9.8611,6.3879,-0.89894,-2.3729,1.3885,1.1362,-28.56,7.44,26.7
8.0632,9.4253,-1.5255,-1.73,1.2529,0.70158,-28.32,9.3,27.3
5.8976,10.025,-2.4517,-1.0934,0.93829,0.032376,-27.9,12.84,28.5
4.6309,10.256,-2.7786,-0.65576,0.59529,-0.57513,-26.7,16.38,29.1
4.4947,10.283,-2.6287,-0.30665,0.32956,-1.2037,-26.1,17.7,29.1
4.3177,9.1937,-1.7162,0.10568,-0.013439,-1.9765,-24.96,19.2,29.1
4.9714,6.2245,-0.91256,0.70677,-0.2697,-3.2562,-24.66,19.8,29.1
6.9328,4.5492,0.081722,1.0046,-0.38057,-4.0302,-25.08,18.96,29.4
10.324,4.2495,0.34051,1.39,-0.66462,-4.5818,-25.92,17.04,29.76
13.416,4.3449,-0.50395,1.7889,-0.88148,-4.7846,-27.0,13.74,29.28
19.286,1.8387,-5.9521,2.277,-1.1032,-4.4312,-27.24,11.64,28.38
19.518,-12.776,-6.17,2.8109,-1.456,-4.1301,-27.48,7.98,25.68
19.532,-15.595,-3.337,2.1927,-2.9664,-3.8949,-28.02,4.56,23.46
19.532,-13.484,-2.2337,1.5525,-1.7947,-3.722,-28.38,2.88,22.8
14.111,-11.155,-0.99429,1.3741,0.051924,-3.437,-29.1,-0.6,21.78
9.0575,-9.1665,-1.2122,1.4187,0.57605,-2.7941,-29.46,-4.2,20.82
6.8238,-8.1722,-1.2667,1.6658,0.3094,-2.1307,-29.58,-6.0,20.4
1.6072,-6.0066,-0.99429,1.8439,0.029932,-1.4059,-29.34,-9.06,19.44
-0.81722,-5.2847,0.054481,1.7733,0.18906,-0.17959,-29.22,-11.1,18.78
-2.0022,-5.1894,0.9398,1.529,0.6127,0.52382,-29.1,-11.58,19.08
-3.3506,-5.5026,2.0022,1.2339,1.055,1.1167,-29.64,-12.24,20.52
-4.5628,-5.6388,2.0567,0.92027,1.2587,1.5773,-29.82,-12.66,21.54
-4.7399,-5.4073,1.7162,0.4835,1.1383,1.9059,-29.94,-13.2,22.26
-3.6775,-5.775,0.61292,0.060476,0.86163,2.2382,-29.76,-13.92,22.8
-2.152,-7.5048,-0.054481,-0.35705,0.91844,2.7019,-29.52,-13.98,22.62
-0.64016,-8.6898,-0.39499,-0.86224,1.1322,3.1356,-29.04,-13.86,22.26
3.9908,-9.8339,-1.0896,-1.5608,0.79901,3.8069,-28.56,-13.8,21.72
16.154,-13.511,-1.6481,-1.865,1.1377,4.1536,-27.42,-13.26,20.58
19.314,-17.543,-3.3915,-2.4584,1.3842,4.4908,-27.18,-13.14,20.1
19.532,-14.383,-5.9657,-2.7046,1.2746,3.8652,-27.06,-12.24,20.04
19.532,-12.871,-6.6059,-2.2556,-0.16371,2.5018,-27.24,-11.46,20.04
19.532,-10.433,-6.1019,-2.2266,-0.051007,2.3329,-27.3,-10.5,20.16
18.919,-7.1643,-5.3664,-2.5763,0.94043,1.9453,-27.42,-9.06,20.58
15.228,-4.0452,-4.1814,-2.7092,1.2107,1.9245,-27.18,-7.38,21.0
15.228,-4.0452,-4.1814,-2.7721,1.2856,1.8686,-27.18,-7.38,21.0
8.0632,6.8238,-0.081722,-2.3543,1.274,1.4786,-26.46,-1.86,22.14
5.8704,10.052,-1.2395,-1.7055,1.3014,1.1469,-25.92,1.68,22.98
5.1894,10.569,-2.1248,-1.1518,1.1426,0.56963,-25.74,3.3,23.46
4.6309,10.515,-2.7513,-0.46456,0.44135,-0.47067,-25.68,5.04,24.06
4.3449,10.065,-1.5936,-0.012217,-0.083689,-1.1668,-25.56,8.58,25.44
5.094,9.2482,-0.91256,0.45143,-0.4218,-2.0424,-25.26,10.44,25.98
7.2869,5.8704,-0.9398,0.84971,-0.63255,-2.9364,-24.66,13.56,26.34
9.112,4.4539,-1.2531,1.1087,-0.82742,-3.6353,-24.36,14.46,26.4
12.299,3.9635,-2.1112,1.2535,-0.91416,-4.1038,-24.18,14.7,26.58
19.096,2.4108,-4.127,1.7853,-1.0938,-4.1615,-24.42,13.02,25.86
19.504,-4.3585,-5.5435,2.3845,-1.5244,-4.193,-24.54,11.52,25.02
19.532,-10.869,-5.094,2.5122,-2.1673,-4.4984,-24.72,9.72,24.24
19.532,-13.525,-3.5277,2.0027,-2.2801,-3.9636,-25.38,6.66,22.74
18.51,-12.149,-2.3699,1.642,-1.3256,-3.6389,-25.86,4.8,22.44
15.963,-11.468,-1.8796,1.5345,-0.27367,-3.1215,-26.46,3.06,22.26
7.9951,-9.8339,-1.0488,1.6716,-0.29047,-2.5586,-27.72,-0.84,22.02
4.1678,-8.6625,-0.58567,1.7303,-0.28986,-1.8662,-28.38,-3.0,21.9
1.1169,-7.5457,-0.095342,1.6554,-0.061697,-1.0757,-29.34,-7.2,22.08
-2.1384,-6.2654,1.7706,1.3702,0.70463,-0.033598,-29.64,-9.18,22.08
-2.8739,-6.3607,2.2065,1.2559,0.91935,0.24007,-29.7,-10.92,22.02
-4.5356,-6.3335,2.2337,0.97005,1.1002,0.73609,-29.82,-12.24,21.84
-5.2166,-4.3177,2.1793,0.42058,0.67592,1.2196,-29.76,-13.74,21.9
-4.8761,-4.9033,1.3076,0.079412,0.47983,1.7853,-29.82,-14.1,22.38
-3.2416,-6.4424,0.64016,-0.33689,0.62369,2.4435,-29.94,-14.04,23.1
1.4438,-8.8124,-0.12258,-0.99235,0.6744,3.2831,-29.88,-14.76,24.06
4.5901,-9.9973,-0.44947,-1.4145,0.56749,3.7385,-29.76,-14.76,24.12
8.3493,-11.319,-0.89894,-1.894,1.0705,4.1111,-29.52,-14.64,23.94
19.096,-15.282,-4.3177,-2.299,1.8082,4.4269,-29.16,-14.16,23.4
19.477,-13.675,-6.4833,-2.2132,1.9792,4.1505,-29.1,-13.68,23.22
19.532,-11.741,-7.4503,-1.9804,1.0458,3.3057,-29.16,-13.08,22.98
19.532,-8.4446,-7.2324,-1.8644,0.67562,2.6044,-29.52,-11.4,23.1
19.232,-5.4073,-5.9249,-2.3078,0.96303,2.2477,-29.64,-9.96,23.46
16.304,-2.4653,-4.5764,-2.3726,0.8378,1.9838,-29.64,-8.34,23.76
10.093,3.1599,-2.6151,-2.4364,1.2343,1.8082,-29.16,-4.44,24.3
7.9951,7.7636,-1.6344,-2.3051,1.7181,1.6548,-28.92,-2.4,24.48
7.9134,10.46,-1.866,-1.7645,1.6148,1.3341,-28.68,-0.48,24.66
6.3743,10.801,-2.2474,-1.0369,0.64568,0.2306,-28.26,3.18,25.32
5.3528,9.8748,-2.3155,-0.22663,0.18784,-0.42913,-27.96,5.04,25.74
4.9169,9.5887,-1.8524,0.19273,-0.089186,-1.1322,-27.72,6.78,26.16
5.775,7.3822,-1.185,0.63072,-0.33781,-1.9438,-27.3,10.08,27.12
6.3335,5.6933,-1.1713,1.0431,-0.7199,-2.6997,-27.06,11.64,27.54
7.8045,4.4947,-1.5663,1.3137,-0.97555,-3.3023,-26.88,12.9,28.02
16.481,2.6287,-2.6423,1.5858,-0.85796,-3.6988,-26.64,13.8,28.32
19.15,0.65378,-4.2768,2.102,-0.99693,-3.6737,-26.76,13.14,27.96
19.491,-4.3585,-5.6116,2.284,-1.7202,-3.7654,-26.58,11.88,27.3
19.532,-9.9156,-5.3937,2.1588,-2.1658,-3.8598,-26.7,10.38,26.34
19.532,-10.733,-3.8954,1.6173,-1.9597,-3.6759,-26.82,7.26,24.84
17.897,-10.61,-2.7649,1.35,-0.93462,-3.4581,-27.06,5.64,24.3
14.683,-10.202,-1.2939,1.27,-0.34911,-2.6701,-27.96,2.1,23.64
8.0224,-8.3084,-1.0624,1.4129,-0.41508,-2.175,-28.44,0.36,23.46
4.5764,-7.5321,-0.40861,1.492,-0.51282,-1.6194,-28.8,-1.62,23.28
1.7706,-7.0145,0.46309,1.379,-0.33414,-1.0098,-29.34,-3.72,23.1
-1.7162,-5.9793,2.5606,1.1118,0.087048,-0.37293,-29.7,-7.44,22.98
-3.0782,-5.489,2.9692,0.84513,0.4383,0.14722,-29.94,-9.06,22.5
-4.0316,-5.4754,2.7649,0.56291,0.44929,0.76297,-29.58,-11.22,21.84
-5.7614,-5.3119,1.9886,0.343,0.43616,1.226,-29.4,-11.64,21.6
-4.5764,-5.8976,1.6753,0.21655,0.49908,1.5259,-29.52,-11.58,21.96
-3.0101,-6.674,1.3212,-0.035736,0.58857,2.1677,-29.4,-11.64,22.56
0.36775,-8.1586,0.47671,-0.35247,0.27122,2.9178,-29.58,-11.7,22.92
4.1814,-9.5615,-0.64016,-0.63225,0.42211,3.266,-29.58,-11.88,23.46
11.536,-12.0,-2.1248,-0.96822,1.2239,3.6441,-29.4,-11.82,23.34
19.205,-14.329,-5.5162,-1.285,1.8375,4.0186,-29.16,-11.46,22.98
19.504,-11.863,-7.0826,-1.303,1.5556,3.7623,-29.22,-11.1,22.86
19.532,-10.324,-7.7636,-1.292,0.17929,2.8579,-29.4,-10.44,22.8
19.532,-9.3844,-8.1041,-1.5146,0.79107,2.5021,-29.7,-9.78,22.8
19.123,-4.0997,-6.2245,-1.7801,1.3534,2.1444,-29.94,-7.38,23.4
15.854,-1.2531,-4.9442,-1.9251,1.3925,1.6799,-29.88,-5.76,23.7
12.367,1.8932,-3.8954,-1.9786,1.416,1.263,-29.82,-4.14,23.94
8.4446,6.4697,-2.9556,-1.9111,1.4765,1.1848,-29.34,-0.78,24.42
6.7966,8.1177,-2.8875,-1.4267,1.3066,0.7419,-29.16,0.9,24.66
5.9657,8.7715,-2.6696,-1.0351,1.069,0.21838,-28.86,2.64,25.02
4.5356,8.3765,-1.6617,-0.67165,0.78343,-0.42028,-28.38,5.88,25.44
3.8273,8.1858,-0.81722,-0.32987,0.4554,-1.1142,-28.32,7.44,25.8
4.4675,7.246,-1.4574,0.034208,0.15516,-1.8353,-28.26,9.96,26.46
6.0611,5.8023,-2.2746,0.43433,0.066584,-2.9047,-28.2,11.04,26.76
9.0984,4.6445,-2.7922,0.71532,-0.17837,-3.5024,-28.14,11.76,27.0
15.459,3.0918,-2.8603,0.97983,-0.4609,-4.0332,-28.14,11.4,26.76
19.218,1.7706,-3.6503,1.288,-0.69944,-4.3729,-28.2,10.14,25.98
19.491,-1.0215,-5.5299,1.7376,-1.4258,-4.4389,-28.2,8.52,24.78
19.532,-9.5887,-6.5241,1.7446,-1.6591,-4.131,-28.02,5.1,22.38
19.532,-10.992,-5.3528,1.6283,-1.5989,-3.4529,-28.14,3.36,21.48
19.532,-10.774,-4.1542,1.5143,-1.42,-3.1026,-28.26,1.56,20.94
15.159,-10.174,-2.1656,1.3027,-0.66554,-2.4905,-28.62,-0.24,20.52
8.7987,-9.0712,-1.471,1.281,0.20342,-1.6325,-29.7,-4.44,20.1
4.6445,-7.2596,-0.83084,1.3891,0.32223,-1.0339,-30.0,-6.54,19.86
2.152,-6.5105,0.27241,1.4926,0.31643,-0.36163,-30.36,-10.26,19.5
-1.1713,-6.6876,1.7706,1.4022,0.43799,0.69883,-30.48,-11.88,19.2
-2.833,-6.6467,2.5061,1.1616,0.69089,1.3173,-30.3,-13.44,18.9
-3.9363,-6.3198,2.833,0.87781,0.93096,1.7746,-30.0,-14.52,18.54
-5.1349,-4.2359,2.9556,0.5901,0.98746,2.0626,-29.58,-15.24,18.48
-4.4266,-4.4811,2.3699,0.33567,0.8433,2.4334,-29.58,-15.06,18.9
-2.833,-5.7614,1.757,0.062003,0.75411,2.8897,-29.76,-14.88,19.44
0.38137,-7.1915,0.58567,-0.36652,0.77855,3.4019,-29.76,-14.88,19.92
2.0703,-8.0224,-0.35413,-0.74678,0.91019,3.6328,-29.82,-14.76,19.8
6.4833,-8.9758,-1.0079,-1.1136,1.2065,3.8439,-29.7,-14.76,19.56
18.987,-14.764,-3.2008,-1.3622,1.7312,4.1389,-29.52,-13.56,19.2
19.45,-14.86,-4.3721,-1.6448,1.7559,4.1203,-29.76,-12.72,19.26
19.518,-11.278,-6.5378,-1.6961,1.4746,3.0406,-30.0,-10.14,19.5
19.532,-9.0575,-7.1915,-1.6078,0.98563,2.2938,-29.76,-8.52,19.62
19.532,-7.3141,-6.7012,-1.6716,0.64568,1.9044,-29.58,-6.84,19.8
19.0,-5.6524,-6.0202,-2.0931,1.3045,1.5675,-29.16,-5.04,20.04
14.029,0.19068,-4.3994,-2.2245,1.7846,1.2477,-28.32,-1.02,20.46
12.013,2.6015,-3.9363,-2.1814,1.8967,0.84116,-27.78,0.78,20.7
10.515,4.9578,-3.514,-2.1011,1.7245,0.57941,-27.36,2.82,20.88
8.1995,7.7772,-2.8058,-1.6041,1.3372,-0.097433,-26.52,6.72,21.66
6.8783,8.5808,-2.3427,-1.2877,1.0452,-0.63102,-25.98,8.58,22.2
5.2166,8.9213,-2.0975,-1.1344,0.94592,-0.91294,-25.44,10.68,22.68
5.38,7.1915,-2.2882,-0.49816,0.40409,-1.9487,-24.42,13.68,23.16
6.6195,4.2632,-2.833,-0.1182,0.065973,-2.824,-23.76,14.76,23.28
8.0905,2.4653,-3.4187,0.15577,-0.48533,-3.4251,-23.46,15.36,23.4
13.157,0.42223,-2.6015,0.051924,-0.29963,-4.1395,-23.58,14.46,23.1
17.952,-0.35413,-2.6015,0.42211,-0.38882,-3.879,-23.82,13.38,22.44
19.137,-1.6344,-2.7649,0.53756,-0.38576,-3.8075,-24.12,12.12,21.36
19.532,-8.5536,-4.6173,1.5382,-1.0464,-3.901,-24.72,9.42,19.26
19.532,-12.817,-5.3937,2.2651,-1.8341,-3.4416,-25.26,8.04,18.48
19.532,-16.453,-4.1814,1.9832,-1.8937,-2.3097,-25.74,6.24,18.06
13.634,-10.61,-0.068102,1.8732,-1.3295,-1.3161,-26.64,2.88,17.52
9.5751,-9.4798,0.38137,2.4917,-1.4383,-0.84819,-27.24,1.08,17.28
5.9112,-8.54,0.70826,2.5809,-1.3778,-0.36438,-27.9,-0.84,17.22
0.96704,-7.0826,1.6753,2.4881,-0.99938,0.2303,-28.74,-4.32,17.16
-0.89894,-6.1155,2.0294,2.2013,-0.41844,0.85094,-28.92,-5.7,17.04
-1.8796,-5.4754,2.1248,1.8671,-0.04612,1.3069,-28.98,-6.84,16.92
-4.3177,-4.9987,1.9886,1.503,0.018937,1.7459,-28.38,-7.92,16.68
-5.1757,-4.3721,1.7843,0.76358,0.26939,1.9297,-28.08,-7.92,17.16
-4.8352,-3.8001,1.6481,0.33567,0.48167,2.295,-27.9,-7.86,17.94
0.16344,-5.8976,-0.43585,-0.049175,0.38698,2.6615,-27.36,-8.16,19.68
2.0839,-6.6876,-1.4165,-0.46395,0.25473,2.8237,-27.12,-8.28,20.28
3.1872,-7.4503,-2.0567,-0.90347,0.44349,2.9144,-26.82,-8.28,20.64
10.556,-8.7715,-1.866,-1.3723,1.0333,3.0409,-26.34,-7.98,21.36
15.391,-10.283,-2.6832,-1.7562,1.7691,3.4633,-26.16,-7.62,21.78
19.273,-13.471,-5.6116,-1.8796,1.7025,3.5015,-25.86,-7.02,22.02
19.532,-11.4,-7.0553,-1.9248,1.1099,2.6362,-25.44,-5.4,22.74
19.532,-9.7658,-7.2052,-1.894,1.0287,2.1732,-25.2,-4.5,23.16
19.096,-7.6819,-6.4288,-2.0382,1.3845,1.8079,-24.84,-3.36,23.64
14.015,-1.3348,-4.5901,-2.1377,1.6503,1.5101,-24.12,-0.96,24.72
11.278,1.9341,-4.127,-2.0638,1.5702,1.2526,-23.52,0.36,25.08
8.6898,4.4811,-3.6775,-1.7932,1.4013,1.0146,-22.98,1.68,25.56
6.4969,6.2245,-3.0646,-1.3143,1.1399,0.72601,-22.62,3.18,26.04
3.6094,8.1722,-2.1384,-0.62186,0.78221,0.13408,-21.6,6.06,27.0
2.3563,9.0848,-1.6072,-0.26786,0.57666,-0.3937,-21.12,7.62,27.48
2.6423,8.826,-1.4301,0.07422,0.30482,-1.0009,-20.46,9.0,28.02
4.9578,6.0747,-1.7298,0.62461,-0.13806,-1.9258,-19.2,11.58,28.32
6.6059,4.7807,-2.6968,0.77183,-0.24374,-2.2181,-18.72,12.6,28.56
8.2539,3.9635,-3.0918,1.0324,-0.33689,-3.0708,-18.24,13.56,28.56
17.121,2.3291,-4.6582,1.1976,-0.4777,-3.4163,-18.06,14.04,28.56
19.232,-1.0351,-4.9306,1.7627,-1.1609,-3.3084,-18.12,13.32,28.32
19.504,-7.6683,-5.38,2.4432,-1.8717,-3.2345,-18.42,12.18,27.72
19.532,-13.116,-5.2847,1.554,-1.6194,-3.0311,-18.96,9.36,25.86
19.532,-10.706,-4.9306,1.7236,-1.102,-2.949,-19.02,7.98,24.78
17.965,-12.803,-3.8818,1.8497,-0.93279,-2.419,-19.14,6.72,23.76
10.134,-11.019,-1.185,1.9062,-0.79229,-1.9145,-19.62,4.2,22.08
3.5685,-9.0575,0.44947,1.9517,-0.57055,-1.4224,-19.8,2.94,21.42
0.040861,-8.0224,1.3212,1.9236,-0.059559,-0.89522,-20.22,1.62,20.64
-1.5663,-7.1507,2.152,1.6454,0.39126,0.15547,-20.94,-1.32,19.44
-1.6753,-6.7421,2.0567,1.4456,0.33384,0.78832,-21.06,-2.58,18.84
-2.152,-6.3607,2.0567,1.2553,0.31734,1.2034,-20.88,-3.78,18.0
-3.909,-5.8023,2.1384,0.91813,0.43555,1.3341,-20.94,-4.68,17.16
-1.9886,-5.7886,1.2258,0.49816,0.68783,1.3479,-20.1,-5.34,15.48
1.1577,-7.246,0.65378,0.079718,0.59743,1.6078,-19.56,-5.28,14.88
3.2553,-8.4855,-0.64016,-0.26695,0.53817,1.8436,-19.08,-5.1,14.76
8.7987,-9.8066,-1.757,-0.72082,1.3689,2.306,-18.84,-4.8,15.3
16.508,-12.04,-4.0589,-0.83841,1.8918,2.4236,-18.78,-4.92,15.48
19.15,-14.029,-6.1564,-0.66584,1.299,2.0684,-18.84,-4.74,15.72
18.96,-10.025,-7.75,-0.59071,-0.078496,1.4972,-18.78,-4.8,15.84
17.584,-8.6353,-8.0224,-0.66187,-0.31001,1.2028,-18.78,-4.86,15.78
16.099,-7.6683,-7.4367,-0.9279,0.28344,1.1726,-18.72,-4.86,15.6
14.451,-5.4481,-6.9191,-1.1219,0.66584,1.065,-18.78,-4.68,15.48
12.19,-4.1133,-7.0553,-1.1606,0.66248,0.73915,-19.08,-4.62,15.9
11.005,-3.0237,-7.0281,-1.1185,0.50488,0.65912,-19.14,-4.44,16.38
6.8783,0.65378,-6.3198,-0.88423,-0.045815,0.42089,-19.44,-3.72,17.7
5.6252,2.3836,-5.7614,-0.82833,0.21289,0.041539,-19.68,-3.18,18.6
5.6252,2.3836,-5.7614,-0.77519,0.38179,-0.81001,-19.68,-3.18,18.6
5.5571,4.127,-4.6718,-0.66829,0.26664,-1.1167,-19.74,-2.7,19.38
6.1564,7.464,-3.337,-0.31337,-0.21166,-2.1612,-19.68,-2.22,20.28
7.9134,5.8295,-3.2689,-0.21258,-0.33689,-2.8176,-19.5,-2.22,20.64
10.896,4.0316,-3.514,-0.16371,-0.40897,-3.573,-19.2,-2.28,20.4
15.309,0.39499,-3.9908,-0.087965,-0.61942,-4.3579,-18.66,-2.1,19.98
14.383,-1.9613,-2.6015,0.0076358,-1.1536,-4.9624,-18.18,-1.62,19.68
13.348,-2.2746,-2.3699,0.049786,-1.4203,-5.1465,-17.88,-1.68,19.14
13.035,-2.9011,-2.6015,0.14478,-0.64691,-4.4822,-17.76,-2.04,18.78
13.375,-4.5083,-2.4925,0.29963,-0.31582,-3.5125,-18.42,-3.36,18.0
11.85,-3.3778,-1.2395,0.47312,-0.10751,-2.387,-19.02,-4.8,16.68
10.406,-3.8001,-0.51757,0.74923,0.081245,-1.058,-19.86,-6.0,16.08
10.556,-5.9793,-0.57205,1.0574,0.22694,0.32712,-20.94,-7.2,15.78
7.6138,-6.6604,-0.49033,1.3711,0.32498,1.193,-22.5,-8.46,16.08
3.6366,-7.4367,0.095342,1.5715,0.20097,1.8451,-23.94,-9.78,16.5
2.6015,-7.9407,0.46309,1.5226,0.41905,2.5385,-24.66,-10.38,16.62
2.2474,-8.5672,1.0896,1.357,0.76022,2.8072,-25.56,-11.22,16.14
2.5742,-7.5729,0.62654,1.2523,0.99785,2.9871,-26.1,-11.34,15.36
1.8387,-6.674,0.42223,1.2471,0.92332,3.0235,-26.22,-10.98,14.4
1.076,-6.7966,0.14982,1.109,0.6463,3.047,-26.4,-10.68,13.98
3.8682,-7.9951,0.17706,0.64813,0.16554,3.1612,-26.52,-9.48,12.72
4.4402,-8.2676,0.17706,0.28588,0.146,3.1957,-26.34,-8.7,11.94
4.6445,-7.8045,-0.29965,-0.067501,0.60384,3.1792,-25.62,-7.26,10.32
7.7908,-6.96,-1.0079,-0.44715,1.1093,3.2516,-24.9,-6.0,8.64
10.869,-6.7829,-1.3212,-0.77733,1.2107,3.4022,-24.54,-5.52,7.98
18.483,-7.5457,-2.7649,-0.99266,0.99876,3.4276,-23.64,-4.74,7.02
19.504,-7.5048,-5.2302,-1.0168,0.85216,2.8179,-23.52,-3.9,6.6
19.532,-6.5786,-6.3607,-1.1527,0.90469,1.4505,-23.22,-3.54,6.48
19.532,-5.2983,-6.851,-1.2205,0.78007,0.83689,-22.86,-2.7,7.02
19.532,-4.8352,-6.3471,-1.397,1.0351,0.26328,-22.86,-1.98,8.04
17.489,-1.7162,-5.7205,-1.4093,1.0727,-0.34147,-22.98,-1.62,8.7
12.967,2.1248,-5.3119,-1.1637,0.86621,-0.86101,-23.34,-1.02,10.5
9.507,7.2188,-4.5901,-0.77946,0.6521,-1.2294,-23.88,0.06,12.54
9.0575,7.9407,-3.8682,-0.39615,0.46273,-1.6842,-24.48,1.14,14.52
9.1937,6.5378,-2.9965,0.15638,-0.20892,-2.7211,-24.78,1.68,15.42
8.9486,4.8761,-1.9613,0.42089,-0.47067,-3.4282,-25.56,1.38,16.74
9.3027,3.7184,-1.6753,0.59223,-0.44532,-4.1111,-25.8,0.9,17.22
11.959,0.8036,-1.7025,0.69486,-0.29505,-4.8567,-25.86,-1.68,16.38
13.062,0.081722,-1.6344,0.79382,-0.51374,-5.4633,-25.56,-2.82,15.66
16.998,-1.3757,-1.4438,0.94165,-1.1518,-6.181,-25.02,-4.98,14.52
19.246,-2.3836,-1.4846,1.1664,-1.3558,-6.4367,-24.72,-7.26,13.68
19.504,-3.4459,-1.8387,1.3919,-1.6707,-6.1025,-24.66,-8.58,13.26
17.434,-5.993,-2.6696,1.5009,-1.9114,-5.3161,-24.36,-11.82,12.84
13.579,-5.2166,-1.0215,1.3381,-1.408,-4.1939,-24.0,-15.3,13.02
12.395,-4.522,0.91256,1.1267,-0.48564,-2.8421,-23.58,-16.92,13.2
9.9565,-4.6582,2.3563,1.0107,0.76389,-0.64874,-22.92,-19.62,13.74
8.1858,-4.9169,1.6344,0.9954,1.2126,0.43066,-22.44,-21.78,15.12
6.3471,-5.0123,0.32689,1.27,1.0547,1.2443,-22.5,-22.86,16.08
2.9829,-6.3471,-0.47671,1.5226,0.74128,1.9316,-22.98,-24.6,18.0
0.47671,-6.9872,1.2803,1.5583,0.67012,2.6227,-23.1,-26.34,19.68
-0.068102,-6.9328,1.9068,1.3567,0.97066,3.1203,-23.28,-27.06,20.34
-0.92618,-6.9464,2.0703,1.0553,1.3033,3.4911,-23.4,-27.78,21.36
-0.85808,-6.8783,1.2939,0.57971,1.3234,3.5931,-23.64,-27.54,21.54
-0.61292,-7.0962,0.92618,0.26695,1.2086,3.7556,-23.82,-26.28,21.18
1.6344,-7.5865,0.53119,-0.098655,1.0272,3.915,-23.88,-25.38,21.06
5.094,-8.0769,0.96704,-0.47281,0.81276,4.0109,-23.94,-23.4,20.46
8.6762,-9.8611,0.88532,-0.88973,0.76694,4.0506,-24.12,-21.48,19.8
15.8,-11.291,-0.92618,-1.3818,1.4035,4.0583,-24.36,-19.56,19.14
18.605,-12.299,-0.74912,-1.9123,1.7211,4.0757,-24.6,-18.48,18.96
19.504,-10.869,-2.0294,-2.3964,1.4035,3.7431,-25.32,-15.9,18.9
19.532,-9.7794,-4.0316,-2.3521,1.1909,2.5125,-25.86,-13.02,19.26
19.532,-8.1177,-4.6309,-2.2797,1.164,1.6118,-26.34,-9.9,19.92
19.532,-4.0044,-3.8682,-2.4251,1.3033,1.1295,-26.52,-8.34,20.34
16.889,-1.3076,-3.3642,-2.6811,1.5577,0.83902,-26.94,-5.16,21.06
12.367,2.9692,-3.0918,-2.5479,1.4679,0.31887,-27.36,-2.04,21.84
10.243,5.2575,-3.2961,-2.1832,1.3436,0.087048,-27.42,-0.36,22.26
6.7421,8.9622,-3.7728,-1.777,1.1545,-0.26939,-27.42,2.7,23.16
4.9169,8.5808,-3.6366,-1.3027,0.75533,-0.78588,-27.06,5.82,23.82
4.0861,8.7443,-3.4596,-1.0058,0.44868,-1.2865,-26.76,6.78,23.88
3.5549,8.8668,-1.7298,-0.68967,0.16249,-1.8033,-26.52,8.16,23.94
4.8352,6.7148,-1.4438,0.060476,-0.18204,-2.7016,-26.46,8.76,24.06
6.6876,4.8625,-2.0839,0.33078,-0.1463,-3.43,-26.7,8.52,24.18
9.9837,2.9284,-3.0646,0.46823,-0.059254,-4.0699,-27.24,6.78,24.3
15.323,2.0431,-2.8058,0.65729,-0.15058,-4.6548,-27.9,3.96,23.94
18.088,2.0567,-2.6423,0.94654,-0.41997,-5.1154,-27.96,2.46,23.76
19.45,0.72188,-3.2553,1.3354,-0.93157,-5.1716,-28.08,-0.78,23.28
19.532,-5.993,-4.9578,1.8357,-2.0143,-4.7263,-28.2,-3.84,22.92
19.532,-10.733,-2.8194,1.5094,-2.0171,-3.8121,-28.32,-6.84,22.92
19.532,-9.5751,-1.2803,1.0736,-1.3216,-2.8176,-28.26,-8.28,22.92
13.77,-7.8998,0.5993,0.99082,-0.45143,-2.0684,-28.44,-11.1,22.74
9.3844,-7.6546,0.32689,1.0922,0.21044,-1.3299,-28.26,-12.48,22.68
4.8625,-6.3062,-0.28603,1.4429,0.49908,-0.61331,-27.78,-14.52,22.08
0.46309,-5.5707,0.040861,1.8204,0.27764,0.12309,-27.66,-15.78,21.84
-1.9477,-6.565,1.8932,1.8818,0.028711,1.3693,-27.84,-16.5,22.08
-3.9363,-7.2188,3.1463,1.6359,0.26481,2.0827,-28.08,-16.8,22.26
-6.2109,-6.8647,3.5549,1.3073,0.65424,2.5766,-28.86,-17.1,22.14
-6.1564,-7.1234,2.9011,0.94012,0.99052,2.9074,-29.34,-17.64,21.96
-5.0531,-7.8862,2.438,0.47647,0.98502,3.4389,-29.46,-17.58,21.66
-1.0624,-8.8124,1.4846,0.061087,0.80848,4.0143,-29.64,-17.34,21.12
2.152,-9.7522,0.55843,-0.39737,0.91385,4.5522,-29.46,-16.62,20.22
4.8352,-10.706,0.35413,-0.74251,0.97372,4.7519,-29.34,-15.96,20.1
11.741,-11.795,-1.4438,-1.0861,1.1964,4.849,-29.46,-14.34,19.38
19.205,-14.819,-4.9442,-1.3405,1.8357,4.955,-29.58,-11.88,19.2
19.45,-14.315,-6.4288,-1.4004,1.8332,4.8356,-29.58,-10.38,19.08
19.532,-10.406,-7.927,-1.2963,0.86896,3.7486,-29.58,-6.66,19.2
19.532,-8.5127,-8.5263,-1.4126,0.3769,1.8558,-28.92,-2.52,19.5
19.532,-6.7421,-8.145,-1.7355,0.80695,1.0843,-28.62,-0.54,19.68
17.884,-1.6208,-5.3392,-1.9508,1.0223,0.47281,-27.78,3.24,19.86
11.128,3.8137,-3.7184,-2.062,1.3638,0.065057,-27.06,6.78,19.98
9.507,5.5299,-3.4323,-1.8989,1.3864,-0.29413,-26.88,8.64,20.28
6.8919,7.9407,-2.6151,-1.5418,1.157,-0.70158,-26.1,11.58,20.52
4.6173,8.9486,-2.7649,-0.94837,0.74739,-1.3543,-25.2,14.1,20.58
3.1327,8.826,-2.4653,-0.51435,0.44288,-1.7987,-24.6,15.06,20.64
3.0782,7.1371,-1.6481,-0.14294,0.37782,-2.3088,-24.06,15.84,20.58
4.7399,5.8023,-1.362,0.21472,0.37415,-2.9679,-24.06,15.9,20.58
7.2188,3.6639,-1.185,0.6744,0.074831,-3.6582,-24.6,14.76,20.58
11.141,1.7162,-2.3291,1.0287,-0.17501,-4.3124,-25.62,12.78,20.4
17.175,0.61292,-2.8875,1.3259,-0.009163,-5.0351,-26.82,9.42,19.74
19.246,-0.58567,-3.4187,1.6414,-0.0048869,-5.1325,-27.3,7.5,19.26
19.518,-5.5707,-3.623,1.908,-0.83597,-4.7672,-27.78,3.42,17.58
19.532,-10.76,-2.3155,1.8815,-1.8476,-4.3014,-28.2,-0.72,16.44
19.532,-9.9156,-1.5527,1.5849,-1.6649,-3.6032,-28.56,-2.82,15.96
15.99,-8.2676,-0.35413,1.3473,-0.7761,-2.8659,-29.16,-7.26,15.24
11.877,-7.5048,-0.23155,1.3476,0.1295,-1.7065,-29.52,-11.64,14.4
8.4038,-6.4152,-0.47671,1.5644,0.14722,-1.0455,-29.4,-13.56,14.1
2.5334,-5.2438,-0.50395,1.7962,-0.076358,-0.39248,-29.22,-17.1,13.68
0.89894,-5.3528,-0.095342,1.865,-0.11087,0.30329,-28.98,-18.48,13.56
-2.3291,-6.3471,1.4846,1.7327,0.44532,1.3738,-28.74,-20.16,14.04
-3.8546,-7.0962,2.3427,1.4606,0.67714,1.6777,-28.86,-20.7,14.34
-5.0531,-6.7148,2.6696,1.15,1.0171,2.1344,-29.04,-21.06,15.06
-5.38,-5.2438,2.0022,0.61087,1.0482,2.5339,-29.28,-21.54,16.26
-2.8194,-7.3686,0.85808,0.26634,0.80359,3.0723,-29.16,-21.42,16.92
-1.2258,-8.0496,0.61292,-0.10385,0.6915,3.5546,-28.98,-21.18,16.98
3.3097,-9.8884,0.16344,-0.46701,0.69944,3.9172,-28.38,-20.4,17.04
7.6274,-11.346,-0.29965,-0.93187,0.71929,4.1255,-28.38,-19.08,16.86
17.543,-15.364,-1.2531,-1.7645,1.5467,4.3631,-28.68,-17.1,16.44
19.409,-17.706,-3.6503,-2.2055,1.8076,4.4676,-28.8,-14.94,15.96
19.532,-12.476,-5.7069,-2.1906,1.062,3.5882,-29.1,-11.88,16.02
19.532,-9.2755,-6.6331,-1.9978,0.44563,2.4743,-29.16,-8.46,16.2
19.532,-5.7886,-5.884,-2.1069,0.71013,1.9535,-29.52,-5.04,16.26
18.142,-2.1929,-4.0589,-2.3775,0.89736,1.5238,-29.76,-1.32,16.38
12.98,1.4846,-2.1656,-2.4829,0.78405,1.0064,-29.82,2.52,16.5
10.338,3.8001,-1.2531,-2.3344,1.1863,0.70219,-29.58,4.38,16.74
7.246,8.6353,-0.89894,-1.9838,1.5094,0.52931,-29.04,7.98,16.86
6.2517,11.278,-1.7298,-1.4426,1.3796,0.053451,-28.2,11.1,16.86
5.3256,9.793,-1.9886,-0.90133,0.85307,-0.56597,-27.3,13.56,16.56
4.304,9.6568,-1.3757,-0.19181,0.25412,-1.335,-26.46,15.12,16.08
4.0589,9.6568,-1.58,0.057116,0.20556,-1.6857,-26.1,15.54,15.66
6.2109,5.8976,-1.8387,0.69303,0.24068,-3.0207,-26.04,15.66,15.3
7.8453,4.3177,-1.5119,0.99724,-0.10171,-3.8289,-26.28,15.24,15.24
12.095,4.2632,-0.6674,1.2553,-0.27214,-4.5351,-27.3,12.96,15.06
17.134,4.6854,-1.3348,1.7171,-0.25595,-4.9587,-27.84,10.92,14.88
19.232,3.3778,-2.833,2.4212,-0.29199,-4.8634,-27.96,8.64,14.34
19.532,-10.801,-3.1872,2.5812,-0.52993,-4.9621,-27.42,3.54,13.02
19.532,-13.253,-2.2201,2.5675,-2.2055,-4.6777,-27.18,1.32,12.66
19.532,-11.414,-1.58,2.4099,-1.5513,-4.0638,-27.0,-1.08,12.6
14.056,-9.0031,0.01362,2.3656,-0.41844,-3.4728,-26.88,-6.06,13.26
11.332,-8.3357,0.21793,2.4841,-0.031154,-2.6805,-26.82,-8.64,13.62
6.17,-7.2188,0.39499,2.5968,-0.27367,-1.4707,-26.76,-11.16,13.92
0.53119,-5.9521,0.91256,2.5473,-0.33659,-1.0256,-26.58,-16.2,15.3
-1.6072,-5.993,1.7298,2.1466,0.088881,0.22877,-26.4,-18.3,15.9
-2.9965,-6.7966,2.4789,1.9572,0.39187,0.56077,-25.98,-20.22,16.5
-5.7478,-8.0905,2.9011,1.3042,1.1179,1.4368,-24.9,-22.74,17.52
-7.7636,-7.1098,2.7241,0.76297,1.3357,1.828,-24.48,-23.28,18.18
-6.0202,-5.7886,1.8524,0.16218,1.2401,2.4444,-24.66,-22.92,20.16
-2.9148,-7.641,1.1986,-0.51038,0.75472,3.2,-25.02,-22.74,21.18
-0.43585,-9.7113,0.72188,-0.87598,0.53145,3.9306,-25.32,-22.68,21.84
3.3234,-11.931,0.01362,-1.2706,0.52962,4.5005,-25.56,-21.72,22.44
9.2482,-12.858,-0.43585,-1.8298,0.8378,4.6966,-25.62,-21.06,22.32
18.714,-17.72,-2.0839,-2.2889,1.73,4.5708,-25.74,-20.28,22.14
19.504,-14.124,-4.2632,-2.6005,1.4795,4.6129,-26.22,-18.24,21.84
19.532,-10.76,-4.9578,-2.448,0.49511,3.149,-26.76,-16.98,21.72
19.532,-9.5751,-5.6116,-2.6182,1.0586,2.6377,-27.12,-15.6,21.72
19.532,-4.2359,-3.0782,-2.8821,0.94043,2.1985,-27.36,-11.88,21.72
16.399,-0.9398,-1.3484,-2.8152,0.4725,1.9792,-27.48,-9.9,21.78
12.245,2.942,-0.31327,-2.7025,0.98349,1.8033,-27.42,-7.62,21.84
8.7987,9.221,-1.3212,-2.2739,1.5983,1.5275,-27.24,-3.54,21.9
8.1041,9.8203,-1.6208,-1.3073,1.2223,0.58949,-27.06,-1.44,22.02
6.6876,9.8203,-1.9613,-0.74037,0.67745,-0.057727,-26.88,0.66,22.38
4.3449,10.964,-1.0488,-0.32742,0.33842,-0.72937,-26.58,4.26,22.74
3.3778,10.651,-0.24517,0.14691,0.17654,-1.4087,-26.52,5.94,22.92
3.1463,8.5127,-0.054481,0.64782,0.018021,-2.1142,-26.34,7.56,23.34
4.1406,5.5435,-0.54481,1.0162,-0.034819,-2.8408,-25.92,10.08,23.82
5.5707,5.2302,-1.0215,1.2602,-0.04215,-3.7486,-25.56,10.92,23.88
9.4117,4.985,-1.3757,1.6732,-0.37018,-4.2525,-25.5,11.16,23.94
19.028,4.4811,-3.9227,1.9719,-0.65546,-4.4013,-25.5,9.54,23.52
19.477,3.2553,-3.8818,2.2797,-0.7367,-4.4935,-25.08,7.98,22.86
19.532,-2.9148,-2.547,2.8769,-0.85674,-4.8365,-24.48,6.12,22.02
19.532,-13.62,-3.7047,3.083,-1.7489,-4.6166,-23.34,2.7,20.52
19.532,-11.509,-3.051,2.5302,-1.5925,-3.4419,-23.1,0.84,19.86
18.796,-10.27,-1.2939,2.4603,-1.1677,-3.1127,-23.04,-1.2,19.32
10.12,-10.706,0.74912,2.1203,-0.37324,-1.9294,-22.98,-5.52,18.54
5.5162,-8.9894,1.2803,1.9288,-0.33781,-1.2666,-22.86,-7.74,18.36
-1.9477,-7.0553,2.0431,1.8305,-0.20617,-0.5229,-22.74,-12.0,17.88
-3.4051,-6.7966,2.261,1.609,0.28008,0.30513,-22.5,-13.98,17.58
-4.8352,-6.7285,2.547,1.3149,0.8207,1.2196,-22.26,-15.96,17.28
-6.8238,-6.5922,2.9011,0.80512,1.1286,1.664,-21.42,-18.48,16.44
-7.2869,-6.3198,2.9965,0.34147,0.98533,2.0947,-21.06,-19.02,16.32
-6.1564,-5.8431,3.0237,-0.14875,0.64721,2.6096,-20.94,-19.2,16.56
-4.9306,-6.6604,2.7786,-0.51526,0.54062,3.2162,-21.42,-19.08,16.98
0.57205,-10.052,1.1305,-0.90072,0.76847,3.8014,-21.96,-19.38,17.58
5.9657,-13.443,0.14982,-1.7385,1.241,4.5164,-21.78,-19.26,17.58
17.992,-18.047,0.081722,-2.0733,1.4939,4.7229,-21.36,-18.72,17.46
19.436,-17.448,-3.4323,-2.8457,1.9346,4.9236,-21.12,-18.18,17.46
19.518,-14.737,-5.6661,-2.7962,1.7837,4.4199,-21.24,-17.52,17.52
19.532,-13.552,-6.3471,-2.3644,0.30727,2.9007,-21.18,-16.74,17.58
19.532,-8.1858,-5.7205,-2.5204,0.76053,2.3436,-21.3,-14.1,18.06
19.518,-4.7399,-4.0861,-2.8231,1.2975,1.9172,-21.12,-12.3,18.36
12.994,1.9341,-0.40861,-2.908,1.2165,1.3821,-20.58,-8.7,18.96
9.5206,5.993,0.21793,-2.5433,1.4013,1.1982,-20.16,-6.9,18.96
7.8453,8.5127,-0.28603,-1.8983,1.5751,0.9838,-19.98,-5.1,18.9
4.8216,10.46,-2.3291,-1.3033,1.3268,0.40012,-19.2,-1.68,18.9
4.0589,9.9837,-1.8932,-0.84971,0.80115,-0.15547,-19.02,0.06,18.9
3.732,12.313,-0.46309,-0.49786,0.51129,-0.7141,-18.96,1.56,19.14
3.8409,11.141,-0.31327,0.0064141,0.2645,-1.4255,-18.9,4.62,19.5
4.9033,8.54,-0.47671,0.58093,0.1237,-2.2016,-18.72,5.88,19.62
6.7285,6.2381,-0.99429,1.0993,-0.0048869,-3.445,-18.54,6.9,19.56
12.408,3.9227,-1.9886,1.2553,0.10782,-4.1731,-18.3,7.68,19.2
18.605,3.7728,-1.6889,1.5409,0.02474,-4.8109,-18.54,7.26,18.84
19.409,3.4051,-1.7298,2.0464,-0.219,-5.1242,-18.66,6.24,18.24
19.532,-6.3743,-3.0782,2.9309,-1.0745,-5.3613,-18.42,3.12,16.5
19.532,-14.547,-4.4811,3.5662,-1.9383,-5.4837,-18.3,1.62,15.78
19.532,-15.514,-3.6366,2.7968,-2.1994,-4.8619,-18.42,-0.06,15.24
16.249,-10.311,-0.1362,2.3659,-1.3986,-3.7367,-18.72,-3.66,15.12
11.7,-10.174,0.9398,2.1273,-0.62186,-2.8485,-18.78,-5.94,15.24
7.5321,-9.1529,1.6753,1.8579,-0.067501,-1.9468,-19.08,-10.2,15.3
0.76274,-7.0145,1.5936,1.795,0.2865,-0.73518,-19.2,-12.42,15.24
-1.6344,-7.1234,1.757,1.7434,0.40897,-0.33201,-19.26,-14.46,15.18
-4.5764,-6.9872,2.5334,1.3686,0.89675,0.81459,-19.2,-16.44,15.06
-5.4754,-6.674,2.7922,1.0473,1.2071,1.4517,-19.08,-18.24,15.06
-6.8238,-5.1485,2.6423,0.71044,1.3833,1.9236,-18.48,-20.76,15.18
-5.5707,-5.6797,2.3972,0.354,1.248,2.3179,-18.36,-21.54,15.84
-3.5685,-7.2733,1.866,-0.23335,0.82192,3.2125,-18.72,-22.14,17.04
-2.6423,-8.0496,1.757,-0.60995,0.78496,3.6979,-18.66,-22.26,17.58
-0.29965,-10.283,1.4165,-1.0733,0.90652,4.1496,-18.66,-22.14,17.58
5.3119,-12.572,0.85808,-1.7178,1.3158,4.4544,-18.48,-21.24,16.62
17.393,-17.87,-1.0896,-2.2889,2.2269,4.7009,-18.12,-20.16,16.14
19.409,-19.436,-3.228,-2.6753,2.4044,4.9978,-18.12,-18.78,15.48
19.532,-14.56,-4.6445,-2.7837,0.9331,3.9456,-18.42,-16.98,15.12
19.532,-10.61,-5.4073,-2.584,0.52962,2.3695,-19.02,-14.64,15.24
19.532,-5.0668,-4.1951,-2.9181,1.2837,1.9823,-19.38,-11.7,15.96
19.382,-2.3836,-3.2144,-3.0699,1.0837,1.7443,-19.62,-10.02,16.08
13.389,2.5742,-1.3484,-2.963,0.72907,1.4581,-19.8,-6.48,16.26
9.507,5.2575,-0.24517,-2.7257,0.78893,1.1292,-19.8,-4.86,16.44
5.6388,10.42,-0.12258,-2.3586,1.0244,0.76602,-19.86,-1.5,17.16
4.3449,12.544,-0.61292,-1.5937,1.0403,0.16341,-19.98,0.24,17.4
3.2961,12.286,-0.77636,-0.97097,0.47647,-0.57513,-19.98,2.04,17.76
1.5119,10.937,0.8036,-0.42822,0.077274,-1.1249,-19.92,5.58,18.54
1.2258,10.651,1.2258,0.066584,0.16005,-1.7281,-19.74,7.26,18.9
1.8932,9.5751,0.92618,0.51465,0.51862,-2.408,-19.5,8.58,19.2
6.5786,6.3743,-0.5993,0.93065,0.54,-2.9948,-19.32,10.38,19.2
9.7522,5.2847,-1.3076,1.4456,-0.14172,-3.7984,-19.56,10.74,19.14
17.475,3.8682,-1.7979,1.7669,-0.17715,-4.3854,-20.04,10.5,18.96
19.477,2.7377,-0.64016,2.3509,-0.23549,-4.7541,-20.94,8.76,18.42
19.532,-3.228,-2.942,3.2892,-1.0153,-4.8994,-21.0,7.5,17.88
19.532,-11.795,-3.2553,3.426,-1.6622,-4.8845,-21.06,6.12,17.22
19.532,-10.706,-2.2474,3.2657,-2.1435,-4.1029,-21.72,3.24,16.68
17.584,-10.474,-0.50395,2.8149,-1.2929,-3.1524,-22.32,1.44,16.5
12.871,-10.61,0.88532,2.4132,-0.59437,-2.2889,-22.92,-0.3,16.5
8.431,-9.2482,1.4574,2.175,-0.10079,-1.5143,-23.46,-2.34,16.32
2.9556,-7.3277,1.1713,2.0965,0.08827,-0.84788,-24.36,-6.84,16.2
-0.72188,-7.1915,0.95342,1.9221,0.25473,-0.17562,-24.84,-9.0,16.02
-4.1133,-6.6331,1.6344,1.558,0.6466,0.55833,-25.02,-11.1,16.08
-5.2438,-5.9249,2.1112,0.95753,1.1866,1.5858,-25.14,-14.64,16.14
-5.2847,-5.598,2.1248,0.6521,1.0351,2.0702,-25.14,-16.02,16.02
-5.1485,-5.775,1.9205,0.53176,0.78557,2.2553,-24.84,-16.86,16.02
-4.5764,-8.0632,1.0351,-0.014661,0.045815,2.8051,-25.08,-17.52,16.98
-2.9284,-9.3436,1.5936,-0.49999,0.27245,3.3234,-25.44,-17.58,17.64
-0.27241,-10.474,1.4982,-1.0327,0.69272,3.8197,-25.44,-17.58,18.06
8.0088,-11.223,0.29965,-1.8873,0.67531,4.3487,-25.14,-17.1,18.0
15.609,-13.307,-1.185,-2.303,1.2291,4.3973,-24.9,-16.74,17.94
19.041,-15.99,-2.8194,-2.4697,1.605,4.4792,-24.78,-16.14,17.94
19.518,-12.898,-4.2632,-2.7574,1.452,3.8851,-24.84,-14.4,17.88
19.532,-10.256,-5.1485,-2.704,0.75625,2.8427,-25.02,-13.26,18.0
19.532,-7.8317,-5.6388,-2.6738,0.68356,2.2465,-25.32,-11.94,18.12
18.537,-2.6015,-3.9635,-2.6774,0.90744,1.5647,-25.38,-8.34,18.66
14.642,0.47671,-2.3155,-2.6295,1.0629,1.2712,-25.32,-6.36,19.08
12.177,2.6423,-1.3484,-2.5436,1.2016,1.1606,-25.26,-4.5,19.5
8.2267,8.1586,-0.78998,-1.9951,1.6014,0.85307,-25.2,-2.52,19.92
6.5378,10.706,-1.866,-1.3989,1.3946,0.35125,-24.96,-0.66,20.22
5.4618,10.842,-2.3972,-0.80848,1.003,-0.28069,-24.84,1.08,20.52
3.5549,9.3163,-1.5391,-0.051618,0.26909,-1.204,-24.72,4.32,21.6
3.3778,8.717,-0.98067,0.18143,0.1124,-1.5519,-24.72,5.82,22.14
3.9635,7.2596,-0.40861,0.59071,0.091935,-2.3274,-24.78,7.14,22.62
6.17,5.9385,-0.83084,1.1047,0.072388,-3.2238,-25.14,9.0,23.58
10.556,4.1406,-1.8932,1.4258,-0.11759,-3.6939,-25.26,9.36,24.0
15.309,2.7649,-2.0567,1.7068,-0.27153,-4.0384,-25.26,9.18,24.06
19.477,-1.4438,-3.8137,2.1728,-0.56474,-4.2141,-25.2,7.38,22.92
19.477,-1.4438,-3.8137,2.5165,-1.7446,-4.1401,-25.2,7.38,22.92
19.532,-15.8,-1.5936,2.5158,-2.1023,-3.8967,-24.96,5.94,22.02
19.532,-15.418,1.1305,1.8286,-1.3537,-2.6441,-24.78,3.12,20.7
14.683,-10.529,0.85808,1.6631,-0.1179,-2.3689,-24.84,1.38,20.28
8.1995,-8.7715,-0.81722,2.0809,0.45998,-1.9361,-25.44,-2.4,19.62
5.0531,-7.7091,-0.92618,2.5039,0.11484,-0.84299,-25.68,-4.5,19.26
1.7162,-6.7829,-0.92618,2.5409,-0.33323,-0.41722,-25.98,-6.36,18.96
-2.656,-5.5026,2.3836,2.0708,-0.27061,0.73121,-26.52,-9.96,18.54
-5.4073,-5.1894,3.2825,1.9025,-0.1014,1.0382,-26.46,-11.34,18.36
-6.6059,-5.2302,3.0237,1.3729,0.51954,1.774,-26.46,-12.66,18.0
-7.3141,-5.2847,1.6344,0.94073,0.94654,2.1142,-25.98,-13.98,17.34
-5.9657,-5.4345,1.0215,0.40256,1.197,2.5143,-25.68,-14.16,17.4
-2.5742,-6.2517,0.8036,-0.31093,0.69883,3.0775,-25.5,-14.1,18.06
1.3893,-8.1995,0.70826,-0.72143,0.3992,3.332,-25.5,-14.22,18.24
3.8818,-10.896,0.14982,-1.273,0.50916,3.4037,-25.32,-14.58,18.18
7.3141,-12.885,-0.99429,-1.7416,0.99724,3.3964,-25.38,-14.64,17.88
18.36,-14.124,-2.0975,-2.0947,1.5507,3.4578,-25.32,-14.22,17.7
19.382,-15.05,-2.7241,-2.3671,1.6594,3.2941,-25.74,-13.62,17.76
19.532,-10.093,-5.7886,-2.2816,0.92057,2.7376,-26.28,-11.58,18.24
19.532,-8.5672,-6.674,-1.974,0.53237,1.6762,-26.4,-10.32,18.42
19.532,-7.2869,-6.674,-1.8158,0.45784,1.0861,-26.52,-9.12,18.42
15.759,-1.3076,-4.0316,-1.8271,0.64691,0.59895,-26.58,-6.48,18.66
11.482,1.8387,-3.1599,-1.8515,0.87354,0.36163,-26.76,-5.1,18.84
8.2812,4.8625,-2.9965,-1.6622,1.0379,0.097433,-27.18,-2.16,19.2
4.9033,8.7715,-3.1735,-1.171,1.04,-0.39523,-27.54,-0.6,19.44
4.0997,9.221,-2.9556,-0.92454,0.92699,-0.59407,-27.84,0.78,19.8
3.4868,9.0984,-2.3972,-0.52473,0.53512,-1.0067,-28.32,2.4,20.1
3.623,8.1995,-1.58,0.081551,0.11606,-1.8836,-28.68,5.28,21.06
4.8216,6.674,-1.9477,0.44318,0.055894,-2.6704,-28.92,6.12,21.42
6.456,5.38,-2.4108,0.77213,-0.18723,-3.2858,-28.92,6.72,21.6
12.953,3.6503,-2.8875,0.95051,-0.013744,-4.2473,-29.16,5.88,21.54
18.047,2.7922,-2.8467,1.2058,-0.33292,-4.8057,-29.4,4.68,21.06
19.164,2.5879,-3.3506,1.5256,-0.82803,-5.2137,-29.34,3.18,20.34
19.504,-0.027241,-4.1542,1.9456,-1.2801,-5.1826,-29.1,1.74,19.56
19.532,-6.2517,-3.732,1.9386,-1.6994,-4.7626,-28.86,0.06,18.78
19.477,-11.087,-0.34051,1.5122,-1.42,-4.0745,-28.74,-3.84,18.0
16.903,-7.1643,0.49033,1.5595,-0.38423,-3.2083,-28.86,-6.06,17.88
10.828,-8.2676,0.38137,1.6545,-0.19884,-2.7455,-28.74,-8.52,17.82
7.8045,-7.641,0.70826,1.8109,0.0082467,-1.1982,-28.56,-13.38,18.18
3.6775,-6.279,0.98067,1.7596,0.18295,-0.30788,-28.62,-15.96,18.36
1.8387,-5.7205,1.185,1.6047,0.52198,0.48014,-28.5,-18.42,18.48
-1.9341,-5.6524,1.6208,1.4114,0.93462,1.1664,-28.08,-22.5,18.6
-2.7241,-6.279,1.757,0.98777,1.3561,1.9813,-27.72,-24.12,18.66
-5.0531,-7.6138,1.866,0.78343,1.4911,2.1857,-27.3,-25.02,18.72
-4.8488,-6.1292,1.3893,0.060476,1.7291,2.536,-27.18,-25.98,19.8
-3.9363,-5.0123,0.62654,-0.15974,1.5766,2.6906,-27.24,-26.22,20.58
-2.4925,-5.9521,0.17706,-0.65546,0.73151,3.4056,-27.42,-26.22,21.18
1.2531,-8.826,0.46309,-0.9053,0.61636,3.9135,-27.24,-25.98,21.36
3.8001,-9.7385,0.44947,-1.2773,0.79535,4.2984,-27.12,-25.5,21.36
14.342,-11.741,-1.3484,-1.6869,1.0415,4.244,-27.0,-24.3,21.0
18.891,-14.369,-1.3757,-2.354,1.7031,4.1181,-27.3,-23.4,20.64
19.382,-15.119,-1.4438,-2.5021,1.4193,4.2754,-27.66,-22.14,20.4
19.532,-7.8317,-3.6503,-2.3005,0.84483,2.8222,-28.56,-18.84,20.28
19.532,-6.5922,-5.1485,-1.9743,0.62522,1.7523,-28.92,-16.86,20.34
19.45,-3.2144,-3.623,-1.8515,0.20067,1.0751,-29.4,-12.66,20.46
16.031,-0.44947,-1.6753,-2.1338,0.92332,0.56505,-29.52,-10.38,20.46
13.43,1.8387,-0.89894,-2.1102,1.4099,0.29688,-29.64,-8.1,20.58
7.5865,8.1722,-1.7025,-1.8894,1.5779,0.099571,-29.94,-4.02,20.82
5.9793,8.4719,-2.6151,-1.4154,1.4966,-0.23732,-30.18,-2.16,21.18
5.094,7.9951,-2.8875,-0.8998,1.0012,-0.66798,-30.36,-0.18,21.66
2.6423,8.2812,-1.7706,-0.41997,0.27031,-1.2831,-30.84,3.78,22.14
2.1384,8.0088,-1.2531,0.19761,-0.036346,-1.7257,-31.2,5.58,22.62
3.6094,6.5786,-1.1577,0.43891,-0.24709,-2.0183,-31.38,7.08,22.98
5.0259,5.1213,-1.5391,0.8433,-0.79871,-2.7516,-31.44,8.28,23.28
8.3084,3.3778,-2.5742,1.1713,-0.94837,-3.7141,-32.04,8.58,23.4
11.632,2.4789,-3.2416,1.449,-1.0611,-4.1517,-32.22,7.74,23.16
15.704,6.0747,-3.7184,0.82558,0.15821,-5.0149,-32.4,6.6,22.98
19.45,3.623,-0.027241,2.0586,-0.015577,-4.5253,-31.92,3.3,21.72
19.532,-4.7671,-1.7162,2.78,-1.846,-4.6502,-31.68,1.68,21.12
19.532,-7.9134,-2.0839,2.6756,-2.2257,-4.3023,-31.56,-0.3,20.76
19.532,-8.5672,-1.6617,2.594,-1.7251,-3.4401,-31.62,-2.22,20.52
14.124,-8.6081,1.076,2.3497,-1.0058,-2.7687,-31.98,-6.54,20.7
8.8668,-8.7715,1.6617,2.0962,-0.3317,-1.8109,-32.04,-8.94,20.76
4.2359,-5.7614,1.9477,1.8952,0.1182,-0.88056,-32.1,-11.34,21.06
0.20431,-5.5162,1.8387,1.806,0.34575,-0.035736,-31.74,-15.72,21.3
-2.4244,-6.6195,2.0158,1.5385,0.70616,1.1054,-31.38,-17.76,21.36
-3.5958,-7.2188,2.1929,1.2171,1.1955,1.744,-30.9,-19.38,21.36
-6.1292,-7.2596,2.547,0.85399,1.69,2.2889,-29.94,-21.12,21.66
-5.5162,-6.2245,2.3427,0.45784,1.5562,2.6512,-29.58,-21.54,21.72
-3.9908,-5.9657,1.3076,0.1686,0.74709,3.0598,-29.76,-21.48,22.62
-1.866,-8.7034,0.92618,-0.15363,0.23732,3.8689,-29.94,-21.42,23.04
0.49033,-10.637,0.92618,-0.54611,0.64752,4.39,-30.0,-20.94,23.22
4.5901,-11.536,1.0215,-1.0327,0.79901,4.6676,-29.88,-20.34,23.4
15.432,-10.093,-2.1248,-1.4187,0.68264,4.3622,-29.34,-18.66,23.1
19.028,-11.169,-2.8603,-1.8027,1.1719,3.9557,-29.16,-17.46,22.98
19.477,-13.362,-2.8739,-2.1933,1.339,4.2229,-29.04,-16.14,22.74
19.532,-12.681,-2.7649,-2.2996,0.90866,2.9975,-29.1,-14.64,22.74
19.532,-7.6955,-4.8625,-2.1942,0.1967,1.8955,-28.98,-12.6,22.86
19.532,-5.1485,-5.8704,-2.2153,0.17532,1.2339,-28.62,-8.28,23.22
17.747,-2.9965,-4.6309,-2.4667,0.53451,1.1154,-28.38,-6.24,23.22
13.579,-0.040861,-2.0022,-2.5974,0.82956,0.99388,-27.72,-1.98,23.76
9.5206,5.0123,-0.32689,-2.3424,1.3906,0.71105,-26.88,1.8,24.54
8.7579,6.8238,-0.69464,-1.7642,1.6328,0.38668,-26.58,3.6,24.96
6.9464,8.0905,-2.0294,-1.1197,1.2672,-0.24404,-26.04,6.84,25.98
4.1814,8.1041,-1.7979,-0.57696,0.75869,-0.76572,-25.32,10.08,26.58
2.833,9.6977,-0.9398,-0.13164,0.6295,-1.2758,-24.66,12.6,27.06
3.8954,8.6898,-0.54481,0.37232,0.67837,-1.9697,-24.12,14.04,27.0
5.7478,6.1428,-0.69464,0.95539,0.47128,-2.741,-24.12,14.34,26.94
8.431,4.2359,-0.98067,1.617,-0.25992,-3.7837,-24.9,13.98,27.3
10.46,3.8137,-1.8524,1.8989,-0.56566,-4.3115,-25.5,13.26,27.54
16.44,4.7671,-3.2825,2.0296,-0.37324,-4.5345,-26.76,10.38,27.06
19.341,4.4811,-2.0294,2.1472,0.20983,-4.1963,-26.58,6.48,25.2
19.532,-6.4969,-2.4517,3.0476,-0.74892,-4.4037,-26.16,3.06,22.86
19.532,-12.449,-2.6423,2.9456,-2.3937,-4.4633,-26.22,-0.12,21.18
19.532,-10.678,-2.4108,2.2483,-1.5336,-3.4697,-26.4,-1.8,20.64
17.87,-7.8317,-0.99429,2.1457,-0.97128,-3.3277,-26.76,-3.54,20.1
10.992,-8.2267,0.53119,2.1023,-0.34941,-2.262,-27.42,-7.32,19.38
6.8919,-7.4912,0.96704,2.0711,-0.22602,-1.4945,-27.6,-9.24,18.96
3.4459,-6.7966,1.3212,2.0818,-0.23579,-0.78954,-27.66,-11.04,18.66
-2.1384,-7.2596,2.0567,2.0104,-0.22022,-0.10324,-27.54,-14.16,17.76
-4.4402,-7.8045,2.5742,1.529,0.39767,0.77855,-27.54,-15.12,17.64
-7.3686,-7.4095,3.1599,1.2831,0.68203,1.0489,-27.54,-15.72,17.88
-7.4776,-5.598,3.0918,0.46945,1.1161,1.7758,-28.86,-16.08,19.14
-6.0883,-5.2575,2.9148,0.054978,0.98288,2.3112,-29.82,-16.32,20.04
-3.1191,-8.145,1.7706,-0.33781,0.65943,3.0091,-31.26,-17.1,21.36
-1.1986,-10.447,1.5119,-0.77641,0.64813,3.6951,-31.5,-17.16,21.66
1.1577,-11.904,1.2531,-1.4655,0.87232,4.5314,-31.68,-17.1,21.72
10.774,-14.192,0.6674,-1.6961,0.98074,4.6716,-31.5,-16.38,21.24
18.088,-17.965,-1.076,-2.379,1.8983,4.7443,-31.2,-15.78,20.94
19.177,-19.15,-2.2474,-2.6964,1.9123,4.8225,-30.84,-15.0,20.7
19.532,-12.599,-4.5356,-2.7669,0.99479,3.9712,-31.2,-13.32,20.16
19.532,-10.665,-5.0395,-2.6258,0.67104,2.9538,-31.26,-11.88,20.28
19.532,-6.6604,-5.1621,-2.6848,1.4438,1.9132,-31.2,-10.02,20.4
17.979,-0.85808,-2.9148,-2.8387,1.4068,1.5299,-30.78,-5.4,20.4
14.07,2.7922,-1.58,-2.7003,1.0431,1.3152,-30.48,-3.24,20.52
10.665,6.7012,-0.57205,-2.4942,1.2575,1.2184,-30.18,-1.02,20.58
7.7636,11.605,-1.0896,-2.0067,1.2801,0.78741,-29.46,3.48,20.76
6.1155,12.0,-1.3757,-1.3534,0.97066,0.041233,-29.1,5.58,21.12
4.6037,10.379,-1.5936,-0.7758,0.53634,-0.64966,-28.92,7.38,21.6
3.9908,9.6023,-0.38137,-0.13958,0.36163,-1.5492,-28.74,10.8,22.5
4.1951,8.2812,-0.44947,0.28955,0.54886,-2.2761,-28.98,12.42,23.16
4.699,7.1915,-0.74912,0.48839,0.59712,-2.6478,-29.04,13.86,23.7
6.7285,5.2711,-0.69464,1.1252,-0.039706,-3.6918,-29.04,15.0,24.12
9.1529,3.8818,-1.1577,1.4725,-0.52198,-4.2241,-29.22,15.78,24.48
12.354,3.7728,-1.0488,1.6839,-0.21625,-4.7018,-29.4,15.12,24.48
19.327,3.4323,-1.4165,2.3039,0.28405,-4.9126,-29.82,12.06,23.58
19.504,-1.6208,-2.2882,3.1075,-0.95723,-4.7079,-29.82,10.2,22.86
19.532,-9.8339,-3.6503,3.3133,-1.8408,-4.8481,-29.88,8.34,22.32
19.532,-10.937,-2.0839,2.8341,-2.6053,-3.9972,-30.6,4.02,21.78
18.755,-9.0167,-0.14982,2.4425,-1.4975,-3.5394,-31.2,1.68,21.66
13.021,-9.1937,1.1169,2.1579,-0.14447,-2.4221,-31.98,-3.06,21.72
6.2517,-7.7091,1.0215,2.0687,0.24038,-1.5785,-32.22,-5.58,21.72
2.1248,-6.1564,0.76274,2.0647,0.40989,-0.78466,-32.46,-8.04,21.84
0.6674,-5.8976,0.81722,1.9755,0.51801,-0.035125,-32.76,-10.38,21.96
-3.0918,-6.5241,1.7434,1.7416,0.67745,0.63927,-32.7,-14.16,22.02
-4.9169,-6.6467,2.2201,1.3512,1.0073,1.2764,-32.46,-15.72,22.2
-6.4969,-5.993,2.4517,0.90164,1.3607,1.7791,-32.28,-17.58,22.62
-5.4073,-4.6037,2.1656,0.35308,1.3531,2.3314,-32.22,-17.94,23.22
-4.2632,-5.2438,1.0896,0.046426,0.81001,2.8155,-32.4,-18.18,24.06
-3.051,-6.9872,0.39499,-0.29322,0.54153,3.3057,-32.58,-18.3,24.54
0.35413,-10.651,0.35413,-0.74587,0.65454,3.8026,-32.34,-18.12,25.08
3.6366,-11.945,0.76274,-1.4071,0.86743,4.1734,-31.86,-17.76,24.78
13.062,-13.675,0.64016,-2.0821,1.2538,4.3478,-31.44,-17.22,24.6
19.327,-18.387,-3.5822,-2.4774,1.9758,4.6304,-30.84,-15.78,24.06
19.518,-13.716,-4.7263,-2.4178,0.99205,3.879,-30.6,-14.94,23.7
19.532,-11.223,-5.0531,-2.379,0.39706,3.3002,-30.48,-13.86,23.52
19.532,-6.565,-5.7205,-2.3851,0.62766,2.3085,-30.72,-10.8,23.82
19.532,-3.8954,-4.7399,-2.6035,1.0812,1.9203,-30.66,-8.82,23.76
17.924,-1.6344,-3.5685,-2.6655,0.87384,1.5281,-30.42,-6.72,23.82
9.5615,3.9771,-0.50395,-2.5516,0.96547,1.1069,-29.82,-2.52,24.06
6.8647,7.7636,-0.53119,-2.3983,1.1564,1.0861,-29.52,-0.54,24.12
5.5843,10.787,-1.471,-1.9532,1.4523,0.89828,-29.16,1.38,24.48
4.4402,10.379,-2.1384,-0.96089,1.0849,-0.13439,-28.56,5.22,24.84
3.8682,9.9973,-1.4165,-0.56077,0.48503,-0.62827,-28.5,6.96,25.2
3.5413,10.815,-0.35413,-0.12004,0.024129,-1.2281,-28.5,8.52,25.44
4.4402,7.927,-0.64016,0.59559,-0.025351,-2.4575,-28.56,11.64,26.1
5.0804,6.4424,-0.98067,0.7025,0.045815,-2.8277,-28.5,12.84,26.52
8.0905,4.7399,-0.96704,0.92516,0.14691,-3.4871,-28.38,13.56,26.7
17.23,5.6797,-0.35413,1.3042,-0.066584,-4.2522,-28.32,12.9,26.22
19.246,5.3119,-1.3893,1.8851,-0.37843,-4.3597,-28.26,11.58,25.5
19.504,0.23155,-2.5061,2.5818,-0.98349,-4.5458,-27.9,10.08,24.48
19.532,-13.402,-1.2395,2.7804,-1.8699,-5.2107,-27.66,7.26,22.5
19.532,-12.926,-0.5993,2.4511,-1.6982,-4.6704,-27.72,5.7,21.9
19.532,-10.134,0.25879,2.299,-1.2529,-4.5039,-27.84,3.96,21.42
12.667,-9.0848,0.91256,2.3149,-0.23824,-3.4832,-28.62,-0.24,20.94
7.8453,-8.6353,1.0215,2.4407,-0.15913,-2.6075,-29.1,-2.64,20.88
1.5119,-7.8317,1.58,2.5305,-0.3656,-1.6945,-29.34,-4.98,20.94
-3.8273,-7.1234,2.9011,2.303,-0.10263,-0.31673,-29.64,-9.78,20.88
-5.8704,-6.8783,3.5277,1.9673,0.52687,0.47678,-29.64,-11.94,20.76
-6.3335,-7.0826,3.5004,1.8036,0.84452,0.84544,-29.64,-13.92,20.58
-7.4231,-7.4095,3.0646,1.1961,1.3665,1.854,-29.22,-15.3,20.58
-7.355,-7.0145,2.5061,0.6463,1.5516,2.3708,-28.92,-16.74,21.24
-5.6933,-6.9872,2.3155,0.078191,1.5262,3.0058,-29.1,-17.16,22.02
-2.0158,-8.8941,1.1713,-0.36835,1.2746,3.6197,-29.28,-18.12,23.4
-0.68102,-10.447,0.24517,-0.85704,1.1997,4.3472,-29.22,-18.3,23.64
2.3427,-11.795,-0.61292,-1.0608,1.328,4.5403,-29.04,-18.3,23.52
7.4231,-13.457,-0.54481,-1.6429,1.6215,4.7434,-28.5,-18.24,23.28
19.15,-19.191,-1.6344,-2.4963,1.9954,5.1417,-27.6,-17.76,22.5
19.477,-19.205,-2.9692,-2.9514,1.8973,5.0042,-27.72,-17.46,22.32
19.532,-16.031,-3.8273,-2.9737,1.5055,3.6414,-28.26,-16.62,22.62
19.532,-9.2482,-4.4811,-2.9682,0.71105,2.1951,-28.98,-13.08,23.16
19.532,-6.674,-4.2904,-3.0302,0.78435,1.9273,-28.98,-10.86,23.46
17.734,-2.2201,-3.0373,-3.0699,0.60537,1.4642,-28.86,-8.7,23.58
10.351,2.833,-0.91256,-2.8414,0.18448,0.79412,-28.56,-4.32,23.46
5.8023,5.7069,0.91256,-2.8219,0.51129,0.8885,-28.44,-2.22,23.46
4.3449,12.299,0.32689,-1.3323,0.81123,0.45296,-27.96,1.62,23.64
4.3449,12.299,0.32689,-1.3323,0.81123,0.45296,-27.96,1.62,23.64
3.1327,10.733,-0.31327,-0.5174,0.45601,-0.33231,-27.84,4.92,24.12
2.833,10.256,0.10896,-0.066279,0.22327,-0.9951,-28.02,6.6,24.54
3.4187,10.161,0.40861,0.5791,0.15424,-2.0653,-28.26,8.46,25.08
6.3743,7.7908,0.42223,1.0104,0.062308,-2.8259,-27.9,12.24,25.56
8.8532,6.2381,0.21793,1.2807,-0.060476,-3.5143,-27.3,13.32,25.26
16.644,4.9442,-0.31327,1.58,-0.22358,-4.1698,-26.94,12.9,24.3
19.177,4.1133,-0.92618,1.9627,-0.27794,-4.6383,-27.18,11.7,23.82
19.491,1.185,-1.4301,2.5128,-0.34941,-4.9954,-27.36,9.96,23.04
19.532,-7.0553,-2.0158,3.3384,-1.7495,-5.4303,-27.12,6.12,21.54
19.532,-13.021,-2.3018,3.2171,-2.3411,-5.0482,-26.94,4.26,20.7
19.532,-15.445,-1.0215,2.7892,-1.8152,-4.2718,-27.06,2.52,20.16
13.293,-11.85,1.2667,2.2355,-0.90652,-3.6124,-27.6,-1.56,19.62
8.7851,-11.032,1.2531,2.1787,-0.25931,-2.8909,-27.96,-3.78,19.5
5.1757,-10.529,1.1441,2.1588,-0.18173,-1.4997,-28.26,-6.12,19.5
-1.8524,-8.3765,1.7706,1.9386,-0.12248,-0.51465,-28.62,-10.68,19.38
-4.522,-7.4503,2.2474,1.6145,0.2813,0.36652,-28.74,-12.84,19.38
-5.993,-6.96,2.6015,1.3014,0.86254,1.0391,-28.8,-14.64,19.5
-7.3822,-6.5514,2.5198,0.82039,1.3534,1.8051,-28.38,-17.34,19.5
-7.5457,-6.3198,2.5742,0.36835,1.4416,2.299,-28.14,-18.0,19.5
-6.5786,-6.3198,2.3563,-0.11515,1.3018,2.9712,-28.08,-18.06,19.8
-2.2882,-8.2539,1.5527,-0.52931,0.84788,3.6029,-28.44,-17.88,20.88
-0.84446,-10.529,0.85808,-0.82558,0.52931,4.1789,-28.56,-17.7,21.18
1.6753,-13.13,0.54481,-1.3454,0.73579,4.6163,-28.44,-17.46,21.3
13.77,-15.486,0.17706,-2.0837,1.7068,4.6719,-27.96,-16.62,20.64
18.088,-17.611,-0.12258,-2.8653,2.8891,4.7486,-27.72,-16.14,20.28
19.45,-19.014,-1.7979,-3.0525,1.8506,4.4798,-27.78,-15.36,19.8
19.532,-11.06,-4.0997,-2.8167,0.37293,2.9804,-28.44,-12.72,19.86
19.532,-8.4582,-4.5356,-2.3888,0.28436,2.0861,-28.56,-10.8,19.86
19.532,-5.7205,-3.9227,-2.3857,0.80329,1.4169,-28.44,-8.82,19.98
16.126,-0.12258,-1.7298,-2.4792,0.96944,1.0183,-28.32,-4.32,19.8
14.056,1.7706,-1.0896,-2.5336,0.97738,0.81367,-28.08,-2.1,19.8
10.992,4.9306,-0.54481,-2.2831,1.0806,0.62492,-27.84,-2.1,19.98
6.3743,10.924,-1.7706,-1.8473,1.0479,0.208,-27.36,4.14,20.34
4.3449,11.523,-1.9886,-1.2358,0.8323,-0.45387,-27.42,6.06,20.7
2.6832,11.496,-1.2667,-0.83047,0.68783,-0.94195,-27.54,7.86,21.12
2.6968,11.536,-0.35413,-0.38668,0.65424,-1.7908,-27.84,11.46,22.2
3.2689,10.283,-0.39499,0.51954,0.22174,-2.5901,-28.02,13.26,22.62
4.9578,6.9872,-0.72188,0.77274,0.014661,-2.9838,-27.84,14.7,23.04
8.0224,4.5356,-0.7355,1.2813,-0.42211,-3.9999,-27.48,15.96,22.92
12.027,4.127,-0.54481,1.4988,-0.2642,-4.5415,-27.54,15.42,22.68
14.982,4.1814,-0.14982,1.7822,-0.1744,-4.7684,-27.66,14.28,22.02
19.491,-0.54481,-2.3563,2.39,-0.50488,-4.831,-27.18,10.86,20.58
19.518,-4.8761,-3.1735,2.8246,-1.365,-5.1047,-26.76,9.24,19.68
19.532,-9.616,-2.5061,2.9141,-1.9734,-4.4208,-26.7,7.38,18.78
19.532,-9.9292,-1.6753,2.8259,-1.6979,-4.029,-26.94,5.4,18.06
14.642,-9.6977,0.44947,2.4648,-0.61667,-2.7376,-27.24,0.72,17.52
10.828,-8.4446,0.57205,2.4309,-0.2022,-1.9291,-27.42,-1.74,17.34
7.641,-7.9543,0.42223,2.4722,-0.070555,-1.1637,-27.48,-4.14,17.04
2.6287,-7.5729,0.35413,2.2678,0.023213,0.052534,-27.66,-8.88,16.68
0.57205,-7.1234,0.7355,1.9028,0.31796,0.80084,-27.6,-11.04,16.56
-1.1169,-6.565,1.2258,1.4899,0.65576,1.4016,-27.42,-13.14,16.56
-3.6094,-5.9657,1.8932,1.1066,0.93646,1.8048,-26.64,-15.84,16.14
-4.8897,-5.6116,2.1793,0.66523,1.1878,2.0947,-26.4,-16.5,16.26
-4.7944,-5.5299,2.0703,0.14355,1.3967,2.4291,-26.52,-16.98,16.68
-2.833,-6.4424,1.2939,-0.37477,1.354,2.8989,-26.82,-17.34,17.82
-1.5663,-7.7227,0.78998,-0.94257,1.1017,3.5119,-26.82,-17.52,18.3
0.28603,-9.7658,0.6674,-1.3271,1.0366,3.8368,-26.52,-17.52,18.36
8.717,-12.068,0.1362,-1.7926,1.0922,4.0613,-25.44,-16.74,18.0
16.794,-15.568,0.1362,-2.2297,1.7223,4.3084,-25.02,-16.32,17.58
19.191,-18.96,-0.44947,-2.8323,2.5061,4.5647,-24.66,-15.84,17.34
19.532,-13.825,-1.9068,-3.1631,1.2544,3.1796,-24.66,-14.28,17.52
19.532,-11.836,-2.942,-2.9132,0.53573,2.3396,-24.9,-13.02,17.7
19.532,-8.6898,-4.2223,-2.8173,0.64294,2.124,-24.84,-11.46,18.0
18.592,-2.3427,-3.5685,-2.832,1.0971,1.7046,-24.6,-8.04,18.48
14.301,0.44947,-1.0896,-2.8237,1.0999,1.4908,-24.3,-6.18,18.72
11.632,4.6037,0.12258,-2.5385,1.044,1.182,-23.76,-4.32,18.84
