Ax,Ay,Az,Gx,Gy,Gz,Mx,My,Mz
-0.054481,-5.2438,1.4982,1.1945,-0.49052,-0.47739,-35.64,14.46,-22.86
-1.6344,-5.5435,1.8524,0.97922,-0.17959,-0.26542,-36.24,13.92,-22.14
-3.4459,-5.2166,2.0567,0.53298,0.22816,-0.087965,-37.74,12.0,-20.16
-3.8818,-4.7399,1.8115,0.24221,0.5174,0.07422,-38.4,10.8,-18.9
-3.7184,-4.5083,1.6753,0.019548,0.74098,0.44593,-38.94,9.24,-17.88
-2.656,-4.6037,0.64016,-0.10354,0.75656,0.90652,-39.66,7.2,-16.8
-1.9068,-5.1213,-0.14982,-0.19548,0.63958,1.3864,-39.66,6.48,-16.56
-0.99429,-5.6933,-1.076,-0.36896,0.35858,1.8528,-39.78,6.0,-16.38
1.58,-7.1371,-1.975,-0.84574,0.3711,2.4807,-39.72,5.58,-16.14
16.739,-11.332,-2.9556,-1.4322,1.3329,4.0403,-39.54,5.88,-16.08
19.191,-15.214,-3.5958,-1.5311,1.7013,4.3316,-39.24,6.36,-16.2
19.491,-15.05,-3.8001,-1.5785,2.762,3.1304,-38.52,7.02,-16.68
19.532,-10.706,-2.9011,-1.6851,2.1139,2.0375,-36.36,8.52,-18.42
19.532,-7.2869,-2.942,-1.7187,0.43982,1.3005,-34.92,9.12,-19.5
19.532,-3.8954,-1.5936,-2.0113,-1.0479,1.1545,-32.52,9.84,-20.76
11.632,1.7706,-0.95342,-2.1686,-0.86682,1.398,-32.22,10.08,-21.0
9.0575,3.7184,-0.61292,-2.1979,-0.54459,1.4813,-32.04,10.8,-20.82
7.9951,4.8625,-0.28603,-2.1973,0.55283,1.4273,-32.04,11.58,-20.76
7.3822,5.5707,-0.28603,-2.1338,0.87781,1.2242,-32.1,12.42,-20.46
5.5707,7.6546,0.12258,-1.9349,0.92668,0.94257,-32.46,14.82,-19.56
4.4811,8.6898,0.081722,-1.5928,0.79687,0.60903,-32.7,16.2,-19.14
2.4108,9.5615,-0.27241,-1.1631,0.5171,0.19273,-33.0,18.24,-18.36
1.4029,9.0303,-0.64016,-0.66798,0.21136,-0.29322,-33.36,19.02,-17.76
0.96704,8.4174,-0.76274,-0.1857,-0.07086,-0.75686,-34.02,19.56,-16.98
0.99429,6.279,-0.53119,0.39279,-0.31948,-1.3118,-36.24,20.46,-14.58
1.6889,5.38,-0.46309,0.67042,-0.27519,-1.6484,-37.62,20.94,-13.38
2.6968,4.6445,-0.36775,0.86132,-0.18082,-1.967,-38.82,21.36,-12.36
7.3141,4.7944,-0.081722,0.99632,0.13286,-2.314,-39.6,22.2,-11.82
12.735,6.7693,-0.47671,1.0681,0.37538,-2.1622,-39.36,22.02,-12.3
18.592,6.2654,-0.28603,1.3256,0.9893,-1.3748,-38.52,21.66,-13.2
19.504,-6.2245,1.8387,1.5012,0.48839,-1.3396,-36.42,21.06,-16.26
19.532,-8.9758,2.3836,1.449,-0.65821,-2.2969,-35.52,20.88,-17.7
19.532,-7.5184,1.9205,1.4551,-0.88301,-2.7654,-34.8,20.22,-18.72
16.63,-6.4697,1.2531,1.7782,0.197,-3.0097,-34.02,18.84,-20.1
12.04,-5.8704,0.7355,2.0699,0.25656,-2.6127,-33.72,17.82,-20.76
10.42,-6.0202,0.74912,2.1829,0.048258,-2.3854,-33.6,16.68,-21.36
6.4288,-6.0202,1.0624,2.2061,-0.99785,-1.5934,-33.6,14.52,-22.56
4.0316,-5.6797,1.1577,2.0339,-1.3509,-1.1435,-33.6,13.5,-22.92
1.7706,-5.4481,1.2531,1.8112,-1.2718,-0.83047,-33.72,12.66,-23.34
-1.1577,-5.6116,1.6344,1.3803,-0.6295,-0.56749,-34.44,11.16,-23.16
-2.0158,-5.7614,1.7025,1.029,-0.10171,-0.43463,-34.86,10.62,-22.74
-2.5606,-5.7342,1.7843,0.84086,0.11545,-0.3769,-35.58,10.02,-21.96
-2.8058,-5.4073,1.58,0.32803,0.56413,-0.18937,-36.6,9.06,-20.88
-2.6832,-5.3392,1.076,0.034208,0.71716,0.13134,-38.28,6.36,-18.72
-2.2337,-5.5435,0.5993,-0.20861,0.73182,0.58674,-38.88,5.28,-18.18
-0.29965,-6.1973,-0.74912,-0.41661,0.49816,1.3161,-39.48,3.3,-17.82
1.3757,-6.7966,-1.5255,-0.59468,0.20617,1.8442,-39.66,2.7,-17.64
4.3449,-7.927,-1.0215,-1.1512,0.096517,2.6957,-39.78,2.46,-17.58
11.032,-8.8941,-0.96704,-1.4478,0.2361,3.2519,-39.72,2.34,-17.34
19.191,-13.866,-1.5391,-1.5913,1.186,4.4737,-39.12,2.82,-17.4
19.504,-13.13,-2.5061,-1.2452,1.7791,3.9422,-38.7,3.36,-17.64
19.532,-11.782,-2.3836,-1.1344,1.5437,2.766,-37.92,4.02,-18.06
19.532,-6.674,-2.2474,-1.2819,-0.17746,1.9117,-35.88,5.52,-19.62
18.796,-3.3915,-1.9613,-1.6115,-0.66432,1.6814,-35.04,5.88,-19.98
16.181,-1.3757,-1.5936,-1.8143,-0.56688,1.6863,-34.44,6.3,-20.16
10.025,3.8818,-1.185,-2.2746,0.4664,1.751,-34.56,7.62,-20.04
9.0712,5.4481,-0.91256,-2.4273,1.2993,1.6011,-34.92,8.64,-19.68
8.9622,6.1155,-0.19068,-2.4529,1.5996,1.3097,-35.34,10.14,-19.08
7.3141,7.641,0.12258,-2.2999,1.2911,0.92332,-36.0,13.14,-18.12
5.4073,8.8941,0.28603,-1.9505,0.79443,0.37935,-36.18,14.46,-17.64
3.6366,9.8066,-0.054481,-1.4355,0.38057,-0.07086,-36.3,15.96,-17.28
1.757,9.221,-0.50395,-0.56139,-0.065973,-0.71563,-36.96,18.24,-16.44
1.0624,7.9951,-0.42223,-0.064446,-0.19334,-1.1051,-37.62,19.08,-15.66
1.0624,7.0826,-0.28603,0.38271,-0.27367,-1.4746,-38.58,19.8,-14.88
2.3427,4.7535,-0.21793,0.91049,-0.14325,-1.9209,-41.16,20.82,-13.2
4.2087,3.8682,-0.10896,1.1683,0.096211,-2.3195,-42.18,21.36,-12.72
5.7069,3.7047,0.054481,1.2608,0.19792,-2.5235,-42.84,21.84,-12.6
9.9837,5.8704,0.51757,1.5589,0.55222,-2.4926,-42.66,21.78,-12.72
18.592,7.4367,0.72188,1.8931,0.85185,-1.7119,-40.74,20.4,-14.82
19.409,1.185,2.3563,2.0461,0.57146,-1.219,-39.12,19.5,-16.56
19.532,-7.3141,3.4459,1.9716,-0.38393,-2.7471,-36.66,18.0,-19.56
19.532,-6.8647,2.8194,1.5999,-1.1594,-3.2446,-36.12,17.16,-20.52
19.518,-6.4152,2.152,1.5363,-0.73426,-3.3979,-35.76,15.78,-21.36
15.704,-6.2517,1.757,1.5223,0.15821,-3.1218,-35.46,14.34,-22.08
9.6023,-5.489,1.2531,1.6273,0.15455,-2.5806,-35.04,11.28,-23.34
7.5457,-5.5162,1.3212,1.6741,-0.19853,-1.9697,-34.62,9.66,-23.94
3.9635,-5.2711,1.5527,1.6496,-0.55283,-1.3628,-33.9,6.9,-24.84
2.2474,-5.2302,1.5119,1.4801,-0.63958,-0.70891,-33.66,5.58,-25.2
0.8036,-5.3528,1.5119,1.3021,-0.52443,-0.44166,-33.54,4.38,-25.32
-0.38137,-5.4754,1.58,1.0745,-0.32651,-0.26206,-33.72,3.6,-25.32
-1.866,-5.8295,1.5119,0.82956,-0.026573,-0.13378,-35.1,2.52,-24.12
-2.438,-5.6661,1.3076,0.57146,0.32865,-0.018631,-36.42,1.62,-22.8
-2.3155,-5.489,0.76274,0.29596,0.66462,0.197,-37.98,-0.54,-20.58
-1.7298,-5.8023,0.39499,-0.17196,0.83597,0.8097,-38.4,-1.68,-20.16
-0.74912,-6.1564,-0.068102,-0.343,0.80268,1.0296,-38.58,-2.58,-19.86
0.35413,-6.279,-0.91256,-0.81001,0.37415,1.7489,-38.82,-3.3,-19.44
5.2438,-6.7148,-0.84446,-1.2999,-0.03207,2.5369,-38.82,-3.78,-19.38
12.231,-7.6002,-0.50395,-1.7596,-0.084299,3.6264,-38.88,-3.6,-19.44
19.409,-12.163,-0.65378,-1.9221,0.59987,4.6133,-38.76,-2.7,-19.62
19.518,-10.379,-0.64016,-1.7926,2.1655,3.7296,-38.52,-1.86,-19.74
19.532,-9.5479,-0.49033,-1.7281,1.8515,2.4129,-38.1,-0.66,-20.1
19.532,-7.1234,-0.92618,-1.7556,0.15241,1.7379,-37.38,0.3,-20.52
19.218,-1.3484,-0.84446,-1.9258,-0.7422,1.3515,-35.88,1.98,-21.12
14.833,1.58,-0.31327,-2.2144,-0.75625,1.3625,-35.4,2.82,-21.42
8.1586,6.0338,0.095342,-2.4609,-0.076969,1.4957,-35.52,4.44,-21.6
7.4503,6.9736,0.095342,-2.4557,0.74067,1.3708,-35.64,5.52,-21.48
6.9872,7.2052,0.01362,-2.3582,0.77702,1.2706,-36.06,6.9,-21.36
5.5435,7.9679,-0.095342,-1.9111,0.33017,0.79932,-36.78,9.9,-21.0
3.909,8.8668,-0.054481,-1.4392,0.029016,0.40775,-36.96,11.28,-20.58
1.6753,9.3844,-0.54481,-0.91813,-0.13347,-0.042455,-37.74,13.68,-19.8
0.5993,8.7987,-0.70826,-0.38118,-0.30391,-0.47189,-38.04,14.7,-19.26
-0.095342,7.8862,-0.65378,0.26053,-0.34178,-0.92852,-38.58,15.6,-18.78
-0.25879,5.8976,-0.25879,0.45387,-0.29322,-1.0947,-40.26,16.44,-17.28
0.61292,4.9306,-0.28603,0.89217,-0.029932,-1.4523,-41.34,16.98,-16.56
1.2803,4.4811,-0.19068,1.1435,0.20036,-1.6848,-42.12,17.4,-16.14
2.8603,4.1542,0.10896,1.3039,0.47067,-1.8888,-42.6,17.76,-15.78
11.959,7.0826,1.2122,1.398,0.89553,-1.7685,-42.12,17.46,-16.2
18.483,8.5808,1.5936,1.9276,1.2514,-0.62339,-40.98,16.92,-17.28
19.504,-2.8058,4.5764,1.9881,0.57849,-0.3824,-37.38,16.26,-20.76
19.532,-7.4776,5.2575,1.9429,-1.0592,-2.084,-36.0,16.02,-22.2
19.532,-7.5729,4.3177,1.8308,-1.47,-2.5549,-35.16,15.78,-23.28
19.532,-7.246,3.2416,1.7587,-0.54123,-3.3173,-34.44,15.24,-23.94
12.749,-5.6797,1.9341,1.7987,-0.0024435,-3.175,-33.3,13.26,-25.32
10.474,-5.5571,1.7025,1.9413,0.03207,-2.4612,-32.76,12.12,-25.98
7.4912,-5.4345,1.6617,1.9578,-0.14111,-2.1924,-32.34,11.1,-26.52
4.5764,-5.4345,1.757,1.9041,-0.60934,-1.409,-31.44,9.0,-27.42
2.4789,-5.5435,1.7025,1.8042,-0.72998,-0.99418,-31.32,8.1,-27.72
1.6072,-5.9249,1.7706,1.6405,-0.60201,-0.73976,-30.96,7.26,-27.96
-0.76274,-6.5378,1.866,1.409,-0.32406,-0.61453,-31.2,6.06,-27.9
-1.8115,-6.7148,1.7706,1.0931,0.24374,-0.4612,-32.04,5.58,-27.0
-2.8058,-6.1836,1.3348,0.7141,0.44257,-0.38576,-34.56,3.48,-23.88
-2.9284,-5.7614,0.99429,0.078496,0.89431,0.059254,-35.46,1.92,-22.68
-2.6287,-5.6388,0.57205,-0.31093,0.98624,0.52229,-35.82,0.42,-22.02
-1.1577,-5.9521,-0.12258,-0.60384,0.90164,1.0027,-36.06,-1.5,-21.66
-0.040861,-5.8431,-0.83084,-0.8152,0.67042,1.4352,-35.94,-2.1,-21.66
4.6173,-5.7886,-0.50395,-1.1426,0.38362,1.9645,-35.64,-2.82,-21.84
10.978,-5.9385,0.6674,-2.0446,0.63011,3.5009,-35.4,-2.7,-21.96
18.115,-8.322,1.8115,-2.4239,1.5776,4.284,-35.34,-2.52,-22.26
19.491,-11.06,2.6015,-2.3164,2.7394,3.7196,-34.56,-1.5,-23.04
19.532,-8.2403,2.3291,-2.1793,2.2758,2.2028,-33.84,-0.6,-23.58
19.532,-6.3743,1.6208,-2.0699,0.36774,1.3283,-33.12,0.36,-24.12
17.38,0.054481,1.4029,-2.1075,-1.2349,0.86193,-31.2,2.34,-25.14
12.871,2.6968,1.5391,-2.3775,-0.97005,1.0098,-30.6,3.12,-25.38
10.474,3.9908,1.362,-2.4978,-0.58704,1.117,-30.18,3.9,-25.74
8.2539,5.7342,0.76274,-2.6334,0.61667,1.1286,-30.06,4.86,-25.92
7.6683,6.9872,0.054481,-2.4755,0.80726,0.82406,-30.36,6.9,-25.8
6.8102,7.5321,-0.19068,-2.2541,0.58704,0.6463,-30.72,8.1,-25.62
4.3177,9.0984,-0.57205,-1.865,0.21105,0.28191,-31.44,10.62,-25.08
2.6696,9.8475,-0.74912,-1.1677,-0.21625,-0.35064,-31.92,11.64,-24.9
1.3076,9.7522,-0.64016,-0.57513,-0.56902,-0.6915,-32.22,12.72,-24.48
0.61292,9.1665,-0.68102,-0.2755,-0.77641,-0.85979,-32.76,13.5,-24.18
-0.8717,7.1507,-0.46309,0.39615,-0.76328,-1.35,-34.38,14.4,-23.1
-1.1577,6.279,-0.040861,0.74464,-0.5904,-1.496,-35.28,14.52,-22.44
-0.92618,5.0804,-0.12258,1.0046,-0.26725,-1.6115,-36.24,14.7,-21.96
1.8387,5.5162,0.47671,0.86529,0.36621,-1.6157,-37.32,14.7,-21.72
7.6683,8.1313,0.64016,0.92363,0.99632,-1.0678,-36.96,14.88,-21.84
17.094,7.5048,1.8387,1.292,1.1894,0.02138,-35.94,14.94,-22.62
19.463,-2.1248,5.1621,1.6622,0.28375,0.67226,-33.54,16.14,-25.14
19.532,-6.7148,6.0474,1.7636,-0.64171,-0.51221,-32.58,16.68,-26.28
19.532,-8.0088,5.4754,1.7596,-1.4383,-1.5879,-31.86,17.1,-27.12
19.532,-8.1177,4.8352,1.8088,-1.3686,-1.9581,-31.26,17.04,-27.66
10.569,-5.9385,2.0703,2.0846,-0.38423,-2.233,-30.42,15.78,-28.68
10.569,-5.9385,2.0703,2.0846,-0.38423,-2.233,-30.42,15.78,-28.68
8.0224,-6.0066,1.7979,2.1234,-0.45204,-1.5763,-30.12,15.18,-28.86
4.6445,-6.0474,1.4438,2.0214,-0.67562,-1.2489,-29.94,14.4,-29.34
2.6968,-6.456,1.3893,1.8528,-0.77824,-1.0397,-30.12,13.74,-29.52
-0.76274,-6.8919,1.5391,1.6005,-0.69761,-0.9218,-30.9,13.08,-29.16
-2.152,-6.7012,1.3484,1.3088,-0.35766,-0.84727,-31.86,12.66,-28.8
-3.1191,-6.4833,1.185,1.0159,0.077885,-0.74923,-33.3,12.06,-27.78
-4.0861,-6.4424,0.81722,0.44593,0.70188,-0.47831,-35.82,9.66,-25.02
-3.9635,-6.2381,0.31327,-0.0061087,1.0486,-0.1408,-36.72,8.1,-23.82
-3.0918,-6.1564,0.31327,-0.45448,1.2376,0.38759,-37.5,6.54,-23.1
-0.81722,-6.674,-0.76274,-0.84635,1.1741,0.92454,-38.04,4.5,-22.68
1.3757,-6.6467,-1.7979,-1.3445,0.54275,1.5815,-37.98,3.96,-22.5
6.0202,-6.7693,-0.53119,-1.9661,0.096822,2.3405,-37.92,3.48,-22.62
12.544,-6.9191,0.5993,-2.5775,0.22694,3.4147,-37.92,3.36,-22.68
19.273,-11.523,3.1327,-2.9648,1.1588,4.0448,-37.5,3.54,-22.92
19.518,-8.826,3.2553,-2.6597,2.3268,3.2834,-36.96,4.2,-23.04
19.532,-6.2654,2.0839,-2.3879,2.0565,1.9477,-36.36,4.86,-23.34
19.532,-2.0839,1.2531,-2.1454,0.44899,1.1903,-34.62,6.24,-24.24
16.549,1.1169,1.3484,-2.1432,-0.93523,0.87079,-33.72,6.96,-24.54
13.062,2.6696,1.6481,-2.3634,-0.74862,1.0788,-33.24,7.62,-24.84
6.3743,6.8919,1.3076,-2.4129,-0.084299,1.2828,-32.76,9.24,-24.9
5.38,8.2676,0.72188,-2.3408,0.68875,1.2324,-32.82,10.44,-24.78
5.3119,8.8805,-0.35413,-1.8763,0.78069,0.82314,-33.36,12.96,-24.18
4.7126,9.2891,-0.61292,-1.387,0.19456,0.42852,-33.66,14.16,-23.88
3.2144,9.4798,-0.83084,-1.1206,-0.098655,0.18631,-33.9,15.54,-23.4
1.7298,9.3844,-0.83084,-0.31246,-0.6692,-0.43035,-34.2,16.56,-23.1
0.095342,8.4174,-0.51757,0.17685,-0.87598,-0.73487,-34.98,18.24,-22.2
-0.7355,7.2052,-0.28603,0.59284,-0.82589,-1.0079,-35.52,18.54,-21.78
-0.58567,6.2381,-0.14982,0.88667,-0.5397,-1.2187,-36.24,18.9,-21.3
0.78998,4.4675,0.054481,1.1258,0.048564,-1.5036,-37.92,19.08,-20.22
2.9284,4.1814,0.35413,1.1402,0.44746,-1.5876,-38.52,18.96,-19.86
5.598,5.203,0.77636,1.2132,0.63744,-1.5,-38.58,18.9,-19.92
18.742,6.3607,2.5742,1.7883,0.64782,-0.52901,-36.96,18.6,-21.42
19.436,0.42223,4.7944,2.0821,-0.22663,-0.31276,-35.7,18.78,-22.74
19.518,-4.5356,6.5786,2.2058,-0.79779,-0.96853,-34.62,19.14,-23.94
19.532,-7.0281,6.1019,2.1741,-1.1484,-2.2498,-33.3,18.96,-25.68
19.532,-6.5514,4.8352,2.2019,-0.96395,-2.4758,-32.88,18.48,-26.22
17.72,-6.1292,3.732,2.229,-0.58307,-2.6298,-32.64,17.82,-26.64
10.896,-5.5026,2.6832,2.0705,-0.44929,-2.127,-32.4,16.02,-27.42
7.6002,-5.5026,2.4653,1.8155,-0.41081,-1.6377,-32.22,15.24,-27.78
5.7205,-5.5026,2.3836,1.3833,-0.26053,-0.97952,-32.16,13.44,-28.32
2.3699,-5.4754,1.9886,1.2843,-0.14661,-0.83139,-32.1,12.54,-28.44
1.1032,-5.6116,1.8251,1.1591,0.088881,-0.63988,-32.4,12.06,-28.56
0.40861,-5.7614,1.6481,1.0727,0.32132,-0.56077,-32.88,11.46,-28.44
-1.4301,-6.2517,1.0351,0.9053,0.57788,-0.51893,-34.92,10.02,-27.18
-2.3018,-6.3607,0.72188,0.6805,0.75625,-0.44257,-36.3,8.82,-25.98
-2.9692,-6.3607,0.50395,0.3656,0.8375,-0.25045,-37.26,7.2,-24.9
-3.0373,-6.3743,-0.19068,-0.23121,0.85124,0.35522,-38.34,4.26,-23.88
-2.1929,-6.7012,-0.55843,-0.42638,0.79932,0.62064,-38.46,3.0,-23.76
-0.99429,-6.674,-1.2122,-0.76938,0.51252,1.1228,-38.4,2.1,-23.76
1.0624,-6.6467,-2.1929,-1.3665,-0.33078,2.043,-38.34,1.5,-23.94
11.305,-8.3901,0.84446,-2.1194,-0.8827,3.1429,-38.04,0.96,-24.18
18.251,-10.787,2.261,-2.5647,-0.14478,4.1618,-37.74,1.2,-24.18
19.504,-11.319,3.2416,-2.3469,2.7312,3.8833,-36.78,2.22,-24.84
19.532,-9.398,3.228,-2.109,3.1484,2.2776,-35.82,2.94,-25.44
19.532,-7.8998,2.7649,-2.0522,2.2611,1.5171,-34.68,3.78,-26.04
19.532,-2.4517,1.2258,-1.9746,-0.96486,0.78405,-33.54,4.38,-26.4
14.043,2.3018,1.5936,-2.1182,-1.347,0.81642,-31.86,5.4,-26.88
8.7987,4.9714,1.7298,-2.3366,-0.85032,0.9896,-31.68,6.18,-27.06
6.4152,7.3141,1.2122,-2.4242,0.065973,1.0162,-31.62,7.14,-26.94
4.8352,7.7772,0.91256,-2.3812,0.99052,0.86071,-32.22,9.54,-26.46
4.6173,8.4719,0.88532,-2.0824,1.2627,0.42669,-32.58,10.98,-26.28
4.1133,9.0167,0.92618,-1.8821,1.0479,0.29963,-32.82,12.3,-26.1
1.8251,9.4798,-0.23155,-1.0501,0.20708,-0.12889,-33.36,14.58,-25.98
1.0351,8.8396,-0.54481,-0.40531,-0.35797,-0.40439,-33.72,15.54,-25.74
-0.61292,7.5048,-0.49033,0.41539,-0.75961,-0.88484,-35.1,16.8,-24.84
-0.89894,6.7285,-0.38137,0.82956,-0.71166,-1.1191,-36.18,17.1,-24.24
-0.16344,5.4481,-0.12258,1.1344,-0.48961,-1.343,-37.32,17.22,-23.64
1.0896,4.9169,0.01362,1.2553,-0.36713,-1.5009,-38.4,17.34,-23.28
3.9908,4.3721,0.70826,1.514,-0.0088575,-1.9743,-39.6,17.46,-23.04
8.0088,7.641,1.185,1.7013,0.19975,-2.0125,-39.3,16.98,-23.34
16.344,10.733,1.58,2.109,0.03146,-0.60018,-38.4,16.32,-23.94
19.477,-0.65378,5.6116,2.5785,-0.97066,-0.020464,-35.1,15.6,-26.82
19.532,-7.8045,6.2654,3.2168,-1.7984,-1.3295,-34.02,15.54,-28.02
19.532,-10.733,5.3119,3.0299,-3.0519,-2.2278,-33.3,15.42,-28.56
19.532,-10.283,4.4402,2.5326,-2.5436,-2.598,-32.94,14.88,-28.68
10.624,-7.4095,2.3155,2.0223,-1.1649,-3.0791,-32.52,13.32,-28.5
8.2539,-6.4833,1.9613,1.7388,0.24312,-2.6341,-32.46,12.24,-28.56
6.2517,-5.7342,1.9613,1.471,1.0577,-1.8515,-32.4,11.16,-28.56
4.2359,-5.5162,1.6753,1.3601,0.96608,-1.6163,-32.16,9.18,-28.56
3.2008,-5.4481,1.4029,1.0369,0.27489,-0.92332,-32.28,8.34,-28.38
1.2667,-5.6933,1.471,0.85368,-0.13897,-0.59895,-32.58,7.68,-28.08
0.29965,-5.8431,1.5119,0.68417,-0.35675,-0.42638,-32.82,7.26,-27.9
-2.1793,-5.9112,1.2803,0.51252,-0.25901,-0.33537,-34.32,6.84,-26.64
-2.5606,-5.9249,1.2258,0.17074,0.16066,-0.14294,-36.06,6.24,-25.38
-2.6423,-5.884,0.85808,0.027794,0.30818,-0.014966,-37.44,5.04,-23.64
-1.8387,-5.9521,-0.040861,-0.40409,0.51313,0.53329,-39.0,2.52,-21.54
-1.1577,-6.0202,-0.40861,-0.54062,0.50702,0.73518,-39.36,1.56,-21.12
-0.027241,-6.1836,-0.84446,-0.91874,0.27153,1.2935,-39.54,0.9,-21.12
3.1191,-6.9328,-1.1986,-1.3286,0.10263,1.7828,-39.36,0.42,-21.24
7.6002,-7.3141,0.23155,-2.2498,0.45571,3.3839,-39.24,0.48,-21.24
19.0,-11.087,1.9068,-2.3353,0.88087,4.4563,-38.88,1.44,-21.24
19.463,-10.896,0.98067,-1.9111,1.8561,4.1554,-38.34,2.16,-21.42
19.518,-9.1256,0.40861,-1.4102,1.5458,2.4202,-37.68,3.06,-21.72
19.532,-5.5299,-0.83084,-1.2226,-0.13531,1.4261,-36.0,4.86,-22.08
19.532,-2.152,-0.9398,-1.2993,-1.2272,1.0293,-35.04,5.82,-22.38
16.385,0.54481,-0.44947,-1.7046,-1.1692,1.0122,-34.14,6.78,-22.38
9.9292,4.4402,-0.50395,-2.4193,0.2135,1.1442,-33.48,8.52,-22.44
7.8998,5.7342,-0.5993,-2.5513,1.0171,0.99143,-33.48,9.42,-22.26
7.2869,6.9191,-0.44947,-2.613,1.3857,0.90958,-33.42,10.5,-22.08
6.0202,8.0088,-0.43585,-2.3995,1.5937,0.53787,-33.72,12.6,-21.6
4.9987,8.7034,-0.46309,-2.0345,1.1286,0.17898,-33.9,13.56,-21.24
3.514,9.3436,-0.76274,-1.4786,0.53481,-0.23091,-34.38,15.66,-20.88
1.0215,9.2891,-0.96704,-0.83627,0.032376,-0.6127,-34.86,16.32,-20.64
0.28603,8.54,-0.89894,-0.25168,-0.23457,-0.99296,-35.4,16.92,-20.1
0.12258,7.927,-0.89894,0.55558,-0.4554,-1.4704,-36.12,17.16,-19.68
1.362,5.3528,-0.14982,1.0021,-0.48961,-1.7034,-37.68,17.46,-18.84
2.4925,4.6718,0.23155,1.3106,-0.43249,-1.9578,-38.34,17.52,-18.54
4.0316,4.2768,0.64016,1.6182,0.046731,-2.3039,-38.58,17.4,-18.54
11.414,8.54,1.2803,1.8137,0.5733,-1.9676,-38.16,17.28,-18.78
16.794,9.9837,1.58,2.1426,0.97464,-1.1909,-37.38,17.1,-19.26
19.491,0.01362,5.094,2.3143,0.31093,-0.61056,-35.4,16.74,-20.76
19.532,-5.1076,5.6116,2.2306,-0.74098,-1.8069,-34.56,16.56,-21.42
19.532,-5.4481,5.0531,1.9007,-1.2306,-2.317,-33.84,16.32,-21.96
17.053,-3.8546,2.3155,1.8225,-0.31918,-2.6304,-32.94,14.76,-22.5
14.029,-3.732,1.7979,1.857,0.64477,-2.2657,-32.46,13.92,-22.68
10.243,-3.9908,1.3212,1.8604,0.68722,-1.9557,-31.92,12.9,-23.04
7.5321,-5.2847,1.5119,1.7932,-0.042761,-1.189,-31.32,10.98,-23.7
4.4947,-5.993,1.3757,1.6753,-0.51129,-0.80329,-31.38,10.2,-23.94
2.152,-6.0883,1.1577,1.5223,-0.67623,-0.50183,-31.38,9.42,-24.06
-1.2939,-6.3743,1.1713,1.3268,-0.57177,-0.28924,-31.98,7.98,-24.06
-2.4108,-6.3743,1.2395,0.92699,-0.17165,0.02138,-32.52,7.32,-23.82
-2.9556,-6.3471,1.2531,0.76908,0.002138,0.12339,-33.12,6.48,-23.46
-3.7865,-5.8704,0.99429,0.43005,0.30788,0.38912,-34.02,5.76,-22.8
-3.2144,-5.5707,0.57205,-0.14722,0.65607,0.96639,-35.1,4.02,-21.6
-1.5391,-6.3607,0.01362,-0.47373,0.70647,1.4514,-35.52,3.06,-21.3
-0.28603,-6.3471,-0.44947,-0.74526,0.53206,1.9435,-35.52,2.58,-21.12
4.6718,-7.0417,0.19068,-1.2886,0.52901,2.8555,-35.7,2.1,-21.06
11.673,-8.0224,1.7298,-1.605,0.7761,3.2529,-35.76,2.28,-21.12
17.066,-9.112,2.6015,-2.1157,1.8378,3.8921,-35.52,2.7,-21.0
19.382,-12.04,3.514,-2.0968,2.9425,3.6606,-35.4,3.54,-21.0
19.532,-8.3493,2.2337,-1.7187,2.0797,2.4661,-33.96,5.1,-21.18
19.532,-7.3141,1.2667,-1.5748,0.21991,1.668,-32.88,6.18,-21.48
19.286,-1.0624,0.54481,-1.6536,-1.0595,1.0892,-30.54,7.86,-22.08
13.961,1.6753,0.027241,-2.1386,-0.60628,1.0641,-29.64,8.64,-22.2
11.809,3.6775,-0.14982,-2.3995,-0.18998,1.0369,-28.86,9.12,-22.26
9.2891,5.6388,-0.51757,-2.6985,0.77122,0.87018,-28.62,9.66,-22.32
7.2188,7.4095,-0.28603,-2.4471,0.84238,0.70677,-28.5,11.28,-22.02
6.0883,8.036,-0.31327,-2.0827,0.58918,0.33598,-28.74,12.0,-21.84
3.9227,8.8805,-0.7355,-1.617,0.33017,-0.075747,-28.86,12.78,-21.42
1.6753,9.7658,-0.8036,-0.78007,-0.042455,-0.67409,-29.46,14.1,-20.82
1.1713,8.9213,-0.7355,-0.20525,-0.47312,-1.0357,-29.7,14.4,-20.4
0.88532,8.1858,-0.58567,0.037568,-0.66187,-1.2431,-30.0,14.58,-20.04
0.64016,5.775,-0.54481,0.68264,-0.68814,-1.7202,-31.2,14.46,-19.2
1.8387,5.0259,-0.095342,0.97677,-0.45907,-1.9184,-31.98,13.92,-18.6
3.5685,4.5901,0.25879,1.2675,-0.24832,-2.2333,-32.46,13.74,-18.06
9.4117,6.3743,0.7355,1.5036,0.15944,-2.3201,-33.06,13.56,-17.94
16.562,8.7715,1.4438,1.6438,0.5058,-1.4557,-32.52,13.68,-18.12
18.796,8.4038,4.3449,1.7849,0.55039,-0.75931,-31.86,13.92,-18.84
19.491,-1.3484,5.8159,2.5091,-0.69303,-1.1011,-31.02,14.46,-19.56
19.532,-8.4174,4.9033,1.5861,-1.824,-2.511,-29.7,15.0,-20.76
19.532,-5.2166,4.0316,1.3317,-0.23579,-2.5354,-29.1,14.88,-21.18
14.015,-4.6582,2.7513,1.3244,0.25412,-2.6118,-28.08,14.34,-21.72
11.468,-4.2223,2.1929,1.3845,0.73518,-2.116,-27.84,13.98,-22.08
10.12,-4.5356,2.1112,1.4584,0.16952,-1.2639,-27.42,13.32,-22.26
8.1041,-4.9714,2.0294,1.4374,-0.48381,-0.85704,-27.24,12.72,-22.5
3.9363,-5.0259,1.58,1.4371,-0.85246,-0.51282,-27.3,11.7,-22.86
1.6072,-5.1485,1.3484,1.4019,-0.7984,-0.21472,-27.66,11.16,-23.16
-1.58,-5.9657,1.3348,1.3106,-0.69608,-0.1576,-28.74,10.5,-22.92
-2.4653,-6.2926,1.2258,1.0211,-0.26267,0.012217,-29.82,9.96,-22.56
-2.9692,-6.2654,1.1986,0.7025,0.009163,0.18021,-30.78,9.36,-21.78
-3.8546,-5.5707,0.70826,0.30971,0.28375,0.47189,-32.04,7.02,-20.4
-2.9829,-5.8976,0.21793,-0.09163,0.51893,0.94043,-32.4,6.12,-20.04
-0.96704,-6.674,-0.76274,-0.57513,0.44379,1.6948,-32.82,5.16,-19.74
1.7706,-7.3958,-1.3484,-0.89675,0.20861,2.1732,-33.06,4.86,-19.8
6.0474,-8.0632,-1.3484,-1.4649,0.23152,2.8521,-33.06,4.86,-19.86
12.994,-8.6353,1.6889,-2.135,1.0708,3.6942,-33.24,5.04,-19.74
17.693,-9.7385,3.1872,-2.6056,2.0708,4.2125,-33.18,5.52,-19.98
19.504,-11.319,3.2144,-2.6341,2.5806,4.1466,-32.46,6.84,-20.34
19.504,-11.319,3.2144,-2.182,1.7013,1.8198,-32.46,6.84,-20.34
19.504,-11.319,3.2144,-2.055,0.12095,1.3943,-32.46,6.84,-20.34
19.532,-2.0567,0.98067,-2.0485,-0.21014,1.2498,-31.68,7.5,-20.4
16.154,2.3427,0.76274,-2.3934,-0.036041,1.1787,-31.08,8.1,-20.4
10.992,6.0611,0.21793,-2.521,0.42913,0.98471,-30.84,9.54,-20.22
8.6898,7.3822,0.31327,-2.4694,0.832,0.6744,-31.08,10.5,-20.22
6.3743,8.4582,0.17706,-2.1848,0.95936,0.42394,-31.44,13.02,-20.28
5.5707,8.7034,0.095342,-1.8045,0.80726,0.10721,-31.62,14.34,-20.22
2.7649,9.8203,-0.5993,-1.3732,0.61728,-0.30604,-31.92,15.66,-20.04
1.6753,9.1393,-1.1986,-0.77916,0.24801,-0.70402,-32.52,18.0,-19.8
0.92618,7.927,-1.2122,0.12523,-0.42211,-1.252,-32.76,18.9,-19.68
0.24517,7.355,-0.96704,0.58185,-0.50152,-1.7211,-32.94,19.68,-19.56
0.51757,5.1894,-0.040861,1.0049,-0.45326,-1.9059,-33.66,20.46,-19.02
1.5119,4.699,0.32689,1.3405,-0.135,-2.1625,-34.2,20.34,-18.9
4.6445,4.1133,0.58567,1.6093,0.38087,-2.4887,-35.34,20.28,-19.14
8.3765,6.3879,1.58,1.8402,0.79474,-2.7938,-35.28,20.16,-19.56
11.4,9.1937,2.3699,2.2101,1.2168,-2.2122,-34.8,19.68,-20.1
19.082,10.665,6.17,2.3836,1.4099,-1.076,-32.76,18.72,-21.54
19.504,-0.7355,8.9077,2.3931,0.95142,-1.0125,-31.74,18.3,-22.44
19.532,-5.2302,8.0905,2.2083,-0.90591,-2.8818,-30.9,17.7,-23.22
19.532,-3.9908,5.4073,1.6854,-1.0516,-3.0555,-30.06,15.72,-24.66
16.126,-3.9908,4.2495,1.5638,-0.24068,-3.0274,-29.76,14.64,-25.14
12.354,-4.0725,3.5413,1.5033,-0.026267,-2.7626,-29.58,13.5,-25.74
9.6432,-4.127,3.1054,1.3922,0.0088575,-1.7599,-29.52,12.12,-26.46
5.4481,-5.203,2.4108,1.3436,-0.281,-1.1301,-29.28,9.6,-27.6
3.4459,-5.2711,1.8932,1.3317,-0.57574,-0.26298,-29.16,8.46,-27.9
0.64016,-5.884,1.58,1.3598,-0.76083,-0.03543,-29.28,6.36,-28.32
-1.2531,-6.5922,1.5391,1.317,-0.74128,0.3992,-29.64,5.34,-28.26
-1.9341,-6.9055,1.5391,1.2617,-0.65271,0.49816,-30.24,4.44,-28.08
-3.2825,-6.7148,1.2395,0.93065,-0.19914,0.71013,-31.98,2.34,-27.36
-3.3915,-6.3743,1.0624,0.58857,0.18845,0.9896,-32.94,1.08,-26.7
-2.5742,-6.7148,0.70826,0.18479,0.56047,1.4248,-33.72,-0.18,-26.28
-1.2122,-7.3141,0.38137,-0.34239,0.7648,2.1994,-34.14,-1.62,-25.8
0.28603,-7.3277,-0.19068,-0.6014,0.57788,2.638,-34.2,-2.1,-25.74
1.6344,-7.5457,-0.83084,-0.73395,0.36591,2.8576,-34.26,-2.28,-25.56
5.9657,-9.1529,-1.0896,-1.5464,-0.82436,3.9538,-34.2,-2.1,-25.32
14.083,-11.891,1.7025,-2.3091,-1.1836,5.1139,-34.08,-1.68,-25.14
19.45,-16.086,1.6481,-2.5162,-0.037874,5.882,-33.96,0.3,-24.78
19.518,-12.926,0.47671,-1.9557,2.7238,4.0674,-33.6,1.44,-24.72
19.532,-11.06,0.5993,-1.9676,2.7697,3.1466,-33.0,2.46,-24.9
19.532,-3.4323,0.54481,-2.0644,1.2281,2.0067,-32.22,3.36,-25.08
19.463,1.2258,0.53119,-2.2235,-0.38973,1.2147,-31.56,4.8,-24.72
15.677,4.7671,0.49033,-2.3002,-0.24496,1.0357,-31.56,5.82,-24.42
12.068,6.7966,0.21793,-2.317,0.3259,0.80787,-31.98,9.18,-23.7
6.9464,7.7227,0.21793,-2.2547,1.2016,0.20525,-32.22,11.04,-23.16
5.9249,8.6081,0.19068,-2.1747,1.2917,-0.010996,-32.34,12.72,-22.68
4.1951,9.7522,0.01362,-1.6738,0.99418,-0.697,-32.52,14.58,-22.26
1.3484,10.787,-0.44947,-1.1426,0.67165,-1.1112,-32.94,17.76,-21.3
0.7355,9.9429,-0.85808,-0.53481,0.28161,-1.4954,-33.06,18.9,-20.76
0.39499,8.826,-1.0079,0.036957,-0.018631,-1.905,-33.3,19.8,-20.34
0.32689,5.9657,-0.6674,0.75747,-0.41569,-2.3433,-34.5,21.0,-19.62
0.64016,4.7263,-0.28603,0.91966,-0.50732,-2.4606,-35.46,21.36,-18.96
1.0896,4.3585,-0.28603,1.1475,-0.43463,-2.6579,-36.36,21.72,-18.42
4.127,4.7944,0.98067,1.3537,0.13317,-2.8534,-37.02,22.26,-18.36
7.1915,8.145,1.6344,1.5015,0.55497,-2.7629,-36.78,22.02,-18.66
13.484,12.068,2.1929,1.7868,0.73548,-2.0849,-36.0,21.24,-19.26
19.45,5.3256,5.0531,1.9933,0.64874,-1.0443,-34.02,19.44,-21.42
19.518,-1.0624,6.279,2.1878,-0.24557,-1.4447,-33.36,18.66,-22.14
19.532,-4.1951,6.9328,2.1362,-1.8512,-2.4285,-33.0,17.7,-22.68
19.532,-7.4095,6.3198,1.533,-1.6005,-3.1499,-32.7,16.44,-23.16
16.481,-5.6524,3.9635,1.3809,-0.046426,-3.3466,-32.64,13.86,-23.7
10.406,-5.3937,2.4789,1.514,1.2269,-2.9508,-32.58,12.36,-23.88
7.4231,-5.598,1.866,1.905,1.3244,-1.8683,-32.4,9.24,-24.36
5.0668,-6.3198,1.58,2.0061,0.60262,-1.3589,-32.28,7.86,-24.48
3.7047,-6.5105,1.5255,1.9609,-0.0079412,-0.88026,-32.28,6.54,-24.66
0.50395,-7.0962,1.3212,1.8317,-0.30421,-0.51068,-32.34,4.32,-24.6
-1.9068,-7.5184,1.0896,1.6249,-0.22388,-0.24435,-32.7,3.42,-24.42
-3.337,-7.6274,0.88532,1.3274,0.17165,-0.038485,-33.18,2.46,-23.88
-4.3449,-7.1234,0.28603,0.96059,0.70066,0.208,-34.74,1.32,-22.2
-3.9908,-6.565,-0.14982,0.30207,1.0971,0.83505,-35.28,-1.44,-21.66
-3.5685,-6.0883,-0.36775,0.078191,1.0867,1.1127,-35.46,-2.76,-21.18
-2.4517,-5.38,-0.8717,-0.32254,0.80512,1.6967,-35.52,-3.78,-20.82
0.61292,-5.0259,-2.3836,-0.72357,-0.12584,2.4911,-35.64,-4.98,-20.64
3.051,-4.6854,-1.7979,-1.1719,-0.89461,3.2373,-35.58,-5.16,-20.46
15.282,-6.8374,1.1169,-2.1096,-0.28375,5.0103,-35.52,-4.5,-19.98
19.273,-13.321,3.1735,-2.6823,1.8396,5.8258,-35.46,-3.78,-19.74
19.504,-14.111,3.7592,-2.6695,2.985,5.4685,-35.16,-2.58,-19.56
19.532,-12.64,3.9499,-2.51,3.5934,3.3451,-34.56,-1.38,-19.62
19.532,-5.7614,1.7843,-2.2575,-0.18998,1.485,-32.94,1.44,-19.74
19.532,-1.6481,0.96704,-2.0058,-1.3326,0.89583,-32.1,2.64,-19.98
14.438,2.2882,1.185,-2.0937,-1.1848,0.9163,-31.44,3.78,-19.86
9.0303,5.884,0.99429,-2.4407,-0.045815,1.1286,-31.02,6.12,-19.26
7.0553,6.6604,0.64016,-2.4315,0.55405,0.95417,-31.38,7.38,-18.9
6.279,7.2596,0.29965,-2.4209,0.79015,0.78679,-31.8,8.88,-18.6
4.8625,8.6898,0.23155,-2.2336,0.86468,0.30421,-32.16,10.2,-18.18
2.547,10.215,0.10896,-1.8506,0.51282,-0.11942,-32.64,13.02,-17.46
0.95342,10.474,-0.40861,-1.3659,0.21044,-0.62247,-32.82,14.34,-17.04
-0.28603,9.2482,-0.50395,-0.56658,-0.14111,-1.3149,-33.3,15.96,-16.32
-0.76274,8.5808,-0.28603,-0.076358,-0.12004,-1.6524,-33.84,16.5,-15.9
-0.47671,7.3005,0.1362,0.40134,-0.10812,-1.8457,-34.62,16.68,-15.24
-0.027241,6.8783,0.35413,0.80543,-0.000916,-2.0006,-35.64,16.62,-14.76
2.9556,5.9249,1.3757,1.1432,0.17837,-2.2443,-37.56,16.56,-13.98
4.9169,7.3005,2.0294,1.4129,0.63163,-2.4667,-38.1,16.56,-13.92
8.9894,11.25,2.8603,1.7718,1.3412,-1.6738,-38.16,16.68,-14.22
19.246,8.7715,6.1973,2.2165,1.5547,-1.1732,-37.26,16.74,-14.94
19.463,3.8682,7.069,2.657,0.98746,-0.91263,-36.12,17.1,-15.96
19.532,-1.6753,8.3765,2.8827,-1.2465,-2.2388,-35.46,17.28,-16.8
19.532,-5.8295,7.5865,2.5727,-1.3341,-2.6979,-34.62,16.62,-18.06
19.491,-5.4073,5.884,2.5253,-0.49786,-2.9621,-34.56,15.72,-18.6
10.869,-4.522,3.4459,2.3894,0.71013,-2.5549,-34.38,13.62,-19.74
8.0769,-4.6037,2.7786,2.3298,0.8094,-1.9398,-34.44,12.36,-20.34
6.3335,-4.8488,2.5742,2.2749,0.61972,-1.6499,-34.26,10.86,-20.94
4.3858,-5.5299,2.2201,2.0061,0.0027489,-1.0382,-34.26,9.48,-21.54
0.16344,-6.5105,1.6753,1.708,-0.16952,-0.73731,-34.44,6.78,-22.74
-1.4846,-6.8238,1.2395,1.368,-0.040623,-0.5229,-34.74,5.52,-23.22
-3.3778,-6.7829,0.84446,1.0009,0.23579,-0.29383,-35.7,3.18,-23.58
-4.3313,-6.3471,0.61292,0.45601,0.69761,0.051007,-36.78,1.8,-23.16
-4.5083,-5.9521,0.43585,0.081856,0.96669,0.39767,-37.92,0.06,-22.8
-3.0782,-5.6252,-0.1362,-0.27764,1.1368,0.94867,-39.0,-3.0,-22.5
-1.58,-6.5105,-0.44947,-0.56688,0.96731,1.5873,-39.12,-4.32,-22.5
-0.28603,-6.7693,-1.1032,-0.76786,0.36805,2.2489,-39.12,-5.1,-22.68
4.3858,-6.1019,-0.78998,-0.9447,-0.60445,3.7519,-39.36,-6.24,-23.1
7.9543,-7.9815,0.6674,-1.2715,-0.84819,5.4223,-39.42,-6.24,-23.16
16.331,-12.49,2.3018,-0.87018,0.97952,6.7769,-39.72,-5.76,-23.22
19.477,-19.355,5.5299,-0.55497,2.5278,6.5479,-39.3,-3.84,-23.52
19.532,-19.205,5.9521,-1.3723,0.71257,4.2006,-38.76,-2.28,-23.82
19.532,-12.286,3.337,-2.0168,-0.8433,2.2953,-37.68,-0.84,-24.12
19.532,-2.4517,1.5119,-2.9056,0.20739,1.3974,-35.76,1.5,-24.36
15.364,2.8058,2.6287,-3.638,1.0586,1.0211,-35.52,2.64,-24.18
13.212,5.0395,2.6968,-3.773,1.4511,0.90591,-35.52,4.08,-23.94
10.147,8.4991,2.5061,-3.7455,1.9648,0.72021,-35.88,5.64,-23.76
7.5321,10.855,1.58,-2.6576,1.3857,0.44471,-37.08,9.9,-23.4
6.5378,10.065,0.76274,-2.2471,0.69364,0.049175,-37.62,12.06,-23.04
4.3177,10.161,-0.28603,-1.9105,0.049786,-0.354,-37.98,14.22,-22.68
1.0488,10.42,-1.2667,-1.0681,-0.5568,-1.0058,-38.7,18.18,-22.08
-0.35413,9.2482,-1.6208,-0.44685,-0.67867,-1.3286,-38.94,19.8,-21.72
-0.62654,8.7443,-1.6344,-0.016493,-0.53237,-1.6582,-39.18,20.88,-21.48
-0.8036,8.145,-1.2122,0.48717,-0.43433,-1.9572,-39.96,21.66,-20.88
-0.42223,6.1564,-1.2667,0.9893,-0.35919,-2.1976,-42.3,22.32,-19.62
0.19068,5.598,-0.8036,1.2703,-0.14569,-2.3115,-43.8,22.56,-19.02
1.9068,5.6661,0.69464,1.6069,0.4273,-2.3882,-44.88,22.98,-18.96
7.1234,10.569,2.3018,1.6716,0.7761,-2.4639,-45.18,23.22,-19.08
15.936,14.901,3.9771,1.6897,1.5012,-2.1554,-44.28,22.32,-19.8
19.082,12.503,7.7908,2.1606,1.2077,-0.28955,-42.66,21.24,-20.7
19.532,-7.8181,9.1801,1.8534,-0.22571,-1.7779,-39.96,19.98,-22.56
19.532,-7.4367,8.7443,1.9474,-2.6096,-3.0607,-39.24,19.08,-23.28
19.532,-7.1234,6.0747,1.4865,-1.4349,-3.8219,-38.7,18.0,-23.58
16.44,-7.6683,3.4459,1.4209,-0.82375,-3.9932,-37.92,15.06,-24.3
12.599,-7.355,2.6968,1.368,0.47098,-3.3188,-37.62,13.5,-24.66
9.9837,-6.7012,2.1248,1.4468,0.60353,-2.7403,-37.26,12.06,-25.02
5.8567,-5.6116,0.7355,1.4978,0.12217,-2.2602,-36.54,8.76,-25.92
4.1951,-5.094,0.31327,1.4502,-0.39859,-1.8384,-36.12,7.14,-26.4
2.4789,-4.9033,0.14982,1.3778,-0.76114,-1.3448,-35.76,5.7,-26.7
-0.54481,-6.565,0.12258,1.1799,-0.71563,-1.1399,-35.64,3.12,-26.88
-1.7162,-7.8862,0.31327,0.89614,-0.54031,-0.9896,-36.0,2.04,-26.46
-2.5742,-8.4991,0.64016,0.48869,-0.37904,-0.79871,-36.84,0.72,-25.68
-3.9499,-8.4174,0.99429,0.0061087,-0.10996,-0.46762,-37.86,-1.02,-24.78
-4.985,-7.1915,1.2531,-0.43524,0.20861,0.19609,-38.7,-4.86,-23.58
-3.7456,-6.8102,0.85808,-0.77977,0.33078,1.5091,-38.64,-6.3,-23.46
-1.0624,-5.9521,-0.24517,-0.90011,0.17929,1.9435,-38.22,-8.34,-23.52
0.84446,-5.3256,-0.74912,-0.94654,-0.3317,2.7461,-38.16,-8.82,-23.46
4.0316,-4.7944,1.0488,-1.6686,-0.57024,4.4053,-38.1,-9.36,-23.34
9.9837,-4.6037,2.4108,-2.1075,0.81581,5.8096,-38.16,-9.36,-23.22
19.286,-10.542,4.8216,-2.4221,3.0791,6.6355,-37.98,-8.04,-22.98
19.504,-9.4798,5.5707,-2.3411,4.4691,5.3808,-37.74,-6.84,-23.22
19.532,-6.2245,4.522,-2.3732,3.5271,3.6166,-36.54,-4.02,-24.12
19.532,-2.1656,3.3642,-2.138,-0.061697,2.2639,-35.58,-2.46,-24.72
19.532,0.16344,2.833,-2.0831,-0.81581,1.6973,-34.74,-0.9,-25.14
14.805,4.4402,1.6617,-2.2791,-0.72143,1.5473,-33.9,1.98,-25.8
11.741,6.0474,1.3348,-2.5507,-0.099571,1.4044,-34.02,3.72,-26.1
9.1937,7.1371,0.91256,-2.5345,0.61881,1.1353,-34.2,5.46,-26.16
6.4969,8.3084,0.21793,-2.2516,1.0455,0.72449,-34.92,9.78,-26.1
5.4481,9.4798,-0.19068,-1.8949,0.90439,0.33201,-35.04,11.88,-26.16
4.1814,10.406,-0.70826,-1.6536,0.76297,0.10751,-35.16,13.98,-26.16
2.8058,10.896,-1.1305,-0.79718,0.079107,-0.55864,-35.04,16.02,-26.28
0.62654,10.161,-1.5391,-0.25045,-0.34025,-0.90133,-35.16,19.32,-26.34
-0.12258,9.8475,-1.4165,0.2135,-0.46945,-1.4746,-35.58,20.4,-25.98
-0.095342,8.3357,-0.17706,0.72418,-0.1295,-1.824,-37.02,21.72,-25.2
1.2531,6.3879,0.16344,0.81581,0.33201,-2.117,-38.04,22.14,-24.72
2.8194,5.7069,0.44947,0.79657,0.58979,-2.3259,-39.0,22.32,-24.48
8.1313,8.0769,1.4574,1.0507,1.0055,-2.8372,-39.36,22.62,-24.54
11.305,11.414,2.1248,1.416,0.90225,-2.3552,-38.64,22.38,-24.9
17.407,12.599,4.4947,1.7394,0.46212,-1.4462,-37.56,22.08,-25.56
19.504,2.9556,9.9565,2.011,-0.020464,-1.296,-35.22,21.36,-27.42
19.532,-2.3972,11.332,2.0983,-1.0739,-1.8922,-34.44,20.82,-28.14
19.532,-6.3607,11.087,2.0925,-1.7168,-2.6872,-33.9,20.04,-28.74
19.532,-6.1836,6.674,2.2092,-1.5153,-3.0308,-33.36,17.58,-29.34
15.486,-5.8704,4.3858,2.3106,-1.3903,-3.157,-33.18,16.02,-29.58
10.733,-5.993,3.6366,2.3106,-1.2614,-2.8311,-33.0,14.4,-29.82
4.9033,-6.0611,3.2008,2.1255,-0.86071,-2.0021,-32.82,11.28,-30.0
2.3836,-6.2517,3.0646,1.9038,-0.37202,-1.4737,-32.76,9.84,-29.94
0.50395,-6.7012,2.6696,1.664,0.27917,-0.99815,-32.64,8.58,-29.76
-1.1986,-7.246,2.0294,1.4789,0.86834,-0.6182,-33.0,6.12,-29.22
-1.3893,-7.6002,1.7434,1.3124,1.1884,-0.35522,-33.6,5.04,-28.68
-1.7298,-7.8317,1.6344,1.1124,1.3011,-0.17868,-34.5,3.72,-28.02
-2.5606,-6.9736,0.92618,0.86346,1.3451,0.18112,-36.0,0.24,-26.28
-2.4789,-6.6467,0.68102,0.38179,1.2526,0.59712,-36.42,-1.44,-25.74
-2.1384,-6.3198,0.35413,0.20464,1.1887,0.89247,-36.66,-2.94,-25.32
-0.76274,-6.3879,-0.57205,-0.2416,0.86529,1.8338,-36.72,-5.16,-25.02
0.49033,-5.9112,-1.58,-0.51465,0.52901,2.4056,-36.78,-5.88,-25.08
3.732,-5.0259,-1.2122,-1.0629,0.15302,3.1576,-36.6,-6.3,-25.14
13.43,-6.279,2.5061,-2.4477,1.1848,4.7202,-36.18,-6.24,-25.62
19.15,-10.896,6.6059,-3.3964,3.2058,5.3252,-35.94,-5.7,-26.1
19.436,-11.087,8.2676,-3.5635,4.5629,5.1203,-35.46,-4.86,-26.7
19.532,-7.3141,10.025,-3.6157,4.3622,2.514,-33.42,-2.16,-28.32
19.532,-3.3506,7.2869,-3.1686,0.83719,1.3631,-31.8,-0.78,-29.04
19.532,0.38137,4.7535,-2.6744,-0.99449,0.51588,-30.12,0.6,-29.58
17.638,2.9556,3.6094,-2.4297,-1.4539,0.11698,-27.72,2.82,-30.54
9.1256,5.8976,3.4187,-2.448,-1.4319,0.31918,-27.36,3.9,-31.02
6.4152,6.7148,2.8058,-2.4874,-1.237,0.40317,-27.42,5.16,-31.26
5.094,7.0009,2.438,-2.4346,-0.60506,0.35827,-27.78,6.54,-31.32
2.3699,8.4446,1.362,-2.1686,0.30329,0.12095,-28.26,9.54,-31.26
1.5119,9.2482,0.77636,-1.8017,0.52229,-0.13073,-28.56,11.1,-31.2
0.8717,9.6568,0.054481,-1.3256,0.46548,-0.46151,-29.28,13.92,-30.72
0.068102,9.1665,-0.21793,-0.49541,0.23335,-1.0351,-29.76,15.0,-30.42
-0.21793,8.7443,-0.14982,0.062308,0.15821,-1.295,-30.48,15.72,-29.94
-0.054481,7.9679,-0.21793,0.36469,0.086437,-1.397,-31.5,16.08,-29.58
0.58567,6.4697,0.28603,1.2162,-0.15241,-1.6622,-34.38,16.26,-28.68
0.78998,5.993,0.89894,1.6054,-0.27764,-1.8042,-35.94,16.32,-28.44
2.6696,7.4503,2.4517,1.7147,-0.39737,-1.5198,-37.62,16.68,-28.32
16.617,9.793,5.3664,1.6625,-0.45082,-1.1735,-37.62,16.68,-28.32
19.164,4.5492,8.5263,1.3668,-1.4389,0.054367,-36.12,17.34,-29.1
19.491,-1.7843,11.046,1.3146,-1.5107,0.069333,-35.1,17.88,-29.64
19.532,-4.3994,11.863,1.514,-0.91874,-1.2825,-34.2,18.3,-30.12
19.532,-6.8102,8.322,1.8103,-0.98502,-2.1194,-33.12,18.06,-30.48
18.96,-5.489,5.7478,2.1655,-0.77916,-2.4694,-32.76,17.58,-30.78
14.465,-4.7671,3.9635,2.6234,-0.42944,-2.0983,-32.58,16.86,-30.96
8.4174,-5.0259,2.0294,2.7394,-0.4273,-1.8155,-32.22,15.18,-30.9
6.5786,-5.0804,1.3757,2.8961,-0.90225,-1.0049,-32.1,14.22,-30.6
5.2711,-5.1894,1.2803,2.7825,-1.0571,-0.69944,-32.16,13.32,-30.36
1.5119,-6.6195,1.0624,2.5275,-0.8937,-0.53817,-32.7,11.64,-29.64
-0.12258,-7.2733,1.2803,2.2013,-0.50183,-0.52473,-33.18,11.04,-29.22
-1.3212,-7.6274,1.2395,1.81,0.12828,-0.5791,-33.9,10.26,-28.5
-2.8194,-7.4503,1.1305,1.3754,0.82956,-0.61514,-36.18,8.28,-26.64
-3.2825,-6.7693,0.99429,0.66981,1.5983,-0.42394,-37.08,6.84,-25.74
-3.1599,-5.9385,0.83084,0.15669,1.8463,-0.026267,-37.8,5.16,-24.96
-1.6617,-6.1292,0.068102,-0.31704,1.8781,0.53023,-38.4,2.76,-24.48
-0.42223,-5.9385,-0.70826,-0.65851,1.6701,1.0363,-38.52,1.86,-24.42
0.96704,-4.8625,-0.8717,-1.0489,1.1777,1.606,-38.4,1.14,-24.54
8.2948,-5.7069,1.6753,-2.135,1.1371,3.1347,-37.98,0.36,-25.14
16.576,-8.2131,3.7456,-2.6896,1.4719,3.882,-37.74,0.48,-25.38
18.796,-10.174,5.0395,-2.9868,1.959,4.105,-37.38,0.78,-25.86
19.504,-9.902,6.4833,-2.8268,1.9083,3.5168,-36.48,1.44,-26.28
19.532,-7.8045,6.1428,-2.6658,1.2761,1.9416,-34.14,3.24,-27.36
19.532,-2.8194,5.1757,-2.6918,0.66645,1.1906,-31.26,4.86,-28.44
18.537,1.4029,4.5628,-2.8155,0.38576,0.29871,-28.68,6.0,-29.1
15.091,3.051,4.2495,-3.0375,0.39095,0.090408,-27.6,6.54,-29.4
11.373,5.2847,3.6911,-3.0806,0.30696,0.023213,-26.94,7.5,-29.94
8.2948,6.9328,2.9011,-2.8613,0.3146,-0.17746,-27.18,9.12,-30.06
5.6661,7.3822,2.2882,-2.5146,0.14997,-0.32284,-27.9,10.98,-29.7
4.0997,7.8045,1.7979,-2.1622,0.0015272,-0.44654,-29.04,12.6,-29.34
1.58,8.9486,0.8036,-1.6432,-0.11545,-0.67409,-31.26,13.5,-28.68
0.23155,8.8941,0.21793,-0.68142,-0.29719,-1.0968,-34.14,14.46,-27.96
-0.55843,8.145,-0.14982,-0.018937,-0.35308,-1.3421,-37.32,15.78,-27.66
-0.92618,6.8783,0.10896,0.5623,-0.34361,-1.569,-39.66,17.1,-27.54
-0.6674,6.17,0.38137,1.0644,-0.33109,-1.6634,-40.26,17.88,-27.54
0.31327,5.094,1.0215,1.4826,-0.18479,-1.7501,-40.32,18.48,-27.42
1.1577,4.8625,1.2395,1.9703,0.31887,-1.7953,-39.84,18.54,-27.42
3.8001,6.4833,2.8058,2.0501,0.46945,-1.6826,-39.18,18.3,-27.6
17.23,12.572,9.4117,2.2223,0.82284,-0.55925,-36.6,17.34,-28.44
19.246,6.6331,13.362,2.1845,0.86773,0.53665,-35.04,17.04,-29.04
19.504,-2.5879,14.914,2.4826,0.54734,-0.089492,-33.6,16.86,-29.88
19.532,-5.4345,14.179,2.9725,-0.63194,-1.233,-32.34,16.68,-30.54
19.532,-4.8625,8.1177,3.1777,-0.85552,-2.0675,-31.02,15.66,-31.8
17.23,-4.7399,5.5299,3.2666,-0.62736,-2.2373,-30.42,14.88,-32.34
11.387,-4.699,4.2904,3.2568,-0.4722,-2.0516,-30.0,13.92,-32.7
6.1836,-5.1894,3.1872,2.9468,-0.36285,-1.1866,-29.46,11.94,-33.42
3.8954,-5.6933,2.7377,2.5763,-0.5171,-0.73487,-29.34,10.68,-33.6
1.0488,-6.7421,1.9613,1.8583,-0.59559,-0.30757,-29.46,8.7,-33.78
-0.35413,-7.1915,1.58,1.4077,-0.48869,-0.19487,-29.88,7.62,-33.78
-1.0215,-7.355,1.3212,1.0226,-0.2303,-0.10263,-30.18,6.54,-33.48
-2.2065,-7.4776,0.91256,0.85765,-0.067806,-0.050091,-30.84,5.64,-33.18
-2.9965,-7.0145,0.40861,0.40531,0.28863,0.15516,-33.12,3.18,-32.4
-2.8058,-6.4833,0.081722,0.020769,0.42364,0.4609,-34.14,1.8,-31.8
-1.9477,-6.7693,-0.027241,-0.39462,0.36255,0.94592,-34.92,0.3,-31.2
-0.54481,-6.8238,-0.68102,-0.98624,-0.12462,1.6732,-35.7,-1.74,-30.6
0.69464,-6.5105,-1.5391,-1.1484,-0.36591,1.9343,-35.94,-2.34,-30.24
2.8739,-6.5378,-0.38137,-2.0299,-1.0944,3.1426,-36.06,-2.7,-30.12
16.671,-7.2869,4.2768,-2.7712,-0.6408,4.0397,-36.48,-2.4,-29.52
19.177,-10.447,5.489,-3.0525,0.86804,4.4004,-36.42,-1.68,-29.34
19.491,-10.61,5.5843,-2.7611,2.7009,3.8023,-36.12,-0.78,-29.28
19.532,-6.7421,4.3994,-2.2975,2.8188,1.3812,-34.8,1.14,-29.58
19.532,-3.8682,3.2961,-2.2083,1.9083,1.0449,-33.96,2.16,-29.76
19.532,-0.64016,2.8194,-2.0913,0.50152,0.49847,-33.18,3.06,-29.94
17.025,1.6617,2.4108,-2.4358,0.021991,0.089492,-32.46,3.96,-29.94
10.501,4.7944,1.866,-2.733,0.29596,0.030543,-32.22,5.76,-30.12
8.0224,6.3335,1.6072,-2.7694,0.68692,-0.1857,-32.1,7.02,-30.12
5.0531,7.6138,1.0624,-2.5436,0.97402,-0.36499,-32.34,9.42,-29.94
3.5822,8.5944,0.8036,-2.0287,0.96944,-0.63225,-32.58,10.74,-29.94
3.0101,8.9622,0.46309,-1.7666,0.81276,-0.74709,-32.88,11.94,-29.94
2.0567,8.826,-0.58567,-0.86315,0.023824,-1.0687,-33.06,13.02,-30.06
0.8036,7.2869,-1.3893,-0.22144,-0.47586,-1.2517,-33.6,14.64,-30.06
-0.28603,6.7012,-1.0488,0.28863,-0.75931,-1.5296,-34.08,15.06,-30.06
-1.1577,6.1428,-0.6674,0.79565,-0.8491,-1.6872,-34.68,15.48,-29.94
-0.36775,4.2768,0.095342,1.4169,-0.59376,-1.675,-36.24,15.9,-29.52
0.74912,3.9635,0.57205,1.7165,-0.087965,-1.7486,-36.84,15.96,-29.46
1.9068,4.0316,0.96704,1.8558,0.2135,-1.8085,-37.08,16.08,-29.64
4.9306,6.5378,2.5061,2.069,1.0363,-1.5501,-36.96,16.08,-29.7
16.508,13.92,6.5786,2.2773,1.3689,-0.60934,-35.52,15.78,-30.48
19.355,7.0009,11.032,2.3228,1.1182,0.6805,-34.38,15.54,-31.14
19.532,-3.909,12.258,2.5067,0.12614,-0.087048,-32.22,14.94,-32.22
19.532,-4.1951,10.188,2.5501,-1.2828,-1.5828,-31.44,14.22,-32.58
19.532,-4.4811,7.5184,2.4474,-0.99846,-2.0956,-30.78,13.62,-32.76
17.897,-4.5764,5.9657,2.3796,-0.60995,-2.2501,-30.3,12.54,-33.12
9.1801,-4.127,3.8001,2.1759,-0.17013,-1.8696,-29.4,10.38,-33.6
6.8238,-4.2223,3.3097,1.9279,0.054367,-1.3583,-29.1,9.12,-33.78
3.5958,-5.1485,2.0839,1.6588,-0.032681,-0.91324,-28.92,7.92,-33.96
2.2882,-5.5571,1.5391,1.3094,-0.19028,-0.41539,-28.68,5.82,-34.08
0.99429,-5.8023,1.1577,1.2022,-0.22969,-0.29535,-28.92,4.8,-33.9
-0.14982,-6.1836,0.96704,0.97769,-0.27275,-0.12737,-29.22,3.9,-33.78
-1.866,-6.9191,0.5993,0.78741,-0.18357,-0.089186,-30.54,1.86,-33.0
-2.3155,-6.9055,0.31327,0.50274,-0.10812,0.051924,-31.38,0.6,-32.28
-2.0431,-6.1836,-0.12258,-0.13775,-0.19823,0.58277,-32.88,-2.04,-31.08
-1.5936,-6.5786,-0.14982,-0.61056,-0.33995,1.0883,-33.12,-2.88,-30.48
-1.0215,-6.7148,-0.27241,-0.83017,-0.40959,1.3384,-33.24,-3.78,-30.18
-0.17706,-6.4152,-1.0896,-1.3005,-0.76877,2.0305,-33.42,-4.44,-29.88
4.1951,-5.9657,-0.12258,-1.7538,-1.058,2.8234,-33.66,-4.98,-29.04
10.12,-6.2245,1.6753,-2.4432,-0.90133,3.8637,-33.78,-4.86,-28.56
19.3,-10.297,3.9363,-2.7584,0.015577,4.6258,-33.84,-4.5,-28.14
19.504,-9.0575,3.9635,-2.5107,2.5775,4.4584,-33.6,-2.76,-27.54
19.532,-7.5184,4.2768,-2.2364,3.2284,2.7993,-33.12,-1.62,-27.6
19.532,-6.4424,4.2904,-2.1664,2.2071,1.759,-32.28,-0.42,-27.66
19.532,-0.85808,3.1327,-2.1105,1.0632,1.1304,-30.42,1.26,-27.54
17.053,2.3972,1.9341,-2.2746,0.4948,0.56719,-30.0,2.1,-27.48
11.618,4.9987,1.2258,-2.5788,0.3485,0.30788,-30.06,3.66,-27.18
9.0712,6.2109,1.0624,-2.737,0.52412,0.22755,-30.66,4.8,-27.12
7.0281,7.3005,1.0215,-2.675,0.58215,0.16157,-31.2,6.18,-27.0
5.4073,8.1041,0.83084,-2.241,0.69089,-0.22083,-31.74,7.8,-26.76
2.833,9.6432,0.19068,-1.7941,0.55619,-0.48717,-32.46,10.92,-26.52
1.8387,10.161,-0.14982,-1.2141,0.2642,-0.76358,-32.88,12.3,-26.52
0.39499,8.7034,-0.57205,-0.49205,-0.17898,-1.1203,-33.72,14.46,-26.46
-0.23155,7.7091,-0.27241,0.32315,-0.42913,-1.3818,-34.44,15.06,-26.28
-0.14982,7.069,-0.19068,0.61056,-0.46609,-1.4505,-35.16,15.3,-25.98
1.1441,5.1485,0.25879,1.3262,-0.38485,-1.6258,-37.68,15.66,-25.32
2.547,4.4266,0.6674,1.719,-0.23549,-1.7614,-38.4,15.9,-25.38
4.4266,4.127,1.866,2.0574,-0.15149,-1.9041,-38.76,16.08,-25.32
10.011,8.4174,4.7126,2.2315,0.10385,-1.5009,-37.5,16.32,-25.68
16.699,10.992,7.4095,2.474,0.97097,-0.6973,-35.94,16.14,-26.04
19.177,7.355,10.951,2.4881,1.2343,-0.17623,-34.38,15.78,-26.58
19.491,0.64016,12.803,2.5617,1.354,-0.18295,-32.88,15.36,-27.06
19.532,-2.1248,10.924,2.8396,-0.32803,-1.7159,-30.84,14.16,-28.02
19.532,-2.6287,8.7306,2.89,-0.59376,-1.8952,-29.94,13.44,-28.38
18.537,-2.9829,5.5162,2.8995,-0.5342,-1.9664,-28.56,11.34,-28.8
11.005,-3.8954,4.4811,2.759,-0.40775,-1.6677,-27.9,10.26,-29.1
8.3084,-4.5083,3.8546,2.5076,-0.20861,-1.2614,-27.36,9.24,-29.4
6.279,-5.0123,3.0918,2.3802,-0.13683,-1.0409,-26.76,8.46,-29.7
4.6037,-5.5435,2.3155,1.9716,0.055589,-0.49022,-26.4,7.62,-29.88
1.975,-6.6876,1.3348,1.7208,-0.054672,-0.26848,-26.22,6.42,-30.0
0.72188,-7.1915,1.0624,1.471,-0.31521,-0.18204,-26.46,5.94,-30.0
-0.42223,-7.4776,0.7355,1.0021,-0.4383,-0.17043,-27.66,4.44,-29.46
-2.4653,-7.4503,0.49033,0.6185,-0.31307,-0.083994,-28.62,3.6,-28.98
-2.942,-6.96,0.27241,0.18479,-0.11759,0.17196,-29.28,2.64,-28.68
-2.8058,-6.8374,0.040861,-0.03543,-0.028405,0.38179,-29.7,1.62,-28.38
-1.8115,-6.7421,-0.8036,-0.67287,0.073609,1.2318,-30.06,0.66,-28.02
-1.1441,-6.4016,-1.2667,-1.0464,-0.060781,1.9035,-30.48,-0.42,-27.48
4.0452,-6.3879,1.6208,-2.0693,-0.24221,3.4664,-30.48,-0.6,-27.3
7.8998,-6.4288,2.7377,-2.4135,-0.051313,3.9865,-30.42,-0.36,-27.12
18.115,-9.5751,3.8001,-2.6133,0.64904,4.707,-30.48,-0.06,-27.0
19.491,-11.264,2.9965,-2.1454,1.3857,4.893,-29.82,1.44,-26.88
19.532,-11.182,2.547,-1.9245,0.72876,4.1667,-29.1,2.4,-26.88
19.532,-10.896,2.2882,-1.8934,-0.82253,3.3381,-28.2,3.48,-26.76
19.532,-4.8352,2.4108,-1.9254,-1.0458,2.2565,-26.28,5.34,-26.7
15.895,-1.6344,2.8875,-2.5779,0.043677,1.7547,-25.8,6.12,-26.52
13.062,0.55843,3.0646,-2.9285,0.79779,1.598,-25.68,6.96,-26.1
8.3493,7.355,3.3234,-3.2281,2.5501,1.3659,-26.16,9.66,-25.02
8.6489,9.1801,2.6968,-2.6093,2.6735,1.1616,-26.46,11.52,-24.6
9.0303,9.3436,1.6072,-2.0388,2.0461,0.67806,-26.58,13.38,-24.3
6.6876,10.597,0.83084,-1.3528,0.60201,-0.35522,-26.82,16.92,-23.52
4.9714,11.373,-0.92618,-0.78221,-0.1686,-1.1148,-26.88,18.54,-23.1
2.9965,11.128,-0.95342,-0.4609,-0.52351,-1.46,-26.88,19.92,-22.56
1.2122,10.12,-0.64016,0.35216,-0.97677,-2.2251,-27.12,21.12,-22.14
0.61292,8.1722,0.24517,0.7419,-0.80909,-2.4813,-28.74,22.56,-20.82
1.7979,7.1234,0.54481,1.095,-0.52748,-2.7147,-29.82,23.04,-20.4
3.0782,5.4073,1.1305,1.4236,0.15485,-3.0723,-32.28,23.64,-19.62
7.6002,6.5241,1.8115,1.4936,0.37721,-3.1264,-32.88,23.64,-19.5
12.503,9.6296,4.3177,1.5968,0.74526,-2.4651,-32.76,23.22,-19.92
18.387,10.869,6.5105,1.7459,0.65485,-1.9248,-31.56,22.5,-20.7
19.504,-0.46309,7.0145,2.2321,0.18112,-1.4163,-28.14,21.3,-22.98
19.532,-5.7614,8.4719,1.9224,-1.0162,-2.9401,-27.0,20.7,-23.88
19.532,-3.9908,6.8647,1.824,-0.49541,-2.8882,-25.92,18.78,-24.84
18.782,-3.7592,5.5162,2.0901,0.73029,-3.0009,-25.8,17.46,-25.38
14.996,-4.127,4.5492,2.3973,1.2046,-2.4755,-25.68,16.14,-25.8
11.346,-4.7126,3.732,2.5736,1.0037,-1.766,-25.2,13.2,-26.88
8.6762,-5.1757,3.1872,2.6377,0.21258,-1.1756,-24.84,11.7,-27.54
6.0066,-5.6661,2.7377,2.5626,-0.57238,-0.70494,-24.6,10.44,-28.02
2.0294,-6.3198,2.0294,2.3534,-0.8937,-0.22816,-24.06,8.28,-28.86
0.095342,-6.9328,1.7162,1.8579,-0.748,-0.027794,-23.94,7.62,-29.1
-2.4517,-7.6274,1.4982,1.6451,-0.58979,0.050702,-24.24,7.38,-29.04
-3.4732,-7.464,1.3212,0.96608,0.062003,0.25687,-26.76,6.0,-27.96
-4.0861,-6.9872,0.69464,0.52687,0.51526,0.44654,-28.14,4.74,-27.18
-3.8273,-6.6331,0.40861,0.058032,0.85216,0.79504,-29.1,3.36,-26.7
-1.8387,-6.9328,-0.12258,-0.42089,0.93951,1.306,-29.94,1.44,-26.52
-0.85808,-7.1371,-0.47671,-0.81581,0.7028,1.847,-30.0,0.54,-26.46
0.62654,-6.96,-1.3484,-1.0947,0.097128,2.3876,-30.18,0.18,-26.58
6.3879,-6.8102,-0.31327,-1.7202,-1.1078,3.5003,-30.42,-0.06,-26.58
12.871,-6.7693,0.74912,-2.1768,-1.4361,4.3891,-30.6,0.3,-26.46
19.014,-8.6353,1.1032,-2.2458,-1.0269,4.9972,-30.54,0.96,-26.28
19.518,-10.324,0.61292,-2.1417,0.50549,5.1096,-29.88,2.76,-26.1
19.532,-11.25,1.3484,-2.4062,1.3204,3.2043,-29.22,3.9,-26.16
19.532,-10.597,1.9205,-2.4584,0.78557,2.4923,-28.14,4.8,-26.46
19.532,-2.9284,1.5391,-2.5913,0.4893,1.4242,-27.0,5.88,-26.58
18.333,0.14982,1.4982,-2.9511,1.1066,0.6298,-25.32,7.68,-26.7
14.451,2.7649,1.362,-3.1145,1.478,0.28558,-25.02,8.46,-26.58
10.746,4.7944,1.1577,-3.0256,1.6973,0.073609,-25.08,10.56,-26.04
6.3743,6.8783,0.91256,-2.6264,1.6744,-0.062003,-25.56,11.94,-25.68
5.2847,7.246,0.9398,-2.4682,1.5605,-0.15577,-25.86,13.26,-25.14
4.0316,7.8317,0.99429,-2.0733,1.1738,-0.39492,-26.16,14.64,-24.72
0.99429,9.7658,0.58567,-1.2706,0.39737,-0.83322,-26.64,16.92,-23.88
-0.054481,9.6568,0.12258,-0.63499,0.030238,-1.1429,-27.0,17.76,-23.58
-0.53119,8.7715,-0.21793,-0.058032,-0.13256,-1.4395,-27.6,18.42,-23.34
0.23155,6.8647,0.095342,0.78863,-0.20831,-1.7071,-29.04,19.02,-22.74
1.2395,5.8704,0.38137,1.296,-0.39676,-1.8231,-30.12,19.2,-22.44
2.152,5.1894,0.62654,1.4914,-0.45662,-1.8766,-31.14,19.32,-22.26
5.8159,5.7614,1.7843,1.8723,-0.42119,-1.8103,-32.7,19.62,-22.26
12.994,7.3277,2.5198,2.036,-0.21961,-1.332,-32.7,19.74,-22.74
18.51,6.7966,4.127,2.1646,0.10507,-0.64721,-32.1,19.74,-23.58
19.518,-4.7126,7.4503,2.0452,0.56047,-0.16982,-30.12,19.5,-25.74
19.532,-5.8704,7.927,1.7666,0.047953,-1.9123,-29.4,19.2,-26.76
19.532,-4.7671,7.4367,1.6475,-0.10537,-2.0003,-28.8,18.72,-27.72
19.532,-2.9965,5.3528,1.7306,0.43677,-2.1469,-28.5,18.0,-28.56
15.323,-3.3506,3.623,2.1512,0.98533,-1.8998,-27.6,16.14,-29.82
11.55,-4.127,2.9148,2.3237,0.75136,-1.4939,-27.24,15.0,-30.54
9.6432,-4.5764,2.4244,2.3921,0.12309,-1.0999,-27.0,13.74,-31.14
5.7342,-5.0259,1.9886,2.3384,-0.60995,-0.75167,-26.88,11.46,-31.98
3.1735,-5.4618,1.4438,2.1066,-1.2324,-0.48014,-26.94,10.5,-32.34
1.4982,-5.7342,1.2531,1.989,-1.2633,-0.44379,-27.0,9.48,-32.64
-1.2667,-6.279,0.85808,1.5473,-0.90775,-0.42089,-27.42,8.46,-32.64
-3.4732,-6.6467,0.46309,1.1209,-0.46456,-0.37965,-28.8,6.24,-32.04
-3.9908,-6.0883,0.21793,0.6182,0.16463,-0.18051,-29.76,4.92,-31.38
-4.2495,-5.7069,-0.14982,-0.22938,0.49511,0.14722,-31.14,1.92,-30.0
-3.1463,-6.279,-0.24517,-0.75472,0.73976,0.6408,-31.68,0.6,-29.58
-2.4517,-6.6876,-0.64016,-0.96547,0.76572,0.90927,-31.92,-0.42,-29.22
-1.4165,-6.1292,-1.9886,-1.3711,0.31673,1.9013,-32.16,-1.32,-29.16
3.2689,-6.1428,-0.40861,-1.74,0.087659,3.0791,-32.46,-2.52,-28.8
10.896,-7.5321,2.2065,-2.2043,0.062919,4.2657,-32.58,-2.64,-28.68
18.891,-14.342,4.2768,-2.6884,0.18998,5.0949,-32.1,-1.68,-28.56
19.504,-13.076,2.9148,-2.3662,0.60201,4.127,-31.8,-1.08,-28.56
19.532,-9.9156,1.5527,-1.8079,0.21441,2.4966,-31.14,-0.24,-28.68
19.532,-8.4174,1.5391,-1.6234,-0.30665,1.8051,-30.12,0.72,-28.92
19.423,-2.4789,1.8524,-1.7517,-0.1127,1.2795,-28.68,2.16,-29.16
14.124,1.0488,1.9205,-2.2388,0.52993,0.93035,-28.38,2.94,-29.28
9.4253,4.1542,1.7298,-2.5727,1.1005,0.73059,-28.62,4.98,-29.16
7.1643,5.5026,1.8387,-2.4957,1.4132,0.76755,-29.04,6.3,-28.8
5.489,6.3471,1.9068,-2.2333,1.2587,0.58735,-29.46,7.92,-28.74
4.2632,7.1915,1.6344,-1.9117,1.1551,0.3656,-29.76,9.54,-28.5
0.8717,10.828,-0.16344,-1.4407,1.0724,0.16616,-30.42,12.96,-28.14
0.49033,12.095,-1.4165,-0.79596,0.9163,-0.068111,-30.72,14.52,-27.78
1.1032,10.924,-2.0703,0.21411,0.15027,-0.54489,-31.8,16.68,-27.48
1.1441,10.052,-1.6072,0.68417,-0.032987,-1.0345,-32.58,17.58,-27.24
1.7298,8.4446,-0.10896,0.88606,-0.10751,-1.2358,-33.6,18.24,-26.82
2.3972,7.6002,0.44947,1.5204,-0.27306,-1.7355,-34.86,18.78,-26.52
5.6661,6.5105,1.471,1.7452,-0.069639,-2.1472,-36.84,19.56,-26.28
8.0088,7.641,2.2337,1.7611,0.48197,-2.1579,-37.08,19.56,-26.4
14.901,9.7794,4.699,1.8906,1.1609,-1.4032,-36.54,19.2,-27.06
19.463,0.64016,10.052,1.8543,1.2187,-1.1875,-32.64,18.48,-29.34
19.532,-3.9635,10.842,2.047,0.27581,-2.7541,-30.72,18.18,-30.42
19.532,-4.5356,10.61,2.3616,-0.68692,-3.0241,-29.52,17.82,-31.26
19.532,-5.5162,7.2596,2.5213,-0.99663,-3.2263,-28.14,15.66,-32.52
18.319,-6.0611,5.9249,2.5504,-0.81886,-3.1374,-27.84,14.16,-32.94
9.2618,-6.4969,4.5356,2.4462,-0.51191,-2.7254,-27.36,10.68,-33.54
6.0747,-6.2381,3.909,2.1933,-0.13592,-1.8427,-26.94,8.64,-33.9
4.413,-6.17,3.4187,1.9774,0.0085521,-1.222,-26.52,6.96,-34.26
1.0896,-6.3743,2.4108,1.7605,-0.072388,-0.69578,-25.68,3.9,-34.56
1.0896,-6.4152,1.9613,1.551,-0.23702,-0.30207,-25.44,2.52,-34.74
-1.1169,-6.5105,1.7298,1.3201,-0.3543,0.015577,-25.32,1.5,-34.62
-2.2065,-6.8919,1.4438,0.92332,-0.27,0.38087,-27.18,-0.24,-33.42
-3.6366,-7.3141,1.1713,0.57391,-0.061392,0.57818,-28.86,-1.8,-32.4
-3.732,-6.8647,1.0079,0.12217,0.23182,0.94623,-30.42,-3.48,-31.44
-2.7649,-6.7693,0.70826,-0.29993,0.44257,1.4835,-31.86,-6.6,-30.42
-1.6072,-7.2733,-0.068102,-0.63499,0.46792,2.0159,-32.22,-7.62,-29.94
-0.01362,-7.1779,-1.0624,-0.83353,0.20067,2.4939,-32.4,-8.4,-29.58
6.3471,-7.7364,0.19068,-1.1252,-0.2584,3.7251,-32.7,-8.82,-29.28
15.541,-9.7385,2.547,-2.1292,0.080634,4.6844,-32.88,-8.4,-29.16
18.537,-12.231,4.127,-2.4936,0.86193,4.9874,-33.06,-7.74,-28.98
19.477,-15.99,6.2381,-2.6954,3.3524,4.3833,-32.94,-6.9,-28.92
19.532,-10.883,5.4618,-2.4251,2.427,2.1121,-31.62,-4.56,-29.28
19.532,-5.6116,3.0237,-2.3097,-0.22846,0.82681,-30.72,-3.54,-29.46
19.463,-1.6617,2.261,-2.2813,-0.74892,0.37202,-30.12,-2.82,-29.4
12.177,3.4596,2.9692,-3.0953,-0.11759,0.18631,-29.88,-1.08,-29.4
8.5536,5.9657,3.2961,-3.3518,0.43097,0.18784,-30.12,-1.08,-29.52
6.6467,7.5729,3.0646,-3.0088,0.83291,0.1741,-30.78,1.68,-29.4
4.5083,9.5751,2.5742,-2.4764,0.97525,0.083078,-31.32,3.3,-29.4
2.9692,8.7034,1.6753,-1.934,0.8152,-0.074526,-32.4,6.84,-29.28
1.9341,8.6762,1.0624,-1.3741,0.53939,-0.34025,-32.76,8.58,-29.04
0.36775,8.9349,-0.81722,-0.5174,0.17165,-0.759,-33.66,11.28,-28.68
-0.14982,8.9758,-1.1441,-0.23457,0.064446,-0.90897,-34.2,12.12,-28.56
-0.1362,9.0575,-0.9398,0.43188,-0.24129,-1.1832,-34.86,12.9,-28.5
-0.28603,8.5808,-0.21793,1.3378,-0.7086,-1.4545,-35.76,13.38,-28.14
0.27241,6.3743,0.40861,1.7987,-0.77122,-1.591,-38.64,14.28,-27.36
1.185,5.6933,0.95342,2.1234,-0.66279,-1.792,-39.78,14.94,-27.42
5.3256,7.5457,2.6287,2.3341,0.088575,-2.0998,-40.44,15.6,-27.54
10.896,11.931,4.0589,2.3378,0.37538,-2.0097,-40.02,15.54,-27.66
16.699,13.634,5.6661,2.499,0.96395,-1.2972,-38.82,14.94,-28.08
19.491,-0.5993,10.215,2.4774,0.62889,-0.34056,-35.94,14.22,-29.76
19.532,-5.4209,10.842,2.5919,-0.91263,-2.3195,-35.04,13.74,-30.3
19.532,-6.3743,9.5342,2.4056,-1.8543,-2.708,-34.26,13.08,-30.78
19.532,-6.4424,7.1234,2.3433,-1.762,-2.9117,-33.96,12.24,-31.2
9.8748,-5.4073,3.514,2.0354,-0.30391,-2.5812,-32.94,8.34,-31.56
9.8748,-5.4073,3.514,2.0354,-0.30391,-2.5812,-32.94,8.34,-31.56
5.6116,-5.4481,2.6423,1.7391,-0.2135,-1.7214,-32.46,5.34,-31.92
3.7728,-5.7886,2.3018,1.4945,-0.34911,-1.2162,-32.28,4.02,-31.92
0.76274,-6.5786,1.7706,1.3222,-0.42333,-0.74862,-31.92,1.44,-31.74
-0.20431,-7.0145,1.7162,1.1677,-0.45143,-0.40531,-31.86,0.54,-31.56
-1.7025,-7.4367,1.6072,0.99327,-0.30421,-0.15485,-32.22,-0.42,-31.14
-3.6366,-7.3958,1.2667,0.78649,0.068722,0.014661,-33.96,-2.82,-29.64
-3.8137,-6.7421,0.91256,0.52901,0.4777,0.24068,-34.68,-4.38,-28.86
-3.3234,-6.3743,0.7355,-0.013439,0.81551,0.97158,-35.16,-5.82,-28.26
-1.8115,-6.8919,0.39499,-0.43768,0.85704,1.6148,-35.34,-8.1,-27.6
-0.65378,-6.7693,-0.27241,-0.75167,0.6802,2.2129,-35.1,-8.94,-27.3
3.2144,-6.2517,-0.61292,-1.0275,0.45235,2.7009,-34.8,-9.54,-27.18
8.2131,-5.993,1.1577,-1.4899,0.29322,3.3078,-34.74,-9.36,-27.12
13.225,-6.0202,2.7241,-2.5134,1.2404,4.499,-34.56,-8.94,-27.0
19.423,-11.414,6.4833,-2.9364,2.4166,4.8558,-34.38,-7.32,-27.48
19.518,-9.7113,6.6604,-2.6945,3.5693,3.3683,-33.96,-6.3,-27.84
19.532,-7.1779,4.9306,-2.3769,2.3964,1.6142,-33.42,-5.16,-28.2
19.532,-2.1248,2.4108,-2.1667,0.18173,0.7141,-31.8,-2.7,-29.28
15.827,1.7434,2.6832,-2.2119,-0.76389,0.34025,-31.14,-1.56,-29.64
12.531,3.9635,2.9692,-2.6389,-0.63286,0.45296,-30.96,-0.42,-30.0
9.6977,5.7614,2.9692,-2.9783,0.33078,0.46456,-30.9,0.6,-30.24
6.3198,7.5865,1.8387,-2.7749,0.76541,0.41325,-31.14,3.12,-30.9
5.2302,7.8589,0.96704,-2.4706,1.0681,0.20281,-31.44,4.56,-31.32
4.4266,8.5263,0.43585,-2.1225,0.92913,-0.01405,-31.68,5.88,-31.74
2.6696,8.8124,0.49033,-1.3803,0.31001,-0.354,-32.16,8.52,-32.04
1.185,8.3765,0.081722,-0.7138,-0.30085,-0.60018,-32.46,9.6,-32.34
0.50395,7.8317,-0.50395,-0.083689,-0.59926,-0.88545,-32.64,10.68,-32.46
-1.3076,7.3141,-0.36775,0.47128,-0.60506,-1.2572,-33.48,11.94,-32.22
-1.7843,6.7148,-0.054481,0.98074,-0.43494,-1.4652,-34.26,12.12,-32.04
-0.58567,6.2517,0.6674,1.5372,0.028711,-1.6136,-35.7,12.48,-31.86
1.6344,6.5922,1.4574,1.8048,0.39615,-1.763,-36.12,12.54,-31.98
3.9771,8.0769,2.4925,1.9844,0.9557,-1.8427,-36.0,12.54,-32.1
9.3844,10.569,3.8273,2.1689,1.3827,-1.5073,-35.28,12.66,-32.52
19.096,11.673,9.4117,2.324,1.3815,-0.63622,-32.52,12.3,-33.6
19.477,0.040861,12.667,2.1835,0.61087,-0.31857,-31.02,12.54,-34.32
19.532,-5.2847,12.149,2.3271,-0.697,-2.1478,-28.8,12.24,-35.46
19.532,-4.9578,9.507,2.3793,-0.82406,-2.6725,-28.26,11.64,-35.76
17.08,-4.9987,6.7557,2.4719,-0.3146,-2.6741,-27.6,10.86,-36.0
13.838,-4.9169,5.9657,2.5479,-0.17349,-2.1276,-27.0,9.72,-36.3
8.3629,-5.0259,4.3858,2.511,-0.33078,-1.5614,-26.16,7.38,-36.96
6.4697,-5.2983,3.623,2.3476,-0.70952,-1.1478,-25.74,6.36,-37.08
4.522,-5.5162,2.942,2.1038,-0.98227,-0.78282,-25.56,5.16,-37.26
0.62654,-6.2109,2.152,1.675,-0.89919,-0.42974,-25.74,3.12,-37.2
-0.92618,-6.7012,2.0431,1.3714,-0.53817,-0.29871,-26.16,2.28,-37.02
-1.9477,-7.0009,1.7979,1.0672,-0.076664,-0.21258,-26.88,1.2,-36.48
-2.4108,-6.9872,1.2803,0.74067,0.28802,-0.096517,-29.4,-0.78,-34.98
-2.4517,-7.0553,0.89894,0.36163,0.43952,0.15577,-30.6,-2.28,-34.08
-2.152,-6.7421,0.35413,-0.23243,0.38637,0.8601,-32.28,-5.04,-32.58
-1.1169,-7.0826,-0.081722,-0.58124,0.21441,1.4111,-32.64,-5.94,-32.1
0.44947,-6.96,-1.1986,-0.72876,0.10201,1.6695,-32.94,-6.78,-31.68
3.2144,-6.1973,-1.5391,-1.1799,-0.27489,2.5299,-33.3,-7.32,-31.2
7.4231,-5.6661,0.92618,-1.8964,-0.20433,3.5558,-33.54,-7.32,-30.96
12.068,-5.5299,2.547,-2.6802,0.63499,4.6291,-33.78,-7.14,-30.6
19.463,-9.7385,5.6661,-3.1652,2.999,4.9169,-33.96,-5.94,-30.42
19.518,-8.0088,5.5707,-2.8362,3.7254,3.2501,-33.6,-4.8,-30.48
19.532,-5.884,5.0531,-2.6536,2.3017,1.9694,-32.88,-3.66,-30.66
19.532,-0.91256,3.2825,-2.4135,0.41203,1.2101,-31.2,-1.32,-30.96
18.374,2.6015,2.6968,-2.4065,-0.42944,0.613,-30.42,-0.3,-31.26
14.342,4.2904,2.1929,-2.6646,-0.56719,0.35766,-30.06,0.78,-31.32
8.5127,6.96,2.1248,-2.7779,-0.29322,0.066584,-30.3,3.42,-31.74
5.8567,7.9951,1.975,-2.4816,0.18295,-0.11057,-30.48,5.04,-31.92
3.8954,8.6217,1.7162,-2.2822,0.29199,-0.20495,-30.84,6.72,-32.04
1.9205,9.0984,1.0079,-1.5788,0.36469,-0.49816,-31.56,10.26,-32.34
1.3484,9.1256,0.28603,-1.0104,0.17379,-0.76205,-31.92,11.58,-32.28
0.85808,8.6081,-0.47671,-0.42455,-0.13195,-1.0611,-32.28,12.84,-32.16
0.28603,7.8998,-0.64016,0.076358,-0.37538,-1.3299,-33.06,14.52,-32.22
0.28603,5.8159,0.040861,0.832,-0.489,-1.5488,-33.78,14.76,-32.16
1.1169,5.1621,0.57205,1.263,-0.40256,-1.7107,-34.56,14.82,-31.92
2.6423,4.7944,1.0624,1.6133,-0.064141,-1.9493,-35.34,14.82,-31.74
7.246,5.7069,2.3972,1.8656,0.60598,-2.1915,-36.36,14.76,-31.98
11.741,9.1665,3.514,2.1234,1.2303,-2.0375,-36.18,14.58,-32.16
18.51,11.686,6.7148,2.4141,1.3613,-1.2346,-35.46,14.4,-32.34
19.504,0.10896,9.6568,2.4593,0.62003,-0.70188,-33.54,13.74,-33.06
19.532,-3.4868,9.3027,2.4966,-0.27,-1.5198,-32.7,13.08,-33.42
19.532,-3.228,8.3629,2.3607,-1.4679,-1.9661,-32.04,12.18,-33.6
19.055,-3.3506,6.1155,2.2865,-0.81306,-2.1579,-31.44,11.1,-33.66
12.367,-3.4596,4.2904,2.2107,-0.2755,-1.8964,-30.36,8.52,-33.9
9.6023,-3.6503,3.6775,2.0498,-0.14203,-1.3583,-30.06,7.2,-33.72
5.5435,-4.4947,2.5742,1.8961,-0.28253,-0.88881,-29.64,5.76,-33.48
3.5413,-4.7399,1.7162,1.6704,-0.73457,-0.35858,-29.22,3.3,-33.12
1.1713,-5.1213,1.5255,1.5113,-0.90805,-0.1405,-29.34,2.22,-32.88
0.12258,-5.5571,1.4438,1.314,-0.84483,-0.0045815,-29.58,1.14,-32.58
-2.261,-6.3471,1.3076,1.0715,-0.57635,0.098349,-30.66,-0.84,-31.32
-3.1599,-6.5786,1.2667,0.76144,-0.19792,0.19548,-31.44,-1.86,-30.6
-3.4459,-5.8976,0.70826,0.36682,0.20861,0.35675,-32.22,-2.88,-29.88
-2.0567,-5.8023,0.40861,-0.29749,0.60262,0.94928,-33.36,-4.86,-28.26
-0.46309,-6.9055,0.068102,-0.65607,0.54062,1.4832,-33.6,-5.76,-27.54
1.4029,-7.641,-0.57205,-0.90042,0.14966,1.9508,-33.9,-6.3,-27.06
3.7728,-7.5865,-1.2531,-1.2336,-0.3766,2.3992,-34.02,-6.48,-26.7
13.934,-6.851,1.9068,-1.8454,-0.42333,3.1823,-34.26,-6.3,-25.98
18.742,-7.6683,3.4596,-2.2761,1.0177,4.3255,-34.44,-5.88,-25.74
19.504,-8.6081,3.0918,-2.346,1.6588,4.3429,-34.32,-4.26,-25.44
19.532,-6.8647,2.7377,-2.0174,2.5653,3.2861,-33.9,-3.24,-25.44
19.532,-6.3062,2.3972,-1.8644,1.4053,1.69,-33.24,-1.98,-25.74
19.532,-2.9692,1.3893,-2.0241,0.30482,1.1304,-32.52,-0.9,-26.04
16.426,1.3484,0.89894,-2.5088,-0.041844,0.69639,-31.32,1.2,-26.4
10.678,4.9169,0.9398,-2.9865,0.065668,0.56139,-31.2,2.04,-26.52
6.6331,7.9951,1.2122,-2.9141,0.5846,0.52046,-31.44,4.08,-26.82
5.1894,8.4719,1.0488,-2.5858,0.64904,0.30757,-31.62,5.34,-26.94
4.0589,8.4855,0.92618,-2.4004,0.59468,0.16096,-31.8,6.66,-27.06
2.2201,9.1665,0.36775,-1.7101,0.31185,-0.34819,-32.28,8.94,-27.18
0.99429,9.4661,-0.12258,-1.1096,0.07422,-0.69883,-32.52,9.96,-27.06
0.16344,8.4991,-0.64016,-0.49847,-0.20036,-0.9893,-32.76,10.98,-27.0
-0.095342,6.4969,-0.61292,0.17532,-0.27764,-1.3693,-33.66,11.82,-27.06
0.53119,5.6252,0.027241,0.36011,-0.24557,-1.4743,-34.2,12.18,-26.88
1.6889,5.2166,0.76274,0.74831,-0.067195,-1.6515,-34.62,12.12,-26.58
1.6889,5.2166,0.76274,1.2822,0.45937,-1.9685,-34.62,12.12,-26.58
7.0553,5.6661,2.438,1.5085,0.93004,-2.1279,-34.74,12.18,-26.58
17.911,11.4,5.4073,1.7672,1.3277,-1.328,-34.14,12.36,-27.36
19.436,4.3858,8.7579,2.1429,0.90072,-0.2697,-33.3,12.72,-28.02
19.504,-1.3076,9.9565,2.2287,0.51435,-0.44838,-32.46,13.14,-28.74
19.532,-4.5083,10.351,2.3176,-1.1023,-2.0608,-31.74,13.38,-29.16
19.532,-3.9227,7.3005,2.1053,-1.0559,-2.3014,-30.6,12.84,-29.76
16.739,-3.5685,5.6797,2.0537,-0.27917,-2.3491,-30.12,12.3,-29.88
13.811,-3.623,4.5356,2.0403,0.020464,-1.6912,-29.22,10.68,-30.48
7.7636,-4.9033,3.0237,1.9652,-0.25198,-1.2801,-28.74,9.54,-30.84
6.2517,-5.5435,2.5061,1.9349,-0.47037,-1.1011,-28.26,8.52,-31.08
3.2689,-6.2517,1.9341,1.7138,-0.99876,-0.62827,-27.84,7.44,-31.14
-0.57205,-6.5378,1.3076,1.485,-1.1622,-0.37477,-27.54,5.52,-31.2
-1.9205,-7.0417,1.2939,1.2013,-1.0797,-0.17837,-28.08,4.68,-30.9
-3.1191,-7.3822,1.2803,0.84605,-0.78405,0.038485,-28.8,3.84,-30.48
-4.4402,-6.7421,0.96704,0.23396,-0.074526,0.40317,-30.54,1.86,-29.22
-3.8273,-6.1428,0.64016,0.043677,0.17746,0.58674,-31.26,0.72,-28.56
-2.1929,-6.3198,0.39499,-0.32406,0.48778,1.0846,-31.62,-0.3,-28.08
-0.44947,-6.5786,0.19068,-0.68417,0.27245,1.8143,-31.92,-1.14,-27.72
2.547,-7.0009,-0.47671,-0.86285,-0.10873,2.1246,-32.16,-2.04,-27.3
4.4402,-6.5378,-0.70826,-1.0855,-0.28405,2.3961,-32.16,-2.28,-27.18
13.648,-5.6388,2.6015,-1.8121,0.6524,3.6536,-32.28,-1.98,-26.82
19.109,-8.2812,3.9908,-2.1182,1.5055,4.4999,-31.98,-1.5,-26.7
19.423,-9.2755,3.7456,-1.9633,2.4126,4.1792,-31.56,-0.72,-26.7
19.532,-6.3062,1.7979,-1.5779,1.825,2.7355,-30.3,0.9,-26.94
19.532,-6.0202,1.0624,-1.4988,0.18357,1.8821,-29.16,1.74,-27.18
19.532,-3.6503,0.89894,-1.7755,-0.7926,1.5916,-28.14,2.46,-27.36
14.928,1.7298,1.185,-2.7605,-0.079412,0.99388,-26.82,3.66,-27.18
10.828,5.0531,1.1441,-3.1508,0.93859,0.85918,-26.58,4.32,-27.0
8.5944,7.641,1.2667,-2.9004,1.6667,0.74526,-26.7,4.98,-26.82
7.5048,8.9894,0.89894,-2.4425,1.7514,0.49786,-27.24,7.02,-26.52
6.8647,8.5808,0.64016,-1.9371,1.2837,0.12462,-27.66,8.16,-26.4
5.0259,8.6898,0.095342,-1.4795,0.75442,-0.2584,-28.02,9.48,-26.28
2.1112,8.431,-0.43585,-0.83475,0.35705,-0.76328,-28.8,11.82,-25.74
1.1305,7.9951,-0.89894,0.16554,-0.49327,-1.1222,-29.4,12.72,-25.56
0.6674,7.641,-0.8036,0.44838,-0.68661,-1.3677,-30.0,13.14,-25.14
-0.12258,6.5241,-0.28603,1.2046,-0.70341,-1.7074,-30.78,13.44,-24.96
0.99429,5.3119,0.47671,1.5223,-0.48381,-1.7874,-32.64,13.38,-24.6
2.6423,5.1076,0.6674,1.8192,-0.15669,-1.9725,-33.36,13.44,-24.54
6.1292,4.5492,1.0215,2.1185,0.23213,-2.1863,-33.6,13.38,-24.6
11.959,7.7091,2.9965,2.3595,0.65607,-2.0556,-32.1,13.2,-25.5
18.524,10.256,5.6116,2.6472,0.79474,-1.3237,-30.42,13.2,-26.16
19.286,8.2267,7.6955,2.8818,0.66248,-0.95173,-28.56,13.32,-27.12
19.518,0.27241,9.507,3.3433,-0.59987,-1.8729,-27.06,13.14,-27.9
19.532,-4.3177,8.0496,2.2602,-0.93401,-2.5464,-24.96,11.82,-28.74
19.532,-3.051,6.2926,2.0012,-0.25534,-2.2483,-24.12,10.68,-29.34
14.737,-2.9965,4.522,1.8155,0.35766,-2.266,-22.44,8.52,-30.18
11.727,-3.5413,3.6094,1.6093,0.17226,-1.6509,-21.78,7.44,-30.66
9.2482,-4.1406,3.2008,1.5531,0.03543,-1.4334,-21.06,6.36,-31.08
7.0145,-4.9442,2.8875,1.3488,-0.51435,-0.83078,-20.64,5.52,-31.38
2.7649,-6.1292,2.0703,1.2422,-0.84116,-0.45051,-20.22,3.84,-31.68
0.85808,-6.6331,1.7706,1.1387,-0.9896,-0.21166,-20.4,3.18,-31.74
-2.1656,-7.355,1.3484,1.0189,-0.89614,-0.034819,-21.9,1.74,-31.2
-3.0646,-7.3822,1.2122,0.74831,-0.343,0.31062,-23.16,0.66,-30.72
-3.4187,-7.1234,0.99429,0.6185,-0.14416,0.44593,-24.3,-0.66,-30.06
-3.0918,-6.2245,0.39499,0.13225,0.30665,1.0333,-25.8,-3.12,-29.1
-1.9068,-6.7693,0.12258,-0.23243,0.38179,1.6151,-26.1,-4.02,-28.8
-0.65378,-7.1234,0.12258,-0.56719,0.14355,2.1512,-26.22,-4.68,-28.38
2.2337,-6.8783,-0.8717,-1.1335,-0.36866,2.7629,-26.7,-5.22,-28.08
4.304,-6.7693,0.027241,-1.7483,-0.15882,3.5082,-26.82,-5.16,-27.78
9.507,-6.7285,2.1793,-2.2507,1.2019,4.3878,-26.88,-4.98,-27.3
19.191,-10.46,4.6445,-2.4716,2.5821,4.7308,-26.64,-3.66,-26.88
19.491,-10.052,5.1213,-2.2352,3.3274,3.7889,-26.22,-2.64,-27.0
19.532,-7.246,4.6582,-2.0568,1.8601,2.3879,-25.56,-1.68,-27.24
19.532,-4.2632,2.8603,-1.8314,-0.42638,1.5547,-23.88,0.24,-27.54
19.532,-2.4517,2.1248,-1.9728,-1.003,1.0666,-23.1,1.2,-27.78
16.549,0.69464,1.8932,-2.5397,-0.27672,0.82039,-22.62,1.86,-27.72
9.112,6.1973,1.6344,-2.8482,0.74312,0.75625,-22.26,3.72,-27.72
8.0088,7.7364,1.4165,-2.6148,1.3659,0.68845,-22.32,4.8,-27.72
7.5048,8.1041,1.2667,-2.2339,1.4942,0.39004,-22.56,6.0,-27.72
5.3392,8.3084,0.34051,-1.554,0.91233,-0.24954,-23.16,8.22,-27.6
3.514,8.9894,-0.44947,-1.0421,0.47495,-0.71044,-23.34,9.3,-27.54
1.9886,9.1937,-0.92618,-0.74923,0.24679,-0.91996,-23.58,10.38,-27.54
1.0488,8.4855,-1.3757,0.10263,-0.39523,-1.3454,-24.12,11.1,-27.54
-0.51757,6.96,-0.81722,0.51007,-0.46456,-1.6631,-25.26,12.06,-27.18
-0.70826,6.2245,-0.27241,0.92577,-0.49511,-1.8271,-26.22,12.24,-26.94
0.10896,5.3528,-0.17706,1.3051,-0.34697,-1.8326,-27.18,12.36,-26.82
3.3097,4.5901,0.76274,1.7016,0.057421,-2.014,-28.98,12.54,-26.64
5.8976,5.7069,1.4165,1.9004,0.48228,-2.0528,-29.22,12.36,-26.88
10.093,8.3084,2.1929,1.9581,0.75869,-1.8912,-28.8,12.18,-27.3
18.919,9.4253,5.1894,2.4578,0.96853,-0.73365,-26.4,12.0,-28.62
19.45,4.0725,7.6138,2.8509,0.26023,-0.48289,-24.96,12.12,-29.4
19.532,-2.4108,7.6546,2.6973,-1.1164,-1.9233,-23.64,12.06,-29.94
19.532,-3.8001,6.2926,2.1115,-1.4694,-2.1328,-22.32,11.4,-30.84
19.532,-4.3858,5.2575,1.8375,-0.73151,-2.4856,-22.02,10.74,-31.02
17.271,-4.7399,4.3585,1.5608,-0.23488,-2.4108,-21.66,9.9,-31.26
9.5342,-5.1485,3.1191,1.3103,-0.082772,-2.0186,-21.42,8.16,-31.56
7.1507,-5.5026,2.8194,1.1102,-0.18448,-1.5858,-21.3,7.26,-31.62
4.9169,-5.9112,2.0567,0.99571,-0.38637,-1.2068,-21.36,6.42,-31.56
0.51757,-6.456,1.7706,0.9163,-0.67348,-0.78557,-21.78,5.16,-31.56
-1.3348,-6.9328,1.6344,0.88606,-0.71013,-0.67837,-22.44,4.74,-31.26
-2.6423,-7.2869,1.6208,0.81184,-0.61148,-0.46242,-23.46,4.14,-30.96
-3.6366,-7.5457,1.757,0.56627,-0.16341,-0.040317,-24.84,3.66,-30.42
-4.6582,-6.7421,1.3757,0.30238,0.11057,0.37049,-27.96,1.56,-28.92
-4.1951,-6.2654,0.81722,0.009163,0.33445,0.93004,-29.4,0.42,-28.32
-1.2258,-7.3958,0.35413,-0.26909,0.44043,1.5904,-30.78,-1.5,-27.54
0.53119,-8.0224,0.027241,-0.5003,0.27886,2.2373,-31.26,-2.1,-27.48
1.7025,-8.0632,-0.32689,-0.93371,-0.10812,2.9416,-31.62,-2.34,-27.3
4.5628,-7.7636,0.38137,-1.544,0.04215,3.6212,-31.98,-2.52,-27.12
18.061,-7.75,3.6366,-2.0806,1.2248,4.5201,-32.34,-1.68,-27.0
19.45,-11.795,4.9169,-2.379,2.2568,5.1493,-32.4,-0.9,-27.06
19.518,-9.507,3.9908,-2.0498,2.9254,3.9211,-32.16,0.06,-27.24
19.532,-7.1915,2.6015,-1.7956,0.4722,1.9404,-30.72,2.4,-27.84
19.532,-3.9227,1.8387,-1.784,-0.70005,1.3625,-29.64,3.48,-28.02
19.532,-1.7025,1.4574,-2.2003,-0.71196,0.96547,-28.68,4.2,-28.26
11.768,3.4323,1.0215,-2.7315,-0.18418,0.75839,-27.54,5.88,-28.32
8.0769,5.993,0.95342,-2.8934,0.55772,0.70952,-27.3,6.9,-28.44
6.0611,7.6138,0.64016,-2.6356,1.0653,0.66096,-27.54,7.98,-28.26
4.6718,8.0224,0.72188,-2.1322,0.96914,0.41661,-28.32,10.74,-27.96
3.8001,8.4855,0.43585,-1.6918,0.63683,0.028711,-28.56,12.12,-27.72
2.4517,8.9349,-0.12258,-1.4255,0.42944,-0.20006,-28.8,13.62,-27.48
1.2803,8.9213,-0.77636,-0.58307,-0.15394,-0.89186,-29.1,14.94,-27.06
-0.19068,7.4776,-0.8036,-0.080023,-0.44043,-1.1964,-30.12,16.74,-26.16
-0.40861,6.9736,-0.57205,0.31337,-0.47953,-1.5592,-30.78,17.22,-25.74
0.62654,5.5707,-0.14982,0.66493,-0.45357,-1.617,-31.92,17.46,-25.2
2.2201,4.7944,0.38137,0.98135,-0.343,-1.7419,-34.38,17.76,-24.18
4.7535,4.3585,0.99429,1.325,0.13286,-2.1673,-35.4,17.94,-23.88
6.5105,5.1485,1.4574,1.4413,0.71654,-2.3188,-36.06,17.76,-23.82
13.675,10.583,2.7241,1.6441,1.4221,-1.7773,-35.46,17.46,-24.48
19.15,9.0031,6.4424,2.1619,1.0831,-0.17715,-34.14,17.1,-25.5
19.518,-4.2495,6.6876,2.9086,0.53695,-0.47495,-31.14,16.5,-27.6
19.532,-6.3607,7.1643,2.2385,-1.8286,-2.5543,-30.0,16.08,-28.32
19.532,-5.094,6.4152,2.0284,-1.5849,-2.1866,-29.34,15.3,-28.92
18.51,-5.1894,4.8352,1.8399,-0.7309,-2.5052,-28.26,13.08,-29.88
13.021,-5.0804,3.7184,1.6591,-0.15272,-2.1961,-27.78,11.94,-30.24
10.188,-4.9033,2.8739,1.5281,0.0085521,-1.7599,-27.48,10.8,-30.54
6.1155,-5.0395,2.152,1.4157,-0.18143,-1.4001,-26.88,8.58,-31.02
4.1542,-5.3528,1.9341,1.2831,-0.58765,-0.90164,-26.64,7.56,-31.2
2.7786,-5.5843,1.8251,1.2407,-0.66462,-0.78588,-26.58,6.72,-31.26
-0.64016,-6.0202,1.6889,1.0825,-0.65088,-0.58154,-27.42,5.16,-30.54
-1.8251,-6.0474,1.6072,0.91569,-0.35491,-0.54245,-28.26,4.32,-29.82
-2.7241,-6.2245,1.6344,0.68081,0.029016,-0.46426,-29.52,3.48,-28.92
-3.2825,-5.38,1.2395,0.19273,0.57238,-0.12584,-31.98,0.96,-26.58
-3.0646,-5.2438,0.89894,0.024129,0.68997,0.089186,-32.88,-0.42,-25.92
-1.7706,-5.5435,0.38137,-0.26023,0.75198,0.64171,-33.18,-1.44,-25.44
0.34051,-5.9112,-0.61292,-0.48778,0.34789,1.4099,-33.72,-3.12,-24.9
2.2337,-5.094,-1.7706,-0.62827,-0.24312,1.8127,-33.96,-3.6,-24.78
5.1076,-4.127,-0.84446,-1.0217,-0.89003,2.5027,-34.02,-3.84,-24.48
17.407,-6.1836,-0.081722,-1.4395,-0.7141,4.2712,-34.2,-3.84,-23.94
19.273,-10.256,-0.32689,-1.3974,-0.33598,5.1249,-34.2,-3.42,-23.7
19.477,-11.414,-0.76274,-1.139,0.55711,4.2293,-34.14,-2.76,-23.7
19.532,-10.774,-0.054481,-1.434,0.20097,2.5549,-33.12,-0.72,-24.18
19.532,-8.036,0.095342,-1.981,0.25931,1.861,-32.46,0.54,-24.54
19.532,-3.8409,0.55843,-2.5629,0.90561,1.3955,-31.44,1.56,-24.84
14.315,3.2008,1.0215,-3.0467,1.7352,0.78802,-29.76,3.06,-25.32
12.313,5.0259,0.88532,-2.9902,1.9426,0.68814,-29.28,3.66,-25.38
9.398,7.1098,0.47671,-2.8479,1.9331,0.66096,-29.34,4.2,-25.26
7.6002,7.7091,0.01362,-2.4034,1.2236,0.47953,-30.12,6.18,-24.78
5.5299,8.8532,-0.12258,-2.0479,0.57299,0.23091,-30.72,7.26,-24.48
3.6094,9.793,-0.20431,-1.5913,0.12462,-0.12859,-31.26,8.4,-24.36
0.91256,9.9973,-0.50395,-1.0079,-0.18204,-0.52779,-32.28,10.62,-23.88
0.19068,8.9622,-0.44947,-0.12767,-0.4664,-0.96883,-32.7,11.4,-23.76
-0.24517,8.0632,-0.24517,0.29413,-0.37568,-1.2547,-33.3,11.94,-23.46
0.5993,6.4152,0.027241,0.80726,-0.36713,-1.478,-34.98,12.18,-22.68
1.8115,5.3392,0.21793,1.2394,-0.29047,-1.7266,-35.82,12.0,-22.38
3.4596,4.5764,0.32689,1.5299,0.062308,-2.0495,-36.78,11.94,-22.14
7.9543,7.4503,1.7162,1.6893,0.49236,-2.2755,-37.92,11.82,-22.32
12.898,10.433,2.9284,2.0009,1.1402,-1.4395,-37.56,11.94,-22.86
18.537,9.6432,5.1485,2.3036,0.83933,-0.3656,-36.6,12.12,-23.88
19.504,-2.6151,7.1507,2.4117,0.36408,-0.71135,-33.9,12.48,-26.1
19.532,-4.8488,7.355,1.9688,-0.76541,-2.2028,-32.64,12.36,-27.0
19.532,-3.1463,6.0883,1.8692,-0.55405,-1.9667,-31.62,11.94,-27.9
18.115,-3.1191,4.4402,1.8833,0.23457,-2.1612,-30.12,10.56,-29.46
14.669,-3.4323,3.7047,1.8647,0.45601,-1.7095,-29.52,9.66,-30.12
12.149,-3.8409,3.2416,1.7932,0.064141,-1.3234,-28.8,8.7,-30.78
7.9951,-4.9169,2.7104,1.6924,-0.37141,-1.0186,-27.9,6.78,-31.92
5.4481,-5.1213,2.2201,1.6029,-0.63958,-0.74312,-27.66,5.94,-32.34
3.1463,-5.1894,1.6617,1.5217,-0.75136,-0.5568,-27.54,4.92,-32.46
-0.25879,-5.8976,1.3484,1.4044,-0.7419,-0.46059,-28.26,3.36,-32.52
-1.4574,-6.2245,1.3212,1.0953,-0.43524,-0.38668,-28.98,2.64,-32.1
-2.2882,-6.4833,1.2803,0.95326,-0.31643,-0.36713,-30.0,1.62,-31.44
-2.7377,-6.3062,1.1713,0.38393,-0.016799,-0.24404,-30.96,0.24,-30.6
-2.6968,-5.2166,0.40861,-0.0079412,0.18845,0.13256,-32.58,-2.34,-29.04
-1.6617,-5.3119,-0.040861,-0.32559,0.25381,0.68111,-33.12,-3.48,-28.5
-0.88532,-5.3937,-0.20431,-0.55619,0.075136,1.1139,-33.12,-4.62,-28.26
1.5119,-5.1621,-2.3427,-0.80634,-0.4725,1.7074,-33.66,-6.12,-27.24
2.9011,-5.3392,-2.2065,-0.92882,-0.70524,2.0824,-33.9,-6.48,-26.82
8.7987,-7.3822,-0.64016,-1.3879,-0.83139,3.302,-34.2,-6.78,-26.34
18.279,-14.111,0.96704,-2.0779,-0.3879,5.3243,-34.38,-6.36,-25.86
19.45,-15.35,0.69464,-2.1988,1.2862,5.5115,-34.38,-5.7,-25.74
19.518,-13.116,0.83084,-1.9581,2.1796,4.3017,-34.08,-4.8,-25.68
19.532,-8.5127,2.2474,-2.1374,1.6151,3.1915,-32.7,-2.94,-26.22
19.532,-4.0316,2.9556,-2.492,0.83566,2.5907,-31.92,-2.1,-26.52
19.532,0.27241,2.9148,-2.5653,0.51252,1.9954,-31.56,-1.26,-26.82
14.71,6.3743,1.8387,-2.5522,0.70188,1.4441,-32.1,0.78,-26.94
11.536,7.6819,1.5391,-2.3479,1.0369,0.95203,-32.46,2.4,-26.88
9.0303,8.2267,1.1577,-2.0928,1.1762,0.62858,-33.06,4.26,-26.82
5.8976,9.6432,0.21793,-1.7205,0.87109,0.10629,-33.78,8.58,-26.88
4.4402,10.542,0.10896,-1.5088,0.6524,-0.12004,-33.96,10.68,-26.82
2.8875,10.76,-0.054481,-0.62247,-0.049786,-0.93462,-34.08,12.6,-26.94
0.96704,9.221,-0.50395,-0.061087,-0.31337,-1.3567,-34.98,15.66,-26.82
0.10896,7.7772,-0.42223,0.37507,-0.40073,-1.6912,-35.34,16.8,-26.76
0.027241,6.8374,-0.43585,0.75136,-0.32406,-1.9578,-36.0,17.52,-26.58
1.1305,5.4209,-0.25879,1.0944,-0.30971,-2.2541,-38.34,18.48,-25.86
2.4108,4.7535,0.27241,1.5131,-0.23396,-2.5073,-39.42,18.96,-25.68
4.2087,4.0997,0.81722,1.6536,-0.19151,-2.6716,-40.14,19.32,-25.56
6.6876,4.3313,1.3076,1.8702,0.052534,-3.0271,-40.08,19.32,-25.68
12.054,9.7658,2.1929,2.0583,0.75167,-2.6982,-38.58,17.76,-26.64
18.864,9.6023,4.5764,2.2486,0.98655,-1.4545,-37.5,16.68,-27.36
19.45,1.4029,6.8374,2.4447,0.72052,-0.54886,-36.42,15.54,-28.02
19.532,-5.5162,7.7636,1.8039,-1.0797,-2.5892,-34.98,12.78,-29.16
19.532,-4.5764,6.17,1.5803,-0.59865,-2.4514,-34.62,11.46,-29.46
19.532,-4.2223,5.2575,1.6014,-0.018631,-2.5986,-34.14,9.72,-29.7
12.681,-4.0861,3.2961,1.6866,0.71593,-2.2623,-33.12,6.42,-30.24
9.6023,-4.3858,2.9011,1.7257,0.47189,-1.6674,-32.7,4.68,-30.36
5.2438,-5.7342,2.2337,1.7266,-0.21655,-0.85246,-32.04,2.04,-30.36
3.3778,-6.17,1.6753,1.6197,-0.58613,-0.39095,-31.74,0.78,-30.24
1.975,-6.4016,1.5255,1.4649,-0.76114,-0.079718,-31.44,-0.3,-30.06
-1.7025,-6.7421,1.58,1.2544,-0.70677,0.15302,-31.74,-1.86,-29.28
-2.9011,-6.7966,1.4165,1.0128,-0.42333,0.35339,-32.46,-2.58,-28.62
-3.6366,-6.5786,1.2395,0.75045,0.040012,0.56261,-33.48,-3.3,-27.72
-3.5958,-5.7886,0.62654,0.46212,0.44135,1.0244,-35.16,-5.22,-26.1
-2.8603,-5.7342,0.38137,-0.03543,0.65821,1.4749,-35.52,-5.94,-25.26
-1.2531,-6.2517,-0.1362,-0.19059,0.57269,1.7315,-35.76,-6.54,-25.02
2.547,-7.3822,-0.77636,-0.67592,-0.045815,2.3466,-36.3,-6.9,-24.18
7.069,-7.3005,-0.28603,-1.1713,-0.45693,2.7406,-36.6,-6.78,-24.06
13.784,-7.2324,1.3212,-1.7303,-0.2251,3.47,-36.9,-6.36,-23.88
19.327,-9.3572,2.6151,-1.9624,0.97525,4.2397,-37.08,-4.92,-23.7
19.504,-8.9622,2.1929,-1.5186,2.0992,3.3805,-36.96,-3.96,-23.7
19.532,-6.8919,1.7706,-1.3937,1.7938,2.6591,-36.84,-2.7,-23.88
19.532,-5.2847,0.38137,-1.3641,-0.51557,1.5253,-35.76,-0.3,-24.3
19.532,-2.1248,-0.068102,-1.6304,-0.7981,1.0724,-34.98,0.96,-24.54
12.749,0.92618,0.27241,-2.1881,-0.38637,0.69394,-33.9,3.12,-24.9
8.5536,2.6015,0.23155,-2.6591,0.3485,0.54092,-33.6,4.02,-25.02
5.6661,3.8818,0.49033,-2.8115,1.5675,0.6744,-33.66,4.86,-25.2
3.9771,5.5026,1.5527,-2.8036,1.7538,0.77213,-34.08,6.96,-25.02
3.5958,6.96,1.0488,-2.3476,1.5629,0.91966,-34.62,8.1,-24.96
3.1735,7.6002,0.38137,-1.7795,1.0941,0.84055,-35.04,9.24,-24.66
1.866,8.0224,-1.58,-1.2398,0.68386,0.57238,-35.88,11.58,-24.42
1.6072,8.4174,-1.6889,-0.73304,0.38179,0.15455,-36.42,12.48,-24.3
1.3757,8.6898,-0.65378,-0.13806,-0.033903,-0.36377,-37.14,13.5,-24.06
0.99429,8.1177,0.054481,0.6411,-0.38271,-1.1127,-38.82,14.76,-23.28
1.7706,7.6002,0.53119,1.0296,-0.41142,-1.4954,-39.9,15.24,-23.04
2.4108,7.1098,0.76274,1.3179,-0.27306,-1.9065,-41.1,15.6,-22.8
6.3471,6.7693,1.3212,1.5531,0.012217,-2.317,-42.6,15.9,-22.86
10.161,9.4389,2.2337,1.7572,0.19456,-2.4086,-42.78,15.9,-23.04
16.889,8.5127,4.8488,2.2825,0.21502,-1.4209,-41.1,15.36,-24.36
19.491,-0.28603,6.5514,2.3876,-0.10751,-1.3986,-39.72,15.36,-25.38
19.532,-5.993,7.927,2.3433,-1.3045,-2.7947,-38.4,15.24,-26.16
19.532,-6.4833,7.6546,2.1976,-1.649,-2.908,-37.56,14.94,-26.58
19.532,-6.0066,4.9306,1.8961,-0.63255,-2.9468,-36.3,13.44,-27.18
15.963,-5.3119,3.8682,1.7813,0.04948,-2.733,-35.88,12.42,-27.24
12.585,-5.4754,2.8603,1.6628,0.30177,-2.2309,-35.46,11.04,-27.36
7.4503,-5.8295,2.6696,1.471,-0.20311,-1.5421,-34.62,8.34,-27.6
4.8625,-5.7342,2.2882,1.3274,-0.60903,-1.1744,-34.26,7.14,-27.66
3.0782,-5.7069,1.9068,1.2642,-0.72937,-1.0027,-33.84,5.88,-27.66
-1.185,-6.0338,1.4438,1.0883,-0.77366,-0.58368,-33.48,4.02,-27.36
-2.4789,-6.279,1.3076,0.94715,-0.54672,-0.38485,-33.72,3.18,-27.0
-3.4459,-6.5105,1.185,0.75839,-0.25076,-0.15027,-34.26,2.7,-26.34
-4.2495,-6.3471,0.96704,0.48381,-0.058338,0.1124,-35.52,2.04,-25.5
-4.0316,-6.0066,0.72188,0.11454,0.082772,0.52351,-37.62,-0.12,-23.58
-3.0373,-6.565,0.5993,-0.45662,0.22174,1.4154,-37.98,-1.02,-23.04
-1.9205,-7.0009,0.5993,-0.73731,0.074831,2.0226,-38.16,-1.92,-22.68
0.64016,-6.6467,-0.96704,-0.94348,-0.22877,2.7248,-38.46,-2.7,-22.26
3.8682,-7.2733,0.85808,-1.409,-0.21502,4.3387,-38.58,-2.64,-22.14
17.802,-10.583,3.5004,-2.0238,1.0968,5.1514,-38.46,-1.86,-21.84
19.314,-12.64,3.909,-2.0366,2.3042,5.1667,-38.34,-1.02,-21.84
19.504,-10.733,3.6503,-1.836,3.0192,4.5705,-37.98,0.24,-21.9
19.532,-8.1313,3.2553,-1.4529,2.3534,2.5342,-37.2,1.38,-22.02
19.532,-3.1191,1.8524,-1.3216,0.62889,1.7568,-35.4,3.66,-22.38
19.532,-0.23155,1.3212,-1.3665,-0.34331,1.146,-34.68,4.74,-22.62
13.988,3.2144,0.51757,-1.6289,-0.54642,0.85338,-33.84,5.76,-22.74
9.1256,5.4481,0.19068,-2.0125,0.21411,0.45143,-33.24,7.92,-22.74
6.6195,6.7012,-0.19068,-1.9948,0.78618,0.35705,-33.3,9.12,-22.62
5.38,7.2324,-0.64016,-1.8243,0.95906,0.29749,-33.66,10.44,-22.5
4.5764,7.355,-1.362,-1.5791,0.80359,0.066279,-34.08,12.96,-22.26
3.5277,7.4776,-1.7979,-1.2611,0.60109,-0.28924,-34.26,14.04,-22.08
1.866,7.2869,-1.6344,-0.78679,0.28314,-0.55986,-34.56,15.18,-22.08
1.0079,6.9736,-1.1713,-0.082772,-0.36988,-1.0669,-35.52,16.68,-21.72
0.23155,6.2926,-0.58567,0.12492,-0.46609,-1.332,-36.12,16.92,-21.48
0.24517,5.6388,-0.36775,0.70494,-0.25992,-1.7086,-37.02,17.04,-21.12
3.2553,4.5356,0.47671,1.022,0.033903,-2.0269,-38.4,17.16,-20.82
5.3119,4.4539,0.57205,1.2999,0.30513,-2.4337,-38.7,17.1,-20.88
10.392,7.6955,1.9886,1.6927,0.60445,-2.4862,-38.58,16.98,-21.54
16.998,9.0712,2.4653,1.847,0.63591,-2.2226,-37.68,17.04,-22.26
19.218,5.6116,3.3506,2.0882,-0.10721,-1.3176,-36.72,17.1,-23.22
19.518,-6.1155,6.5105,2.0788,-1.5669,-1.4673,-34.68,17.1,-24.6
19.532,-6.0611,6.279,1.7174,-3.0442,-2.5152,-34.08,16.86,-25.08
19.532,-5.0531,4.9442,1.3998,-2.1845,-2.693,-33.6,16.26,-25.44
13.797,-3.2553,2.6696,1.2333,0.16616,-2.5079,-33.12,14.7,-25.92
11.822,-3.228,2.2882,1.2269,0.80084,-2.0226,-32.88,13.68,-26.04
10.569,-3.5958,2.1929,1.1793,0.50366,-1.6429,-32.76,12.9,-26.34
6.5105,-4.0861,2.0567,1.1069,-0.20739,-1.2688,-33.06,11.1,-26.64
3.8273,-4.4811,1.8932,1.0464,-0.69242,-0.97983,-33.54,10.02,-26.76
1.2395,-4.9442,1.8387,0.98563,-0.87842,-0.76328,-34.08,9.24,-26.58
-2.8603,-5.9249,2.0567,0.88484,-0.64538,-0.51282,-35.64,7.5,-25.92
-3.6775,-6.0611,2.0431,0.64232,0.072082,-0.29566,-36.9,6.24,-25.32
-4.2495,-6.0066,2.0839,0.39767,0.34422,0.036346,-38.16,4.98,-24.6
-4.2495,-6.0066,2.0839,0.11209,0.3372,0.48503,-38.16,4.98,-24.6
-4.2495,-6.0066,2.0839,-0.14752,0.17776,1.058,-38.16,4.98,-24.6
-0.89894,-6.2517,0.36775,-0.31276,0.025351,1.6735,-39.9,2.22,-23.52
1.1305,-6.1836,-0.85808,-0.56566,-0.46059,2.4716,-40.86,0.54,-22.86
5.0395,-5.4345,-0.31327,-1.1231,-0.74495,3.266,-40.8,-0.06,-22.74
10.678,-4.5492,0.96704,-1.6472,0.000611,4.3167,-41.1,-0.18,-22.74
19.3,-9.2891,0.21793,-1.9517,1.4218,4.9556,-40.38,0.6,-22.32
19.477,-8.8124,-0.10896,-1.9432,3.1802,4.0839,-39.9,1.32,-22.32
19.532,-8.431,0.58567,-2.0027,3.6478,2.967,-38.46,3.3,-22.68
19.532,-4.4675,0.50395,-2.1182,1.7798,2.3341,-36.48,5.76,-23.46
19.532,0.027241,-0.01362,-2.2333,0.030849,1.6448,-34.38,7.92,-23.76
18.224,1.4438,-0.095342,-2.4392,-0.37538,1.0214,-33.48,9.06,-23.94
10.651,4.4811,-0.72188,-2.4984,0.11973,0.83353,-32.16,11.4,-24.3
9.0303,4.8352,-0.70826,-2.4685,0.67226,0.66523,-32.04,11.94,-24.54
6.9328,5.3119,-0.31327,-2.3338,0.97525,0.40745,-32.1,13.02,-24.54
5.7342,5.8976,-0.19068,-2.058,0.9838,0.060781,-33.18,13.92,-24.3
3.9908,6.7966,0.054481,-1.6402,0.64019,-0.30971,-34.74,14.34,-23.64
2.0975,6.9872,0.19068,-0.84483,-0.069639,-0.967,-37.02,14.64,-22.74
0.42223,6.456,0.21793,-0.30482,-0.40806,-1.3613,-39.42,15.12,-21.96
-0.28603,6.0474,0.50395,0.16585,-0.56169,-1.6762,-40.5,15.48,-21.66
-0.57205,5.775,0.8036,0.55955,-0.48381,-1.8546,-41.46,15.78,-21.3
0.43585,4.8352,1.3484,0.9053,-0.19242,-1.9878,-42.42,16.32,-21.06
1.4165,4.6718,1.5255,1.2266,0.38668,-2.2959,-42.48,16.5,-21.06
5.884,6.6467,2.2337,1.5348,0.5791,-2.4151,-42.42,16.56,-21.3
10.515,10.665,2.6696,2.0033,0.96883,-2.0363,-41.34,16.08,-21.96
17.625,12.762,3.8137,2.3167,1.1304,-1.1402,-40.44,15.96,-22.56
19.3,7.6683,5.9112,2.4407,0.88484,-0.76236,-39.42,15.84,-23.4
19.532,-1.6344,7.6819,2.6994,-0.13653,-1.9349,-37.8,15.84,-24.96
19.532,-3.1463,6.96,2.5479,-1.5831,-2.7614,-37.26,15.36,-25.32
19.477,-4.9714,4.9033,2.2999,-1.6283,-2.8674,-37.08,14.76,-25.68
13.443,-4.9306,3.7592,2.0052,-1.2028,-2.7474,-36.84,13.02,-26.04
9.0848,-4.7671,3.051,1.6884,-0.71654,-2.2788,-36.84,11.94,-26.1
6.851,-4.8352,2.7377,1.4563,-0.33689,-1.6154,-36.9,10.62,-26.4
1.7706,-5.0531,2.1112,1.3934,-0.18418,-1.2263,-37.26,8.28,-26.34
0.14982,-5.4618,1.757,1.383,-0.11118,-0.63927,-37.5,7.08,-26.16
-2.1656,-6.0611,1.6072,1.3613,-0.20678,-0.30391,-38.34,5.04,-25.14
-3.337,-6.17,1.4301,1.2663,-0.24771,-0.039706,-39.0,3.9,-24.72
-4.0589,-6.2245,1.2803,1.091,-0.095906,0.23549,-39.72,2.64,-23.94
-4.7399,-5.5707,0.8036,0.81948,0.19395,0.57818,-41.1,-0.18,-22.08
-3.9499,-5.3119,0.36775,0.49419,0.43158,1.0846,-41.58,-1.5,-21.24
-2.3563,-6.4697,-0.50395,0.1909,0.53298,1.7196,-41.88,-2.52,-20.7
1.1713,-6.96,-1.2395,-0.208,0.32681,2.496,-41.82,-3.78,-19.98
4.3449,-6.7148,-1.7706,-0.68447,0.12431,2.8967,-41.7,-4.02,-19.8
10.569,-6.5922,-0.81722,-1.0247,0.16707,3.251,-41.52,-4.02,-19.68
17.706,-7.0281,0.47671,-1.7932,1.1777,4.6972,-41.4,-3.72,-19.38
19.504,-9.7385,0.6674,-1.788,1.9847,4.5253,-40.68,-2.28,-19.62
19.532,-7.8045,0.61292,-1.6722,1.704,2.5424,-40.14,-1.38,-19.8
19.532,-6.1564,0.25879,-1.7159,1.2257,2.1469,-38.7,1.14,-20.64
19.532,-1.9477,0.25879,-1.8515,0.047342,1.6506,-37.86,2.34,-20.88
17.475,0.61292,0.27241,-2.153,-0.48839,1.3274,-37.08,3.3,-21.24
13.375,2.8058,0.55843,-2.5552,-0.16952,1.0562,-36.36,4.14,-21.42
7.7227,5.5162,0.47671,-2.5262,0.37843,0.88514,-35.82,6.42,-21.84
5.4618,6.2517,0.19068,-2.3717,0.84666,0.81428,-36.0,7.68,-21.9
4.5764,6.5786,-0.19068,-2.1521,0.98441,0.71166,-36.42,10.26,-21.66
3.8409,6.1564,-0.61292,-1.8189,0.80237,0.4383,-36.78,11.4,-21.54
2.8467,6.2109,-0.6674,-1.4621,0.45265,0.075747,-37.08,12.6,-21.3
2.2201,6.1428,-0.81722,-0.83505,-0.082467,-0.48655,-37.26,13.68,-21.18
0.27241,5.8567,-0.81722,-0.42577,-0.30543,-0.87445,-38.04,15.12,-20.46
-0.12258,5.8704,-0.44947,-0.070555,-0.30849,-1.1952,-38.52,15.84,-19.98
-0.16344,6.1292,-0.17706,0.26878,-0.16341,-1.3894,-39.36,16.14,-19.44
2.1929,5.3937,0.23155,0.79718,0.043066,-1.6631,-40.98,16.56,-18.54
3.8954,5.8976,0.96704,1.0431,0.3317,-1.7434,-41.82,16.86,-18.06
6.7421,8.4174,1.7843,1.2733,0.87109,-1.4007,-42.3,16.86,-18.06
17.979,11.387,3.5822,1.6503,1.2972,-0.72388,-41.58,16.5,-19.14
19.341,4.985,5.8431,1.9212,1.0467,0.12156,-40.44,16.2,-20.16
19.518,-3.6775,7.5048,2.2058,-0.047647,-0.96578,-37.92,16.14,-22.5
19.532,-3.514,6.4833,2.222,-1.3375,-2.0192,-36.84,15.96,-23.22
19.532,-4.6718,5.3528,2.295,-1.0614,-2.3179,-36.12,15.48,-23.94
18.919,-4.9169,4.5901,2.3274,-0.54245,-2.3589,-35.58,15.0,-24.48
11.223,-5.3392,2.8194,2.2541,-0.44593,-2.0085,-34.8,13.56,-25.44
8.7306,-6.1564,2.4789,2.0632,-0.61972,-1.6738,-34.56,12.66,-25.92
6.5786,-7.1915,2.1248,1.7822,-0.83841,-1.3744,-34.38,11.64,-26.22
1.7434,-7.1234,1.7298,1.3045,-0.86071,-1.0947,-34.02,9.78,-26.64
-0.38137,-6.8919,1.471,1.0183,-0.58124,-0.93798,-33.84,8.94,-26.94
-1.9205,-6.6876,1.3076,0.905,-0.35583,-0.86896,-33.96,8.22,-26.76
-2.9965,-6.279,1.1441,0.5904,0.32559,-0.66065,-34.98,6.96,-25.68
-3.4051,-5.8295,0.96704,0.37874,0.61728,-0.45601,-35.94,6.12,-24.78
-2.6832,-5.0259,0.1362,0.058948,0.64171,0.15394,-37.62,3.6,-22.86
-1.4846,-5.5707,-0.14982,-0.14203,0.38698,0.74495,-37.98,2.52,-22.26
-0.28603,-6.2381,-0.70826,-0.21044,0.17959,1.0342,-38.34,1.62,-21.9
1.9613,-6.7557,-1.9886,-0.42425,-0.69394,1.8738,-38.46,0.12,-21.54
4.5764,-7.0826,-1.0624,-0.77061,-1.058,2.7791,-38.52,-0.36,-21.3
12.572,-7.7636,0.99429,-1.2892,-0.69822,3.9407,-38.46,-0.6,-21.0
19.273,-11.455,0.99429,-1.6585,0.83505,4.8973,-38.1,-0.24,-21.06
19.518,-10.733,-0.36775,-1.3793,1.7452,4.0769,-37.92,0.42,-21.18
19.532,-10.637,-0.57205,-1.2642,1.6985,3.2675,-37.38,1.38,-21.42
19.532,-7.8862,-0.50395,-1.3806,0.68997,3.0,-35.46,3.54,-22.38
19.532,-4.3449,-0.8036,-1.7266,-0.42333,2.397,-34.26,4.32,-22.98
18.401,-1.4165,-0.92618,-2.2083,-0.79229,1.8155,-33.12,5.22,-23.4
14.152,1.0351,-0.89894,-2.6817,-0.4664,1.5339,-32.04,6.0,-23.76
7.0962,5.3528,0.081722,-2.7382,0.63561,1.3176,-32.22,6.66,-23.46
5.884,6.3743,0.21793,-2.605,1.0122,1.2022,-32.46,7.56,-22.98
4.4539,7.641,0.32689,-2.3564,1.6793,0.83902,-33.0,8.7,-22.32
3.7728,9.6432,0.28603,-1.8161,1.9743,-0.025045,-33.78,11.34,-21.24
3.6639,10.011,0.10896,-1.2651,1.6799,-0.64202,-34.2,12.6,-20.82
3.5822,9.5751,-0.19068,-0.62919,1.1112,-1.1842,-34.68,13.56,-20.28
3.228,7.641,-0.32689,0.15882,0.32681,-1.8506,-35.52,14.58,-19.5
3.5413,6.7693,-0.068102,0.59407,0.018937,-2.1851,-36.24,14.58,-19.08
4.2495,5.5843,0.24517,0.79168,-0.022907,-2.3647,-36.96,14.46,-18.78
4.9578,4.5628,0.7355,1.3561,-0.011301,-2.9569,-37.86,14.22,-18.36
8.0632,6.17,1.8387,1.6112,0.3094,-3.0412,-39.06,13.62,-18.12
12.027,8.9758,2.2882,1.8634,0.90713,-2.4697,-39.0,13.86,-18.48
19.273,2.9148,4.8761,2.3558,1.073,-1.4025,-37.26,14.52,-20.46
19.504,-5.0259,6.5378,2.4303,1.066,-0.82253,-36.12,14.76,-21.72
19.532,-7.1098,7.2188,2.4096,-0.42608,-1.6777,-34.98,14.64,-23.1
19.532,-5.1485,6.851,2.3372,-0.93035,-1.5641,-34.02,14.16,-24.06
18.578,-4.6582,4.9306,2.2794,-0.48381,-1.6768,-32.52,12.36,-26.1
13.457,-4.2087,3.8273,2.2156,-0.22571,-1.4392,-31.8,11.52,-27.0
8.5263,-4.3994,3.0782,1.9526,-0.34178,-0.99632,-30.78,9.72,-28.2
5.6116,-5.1621,2.6832,1.839,-0.44318,-0.8543,-30.54,8.94,-28.8
3.5685,-5.4345,2.2882,1.5809,-0.6466,-0.62614,-30.3,8.34,-28.86
2.1248,-5.4073,1.9613,1.244,-0.80451,-0.48869,-30.24,7.68,-28.92
-1.5527,-5.4345,1.1577,1.0452,-0.67867,-0.44685,-31.02,7.02,-28.62
-2.6832,-5.7069,1.1032,0.83047,-0.35613,-0.41325,-31.74,6.6,-28.26
-3.5277,-5.6797,0.81722,0.56505,0.057727,-0.34514,-32.7,6.06,-27.42
-3.0918,-5.3528,0.38137,0.084605,0.61178,-0.019548,-34.26,4.14,-26.04
-1.9205,-5.6933,-0.027241,-0.25045,0.71502,0.44074,-34.8,3.18,-25.44
-0.32689,-6.851,-0.35413,-0.57605,0.50152,0.91783,-35.28,2.34,-25.14
2.2201,-7.4231,-1.2939,-0.90378,-0.0024435,1.3305,-35.76,1.44,-24.84
4.0316,-7.0145,-0.23155,-1.398,-0.32987,1.9865,-35.94,1.26,-24.54
10.869,-7.5729,2.1929,-2.0125,0.073609,3.0519,-35.94,1.38,-24.42
19.273,-10.515,2.6015,-2.3366,0.81612,4.0201,-35.76,2.04,-24.3
19.504,-10.093,1.8387,-2.1151,1.7779,4.0974,-35.64,2.52,-24.6
19.532,-9.4253,1.5119,-1.8967,1.9432,3.4172,-35.28,3.36,-24.96
19.532,-9.2482,1.9341,-2.1148,1.5385,2.9532,-34.56,4.38,-25.38
19.532,-4.7126,2.9965,-2.8567,0.8039,2.3876,-32.28,6.36,-26.22
18.701,0.21793,3.9635,-3.6896,0.66676,1.5317,-31.02,7.08,-26.88
13.116,5.5162,4.4266,-3.6847,0.75747,1.3305,-29.76,8.46,-27.54
10.188,7.6002,3.732,-2.9639,1.3659,0.71624,-29.58,9.12,-27.66
7.8589,8.4719,2.4517,-2.6224,1.5452,0.49114,-29.7,9.9,-27.54
5.6524,8.7306,0.40861,-1.7517,1.6121,-0.14722,-30.42,11.76,-27.0
4.5356,9.1529,-0.21793,-1.273,1.2843,-0.67104,-30.9,12.72,-26.76
2.7377,9.4798,-0.27241,-0.63102,0.5507,-1.3271,-31.92,14.34,-26.52
2.152,8.3765,-0.054481,0.43341,-0.58551,-1.6658,-32.34,14.82,-26.28
1.7025,7.7364,0.61292,0.64232,-0.73548,-1.8711,-32.88,15.06,-26.04
1.4438,5.993,1.3212,1.1365,-0.75686,-2.2263,-33.36,14.94,-25.8
3.2553,4.1814,1.7162,1.7767,-0.31093,-2.5388,-34.44,14.1,-25.44
5.598,3.8682,1.9341,2.0033,0.25504,-2.8112,-34.92,13.86,-25.44
8.9349,5.7205,2.833,2.1411,0.85491,-2.8026,-35.34,13.68,-25.5
18.742,9.7249,8.8941,2.4419,1.9444,-1.3888,-34.08,14.52,-26.52
19.436,3.6503,12.463,2.864,1.9083,-0.36041,-33.0,15.24,-27.36
19.518,-5.3392,12.926,2.7862,1.3882,-0.83627,-31.74,15.9,-28.32
19.532,-6.3335,12.286,2.6805,-0.91966,-1.7633,-30.6,16.08,-29.22
18.483,-3.4187,7.9951,2.7278,-0.46334,-1.7587,-28.8,15.48,-30.9
14.846,-3.3506,6.3062,2.802,-0.25259,-1.394,-27.78,14.88,-31.68
8.5944,-4.3449,4.2904,2.8976,-0.41386,-1.0568,-26.52,13.26,-32.94
5.8976,-5.2847,3.4732,2.8992,-0.56077,-0.88148,-26.04,12.54,-33.48
3.3506,-6.4152,2.6423,2.6695,-1.1542,-0.42974,-25.68,11.82,-33.72
1.0079,-7.2052,1.9886,2.3152,-1.4963,-0.23885,-25.74,11.04,-33.84
-2.9692,-7.3277,1.4438,1.8137,-1.6188,-0.083078,-26.64,9.72,-33.9
-4.699,-6.8647,1.2531,1.2813,-1.3164,0.11973,-27.48,9.06,-33.66
-5.8023,-6.3743,0.96704,0.55925,-0.28619,0.52687,-28.68,8.04,-33.12
-5.6661,-5.7069,0.38137,0.32529,0.078496,0.66004,-31.2,5.4,-31.62
-4.413,-5.203,-0.027241,-0.32315,0.87781,1.2364,-32.28,3.96,-31.02
-3.2553,-5.203,0.01362,-0.66035,0.95661,1.7065,-32.94,2.82,-30.42
1.471,-7.1234,0.081722,-0.9334,0.72174,2.1585,-33.72,1.5,-29.64
4.522,-7.8045,0.027241,-1.2541,0.25565,2.3677,-34.08,1.26,-29.28
14.41,-7.8045,2.2337,-1.8302,-0.24129,2.4884,-34.14,1.14,-29.1
18.251,-7.5184,3.8137,-2.7358,0.40836,2.9633,-34.08,1.44,-28.8
19.504,-11.06,6.0202,-2.7645,1.0763,3.3625,-33.84,2.58,-28.56
19.532,-8.1586,4.9714,-2.2364,1.8341,2.1732,-33.36,3.42,-28.62
19.532,-5.775,2.6151,-1.9902,1.3894,0.89034,-32.7,4.2,-28.74
19.477,-1.7434,1.185,-1.9166,0.23274,0.40806,-30.78,6.0,-28.74
17.121,0.17706,1.1986,-2.1728,-0.049786,0.29077,-29.7,6.84,-28.74
12.068,4.9987,2.0431,-3.0241,0.39492,0.2248,-28.08,8.22,-28.92
7.355,6.8919,2.152,-3.003,0.75686,0.19426,-27.6,8.88,-28.86
5.6797,8.0632,1.6344,-2.8512,0.85124,0.15394,-27.36,9.6,-28.86
4.4539,8.4038,1.1441,-2.2877,0.83566,-0.15363,-27.36,10.26,-28.86
2.5198,8.4719,0.01362,-1.7871,0.52595,-0.35369,-27.84,11.58,-28.68
0.92618,8.6762,-0.89894,-0.94562,-0.083689,-0.71532,-28.14,12.24,-28.38
-0.24517,7.8589,-0.7355,-0.61789,-0.32987,-0.83658,-28.86,12.96,-27.84
-0.96704,7.5593,-0.28603,0.20006,-0.70372,-1.2538,-29.28,13.14,-27.54
-1.757,7.0417,0.20431,0.46426,-0.67409,-1.379,-29.94,13.14,-27.12
-0.96704,5.5299,0.54481,1.1063,-0.23488,-1.3854,-31.5,13.2,-26.7
1.1441,4.9987,0.98067,1.4633,0.081856,-1.4566,-32.16,13.2,-26.52
4.6718,5.2847,2.1929,1.9325,0.61636,-1.6163,-33.0,12.84,-26.34
10.27,9.8203,4.0861,2.1432,1.1054,-1.4181,-32.88,12.72,-26.52
17.584,12.749,6.2926,2.4508,1.4789,-0.47892,-32.1,12.84,-26.88
19.055,10.61,8.8941,2.6588,1.2773,0.19945,-31.08,13.14,-27.48
19.532,-4.8625,11.686,2.8503,-0.055589,-0.44135,-28.92,13.8,-28.44
19.532,-5.1213,11.223,2.6447,-1.16,-1.3241,-28.14,13.74,-28.68
19.532,-5.2166,6.9872,2.3876,-0.54856,-1.4676,-27.48,13.5,-28.86
16.181,-3.6911,5.2983,2.3164,-0.011301,-1.6942,-26.58,12.48,-29.52
12.313,-3.514,4.3313,2.1878,-0.1912,-1.2993,-26.28,11.88,-29.7
9.1937,-3.9227,3.7047,2.0189,-0.46976,-1.0427,-25.98,11.16,-30.06
5.1485,-4.985,2.9556,1.803,-0.8094,-0.77763,-25.74,9.6,-30.42
2.833,-5.6524,2.3836,1.5348,-0.95356,-0.63072,-25.92,8.82,-30.42
-0.027241,-6.2926,1.7706,1.2947,-0.89675,-0.5568,-26.22,8.16,-30.42
-3.2825,-6.5105,1.1169,0.96242,-0.51954,-0.50641,-27.48,6.9,-30.0
-4.2495,-6.2245,0.85808,0.83902,-0.33292,-0.46273,-28.62,6.0,-29.46
-4.6037,-5.884,0.8036,0.52931,0.030543,-0.29474,-29.94,4.8,-28.8
-3.732,-5.7342,0.70826,-0.051924,0.22785,0.36163,-31.8,2.04,-27.54
-2.7649,-6.0474,0.44947,-0.39951,0.18845,0.97341,-32.34,0.96,-27.18
-1.6753,-5.8704,0.027241,-0.66401,-0.15394,1.8292,-33.06,-0.66,-26.58
1.8251,-5.6524,-0.69464,-0.87751,-0.31643,2.3005,-33.3,-1.08,-26.34
4.304,-5.38,0.54481,-1.1432,-0.29596,2.6169,-33.3,-1.26,-26.16
18.279,-7.7636,5.0259,-2.1032,1.2727,3.7666,-33.3,-0.9,-25.74
19.382,-11.128,6.4016,-2.4645,2.1493,4.0222,-33.3,-0.3,-25.62
19.504,-8.5127,5.7886,-2.1017,2.8781,2.7691,-32.94,0.42,-25.62
19.532,-4.6037,2.6968,-1.7465,1.6704,1.5168,-31.68,2.16,-25.92
19.532,-3.4459,2.0431,-1.602,-0.21502,1.0104,-30.72,2.82,-25.98
19.532,-0.88532,1.5527,-1.6429,-0.87506,0.71319,-29.7,3.54,-26.22
12.435,2.9284,0.6674,-2.478,-0.32987,0.47281,-28.2,4.68,-26.28
8.7987,5.0804,0.14982,-2.9123,0.28039,0.31215,-27.78,5.4,-26.28
7.1915,6.1564,0.14982,-2.8219,0.75045,0.32987,-27.66,5.82,-26.34
5.1894,7.6002,0.34051,-2.5528,0.8436,0.30757,-27.9,7.44,-26.34
4.2904,7.6274,0.19068,-1.8897,0.63255,-0.058338,-28.2,8.16,-26.22
2.0839,7.5184,-0.43585,-1.6298,0.57208,-0.19426,-29.16,9.48,-26.04
1.1713,7.4095,-0.54481,-0.79474,0.33323,-0.57269,-29.46,9.9,-25.92
0.8717,7.069,-0.6674,-0.029016,-0.064141,-0.79321,-29.88,10.08,-25.74
0.61292,6.7829,-1.2258,0.22571,-0.13073,-0.95845,-30.6,10.26,-25.56
1.5527,5.8976,-0.23155,0.79718,0.053756,-1.3589,-32.1,10.02,-25.32
2.438,5.3528,0.20431,1.3033,0.061087,-1.4994,-32.88,9.9,-25.14
3.8001,4.7671,1.5119,1.7236,-0.029016,-1.8338,-33.54,9.84,-24.96
7.6955,7.0962,2.6696,1.9957,0.20433,-2.0803,-33.78,9.84,-25.26
12.898,10.447,3.732,2.1115,0.7086,-1.573,-33.36,9.96,-25.5
17.38,11.468,5.1757,2.3738,0.39034,-0.6295,-32.52,10.26,-25.92
19.518,-2.3427,9.112,2.171,0.050702,-0.43646,-30.66,10.68,-26.94
19.532,-3.1735,9.3027,1.9994,-1.16,-1.8662,-29.82,10.56,-27.36
19.532,-2.7649,7.8317,1.6426,-1.5088,-2.0638,-29.22,10.02,-27.66
17.257,-3.0237,5.2983,1.4108,-0.68661,-2.2791,-28.26,8.82,-28.02
13.116,-3.0918,4.4402,1.2028,0.11881,-1.9749,-27.9,8.16,-28.02
10.12,-3.3506,3.9227,1.0394,0.12065,-1.5143,-27.48,7.2,-28.2
6.3743,-4.5764,3.2144,0.91019,-0.20983,-1.0437,-27.06,5.82,-28.32
3.4596,-5.1757,2.5061,0.86682,-0.54367,-0.35949,-27.18,5.04,-28.32
-0.17706,-5.9249,1.7979,0.89156,-0.80787,-0.025351,-27.78,3.66,-27.84
-1.9613,-6.3743,1.6208,0.89767,-0.79199,0.11148,-28.44,3.12,-27.48
-3.1872,-6.4969,1.5119,0.87904,-0.60689,0.3543,-29.28,2.52,-27.06
-4.0589,-6.1292,1.0351,0.71288,-0.13714,0.72082,-31.2,0.66,-25.92
-3.8137,-6.0202,0.70826,0.42486,0.018326,1.0507,-32.16,-0.42,-25.26
-3.051,-6.1292,0.25879,0.059559,0.096211,1.4957,-32.76,-1.2,-24.72
-0.20431,-6.96,-0.19068,-0.43768,0.11973,2.2547,-33.36,-1.86,-23.88
1.9613,-6.9872,-0.5993,-0.72388,0.019548,2.562,-33.48,-2.1,-23.7
4.1406,-6.8919,-0.61292,-0.93859,-0.072082,2.6762,-33.72,-2.04,-23.52
11.809,-6.4969,1.4438,-1.9737,0.3711,3.3876,-33.96,-1.68,-23.28
19.218,-8.2812,4.6037,-2.489,1.2544,3.9764,-34.02,-0.54,-22.8
19.504,-8.2948,4.413,-2.3821,2.3051,3.74,-34.02,0.54,-22.62
19.532,-5.6797,2.3155,-1.9456,2.4334,2.3286,-33.0,2.58,-22.98
19.532,-4.7944,1.2395,-1.6157,0.20067,1.0574,-32.22,3.48,-23.16
19.532,-2.6696,0.64016,-1.5989,-0.42272,0.88423,-31.44,4.2,-23.28
18.101,-0.62654,0.5993,-2.1264,-0.75075,0.57055,-30.72,4.98,-23.28
9.8475,3.2008,0.50395,-2.6365,-0.21991,0.38943,-30.0,6.36,-23.1
7.0962,5.1349,0.58567,-2.8158,0.50274,0.33323,-29.94,7.08,-23.1
5.6116,6.7012,0.47671,-2.657,0.87873,0.27764,-30.12,7.92,-22.86
3.8954,7.8862,0.19068,-2.2782,0.84238,0.087965,-30.72,9.78,-22.44
3.0101,7.9951,-0.12258,-1.616,0.31979,-0.30116,-31.08,10.68,-22.26
1.8932,8.3765,-0.36775,-1.12,-0.0048869,-0.62675,-31.56,11.4,-22.08
0.38137,7.6819,-0.72188,-0.51343,-0.3091,-0.86437,-32.58,12.42,-21.48
-0.01362,6.8783,-0.61292,-0.07025,-0.4496,-1.1506,-33.18,12.66,-21.24
-0.16344,5.5571,-0.10896,0.39095,-0.33689,-1.4007,-35.04,12.66,-20.34
1.0896,4.9714,0.31327,0.78252,-0.12523,-1.4276,-36.18,12.54,-20.04
1.0896,4.9714,0.31327,1.3384,0.24221,-1.8039,-36.18,12.54,-20.04
7.3414,4.6445,1.4574,1.5873,0.66218,-2.2028,-37.32,12.24,-19.86
10.869,7.4367,2.2746,1.7761,0.98044,-2.2553,-37.08,12.12,-20.16
17.924,11.863,4.3449,2.1334,1.3189,-1.6558,-35.64,12.24,-21.06
19.477,5.3119,6.4969,2.6399,0.8659,-1.0821,-33.24,12.06,-22.44
19.532,-0.91256,7.8045,2.5439,0.2022,-2.1704,-32.1,11.82,-22.86
19.532,-0.91256,7.8045,2.5439,0.2022,-2.1704,-32.1,11.82,-22.86
19.504,-2.9556,5.3256,2.0925,-0.79351,-2.4517,-28.98,9.42,-24.42
14.206,-3.4596,3.8001,1.9163,-0.26603,-2.4645,-27.6,7.74,-25.14
10.147,-4.0316,3.1735,1.6793,-0.016493,-2.0638,-26.52,6.24,-25.44
6.7285,-5.2302,2.8603,1.42,-0.045509,-1.5974,-26.28,4.98,-25.44
3.4459,-5.9657,2.1793,1.0977,-0.38087,-0.9166,-27.06,3.36,-24.66
1.9068,-6.1428,1.866,0.95387,-0.52626,-0.53939,-27.66,2.34,-24.18
-0.83084,-6.3062,1.5391,0.85979,-0.6127,-0.20617,-28.86,0.12,-23.22
-2.6423,-6.4288,1.58,0.74892,-0.4331,0.069944,-29.52,-2.04,-22.44
-4.0452,-6.8374,1.6617,0.59284,-0.073609,0.37935,-29.34,-3.6,-21.72
-4.4811,-5.9657,1.2531,0.35552,0.27306,0.73304,-28.98,-4.56,-21.3
-3.0646,-5.6797,0.77636,-0.065973,0.60292,1.5379,-28.5,-5.16,-21.06
-1.4165,-6.3062,0.49033,-0.28283,0.48564,2.1622,-28.44,-5.22,-20.82
0.24517,-6.7421,-0.027241,-0.35003,0.35583,2.4261,-28.2,-5.16,-20.82
3.9908,-6.6331,-0.57205,-0.56658,-0.054978,3.0446,-28.02,-4.92,-20.7
11.264,-6.4697,1.5119,-1.0821,-0.025962,3.5821,-27.84,-4.5,-20.58
17.965,-6.8919,3.2553,-1.6506,0.86224,4.2168,-27.48,-3.9,-20.46
19.504,-9.0575,3.4459,-1.978,1.5873,4.5103,-26.88,-2.52,-20.46
19.532,-6.565,2.6423,-1.7071,2.1515,3.3915,-26.16,-1.68,-20.52
19.532,-5.6661,1.8932,-1.4905,1.3586,2.0803,-25.26,-0.84,-20.76
19.532,-3.7456,0.64016,-1.5101,-0.67134,1.1014,-24.36,-0.18,-20.94
17.884,-1.4301,0.54481,-2.0644,-0.7422,0.77733,-22.74,0.84,-21.18
11.863,3.2144,0.70826,-2.7083,-0.28008,0.52198,-22.56,1.32,-21.3
6.9872,6.7966,0.9398,-2.8585,0.71441,0.37751,-22.5,2.22,-21.3
5.3937,8.036,0.99429,-2.7361,0.88698,0.31398,-22.74,2.94,-21.36
4.7126,8.1586,0.72188,-2.3506,0.90316,0.096822,-22.92,3.54,-21.3
4.0997,8.0224,0.44947,-1.6771,0.54092,-0.36927,-23.34,4.2,-21.36
0.91256,7.8453,-0.68102,-1.1533,0.34789,-0.70769,-23.76,5.52,-21.42
0.35413,7.7364,-0.83084,-0.57879,0.13653,-0.97616,-24.06,5.88,-21.66
0.12258,6.9872,-0.78998,0.15302,-0.22755,-1.4358,-24.48,6.24,-21.78
0.25879,5.9385,-0.20431,0.58918,-0.12828,-1.6509,-25.32,6.42,-21.78
1.2531,5.4618,0.17706,1.0223,0.020464,-1.7871,-25.8,6.3,-21.72
2.9284,4.9033,0.65378,1.3659,0.22969,-2.0608,-26.28,6.18,-21.84
6.7285,4.8352,1.3757,1.6832,0.58154,-2.4425,-26.34,6.42,-22.5
10.692,8.1722,2.3836,1.9703,0.93523,-2.6157,-25.62,6.54,-22.92
18.51,12.449,4.8625,2.2394,1.2315,-2.0177,-23.4,7.02,-23.94
19.409,6.8374,6.674,2.5543,0.32712,-0.62889,-22.02,7.02,-24.6
19.518,-1.2122,7.7091,2.485,-0.59468,-1.6823,-20.94,7.14,-25.26
19.532,-3.8954,8.2403,2.3091,-1.3803,-2.2144,-19.62,7.08,-25.62
19.45,-4.1406,5.7205,1.7355,-1.2098,-2.3314,-17.94,6.24,-26.52
15.377,-3.7047,4.5356,1.4865,-0.24282,-2.3014,-17.16,5.7,-26.7
9.1801,-3.2689,3.2416,1.2953,0.22663,-1.8127,-16.38,5.16,-26.76
7.0553,-3.732,2.9556,1.088,-0.0058032,-1.1365,-15.18,3.9,-27.06
4.7535,-4.2359,2.6287,1.0171,-0.33323,-0.72143,-14.94,3.42,-27.18
2.5742,-4.413,2.2065,1.0085,-0.50121,-0.32315,-14.76,2.88,-27.24
-0.42223,-4.9169,1.7706,1.025,-0.51588,-0.011606,-14.94,1.98,-26.82
-2.2474,-5.775,1.7706,1.0064,-0.36346,0.21044,-15.36,1.44,-26.58
-3.5822,-6.0338,1.471,0.90225,-0.19823,0.39004,-15.96,0.96,-26.4
-3.5004,-5.6388,1.0079,0.56261,0.14233,0.71685,-17.22,-0.54,-25.56
-2.547,-5.8976,0.65378,0.24984,0.26634,1.1655,-17.64,-1.32,-25.02
-1.6617,-6.3607,0.40861,0.083994,0.26145,1.427,-17.94,-2.04,-24.9
0.47671,-7.4776,-0.12258,-0.41233,-0.018937,2.2141,-18.12,-2.4,-24.78
4.2904,-8.1177,-0.61292,-0.87751,-0.1912,2.5348,-18.24,-2.7,-24.6
10.202,-6.9872,0.77636,-1.5281,-0.061697,3.5299,-18.18,-2.64,-24.66
18.96,-6.8647,2.942,-2.2336,1.2901,4.4028,-18.3,-1.98,-24.9
19.463,-7.75,3.1463,-2.1689,2.1292,4.1359,-17.94,-1.44,-25.02
19.532,-5.1894,2.6968,-2.0635,2.2852,3.5091,-17.64,-0.66,-25.38
19.532,-3.8682,1.9341,-1.9083,0.99266,2.0311,-17.22,0.12,-25.5
19.532,-1.1577,0.89894,-1.9016,-0.018021,1.5736,-15.9,1.32,-25.92
18.387,0.89894,0.6674,-2.1454,-0.36957,1.2657,-15.24,1.68,-26.16
14.288,2.6151,0.53119,-2.5968,-0.17654,0.91324,-14.52,2.64,-26.4
7.0826,6.2245,0.53119,-2.6957,0.18265,0.81642,-14.7,3.24,-26.58
4.9714,7.6138,0.58567,-2.5678,0.4441,0.75533,-14.94,3.96,-26.46
4.3585,8.3765,0.69464,-2.2165,0.51924,0.59284,-15.24,4.74,-26.4
2.9965,8.4582,0.21793,-1.7782,0.41722,0.26634,-16.44,6.48,-26.1
2.438,8.4446,0.054481,-1.2614,0.3992,-0.18051,-17.04,7.32,-25.8
1.6481,8.2676,-0.14982,-0.35461,0.28069,-0.85979,-17.52,8.04,-25.5
1.5391,7.6683,-0.19068,0.22235,0.12645,-1.3696,-18.9,9.18,-24.96
1.9205,6.5786,0.23155,0.76419,0.12034,-1.6976,-19.62,9.36,-24.54
2.3291,6.1564,0.44947,1.1897,0.13714,-1.9871,-20.28,9.48,-24.54
5.094,5.203,1.3212,1.5763,0.33445,-2.3277,-21.6,9.72,-24.66
7.5321,5.8567,2.0431,1.847,0.71838,-2.5907,-21.9,10.02,-24.72
11.727,11.4,4.9578,2.2156,1.3094,-2.0837,-21.12,11.04,-25.44
19.3,8.826,7.2052,2.4596,1.0452,-1.306,-20.34,11.76,-26.1
19.504,2.3563,9.5479,2.4416,0.72235,-1.4786,-19.5,12.36,-26.64
19.532,-1.7979,9.9565,2.2761,-0.67745,-2.4914,-18.9,12.66,-27.24
19.532,-3.732,8.2948,1.9966,-1.3045,-2.6163,-17.94,12.54,-28.38
18.387,-4.6445,5.8704,1.7868,-0.73243,-2.8619,-17.52,12.0,-28.86
11.073,-4.9306,3.8273,1.6014,-0.2813,-2.4615,-17.16,10.68,-29.82
7.9679,-5.7342,3.2416,1.3937,-0.069333,-1.9441,-17.16,9.84,-30.06
5.3392,-6.6059,2.6423,1.3595,-0.1744,-1.646,-17.16,9.24,-30.36
2.8058,-7.1507,2.0431,1.3241,-0.56383,-0.83475,-17.52,8.52,-30.54
-1.4029,-6.96,1.0624,1.3244,-0.71716,-0.38118,-18.54,7.2,-30.54
-2.9284,-7.0281,1.0624,1.2828,-0.67409,-0.015577,-19.56,6.6,-30.42
-5.0259,-7.1371,0.96704,1.1588,-0.42944,0.32712,-22.08,4.74,-29.76
-5.2166,-6.4833,0.81722,0.76267,0.040012,0.92974,-23.52,3.36,-29.16
-4.8625,-5.9249,0.64016,0.58826,0.19884,1.157,-24.72,2.04,-28.74
-2.6968,-5.2847,0.64016,0.080023,0.33384,2.0036,-25.56,0.84,-28.26
1.7434,-6.9872,-0.054481,-0.17196,0.15913,2.4569,-26.52,-0.66,-27.66
5.9112,-7.4503,-0.43585,-0.43127,-0.01069,2.6035,-26.88,-1.02,-27.42
10.406,-5.8976,0.55843,-0.94928,-0.20433,2.5864,-27.3,-1.14,-27.18
19.205,-4.2223,3.337,-1.6906,0.12889,3.0079,-27.72,-0.54,-27.06
19.491,-5.5162,3.1327,-1.9884,1.1371,3.9532,-27.96,-0.54,-26.88
19.518,-5.2166,2.547,-1.8793,1.5098,3.5919,-27.84,0.6,-26.82
19.532,-2.6968,0.6674,-1.5409,1.0968,1.6744,-27.3,2.28,-26.88
19.532,-2.0294,-0.54481,-1.5623,-0.10507,1.2052,-26.82,3.18,-27.06
19.123,-0.34051,-0.28603,-2.3335,-0.47525,0.85888,-25.98,4.92,-27.06
10.297,3.8682,0.19068,-2.7397,-0.10721,0.83719,-25.5,5.88,-27.12
7.1234,5.7342,0.31327,-2.803,0.36255,0.81673,-25.32,6.9,-27.18
5.2711,6.7966,0.5993,-2.6988,0.50641,0.79718,-25.32,7.98,-27.0
4.0725,7.2324,0.57205,-2.164,0.47434,0.64568,-25.38,8.76,-27.0
2.6015,7.0553,-0.21793,-1.7162,0.23121,0.40928,-26.1,10.5,-26.64
1.7298,7.0553,-0.53119,-1.2446,0.04215,0.048564,-26.4,11.22,-26.58
-0.16344,7.0826,-0.54481,-0.71593,-0.072082,-0.31185,-27.12,12.36,-26.04
-0.42223,6.8647,-0.10896,-0.21472,-0.0064141,-0.63652,-27.6,12.72,-25.74
-0.10896,6.7693,0.44947,0.29566,0.020464,-0.90927,-28.14,12.9,-25.44
0.44947,6.565,0.65378,0.94257,0.35644,-1.2321,-28.74,13.14,-25.14
4.3858,5.2575,1.2803,1.3433,0.49083,-1.4762,-30.24,13.02,-24.42
6.5378,5.0395,1.4438,1.762,0.56963,-1.8515,-30.78,12.78,-24.36
11.223,9.0303,2.7513,1.9746,0.94348,-2.062,-31.02,12.6,-24.54
18.428,12.476,6.1564,2.2394,1.6017,-0.9838,-30.54,12.6,-24.84
19.395,7.1371,9.7385,2.9832,0.97769,0.072388,-29.82,12.66,-25.56
19.504,1.3076,10.161,3.2055,-0.66523,-1.2831,-29.1,13.02,-26.1
19.532,-5.1213,8.036,2.1811,-1.6344,-2.3424,-28.68,13.14,-26.82
19.532,-4.0997,6.6059,2.0913,-0.84788,-2.0388,-28.56,12.84,-27.06
13.77,-4.413,4.5083,1.9801,-0.013439,-2.2688,-28.8,11.52,-27.6
10.283,-4.6718,3.7456,1.8283,-0.032376,-2.0375,-28.92,10.62,-27.9
8.4446,-5.0804,3.337,1.6988,-0.24893,-1.543,-29.04,9.78,-28.2
4.7807,-5.993,2.4108,1.5345,-0.69944,-1.0033,-29.28,8.82,-28.26
0.72188,-6.4152,1.7162,1.3485,-0.90255,-0.70127,-29.88,6.84,-28.26
-1.7979,-6.456,1.5119,1.1261,-0.85643,-0.43585,-30.3,6.06,-27.96
-3.1599,-6.3879,1.1577,0.73212,-0.47586,-0.069944,-32.34,4.26,-27.06
-4.6445,-6.1428,0.96704,0.42944,-0.16768,0.24893,-33.78,3.18,-26.34
-4.0044,-5.38,0.70826,0.11515,0.12431,0.63194,-35.04,1.92,-25.5
-3.1327,-5.1485,0.44947,-0.033598,0.22083,0.86071,-36.42,0.36,-24.66
-0.76274,-5.8431,0.35413,-0.41814,0.1014,1.5363,-37.2,-0.9,-24.12
3.3506,-7.355,0.44947,-0.66829,-0.062003,1.7596,-38.22,-2.82,-23.4
5.4754,-6.674,-0.42223,-0.87506,-0.18112,1.7404,-38.64,-3.18,-22.86
12.0,-5.1485,0.16344,-1.1002,-0.15547,1.8805,-38.64,-3.48,-21.96
17.897,-4.2495,2.0158,-1.5043,0.1408,2.682,-38.76,-3.3,-21.36
19.327,-5.8976,3.1327,-1.7022,0.93157,3.9981,-38.7,-2.82,-21.06
19.504,-6.0202,2.438,-1.6212,1.3781,3.1105,-38.76,-1.92,-21.0
19.532,-2.8603,0.51757,-1.4068,0.85124,2.0528,-38.4,-0.3,-21.0
19.532,-2.7377,-0.57205,-1.3891,-0.065668,1.6423,-37.86,0.66,-21.06
17.175,0.62654,-0.57205,-2.0635,-0.48564,1.4322,-36.6,2.58,-21.12
13.702,2.547,-0.29965,-2.4798,-0.45173,1.3778,-36.3,3.3,-21.18
11.605,3.6094,-0.068102,-2.5727,-0.34728,1.3354,-35.88,4.02,-21.18
7.8726,5.3528,0.19068,-2.4609,0.058948,1.1161,-35.76,4.74,-21.06
4.3721,6.6195,0.24517,-2.2355,0.44746,0.97128,-36.06,6.36,-20.34
3.4323,7.4095,-0.24517,-1.9401,0.98777,0.70647,-36.48,7.08,-20.1
3.2144,8.1995,-0.6674,-1.5143,1.2749,0.27855,-37.44,8.64,-19.68
3.2008,8.3493,-0.49033,-0.70158,0.93585,-0.53939,-37.92,9.3,-19.5
2.9011,8.2131,-0.24517,-0.37996,0.59987,-0.80879,-38.34,9.72,-19.2
2.5606,7.8181,-0.16344,0.53878,-0.16341,-1.3983,-38.7,9.96,-18.96
2.7241,6.1292,0.20431,1.0131,-0.26267,-1.6692,-39.66,9.96,-18.78
3.6366,5.1894,0.6674,1.3738,-0.051313,-2.0223,-40.02,9.84,-18.72
5.3937,4.6718,1.3484,1.6988,0.36621,-2.47,-40.38,9.3,-19.2
10.746,7.1234,1.866,1.8851,0.78191,-2.6631,-40.2,9.3,-19.56
17.666,10.542,3.2961,2.0644,0.99785,-1.9016,-39.78,9.36,-20.04
19.068,9.2074,4.7399,2.5586,0.087354,-0.97189,-38.94,9.48,-20.82
19.532,-3.9771,6.7693,2.5439,-0.57024,-1.4056,-36.9,9.48,-22.44
19.532,-4.9987,7.5048,1.865,-1.8595,-2.408,-36.0,9.3,-23.22
19.532,-3.6094,5.775,1.3714,-0.70983,-2.2739,-34.44,8.4,-24.42
16.126,-3.1054,4.1951,1.3497,-0.065973,-2.3439,-33.66,7.62,-24.9
12.667,-2.8739,3.5413,1.397,0.53023,-2.0458,-33.0,6.9,-25.44
10.161,-3.337,2.9011,1.5779,0.11698,-1.3769,-32.34,6.0,-25.8
5.094,-4.9033,2.0431,1.6835,-0.53542,-0.9841,-31.26,4.5,-26.16
2.4653,-5.2847,1.6617,1.6787,-0.97433,-0.60689,-31.08,3.84,-26.16
-1.9613,-6.2109,1.4846,1.5647,-1.0455,-0.31704,-31.32,2.52,-25.5
-3.4187,-6.7148,1.471,1.1747,-0.5339,-0.03146,-31.68,1.92,-25.14
-4.3177,-6.9464,1.4029,0.99876,-0.2813,0.062003,-32.22,1.32,-24.54
-4.8625,-6.0883,1.0896,0.38729,0.42913,0.44563,-32.88,0.54,-23.94
-2.6151,-4.9578,0.29965,0.0085521,0.63958,0.85918,-34.02,-1.08,-22.86
-0.85808,-5.5843,0.081722,-0.2865,0.58735,1.3262,-34.2,-1.8,-22.44
0.76274,-6.9872,0.068102,-0.63194,0.22388,1.8607,-34.32,-2.7,-21.78
4.7671,-6.9191,-0.76274,-0.9783,0.12034,2.0534,-34.26,-2.76,-21.6
8.8668,-6.3471,0.054481,-1.1915,0.18662,2.2553,-34.2,-2.64,-21.36
13.116,-5.9385,0.96704,-1.7776,0.91233,3.6313,-34.14,-2.34,-21.24
19.014,-7.8181,1.7843,-1.7721,1.0889,4.2541,-33.96,-1.74,-21.3
19.532,-6.4424,0.54481,-1.4532,1.2853,3.5668,-33.36,-0.9,-21.48
19.532,-5.7342,0.23155,-1.3586,0.58887,2.4425,-32.76,0.96,-21.72
19.532,-4.3449,-0.57205,-1.4514,-0.21655,2.3002,-31.08,2.88,-22.26
19.532,-1.5391,-0.65378,-2.1506,-0.83261,1.8579,-30.18,3.66,-22.56
17.57,-0.081722,-0.61292,-2.4297,-0.82956,1.6765,-29.4,4.26,-22.68
9.3299,4.7263,-0.095342,-2.8793,-0.051007,1.3244,-28.38,5.58,-22.62
7.0009,6.9191,0.23155,-2.7779,0.63499,1.1747,-28.32,6.42,-22.44
6.0611,8.4038,0.24517,-2.3894,1.0938,0.98105,-28.2,7.2,-22.14
5.3664,9.112,-0.081722,-1.8537,1.146,0.52993,-28.44,8.94,-21.6
4.6037,9.0984,-0.25879,-1.0342,0.67409,-0.46853,-28.8,9.9,-21.12
3.8818,9.0712,-0.19068,-0.76205,0.47678,-0.77824,-29.1,10.68,-20.76
1.8932,8.1586,0.47671,0.094073,-0.14325,-1.5382,-29.82,11.7,-19.68
1.2667,7.4776,0.55843,0.58551,-0.23457,-1.9193,-30.36,11.88,-19.14
1.5119,6.7421,0.50395,0.98319,-0.024129,-2.1725,-30.84,11.94,-18.78
3.8954,5.7069,0.95342,1.3097,0.33934,-2.4932,-31.8,11.76,-18.18
5.3664,5.1349,1.8115,1.8491,0.82528,-3.0546,-31.92,11.82,-18.24
6.7421,5.4073,2.2746,2.0061,1.0195,-3.153,-31.68,12.0,-18.3
11.482,10.12,3.6094,2.284,1.6542,-2.5662,-30.3,12.66,-19.38
18.524,10.583,5.8431,2.5992,1.5571,-1.3812,-29.16,13.08,-20.16
19.409,4.9306,7.641,3.1237,0.81612,-0.40378,-28.2,13.56,-21.12
19.532,-3.4732,5.775,3.1982,-1.6698,-1.8775,-26.64,13.98,-22.86
19.532,-4.5356,4.5628,2.8607,-1.7816,-1.9508,-25.92,13.62,-23.58
19.532,-4.7807,3.6911,2.4135,-0.87965,-1.689,-25.32,13.2,-24.24
17.666,-4.9169,2.6015,1.824,0.058948,-1.8757,-24.9,12.54,-25.08
9.6977,-5.4345,1.3212,1.4817,-0.02474,-1.752,-24.3,11.22,-26.4
6.6331,-5.993,0.8036,1.1826,-0.21502,-1.5107,-24.24,10.62,-27.06
2.5742,-6.8238,0.55843,0.91111,-0.39309,-1.2617,-24.48,9.54,-27.96
-0.35413,-6.9055,0.74912,0.63255,-0.55314,-0.98563,-24.9,8.88,-28.08
-1.5255,-6.7693,0.77636,0.24343,-0.39676,-0.55833,-25.68,8.1,-28.44
-3.0373,-6.4152,0.58567,0.055894,-0.12309,-0.29688,-26.52,7.2,-28.44
-4.413,-5.775,0.14982,-0.14813,0.10537,0.064141,-28.38,4.8,-28.2
-3.9771,-5.4754,-0.081722,-0.4331,0.14172,0.5962,-29.16,3.3,-28.08
-1.2122,-5.6661,-0.49033,-0.86621,0.037263,1.3735,-29.88,0.54,-27.96
0.38137,-5.8295,-0.65378,-0.99052,-0.007025,1.5837,-30.18,-0.54,-27.96
1.7025,-5.8704,-0.76274,-1.2602,-0.14386,1.8683,-30.3,-1.32,-27.9
5.2847,-5.6661,-0.81722,-1.8042,0.10201,2.3766,-30.18,-1.86,-27.72
10.61,-5.6661,0.50395,-2.1762,1.1802,3.1884,-30.24,-2.16,-27.6
19.286,-8.1586,2.7922,-2.332,1.7028,3.9364,-30.0,-2.28,-27.18
19.504,-7.7091,1.076,-2.3399,2.0721,3.0308,-29.64,-1.92,-27.06
19.532,-4.8216,0.44947,-2.335,1.1945,2.4713,-28.86,-0.42,-26.94
19.532,-4.7535,0.92618,-2.7788,-0.65301,2.2281,-28.2,0.72,-26.7
19.532,-4.3449,2.6015,-3.426,-0.96425,2.0965,-27.3,1.8,-26.58
14.901,0.49033,4.2632,-3.8066,-1.066,1.8967,-25.62,4.44,-26.16
10.855,3.337,4.0589,-3.6811,-0.33689,1.6029,-24.6,5.52,-25.92
7.1779,6.0066,2.0567,-3.2086,0.81459,1.3922,-23.16,7.32,-25.2
6.3743,8.3493,0.92618,-2.2458,1.5559,1.2642,-22.74,7.92,-24.84
6.5105,8.5536,-0.081722,-1.7978,1.2865,0.9499,-22.44,8.28,-24.3
6.0066,8.9894,-0.44947,-1.6112,0.9276,0.70555,-22.44,8.58,-24.0
4.3858,9.8611,-0.43585,-0.79046,-0.37385,-0.23915,-22.44,9.06,-23.52
2.8875,9.7794,0.19068,-0.083383,-0.99235,-1.044,-22.56,9.84,-22.5
2.3427,8.5672,0.20431,0.48289,-1.1533,-1.9594,-22.56,9.96,-21.96
3.4459,6.279,-0.027241,0.77397,-1.0055,-2.1423,-22.68,9.96,-20.7
5.4073,5.4754,-0.095342,1.0009,-0.34453,-2.8408,-22.74,9.72,-20.16
6.5922,5.1757,-0.28603,1.0959,-0.17104,-3.1151,-23.1,9.66,-19.68
8.8941,6.9736,-0.095342,1.1405,1.0235,-3.3338,-23.34,9.54,-19.32
18.401,11.768,4.0589,1.3302,1.8607,-2.5333,-24.06,9.96,-19.02
19.395,8.431,5.5299,2.1976,0.87476,-1.7565,-24.66,10.38,-19.02
19.532,-1.3893,4.6445,2.9486,-0.64874,-2.0837,-25.44,11.64,-19.02
19.532,-5.5707,4.3721,2.7782,-1.8787,-2.6173,-25.86,12.12,-19.14
19.123,-5.8023,3.7865,2.1301,-1.923,-2.3534,-25.92,12.36,-19.08
14.179,-4.0452,3.5685,1.2434,-0.093462,-2.4294,-25.8,12.42,-19.14
7.6274,-2.8603,2.6696,1.3295,0.42761,-1.9933,-25.8,12.06,-19.26
5.8431,-4.6445,2.2474,1.328,0.2419,-1.3393,-26.16,11.7,-19.32
0.92618,-6.0338,1.4438,1.4126,-0.33934,-0.59956,-26.82,10.74,-19.38
-1.1577,-6.1428,1.58,1.4392,-0.49327,-0.099876,-27.3,10.14,-19.5
-2.8875,-6.7693,2.0567,1.3332,-0.39156,0.30329,-27.72,9.42,-19.38
-3.6094,-7.2869,2.261,1.0938,-0.083078,0.65668,-28.38,8.64,-19.2
-4.699,-7.4231,1.9886,0.76175,0.32987,0.95906,-29.46,6.72,-18.42
-4.1951,-6.4424,1.5391,0.36316,0.69211,1.3018,-29.7,5.7,-18.0
-3.0918,-5.8295,0.98067,-0.0082467,0.88362,1.8039,-29.88,4.08,-17.34
0.14982,-6.3607,-0.21793,-0.28191,0.85827,2.3372,-29.76,3.78,-17.16
2.3972,-7.0417,-0.7355,-0.41325,0.64966,2.7913,-29.7,3.72,-17.16
5.1894,-7.5048,-1.4165,-0.68845,0.32926,3.0672,-29.7,3.84,-17.34
15.418,-8.3629,-0.64016,-1.2251,0.4215,3.3979,-29.52,4.38,-17.28
19.028,-9.6704,1.0488,-1.7663,1.0559,4.098,-29.22,5.04,-17.4
19.477,-11.482,1.2803,-2.0666,1.5342,4.1884,-28.86,5.82,-17.58
19.532,-6.8647,-0.054481,-2.0351,1.6368,3.5534,-27.72,7.56,-17.94
19.532,-4.7399,-0.44947,-2.0812,0.90378,1.8042,-27.12,8.34,-18.12
19.532,-2.3563,-0.49033,-2.1619,0.50335,1.6154,-26.4,9.0,-18.18
19.532,0.14982,-0.34051,-2.6771,-0.022297,1.1173,-25.98,9.72,-18.42
14.111,3.9771,-0.19068,-2.9508,0.0281,0.7984,-25.8,11.1,-18.48
9.3163,5.9112,0.16344,-2.693,0.31979,0.42272,-25.92,11.94,-18.3
5.2575,7.927,0.46309,-2.5504,0.40439,0.32651,-26.46,14.16,-17.82
3.7456,8.6898,0.44947,-1.9933,0.45051,0.1069,-26.76,15.12,-17.34
2.6015,9.1393,0.24517,-1.4664,0.32681,-0.17807,-27.0,16.08,-16.86
1.6344,9.2482,-0.17706,-0.86712,0.16188,-0.60018,-27.3,17.1,-16.44
0.20431,8.0224,-0.64016,-0.31612,0.0018326,-1.0592,-28.14,18.54,-15.42
-0.19068,7.3005,-0.16344,0.16554,-0.059865,-1.4505,-28.74,19.02,-14.76
-0.068102,6.3062,0.84446,0.65301,-0.030543,-1.7226,-30.18,19.32,-13.62
1.6344,5.4754,0.91256,1.3127,0.13714,-1.974,-30.84,19.44,-13.2
2.8603,5.0668,0.85808,1.5098,0.26206,-2.1163,-31.5,19.56,-13.02
8.54,5.2575,1.4438,1.9963,0.77122,-2.5751,-31.44,19.62,-13.14
13.743,7.9679,2.2065,2.1389,1.1316,-2.437,-30.84,19.8,-13.56
19.314,8.4719,5.8295,2.4816,1.2004,-1.6112,-28.86,19.68,-15.12
19.518,-1.4029,7.3686,3.6084,-0.032987,-1.2055,-28.14,19.5,-16.2
19.532,-6.2517,6.3335,3.0018,-1.7654,-2.6594,-27.48,19.2,-17.22
19.532,-7.1098,5.9521,2.4285,-1.9343,-2.6289,-27.24,18.72,-18.0
19.532,-4.9578,4.8352,1.9535,-0.48442,-2.3039,-27.0,17.88,-18.72
12.776,-4.2904,2.8467,1.8332,0.17623,-2.2156,-26.88,16.2,-20.16
11.101,-4.8352,2.547,1.7324,0.11515,-1.6304,-26.94,15.12,-20.82
7.75,-6.1292,2.5061,1.5391,-0.54978,-1.0922,-27.12,14.28,-21.6
2.7922,-7.0553,2.0294,1.4719,-0.77152,-0.94806,-27.42,13.26,-22.14
-0.89894,-6.8647,1.5119,1.2718,-0.9108,-0.58307,-28.08,11.76,-22.98
-2.8739,-6.9328,1.5527,1.1356,-0.59773,-0.42699,-28.8,11.1,-22.98
-4.9987,-6.851,1.4982,0.94745,-0.12004,-0.25931,-30.6,9.66,-22.8
-5.2575,-6.565,1.2531,0.66401,0.37202,0.0048869,-31.8,8.82,-22.44
-5.0259,-6.2517,0.84446,0.075747,0.75686,0.70097,-33.0,7.56,-21.96
-2.8058,-6.1836,0.40861,-0.13806,0.74648,1.0198,-34.62,5.34,-20.94
-1.1577,-6.7148,0.28603,-0.65271,0.48411,1.9554,-35.04,4.56,-20.7
0.68102,-7.2733,-0.027241,-0.8375,0.1295,2.3909,-35.34,3.96,-20.64
2.6015,-7.641,-0.61292,-1.0226,-0.28161,2.6307,-35.4,3.6,-20.52
7.246,-8.7306,-1.0624,-1.3488,-0.63286,3.0858,-35.7,3.9,-20.52
16.058,-10.869,-0.081722,-1.93,-1.0192,5.0766,-35.7,4.2,-20.34
19.423,-16.276,-0.64016,-1.876,-1.2883,5.7412,-35.34,5.82,-20.16
19.518,-14.424,-2.4244,-1.3528,-0.26023,5.0329,-34.86,6.9,-20.1
19.532,-12.517,-3.0237,-1.3219,0.069639,3.6478,-34.26,7.92,-20.28
19.532,-8.5536,-2.4925,-1.62,0.41783,3.1267,-32.58,9.6,-21.0
19.532,-4.3858,-1.9886,-2.0577,0.67898,2.6023,-32.04,10.2,-20.88
18.537,2.4244,-0.61292,-2.649,1.025,1.8573,-31.74,11.1,-20.58
11.482,5.7069,-0.095342,-3.1044,1.8274,1.087,-32.04,13.62,-19.2
8.1041,9.4389,0.12258,-2.7654,2.1631,0.80359,-32.16,15.42,-18.24
7.0826,10.746,0.21793,-2.1417,1.8723,0.34758,-32.28,17.16,-17.4
4.3313,11.727,-0.32689,-1.5247,1.2834,-0.28833,-32.28,20.64,-15.72
2.6423,11.278,-0.76274,-0.95173,0.686,-0.92882,-32.28,22.14,-15.0
1.2531,10.61,-0.49033,-0.40623,0.2022,-1.4551,-32.58,24.48,-13.44
-0.28603,8.54,-0.095342,0.29077,-0.21961,-1.9914,-32.94,25.26,-12.72
-0.16344,7.4503,0.054481,0.72632,-0.36163,-2.2284,-33.6,25.74,-12.18
0.38137,6.1155,0.054481,1.0571,-0.21319,-2.4355,-34.56,26.04,-11.34
2.2474,4.4811,0.21793,1.3467,0.17532,-2.6802,-36.54,26.52,-9.84
4.4947,3.9908,0.61292,1.5571,0.86987,-3.0363,-37.08,26.76,-9.78
10.324,5.7614,1.6344,1.8411,1.3268,-3.5476,-36.84,26.28,-10.86
15.609,9.5615,1.975,2.0473,1.8793,-3.0067,-36.12,25.68,-11.76
19.041,11.087,3.8954,2.6585,1.306,-1.5641,-35.4,24.78,-13.02
19.477,3.8954,5.4481,3.2559,0.34544,-1.1203,-34.8,23.82,-14.34
19.532,-8.2267,7.3141,2.5052,-0.92027,-2.7886,-34.62,21.48,-16.74
19.532,-5.9385,6.5378,2.1139,-1.0623,-2.4923,-34.5,20.04,-17.7
19.123,-4.699,4.1133,1.9988,0.36041,-2.6136,-34.5,18.54,-18.6
11.713,-4.3449,2.7649,2.0467,1.2306,-1.8619,-34.38,15.48,-20.46
10.311,-4.4947,2.3563,2.0449,0.57849,-1.3506,-34.26,13.98,-21.12
5.0668,-5.6933,1.7298,1.9325,-0.28955,-0.99907,-33.9,11.16,-22.62
2.2746,-6.3198,1.471,1.7095,-0.78588,-0.60109,-33.84,10.02,-23.16
-0.42223,-6.7012,1.2939,1.3937,-0.93798,-0.24557,-33.84,8.88,-23.52
-4.2359,-6.7829,1.3348,1.0379,-0.70127,-0.0033598,-34.62,7.14,-23.64
-4.8625,-6.4424,1.3757,0.53115,0.21808,0.33567,-35.28,6.06,-23.58
-5.2847,-5.9249,1.2395,0.36682,0.53512,0.4893,-36.06,4.98,-23.16
-4.2359,-4.9987,0.57205,-0.12553,1.2456,1.1051,-36.84,2.64,-22.32
-2.6968,-5.7342,0.31327,-0.44929,1.3167,1.6234,-36.9,1.8,-22.26
-1.0896,-6.7285,-0.19068,-0.72174,1.0452,2.124,-37.02,1.2,-22.08
0.68102,-7.6683,-0.44947,-0.95753,0.5962,2.5372,-36.9,0.78,-22.5
7.3822,-8.7987,0.081722,-1.5287,-0.027489,3.1484,-36.84,0.9,-22.74
11.877,-9.3027,1.58,-1.9297,0.017104,3.5143,-36.6,1.32,-22.86
18.279,-10.474,3.3506,-2.5326,0.77,4.3139,-36.36,1.98,-22.86
19.504,-12.299,4.0316,-2.5137,1.6897,4.4236,-35.16,4.14,-23.16
19.532,-9.616,3.4732,-2.2623,1.6741,2.8115,-34.14,5.28,-23.46
19.532,-7.3141,2.6423,-2.2468,0.37782,1.7669,-32.64,6.36,-23.88
19.532,-1.5663,2.0158,-2.4077,-0.43616,0.94745,-29.28,7.68,-24.42
14.901,2.438,1.8796,-2.642,-0.3149,0.7981,-28.14,8.16,-24.48
12.108,4.304,1.866,-3.0021,0.065057,0.52657,-27.78,8.76,-24.42
7.927,7.2596,1.7979,-2.8466,0.63377,0.32009,-27.66,9.66,-24.06
6.0202,8.9486,1.2803,-2.4487,0.54611,0.12065,-28.02,12.06,-23.28
5.0259,9.3708,0.8036,-1.9071,0.21228,-0.26298,-28.2,13.2,-22.68
2.152,9.5615,-0.42223,-1.332,-0.17959,-0.77397,-28.44,15.18,-21.18
0.77636,9.1937,-0.70826,-0.52657,-0.5116,-1.4432,-28.86,16.14,-20.58
-0.46309,7.8589,-0.50395,-0.041844,-0.6466,-1.6747,-29.1,16.74,-19.86
-0.76274,7.3141,-0.25879,0.34636,-0.73457,-1.8601,-29.7,16.98,-19.26
-0.76274,5.8704,0.21793,0.71227,-0.54214,-1.9193,-31.5,16.92,-17.82
0.6674,5.2575,0.69464,0.97861,-0.1857,-1.9325,-32.94,16.86,-17.1
5.0259,5.5162,1.4982,1.2596,0.20189,-2.1386,-34.32,17.04,-16.5
11.945,8.4855,2.8467,1.4478,0.78863,-2.2294,-35.52,17.88,-16.38
18.265,10.433,4.3177,1.7391,1.3888,-1.8146,-34.92,18.3,-16.8
19.382,6.4969,6.565,2.5693,0.8827,-0.93157,-33.96,18.78,-17.7
19.532,-3.9227,7.8862,2.4939,-0.054062,-2.4465,-32.4,19.14,-19.32
19.532,-2.7922,7.1507,2.3286,-0.78099,-2.7956,-32.04,18.9,-19.92
19.532,-2.8739,5.3664,2.3445,-0.23793,-2.755,-31.74,18.36,-20.64
15.445,-3.8273,3.3234,2.3408,0.21625,-2.6985,-31.38,16.56,-21.78
11.25,-4.2223,2.7377,2.2975,0.31979,-2.1896,-31.2,15.54,-22.38
9.398,-4.6718,2.4653,2.1851,-0.094073,-1.5192,-30.96,14.58,-22.86
3.5958,-6.4152,1.7025,2.0491,-0.42028,-1.1399,-30.84,12.6,-24.0
0.9398,-6.8783,1.1169,1.8922,-0.56933,-0.76205,-30.9,11.64,-24.36
-1.185,-7.1234,0.85808,1.6784,-0.61361,-0.42028,-31.38,10.74,-24.66
-4.0452,-7.6002,0.70826,1.2617,-0.37874,0.067806,-32.52,8.88,-24.66
-4.7535,-7.7772,0.72188,0.89064,-0.065668,0.41569,-33.54,7.74,-24.18
-5.0668,-7.6002,0.72188,0.67714,0.1066,0.60689,-34.56,6.24,-23.52
-3.909,-6.2654,-0.095342,-0.017104,0.4725,1.3381,-36.06,3.3,-22.5
-1.8932,-6.674,-0.54481,-0.39523,0.43891,2.0385,-36.36,2.22,-22.32
1.2258,-8.1177,-1.185,-0.67867,0.055283,2.6017,-36.66,1.44,-22.02
5.6116,-8.7987,-0.72188,-1.2254,-0.45082,3.156,-36.9,0.84,-21.6
13.634,-8.2812,1.6208,-1.9499,-0.037263,3.7235,-37.2,0.9,-21.36
17.829,-7.8998,2.3836,-2.2843,0.49358,4.0332,-37.44,1.32,-21.24
19.423,-9.7522,2.5879,-2.449,1.6044,4.2489,-37.44,1.92,-21.06
19.532,-7.5593,1.7298,-2.1594,1.5571,2.9474,-37.08,4.02,-21.0
19.532,-5.7614,1.185,-2.0299,0.35094,1.9199,-36.54,5.16,-21.06
19.532,-0.58567,0.47671,-2.1252,-0.26053,1.3537,-35.4,7.14,-21.0
13.498,3.0646,0.29965,-2.5406,0.061087,0.88637,-34.86,8.16,-21.0
9.6704,5.6524,0.58567,-3.0003,0.66523,0.68264,-34.62,9.12,-20.82
7.8998,6.8374,0.50395,-2.7596,0.90805,0.61667,-34.44,9.96,-20.58
5.3528,8.4174,0.16344,-2.503,0.85399,0.46731,-34.68,11.88,-20.16
4.1814,8.7715,0.16344,-2.1389,0.61178,0.16463,-34.92,12.9,-19.92
2.9011,9.5887,-0.28603,-1.3393,0.071166,-0.48808,-35.4,14.7,-19.02
0.24517,9.3436,-0.49033,-0.72968,-0.16402,-0.88239,-35.58,15.42,-18.72
-0.55843,8.3629,-0.53119,-0.42669,-0.24251,-1.0275,-35.76,15.84,-18.24
-1.0079,7.3958,-0.57205,0.33017,-0.31337,-1.3864,-36.12,16.14,-18.0
-0.89894,6.3062,-0.16344,0.71227,-0.17746,-1.5134,-37.26,15.72,-17.28
0.19068,5.7205,0.40861,1.102,0.0054978,-1.5721,-37.98,15.42,-16.92
2.7786,5.3392,1.2258,1.5058,0.17715,-1.7712,-38.58,15.06,-16.62
9.6977,5.9521,1.6617,1.8607,0.45265,-2.0821,-39.54,14.34,-16.74
16.154,9.7249,1.7434,2.105,1.0009,-1.9019,-39.42,13.98,-17.1
18.687,11.114,2.8058,2.5137,0.61056,-1.0095,-39.06,13.92,-17.64
19.518,-0.42223,6.7693,3.1753,-0.38729,-0.81184,-37.86,13.32,-19.02
19.532,-5.7478,6.5241,2.5879,-1.4737,-2.4761,-37.38,12.9,-19.5
19.532,-4.3994,5.1485,1.9639,-0.97922,-2.4041,-36.96,12.24,-19.98
17.856,-3.3506,4.2768,1.7651,0.58949,-2.2055,-36.36,10.5,-20.82
14.206,-3.3097,3.2553,1.74,0.69914,-1.7801,-36.06,9.36,-21.18
