Ax,Ay,Az,Gx,Gy,Gz,Mx,My,Mz
0.21793,-12.667,-3.4596,1.0284,-1.0931,0.1799,16.44,41.82,6.3
-0.16344,-13.171,-3.4187,0.79993,-0.37538,-0.0058032,16.62,41.82,5.7
-0.21793,-13.184,-3.1735,0.64263,0.48106,-0.13622,16.92,42.0,4.98
0.9398,-13.539,-3.1463,0.65821,1.489,-0.14264,17.34,42.36,3.36
1.9205,-14.22,-3.3915,0.70433,1.7217,-0.022602,17.46,42.48,2.58
2.9011,-13.893,-3.5958,0.67012,1.4896,0.047647,17.64,42.6,1.86
4.2768,-11.4,-3.514,0.54734,0.82009,0.000305,18.12,42.78,0.54
4.4402,-10.311,-2.942,0.38912,-0.052229,-0.047953,18.42,42.96,0.54
4.2087,-10.637,-2.2882,0.31796,-0.85582,-0.053451,18.54,43.08,-0.54
3.1599,-12.531,-2.5742,0.054672,-1.4887,-0.10812,18.72,42.96,-1.5
2.9556,-12.817,-2.6015,-0.058643,-1.5485,-0.12278,18.66,42.96,-2.04
2.8875,-12.422,-2.3836,-0.19945,-1.5036,-0.21411,18.42,42.96,-2.4
2.3699,-11.986,-1.5255,-0.3543,-1.0953,-0.33384,18.18,42.96,-3.0
2.2882,-11.645,-1.471,-0.51954,-0.65699,-0.47067,17.94,42.96,-3.3
2.4653,-10.869,-1.362,-0.63163,-0.2645,-0.71471,17.64,43.02,-3.36
2.942,-8.7715,-1.3348,-0.69303,-0.01405,-0.97464,16.98,42.96,-3.48
2.9284,-7.7364,-1.3212,-0.70005,-0.024129,-1.1417,16.44,43.02,-3.48
2.942,-7.1507,-1.1713,-0.69516,-0.067806,-1.2217,15.9,43.14,-3.48
2.7922,-5.6388,-1.2258,-0.64568,-0.29047,-1.4258,14.64,43.32,-3.3
2.7377,-5.1485,-1.185,-0.61545,-0.5006,-1.5101,13.8,43.38,-3.3
2.6015,-4.8625,-1.1577,-0.5678,-0.75625,-1.5336,13.02,43.56,-3.3
2.261,-4.8216,-0.99429,-0.53603,-1.0562,-1.4664,11.04,43.98,-3.24
1.9886,-4.8625,-0.92618,-0.52321,-1.1609,-1.3457,10.26,44.16,-3.06
1.6617,-5.2983,-0.8036,-0.51099,-1.1729,-1.2697,9.42,44.34,-2.88
1.0896,-6.7966,-0.81722,-0.48533,-1.0507,-0.90836,7.44,44.58,-2.46
0.9398,-8.036,-0.84446,-0.45937,-0.83963,-0.53787,6.54,44.82,-2.22
0.96704,-9.5751,-0.72188,-0.4386,-0.54336,-0.067195,5.7,44.94,-2.04
1.2258,-11.768,-0.68102,-0.43097,0.034514,0.61667,3.9,45.3,-1.68
1.4438,-12.272,-0.47671,-0.42089,0.47892,0.92852,3.3,45.42,-1.44
1.7025,-12.49,-0.21793,-0.40439,0.70463,1.025,2.64,45.6,-1.32
2.0567,-12.926,-0.054481,-0.30513,1.3158,1.1555,2.16,45.78,-1.14
3.1191,-13.757,-0.16344,-0.13592,1.4303,1.1353,1.44,45.9,-0.84
3.7728,-14.506,-0.46309,0.11668,1.2095,1.0858,1.38,45.9,-0.66
4.3585,-15.228,-0.84446,0.40348,0.64202,1.0446,1.38,45.96,-0.36
4.9714,-15.514,-1.7434,0.74617,-0.74067,0.91538,1.38,46.14,-0.18
4.5083,-14.124,-1.9341,0.84086,-1.6008,0.72204,1.56,46.2,-0.12
3.732,-12.776,-2.2065,0.84269,-1.9172,0.63225,1.86,46.2,-0.18
2.6287,-10.542,-2.6832,0.66951,-2.4343,0.24465,2.34,46.08,-0.48
1.8932,-9.6023,-2.6832,0.45173,-2.4361,-0.1408,2.58,45.9,-0.6
0.42223,-9.7249,-2.547,0.24312,-2.1383,-0.4496,2.94,45.84,-0.6
-1.4438,-9.8339,-2.4244,-0.24862,-1.0082,-0.61484,3.3,45.48,-0.78
-2.0294,-9.2891,-2.4108,-0.59101,0.051618,-0.57299,3.54,45.24,-0.72
-2.0839,-8.8396,-2.3427,-0.7196,0.63835,-0.5061,3.48,44.88,-0.72
-1.6617,-7.9407,-2.2065,-0.93371,2.2828,-0.17593,3.72,44.7,-0.66
-0.35413,-7.1643,-2.0294,-0.92118,3.2156,0.042761,3.72,44.04,-0.36
0.83084,-6.8647,-1.8932,-0.8097,3.8451,0.23488,3.78,43.8,-0.18
2.1112,-5.7478,-1.5391,-0.68631,4.065,0.37293,4.2,43.2,0.54
2.7377,-5.0259,-1.4438,-0.58674,3.8808,0.44318,4.2,42.96,0.78
3.2144,-4.2223,-1.2531,-0.42608,3.0778,0.45968,4.26,42.66,1.14
3.6775,-3.2008,-1.0896,-0.2587,2.3305,0.49114,4.56,42.18,2.34
3.9227,-3.2144,-1.3076,-0.040317,1.4826,0.52351,4.74,42.0,2.82
3.9227,-3.514,-1.6072,0.1628,0.58429,0.5849,4.92,41.58,3.3
3.6639,-4.2768,-1.8932,0.47647,-0.62094,0.68295,5.58,41.22,3.96
3.4051,-4.7399,-1.9477,0.57879,-0.92577,0.70066,5.94,41.04,4.26
2.9011,-6.1836,-2.0294,0.76389,-1.3696,0.74434,6.48,41.1,4.44
2.5198,-9.4798,-2.5061,0.96944,-1.7361,0.93554,7.38,41.16,4.44
2.261,-11.373,-2.7513,1.0611,-1.7721,1.1252,7.86,41.22,4.2
2.0839,-13.375,-3.1327,1.1249,-1.6759,1.3057,8.4,41.16,3.9
2.0567,-15.255,-3.5549,1.0562,-1.2553,1.4667,9.36,41.1,3.18
1.8796,-14.506,-3.4187,0.91416,-0.72052,1.3787,10.14,41.04,2.88
1.8387,-13.797,-3.3097,0.75778,-0.037263,1.1808,10.86,40.86,2.46
2.0022,-11.904,-3.1327,0.60353,0.58307,0.81948,12.18,40.8,1.14
2.438,-10.964,-3.0918,0.489,0.8937,0.29352,12.78,40.8,0.6
2.6696,-10.556,-3.0918,0.46273,0.9783,-0.11393,13.38,40.8,0.12
3.6503,-11.536,-3.9227,0.44593,0.80512,-0.26145,14.34,40.68,-0.72
4.2359,-12.04,-4.2495,0.26695,-0.043982,-0.25198,14.76,40.62,-1.38
4.8625,-12.122,-4.2768,0.16463,-0.43616,-0.22938,15.18,40.5,-1.74
4.0997,-11.427,-3.0646,-0.16341,-1.3784,-0.13195,15.66,40.44,-2.1
3.6094,-11.427,-2.6696,-0.33262,-1.6142,-0.19273,16.02,40.14,-2.58
2.6968,-12.013,-2.0839,-0.53573,-1.5614,-0.34086,16.32,39.72,-2.88
2.9011,-12.531,-2.0294,-0.72479,-1.1857,-0.45998,16.26,39.48,-3.18
3.1599,-12.79,-2.0431,-0.77641,-0.94623,-0.47098,16.14,39.36,-3.12
3.5004,-12.871,-2.0294,-0.80695,-0.77672,-0.55222,15.84,39.54,-3.18
3.6775,-11.536,-1.9068,-0.821,-0.67531,-0.70647,15.18,39.66,-2.88
3.5685,-9.4661,-1.7298,-0.85796,-0.61361,-0.93218,14.4,39.66,-2.64
3.228,-7.4095,-1.4846,-0.92913,-0.5565,-1.2046,13.38,39.72,-2.34
3.0101,-5.8976,-1.2258,-0.95631,-0.53909,-1.5272,12.18,39.78,-1.86
2.9148,-5.094,-1.2531,-0.95478,-0.6014,-1.8537,10.62,40.02,-1.38
2.8194,-4.9033,-1.4029,-0.9166,-0.88759,-2.1982,9.12,40.5,-0.96
2.7377,-4.9987,-1.6208,-0.9276,-1.1942,-2.3393,7.56,40.74,-0.36
2.3836,-5.4481,-1.5527,-0.96211,-1.5076,-2.3931,5.64,40.74,-0.24
2.0975,-5.775,-1.5391,-1.0125,-1.7562,-2.3457,4.56,40.86,-0.3
1.4301,-6.8647,-1.4165,-1.0934,-1.846,-2.1967,3.12,40.74,0.18
0.81722,-7.9543,-1.4029,-1.1872,-1.7544,-1.7489,2.16,40.86,0.3
0.49033,-12.49,-1.2803,-1.2859,-1.5024,-1.5098,0.36,40.5,0.6
-0.44947,-14.669,-0.96704,-1.4169,-0.97311,-0.88514,-0.54,40.32,0.9
-0.64016,-15.554,-0.31327,-1.5986,0.44807,0.12187,-1.38,40.2,1.26
-0.23155,-13.906,0.36775,-1.6084,1.7132,0.69272,-2.58,39.6,2.1
0.53119,-12.898,0.64016,-1.4826,2.9853,1.222,-3.18,39.24,2.64
1.5119,-12.326,0.8717,-1.0134,4.1948,1.5715,-3.72,38.88,2.94
3.3642,-11.918,0.58567,-0.80023,4.3155,1.5791,-4.5,38.22,3.78
4.2495,-12.108,0.14982,-0.020159,3.507,1.4988,-4.68,37.98,4.32
4.9714,-12.0,-0.6674,0.50488,2.1423,1.3549,-4.86,37.68,4.74
5.1894,-11.264,-2.0703,0.90164,0.40897,1.2208,-4.98,37.14,5.4
4.7126,-10.924,-2.3563,1.1176,-1.2074,1.1478,-5.1,36.96,5.58
3.2825,-10.637,-2.547,1.1332,-2.5785,1.1551,-4.86,36.78,5.58
1.1169,-10.215,-2.0294,1.0366,-2.6295,1.2025,-4.14,36.84,5.82
-0.054481,-9.8066,-1.3348,0.62033,-1.675,1.4019,-3.66,36.78,5.82
-0.7355,-9.2074,-0.8036,0.39584,-0.48808,1.4505,-3.18,36.78,5.7
-0.74912,-8.6625,-0.92618,0.27855,0.83322,1.4432,-2.46,37.02,5.34
-0.081722,-8.54,-1.2667,0.2251,2.0953,1.4759,-2.04,37.2,4.98
1.6889,-6.6059,-1.7162,0.42272,3.3121,1.4609,-0.78,37.38,4.56
2.5061,-5.7478,-1.8387,0.68386,3.5476,1.4988,-0.06,37.32,4.56
3.0646,-5.38,-1.7979,0.78343,3.4624,1.5421,0.6,37.38,4.44
4.2495,-4.7944,-1.6072,0.9331,2.4716,1.5797,2.34,37.5,4.26
4.5356,-4.5764,-1.58,0.95936,1.4068,1.5052,3.12,37.56,4.26
4.6037,-4.5083,-1.58,1.0015,0.30513,1.4401,4.14,37.56,4.38
4.1814,-4.8352,-1.7979,1.1176,-1.0861,1.416,6.3,37.26,4.2
3.8001,-5.3256,-2.0158,1.2315,-1.7181,1.4016,7.32,37.08,4.14
3.0373,-6.7421,-2.5061,1.3457,-2.113,1.4334,8.22,36.9,3.9
2.4925,-9.616,-3.3506,1.438,-2.2446,1.5797,10.56,36.48,3.48
2.2337,-12.572,-3.7047,1.4905,-2.1765,1.795,11.7,36.24,3.06
2.3291,-14.601,-4.1951,1.4948,-1.89,1.9633,12.9,36.0,2.64
2.3836,-16.14,-4.1678,1.2856,-0.84574,2.0107,15.0,35.64,1.32
2.3427,-15.473,-3.9227,0.89614,0.16585,1.77,16.2,35.46,0.42
3.1463,-14.233,-4.0452,0.39828,1.0354,1.1408,17.22,35.16,-0.36
4.2087,-12.681,-3.4187,0.2025,1.3689,0.68661,18.24,34.8,-1.08
4.5764,-11.564,-3.1872,0.13867,1.3522,-0.58704,20.04,34.26,-2.64
4.0861,-12.122,-3.8954,0.21319,0.84605,-1.2437,20.7,33.96,-3.42
4.127,-12.803,-4.522,0.064141,0.29291,-1.7565,21.24,33.78,-3.96
4.5901,-12.204,-4.3585,-0.54856,-0.58796,-2.095,22.08,33.54,-4.98
4.4266,-11.7,-3.7728,-0.82009,-1.1832,-2.0027,22.32,33.48,-5.34
3.8273,-11.85,-3.2825,-0.97494,-1.6924,-1.8946,22.5,33.54,-5.82
2.2474,-12.939,-2.8603,-1.2437,-1.9477,-1.8399,22.08,33.42,-6.24
1.6072,-13.362,-2.5742,-1.5773,-1.8805,-1.8033,21.84,33.42,-6.18
1.1305,-13.103,-2.0431,-1.8448,-1.4835,-1.81,21.36,33.42,-6.0
1.2667,-12.04,-1.6072,-1.9737,-0.66768,-1.7761,19.68,33.54,-5.52
1.8387,-11.346,-1.2939,-1.9621,-0.41264,-1.6713,18.6,33.78,-4.98
1.866,-10.828,-1.2803,-1.8931,0.0094684,-1.5907,17.46,34.2,-4.5
2.3155,-9.2074,-1.0215,-1.8091,0.31765,-1.6466,15.0,34.68,-3.48
2.6696,-8.1858,-0.84446,-1.7013,0.27336,-1.7306,13.74,34.98,-3.0
2.9011,-7.4776,-0.61292,-1.6038,0.087354,-1.81,12.3,35.28,-2.46
2.8058,-6.674,-0.50395,-1.4963,-0.32529,-1.9386,9.54,35.88,-1.44
2.6423,-6.5378,-0.40861,-1.4481,-0.62125,-1.9813,8.22,36.24,-1.02
2.547,-6.6467,-0.44947,-1.42,-0.90866,-1.9645,6.84,36.3,-0.36
2.2201,-7.2052,-0.38137,-1.4016,-1.1099,-1.8937,4.56,36.36,0.96
1.866,-7.641,-0.31327,-1.3885,-1.1533,-1.7779,3.36,36.36,1.5
1.4165,-8.4446,-0.17706,-1.3714,-1.0409,-1.6151,2.28,36.3,2.04
1.0215,-10.065,-0.054481,-1.3384,-0.58918,-1.222,0.42,36.12,3.42
0.6674,-11.659,0.12258,-1.2795,-0.12156,-0.85032,-0.24,35.88,4.02
0.61292,-12.299,0.23155,-1.1713,0.45632,-0.416,-0.9,35.58,4.62
0.77636,-13.13,0.54481,-0.99754,1.0757,0.062919,-2.16,34.98,5.7
1.2667,-12.817,0.57205,-0.70983,1.6261,0.5901,-2.76,34.62,6.3
2.0294,-12.299,0.27241,-0.30696,1.8912,1.0947,-3.18,34.38,6.78
3.2144,-11.713,-0.32689,0.3824,1.6579,1.7046,-3.96,33.48,7.92
3.6775,-11.387,-0.49033,0.83689,1.1072,1.9181,-4.14,33.18,8.22
3.8818,-11.06,-0.91256,1.223,0.2868,1.9361,-4.32,32.94,8.58
4.0316,-9.8748,-1.6344,1.5104,-0.68417,1.8442,-4.44,32.64,8.94
3.7184,-9.507,-1.9886,1.7275,-1.5941,1.6735,-4.26,32.58,8.94
3.1191,-9.8066,-2.4108,1.8677,-2.3561,1.5055,-4.14,32.7,9.0
2.152,-10.515,-2.7513,1.8149,-2.8582,1.3506,-3.54,33.06,8.58
0.89894,-10.665,-2.547,1.6399,-2.5959,1.2963,-3.3,33.18,8.22
0.35413,-10.569,-2.438,1.4178,-1.9022,1.266,-2.94,33.3,7.8
-0.61292,-10.351,-2.0022,1.2052,-0.87445,1.2456,-2.46,33.48,7.44
-0.92618,-9.8203,-2.152,1.0568,0.31673,1.2184,-1.2,33.96,6.48
-0.44947,-9.4117,-2.3972,1.0064,1.4597,1.2431,-0.48,34.02,6.12
1.1169,-8.4446,-2.9148,1.0073,2.3237,1.3399,0.42,34.2,5.64
2.0022,-7.9407,-3.051,1.0941,2.978,1.5614,2.4,34.26,4.74
3.1463,-7.2324,-3.1054,1.0849,2.8518,1.7202,3.42,34.44,4.38
3.514,-6.8102,-3.1191,1.0073,2.3164,1.8289,4.44,34.5,3.78
4.2223,-6.17,-3.1599,0.89644,1.5275,1.8518,5.52,34.62,3.3
4.413,-5.6661,-3.1463,0.84116,0.70311,1.7706,7.86,34.56,2.76
4.0452,-5.598,-3.0646,0.81673,0.0051924,1.6335,9.06,34.38,2.34
3.2825,-6.4424,-3.2416,0.83291,-0.56719,1.4022,11.52,34.26,1.74
3.0237,-7.3414,-3.5413,0.81612,-0.6634,1.2892,12.78,34.14,1.32
2.7649,-8.6081,-3.6775,0.81184,-0.63438,1.2391,13.98,34.08,0.84
2.5061,-11.128,-3.9499,0.7309,-0.24648,1.1139,16.2,33.78,0.36
2.5334,-12.476,-4.0316,0.57116,0.19181,1.0235,17.4,33.6,-0.42
2.8467,-13.443,-4.0589,0.34819,0.68203,0.83627,18.36,33.42,-0.9
3.4187,-13.184,-3.7047,0.09896,1.241,0.40439,20.16,33.3,-1.68
3.9499,-12.776,-3.4596,0.045815,1.3112,0.08827,20.7,33.12,-2.04
4.1814,-12.612,-3.4459,0.021991,1.2462,-0.063835,21.48,32.88,-2.22
4.6718,-11.822,-3.5822,-0.03146,0.74617,-0.54947,22.5,32.4,-2.76
4.5901,-11.414,-3.5413,-0.028711,0.23976,-0.81764,22.8,32.28,-3.0
4.1678,-11.332,-3.3778,-0.007025,-0.23671,-1.0018,23.16,32.16,-3.06
3.514,-11.319,-3.3778,-0.1127,-0.79321,-1.2318,23.28,31.92,-3.3
3.4596,-11.182,-3.4868,-0.16157,-1.1313,-1.2929,23.34,31.74,-3.24
3.5413,-11.101,-3.5685,-0.25992,-1.5348,-1.2859,23.1,31.68,-3.12
3.6775,-10.624,-3.1872,-0.3882,-1.9551,-1.262,22.8,31.68,-3.0
3.514,-10.774,-2.8603,-0.47037,-2.3469,-1.1958,22.32,31.74,-3.0
3.3778,-12.04,-2.7377,-0.60873,-2.6567,-1.0892,21.9,31.74,-2.88
3.3778,-13.661,-2.5742,-0.9276,-2.927,-0.99418,20.52,31.86,-2.7
3.1327,-14.451,-2.0294,-1.0489,-2.926,-0.96731,19.86,31.86,-2.58
3.0646,-14.628,-1.757,-1.2853,-2.7297,-0.95081,19.08,32.04,-2.46
2.1248,-14.097,-1.0624,-1.6612,-1.952,-1.0968,17.28,32.28,-2.04
1.6617,-12.871,-0.92618,-1.8647,-1.1851,-1.3274,16.32,32.34,-1.92
1.4301,-11.264,-0.89894,-1.9691,-0.33506,-1.6472,15.24,32.52,-1.68
1.6753,-8.2812,-0.7355,-1.9487,0.6805,-2.1765,13.26,32.94,-1.26
1.8524,-7.3005,-0.70826,-1.843,1.0696,-2.4969,12.12,33.3,-1.08
2.1384,-6.6331,-0.50395,-1.7113,1.1887,-2.7599,11.1,33.48,-0.84
2.6015,-6.0066,-0.57205,-1.573,1.0104,-2.9056,8.7,33.6,-0.36
2.8603,-5.8023,-0.61292,-1.4145,0.54306,-2.9435,7.5,33.66,0.12
2.9965,-5.8704,-0.78998,-1.2764,-0.11026,-2.8595,6.42,33.78,0.48
2.6832,-6.5786,-0.7355,-1.1289,-1.1298,-2.5143,4.56,33.66,1.26
2.0294,-7.3822,-0.64016,-1.095,-1.5815,-2.1811,3.6,33.54,1.68
1.58,-7.9134,-0.51757,-1.0696,-1.7559,-1.7572,2.64,33.36,2.22
0.83084,-9.3844,-0.40861,-1.0821,-1.7404,-1.5171,1.56,33.24,2.64
0.21793,-11.087,-0.21793,-1.0913,-1.2263,-0.68478,0.06,32.88,3.72
-0.32689,-11.713,0.1362,-1.0525,-0.46426,-0.074831,-0.66,32.52,4.08
-0.25879,-11.482,0.39499,-0.89156,1.1374,0.76297,-1.8,31.62,5.28
0.1362,-10.978,0.39499,-0.62889,2.19,1.2281,-2.1,31.08,5.88
1.2531,-11.114,0.38137,-0.25717,2.8634,1.6338,-2.46,30.66,6.42
1.8932,-11.359,0.21793,0.18601,3.0751,2.0039,-2.7,30.3,6.96
3.3778,-12.19,-0.38137,0.67195,2.7672,2.31,-2.94,29.7,7.8
4.1542,-12.381,-0.81722,1.1594,1.9077,2.5516,-3.06,29.52,8.1
4.7399,-12.599,-1.4574,1.5495,0.63133,2.7275,-2.94,29.52,8.52
4.9578,-11.836,-2.6696,1.9612,-1.4557,2.7965,-2.58,29.58,8.64
4.3449,-11.427,-2.942,2.1182,-2.5433,2.678,-2.1,29.76,8.46
3.4187,-11.182,-3.051,2.0766,-3.0516,2.5345,-1.44,29.82,8.28
1.3076,-10.924,-2.4925,1.8714,-2.8005,2.3921,-0.48,30.18,7.2
0.27241,-10.665,-1.975,1.5776,-2.0113,2.1359,0.12,30.48,6.66
-0.38137,-10.065,-1.7706,1.3369,-0.9163,1.8109,0.72,30.66,6.18
0.10896,-9.5615,-1.9477,1.153,0.85063,1.514,2.16,31.02,4.98
1.0351,-9.6023,-2.3018,1.0623,1.8039,1.3931,3.0,31.08,4.5
1.5391,-9.4798,-2.5742,0.9783,2.459,1.2599,3.84,31.26,3.96
3.0918,-7.9679,-3.1191,0.98349,2.7306,1.1817,5.88,31.5,2.7
3.8001,-7.2052,-3.0373,1.0021,2.5772,1.1915,7.02,31.56,2.22
4.1951,-6.7012,-2.9284,0.98349,2.0452,1.2236,8.1,31.5,1.74
4.3858,-6.2245,-2.8739,0.9221,0.89889,1.1521,10.08,31.5,0.78
4.2223,-6.2109,-2.9965,0.91049,0.1799,1.0232,11.04,31.38,0.42
3.6911,-6.4969,-3.0782,0.89339,-0.28772,0.93187,11.94,31.32,0.06
2.9011,-7.6002,-3.3642,0.88331,-0.55589,0.87904,14.04,31.02,-0.18
2.5742,-8.7306,-3.3506,0.85124,-0.59651,0.85521,14.94,30.72,-0.6
2.2882,-10.433,-3.4732,0.7761,-0.40806,0.84819,15.9,30.54,-0.9
2.4925,-12.449,-3.5277,0.65301,-0.083994,0.81123,17.64,30.3,-1.68
2.9284,-14.233,-3.2144,0.53451,0.37538,0.62797,18.42,30.12,-2.1
3.1463,-14.955,-3.0918,0.32559,0.60995,0.3989,19.26,29.94,-2.52
3.4459,-13.77,-1.7979,0.043677,0.73273,0.022297,20.28,29.82,-3.12
3.5413,-12.408,-1.3757,-0.08491,0.74128,-0.4328,20.58,29.76,-3.48
3.2961,-11.25,-1.1713,-0.09896,0.56719,-0.8714,20.88,29.58,-3.78
1.7706,-10.406,-1.3893,0.014355,0.1347,-1.303,21.42,29.34,-4.2
1.3757,-10.12,-1.6072,-0.0058032,0.03207,-1.3668,21.72,29.16,-4.38
1.2122,-9.3436,-2.0703,0.016188,-0.03543,-1.4261,21.78,29.16,-4.56
2.1793,-8.2539,-2.3836,0.10751,0.002138,-1.2544,21.66,29.1,-4.92
2.5061,-8.1586,-2.6015,0.13225,-0.1573,-0.96944,21.48,29.16,-4.8
2.3291,-8.1858,-2.9011,0.08827,-0.45754,-0.71929,21.3,29.22,-4.92
1.7025,-8.4174,-2.6151,-0.02138,-0.46976,-0.50396,20.76,29.22,-4.68
2.0567,-9.1937,-2.2337,-0.135,-0.21075,-0.30849,20.28,29.28,-4.62
2.6287,-9.6704,-2.0839,-0.19823,-0.18265,-0.24007,19.92,29.4,-4.44
3.3506,-10.542,-2.0839,-0.39554,-0.14447,-0.16799,19.62,29.4,-4.32
3.7047,-11.305,-2.3972,-0.49724,-0.14813,-0.10782,19.02,29.28,-3.84
3.9908,-11.632,-2.5334,-0.57116,-0.12462,-0.21594,18.66,29.4,-3.6
4.4947,-10.665,-2.1112,-0.85521,0.14416,-0.6805,17.88,29.52,-3.18
3.9363,-9.6704,-1.7025,-1.0617,0.56474,-1.0718,17.28,29.58,-2.94
3.3506,-9.0984,-0.68102,-1.1081,0.551,-1.5238,16.86,29.64,-2.76
3.0237,-7.6002,-0.36775,-1.1906,0.15638,-2.1756,16.26,29.64,-2.28
2.942,-8.2948,-2.6287,-1.0259,-0.22999,-2.7019,15.06,30.0,-1.62
3.9635,-9.3436,-2.1112,-1.2254,-0.01741,-2.5488,14.46,30.36,-1.38
4.0997,-9.507,-1.7434,-1.296,-0.042761,-2.4819,13.86,30.6,-1.2
1.7298,-11.373,-1.3757,-1.2993,-0.41417,-2.6093,12.48,31.32,-0.66
1.7706,-12.585,-0.89894,-1.4435,-0.3146,-2.3741,11.88,31.68,-0.48
2.1112,-13.334,-0.61292,-1.5308,-0.27336,-2.2245,11.1,32.1,-0.06
1.5936,-14.097,-0.64016,-1.5339,-0.14203,-1.9514,9.6,32.7,0.36
1.4165,-14.152,-0.68102,-1.4138,0.1405,-1.4838,8.82,32.82,0.6
1.58,-13.293,-0.47671,-1.2049,0.41478,-1.0198,8.16,32.94,1.02
2.0567,-12.054,-0.31327,-0.74953,0.58002,-0.32712,6.9,33.36,1.56
2.4925,-11.632,-0.19068,-0.42516,0.41936,0.11057,6.42,33.42,1.92
2.7241,-11.577,-0.19068,-0.25962,0.23702,0.31154,6.0,33.6,2.1
3.2008,-11.182,-0.72188,0.17532,-0.60842,0.77336,5.34,33.54,2.7
3.1872,-10.774,-1.0896,0.38759,-1.2556,0.98044,5.1,33.48,3.06
2.9011,-9.9973,-1.4165,0.50152,-1.7312,1.0589,4.92,33.42,3.3
1.7979,-9.3027,-1.4574,0.48411,-1.9633,1.0715,4.92,33.24,3.78
1.1032,-9.3436,-1.3484,0.32834,-1.6976,1.1087,4.92,33.18,3.96
0.57205,-9.4253,-1.0624,0.10232,-1.1967,1.0919,4.98,33.0,3.9
0.040861,-9.4389,-0.89894,-0.10721,-0.53695,1.0617,5.28,32.82,3.84
0.040861,-9.3163,-1.0079,-0.30177,0.2306,1.1054,5.52,32.82,3.78
0.42223,-8.1858,-1.1986,-0.41447,0.98044,1.2165,5.64,32.82,3.66
1.2122,-7.6002,-1.1577,-0.34697,1.7733,1.4029,5.94,32.7,3.96
1.8251,-6.8919,-1.1986,-0.21258,2.0455,1.5098,6.12,32.52,4.26
2.1384,-6.5514,-1.185,-0.050702,2.0669,1.6142,6.36,32.4,4.44
2.6015,-5.8567,-1.2258,0.11881,1.9004,1.6671,6.9,31.98,4.92
2.8875,-5.7069,-1.185,0.25045,1.5718,1.6906,7.26,31.74,5.1
3.0101,-5.6116,-1.2803,0.39218,1.1707,1.6967,7.56,31.56,5.4
3.0918,-5.5435,-1.6208,0.59682,0.53909,1.6851,8.46,30.84,6.0
3.0646,-5.7614,-1.6753,0.67256,0.34819,1.6921,8.94,30.6,6.42
2.9965,-6.3743,-2.0839,0.83017,-0.0042761,1.6936,9.66,30.42,6.84
2.9965,-7.8589,-2.833,1.0318,-0.47312,1.7248,10.98,29.82,7.86
2.9011,-8.8124,-3.0918,1.149,-0.74678,1.7895,11.82,29.58,8.1
2.7922,-9.8475,-3.4051,1.2416,-0.92638,1.9395,13.5,29.04,7.98
2.6696,-11.06,-3.6775,1.2911,-0.99418,2.0327,13.5,29.04,7.98
2.6696,-11.06,-3.6775,1.2141,-0.78221,2.0757,13.5,29.04,7.98
2.4653,-13.048,-4.0589,1.0467,-0.32467,2.003,14.76,28.68,7.74
2.4108,-12.64,-3.8682,0.85063,0.26725,1.7544,17.1,28.02,6.96
2.4925,-12.326,-3.8682,0.6466,0.86773,1.3179,18.3,27.84,6.3
3.4187,-11.455,-3.6639,0.51435,1.2914,0.82497,20.46,27.18,5.4
4.9033,-11.645,-3.8954,0.48533,1.3677,0.13928,22.5,26.7,4.32
5.1894,-11.809,-4.1951,0.36499,0.81153,-0.22969,23.28,26.52,4.08
5.8704,-11.509,-4.3449,0.20983,0.11515,-0.53787,24.96,25.98,2.94
5.6388,-10.542,-3.7592,0.0094684,-0.66859,-0.70494,26.52,25.68,2.04
5.1894,-10.447,-3.228,-0.065057,-1.4041,-0.79168,27.72,25.44,1.68
4.5083,-11.455,-3.051,-0.12706,-1.9988,-0.87965,28.08,25.14,1.38
4.018,-12.108,-2.9011,-0.28405,-2.3402,-0.98563,27.84,25.14,1.26
3.8818,-12.313,-2.7922,-0.63866,-2.3766,-1.1029,27.78,25.08,1.26
3.1735,-12.286,-2.3155,-0.83933,-2.1038,-1.2404,27.36,25.32,1.08
2.6151,-11.645,-2.0431,-1.0302,-1.6808,-1.4148,26.82,25.44,0.78
2.3563,-10.569,-1.8387,-1.1668,-1.1848,-1.6188,25.92,25.62,0.42
2.438,-9.4117,-1.4438,-1.2691,-0.73059,-1.8298,24.9,26.04,0.36
2.4517,-8.2812,-1.3076,-1.3018,-0.38362,-2.0565,23.58,26.4,0.3
2.4789,-7.4503,-1.0896,-1.3088,-0.17929,-2.3421,22.14,26.64,0.42
2.6696,-7.1643,-1.1169,-1.2718,-0.19059,-2.4056,21.54,26.88,0.36
2.8194,-6.8102,-1.1441,-1.1698,-0.47189,-2.5104,20.28,27.72,0.72
2.8194,-7.1234,-1.1305,-1.0947,-0.80329,-2.452,19.44,28.08,1.02
2.6287,-7.5729,-1.2939,-1.0354,-1.146,-2.3277,17.82,28.8,1.2
2.3291,-8.5808,-1.2531,-1.0015,-1.4242,-2.1338,16.32,29.52,1.5
2.0158,-9.6568,-1.2531,-0.99174,-1.5644,-1.8821,15.6,29.88,1.56
1.362,-11.959,-1.0079,-1.0189,-1.5406,-1.5818,14.28,30.42,1.38
0.92618,-12.912,-0.83084,-1.2046,-1.0443,-1.1084,13.62,30.66,1.44
0.62654,-13.212,-0.57205,-1.3259,-0.39156,-0.81337,13.02,30.96,1.38
0.29965,-13.702,-0.23155,-1.3857,0.45571,-0.5736,11.94,31.32,1.5
0.35413,-13.579,-0.12258,-1.35,1.3412,-0.32559,11.4,31.56,1.5
0.8036,-13.103,-0.040861,-1.1701,2.0592,-0.11515,10.98,31.62,1.74
1.9341,-12.0,-0.12258,-0.86957,2.397,0.11606,10.2,31.8,2.04
3.1191,-12.081,-0.58567,-0.23702,2.0824,0.54,10.02,31.74,2.64
3.6911,-11.754,-0.92618,0.1799,1.3665,0.79351,9.78,31.68,2.88
3.9635,-11.114,-1.4438,0.53359,0.3485,0.95356,9.36,31.56,3.6
3.6366,-9.9837,-2.0431,0.76847,-0.7251,1.0504,9.18,31.62,4.26
3.1327,-9.5751,-2.0567,0.88514,-1.5589,1.0195,9.0,31.56,4.68
1.866,-9.1529,-2.1248,0.89736,-2.0739,0.9838,8.94,31.74,4.92
0.49033,-9.2618,-2.0431,0.76572,-2.0058,0.99021,8.94,31.92,4.8
0.040861,-9.1529,-1.9068,0.60079,-1.4826,0.94623,9.12,31.86,4.8
-0.57205,-8.7579,-1.8387,0.43066,-0.71044,0.89309,9.24,32.04,4.5
-0.38137,-7.464,-1.8524,0.32987,0.197,0.87293,9.6,32.1,4.08
0.054481,-6.7421,-2.0567,0.34728,1.0434,0.90286,9.6,32.16,3.9
0.054481,-6.7421,-2.0567,0.39095,1.3573,0.92241,9.78,32.22,3.9
1.6753,-5.6388,-2.3972,0.68081,1.9499,1.1014,10.92,32.28,3.66
2.261,-5.489,-2.4653,0.79596,1.9169,1.2843,11.16,32.1,3.78
2.9965,-5.5843,-2.4925,0.83841,1.6579,1.4878,11.88,31.92,4.02
3.6366,-5.6116,-2.6696,0.82222,1.1894,1.6335,12.72,31.32,4.44
3.7456,-5.598,-2.656,0.79046,0.63377,1.6857,13.08,31.08,4.62
3.5685,-5.5435,-2.5742,0.77336,0.10843,1.616,14.16,30.84,4.86
3.1599,-6.0202,-2.5742,0.80176,-0.29566,1.4316,15.42,30.36,4.92
2.8467,-7.2869,-2.7513,0.86071,-0.63163,1.3069,16.8,30.0,4.92
2.7104,-8.0632,-2.8875,0.88942,-0.64416,1.2022,17.46,29.76,4.62
2.4789,-10.379,-3.2825,0.88178,-0.49144,1.1435,18.66,29.46,4.44
2.4517,-12.272,-3.7728,0.84605,-0.28772,1.0782,20.04,29.16,3.72
2.4789,-13.416,-4.1406,0.77672,-0.10934,0.98349,21.3,28.8,2.82
2.3972,-13.225,-4.0861,0.67134,0.089492,0.88575,21.84,28.62,2.22
2.3291,-12.83,-3.8682,0.62766,0.45296,0.72265,23.1,28.5,1.5
2.4653,-12.844,-4.0044,0.61789,0.55314,0.60873,23.52,27.78,0.78
3.1054,-12.776,-4.3585,0.56566,0.52473,0.47556,24.42,27.6,0.36
3.3506,-11.986,-4.3449,0.50091,0.38943,0.39309,25.02,27.0,-0.12
3.2008,-10.474,-4.1951,0.47312,0.20769,0.29993,25.74,26.76,-0.6
3.2553,-10.433,-4.2359,0.49633,-0.010079,0.1686,26.1,26.46,-0.84
3.2825,-10.637,-4.2223,0.46151,-0.39126,0.029016,26.34,26.16,-1.5
3.5958,-10.842,-4.2495,0.3824,-0.72357,-0.0027489,26.76,26.1,-1.92
4.0861,-10.474,-4.4539,0.24374,-1.1484,-0.0064141,27.0,25.92,-2.28
4.0725,-10.134,-4.1406,0.036652,-1.5806,-0.019853,26.94,25.86,-2.58
4.0452,-10.052,-3.9363,-0.11057,-1.9554,-0.047647,27.06,25.92,-2.94
4.2904,-11.278,-3.7728,-0.28527,-2.2364,-0.10446,27.0,26.04,-3.24
4.5083,-11.904,-3.732,-0.67501,-2.5662,-0.26664,26.88,26.1,-3.78
4.6582,-12.967,-2.9692,-1.0259,-2.6848,-0.38759,26.58,26.4,-4.56
4.0861,-13.021,-2.261,-1.4294,-2.5983,-0.55772,26.34,26.34,-4.92
2.9965,-12.667,-1.471,-1.7617,-2.2349,-0.80512,25.74,26.7,-5.46
2.1656,-12.068,-0.95342,-1.9743,-1.6081,-1.1002,25.08,27.0,-5.94
2.152,-11.673,-0.91256,-2.1344,-0.86101,-1.3583,24.06,27.42,-6.24
2.3018,-11.005,-0.9398,-2.299,0.23213,-1.6729,23.52,27.72,-6.24
2.5061,-9.8339,-0.61292,-2.2315,0.82894,-1.8952,22.26,28.56,-6.18
2.7513,-9.0031,-0.36775,-2.0714,1.1744,-2.0638,21.48,28.86,-6.12
3.1735,-7.8317,-0.14982,-1.8696,1.2361,-2.1606,20.04,29.7,-5.52
3.4868,-7.246,0.20431,-1.6576,0.99785,-2.2022,18.42,30.6,-4.86
3.6911,-6.8238,0.58567,-1.4526,0.52565,-2.1808,16.62,31.68,-3.9
3.7728,-6.5922,0.51757,-1.1551,-0.42302,-1.9865,15.78,32.04,-3.6
3.6775,-6.5378,0.49033,-0.96211,-1.0669,-1.7443,13.86,32.82,-2.34
3.2416,-6.7012,0.6674,-0.76725,-1.6209,-1.4478,12.24,33.54,-1.14
3.0237,-6.8647,0.74912,-0.57574,-2.0113,-1.1567,11.28,33.96,-0.54
2.656,-7.1779,0.84446,-0.39706,-2.16,-0.85735,9.66,34.44,0.36
2.6151,-7.641,0.8036,-0.22969,-2.1341,-0.55039,8.1,34.74,1.38
2.7377,-7.7091,0.81722,-0.0027489,-1.8955,-0.16554,6.66,35.16,2.04
2.7786,-7.6683,0.8036,0.13195,-1.6808,0.024129,6.12,35.28,2.22
2.9965,-7.7636,0.69464,0.27153,-1.4737,0.16799,5.28,35.64,2.58
3.2144,-7.6683,0.6674,0.41844,-1.3308,0.26512,4.8,35.64,2.64
3.5822,-7.6002,0.64016,0.57727,-1.2929,0.30543,4.38,36.0,2.82
3.9227,-8.0769,0.36775,0.76297,-1.3781,0.29841,4.2,36.12,2.82
4.1814,-8.6762,0.040861,1.0492,-1.6664,0.23824,4.14,36.18,2.7
4.2495,-8.9894,-0.54481,1.222,-1.9438,0.16921,4.14,36.24,2.76
4.5764,-9.4798,-1.5391,1.3564,-2.2663,0.082467,4.44,36.54,2.22
4.413,-11.141,-1.9613,1.4487,-2.5772,0.0012217,4.92,36.6,1.5
3.8546,-11.673,-2.1248,1.4508,-2.7868,-0.054062,4.92,36.6,1.02
3.1599,-12.163,-2.5334,1.368,-2.77,-0.12553,5.1,36.42,0.24
2.4108,-12.04,-3.2553,1.1353,-2.386,-0.34117,5.28,36.54,-0.6
1.7979,-12.122,-3.7456,1.0241,-1.9853,-0.50732,5.16,36.6,-1.56
1.6072,-12.422,-4.1814,0.87965,-1.5079,-0.67012,5.16,36.54,-2.04
1.2667,-11.141,-4.7671,0.55375,-1.0235,-0.91263,4.8,36.6,-3.0
1.1032,-9.3844,-4.8625,0.35125,-0.5846,-1.2217,4.14,36.48,-3.96
1.185,-8.9486,-4.6718,0.25717,-0.30238,-1.4975,3.66,36.48,-4.32
1.5527,-8.7851,-4.3177,0.25931,-0.38423,-1.7452,2.64,36.48,-5.16
1.58,-9.4798,-4.3585,0.41966,-1.0507,-1.9251,1.74,36.36,-5.46
1.5936,-10.025,-4.4402,0.45296,-1.66,-1.8589,1.02,36.3,-5.64
1.1713,-11.128,-4.413,0.34911,-2.182,-1.6506,-0.42,36.3,-5.82
0.36775,-10.828,-4.3449,0.30268,-2.492,-1.3289,-2.04,36.18,-5.94
-0.24517,-10.406,-4.0861,0.34483,-2.4746,-0.97128,-2.88,36.06,-5.88
-0.98067,-8.8941,-3.4459,0.38637,-2.1524,-0.64019,-4.44,35.94,-5.88
-0.8036,-8.0905,-3.2416,0.37996,-1.6982,-0.32467,-5.16,35.76,-5.52
-0.50395,-7.6683,-3.0237,0.40164,-1.073,0.002138,-5.82,35.76,-5.34
0.47671,-7.3141,-2.9692,0.42669,-0.86468,0.14508,-6.9,35.4,-5.34
1.1169,-7.5457,-2.9284,0.43707,-0.86071,0.27031,-7.38,35.28,-5.1
1.58,-7.7091,-2.9011,0.4273,-1.0134,0.38393,-7.92,35.1,-4.8
2.3155,-8.3901,-2.9965,0.4328,-1.2266,0.51404,-8.58,34.98,-4.62
2.5334,-8.7987,-3.0101,0.42822,-1.4526,0.6692,-8.82,35.04,-4.5
2.6287,-8.8805,-3.0646,0.40409,-1.7428,0.81948,-8.88,34.98,-4.62
2.4789,-9.0575,-3.0782,0.37782,-1.8201,0.83505,-8.88,35.22,-4.62
2.4789,-9.1529,-3.0373,0.32651,-1.7859,0.81948,-8.82,35.22,-4.56
2.4925,-9.1937,-3.1872,0.25351,-1.6961,0.7532,-8.4,35.22,-4.56
2.5606,-9.1393,-3.228,0.11851,-1.5412,0.5678,-8.16,35.4,-4.5
2.547,-9.0303,-3.228,0.02138,-1.4444,0.40134,-8.04,35.64,-4.62
2.4517,-8.9622,-3.4459,-0.061697,-1.3494,0.22877,-7.62,36.06,-4.5
2.3291,-8.9349,-3.4187,-0.17532,-1.244,0.066584,-7.38,36.36,-4.38
2.261,-8.8668,-3.2961,-0.27214,-1.1005,-0.081856,-7.14,36.54,-4.2
2.1112,-8.7715,-3.1599,-0.36255,-0.93707,-0.24038,-6.9,36.9,-4.08
2.0975,-8.8124,-3.0373,-0.44654,-0.64171,-0.30757,-6.72,37.2,-3.9
2.0567,-8.8941,-2.9284,-0.48564,-0.40256,-0.37171,-6.72,37.2,-3.72
2.1384,-8.9077,-2.6287,-0.50274,-0.27306,-0.40959,-6.6,37.26,-3.36
2.4108,-9.1937,-2.0431,-0.42638,0.053145,-0.49175,-6.78,37.2,-2.64
2.6696,-10.011,-1.8796,-0.31643,0.17715,-0.48839,-6.9,37.32,-2.4
3.0237,-10.801,-1.7706,-0.27458,0.26328,-0.44807,-7.5,37.44,-1.8
4.0316,-10.556,-2.0158,-0.13073,0.219,-0.30665,-7.8,37.32,-1.56
4.6445,-8.9894,-2.0839,-0.0064141,-0.036957,-0.28314,-8.04,37.26,-1.26
4.8352,-8.1041,-1.8387,0.12401,-0.46304,-0.34422,-8.4,37.14,-1.02
4.8488,-7.4776,-0.46309,0.25687,-1.0116,-0.45662,-9.0,36.96,-0.42
4.9306,-8.7306,-0.35413,0.40256,-1.6619,-0.57605,-9.36,36.9,-0.42
5.2166,-10.27,-1.1577,0.4328,-2.7584,-0.64385,-10.08,36.72,-0.06
6.3743,-11.7,-1.4574,0.46426,-3.4908,-0.59895,-10.44,36.48,-0.06
6.4697,-12.027,-1.3484,0.50274,-4.1246,-0.56474,-10.8,36.36,0.18
6.0202,-12.149,-0.89894,0.3821,-4.5027,-0.67898,-11.28,36.18,0.36
4.3858,-11.959,-0.38137,0.14569,-4.4111,-0.87873,-12.06,36.0,0.54
3.2553,-11.468,-0.14982,-0.14203,-3.9227,-1.1173,-12.48,35.76,0.9
2.3155,-10.842,-0.50395,-0.37507,-3.2183,-1.445,-12.84,35.52,1.14
2.2337,-10.202,-0.70826,-0.59895,-2.0708,-1.8775,-13.86,35.1,1.86
2.5334,-10.147,-0.78998,-0.66829,-1.5601,-1.974,-14.22,34.74,2.22
2.656,-10.243,-0.88532,-0.69486,-1.2404,-2.0134,-14.58,34.32,2.7
3.0101,-10.243,-0.95342,-0.64477,-1.1432,-1.9975,-15.12,33.72,2.94
3.5277,-10.379,-0.76274,-0.56413,-1.2608,-1.8827,-16.38,32.76,3.78
3.6911,-10.515,-0.53119,-0.4893,-1.5391,-1.6848,-17.04,32.22,4.14
3.514,-10.624,-0.36775,-0.42302,-1.8595,-1.4725,-18.24,31.14,5.34
3.1191,-10.569,-0.44947,-0.36713,-2.0977,-1.3176,-18.78,30.66,5.82
2.8467,-10.147,-0.64016,-0.33995,-2.1548,-1.2123,-19.26,30.06,6.18
2.4789,-9.6432,-0.64016,-0.32009,-2.0,-1.2132,-20.4,28.62,7.26
2.1929,-9.5479,-0.6674,-0.34208,-1.7199,-1.2706,-20.88,27.96,7.74
1.8932,-9.7385,-0.83084,-0.34208,-1.1955,-1.4138,-21.84,26.64,8.52
1.6889,-10.501,-0.92618,-0.29535,-0.86101,-1.467,-22.26,25.98,8.94
1.7162,-11.441,-1.1713,-0.21136,-0.62797,-1.4316,-22.68,25.26,9.3
1.7025,-11.836,-1.2531,-0.16066,-0.57849,-1.3803,-23.16,24.66,9.66
1.5527,-12.694,-1.4165,0.080023,-0.59223,-1.0861,-23.82,23.52,10.5
1.0624,-12.871,-1.3212,0.29108,-0.63713,-0.78679,-24.12,22.98,10.74
0.40861,-12.912,-1.2395,0.50977,-0.63377,-0.40225,-24.42,22.56,10.98
-0.1362,-11.741,-1.2395,0.76083,-0.48442,0.15485,-24.9,21.54,11.22
0.31327,-11.673,-2.0022,1.2865,-0.35797,0.48472,-25.14,21.12,11.28
0.89894,-11.686,-2.8058,1.4337,-0.46151,0.63988,-25.5,20.88,11.4
1.3484,-11.141,-3.732,1.6441,-1.2358,0.79504,-25.68,20.64,11.22
0.8036,-10.746,-3.623,1.4997,-1.7245,0.748,-25.86,20.64,10.98
-0.74912,-10.243,-2.8467,1.0941,-1.8384,0.67837,-25.92,20.58,10.74
-2.6968,-9.7522,-1.5391,0.57971,-1.5473,0.34575,-25.98,20.88,10.5
-3.5958,-9.3844,-0.98067,-0.10018,-0.3204,0.14203,-26.16,21.12,10.26
-3.6366,-9.1256,-1.0624,-0.45937,0.78435,0.15211,-26.1,21.48,10.08
-2.6832,-9.1256,-1.2395,-0.70341,1.813,0.22022,-26.16,21.66,9.9
-0.65378,-9.4253,-1.7298,-0.92546,2.5806,0.20281,-26.4,22.08,9.42
0.54481,-9.0303,-1.8251,-0.97433,3.0754,0.17593,-26.34,22.14,9.36
1.7979,-7.9407,-1.757,-0.80756,3.0736,0.22969,-26.52,22.62,8.76
2.4517,-7.8453,-1.7162,-0.46701,2.6585,0.29199,-26.64,22.74,8.52
2.8058,-7.8998,-1.6072,-0.36133,2.3592,0.31032,-26.64,22.8,8.4
3.1191,-7.7636,-1.6617,-0.2025,1.6823,0.30696,-26.7,22.8,8.1
3.0101,-7.4095,-2.1112,-0.0097738,0.70311,0.27031,-26.94,22.74,7.56
2.8603,-7.2596,-2.2882,0.098349,0.2251,0.30604,-27.12,22.8,7.38
2.7241,-7.2188,-2.5334,0.19242,-0.11118,0.33995,-27.12,22.74,6.6
2.1384,-7.1098,-2.6696,0.27672,-0.2926,0.35277,-27.12,22.56,6.18
1.9886,-6.8374,-2.7922,0.28375,-0.20495,0.37599,-27.06,22.5,5.88
1.8932,-6.5786,-2.8058,0.31185,-0.020159,0.39156,-26.88,22.62,5.46
1.9477,-6.7285,-2.7922,0.34819,0.17654,0.44715,-26.52,22.74,4.8
2.0839,-7.0281,-2.9011,0.35247,0.32376,0.48961,-26.4,22.8,4.2
2.261,-7.5457,-3.3097,0.35613,0.35461,0.55405,-25.92,23.1,3.66
2.547,-8.145,-3.3915,0.36896,0.28924,0.58613,-25.56,23.28,3.36
2.6287,-8.6625,-3.3778,0.37507,0.20861,0.59682,-25.32,23.52,2.94
2.656,-8.9622,-3.4732,0.38912,0.12523,0.58613,-24.96,23.7,2.76
2.656,-9.7658,-3.7047,0.42211,0.046731,0.54062,-24.3,24.12,2.22
2.6423,-10.093,-3.8954,0.45693,-0.043982,0.46914,-23.88,24.24,1.98
2.6968,-10.501,-3.9771,0.50641,-0.13928,0.40897,-23.58,24.3,1.74
2.6968,-11.25,-4.2495,0.5284,-0.23793,0.34819,-22.92,24.72,1.38
2.5606,-11.387,-4.1542,0.49511,-0.23579,0.31276,-22.8,24.84,1.2
2.5061,-11.414,-3.9908,0.46059,-0.13622,0.25168,-22.5,25.02,0.9
2.4108,-11.795,-3.4732,0.46609,0.015272,0.17349,-22.02,25.2,0.12
2.5742,-12.503,-3.3506,0.47831,0.12004,0.14844,-21.78,25.26,0.12
3.1463,-13.375,-3.4732,0.46029,0.12004,0.18754,-21.54,25.44,-0.36
4.4539,-14.329,-4.1542,0.49388,-0.32437,0.35033,-21.24,25.44,-1.08
5.8704,-14.369,-4.6445,0.47525,-0.5901,0.40195,-21.06,25.44,-1.32
6.674,-13.866,-4.6037,0.33353,-1.2324,0.43402,-20.94,25.56,-1.74
6.279,-12.0,-2.4108,-0.16677,-1.8552,0.20464,-20.64,25.86,-2.28
4.9578,-11.332,-1.185,-0.47617,-2.0009,-0.13622,-20.7,25.98,-2.64
3.7865,-10.964,-0.81722,-0.62736,-1.963,-0.92821,-21.0,26.22,-2.94
2.9284,-11.387,-1.2803,-0.76175,-1.6466,-1.3369,-21.18,26.22,-3.06
2.942,-11.319,-1.5255,-1.0385,-1.2251,-1.4465,-21.24,26.22,-3.24
3.0237,-10.896,-1.4574,-1.1723,-0.9838,-1.4542,-21.54,26.1,-3.36
3.1735,-10.052,-1.4574,-1.2306,-0.38026,-1.5641,-21.84,26.16,-3.24
3.5958,-8.7579,-0.89894,-1.1417,-0.24679,-1.5983,-22.62,25.98,-3.06
3.6775,-8.3493,-0.5993,-1.0366,-0.31948,-1.5937,-23.04,25.86,-2.82
3.514,-7.9951,-0.38137,-0.93401,-0.55008,-1.6325,-23.64,25.68,-2.64
3.3778,-7.1779,-0.31327,-0.84391,-0.92852,-1.7501,-24.66,25.26,-2.4
3.1599,-6.8919,-0.24517,-0.79871,-1.1298,-1.7779,-25.26,24.96,-2.1
2.9284,-6.6604,-0.19068,-0.76419,-1.2724,-1.7773,-25.98,24.48,-1.74
2.4789,-6.5105,-0.28603,-0.74464,-1.3357,-1.7776,-27.24,23.46,-1.14
2.2882,-6.3879,-0.31327,-0.71746,-1.3234,-1.7575,-27.72,22.92,-0.9
2.1248,-6.674,-0.50395,-0.69486,-1.2779,-1.7278,-28.26,22.26,-0.42
1.9341,-7.3005,-0.6674,-0.66279,-1.1719,-1.631,-29.46,20.82,0.12
1.8251,-7.5865,-0.76274,-0.66126,-1.0449,-1.5024,-29.94,20.22,0.72
1.6617,-7.8453,-0.70826,-0.63988,-0.87659,-1.3457,-30.36,19.56,0.96
1.4029,-8.826,-0.68102,-0.59743,-0.67714,-1.1622,-31.2,18.18,1.62
1.2531,-9.4389,-0.61292,-0.52351,-0.43219,-0.93432,-31.62,17.4,2.04
1.0896,-9.7113,-0.58567,-0.41936,-0.10782,-0.65027,-31.74,16.74,2.46
0.92618,-10.433,-0.8036,-0.15058,0.4383,-0.16432,-32.28,15.24,3.3
1.0215,-10.924,-0.7355,0.075136,0.78496,0.22785,-32.52,14.58,3.6
1.2258,-11.25,-0.58567,0.19181,0.92332,0.44257,-32.64,14.04,3.9
1.4574,-11.795,-0.58567,0.61025,1.139,1.1341,-32.76,13.56,3.9
2.1929,-12.599,-0.68102,0.90683,1.0516,1.6078,-33.0,12.72,3.9
2.6968,-13.116,-0.83084,1.2037,0.68325,2.2458,-33.18,12.6,3.78
3.0918,-13.729,-1.185,1.4542,0.51588,2.4163,-33.12,12.84,3.54
3.337,-13.457,-1.6344,1.766,-0.061697,2.7156,-33.06,12.9,3.12
3.4596,-13.225,-2.0839,1.897,-0.52534,2.7263,-32.94,13.2,2.82
3.2416,-12.245,-3.6094,1.908,-0.97494,2.6221,-32.64,14.16,2.1
2.7104,-11.822,-3.7728,1.7269,-1.2004,2.4303,-32.52,14.76,1.68
1.8932,-11.482,-3.3234,1.3448,-0.92821,2.1912,-32.34,15.42,1.32
0.35413,-10.052,-1.9477,0.88911,-0.18845,1.8503,-31.98,17.28,0.54
0.24517,-9.398,-1.7298,0.56933,0.77946,1.4126,-31.56,18.12,0.24
0.50395,-9.3163,-2.0839,0.46548,2.135,0.82222,-31.08,18.96,0.06
1.2939,-9.8203,-2.8875,0.37385,2.8378,0.48808,-30.0,20.82,-0.18
1.8932,-9.6023,-3.0646,0.19456,3.3613,0.25779,-29.46,21.66,-0.24
2.7513,-8.5808,-3.0237,0.18815,3.445,0.13286,-28.26,23.1,-0.72
4.0589,-7.3414,-3.0646,0.25045,2.9248,0.18173,-27.48,23.58,-0.9
4.5901,-6.5378,-3.0101,0.26786,2.5122,0.24343,-26.82,24.24,-1.2
4.6445,-6.1836,-3.051,0.3262,1.5094,0.37202,-26.04,24.66,-1.32
3.8409,-5.6797,-3.0101,0.39034,0.012217,0.42364,-24.6,25.44,-2.28
3.1872,-5.6933,-3.0101,0.39767,-0.58399,0.37324,-23.76,25.68,-2.76
3.1872,-5.6933,-3.0101,0.3882,-0.86285,0.3598,-23.76,25.68,-2.76
1.6072,-6.6059,-2.9011,0.33384,-0.71502,0.36163,-22.44,26.1,-3.6
0.9398,-7.5457,-2.8875,0.32315,-0.52962,0.3653,-21.72,26.28,-3.9
0.8036,-8.322,-3.0101,0.26878,0.2642,0.45357,-20.76,26.52,-4.92
1.4574,-9.6704,-2.942,0.21044,0.81734,0.58551,-19.8,26.58,-5.94
1.9205,-10.12,-3.0918,0.22205,1.15,0.75869,-19.38,26.76,-6.54
2.833,-11.373,-3.1872,0.2364,1.2401,0.95417,-18.54,26.94,-7.32
3.6639,-11.891,-3.051,0.24312,1.1671,1.1069,-17.76,27.12,-8.04
3.9227,-11.768,-2.942,0.22755,0.87568,1.1509,-17.34,27.24,-8.4
4.2495,-11.087,-2.833,0.21625,0.68845,0.98105,-16.44,27.66,-8.76
4.2904,-10.188,-2.5742,0.22052,0.51924,0.68845,-15.6,27.96,-9.42
4.7126,-9.9973,-2.5879,0.28894,0.17593,0.30849,-14.58,28.32,-10.14
5.2575,-10.515,-3.1735,0.34239,-0.37477,-0.040317,-13.74,28.62,-10.62
6.6331,-11.659,-4.1678,0.34606,-1.2004,-0.32376,-13.08,28.98,-11.04
7.3958,-12.871,-3.6503,0.14783,-2.6783,-0.65576,-12.78,29.1,-11.4
6.8374,-13.375,-2.547,-0.10049,-3.5302,-0.78985,-12.54,29.16,-11.52
5.8159,-13.974,-2.2337,-0.41753,-4.0971,-0.95906,-12.6,28.98,-11.4
4.4539,-14.778,-1.4982,-0.77366,-4.2901,-1.2046,-13.26,28.8,-11.16
2.6696,-15.064,-1.5936,-1.2223,-4.0427,-1.4392,-14.28,28.32,-10.32
1.8251,-14.778,-1.7162,-1.6032,-3.3378,-1.6289,-14.88,28.2,-9.66
1.1169,-13.92,-1.8387,-1.8857,-2.3176,-1.8329,-16.44,27.84,-8.28
0.98067,-12.517,-1.7706,-2.1142,-0.7196,-2.1557,-18.24,27.42,-6.96
1.4301,-10.624,-1.1441,-2.1869,0.20433,-2.3586,-20.16,26.94,-5.22
1.5527,-9.902,-1.0351,-2.1759,0.86315,-2.5739,-21.06,26.64,-4.26
2.0294,-8.4991,-0.57205,-2.1057,1.2071,-2.7797,-23.22,26.28,-2.64
2.5742,-7.8589,-0.64016,-1.9893,1.2394,-2.9239,-25.32,25.74,-1.56
2.7922,-7.6002,-0.6674,-1.8705,0.96944,-2.9987,-26.28,25.32,-0.96
2.9284,-7.5457,-0.6674,-1.7361,0.48655,-2.9932,-28.32,24.36,-0.12
2.7649,-7.8453,-0.70826,-1.5458,-0.36224,-2.8112,-29.94,23.16,0.3
2.5198,-8.0088,-0.43585,-1.4679,-0.83505,-2.6185,-31.2,21.6,0.72
1.7843,-8.5536,-0.31327,-1.4105,-1.0901,-2.3631,-31.86,20.7,0.96
1.2531,-9.1256,-0.21793,-1.3552,-1.1484,-2.0534,-32.7,18.66,1.26
0.74912,-9.9292,-0.16344,-1.2999,-1.0247,-1.6878,-33.36,16.44,1.68
0.46309,-10.365,0.01362,-1.1991,-0.73212,-1.2733,-33.72,14.1,2.46
0.36775,-10.447,0.31327,-0.99724,0.0061087,-0.56933,-33.96,12.9,2.88
0.28603,-10.243,0.50395,-0.74648,0.60934,-0.078802,-34.32,10.92,3.72
0.96704,-9.6977,0.46309,-0.41447,1.15,0.42761,-34.2,9.18,4.74
1.4029,-9.4798,0.38137,0.0036652,1.4083,0.92271,-34.08,7.74,5.4
2.2065,-9.5751,0.14982,0.47617,1.3451,1.3748,-34.08,7.2,5.7
2.7922,-10.896,-0.19068,1.1997,0.68967,1.9771,-34.14,6.54,5.7
2.9965,-11.7,-0.35413,1.5898,0.0042761,2.2471,-34.08,6.48,5.58
3.1599,-12.0,-0.6674,1.9111,-0.81184,2.456,-34.08,6.66,5.28
3.0237,-12.258,-1.4438,2.156,-1.6231,2.5824,-33.72,7.32,4.8
2.4789,-12.095,-1.9613,2.3167,-2.324,2.6044,-33.54,8.76,4.26
1.5527,-11.986,-2.152,2.3802,-2.7229,2.5791,-33.06,10.32,3.84
1.076,-12.0,-2.2337,2.2956,-2.7254,2.5012,-33.0,11.34,3.6
-0.40861,-11.496,-2.0567,1.9199,-1.9038,2.2752,-32.82,13.56,3.42
-1.2667,-10.706,-2.0294,1.613,-0.90042,2.0323,-32.4,15.6,3.6
-1.3076,-9.7658,-2.3563,1.3967,0.28436,1.7593,-31.62,17.58,4.32
-0.47671,-9.4525,-2.6423,1.2507,1.4966,1.5757,-31.2,18.6,4.5
0.095342,-9.2891,-2.7241,1.1319,2.5021,1.4936,-30.18,20.46,5.1
1.4438,-8.7306,-2.6287,0.9954,3.2303,1.4178,-28.98,21.96,5.52
2.4789,-8.1177,-2.3427,0.80604,3.6542,1.4184,-27.72,23.46,5.22
2.9692,-7.8317,-2.3427,0.697,3.507,1.4621,-27.06,24.12,5.04
3.8682,-7.3822,-2.2201,0.59987,3.0665,1.5269,-25.38,25.02,4.14
4.2632,-7.3958,-2.1793,0.57452,2.471,1.5852,-23.58,25.86,2.88
4.2632,-7.9543,-2.2337,0.57757,1.8787,1.6319,-21.78,26.82,1.26
4.1678,-8.2539,-2.2882,0.59498,1.4004,1.6729,-20.82,27.3,0.12
4.0861,-9.0712,-2.833,0.66829,1.0024,1.6551,-18.96,28.2,-1.74
4.3858,-9.8339,-3.3642,0.73365,0.80268,1.5843,-17.04,29.16,-3.54
4.6582,-10.351,-3.7592,0.78374,0.58246,1.4526,-16.2,29.64,-4.56
4.9987,-10.774,-4.2904,0.76328,0.40409,1.23,-14.58,30.24,-6.3
4.8761,-10.951,-4.0589,0.64049,0.29535,0.92913,-12.96,30.96,-7.62
4.3449,-10.801,-3.6366,0.43982,0.22419,0.42425,-11.58,31.74,-8.58
4.0861,-11.06,-3.4732,0.40134,0.21197,0.014966,-10.8,31.86,-8.88
3.9635,-11.741,-3.8682,0.28375,0.28619,-0.37996,-9.78,32.28,-9.72
3.8818,-12.054,-3.9227,0.11606,0.45662,-0.63225,-9.18,32.4,-10.08
3.7592,-12.217,-3.8409,-0.042455,0.59315,-0.83566,-8.4,32.28,-10.5
4.0589,-12.64,-3.8682,-0.10568,0.59651,-1.0235,-7.98,32.34,-11.1
4.3858,-12.926,-3.9635,-0.24099,0.31551,-1.2556,-7.92,32.28,-11.58
4.5492,-12.572,-3.9635,-0.40959,-0.089186,-1.3897,-8.04,32.28,-11.7
4.7399,-11.346,-3.5549,-0.52351,-0.66706,-1.4985,-8.28,31.98,-11.58
4.7671,-11.06,-3.0237,-0.51252,-1.3369,-1.5782,-9.0,31.44,-11.64
4.6718,-12.667,-2.7377,-0.58032,-2.0058,-1.6197,-10.26,31.08,-11.64
4.3585,-13.675,-2.3155,-0.77397,-2.4862,-1.6674,-11.52,30.72,-11.22
4.2087,-13.838,-2.3018,-1.0473,-2.7749,-1.722,-12.3,30.42,-10.98
3.2825,-13.688,-1.6753,-1.2651,-2.8268,-1.8115,-14.16,30.0,-9.96
2.4517,-13.457,-1.4165,-1.5534,-2.4526,-1.9905,-16.2,29.28,-8.7
2.152,-13.157,-1.076,-1.7535,-1.9319,-2.1441,-18.36,28.44,-7.26
1.6481,-11.945,-0.96704,-1.8876,-1.2874,-2.2953,-19.44,28.08,-6.36
1.6072,-10.924,-0.81722,-1.959,-0.65637,-2.4538,-21.78,27.6,-5.22
1.7298,-9.2618,-0.64016,-1.9893,-0.11393,-2.6023,-23.82,26.82,-3.6
1.9341,-8.2539,-0.40861,-1.8955,0.42638,-2.8106,-26.04,25.92,-1.98
2.0022,-7.8181,-0.27241,-1.7608,0.55008,-2.8781,-27.0,25.44,-1.32
2.1793,-7.7227,-0.095342,-1.6035,0.47831,-2.872,-27.84,24.78,-0.78
2.438,-7.3686,-0.1362,-1.427,0.23885,-2.7828,-29.7,23.4,0.24
2.4789,-7.4503,-0.20431,-1.2285,-0.13958,-2.5714,-31.14,21.96,0.9
2.3563,-7.6819,-0.12258,-1.0256,-0.57208,-2.24,-32.46,20.04,1.26
2.2474,-7.8453,-0.1362,-0.85735,-0.92485,-1.8549,-32.88,19.02,1.62
1.58,-8.322,-0.054481,-0.64721,-1.1051,-1.2098,-33.84,16.92,2.1
1.185,-8.4719,0.19068,-0.54,-0.98899,-0.77977,-34.5,15.0,2.7
0.89894,-8.4174,0.095342,-0.43768,-0.68447,-0.37782,-34.86,14.1,3.0
0.72188,-8.4446,0.12258,-0.28436,-0.21961,0.0036652,-35.04,12.0,3.6
0.76274,-8.8941,0.095342,-0.08094,0.30238,0.36835,-35.4,10.26,4.26
0.98067,-9.2482,-0.027241,0.19059,0.73365,0.74556,-35.4,9.6,4.44
1.8387,-10.61,-0.34051,0.51557,0.91691,1.3628,-35.58,8.52,5.04
2.3836,-11.795,-0.57205,1.0296,0.70983,1.7544,-35.64,8.1,5.52
2.8603,-13.729,-0.7355,1.3335,0.33964,2.168,-35.88,8.04,5.46
3.0918,-14.043,-0.8036,1.5843,-0.089186,2.5284,-35.88,8.34,5.46
3.2144,-14.206,-1.8524,1.8103,-0.55039,2.7703,-35.76,8.94,5.04
3.2689,-13.498,-2.6968,2.0831,-1.2361,2.9242,-35.46,10.02,4.32
3.2689,-12.817,-3.2008,2.1365,-1.4499,2.8958,-35.28,10.98,3.96
2.6696,-12.177,-3.5685,2.0959,-1.897,2.6591,-35.1,13.02,3.36
2.1929,-11.891,-3.4732,1.8393,-1.7981,2.4083,-34.56,15.36,2.94
0.8036,-11.155,-3.0782,1.4838,-1.3485,2.0687,-34.14,16.62,2.64
0.34051,-10.351,-2.7649,1.1328,-0.61178,1.6854,-33.48,19.14,2.28
-0.16344,-9.1256,-2.7241,0.83047,0.34453,1.379,-32.58,21.72,2.34
0.36775,-8.4038,-2.8194,0.5507,1.7871,1.1524,-31.5,23.94,2.34
0.81722,-8.2131,-2.9284,0.42119,2.5861,1.0473,-30.9,24.9,2.52
1.5527,-7.8726,-2.7649,0.26817,3.1786,0.97464,-29.58,26.7,2.64
2.1248,-7.4776,-2.6968,0.1518,3.5403,0.94806,-28.74,27.48,2.76
3.1599,-6.5105,-2.2882,0.053756,3.6182,0.98197,-27.42,28.8,2.52
3.4732,-6.2381,-2.1656,-0.01741,3.4349,1.0418,-26.52,29.46,2.22
3.7865,-6.0202,-1.9886,-0.040928,3.051,1.1112,-25.56,30.12,1.8
3.8954,-6.0474,-1.7706,-0.032376,2.587,1.1347,-24.48,30.48,1.38
3.8682,-6.7557,-1.8115,0.03207,1.9743,1.1014,-22.5,31.26,0.24
3.7865,-7.4503,-1.9613,0.085521,1.6787,1.0895,-21.54,31.56,-0.54
3.7456,-7.927,-2.0567,0.17593,1.4936,1.0986,-20.4,31.92,-1.32
3.8001,-10.297,-2.4108,0.28405,1.3616,1.1124,-18.42,32.64,-2.94
4.0452,-10.896,-2.5742,0.37904,1.23,1.1405,-17.22,33.0,-3.78
4.6445,-11.7,-2.7922,0.52412,0.91905,1.0828,-15.36,33.96,-5.52
4.7263,-11.673,-2.8194,0.58154,0.68203,0.94715,-14.58,34.38,-6.42
4.7671,-11.4,-2.7649,0.59834,0.46762,0.72174,-13.8,34.68,-7.2
4.3721,-10.42,-2.5879,0.61545,0.33048,0.41386,-11.76,35.04,-8.7
4.1678,-10.351,-2.5879,0.65607,0.19151,-0.084299,-10.86,35.28,-9.42
4.1542,-10.351,-2.7104,0.71502,-0.013744,-0.3653,-10.32,35.46,-10.02
4.5356,-11.387,-3.5958,0.73182,-0.35308,-0.5342,-9.3,35.76,-11.16
4.7944,-11.577,-4.0316,0.65149,-0.84788,-0.57971,-8.82,35.88,-11.58
5.1349,-11.441,-3.9635,0.52748,-1.4444,-0.59101,-8.52,35.88,-12.0
5.0123,-11.237,-3.7865,0.37171,-2.0162,-0.58796,-8.28,35.64,-12.78
4.9987,-11.577,-3.6366,0.16249,-2.8198,-0.69058,-8.16,35.64,-13.08
5.1757,-12.858,-3.5958,0.072693,-3.0519,-0.73823,-8.46,35.52,-13.38
4.7535,-14.152,-2.833,-0.44349,-3.4801,-0.90988,-9.12,35.1,-13.74
3.9771,-14.111,-2.3018,-0.88148,-3.4083,-1.0562,-9.66,34.8,-13.5
3.0101,-13.729,-2.0158,-1.2562,-3.0278,-1.2645,-10.38,34.74,-13.44
2.4517,-13.471,-1.8251,-1.5501,-2.3686,-1.5565,-11.52,34.62,-13.26
1.3076,-12.0,-1.7706,-1.9108,-1.0653,-1.9936,-14.04,34.2,-12.24
1.3348,-11.387,-1.5391,-2.058,-0.26481,-2.2214,-15.3,33.78,-11.58
1.6617,-10.215,-1.2939,-2.0922,0.1014,-2.3329,-16.86,33.6,-10.92
1.8932,-8.5672,-0.81722,-2.1035,0.89767,-2.6551,-20.04,33.18,-9.42
2.1929,-7.9407,-0.72188,-2.0088,1.1176,-2.8054,-21.84,32.94,-8.88
2.4244,-7.5593,-0.51757,-1.8934,1.054,-2.8924,-23.34,32.76,-8.16
2.8603,-7.1507,-0.29965,-1.6405,0.53329,-2.8414,-26.76,32.1,-7.02
2.8194,-7.1507,-0.14982,-1.4557,0.0088575,-2.671,-28.44,31.62,-6.42
2.8467,-7.3686,-0.31327,-1.3534,-0.28008,-2.5372,-30.18,30.96,-5.88
2.7377,-8.7579,-0.61292,-1.0708,-1.1606,-2.0009,-33.36,29.64,-5.16
2.3155,-9.5751,-0.49033,-0.93798,-1.5412,-1.536,-34.98,28.68,-4.74
1.7843,-10.665,-0.38137,-0.85063,-1.6994,-1.0577,-36.3,27.9,-4.2
1.1577,-11.713,-0.1362,-0.81703,-1.5773,-0.58032,-39.0,26.1,-3.36
0.89894,-11.918,-0.1362,-0.79748,-0.81276,0.038179,-40.14,25.26,-2.94
0.54481,-12.054,0.23155,-0.75106,0.0064141,0.34514,-41.1,24.6,-2.64
0.77636,-11.768,0.40861,-0.61758,0.89003,0.56994,-42.72,23.04,-1.86
1.2395,-11.101,0.31327,-0.38087,1.5824,0.72143,-43.38,22.32,-1.26
1.8387,-10.351,0.24517,-0.048564,1.8897,0.8491,-44.28,21.66,-0.96
2.8058,-10.569,0.1362,0.34758,1.7987,1.0489,-45.42,20.82,-0.12
3.1054,-10.883,-0.095342,0.91569,1.0156,1.2016,-45.78,20.52,0.06
3.514,-11.182,-0.21793,1.087,0.61148,1.2675,-46.02,20.64,0.24
3.623,-11.373,-1.1169,1.3207,-0.29383,1.416,-46.08,20.58,0.42
3.3642,-11.087,-1.5936,1.5641,-1.5281,1.5779,-46.02,21.18,0.48
2.8058,-10.569,-2.0022,1.6365,-2.0409,1.6127,-45.9,21.72,0.36
2.4653,-10.283,-1.9886,1.5953,-2.2232,1.6289,-45.78,22.38,0.12
0.7355,-9.5751,-1.866,1.3799,-1.7715,1.5931,-45.06,23.88,0.12
0.24517,-9.2755,-1.7979,1.2868,-1.4423,1.5586,-44.76,24.6,0.12
-0.39499,-8.3357,-1.8932,1.0498,-0.074526,1.4209,-43.98,26.1,-0.12
-0.19068,-8.2403,-2.0703,0.99235,0.94898,1.4279,-43.38,27.06,-0.12
0.36775,-8.322,-2.4244,0.96547,1.792,1.5299,-42.48,28.02,-0.06
1.1577,-8.4174,-2.5606,0.92668,2.3524,1.6362,-41.64,28.74,-0.24
2.3972,-8.036,-2.7649,0.90652,2.6518,1.8277,-39.72,30.3,-0.12
2.9556,-7.6546,-2.9011,0.88362,2.5873,1.8943,-38.58,31.08,-0.06
3.3097,-7.4503,-2.8467,0.82009,2.2672,1.9688,-37.38,31.92,-0.12
3.6639,-7.1643,-2.8058,0.70983,1.5614,1.894,-34.8,33.48,-0.42
3.514,-7.2596,-2.7922,0.67073,1.1762,1.7749,-33.36,34.14,-0.78
3.2553,-7.5048,-2.6968,0.66126,0.94684,1.6463,-31.8,34.86,-1.2
3.0646,-8.6898,-3.1054,0.62553,0.85002,1.4404,-28.74,36.18,-2.64
3.051,-9.4798,-3.3778,0.60751,0.88759,1.2941,-27.18,36.84,-3.3
3.0782,-10.215,-3.7728,0.56597,0.95845,1.197,-25.56,37.38,-4.32
3.3506,-11.019,-4.0997,0.53909,0.96517,1.1096,-22.26,38.34,-6.42
3.6775,-11.427,-4.2632,0.48136,0.86499,1.0192,-20.64,38.76,-7.44
3.7456,-11.509,-4.2904,0.37599,0.75778,0.90439,-19.14,39.3,-8.28
3.5413,-11.25,-3.9499,0.26817,0.7025,0.66829,-16.44,40.38,-10.32
3.4051,-11.264,-3.7728,0.12798,0.7086,0.47525,-15.18,40.74,-10.98
3.514,-11.21,-3.6094,0.046426,0.72571,0.25595,-14.1,41.22,-11.76
3.6775,-11.182,-3.5413,0.0094684,0.74464,0.15669,-13.02,41.58,-12.42
4.0997,-11.359,-3.1599,-0.039401,0.78527,-0.12523,-11.4,42.0,-13.56
4.0997,-11.359,-3.1599,-0.036346,0.7141,-0.30635,-11.4,42.0,-13.56
4.6445,-12.517,-3.4459,-0.084299,0.33537,-0.57696,-10.02,42.3,-14.4
5.7342,-12.381,-3.5822,-0.12859,-0.16096,-0.748,-9.54,42.36,-14.82
6.0611,-11.85,-3.514,-0.19945,-0.82742,-0.91233,-9.18,42.54,-15.24
6.279,-11.278,-3.0101,-0.28314,-1.5617,-1.1005,-8.64,42.84,-15.54
6.0747,-12.149,-2.833,-0.33934,-2.2797,-1.3274,-8.7,43.08,-15.84
5.8023,-13.321,-2.5061,-0.48778,-2.8979,-1.5296,-9.12,43.2,-15.96
4.9987,-14.342,-2.1656,-0.99693,-3.3482,-1.7776,-10.32,43.2,-15.66
3.5549,-14.152,-1.757,-1.3445,-3.2718,-1.9438,-12.42,43.38,-15.18
2.4789,-13.716,-1.4846,-1.5766,-2.8897,-2.1454,-15.0,43.44,-14.1
1.7706,-13.157,-1.4574,-1.8088,-2.2791,-2.2987,-18.0,43.38,-12.54
1.471,-11.972,-1.185,-2.022,-1.5382,-2.4392,-21.42,43.32,-10.68
1.3484,-10.76,-0.84446,-2.1365,-0.75961,-2.6176,-25.38,43.08,-8.76
1.3212,-9.5751,-0.57205,-2.2034,-0.073304,-2.7675,-29.34,42.78,-6.54
1.3893,-9.0303,-0.38137,-2.1643,0.72388,-2.9887,-31.44,42.54,-5.28
1.7843,-7.8726,-0.17706,-2.0543,0.98227,-3.1056,-35.16,41.76,-3.06
2.1248,-7.2188,-0.14982,-1.8781,0.98624,-3.171,-38.7,40.5,-1.08
2.4108,-6.9328,-0.054481,-1.671,0.76053,-3.1301,-41.76,38.64,0.84
2.4108,-6.8102,-0.027241,-1.441,0.38026,-2.9746,-43.26,37.5,1.56
2.4108,-6.8374,-0.12258,-1.1979,-0.10934,-2.7226,-46.26,34.92,3.0
2.3427,-7.1098,-0.054481,-0.86101,-0.86682,-2.1619,-47.46,33.36,3.9
2.0567,-7.7364,-0.14982,-0.75747,-1.0629,-1.9367,-48.66,31.68,4.56
1.471,-8.826,-0.17706,-0.50244,-1.3916,-1.2092,-50.7,27.96,6.06
1.1577,-9.0303,-0.16344,-0.39279,-1.3793,-0.74342,-51.66,26.04,6.84
0.88532,-9.0984,-0.1362,-0.29719,-1.1328,-0.30146,-52.5,24.06,7.56
0.25879,-9.1529,-0.054481,-0.17837,-0.65546,0.092546,-53.52,20.28,9.06
0.23155,-9.4253,-0.054481,0.13592,0.26786,0.65912,-54.0,18.6,10.08
0.29965,-9.8611,-0.095342,0.28833,0.57269,0.86499,-54.36,17.1,10.92
1.2531,-11.25,-0.54481,0.88484,1.1185,1.5776,-55.02,14.52,12.3
1.8387,-11.741,-0.85808,1.3149,1.0708,2.0922,-55.32,13.62,12.84
2.1793,-12.204,-0.8036,1.7214,0.77702,2.5675,-55.32,13.02,13.14
2.8058,-13.416,-1.1986,2.0418,0.33537,3.0165,-55.02,12.66,13.5
3.1735,-13.484,-1.6481,2.4465,-0.55711,3.4315,-54.96,13.02,13.38
3.514,-12.994,-3.1735,2.5516,-0.90866,3.4957,-54.66,13.74,13.26
3.7047,-12.953,-3.9227,2.8091,-2.0143,3.4938,-53.76,16.14,12.72
3.4868,-12.939,-4.2087,2.7837,-2.5965,3.3555,-53.16,17.88,12.48
2.9011,-12.83,-4.0861,2.4621,-2.7388,3.1237,-52.38,19.74,12.12
0.99429,-12.122,-3.1327,1.9276,-2.3344,2.7437,-50.46,23.82,11.28
-0.31327,-11.005,-2.6423,1.2266,-0.76908,2.0922,-49.26,26.1,10.8
-1.0896,-9.5206,-2.6423,0.97036,0.59926,1.7006,-46.38,30.42,10.08
-0.76274,-8.9349,-2.8603,0.87354,1.9615,1.3851,-44.7,32.4,9.9
0.095342,-8.8941,-3.0373,0.73273,3.1377,1.1298,-42.96,34.44,9.42
1.6481,-9.0167,-3.0646,0.54672,3.9792,0.92149,-39.42,38.1,8.58
3.1054,-8.6762,-3.0646,0.33537,4.4049,0.78557,-37.62,39.78,7.98
4.7807,-7.6546,-2.833,0.16677,4.3191,0.74587,-33.96,42.72,6.66
5.4481,-6.7285,-2.5879,0.024129,3.2965,0.83627,-32.16,43.86,5.88
5.5843,-6.1428,-2.547,0.044288,2.2321,0.8378,-30.36,44.82,5.04
5.5299,-6.0202,-2.4925,0.078802,1.6924,0.78588,-28.56,45.54,4.08
5.0668,-6.1428,-2.5742,0.19517,0.38454,0.55436,-27.0,46.2,3.0
4.2495,-6.6604,-2.7377,0.23915,-0.1011,0.47953,-24.24,47.16,1.02
3.8682,-7.2733,-2.7922,0.30482,-0.45448,0.34514,-22.98,47.58,-0.06
3.4732,-8.5808,-2.9148,0.33262,-0.5061,0.23702,-21.12,48.12,-2.34
3.2825,-9.4661,-3.0782,0.29322,-0.41142,0.13622,-20.4,48.6,-3.48
3.0918,-9.9973,-3.2416,0.25626,-0.32437,0.081245,-19.62,48.84,-4.56
3.0237,-10.038,-3.228,0.09896,-0.0079412,-0.18295,-19.02,49.14,-5.4
2.8739,-10.12,-3.2553,0.07025,0.18967,-0.41569,-18.42,49.5,-6.84
2.6832,-10.706,-3.2144,0.078496,0.3149,-0.62278,-18.0,49.62,-7.38
2.7104,-11.918,-3.6911,0.038485,0.37354,-0.81642,-18.0,49.74,-7.86
2.9148,-12.177,-3.6775,-0.0094684,0.28436,-0.96975,-18.06,49.68,-8.16
2.9148,-12.231,-3.7592,-0.028711,0.065363,-1.0415,-18.3,49.68,-8.34
2.5879,-12.435,-3.732,-0.044593,-0.35644,-1.0461,-19.14,49.44,-8.4
2.4517,-12.286,-3.7592,-0.069639,-0.57055,-1.0403,-19.74,49.32,-8.58
2.152,-11.904,-3.6639,-0.091019,-0.66432,-1.0214,-20.28,48.96,-8.58
1.6753,-11.768,-3.1872,-0.073304,-0.62369,-0.9499,-21.96,48.54,-8.64
1.8251,-11.509,-3.2144,-0.083383,-0.5901,-0.86743,-22.92,48.0,-8.4
2.0567,-10.828,-3.3097,-0.080329,-0.61545,-0.82039,-23.82,47.64,-8.1
2.6968,-9.3163,-3.4323,-0.079718,-0.91263,-0.64141,-25.74,46.92,-7.5
3.1463,-8.7851,-3.228,-0.079412,-1.266,-0.49877,-26.64,46.38,-7.2
3.3778,-8.7715,-2.5742,-0.083383,-1.7043,-0.37018,-27.72,45.96,-6.66
3.5685,-10.188,-2.4517,-0.19303,-2.4777,-0.21228,-29.82,44.82,-5.64
3.8954,-11.06,-2.4789,-0.33353,-3.0,-0.081245,-30.84,44.28,-4.92
4.127,-11.673,-2.5334,-0.50977,-3.4893,0.054062,-31.86,43.74,-4.2
4.3177,-12.449,-2.4925,-0.70402,-3.8402,0.15272,-32.76,43.32,-3.06
4.0725,-12.898,-1.7298,-0.95936,-3.8808,0.16524,-34.2,42.3,-0.66
3.514,-13.116,-1.1169,-1.2559,-3.5128,0.051007,-34.86,41.94,0.84
2.5879,-12.313,-0.35413,-1.752,-2.2403,-0.2813,-35.46,40.98,4.14
1.0624,-10.964,-0.29965,-1.8754,-1.6698,-0.45968,-35.7,40.62,5.76
1.1441,-9.9701,-0.40861,-2.0284,0.091935,-1.1613,-35.88,40.14,7.44
1.4438,-9.3708,-0.42223,-2.0094,1.055,-1.4954,-36.18,39.42,9.06
2.4925,-7.75,-0.027241,-1.8977,1.7022,-1.7544,-36.48,37.92,12.72
2.8739,-7.3822,0.01362,-1.6994,1.9722,-1.9603,-36.72,36.96,14.22
3.5685,-6.9736,0.21793,-1.3512,1.6307,-2.0498,-36.9,36.0,15.78
4.1542,-6.4152,0.31327,-1.2379,1.3329,-2.0,-37.38,33.84,18.06
4.1406,-6.1155,0.57205,-0.87842,0.14875,-1.7297,-37.62,32.64,19.26
4.0452,-6.0338,0.64016,-0.66126,-0.69364,-1.4801,-37.8,31.26,19.98
3.4187,-6.0474,0.76274,-0.45021,-1.3827,-1.1964,-38.4,28.38,21.3
2.9284,-6.1428,0.92618,-0.21869,-1.839,-0.87873,-38.58,27.0,21.78
2.5742,-6.4288,0.92618,0.11729,-2.0543,-0.38698,-39.24,23.94,22.5
2.656,-6.9872,0.88532,0.32926,-2.0122,-0.066279,-39.3,22.44,22.68
2.833,-7.4503,0.8036,0.54825,-1.9148,0.23671,-39.42,21.06,22.86
3.0237,-7.6683,0.70826,0.73457,-1.8103,0.46853,-39.36,19.92,23.16
3.4187,-7.9407,0.53119,0.93615,-1.7608,0.64599,-39.12,18.96,23.28
3.9499,-8.4719,0.24517,1.127,-1.7947,0.75747,-38.4,17.4,23.76
4.3313,-8.8805,-0.28603,1.3161,-1.9364,0.76633,-37.8,16.8,24.06
4.7671,-9.1393,-1.6617,1.4725,-2.2452,0.67317,-37.02,16.44,24.54
5.3392,-9.7794,-2.4517,1.5834,-3.0281,0.40134,-35.22,16.14,25.62
4.9987,-10.052,-2.5742,1.47,-3.4945,0.16432,-34.2,16.2,26.22
4.3449,-10.529,-2.2201,1.3106,-3.6316,-0.065668,-32.82,16.5,26.88
2.2882,-12.054,-1.7843,1.0806,-3.3769,-0.28436,-29.82,16.98,27.9
1.7025,-12.463,-1.7706,0.76847,-2.8466,-0.53817,-28.38,17.28,28.26
0.61292,-13.607,-2.2337,0.46212,-2.08,-0.85277,-26.88,17.76,28.68
0.49033,-14.233,-2.9011,0.29658,-1.1157,-1.1283,-24.06,18.6,29.7
0.72188,-13.362,-3.8001,0.03879,-0.12981,-1.3332,-22.8,19.02,30.0
1.2258,-11.373,-4.2904,0.1295,0.686,-1.6594,-21.6,19.26,30.24
2.0567,-9.5751,-5.1349,0.35827,0.65485,-1.7565,-19.8,19.86,30.48
2.4653,-9.3163,-5.2166,0.42822,-0.16066,-1.7514,-19.08,20.04,30.6
1.9613,-8.6489,-4.8216,0.32681,-0.53756,-1.7462,-18.06,20.34,30.78
1.1577,-8.3493,-4.4675,0.18906,-1.5556,-1.6597,-17.82,20.22,30.78
-0.14982,-8.2267,-3.909,0.068417,-1.8845,-1.5012,-17.46,20.28,30.84
-1.2667,-8.431,-3.5685,-0.043677,-1.887,-1.27,-17.46,19.98,30.78
-1.6481,-8.7715,-3.623,-0.14203,-1.6417,-0.98441,-17.52,19.8,30.84
-1.6481,-9.5751,-3.8137,-0.25076,-1.2541,-0.66615,-17.7,19.62,30.78
-1.3757,-9.6977,-3.8546,-0.28436,-0.63835,-0.24038,-17.88,19.26,30.84
-0.70826,-9.507,-3.4459,-0.25809,-0.47312,-0.12798,-18.12,19.14,30.78
0.39499,-8.7306,-3.1191,-0.13195,-0.20342,0.16463,-18.36,18.66,30.96
0.61292,-8.3765,-2.9011,-0.034208,-0.15974,0.27611,-18.36,18.54,31.14
0.72188,-8.1041,-2.7649,0.036346,-0.19792,0.3146,-18.06,18.06,31.32
1.2939,-7.7091,-2.547,0.11698,-0.34025,0.32742,-17.34,17.58,31.8
1.6072,-7.8998,-2.6151,0.22907,-0.7025,0.3769,-16.74,17.28,31.98
1.9613,-8.4582,-2.6423,0.26206,-0.83353,0.40836,-15.54,16.98,32.22
1.9477,-8.5808,-2.6015,0.31154,-1.157,0.57238,-14.88,16.8,32.52
1.7979,-8.5672,-2.6423,0.35277,-1.2358,0.62675,-14.16,16.86,32.58
1.6481,-8.6898,-2.6968,0.39034,-1.1533,0.61392,-12.36,16.98,32.94
1.7298,-8.6217,-2.7649,0.39401,-0.99296,0.58765,-11.58,16.98,32.88
1.866,-8.4855,-2.9556,0.41417,-0.8488,0.53756,-10.74,17.1,32.76
2.261,-8.036,-3.2416,0.43127,-0.73151,0.44838,-9.12,17.22,32.88
2.3427,-7.8317,-3.3506,0.43249,-0.72113,0.38576,-8.16,17.58,32.64
2.438,-7.8453,-3.2144,0.44532,-0.7364,0.3708,-7.2,17.76,32.4
2.4517,-8.1177,-3.1327,0.45082,-0.73762,0.38087,-5.7,18.36,32.22
2.4789,-8.3084,-3.0918,0.45082,-0.70708,0.43005,-4.8,18.66,32.04
2.6968,-8.6762,-3.1327,0.48045,-0.62858,0.54672,-3.18,19.2,31.68
3.0918,-8.9486,-2.833,0.50366,-0.55314,0.61178,-2.46,19.44,31.56
3.2144,-9.2482,-2.4789,0.56933,-0.46365,0.6411,-1.8,19.62,31.32
3.4459,-9.902,-2.2065,0.62247,-0.42944,0.64813,-0.96,19.98,31.14
4.3313,-11.904,-2.5061,0.75259,-0.55833,0.62308,-0.36,20.16,30.9
6.6467,-13.28,-4.2495,0.69425,-1.0443,0.4444,0.9,20.58,30.42
7.4912,-11.496,-3.8546,0.36621,-1.7773,-0.071166,1.56,20.94,30.12
5.2166,-8.7579,-1.5527,0.22388,-2.0159,-0.20128,2.94,21.3,29.22
4.3449,-8.4855,-0.99429,0.21716,-2.4862,-0.57208,3.6,21.48,28.98
4.2087,-10.038,-1.3348,0.5174,-3.0977,-1.3005,4.26,21.78,28.74
4.5083,-12.885,-2.4789,0.25901,-3.3671,-1.3109,5.76,22.14,27.84
4.3177,-12.79,-2.7241,-0.18723,-3.477,-1.0739,6.42,22.5,27.42
3.7728,-11.577,-2.8058,-0.33659,-3.3787,-1.0146,7.26,22.8,27.18
2.8058,-10.161,-2.152,-0.36408,-3.1988,-1.0861,8.7,23.28,26.16
2.4108,-9.6432,-1.8115,-0.47953,-2.7993,-1.0852,9.6,23.64,25.56
2.2746,-9.3572,-1.6344,-0.64477,-2.3011,-1.1374,10.2,23.94,25.14
2.6287,-9.1937,-1.4574,-0.80023,-1.7697,-1.3332,11.7,24.36,24.18
2.8058,-9.507,-1.5119,-0.89583,-1.678,-1.314,12.18,24.66,23.7
3.0101,-9.8066,-1.58,-0.97769,-1.7706,-1.2291,12.78,24.78,23.46
3.0646,-10.569,-1.4301,-1.0803,-1.9316,-1.0214,13.74,25.2,22.8
2.9148,-10.924,-1.2531,-1.1038,-1.9233,-0.92332,14.1,25.38,22.44
2.6696,-11.237,-0.99429,-1.1383,-1.7862,-0.74067,14.34,25.56,22.02
2.4108,-11.414,-0.91256,-1.2306,-1.2526,-0.53206,14.76,25.92,21.6
2.2201,-11.441,-0.81722,-1.2837,-0.75014,-0.48167,15.24,26.16,21.0
2.2201,-11.223,-0.64016,-1.3476,0.099266,-0.52229,15.3,26.46,20.64
2.3836,-10.433,-0.24517,-1.4025,0.36927,-0.57757,15.66,26.58,20.4
2.6696,-10.42,-0.095342,-1.4145,0.79779,-0.70311,15.6,26.58,20.4
2.8194,-10.433,-0.068102,-1.3827,1.029,-0.81673,15.6,26.52,20.1
3.2689,-11.319,0.38137,-1.2504,1.0464,-0.99327,15.42,26.52,20.58
3.2689,-12.449,0.54481,-1.117,1.0174,-1.0479,15.36,26.46,20.82
3.1872,-12.517,0.51757,-0.98471,1.0006,-1.0944,15.24,26.52,20.82
3.1735,-9.2482,-0.19068,-0.54031,0.80756,-1.2639,14.88,26.52,21.24
3.3234,-7.9134,-0.65378,-0.13836,0.49388,-1.3262,14.58,26.46,21.48
3.3915,-7.1234,-1.1441,0.24404,-0.025656,-1.3937,14.16,26.4,21.96
3.0373,-7.2869,-1.7025,0.55314,-0.73121,-1.4545,13.14,26.28,22.62
2.2474,-7.8726,-1.9341,0.74984,-1.4615,-1.4123,12.66,26.46,22.98
1.3484,-8.4991,-1.9205,0.81031,-2.0162,-1.2975,12.3,26.34,23.28
-0.68102,-8.4719,-1.6344,0.79535,-2.1716,-1.0131,11.34,26.52,23.64
-1.5255,-8.2676,-1.5391,0.79504,-1.7455,-0.69303,10.98,26.7,23.82
-1.866,-8.036,-1.7025,0.89309,-1.0938,-0.30207,10.68,27.0,23.94
-1.7434,-7.464,-2.5061,1.0983,-0.4444,0.07086,10.02,27.6,23.34
-0.91256,-7.355,-2.8058,1.3711,-0.091935,0.37782,9.84,27.78,23.1
-0.095342,-7.3414,-2.9148,1.6206,-0.10599,0.65088,9.72,28.08,22.86
0.98067,-7.7636,-3.1191,1.8042,-0.39706,0.956,9.42,28.68,22.38
1.3484,-8.0224,-3.1872,1.9517,-1.1136,1.088,9.66,28.98,22.14
1.5255,-8.4991,-3.2144,1.9771,-1.6283,1.1927,9.96,29.34,21.72
1.58,-9.4117,-3.4187,1.9655,-2.0256,1.2639,10.98,29.82,20.58
1.5119,-9.9837,-3.5549,1.938,-2.2804,1.3008,11.58,30.06,19.92
1.3212,-10.61,-3.6775,1.8448,-2.3014,1.3354,12.36,30.48,19.38
1.0079,-10.964,-3.8546,1.6231,-1.934,1.2846,14.16,31.14,17.64
0.85808,-10.883,-3.9227,1.4581,-1.4752,1.1671,15.06,31.44,16.62
0.72188,-10.855,-3.9908,1.3842,-1.2269,1.0751,16.14,31.62,15.78
0.89894,-10.665,-4.2632,1.1774,-0.51496,0.80115,18.12,31.98,14.04
1.185,-10.719,-4.3721,1.0534,-0.15119,0.64691,18.96,32.1,12.96
1.6889,-11.019,-4.3449,0.95264,0.076664,0.58154,19.98,32.22,12.06
2.3563,-12.177,-4.2495,0.80329,0.21961,0.60384,22.14,32.46,9.78
2.6423,-12.64,-4.2223,0.64385,0.2474,0.61881,23.22,32.46,8.58
2.7922,-12.503,-3.9908,0.48533,0.33109,0.58093,24.24,32.34,7.26
2.833,-12.095,-3.6366,0.4328,0.50305,0.48778,25.02,32.46,6.48
3.3915,-11.891,-3.5413,0.44776,0.62339,0.35797,26.28,32.58,4.86
4.1133,-12.027,-4.1133,0.4444,0.43799,0.22022,26.76,32.4,3.96
5.1485,-12.204,-4.9987,0.39401,-0.1799,0.052534,27.06,32.46,3.42
7.5729,-11.959,-4.2768,0.082467,-1.6826,-0.23946,27.78,32.34,2.34
7.2869,-11.237,-3.228,-0.2584,-2.689,-0.35888,27.96,32.52,1.98
6.3471,-11.032,-2.5334,-0.36194,-3.1356,-0.44135,28.08,32.46,1.32
4.8625,-12.326,-2.2201,-0.60323,-3.9389,-0.89034,28.56,32.52,0.6
3.5549,-13.471,-2.0703,-1.0006,-3.9605,-1.1044,28.5,32.58,0.6
2.8603,-13.716,-1.8524,-1.4514,-3.5641,-1.1741,28.44,32.7,-0.48
2.0294,-13.607,-1.8387,-1.9346,-2.5189,-1.3457,27.96,33.24,-1.2
1.9341,-13.525,-1.8387,-2.0574,-2.1316,-1.4071,27.42,33.66,-1.14
1.975,-13.321,-1.58,-2.3732,-0.93371,-1.5149,26.82,33.9,-1.5
2.2474,-12.122,-1.1577,-2.4816,-0.19548,-1.617,25.56,34.8,-1.98
2.3972,-11.373,-0.8036,-2.5207,0.3989,-1.7489,24.84,35.46,-2.04
2.4517,-10.678,-0.49033,-2.5314,0.82528,-1.8983,23.88,35.88,-2.04
2.6423,-9.6568,-0.054481,-2.4749,1.1151,-2.1625,21.84,37.14,-1.74
2.7786,-9.3436,0.1362,-2.4025,1.087,-2.317,20.7,37.5,-1.5
2.9965,-9.2891,0.1362,-2.3476,1.0296,-2.3634,19.56,37.98,-0.9
3.1191,-9.6023,0.12258,-2.1591,0.67378,-2.4187,16.92,39.24,0.42
3.0646,-9.9973,0.040861,-2.0116,0.37904,-2.3909,15.6,39.78,1.5
2.8194,-10.174,0.027241,-1.8854,0.11851,-2.3237,14.1,40.2,2.46
2.2201,-10.91,0.44947,-1.6683,-0.028711,-2.1912,11.04,40.92,4.86
1.8524,-11.264,0.40861,-1.5409,0.072998,-2.0827,9.48,41.28,5.82
1.7162,-11.387,0.61292,-1.4004,0.29505,-1.9435,8.04,41.4,6.9
1.185,-11.032,0.68102,-1.2162,0.59559,-1.7404,5.1,41.34,9.36
1.0079,-10.692,0.72188,-0.93951,0.89828,-1.4594,3.48,41.1,10.5
1.0351,-10.256,0.57205,-0.58796,1.0965,-1.0773,2.04,40.86,11.76
1.4574,-8.9894,-0.10896,-0.16554,1.1225,-0.5791,-0.9,40.14,13.74
1.6344,-8.6762,-0.28603,0.54062,0.83872,0.31796,-2.22,39.9,14.64
1.866,-8.4174,-0.34051,0.76358,0.6857,0.63408,-3.54,39.72,15.36
2.0022,-8.2948,-0.84446,1.3225,0.18295,1.5101,-5.76,39.0,16.38
2.0294,-8.4582,-1.6344,1.6267,-0.19548,1.9258,-6.6,38.76,16.56
1.9886,-8.8668,-2.2201,1.8637,-0.57421,2.226,-7.2,38.64,16.62
1.8796,-9.5751,-3.0237,2.1191,-1.1145,2.5381,-7.86,38.52,16.44
1.5391,-9.8884,-3.0101,2.1603,-1.2837,2.6731,-7.86,38.7,15.96
1.3212,-10.161,-3.0237,2.156,-1.2828,2.7162,-7.62,38.94,15.48
0.89894,-10.542,-2.8875,1.9951,-0.91263,2.7413,-7.26,39.24,14.76
0.39499,-10.692,-2.547,1.8332,-0.40897,2.6359,-6.18,40.08,12.9
0.21793,-10.61,-2.6015,1.6875,0.22358,2.4771,-5.28,40.62,11.88
0.54481,-10.529,-2.6968,1.5858,0.96272,2.3332,-3.06,41.34,9.84
1.0215,-10.542,-2.8194,1.5153,1.9542,2.2272,-1.74,41.58,8.94
1.6072,-10.283,-2.8194,1.4981,2.1997,2.2113,-0.36,41.82,8.1
2.7513,-9.6568,-2.7786,1.4465,2.5504,2.2263,2.94,42.18,6.3
3.4051,-9.3708,-2.547,1.3833,2.4367,2.2657,4.62,42.3,5.4
3.9771,-8.8941,-2.3836,1.328,2.0696,2.2837,6.36,42.3,4.68
4.5628,-8.8532,-2.5606,1.2932,1.5146,2.2553,9.84,42.0,3.3
4.7807,-9.3708,-2.7922,1.3036,0.60873,2.2159,11.58,41.7,2.76
4.8352,-9.6568,-2.9284,1.317,0.32162,2.204,13.14,41.22,2.1
4.808,-10.243,-3.1463,1.3323,-0.14508,2.1725,14.88,40.74,1.62
5.5299,-11.7,-3.9635,1.3784,-0.65027,1.9923,18.3,39.6,0.72
6.1564,-13.089,-4.304,1.3735,-0.8656,1.7853,19.98,38.82,0.3
6.2245,-13.961,-4.4675,1.2398,-0.9447,1.5443,21.6,38.28,-0.18
5.5435,-13.729,-4.4402,0.80023,-0.71777,0.97158,23.22,37.56,-0.78
4.4539,-12.258,-4.0589,0.65515,-0.55467,0.6857,24.72,37.02,-1.5
3.7592,-10.787,-3.9635,0.31857,0.10996,-0.23121,27.3,36.06,-3.0
3.5413,-9.9429,-3.8682,0.21044,0.49633,-0.70066,28.32,35.52,-3.72
3.8682,-9.9701,-4.0452,0.17318,0.67195,-1.0321,29.34,35.04,-4.38
5.2166,-11.032,-4.8216,0.023213,0.44135,-1.2862,30.66,34.32,-5.7
5.775,-11.278,-4.9306,-0.21716,-0.53665,-1.4865,31.08,34.08,-6.36
5.9249,-11.414,-4.3994,-0.47373,-0.96792,-1.4823,31.38,33.96,-6.9
5.6661,-12.354,-3.5277,-0.73854,-2.2843,-1.4297,31.62,33.72,-7.56
5.1894,-14.07,-3.2689,-0.93798,-3.0018,-1.452,31.44,33.78,-7.8
4.9306,-14.833,-3.0782,-1.2895,-3.4798,-1.4419,31.14,33.9,-8.28
3.2961,-15.745,-1.866,-1.7202,-3.5696,-1.4364,29.88,34.5,-8.82
2.6423,-15.445,-1.6208,-2.2681,-2.9798,-1.5684,28.8,34.98,-9.0
1.4301,-13.852,-1.0488,-2.3949,-2.631,-1.657,27.72,35.28,-9.0
1.2531,-12.871,-1.1713,-2.6774,-1.3515,-1.9688,25.38,36.42,-8.58
1.362,-11.891,-1.0896,-2.7651,-0.54947,-2.1677,23.88,37.08,-8.22
1.4982,-11.278,-0.77636,-2.7968,-0.17532,-2.2755,22.26,37.68,-7.74
1.4982,-11.278,-0.77636,-2.7968,-0.17532,-2.2755,22.26,37.68,-7.74
2.2201,-9.1801,-0.24517,-2.5907,0.92149,-2.7458,18.96,38.82,-6.6
2.6968,-8.6489,-0.054481,-2.4483,0.7422,-2.7758,15.18,39.78,-4.86
2.8739,-8.6081,-0.054481,-2.3757,0.56047,-2.7544,13.08,40.26,-4.02
2.9011,-8.7306,-0.16344,-2.2086,0.078496,-2.6292,11.1,40.56,-3.0
2.9011,-9.0712,-0.068102,-1.9908,-0.71929,-2.2895,9.06,40.8,-1.86
2.5061,-9.9973,0.21793,-1.8867,-1.0751,-1.9731,5.1,40.92,0.66
1.8524,-10.61,0.29965,-1.7849,-1.1658,-1.6353,3.3,40.92,1.86
1.2258,-10.556,0.57205,-1.7156,-1.0186,-1.3091,-0.06,40.74,4.98
0.89894,-10.202,0.65378,-1.609,-0.62125,-1.0033,-1.68,40.44,6.3
0.7355,-9.8748,0.81722,-1.4539,-0.035125,-0.70616,-3.18,40.08,7.74
0.83084,-9.5615,0.88532,-1.0846,0.905,-0.26298,-5.52,38.94,10.08
1.1986,-9.5887,0.83084,-0.72968,1.347,0.055283,-6.66,38.28,11.34
1.6753,-9.8748,0.7355,-0.30727,1.5073,0.43035,-7.56,37.8,12.3
2.4244,-10.706,0.49033,0.15027,1.4285,0.86621,-8.94,36.6,14.1
2.7377,-11.196,0.31327,0.85094,0.9444,1.5562,-9.42,36.12,14.94
2.8739,-11.427,0.21793,1.0595,0.70799,1.7639,-9.84,35.7,15.48
3.2553,-11.128,-0.55843,1.6142,-0.14355,2.1997,-9.96,35.22,16.26
3.3506,-10.556,-1.1986,1.9319,-0.73548,2.2743,-9.96,35.1,16.32
3.1463,-10.311,-1.6208,2.19,-1.2776,2.233,-9.72,35.22,16.5
2.4517,-10.746,-1.9477,2.4202,-1.8708,2.0699,-8.94,35.46,15.72
1.9068,-11.319,-1.9341,2.4013,-1.9627,1.9145,-8.34,35.64,15.24
1.2667,-11.441,-2.0022,2.2587,-1.7373,1.7703,-7.62,35.88,14.52
0.35413,-10.924,-2.0022,2.0797,-1.2196,1.6527,-6.3,36.9,12.96
-0.040861,-10.529,-2.1793,1.9652,-0.44929,1.6072,-5.46,37.38,12.0
-0.027241,-10.365,-2.3427,1.8818,0.46578,1.6252,-4.68,37.92,11.1
0.57205,-9.6432,-2.942,1.8405,1.7242,1.715,-2.58,38.94,9.06
1.0896,-9.1937,-2.9965,1.8335,2.0333,1.7578,-1.32,39.24,8.1
1.5391,-8.9622,-3.0237,1.7865,2.5498,1.9545,0.12,39.6,7.2
2.4789,-8.7034,-3.2825,1.6875,2.5525,2.0827,2.82,40.2,5.22
2.833,-8.54,-3.337,1.5492,2.3421,2.1564,4.26,40.44,4.2
3.0646,-8.5808,-3.2825,1.4123,2.0064,2.1814,5.7,40.44,3.06
3.2008,-8.9758,-3.3778,1.3112,1.6655,2.1988,8.76,40.26,1.32
3.1872,-9.6704,-3.3097,1.2367,1.4013,2.2031,10.26,40.26,0.54
3.0237,-10.406,-3.4459,1.1484,1.2553,2.1838,11.88,39.96,-0.3
3.2825,-11.509,-3.8954,1.0098,1.2486,2.1469,15.18,39.3,-1.56
3.9227,-12.572,-4.3177,0.94837,1.2581,2.1145,16.74,38.94,-2.1
4.7399,-13.116,-4.6582,0.82497,1.2581,2.0244,18.48,38.52,-2.64
6.4969,-13.348,-4.522,0.46884,1.3198,1.5525,21.6,37.56,-3.72
6.6467,-12.653,-3.8273,0.10996,1.3839,1.0934,23.22,37.2,-4.26
6.0611,-11.441,-3.2553,-0.029627,1.3821,0.81825,24.54,36.84,-4.8
5.5026,-9.6977,-3.1872,0.040928,1.0247,-0.2645,27.06,35.94,-5.4
5.8976,-10.583,-3.7728,0.2251,0.55192,-0.89461,28.08,35.4,-5.52
6.0611,-11.645,-3.9635,0.1127,0.066279,-1.2969,28.92,34.98,-5.52
6.0611,-12.122,-3.6775,-0.1741,-0.46762,-1.5046,30.24,34.5,-5.52
5.8976,-12.503,-3.4732,-0.46853,-1.3522,-1.6551,30.54,34.32,-5.52
5.4754,-13.28,-3.4732,-0.551,-2.032,-1.7849,30.72,34.26,-5.34
5.094,-14.07,-3.4459,-0.78893,-2.5507,-1.9102,30.72,34.2,-5.22
4.0861,-14.642,-2.833,-1.1579,-2.7657,-2.0296,30.54,34.14,-5.22
3.2416,-14.015,-1.9205,-1.3824,-2.7761,-2.1912,29.76,34.26,-5.22
3.1327,-13.906,-1.9205,-1.5171,-2.697,-2.3033,28.92,34.62,-4.86
2.8875,-13.893,-1.5391,-1.7126,-2.5629,-2.3353,28.14,34.8,-4.62
2.4517,-12.681,-1.4574,-1.9209,-2.3375,-2.4129,25.74,35.52,-3.96
2.3291,-11.931,-1.185,-2.1093,-1.879,-2.5519,24.24,35.94,-3.54
2.1248,-10.855,-0.84446,-2.2122,-1.554,-2.6454,22.62,36.42,-3.06
1.8251,-9.6432,-0.64016,-2.2993,-1.2428,-2.7675,19.02,37.74,-2.16
1.7843,-9.3844,-0.61292,-2.3405,-0.97616,-2.9126,17.16,38.34,-1.8
1.7025,-8.9894,-0.54481,-2.3369,-0.74923,-2.9428,15.18,38.76,-1.32
1.7843,-9.0303,-0.47671,-2.3146,-0.59498,-2.9496,11.46,39.48,-0.12
1.8251,-9.3708,-0.40861,-2.2538,-0.52229,-2.9111,9.72,39.78,0.6
1.7025,-9.8748,-0.32689,-2.1487,-0.47983,-2.6771,7.98,39.9,1.5
1.2531,-11.605,-0.31327,-2.0769,-0.41417,-2.3921,4.44,39.72,3.54
1.0624,-12.081,-0.35413,-1.974,-0.23763,-2.029,3.0,39.48,4.68
0.96704,-12.681,-0.25879,-1.8146,0.22449,-1.3506,1.38,39.12,5.7
0.83084,-12.49,0.34051,-1.7407,0.44807,-1.1145,-0.18,38.64,6.84
0.8036,-12.04,0.51757,-1.427,1.2504,-0.46029,-2.64,37.62,8.88
1.0488,-11.155,0.8036,-1.1228,1.7214,-0.071471,-3.72,36.96,9.9
2.1384,-9.2755,0.61292,-0.72388,1.938,0.25137,-5.28,35.34,11.76
2.4517,-8.5127,0.34051,-0.22327,1.7911,0.48136,-6.06,34.44,12.6
2.6287,-8.6762,-0.39499,0.33414,1.2792,0.70769,-6.48,33.72,13.38
2.9284,-9.2755,-1.0215,1.058,0.058338,1.0702,-7.44,32.28,14.64
2.7513,-9.6568,-1.9341,1.3708,-0.88667,1.292,-7.92,31.62,15.18
2.5742,-9.8884,-2.4108,1.5577,-1.6206,1.5797,-8.22,31.38,15.48
1.4438,-10.501,-2.8058,1.6087,-2.0241,1.9022,-8.16,31.02,15.66
0.96704,-10.624,-2.6696,1.5244,-1.9001,2.2336,-8.04,31.02,15.42
0.28603,-10.583,-2.2882,1.317,-0.87812,2.5818,-7.74,31.2,15.06
-0.40861,-10.283,-1.7298,1.0858,-0.44257,2.5995,-6.72,31.74,14.04
-0.57205,-10.052,-1.7434,0.85857,0.96456,2.3292,-6.24,32.1,13.56
-0.32689,-9.7522,-1.9341,0.82131,1.8949,2.1832,-5.7,32.52,12.9
0.81722,-9.0848,-2.2882,0.81825,2.6273,2.1481,-4.62,33.54,11.82
1.6208,-8.7306,-2.3427,0.90988,3.0895,2.1927,-3.96,34.08,11.34
3.2008,-8.145,-2.5061,1.0327,3.2141,2.3286,-3.36,34.44,10.98
3.8137,-7.8589,-2.4108,1.0663,2.6545,2.6249,-1.5,35.34,10.32
4.3449,-7.5729,-2.3018,1.0171,1.8766,2.7526,-0.54,35.76,9.96
4.4811,-7.4503,-2.2201,0.98166,1.0143,2.7895,0.66,36.12,9.6
4.3449,-7.6138,-2.0567,0.97891,0.26848,2.7816,3.0,36.54,8.88
3.9635,-7.9951,-2.3018,1.0321,-0.20861,2.7217,4.2,36.84,8.76
3.6775,-8.826,-2.6423,1.1316,-0.42577,2.5623,6.72,37.14,8.34
3.3778,-10.801,-3.2144,1.175,-0.22694,2.4453,8.1,37.26,7.98
3.623,-11.863,-3.6366,1.193,0.11332,2.2901,9.72,37.08,7.74
4.2223,-12.449,-4.0589,1.179,0.27947,2.182,11.22,37.08,7.38
5.3256,-13.539,-4.0589,1.0519,0.76267,1.7538,14.7,36.66,6.36
5.2438,-13.307,-3.7456,0.81917,0.99663,1.4239,16.38,36.48,5.82
5.203,-11.891,-3.5549,0.62919,1.1231,0.95784,19.68,36.06,4.68
5.2575,-11.25,-3.4596,0.53451,1.1515,0.43341,21.06,36.0,4.14
5.2302,-10.842,-3.6366,0.49114,1.0806,-0.16585,22.26,35.82,3.54
5.1621,-10.719,-3.7047,0.48839,1.0348,-0.4948,23.4,35.7,3.12
5.1757,-10.924,-4.0589,0.46151,0.83291,-0.73609,24.3,35.64,2.76
5.8295,-11.346,-4.7263,0.37477,0.40836,-0.8717,25.74,35.34,2.04
6.2245,-11.182,-4.9033,0.25443,-0.59376,-1.0238,26.28,35.22,1.74
6.6604,-11.713,-4.7399,0.14539,-1.4587,-1.1209,26.58,35.04,1.44
6.6195,-12.299,-4.699,-0.000916,-2.3421,-1.2462,26.88,35.04,1.2
6.0066,-14.356,-4.0316,-0.25626,-3.1111,-1.4062,27.0,34.92,0.78
4.699,-15.119,-3.2825,-0.69822,-3.6007,-1.5797,26.76,35.1,0.66
3.5277,-14.833,-2.9556,-1.1967,-3.7046,-1.7455,26.46,35.16,0.48
1.8796,-14.165,-2.4108,-1.6127,-3.4266,-2.0119,25.32,35.52,0.42
1.3212,-13.757,-2.3427,-2.0837,-2.4435,-2.1298,24.48,35.7,0.42
0.96704,-13.266,-2.0567,-2.2321,-2.0427,-2.1896,23.58,35.94,0.6
1.1441,-11.713,-1.7025,-2.5635,-0.84666,-2.3876,21.36,36.3,0.9
1.2803,-10.787,-1.4574,-2.6487,-0.15699,-2.5073,20.16,36.48,1.08
1.3757,-9.8748,-1.3757,-2.6395,0.40714,-2.6273,18.84,36.72,1.38
1.8387,-8.6762,-0.83084,-2.5696,0.78527,-2.7565,16.2,37.2,1.86
1.9886,-8.1313,-0.57205,-2.4132,0.95478,-2.9092,14.64,37.38,2.28
2.2474,-7.8317,-0.36775,-2.3424,0.91508,-2.9395,12.96,37.44,2.7
2.3291,-7.4776,-0.12258,-2.211,0.7196,-2.9648,11.28,37.56,3.12
2.3427,-7.246,0.027241,-1.9911,0.23732,-2.8546,8.04,37.44,4.62
2.2882,-7.4095,0.10896,-1.8182,-0.1347,-2.6768,6.3,37.38,5.46
2.2065,-7.9951,0.027241,-1.6466,-0.48136,-2.3915,4.86,37.14,6.36
1.5527,-9.5342,0.027241,-1.3903,-0.72326,-1.8048,1.92,36.48,8.16
1.2395,-10.025,0.16344,-1.2349,-0.64904,-1.3525,0.78,36.0,8.94
0.98067,-10.161,0.23155,-1.1417,-0.54062,-1.1261,-0.36,35.46,9.72
0.57205,-9.8884,0.47671,-0.85704,0.058338,-0.39737,-2.16,34.56,11.4
0.35413,-9.7385,0.54481,-0.58613,0.6298,0.13073,-3.06,33.96,11.94
0.49033,-9.7249,0.5993,-0.24984,1.1771,0.65851,-3.78,33.36,12.72
1.4846,-10.283,0.28603,0.42486,1.5901,1.4841,-4.86,32.22,13.98
2.0431,-11.455,-0.38137,0.94226,1.4664,2.094,-5.16,31.62,14.52
2.261,-12.054,-0.9398,1.2028,1.2599,2.4007,-5.4,31.32,14.88
2.8058,-12.49,-2.0839,1.8592,0.20067,3.1536,-5.7,31.08,15.0
3.1599,-12.572,-3.1191,2.1426,-0.61423,3.5332,-5.58,31.08,15.0
3.0646,-12.885,-3.6639,2.343,-1.3488,3.7666,-5.34,31.2,14.76
1.7706,-13.729,-3.4459,2.4199,-1.7449,3.9202,-4.2,31.8,13.92
0.58567,-14.206,-2.9965,2.1951,-1.3708,3.9022,-3.54,32.34,13.32
-0.040861,-13.961,-2.6968,1.8967,-0.64843,3.4746,-2.64,32.7,12.72
-0.29965,-13.552,-2.4517,1.6182,0.35583,2.9297,-1.68,33.18,11.94
0.57205,-11.727,-2.8058,1.4627,1.46,2.6472,0.6,34.02,10.56
1.471,-11.032,-2.9829,1.3528,2.4175,2.4514,1.92,34.44,9.84
3.2008,-9.6296,-3.0373,1.1774,3.2223,2.0574,4.8,35.22,8.7
4.2495,-8.9622,-2.833,1.022,3.1847,1.8405,6.3,35.7,8.1
5.0531,-7.9679,-2.4789,0.83505,2.7034,1.7086,7.86,35.82,7.62
5.6116,-7.0281,-2.2201,0.71288,1.8983,1.6218,9.54,36.06,7.14
5.3528,-5.5707,-1.9341,0.71532,1.0492,1.5427,12.66,36.3,6.66
4.9442,-5.2847,-2.0294,0.80237,0.29169,1.4331,14.1,36.36,6.36
4.4811,-5.7069,-2.1793,0.89828,-0.24526,1.3131,15.54,36.24,6.18
3.5413,-6.8647,-2.942,0.98135,-0.60781,1.2205,18.36,35.94,5.94
3.4459,-7.7227,-3.1599,1.0455,-0.68081,1.2248,19.56,35.76,5.7
3.5413,-8.4174,-3.4187,1.0861,-0.71196,1.2553,20.58,35.64,5.58
3.8546,-10.76,-3.9635,1.1219,-0.81886,1.4032,21.96,35.46,5.4
4.3585,-13.13,-4.4811,0.96914,-0.75289,1.4633,24.12,35.28,4.62
5.1757,-13.811,-4.7263,0.51404,-0.16799,1.2294,25.02,35.1,4.26
4.699,-12.653,-3.6775,0.3094,0.17257,1.0412,26.82,34.74,3.18
4.0725,-11.414,-2.7649,-0.15149,1.1041,0.22724,27.66,34.5,2.76
4.0589,-10.351,-2.5334,-0.13042,1.2483,-0.16554,28.38,34.2,2.52
5.2166,-11.155,-3.7456,0.14325,1.0574,-1.2877,29.76,33.66,1.86
5.8567,-12.367,-4.0589,0.045509,0.67684,-1.7107,30.24,33.36,1.56
6.0202,-12.572,-3.8682,-0.2364,0.18509,-1.8751,30.54,33.3,1.08
5.7205,-12.503,-2.9556,-0.51985,-0.60751,-1.9499,30.54,33.06,0.72
5.4754,-13.457,-2.7513,-0.55436,-1.2602,-2.0626,30.48,33.0,0.84
5.1485,-14.247,-2.6968,-0.62339,-1.58,-2.1197,30.42,32.94,0.66
4.2087,-16.099,-2.0703,-1.0229,-2.2449,-2.1976,29.46,32.94,0.78
3.9908,-15.963,-1.9341,-1.285,-2.4031,-2.2712,28.92,32.88,0.9
3.7728,-15.527,-1.7162,-1.4001,-2.4053,-2.3448,28.2,32.94,0.84
3.3097,-15.2,-1.5936,-1.5565,-2.229,-2.4123,26.28,33.36,1.2
3.0101,-14.601,-1.3484,-1.6228,-2.1389,-2.4523,25.02,33.72,1.38
2.8058,-13.552,-1.0896,-1.7581,-1.9172,-2.591,23.76,34.2,1.32
2.4789,-11.904,-0.7355,-1.9862,-1.5962,-2.8585,21.06,35.22,1.44
2.152,-10.815,-0.47671,-2.1258,-1.4007,-3.0375,19.62,35.76,1.56
2.0703,-9.7658,-0.32689,-2.2184,-1.2025,-3.2116,18.24,36.12,1.68
1.7025,-8.8124,-0.20431,-2.2981,-0.87384,-3.3918,15.48,37.08,1.92
1.6072,-8.4719,-0.19068,-2.3045,-0.67623,-3.4563,14.16,37.44,2.04
1.5391,-8.322,-0.1362,-2.2455,-0.52657,-3.4529,12.72,37.8,2.34
1.471,-8.7306,-0.14982,-2.1527,-0.44288,-3.3897,10.02,38.4,3.06
1.3212,-8.9894,-0.027241,-2.0504,-0.37904,-3.2257,8.64,38.7,3.66
1.1169,-9.1529,-0.027241,-1.9258,-0.30238,-2.9438,7.32,38.76,4.32
0.69464,-10.052,0.34051,-1.7798,-0.17868,-2.288,4.44,38.94,5.76
0.55843,-10.338,0.40861,-1.5085,0.13225,-1.7208,3.0,38.88,6.66
0.28603,-10.501,0.58567,-1.2639,0.47922,-1.069,1.56,38.64,7.5
0.12258,-10.42,0.83084,-1.1099,0.68997,-0.71227,0.18,38.4,8.28
0.39499,-9.1529,0.92618,-0.4945,1.3445,0.46273,-2.4,37.74,10.02
0.85808,-8.3084,0.81722,0.049175,1.58,1.2654,-3.6,37.38,10.86
1.9205,-8.0224,0.31327,0.66493,1.5638,2.021,-4.62,37.08,11.64
2.4108,-8.5672,-0.19068,1.5986,1.0128,2.9902,-6.24,36.78,12.78
2.9284,-9.793,-0.92618,1.8876,0.65943,3.2235,-6.72,36.72,13.26
3.514,-11.101,-2.1929,2.609,-0.84605,3.7058,-7.02,36.72,13.5
3.9635,-13.225,-3.3778,2.9034,-2.0656,3.8628,-6.9,36.9,13.38
3.3097,-14.383,-3.1191,2.9865,-2.9273,3.985,-6.6,37.32,13.02
2.3972,-14.642,-2.3563,2.7428,-3.1334,4.109,-5.88,37.56,12.42
0.23155,-13.702,-1.0351,1.9007,-2.3283,3.824,-3.54,38.16,10.74
-0.57205,-12.517,-1.1169,1.4713,-1.1414,3.3115,-2.16,38.58,9.84
-0.78998,-11.645,-1.3212,1.343,0.36011,2.7978,-0.72,39.0,8.76
-0.19068,-9.9837,-2.3155,1.3265,1.8628,2.3918,2.52,39.72,6.78
0.64016,-9.7658,-2.7649,1.2211,3.1545,2.0229,4.26,39.96,5.82
1.58,-9.221,-2.833,1.157,4.1172,1.7135,6.12,40.08,4.92
3.6094,-8.1177,-2.0839,1.0412,4.6417,1.4697,9.9,40.02,3.54
4.5356,-7.8589,-1.7162,0.87659,4.225,1.5,11.76,39.9,3.12
5.2302,-7.6819,-1.2803,0.77885,3.8219,1.5412,13.5,39.72,2.7
5.775,-7.6546,-1.2395,0.66706,2.1964,1.6463,16.68,39.18,2.34
5.6524,-8.1858,-1.6072,0.70799,1.0934,1.6762,18.18,38.76,2.28
5.3664,-8.8805,-2.4789,0.75717,0.17379,1.7538,19.38,38.4,2.52
4.5083,-9.9565,-2.942,0.8772,-0.57055,1.8717,21.78,37.5,2.88
4.3449,-10.665,-3.337,0.95326,-0.70097,1.883,22.98,37.08,3.12
4.2359,-11.223,-3.5685,1.1069,-0.79626,1.8595,24.3,36.54,3.36
4.2495,-12.694,-4.4947,1.16,-0.56994,1.7782,26.58,35.58,3.48
4.5901,-13.253,-4.6718,1.0403,-0.30329,1.5742,27.66,35.22,3.48
4.808,-13.171,-4.3858,0.7816,0.0015272,1.1933,28.68,34.8,3.42
3.9635,-11.809,-3.4187,0.31582,0.44318,0.5174,30.36,33.9,2.94
3.732,-10.719,-3.3642,0.19884,0.69578,-0.037874,31.2,33.42,2.52
3.8954,-9.902,-3.5004,0.17532,0.78496,-0.30116,32.04,33.06,2.22
4.1951,-9.5887,-3.6775,0.16493,0.81734,-0.91691,32.58,32.7,1.8
4.8625,-10.12,-4.4539,0.14569,0.4948,-1.1133,33.78,32.1,1.14
5.5162,-10.542,-4.4947,0.033903,-0.10018,-1.2052,34.32,31.86,0.78
6.851,-11.741,-4.1542,-0.069333,-0.92943,-1.2327,34.86,31.62,0.18
7.0145,-12.544,-3.8954,-0.31643,-2.3231,-1.1787,34.98,31.5,-0.18
7.0553,-13.634,-3.5413,-0.52076,-3.2434,-1.2101,34.92,31.44,-0.48
6.9736,-14.928,-2.9284,-0.84025,-3.8567,-1.3552,34.86,31.62,-0.84
5.3119,-16.685,-1.58,-1.2721,-4.0134,-1.5644,34.5,31.68,-1.62
3.1054,-16.889,-0.99429,-1.7926,-3.6744,-1.7889,34.08,31.92,-1.92
1.3212,-15.5,-1.1441,-2.2532,-2.9312,-2.124,32.94,32.7,-2.28
0.96704,-14.465,-1.2258,-2.6011,-1.3473,-2.7913,31.92,33.24,-2.58
1.1441,-13.457,-1.2122,-2.6637,-0.84696,-2.926,30.96,33.78,-2.82
1.5936,-12.449,-1.0624,-2.7125,0.39065,-3.237,29.82,34.5,-3.06
2.261,-10.406,-0.5993,-2.5992,0.8827,-3.4511,27.06,36.0,-3.3
2.5061,-9.6977,-0.35413,-2.4535,1.0482,-3.5846,25.56,36.9,-3.3
2.7649,-9.1937,-0.095342,-2.2993,0.88087,-3.6618,24.0,37.56,-3.18
2.942,-8.3493,0.027241,-2.0678,0.21533,-3.7028,20.46,39.42,-2.76
2.8467,-7.9951,0.32689,-1.8998,-0.32437,-3.635,18.54,40.32,-2.46
2.656,-7.8589,0.27241,-1.7578,-0.80634,-3.4477,16.38,40.98,-1.86
2.1656,-7.6955,0.54481,-1.6167,-1.1726,-3.1725,12.12,42.6,0.06
1.6889,-7.5048,0.64016,-1.4676,-1.3537,-2.8075,9.9,43.14,0.96
1.2939,-7.4367,0.81722,-1.2984,-1.3735,-2.35,7.62,43.74,1.92
0.96704,-7.1234,0.8036,-1.014,-1.0956,-1.5397,3.42,44.34,4.08
0.95342,-6.8374,0.99429,-0.81215,-0.74434,-1.0107,1.38,44.58,5.16
0.85808,-6.6195,0.98067,-0.58826,-0.2697,-0.49358,-0.54,44.7,6.36
0.64016,-7.069,1.4574,-0.3485,0.27336,0.0061087,-3.84,44.4,8.4
0.92618,-7.4231,1.471,-0.06689,0.81092,0.46853,-5.34,44.22,9.48
1.3893,-8.5536,1.4438,0.27611,1.1677,0.95264,-7.86,43.92,11.1
2.0975,-9.507,1.2667,0.95631,1.2507,1.7468,-8.7,43.56,11.7
2.4244,-10.637,1.2122,1.5061,1.0363,2.3271,-9.42,43.56,12.36
2.8603,-12.108,0.91256,2.1228,0.5623,2.988,-9.84,43.56,12.6
3.8273,-14.601,-0.51757,2.7987,-0.19364,3.6316,-10.14,43.68,12.48
4.9987,-15.786,-3.4732,3.4477,-1.4493,4.1432,-9.9,43.8,12.12
5.8704,-15.827,-6.9191,4.3023,-4.2849,4.3955,-8.16,44.34,10.68
4.9306,-14.833,-6.4424,4.4899,-5.3093,4.5167,-6.9,44.82,9.6
2.9148,-15.023,-5.2983,4.2822,-5.2715,4.6261,-5.52,45.18,8.34
1.7025,-15.173,-5.094,2.6542,-3.9828,4.2275,-3.84,45.36,6.66
0.19068,-14.397,-5.3528,1.4914,-2.6844,3.0775,-2.04,45.66,4.86
0.31327,-11.278,-4.0589,0.72265,-1.4862,1.7663,1.98,45.9,1.08
-0.16344,-8.9758,-3.051,0.41569,-0.48197,0.84696,3.78,45.84,-0.72
-0.99429,-8.2948,-3.2553,0.53267,0.35369,0.12828,5.82,45.78,-2.46
-0.96704,-9.0848,-4.5764,0.69914,1.7092,-0.95692,9.66,45.3,-5.94
0.24517,-9.3572,-5.2438,0.41722,2.5922,-1.4511,11.4,45.0,-7.32
1.2258,-9.3436,-5.6388,0.041233,3.2287,-1.6591,12.96,44.46,-8.64
4.0044,-7.3686,-5.5435,-0.30116,3.4254,-1.4994,15.96,43.86,-10.8
4.4402,-6.3471,-5.094,-0.39431,3.102,-1.0311,16.98,43.44,-11.76
4.9578,-4.7535,-4.3449,-0.17043,1.5204,-0.29627,17.82,43.14,-12.12
5.0259,-3.9771,-3.9635,-0.063225,0.79657,-0.14447,18.96,42.36,-12.66
4.6718,-4.0316,-3.732,0.22969,-1.3616,-0.027184,19.38,42.06,-12.72
3.9908,-4.2904,-3.5004,0.38026,-2.372,0.071777,19.5,41.94,-12.48
3.4187,-5.0259,-3.3778,0.50855,-3.0213,0.30329,19.5,41.94,-12.3
3.0646,-7.4912,-3.7047,0.55222,-3.4031,0.53573,19.5,41.88,-12.12
2.656,-8.7987,-3.7047,0.50946,-3.5256,0.78649,19.32,41.94,-12.12
1.6208,-10.147,-3.6094,0.33048,-3.3011,0.82192,19.02,42.06,-12.24
1.2939,-10.079,-3.3234,-0.055589,-2.3836,0.6918,18.84,42.18,-12.6
1.0215,-10.093,-3.1872,-0.15455,-1.9758,0.57757,18.78,42.36,-12.9
0.69464,-9.6023,-3.1054,-0.43433,-0.70585,0.17776,18.6,42.6,-13.2
1.471,-8.3493,-2.5879,-0.60751,-0.023518,-0.089186,18.3,42.72,-13.68
1.8932,-7.4503,-2.2882,-0.5623,0.61331,-0.42455,18.06,42.84,-14.16
2.5742,-8.0224,-1.9886,-0.49938,0.69211,-0.49083,17.7,43.02,-14.82
2.9692,-8.9894,-1.7434,-0.37141,0.63897,-0.48778,17.4,43.26,-14.94
3.514,-10.351,-1.7298,-0.34911,0.54917,-0.41325,17.16,43.44,-15.18
4.3585,-11.959,-2.0022,-0.36346,0.012523,-0.038485,17.04,43.56,-15.42
6.0611,-13.157,-2.152,-0.24404,-0.57513,0.17959,16.68,44.16,-15.3
6.7285,-13.416,-2.8058,-0.071777,-1.7978,0.34972,16.56,44.4,-15.36
7.5457,-12.395,-2.0839,-0.048869,-2.215,0.25137,16.26,45.06,-15.12
6.9055,-12.34,-0.77636,-0.15272,-2.967,-0.034514,16.14,45.48,-15.0
6.3471,-12.749,-0.21793,-0.22358,-3.5671,-0.27,15.78,45.9,-15.0
4.699,-13.225,-0.35413,-0.62278,-4.0012,-0.77152,14.82,46.56,-14.52
4.0452,-12.64,-0.46309,-0.92516,-3.8433,-1.1527,14.16,46.86,-14.34
2.7649,-11.264,-0.89894,-1.1298,-3.2681,-1.3641,13.44,47.1,-14.16
2.0567,-9.6023,-1.0215,-1.2532,-2.4526,-1.565,11.7,48.0,-13.86
1.9613,-9.0031,-0.9398,-1.3198,-1.3011,-2.0055,10.68,48.24,-13.68
2.0022,-8.6489,-0.70826,-1.3143,-0.96272,-2.0769,9.6,48.66,-13.38
2.3018,-8.4991,-0.46309,-1.2758,-0.27275,-2.1536,6.96,49.26,-12.72
2.7377,-8.4174,-0.49033,-1.1881,-0.15241,-2.1212,5.34,49.56,-12.42
3.1054,-8.4855,-0.47671,-1.073,-0.30574,-1.9471,3.72,49.8,-11.88
3.7456,-9.0575,-0.35413,-0.91813,-0.68447,-1.6411,1.92,50.1,-10.98
3.909,-9.4117,-0.28603,-0.75595,-1.1726,-1.2193,-1.8,50.34,-10.32
4.0316,-9.6296,-0.25879,-0.62308,-1.6982,-0.76328,-3.48,50.52,-9.48
3.8682,-9.7249,-0.17706,-0.44838,-2.3711,-0.17959,-6.72,50.52,-8.04
3.6775,-9.8339,-0.1362,-0.37141,-2.5809,0.085216,-8.1,50.58,-7.2
3.5685,-9.6296,-0.12258,-0.33811,-2.5595,0.2306,-9.42,50.7,-6.3
3.2553,-8.9349,-0.027241,-0.34392,-2.3637,0.26328,-11.88,50.7,-4.44
3.1463,-8.7715,-0.027241,-0.34392,-1.854,0.10965,-12.84,50.64,-3.6
2.9692,-8.7987,0.027241,-0.34422,-1.6499,0.0061087,-13.62,50.52,-2.64
2.9829,-8.9758,0.027241,-0.31093,-1.062,-0.34789,-14.46,50.34,-1.68
3.0782,-10.311,-0.068102,-0.26114,-0.71777,-0.54123,-15.84,50.1,0.18
3.2553,-10.828,-0.19068,-0.18754,-0.46578,-0.65637,-16.14,49.98,1.02
3.2553,-10.951,-0.32689,-0.088575,-0.31398,-0.72174,-16.8,49.8,2.58
3.2144,-10.529,-0.61292,0.039706,-0.25198,-0.73915,-17.16,49.5,3.3
3.1463,-10.188,-0.70826,0.27245,-0.24312,-0.71319,-17.4,49.32,3.84
3.0101,-10.992,-0.7355,0.42302,-0.25198,-0.62094,-18.3,49.26,4.68
2.9284,-11.155,-0.98067,0.54734,-0.23885,-0.53939,-18.66,48.9,4.98
2.833,-11.155,-1.3212,0.68722,-0.24068,-0.47128,-19.08,48.72,5.22
2.7377,-10.243,-3.0646,0.83139,-0.33445,-0.42302,-20.1,48.06,5.28
2.6287,-9.5206,-3.5549,0.93646,-0.50457,-0.43982,-20.64,47.88,5.4
2.547,-8.2539,-4.4402,1.0168,-0.71349,-0.47831,-21.42,47.58,5.22
2.6423,-7.9679,-5.5299,1.1542,-1.3897,-0.42761,-22.62,46.98,4.86
2.942,-8.5127,-6.3471,1.2013,-2.2501,-0.46273,-23.46,46.62,4.44
2.833,-9.1393,-6.5105,1.2358,-3.2275,-0.55772,-24.36,46.32,4.26
1.4029,-10.433,-6.1155,1.047,-4.1127,-0.52382,-26.1,45.66,4.14
0.054481,-11.25,-5.5299,0.67165,-4.0112,-0.38423,-26.88,45.3,4.2
-1.4301,-11.441,-5.0531,0.12798,-3.3579,-0.34147,-27.84,44.94,4.26
-2.7104,-9.5887,-4.2495,-0.31124,-2.5296,-0.48778,-28.92,44.16,4.92
-2.1384,-8.3629,-4.0861,-0.37935,-1.7504,-0.64324,-29.46,43.86,5.28
-1.2939,-7.8589,-4.0316,-0.25687,-1.2269,-0.60964,-29.7,43.32,5.88
0.40861,-8.2812,-4.3858,-0.20617,-0.97402,-0.4948,-30.12,42.48,7.26
1.0624,-8.3357,-4.5356,-0.26512,-0.91202,-0.40164,-30.3,41.82,7.92
1.7843,-8.1041,-4.2904,-0.27917,-1.0033,-0.33048,-30.24,41.34,8.64
2.3699,-7.8181,-3.7865,-0.1573,-1.2394,-0.17654,-30.18,40.8,9.36
2.9965,-8.5263,-2.3972,-0.12034,-1.5669,-0.046731,-29.58,39.84,11.1
2.7377,-8.8668,-1.5391,-0.19242,-1.861,-0.010079,-29.16,39.42,11.76
2.5061,-9.0575,-0.65378,-0.2981,-2.0443,-0.093462,-28.8,39.0,12.6
2.0294,-8.7306,-0.38137,-0.4273,-2.0351,-0.23213,-27.48,38.16,14.04
1.5255,-8.4991,-0.21793,-0.51007,-1.8393,-0.36133,-26.76,37.62,14.82
1.1713,-8.4174,-0.14982,-0.59315,-1.208,-0.6072,-25.98,37.08,15.54
0.68102,-7.8726,-0.12258,-0.60995,-0.58368,-0.76602,-24.9,35.88,16.74
0.8036,-7.069,-0.1362,-0.5623,0.12156,-0.88545,-24.48,35.34,17.22
1.1169,-6.279,-0.24517,-0.42608,0.76572,-0.99113,-24.0,34.86,17.88
1.7979,-5.2575,-0.44947,-0.11942,1.3967,-1.0699,-23.52,33.72,18.78
2.1384,-5.0123,-0.6674,0.1295,1.5235,-1.0983,-23.28,33.24,19.14
2.2882,-4.9987,-0.99429,0.25412,1.4835,-1.0944,-23.28,32.76,19.56
2.8194,-5.8295,-1.1441,0.67287,0.99052,-0.98197,-23.58,31.74,19.8
2.8194,-6.8647,-1.1032,0.95723,0.41997,-0.76144,-23.76,31.08,19.92
3.0237,-9.8611,-1.2939,1.3903,-0.46853,-0.11942,-24.12,29.88,19.86
3.1327,-11.087,-1.6072,1.7046,-1.0644,0.48319,-24.42,29.4,19.74
3.623,-12.04,-2.261,2.1154,-1.6405,1.1066,-24.6,28.98,19.5
4.1814,-13.484,-2.6696,2.3436,-1.9358,1.3909,-24.72,28.62,19.08
5.2575,-16.304,-4.699,2.9884,-2.9157,2.0656,-24.84,28.26,18.3
6.7693,-17.829,-6.7829,3.2565,-3.7367,2.2239,-24.6,28.32,17.88
8.5536,-18.687,-8.0224,3.0653,-4.5705,2.0507,-24.18,28.56,17.28
9.8884,-18.224,-2.152,0.91324,-4.6893,0.89186,-22.8,29.04,16.14
6.0202,-16.222,0.12258,-0.33231,-4.6976,0.071166,-22.08,29.28,15.72
3.1599,-14.696,0.35413,-0.96028,-4.7275,-0.90103,-20.88,29.58,15.36
-0.24517,-13.348,-0.36775,-0.88637,-4.4092,-2.2785,-19.68,29.82,15.18
-0.20431,-14.601,-2.2474,-0.92149,-3.569,-3.0158,-17.34,30.24,15.3
0.5993,-15.963,-3.3642,-1.6948,-2.6869,-2.7825,-16.26,30.3,15.24
1.3484,-15.255,-3.732,-3.0247,-1.6606,-2.4163,-14.28,30.48,15.72
1.4029,-12.245,-3.1735,-2.897,-0.30085,-2.6542,-13.56,30.36,15.9
1.8387,-10.924,-2.5606,-2.6399,0.000916,-2.6976,-12.84,30.24,16.26
2.4789,-10.855,-1.7843,-2.0998,0.45357,-2.4083,-12.42,30.0,16.5
2.3155,-9.5887,-0.5993,-2.0027,0.46517,-2.2843,-11.7,29.16,16.86
2.152,-8.5127,-0.20431,-2.0,0.41203,-2.273,-11.82,28.44,17.22
2.3155,-8.0224,0.054481,-2.0385,0.30696,-2.2571,-11.88,27.9,17.7
2.5879,-7.464,0.054481,-2.0717,0.069028,-2.2254,-12.6,26.34,18.36
2.4789,-7.2733,0.12258,-2.0779,-0.2474,-2.1157,-13.2,25.56,18.78
2.4108,-7.2188,0.054481,-2.0143,-0.68203,-1.7562,-13.74,24.66,19.08
2.1793,-7.5457,0.21793,-1.9236,-0.82528,-1.4807,-14.76,22.92,19.5
1.975,-8.1041,0.38137,-1.7929,-0.79993,-1.2263,-15.18,22.14,19.8
1.866,-8.9486,0.38137,-1.6548,-0.62736,-0.96761,-15.6,21.54,20.04
1.6481,-10.283,0.83084,-1.445,-0.10904,-0.62217,-16.32,19.92,20.58
1.5391,-10.583,1.0215,-1.3149,0.38607,-0.45845,-16.62,19.26,20.88
1.4029,-10.61,1.0624,-1.1442,0.97647,-0.33598,-16.86,18.54,21.36
1.2667,-10.515,1.1986,-0.89125,1.5513,-0.18448,-17.46,17.28,22.2
1.5119,-10.515,1.2531,-0.5455,2.0162,0.021686,-17.7,16.68,22.5
1.8387,-10.746,1.0215,0.12675,2.1619,0.51679,-18.42,15.42,22.92
2.8739,-11.468,0.12258,0.64935,1.795,0.92668,-18.78,15.0,22.98
3.4732,-11.931,-0.47671,1.1716,1.0889,1.3787,-19.02,14.64,22.86
3.732,-11.918,-0.76274,1.4074,0.65485,1.5941,-19.32,14.52,22.8
3.2553,-11.169,-1.7298,1.9526,-0.72021,2.1411,-19.86,14.4,22.44
2.9556,-10.706,-2.0839,2.2098,-1.4361,2.3509,-19.92,14.58,22.2
2.6696,-10.283,-2.2201,2.3689,-1.8827,2.4694,-20.16,14.7,21.72
1.5391,-10.488,-2.4653,2.5027,-2.036,2.554,-20.16,15.72,20.94
1.0896,-10.992,-2.6015,2.5018,-1.8091,2.5638,-19.98,16.26,20.46
0.84446,-11.319,-2.5198,2.4175,-1.3696,2.4694,-19.8,16.98,19.86
0.19068,-11.795,-2.4789,2.2755,-0.73334,2.3317,-19.44,18.9,18.84
0.054481,-11.741,-2.3836,2.1386,0.080023,2.193,-19.2,19.86,18.48
0.58567,-11.741,-2.4108,2.0238,0.9896,2.1402,-18.72,20.7,18.12
1.0624,-11.605,-2.6423,1.9099,2.1814,2.1567,-17.34,22.68,17.88
1.7706,-11.032,-2.9284,1.8918,2.507,2.1667,-16.56,23.46,17.7
2.2746,-10.42,-3.0101,1.8167,3.0299,2.2309,-15.78,24.24,17.28
3.7728,-9.0848,-2.8739,1.7055,2.9642,2.2666,-13.98,26.1,16.44
4.3449,-8.6081,-2.833,1.5788,2.569,2.2449,-13.14,27.0,15.78
4.8352,-8.1858,-2.9965,1.4813,1.8946,2.1811,-12.36,27.78,15.18
5.2711,-7.8589,-3.4459,1.4319,0.62553,2.0464,-10.62,29.22,13.74
5.4345,-8.0632,-3.8273,1.423,-0.22602,1.9584,-9.72,29.94,13.02
5.2166,-8.3493,-4.1542,1.4221,-0.57177,1.901,-9.06,30.48,12.3
4.7399,-9.5887,-4.7671,1.3268,-1.2782,1.7101,-7.32,31.44,10.86
4.6037,-10.447,-4.9714,1.2138,-1.4163,1.5556,-6.3,31.86,9.9
4.3449,-11.441,-5.0804,1.0705,-1.2685,1.394,-5.4,32.46,8.88
3.7456,-13.634,-5.1349,0.83841,-0.84788,1.0223,-3.48,33.54,6.6
3.4051,-13.579,-4.7944,0.15974,0.18601,0.6014,-2.46,34.08,5.7
3.2825,-13.007,-4.4675,-0.30635,1.0153,0.015577,-1.74,34.5,4.86
3.2553,-11.673,-3.8546,-0.54,1.7572,-0.66462,-1.02,34.8,4.08
4.0725,-9.7385,-3.4187,-0.49877,2.1133,-1.2278,0.24,35.4,2.94
4.8216,-10.256,-4.018,-0.35705,1.9264,-1.6909,0.96,35.7,2.58
6.7421,-12.912,-5.2166,-0.37202,1.2483,-2.0663,1.38,35.58,2.28
7.3822,-14.097,-4.9306,-0.67837,-0.40012,-2.2122,1.74,35.82,1.74
7.0962,-15.119,-3.6094,-0.98502,-1.605,-2.1286,1.98,35.94,1.62
6.4152,-15.677,-2.9692,-1.3033,-2.5397,-2.0837,2.04,35.88,1.38
4.0589,-17.597,-1.5119,-1.6298,-3.1102,-2.1221,1.74,35.76,1.56
3.2689,-18.306,-1.3893,-2.0992,-3.2205,-2.1982,1.38,35.64,1.68
2.7922,-17.734,-1.5936,-2.5146,-3.0079,-2.2898,0.24,35.4,2.52
2.1929,-16.29,-1.3212,-2.6994,-2.2068,-2.4328,-0.72,35.28,3.12
2.0431,-15.255,-1.1032,-2.6915,-1.533,-2.5397,-1.38,35.22,3.78
2.1929,-14.601,-0.57205,-2.697,-1.2214,-2.6185,-2.46,35.16,4.62
2.2474,-12.095,-0.21793,-2.7184,-0.50641,-2.9212,-3.48,35.04,5.46
2.2746,-11.482,-0.081722,-2.7242,-0.20983,-3.127,-4.8,35.1,6.36
2.2882,-10.937,-0.040861,-2.6435,-0.069028,-3.3946,-6.06,35.04,7.26
2.4653,-10.038,0.027241,-2.6169,-0.089797,-3.4599,-7.38,34.92,8.28
2.3291,-9.6704,0.054481,-2.5336,-0.18876,-3.5445,-8.76,34.56,9.42
2.1656,-8.7579,0.29965,-2.4077,-0.38759,-3.5262,-11.58,33.48,11.64
1.9613,-8.5808,0.34051,-2.281,-0.50855,-3.4193,-13.14,32.76,12.96
1.7162,-8.5672,0.54481,-2.1371,-0.60689,-3.2238,-15.96,31.08,15.24
1.4574,-9.3436,0.57205,-1.9716,-0.62217,-2.9386,-18.96,28.98,17.76
1.185,-10.311,0.50395,-1.6939,-0.47647,-2.2981,-21.96,26.7,19.92
0.95342,-10.61,0.51757,-1.4731,-0.24404,-1.7886,-24.66,24.0,21.6
0.76274,-10.351,0.70826,-1.2404,0.078802,-1.2514,-26.76,20.94,23.4
0.40861,-9.3436,0.99429,-0.95478,0.53695,-0.69852,-28.68,18.12,24.9
0.55843,-8.1995,0.95342,-0.61331,1.0406,-0.12034,-30.18,15.6,26.1
0.83084,-7.6955,0.81722,-0.1857,1.4224,0.42791,-30.78,14.46,26.46
1.6072,-7.355,0.35413,0.32254,1.5183,0.94257,-31.92,12.9,26.82
2.0431,-7.75,-0.31327,1.1591,1.1322,1.6533,-33.06,11.76,26.7
2.1929,-8.0632,-0.6674,1.6823,0.55375,2.0864,-33.42,11.58,26.64
2.3427,-9.3299,-1.8932,2.1252,-0.19945,2.507,-33.9,11.58,26.16
2.2746,-10.624,-2.6423,2.4768,-0.99327,2.9108,-33.96,12.24,25.68
2.0567,-12.231,-2.7786,2.7242,-1.6548,3.3155,-33.78,13.56,24.78
1.8932,-12.694,-2.7922,2.9215,-2.0574,3.7965,-33.54,14.46,24.24
1.2258,-13.416,-2.6968,2.9334,-2.0094,3.9135,-32.52,16.92,23.1
0.57205,-13.566,-2.7649,2.8173,-1.357,4.0598,-30.78,20.04,21.96
0.14982,-13.511,-2.6287,2.6988,-0.64294,3.8982,-29.82,21.6,21.3
0.068102,-13.443,-2.656,2.584,0.16066,3.5675,-28.68,23.22,20.64
0.43585,-13.334,-3.1191,2.4587,0.99266,3.2379,-26.16,26.46,19.44
1.0624,-13.13,-3.3642,2.3167,1.7639,3.0241,-24.9,28.02,18.84
2.5742,-12.517,-3.514,2.1283,2.3738,2.8836,-21.9,30.66,17.58
4.1406,-11.605,-3.1872,1.7089,2.7306,2.5968,-18.6,33.18,16.32
4.7263,-11.182,-3.1327,1.4145,2.4954,2.3625,-15.36,35.46,14.94
5.2438,-10.365,-2.656,1.1979,2.0317,2.1643,-13.62,36.24,14.16
5.1213,-9.5751,-2.5879,1.1222,1.4621,1.9966,-10.62,37.38,12.66
4.9033,-9.9292,-2.9556,1.0934,0.99571,1.7685,-7.92,38.22,11.16
4.6718,-10.883,-3.4732,1.0583,0.56719,1.5495,-5.52,38.7,9.78
4.5764,-11.319,-3.5685,0.95692,0.49083,1.5452,-4.32,38.82,9.12
4.6718,-11.618,-3.6503,0.88148,0.54489,1.5079,-2.04,38.94,7.8
4.7535,-11.727,-3.8954,0.78343,0.66584,1.3848,-0.84,39.06,7.32
5.1349,-11.319,-4.1406,0.6127,0.85765,1.2007,1.08,39.36,6.12
5.38,-9.8203,-4.0316,0.38149,1.1014,0.93462,2.46,39.48,5.1
5.4345,-8.4174,-3.6094,0.10568,1.3766,0.33659,3.6,39.42,4.2
5.5162,-7.5729,-3.337,0.061697,1.3766,0.11209,4.26,39.6,3.9
5.5843,-7.2324,-3.337,0.089492,0.95967,-0.58185,4.98,39.6,3.18
5.8159,-9.0848,-3.9499,0.15485,0.44379,-0.978,5.52,39.6,2.82
5.8431,-9.9292,-3.9363,0.078496,-0.1237,-1.2617,5.7,39.78,2.58
5.9249,-11.7,-3.4732,-0.1237,-0.65668,-1.3958,5.94,39.96,2.34
5.8704,-13.62,-3.0918,-0.37202,-1.0779,-1.4627,5.58,40.02,2.1
5.5843,-15.255,-2.8058,-0.73579,-1.6038,-1.6362,4.98,40.26,2.1
5.0395,-16.086,-2.3972,-1.0855,-1.6997,-1.8289,4.8,40.26,2.1
4.3313,-16.181,-1.8251,-1.3757,-1.5919,-2.0953,3.78,40.44,2.4
4.1542,-15.772,-1.7706,-1.5009,-1.3827,-2.4135,2.52,40.44,2.94
3.7047,-15.187,-1.5663,-1.5507,-1.193,-2.733,1.86,40.44,3.3
3.337,-14.083,-1.4165,-1.6185,-1.054,-2.985,0.06,40.44,4.32
3.1872,-13.634,-1.3893,-1.6371,-0.96486,-3.2431,-1.08,40.44,4.62
3.2553,-12.572,-1.4438,-1.6756,-1.0828,-3.529,-3.78,40.2,5.76
3.2689,-12.095,-1.0896,-1.6927,-1.3237,-3.6371,-6.72,40.08,6.96
3.1054,-11.836,-0.92618,-1.7523,-1.616,-3.6737,-9.84,39.78,8.16
2.656,-11.278,-0.49033,-1.8277,-1.8882,-3.6985,-11.52,39.48,8.7
1.9886,-10.665,-0.20431,-1.8885,-2.0409,-3.7189,-15.0,38.76,10.02
1.2939,-10.283,0.081722,-1.9215,-1.9215,-3.6533,-18.36,37.5,11.22
1.0624,-10.052,0.054481,-1.901,-1.6512,-3.5311,-19.86,36.6,12.0
0.58567,-9.4389,0.21793,-1.8066,-1.3158,-3.306,-23.1,34.56,13.44
0.40861,-8.9486,-0.081722,-1.6283,-0.97341,-2.9719,-25.62,31.98,14.88
0.47671,-8.9622,-0.28603,-1.3894,-0.68356,-2.5128,-27.6,29.1,16.44
0.55843,-8.7715,-0.28603,-1.1451,-0.45998,-1.9768,-29.22,26.16,17.94
0.46309,-8.7034,-0.14982,-0.89828,-0.18937,-1.3732,-30.0,24.48,18.72
0.40861,-8.6081,0.12258,-0.57757,0.30696,-0.38087,-31.08,21.48,20.16
0.61292,-8.717,0.19068,-0.36377,0.61239,0.24129,-31.86,18.54,21.36
0.91256,-8.54,0.14982,-0.10629,0.79932,0.7984,-32.28,17.16,22.02
1.4438,-8.4855,0.10896,0.17837,0.83597,1.2718,-33.0,15.3,22.56
1.8115,-8.7715,-0.054481,0.51313,0.77977,1.6887,-33.24,14.04,22.8
1.8387,-8.8532,-0.16344,0.85613,0.68478,2.043,-33.36,13.74,22.68
2.2474,-9.5479,-0.99429,1.3705,0.23976,2.4997,-33.48,13.56,22.32
2.547,-10.474,-1.9341,1.6609,-0.2416,2.7452,-33.3,14.16,21.84
2.6015,-11.618,-2.6423,1.8604,-0.75167,2.981,-33.0,15.36,21.06
2.5198,-12.095,-2.6423,1.9841,-1.1341,3.1673,-32.46,17.1,20.16
2.2065,-12.926,-2.4789,1.9905,-1.2956,3.3042,-31.98,18.06,19.74
1.4165,-12.871,-2.0294,1.8689,-1.1316,3.3005,-30.96,20.7,18.84
0.89894,-12.34,-2.0158,1.6347,-0.35155,3.043,-29.7,23.34,18.12
0.70826,-11.877,-2.3291,1.5547,0.37813,2.7251,-29.04,24.72,17.82
0.83084,-11.278,-2.9556,1.5217,1.149,2.4004,-27.42,27.24,17.28
1.7025,-10.61,-3.4051,1.4765,1.7749,2.2101,-25.68,29.52,16.68
2.6015,-9.7249,-3.1054,1.3546,2.189,2.0772,-23.64,31.5,15.96
2.9148,-9.221,-2.7649,1.1463,2.3659,1.9117,-22.68,32.46,15.66
3.3778,-7.8862,-2.5879,0.91324,2.3152,1.7465,-20.4,33.96,14.82
3.3778,-7.1779,-2.1929,0.68447,2.0351,1.5418,-18.3,35.04,14.1
3.3506,-6.9328,-2.1929,0.61453,1.8528,1.3995,-17.22,35.58,13.74
3.2008,-7.2733,-2.1656,0.59865,1.7315,1.2599,-15.3,36.42,12.9
3.0237,-7.9951,-2.3972,0.57299,1.6493,1.1805,-13.08,36.84,11.88
3.0237,-9.0031,-2.6423,0.54153,1.5986,1.2123,-11.1,37.5,10.74
3.2825,-9.7522,-2.5742,0.5507,1.5852,1.2639,-10.2,37.74,10.32
3.732,-10.937,-2.4789,0.60476,1.5568,1.4887,-8.34,38.34,9.12
4.0589,-11.536,-2.4789,0.64294,1.5143,1.6469,-7.5,38.64,8.52
4.699,-12.258,-2.6015,0.65851,1.5094,1.7486,-6.18,39.24,7.5
5.9793,-12.122,-2.6832,0.66615,1.5708,1.6487,-4.86,39.66,6.72
6.3471,-11.795,-2.6015,0.64782,1.6396,1.3748,-4.14,39.96,6.24
6.6059,-10.787,-2.4789,0.61056,1.6182,0.98013,-2.82,40.44,5.4
6.7966,-10.637,-2.7922,0.74495,1.0757,0.19273,-1.8,40.62,4.44
7.7772,-12.013,-4.0044,0.92943,0.20739,-0.30727,-0.96,40.92,3.66
8.1858,-12.449,-4.3449,0.90378,-0.77794,-0.73395,-0.6,40.98,3.24
7.8045,-12.572,-4.3994,0.70647,-1.7199,-1.0534,-0.06,40.98,2.34
6.3335,-12.136,-3.8001,0.40959,-2.478,-1.2205,0.18,41.1,1.44
5.8704,-12.735,-3.3097,0.13317,-3.2513,-1.5207,0.12,40.92,0.66
4.9306,-13.648,-2.9965,-0.17318,-3.5867,-1.7248,0.06,40.86,0.3
3.7456,-14.547,-2.6015,-0.60353,-3.7678,-1.8204,-0.72,40.68,-0.42
3.2825,-14.764,-2.6287,-1.0773,-3.6908,-1.8644,-1.2,40.5,-0.54
2.2337,-14.233,-2.3291,-1.4893,-3.3497,-1.9267,-2.76,40.32,-0.54
1.58,-13.198,-2.2201,-1.8262,-2.7687,-2.0708,-4.38,40.14,-0.24
1.362,-11.795,-1.866,-2.0452,-2.0837,-2.229,-6.36,39.42,0.6
1.3757,-11.019,-1.6208,-2.2633,-1.0186,-2.445,-7.44,39.3,1.2
1.4438,-9.9429,-1.185,-2.3619,-0.41386,-2.6056,-9.96,38.76,2.28
1.4982,-9.1393,-0.95342,-2.419,0.065973,-2.7712,-11.28,38.4,2.94
1.6481,-8.3765,-0.69464,-2.408,0.37843,-2.9279,-13.86,37.38,4.02
1.8932,-8.3493,-0.57205,-2.3573,0.51801,-3.0281,-16.68,36.48,5.22
1.9613,-8.54,-0.46309,-2.2929,0.5116,-3.0684,-18.0,35.76,5.7
1.8524,-9.5615,-0.47671,-2.1826,0.32926,-2.9447,-20.4,34.26,6.72
1.7843,-10.188,-0.40861,-2.0968,0.18021,-2.7086,-21.42,33.36,6.9
1.7025,-10.992,-0.38137,-1.9972,0.069333,-2.3289,-22.68,32.46,7.08
1.3893,-12.354,-0.054481,-1.8839,0.061392,-1.8665,-24.78,30.3,7.56
1.362,-12.735,0.054481,-1.7526,0.17593,-1.3329,-25.68,29.28,7.68
1.2395,-12.871,0.65378,-1.5751,0.405,-0.78618,-27.6,27.06,7.86
1.2803,-12.095,0.83084,-1.3558,0.74037,-0.27855,-28.2,25.8,8.04
1.3212,-11.387,0.89894,-0.90683,1.1845,0.32559,-28.86,24.84,8.1
2.0294,-9.902,0.83084,-0.49694,1.2514,0.66065,-29.88,23.28,8.28
2.4653,-9.902,0.68102,-0.053451,1.0085,0.97525,-30.3,22.38,8.28
2.9284,-9.9565,0.47671,0.38912,0.41447,1.2669,-31.02,21.12,8.22
2.7922,-9.9701,0.19068,0.83291,-0.30329,1.5507,-31.38,20.7,8.1
2.6696,-9.8203,-0.040861,1.2379,-0.95203,1.8393,-31.5,20.34,7.8
2.0567,-10.174,-0.96704,1.7413,-1.5913,2.1612,-31.56,20.4,7.62
1.7434,-10.447,-1.5119,1.9719,-1.7648,2.3243,-31.44,20.7,7.44
1.3348,-10.733,-1.7706,2.1139,-1.6811,2.449,-31.02,21.12,7.2
0.58567,-11.332,-1.7434,2.127,-1.336,2.5934,-30.48,22.38,6.9
0.44947,-11.509,-1.6344,1.9548,-0.40348,2.6444,-29.94,23.1,6.66
0.40861,-11.359,-1.5936,1.7758,0.32559,2.6179,-29.4,23.94,6.24
0.5993,-10.828,-1.6753,1.6496,1.0088,2.5611,-28.74,24.84,6.0
1.5391,-9.9156,-2.3836,1.5751,1.5131,2.532,-27.36,26.58,5.46
2.2882,-9.221,-2.942,1.5571,1.7938,2.4844,-26.58,27.54,5.28
2.3018,-7.9815,-4.127,1.5192,1.8372,2.2959,-24.78,29.28,4.74
1.3484,-8.1041,-4.4402,1.0672,3.1832,2.277,-23.58,29.94,4.62
5.6388,-7.3822,-2.547,1.1658,2.9056,2.1906,-22.5,30.9,4.32
6.8647,-6.9328,-2.3155,0.8717,0.56627,1.7987,-19.92,32.22,3.42
5.094,-6.6331,-2.3427,0.9389,-0.11393,1.8384,-18.66,32.76,3.12
2.5061,-8.54,-2.4789,1.0498,-0.27672,1.7987,-16.02,34.02,2.22
2.4789,-9.5751,-2.7104,1.0177,-0.10079,1.6298,-14.64,34.44,1.86
2.7649,-10.855,-3.1735,0.92332,0.043982,1.3192,-13.38,34.8,1.32
2.8603,-12.49,-4.3994,0.81642,0.1857,1.2712,-10.86,35.52,0.36
3.0646,-12.503,-4.4811,0.72876,0.63133,1.2624,-9.54,35.82,0.06
3.3915,-12.19,-4.3585,0.56597,1.288,1.1399,-8.34,35.94,-0.48
4.0725,-12.013,-3.8546,0.45601,1.5449,0.88026,-5.76,36.3,-1.62
4.4947,-11.918,-3.5277,0.31001,1.6218,0.51404,-4.56,36.6,-1.98
4.7399,-11.414,-3.3778,0.11881,1.4261,-0.048564,-2.76,36.9,-2.94
4.699,-9.8611,-3.051,0.015272,1.2798,-0.42974,-1.92,37.08,-3.36
4.4402,-9.3027,-3.1191,0.057421,1.0815,-0.79901,-1.2,37.14,-3.54
4.5356,-9.4389,-3.2008,0.19273,0.71929,-1.0724,-0.48,37.2,-3.9
5.3256,-10.91,-4.1406,0.16218,0.1237,-1.2486,0.3,37.14,-4.68
5.6116,-10.937,-4.0452,0.014661,-0.63866,-1.3314,0.6,37.08,-5.22
5.7614,-10.801,-3.3778,-0.19517,-1.781,-1.3344,0.78,37.08,-5.58
5.1485,-11.986,-2.9692,-0.24496,-2.149,-1.3369,0.84,36.78,-5.88
4.9306,-13.893,-2.9284,-0.36011,-2.8268,-1.3928,0.54,36.66,-6.18
4.7535,-15.228,-2.7241,-0.60689,-3.3439,-1.4456,0.24,36.72,-6.18
4.4675,-15.84,-2.2474,-1.2092,-3.467,-1.4868,-0.24,36.66,-6.12
2.2065,-15.486,-1.2258,-1.6237,-3.0174,-1.5534,-1.44,36.54,-6.0
1.5391,-14.805,-1.185,-2.0794,-1.7281,-1.8769,-2.28,36.36,-5.82
0.92618,-12.286,-1.1713,-2.1579,-1.2208,-2.0293,-3.12,36.42,-5.7
1.2122,-11.087,-1.0351,-2.2468,-0.23396,-2.3075,-5.22,36.54,-5.16
1.4165,-9.9429,-0.72188,-2.2709,0.94257,-2.6961,-6.3,36.6,-4.74
1.58,-8.9622,-0.44947,-2.1796,1.4083,-2.9465,-7.56,36.84,-4.56
2.3155,-7.6546,-0.23155,-2.032,1.5849,-3.1438,-10.2,37.08,-3.6
2.7377,-7.1915,-0.24517,-1.8613,1.412,-3.2748,-11.46,37.02,-3.12
3.1191,-7.246,-0.47671,-1.5256,0.58796,-3.2043,-14.52,37.14,-2.4
3.0646,-7.8998,-0.53119,-1.4206,0.22969,-3.1319,-16.02,36.96,-2.04
2.7377,-8.4038,-0.55843,-1.1872,-0.82833,-2.7284,-17.58,36.84,-1.68
2.3972,-8.9758,-0.40861,-1.0751,-1.3332,-2.3396,-19.2,36.66,-1.02
1.5527,-10.46,-0.25879,-0.99846,-1.6096,-1.8555,-22.26,35.88,0.24
1.3212,-10.924,-0.14982,-0.93951,-1.6515,-1.3381,-23.76,35.52,0.78
0.85808,-11.21,-0.068102,-0.8882,-1.3937,-0.81123,-25.38,35.04,1.62
0.054481,-11.155,0.21793,-0.72052,-0.53176,-0.01741,-28.02,33.72,3.18
0.01362,-10.556,0.24517,-0.61911,-0.1631,0.23427,-29.34,33.12,4.02
0.25879,-9.9156,0.081722,-0.16646,0.86682,0.95295,-30.48,32.4,5.04
1.5936,-10.515,0.040861,0.20769,1.1839,1.3961,-32.04,31.26,6.84
1.9613,-11.141,0.14982,0.60231,1.2153,1.8201,-32.7,30.9,7.5
2.3427,-11.972,-0.23155,0.95967,1.0333,2.1814,-33.36,30.42,8.7
3.3097,-13.062,-0.57205,1.2459,0.61575,2.4911,-33.42,30.36,9.12
3.6094,-12.967,-0.96704,1.4481,0.034819,2.7052,-33.36,30.42,9.48
3.5685,-12.762,-1.185,1.6301,-0.84269,2.7981,-33.0,30.72,9.54
2.8467,-12.258,-1.2803,1.6634,-1.1826,2.7694,-32.16,31.86,9.3
2.3018,-11.972,-1.1986,1.6163,-1.2788,2.6713,-31.38,32.52,9.06
1.2803,-10.556,-1.5663,1.5043,-1.0931,2.4755,-30.42,33.3,8.76
1.0624,-9.616,-1.9341,1.3711,-0.29108,2.1313,-28.62,35.04,7.74
1.0896,-8.7851,-2.2337,1.321,0.44838,1.9911,-27.42,35.82,7.02
1.3484,-8.0632,-2.5061,1.266,1.1295,1.8931,-26.22,36.54,6.36
1.8387,-6.9464,-2.6423,1.1884,1.6063,1.7517,-23.94,38.04,4.92
2.152,-6.3743,-2.7649,1.0962,1.8998,1.6176,-22.68,38.64,4.38
2.5879,-6.0747,-2.6423,0.99999,1.9994,1.5296,-21.36,39.24,3.78
2.8194,-5.993,-2.5061,0.81306,1.9331,1.4636,-18.66,40.02,2.7
2.833,-6.279,-2.3972,0.69669,1.7025,1.4459,-17.16,40.32,2.1
2.942,-6.96,-2.4789,0.67745,1.6167,1.4462,-15.6,40.56,1.56
2.9965,-7.8045,-2.7241,0.66981,1.4416,1.4926,-14.04,40.74,0.96
3.051,-9.9565,-3.1191,0.65118,1.3485,1.6017,-11.28,40.74,-0.06
3.0918,-11.441,-3.1735,0.63897,1.3448,1.8482,-9.84,40.62,-0.6
3.623,-13.525,-3.514,0.62247,1.3857,1.9148,-8.4,40.62,-1.14
4.127,-13.961,-3.3778,0.64263,1.4957,1.9493,-5.7,40.44,-2.34
4.4402,-13.688,-3.3778,0.64446,1.5858,1.8332,-4.26,40.38,-2.76
4.6854,-13.348,-3.1735,0.60995,1.5821,1.5452,-2.76,40.38,-3.42
6.1428,-11.645,-3.1327,0.56139,1.3806,1.0238,-0.12,40.26,-4.62
6.1564,-10.474,-3.1463,0.55925,0.6185,0.22571,1.08,40.26,-5.34
5.1485,-8.6898,-3.5685,0.61423,0.30543,-0.0094684,3.42,40.26,-6.3
4.985,-8.7306,-4.2223,0.71929,-0.29413,-0.45662,4.32,40.2,-6.78
5.094,-9.2891,-4.9033,0.77641,-0.89919,-0.7758,5.04,40.14,-7.08
5.3528,-9.8884,-5.1894,0.57727,-1.981,-0.90683,5.58,39.9,-7.56
5.6661,-11.441,-4.9033,0.35155,-2.6307,-0.89492,6.6,39.84,-8.4
5.5026,-12.585,-4.4539,-0.078496,-3.3662,-0.79199,6.72,39.9,-8.82
4.413,-14.315,-3.4459,-0.33109,-3.5143,-0.7703,6.9,40.02,-9.3
2.9829,-14.805,-2.4653,-1.2404,-3.4798,-0.89339,6.84,40.32,-9.96
2.0839,-14.805,-1.9341,-1.7694,-2.9688,-1.175,6.48,40.5,-10.2
1.6072,-14.655,-1.7434,-2.1246,-2.1524,-1.47,5.88,40.56,-10.08
1.1986,-14.192,-1.6753,-2.3552,-1.1741,-1.7352,4.14,41.16,-9.6
1.4165,-13.893,-1.7298,-2.6182,0.21441,-2.1063,3.24,41.4,-9.06
2.1929,-11.605,-1.2939,-2.7364,0.62583,-2.2532,0.54,41.94,-7.68
2.6015,-10.488,-0.99429,-2.4688,1.4224,-2.6832,-0.9,42.18,-6.78
2.942,-9.9292,-0.76274,-2.3485,1.5052,-2.7959,-2.58,42.36,-6.0
3.4732,-8.6489,-0.16344,-2.0097,1.2245,-3.0006,-6.0,42.78,-3.9
3.6094,-8.2948,-0.16344,-1.821,0.68753,-3.0986,-7.86,42.72,-2.7
3.6094,-8.036,0.27241,-1.6777,0.027184,-3.1402,-9.78,42.66,-1.5
3.337,-7.6683,0.39499,-1.471,-0.98594,-3.0131,-13.92,41.82,1.26
2.9829,-7.5729,0.38137,-1.3418,-1.5375,-2.8011,-16.02,41.34,2.82
2.6015,-7.7636,0.54481,-1.274,-1.7538,-2.6664,-18.0,40.5,4.14
1.9886,-8.6081,0.69464,-1.0327,-2.0482,-2.1057,-21.6,38.76,6.96
1.7843,-9.4798,0.54481,-0.83475,-2.021,-1.6521,-23.34,37.68,8.28
1.5527,-10.351,0.55843,-0.62736,-1.8243,-1.1454,-25.08,36.48,9.66
1.3484,-11.523,0.70826,-0.27764,-1.2523,-0.36133,-27.78,34.14,11.94
1.2939,-12.272,0.65378,-0.16066,-0.9951,-0.10171,-28.8,32.88,13.02
1.4029,-12.544,0.5993,0.084605,-0.44013,0.3766,-29.64,31.62,14.16
1.9477,-11.4,0.095342,0.51343,0.22083,0.84819,-31.14,29.52,16.2
2.3291,-10.937,-0.29965,0.88301,0.33506,1.0602,-31.74,28.68,17.1
2.7513,-10.801,-0.83084,1.2901,0.097738,1.2052,-32.04,27.78,18.06
3.2825,-10.161,-1.5936,1.6591,-0.42669,1.3366,-32.04,26.82,19.32
3.4051,-9.8748,-1.8932,1.9523,-1.117,1.3631,-31.86,26.46,19.8
3.3506,-9.398,-2.5606,2.179,-1.8607,1.4035,-31.56,26.4,20.22
3.0918,-9.4253,-3.8001,2.3521,-2.9074,1.3842,-30.6,26.64,20.58
2.8058,-9.6296,-4.2904,2.2794,-3.4444,1.3195,-30.0,27.0,20.58
1.9613,-9.8611,-4.1951,1.9948,-3.6001,1.2343,-29.28,27.6,20.46
0.44947,-9.7249,-3.1054,1.2639,-2.8857,1.0201,-27.54,29.04,20.4
-0.6674,-9.112,-2.3427,0.75442,-1.9933,0.77091,-26.64,29.88,20.4
-1.1305,-8.5808,-2.0567,0.54703,-1.4963,0.61575,-25.68,30.84,20.16
-1.6889,-7.75,-1.8524,0.31062,0.012828,0.18937,-24.54,31.68,19.98
-1.3484,-7.9679,-2.152,0.33109,1.0385,-0.032376,-22.62,33.24,19.68
-0.6674,-8.3493,-2.5198,0.25748,1.9322,-0.16921,-21.66,33.96,19.62
-0.027241,-8.1586,-3.0237,0.070555,2.7981,-0.25473,-20.88,34.44,19.5
1.4982,-6.3471,-3.1599,0.2474,3.3775,-0.208,-19.92,35.52,19.32
2.3427,-6.1973,-3.4596,0.5846,2.9902,0.037568,-19.32,35.94,19.32
2.8194,-6.2245,-3.623,0.7251,2.558,0.20036,-19.02,36.3,19.02
3.5413,-6.1155,-3.7728,0.96211,0.69211,0.65668,-18.84,36.48,18.84
3.4868,-6.3879,-3.5685,1.0403,-0.66768,0.86712,-18.24,36.84,18.18
2.9284,-7.246,-3.5413,1.1066,-2.0785,1.0461,-18.12,37.02,17.88
2.2201,-8.1858,-3.5822,1.0712,-2.5433,1.1646,-17.82,37.32,17.04
1.757,-8.6489,-3.5822,0.99693,-2.62,1.2605,-17.64,37.38,16.8
1.4165,-9.1393,-3.7865,0.99693,-2.62,1.2605,-17.64,37.38,16.8
0.64016,-9.4525,-3.8546,0.75808,-1.4612,0.99999,-16.44,37.86,15.48
0.53119,-9.4798,-3.8001,0.70066,-1.0904,0.87506,-15.9,38.28,14.94
0.77636,-9.2891,-3.8001,0.62278,-0.38179,0.61545,-15.18,38.64,14.52
1.7162,-8.9213,-4.0589,0.57971,0.13011,0.41447,-13.56,39.36,13.56
2.2201,-8.6353,-4.2359,0.51557,0.37477,0.25687,-12.72,39.78,13.14
2.656,-8.3493,-4.2495,0.46701,0.24099,0.062919,-11.82,40.2,12.78
3.6366,-8.1858,-4.1406,0.44379,-0.18173,0.040317,-10.14,40.92,12.36
3.8273,-8.4991,-3.9227,0.45173,-0.78618,0.081856,-9.42,41.28,12.3
3.8137,-8.9894,-3.8001,0.47342,-1.4206,0.146,-8.76,41.58,12.0
3.2553,-12.286,-3.732,0.48961,-1.8989,0.31001,-7.5,42.18,11.46
3.2416,-13.144,-3.8682,0.33384,-2.1194,0.54398,-7.02,42.54,11.1
3.8954,-13.375,-4.018,-0.020159,-2.1451,0.77274,-6.36,43.08,10.92
4.3449,-12.898,-4.1814,-0.16616,-2.0885,0.77152,-6.0,43.38,10.74
5.3256,-12.694,-4.2087,-0.36805,-2.0543,0.63591,-5.7,43.44,10.68
5.4754,-11.264,-2.5334,-0.73701,-2.0559,0.27825,-5.16,43.68,10.68
4.8488,-10.447,-1.8251,-1.175,-2.2422,-0.46456,-4.74,43.68,11.04
3.8818,-9.5615,-1.4438,-1.1561,-2.332,-0.73457,-4.44,43.8,11.28
3.2144,-11.087,-1.8387,-1.0702,-2.4624,-1.401,-3.9,43.74,12.06
3.051,-12.027,-1.975,-1.3115,-2.4196,-1.529,-3.6,43.68,12.6
3.0918,-12.463,-1.8932,-1.6322,-2.2749,-1.4444,-3.36,43.68,13.2
3.2825,-12.967,-1.6753,-1.8531,-2.0672,-1.3347,-3.24,43.26,14.94
3.2553,-12.667,-1.5255,-1.8998,-1.8747,-1.2019,-3.3,42.9,15.84
2.9829,-11.032,-1.1577,-1.8262,-1.6872,-1.033,-3.48,42.3,17.88
2.8603,-10.256,-0.83084,-1.7061,-1.4707,-0.88911,-3.48,41.82,19.02
2.7786,-9.8611,-0.68102,-1.5913,-1.0956,-0.79779,-3.72,41.22,20.28
2.9692,-9.0848,-0.28603,-1.5675,-0.92149,-0.74464,-4.14,40.02,22.8
3.2825,-8.9894,-0.31327,-1.5308,-0.91966,-0.67776,-4.2,39.54,23.94
3.9227,-9.2482,-0.24517,-1.4963,-1.1124,-0.58796,-4.8,38.16,26.16
4.2223,-9.6023,-0.21793,-1.397,-1.6267,-0.3375,-4.98,37.38,27.3
4.3313,-10.093,-0.14982,-1.3179,-1.9752,-0.083689,-4.98,36.72,28.56
4.2495,-10.678,0.068102,-1.2669,-2.1481,0.12798,-4.8,36.06,29.46
4.0861,-11.169,0.1362,-1.2208,-2.0895,0.24343,-4.56,35.28,30.54
4.0316,-11.264,0.29965,-1.2071,-1.781,0.28375,-3.66,33.66,32.28
4.0316,-10.896,0.39499,-1.2132,-1.2318,0.19395,-3.12,33.0,33.24
3.3506,-10.025,0.6674,-1.1958,-0.16585,-0.18143,-1.62,31.14,34.68
3.1599,-10.052,0.89894,-1.1454,0.47922,-0.5284,-0.9,30.36,35.46
3.1735,-10.406,0.89894,-1.0959,0.7367,-0.71502,-0.3,29.7,36.0
3.7456,-10.488,0.44947,-0.89644,1.2553,-1.1643,0.72,28.26,37.14
4.0589,-10.011,0.35413,-0.69822,1.3155,-1.3494,1.02,27.48,37.8
4.2223,-9.9973,0.58567,-0.44135,1.1377,-1.4694,1.44,26.7,38.22
4.304,-10.706,0.64016,-0.19823,0.81276,-1.4716,1.56,25.5,39.24
4.3858,-10.964,0.58567,0.061087,0.44196,-1.4859,1.56,24.84,39.54
4.2768,-9.8339,0.21793,0.50427,-0.16035,-1.6619,1.14,24.3,39.96
3.8273,-7.5729,-0.54481,0.88239,-0.62156,-1.8864,0.3,23.4,40.32
3.0646,-8.0224,-1.0079,1.2788,-1.1274,-2.0757,-0.24,23.04,40.44
1.9613,-9.4389,-1.6889,1.7294,-1.9972,-1.996,-1.38,22.5,40.74
1.1713,-9.6296,-2.3155,1.97,-2.7113,-1.8164,-1.98,22.44,40.86
0.65378,-10.174,-2.4925,2.171,-3.3008,-1.627,-2.52,22.44,40.62
0.38137,-10.746,-2.5061,2.2501,-3.4868,-1.5113,-2.76,22.44,40.5
-0.8717,-11.986,-2.2201,2.3729,-3.5739,-0.96028,-3.0,23.1,39.96
-1.185,-12.258,-2.3155,2.3561,-3.47,-0.55008,-2.88,23.52,39.54
-1.185,-12.0,-3.2144,2.2556,-3.5036,-0.20403,-2.04,24.9,38.76
-0.83084,-10.869,-3.6639,2.2129,-3.6997,-0.11545,-1.14,25.68,38.04
-0.58567,-10.896,-3.5413,2.1771,-3.8158,-0.085827,-0.24,26.52,37.44
-0.49033,-11.073,-3.1735,2.0259,-4.0268,-0.016799,0.96,27.42,36.78
-1.1169,-10.733,-2.4653,1.5055,-4.1392,0.011912,3.9,29.16,35.28
-1.4982,-9.9292,-2.2201,1.1304,-3.9202,-0.031154,5.52,30.12,34.26
-1.5255,-8.2948,-1.9886,0.76144,-3.5247,-0.092241,7.2,31.2,33.18
-0.54481,-7.1915,-1.6072,0.42028,-2.762,-0.24465,10.74,33.12,30.72
0.35413,-6.96,-1.5936,0.42913,-2.5134,-0.33689,12.48,33.96,29.52
0.89894,-7.5457,-1.8387,0.45387,-2.5412,-0.39981,13.98,34.68,28.44
1.1577,-9.793,-2.5334,0.30177,-2.5775,-0.416,17.28,36.06,25.98
1.2939,-9.5887,-2.438,0.11942,-2.4172,-0.41844,18.78,36.6,24.84
1.3757,-8.9758,-2.152,0.048869,-2.0482,-0.40103,20.1,37.02,23.52
1.3212,-8.7579,-2.0839,0.027794,-1.5773,-0.33109,22.38,37.62,21.36
1.1169,-8.6898,-2.2882,-0.059559,-1.1051,-0.28436,23.34,37.92,20.16
1.0624,-8.4582,-2.3155,-0.12737,-0.59468,-0.30879,24.12,38.16,19.08
1.4438,-8.0088,-2.1112,-0.17043,0.2135,-0.25412,25.02,38.46,17.46
1.9886,-7.8998,-2.0294,-0.16829,0.57605,-0.19761,25.32,38.64,16.86
2.3972,-7.5593,-1.9613,-0.13042,0.71868,-0.18173,25.56,38.94,15.96
3.2144,-6.9055,-1.9886,-0.019853,0.60934,-0.21289,25.38,38.94,15.6
3.6503,-6.8102,-2.152,0.28161,-0.042761,-0.27611,25.26,39.18,15.3
4.0316,-7.0826,-2.4925,0.51404,-0.78649,-0.32467,25.2,39.36,15.0
4.1814,-8.1586,-2.8467,0.697,-1.6151,-0.35369,24.9,39.42,14.64
3.514,-8.5127,-2.833,0.80298,-2.3017,-0.34606,24.78,39.6,14.4
2.9965,-8.9486,-2.6832,0.85002,-2.7245,-0.29383,24.48,39.72,14.04
2.152,-10.706,-2.4789,0.84086,-2.7794,-0.07758,24.12,40.02,13.38
1.8796,-11.509,-2.5606,0.76725,-2.4768,0.1408,23.94,40.2,13.02
1.7434,-12.326,-2.7104,0.69669,-2.0036,0.34575,23.88,40.5,12.6
1.8932,-13.13,-2.9556,0.61881,-1.4142,0.52382,23.64,40.92,11.52
2.438,-13.566,-3.0918,0.5287,-0.81917,0.64935,23.64,41.04,10.86
2.8875,-13.947,-3.5685,0.37507,-0.34575,0.67531,23.52,41.1,10.2
5.1621,-14.628,-5.0259,0.12798,-0.19303,0.4386,23.76,41.1,8.88
6.8783,-15.582,-4.4947,-0.33872,-0.37324,0.094684,23.82,41.1,8.22
7.1098,-16.521,-2.9556,-0.60079,-0.4725,-0.059254,23.82,41.1,7.62
4.018,-16.671,-0.25879,-1.4933,-0.54184,-0.65393,23.64,40.98,6.54
2.9011,-16.222,-0.28603,-1.8314,-0.33201,-1.397,23.52,40.92,6.24
2.5879,-16.086,-0.57205,-1.9728,0.09163,-2.171,23.46,40.86,6.06
2.6287,-16.617,-1.0488,-2.3137,0.66493,-2.5919,22.98,40.68,6.0
2.9011,-15.582,-0.96704,-2.5614,1.6127,-2.8967,21.72,40.2,6.3
3.2825,-14.737,-0.68102,-2.241,1.9655,-3.0427,20.88,39.78,6.72
3.7047,-14.233,-0.44947,-1.9126,1.9178,-3.0369,19.92,39.42,7.32
4.2768,-12.245,0.25879,-1.5843,1.4581,-2.9514,17.58,38.7,8.52
4.1542,-11.223,0.47671,-1.321,0.73548,-2.8561,16.32,38.22,9.12
3.9499,-10.27,0.50395,-1.1237,-0.087048,-2.7849,14.88,37.8,9.9
3.4051,-8.6081,0.34051,-0.89461,-1.1729,-2.6316,11.94,36.72,11.22
3.1872,-8.2131,0.31327,-0.83841,-1.4478,-2.5556,10.44,36.12,11.88
2.6832,-7.464,0.35413,-0.74587,-1.8341,-2.4007,9.0,35.64,12.6
2.1656,-6.5786,0.36775,-0.68509,-2.0504,-2.1985,6.0,34.62,13.5
1.6344,-6.1292,0.51757,-0.67073,-1.9841,-2.073,4.56,33.96,13.92
1.3893,-5.9657,0.50395,-0.66096,-1.7798,-1.9487,3.3,33.36,14.4
1.1169,-5.6388,0.43585,-0.63713,-1.4865,-1.8088,1.32,32.28,14.94
1.0079,-5.7342,0.40861,-0.57605,-1.1777,-1.6457,0.48,32.04,15.18
0.95342,-5.8704,0.29965,-0.4328,-0.71227,-1.3256,-0.24,31.5,15.18
0.8717,-6.1155,0.31327,-0.30818,-0.40745,-1.0595,-1.56,30.54,15.24
0.77636,-6.2517,0.32689,-0.1347,-0.12798,-0.71257,-2.04,30.18,15.48
0.7355,-7.069,0.19068,0.072693,0.12217,-0.30818,-2.4,29.76,15.42
0.84446,-7.6002,0.068102,0.30146,0.32803,0.15455,-3.0,29.28,15.48
0.99429,-8.6762,-0.054481,0.57482,0.48472,0.68478,-3.18,29.16,15.42
1.2531,-10.011,-0.10896,1.0238,0.61697,1.533,-3.3,28.98,15.36
1.5119,-11.55,-0.35413,1.3173,0.6466,2.098,-3.36,28.62,15.24
1.8796,-12.449,-0.65378,1.6359,0.5904,2.6166,-3.3,28.68,15.12
2.1793,-13.566,-1.0079,1.9618,0.40623,3.1343,-3.12,28.8,14.82
2.942,-15.568,-1.7706,2.3827,-0.08491,3.7202,-2.52,29.28,14.1
3.1054,-16.508,-2.3427,2.6392,-0.52687,3.9575,-1.92,29.28,13.62
3.2416,-17.094,-2.8739,2.8057,-0.99327,4.0928,-1.38,29.58,12.96
3.1599,-16.889,-4.0316,2.8063,-1.3888,4.0326,0.36,30.36,11.64
2.261,-15.936,-3.8273,2.5467,-1.3384,3.7785,1.32,30.72,10.68
1.2395,-15.173,-3.2553,1.981,-0.74862,3.3338,2.34,31.32,9.72
-0.28603,-12.681,-2.3291,1.1545,0.84574,2.2407,4.56,31.98,8.04
-0.70826,-11.237,-2.152,0.96242,1.9743,1.5363,5.7,32.28,7.32
-0.44947,-10.474,-2.152,0.95936,2.9905,1.0812,7.02,32.4,6.66
0.47671,-10.937,-2.2065,0.88484,3.9444,0.75686,9.84,32.7,5.58
1.58,-11.06,-2.1929,0.58246,4.7266,0.55558,11.22,32.7,5.1
2.5742,-9.7385,-1.9886,0.23488,5.1691,0.53329,12.54,32.7,4.74
4.7807,-6.8647,-1.5936,0.087659,4.9538,0.83383,15.0,32.52,4.2
5.2166,-6.1155,-1.3893,0.082467,4.2241,1.2098,15.96,32.58,4.26
5.2711,-5.7614,-1.3212,0.1069,3.744,1.3815,16.98,32.52,4.44
5.0804,-5.4481,-1.3893,0.25045,2.1325,1.62,17.88,32.4,4.74
4.8625,-5.775,-1.7298,0.36652,1.1548,1.6677,19.26,32.22,5.52
4.6718,-6.1564,-2.3291,0.49572,0.41753,1.8231,20.04,32.04,6.12
4.522,-6.3743,-2.4789,0.63897,-0.078802,1.9829,20.88,31.92,6.6
4.3585,-7.5865,-2.7649,0.87018,-0.47953,2.0779,22.14,31.68,7.32
4.4266,-8.8668,-3.0646,0.91966,-0.53298,2.0986,22.68,31.68,7.38
4.6445,-10.311,-3.5685,0.96089,-0.52993,2.0705,23.28,31.56,7.44
6.3743,-12.34,-4.0589,0.81459,-0.27458,1.7135,24.48,31.26,7.62
6.6195,-12.585,-3.3915,0.59407,0.1124,1.1967,25.14,31.02,7.56
6.1292,-12.19,-2.7241,0.25717,0.40928,0.58826,25.74,30.9,7.62
5.0395,-10.869,-2.7513,0.25687,0.20831,-0.67226,27.0,30.12,7.2
5.4754,-11.359,-3.9363,0.45235,-0.31154,-1.4426,27.54,29.94,7.02
6.0202,-12.871,-4.3313,0.45815,-0.57452,-1.722,28.08,29.76,6.6
6.2654,-14.097,-4.5356,0.077885,-1.2795,-2.0803,28.62,29.46,6.36
5.4209,-14.043,-3.5004,-0.44013,-1.6118,-2.1701,29.22,29.04,5.34
4.9442,-13.675,-2.6287,-0.67531,-1.9416,-2.3607,29.34,28.86,4.92
4.0725,-16.453,-2.656,-0.70738,-2.3726,-2.536,29.34,28.8,4.32
3.3506,-17.393,-2.3563,-1.3754,-2.7617,-2.6276,29.22,28.8,4.08
2.5742,-15.582,-1.7025,-1.8213,-2.6695,-2.7932,28.92,28.92,3.78
2.4108,-14.369,-1.471,-1.9273,-2.4019,-2.9859,28.32,28.98,3.48
2.2337,-12.83,-1.1577,-1.9719,-2.1197,-3.0314,26.58,29.34,3.12
2.1248,-12.122,-1.076,-2.0372,-1.865,-3.0513,25.62,29.64,2.76
1.9886,-10.828,-0.89894,-2.0562,-1.6536,-3.1023,24.6,29.94,2.76
2.1248,-9.902,-0.7355,-2.0391,-1.4123,-3.1127,21.96,30.9,2.28
2.1248,-9.5342,-0.72188,-2.0177,-1.3653,-3.0604,20.46,31.44,2.1
2.152,-9.507,-0.69464,-2.0244,-1.3851,-2.9816,19.14,31.86,2.04
1.8115,-9.6704,-0.40861,-2.0791,-1.3717,-2.8851,16.5,32.94,2.1
1.5663,-9.4934,-0.38137,-2.1331,-1.2779,-2.7507,15.12,33.36,2.04
1.3348,-9.4798,-0.16344,-2.1838,-1.0892,-2.5595,12.42,34.02,2.58
1.0215,-9.7658,-0.095342,-2.1725,-0.68814,-2.2239,10.98,34.2,3.0
0.85808,-10.12,-0.095342,-2.1255,-0.3427,-1.9545,9.6,34.44,3.36
0.85808,-10.61,0.054481,-2.033,0.04612,-1.6423,8.22,34.68,3.96
0.76274,-10.924,0.38137,-1.9074,0.49114,-1.3076,5.94,34.98,5.1
0.76274,-10.746,0.54481,-1.7187,0.93859,-0.95356,4.8,35.1,6.0
0.98067,-10.529,0.84446,-1.4572,1.3525,-0.56688,2.76,34.92,7.5
1.3212,-10.038,1.0488,-0.93737,1.7929,0.058643,1.92,34.68,8.28
1.6344,-9.6296,1.0215,-0.48289,1.8512,0.48381,1.2,34.32,9.12
1.9886,-9.616,1.185,0.026267,1.6878,0.95173,0.42,34.08,9.72
2.4517,-10.624,0.95342,0.58551,1.2905,1.4957,-0.42,33.66,10.44
3.0918,-11.863,0.44947,1.1203,0.75075,2.0137,-1.68,33.36,11.58
3.1872,-12.217,-0.16344,1.6063,0.048869,2.3818,-2.22,33.24,11.94
3.4051,-11.863,-1.7843,1.9722,-0.74098,2.6756,-2.46,33.18,12.24
3.0101,-11.741,-1.866,2.2046,-1.4487,2.839,-2.4,33.3,12.42
2.3155,-11.754,-1.471,2.3088,-1.9086,2.9868,-2.04,33.42,12.06
1.4165,-11.727,-1.076,2.2113,-1.6289,3.1942,-1.74,33.6,11.7
0.36775,-11.182,-1.3484,2.1108,-0.99174,3.171,-0.66,33.9,10.44
0.28603,-11.032,-1.7025,2.0595,0.30635,2.9978,0.12,34.08,9.78
0.6674,-10.828,-2.5198,2.0791,0.79718,2.9929,0.96,34.38,8.94
1.4029,-10.746,-2.7786,2.1515,1.6524,3.0366,3.0,34.8,7.56
2.3563,-10.706,-3.3642,2.2397,2.4502,3.094,4.26,34.86,6.9
2.8739,-10.61,-3.7047,2.1689,2.5947,3.1457,5.82,34.8,6.06
5.0668,-9.9565,-2.8467,1.9429,3.0189,3.1936,9.24,34.56,4.68
6.3607,-9.5479,-3.4732,1.5895,1.5281,2.9771,11.1,34.38,3.96
6.6059,-8.8668,-3.6094,1.2813,0.58215,2.4322,12.84,34.02,3.12
6.5241,-8.145,-3.3778,1.2355,0.2025,2.3369,14.58,33.9,2.34
5.2847,-7.9951,-3.0918,1.171,-0.51099,1.8534,18.0,33.06,1.08
4.5628,-8.8805,-3.3915,1.2236,-0.74923,1.3659,19.68,32.46,0.6
3.8001,-11.032,-4.3721,1.219,-0.69578,0.99724,22.62,31.26,-0.24
3.7728,-12.299,-4.6718,1.0574,-0.38607,0.80756,24.0,30.72,-0.66
4.0861,-13.416,-5.2166,0.46578,0.45632,0.57544,26.82,29.52,-1.62
4.2904,-13.797,-5.2166,0.26359,0.68509,0.46762,26.82,29.52,-1.62
4.3177,-13.184,-4.4402,0.074831,0.93401,0.32712,28.14,28.92,-2.22
3.8273,-11.536,-3.5685,-0.2755,1.7825,-0.19426,29.16,28.5,-2.64
3.7184,-9.9837,-2.7649,-0.2642,2.0831,-0.67562,30.66,27.78,-3.24
4.8216,-10.91,-3.4732,-0.10934,1.9612,-1.0864,31.08,27.48,-3.42
6.5786,-12.953,-3.9227,-0.20128,1.055,-1.3784,31.86,27.06,-3.6
7.4367,-13.035,-3.2553,-0.49969,0.15241,-1.4068,32.04,26.82,-3.42
7.3277,-12.408,-2.8603,-0.63591,-0.33384,-1.4029,32.04,26.76,-3.42
6.6604,-12.953,-2.4108,-0.64782,-1.934,-1.5675,31.8,26.94,-3.18
6.17,-14.261,-2.1929,-0.67684,-2.7834,-1.7431,31.62,27.18,-3.12
5.6933,-15.418,-1.9068,-0.92852,-3.2819,-1.8586,31.44,27.42,-3.0
4.0316,-15.813,-1.2258,-1.4148,-3.3879,-2.0895,30.48,27.96,-2.82
3.1599,-15.187,-1.185,-1.6759,-3.0956,-2.3332,29.88,28.32,-2.52
2.6287,-14.71,-1.0624,-1.894,-2.5803,-2.5681,29.16,28.8,-2.34
1.8524,-12.572,-1.1441,-2.0714,-1.9505,-2.7776,27.3,29.82,-1.98
1.8932,-11.441,-1.1169,-2.193,-1.3787,-3.0009,26.28,30.36,-1.8
1.8387,-10.746,-0.95342,-2.2724,-0.89614,-3.1976,25.2,30.96,-1.62
1.7025,-9.221,-0.54481,-2.2993,-0.51374,-3.4224,22.38,32.28,-1.38
1.7706,-8.826,-0.43585,-2.3188,-0.19945,-3.5403,20.94,33.0,-1.2
1.7979,-8.2539,-0.38137,-2.2914,-0.17929,-3.5775,19.5,33.78,-1.02
1.9613,-8.145,-0.32689,-2.1567,-0.33017,-3.4871,16.26,34.86,-0.42
1.9205,-8.4174,-0.47671,-2.0507,-0.54275,-3.3091,14.58,35.16,-0.42
1.7706,-8.7579,-0.35413,-1.9377,-0.75533,-3.0366,12.9,35.58,0.48
1.2258,-9.9837,-0.20431,-1.8011,-0.89064,-2.361,9.72,36.24,2.04
0.85808,-10.324,-0.10896,-1.7233,-0.75686,-1.8247,7.98,36.3,2.94
0.8036,-10.474,0.1362,-1.6835,-0.61239,-1.5388,6.36,36.36,3.84
0.36775,-10.542,0.39499,-1.5079,0.13164,-0.63774,4.92,36.24,4.74
0.28603,-10.188,0.70826,-1.3131,0.82222,-0.05284,2.28,35.94,6.48
0.42223,-9.8475,0.9398,-1.0272,1.5073,0.47037,1.08,35.7,7.32
0.77636,-9.5342,0.96704,-0.41264,2.1637,1.212,-0.72,35.1,9.18
2.1384,-9.6296,0.61292,0.13042,2.1469,1.7092,-1.62,34.68,9.9
2.547,-10.706,0.25879,0.73487,1.7501,2.292,-2.22,34.2,10.68
2.9556,-11.523,-0.14982,1.3387,1.0232,2.8747,-2.7,33.9,11.46
4.5356,-12.449,-1.2395,1.8943,-0.016188,3.2886,-3.3,33.36,12.36
5.0395,-12.476,-2.1793,2.3582,-1.3375,3.58,-3.18,33.3,12.66
5.3937,-12.313,-3.3642,2.7092,-2.7074,3.6609,-3.06,33.3,12.66
4.4402,-12.136,-4.1406,2.8924,-3.9764,3.5455,-1.74,33.42,11.88
2.2201,-12.054,-3.2144,2.7443,-4.6737,3.3946,-0.9,33.66,11.34
0.7355,-11.863,-2.4789,2.1722,-4.3827,3.1411,0.12,33.9,10.56
-1.076,-11.25,-1.5936,1.2159,-2.1829,2.4297,1.26,34.14,9.78
-2.8058,-9.0575,-1.185,0.96181,-0.24465,1.9554,3.6,34.68,8.04
-2.4517,-8.5127,-1.3484,0.98563,1.6606,1.5785,4.92,34.86,7.2
-0.5993,-8.8668,-2.1384,1.0101,3.3204,1.2416,7.68,34.92,5.64
0.40861,-8.8805,-2.4789,0.60506,5.2815,0.78954,9.18,34.98,4.92
2.0839,-7.9543,-2.1384,0.40653,6.0937,0.63774,10.86,35.04,4.26
3.1872,-7.3141,-1.8932,0.43433,6.1056,0.72082,12.36,35.1,3.66
5.6933,-6.7012,-1.1441,0.40348,5.3405,1.0534,14.82,35.1,2.88
6.1836,-6.6604,-0.99429,0.37324,3.9605,1.5165,16.02,34.92,2.7
6.0883,-6.9191,-1.1986,0.40684,2.2941,1.8503,17.04,34.74,2.76
5.8023,-8.2131,-1.9068,0.63988,0.0076358,2.0128,18.9,34.38,3.0
5.3119,-9.5342,-2.4108,0.82039,-1.0617,2.2147,19.74,34.14,3.48
