Ax,Ay,Az,Gx,Gy,Gz,Mx,My,Mz
3.5549,-14.097,0.99429,0.78374,-0.62766,0.20006,16.92,38.28,9.96
3.8273,-13.402,0.50395,0.31001,-0.20036,0.2135,16.86,38.16,10.02
4.0997,-10.025,-0.99429,0.24801,-0.11912,0.18173,16.74,38.1,9.84
3.9635,-8.0632,-1.6344,0.35919,-0.35552,0.01741,16.74,38.16,9.66
3.2825,-6.8647,-1.9886,0.45265,-0.74892,-0.27336,16.26,38.34,9.12
2.6423,-7.0009,-1.7979,0.60384,-1.0739,-0.67806,16.14,38.46,8.82
2.3427,-7.2188,-1.6889,0.5791,-0.92821,-0.84971,15.78,38.7,8.4
1.8387,-8.431,-1.0896,0.54795,-0.66615,-0.95906,15.24,39.18,7.8
1.7706,-9.221,-1.1032,0.50916,-0.36285,-0.97555,14.88,39.48,7.62
1.8932,-10.025,-1.1169,0.42608,-0.078191,-0.89095,14.34,39.72,7.32
1.9068,-11.959,-3.4732,0.31276,0.2419,-0.84452,13.32,40.08,6.6
0.99429,-12.926,-6.1836,-0.09499,-0.81306,-0.97341,12.66,40.5,6.54
-0.95342,-13.144,-9.1801,-1.3647,-0.18784,-0.25534,11.94,40.74,6.3
-1.6889,-7.8862,-8.4855,-1.5971,0.99968,0.0051924,10.56,41.52,6.18
1.2395,-7.6002,-5.8023,-0.62614,2.1502,-0.85643,9.96,41.88,6.12
2.6423,-7.8862,-3.8001,-0.46609,2.3103,-0.57971,9.12,42.18,6.18
4.2087,-7.641,-2.0294,-0.58399,2.1606,-0.17532,7.68,42.66,6.36
4.5356,-7.6546,-1.7843,-0.47006,1.1252,0.12614,7.02,42.9,6.48
4.6173,-7.5321,-1.0896,-0.45051,0.62705,0.27,6.42,42.84,6.84
3.2825,-7.2733,-0.28603,-0.36346,-0.77855,0.6634,5.46,43.02,7.08
2.3836,-7.246,0.040861,-0.23579,-1.1784,0.80787,5.16,42.96,7.32
2.1929,-7.4095,0.040861,-0.10599,-1.0626,0.91874,4.98,42.96,7.5
2.2065,-7.6683,-0.10896,-0.02138,-0.73243,0.9725,4.92,42.96,7.86
2.3699,-8.1177,-0.34051,0.092546,-0.25443,1.0055,5.04,42.96,7.86
2.6015,-8.5808,-0.77636,0.16952,0.000611,0.97128,5.64,42.72,8.1
2.7513,-8.5808,-0.7355,0.26603,0.23305,0.90897,6.12,42.42,8.04
3.0646,-8.4991,-0.83084,0.36041,0.35797,0.82253,7.08,42.0,8.34
3.4868,-8.3765,-1.2122,0.45937,0.3372,0.72204,8.46,41.64,8.28
3.623,-8.2812,-1.4029,0.55192,0.19609,0.61178,9.3,41.28,8.34
3.5004,-8.2539,-1.6481,0.66981,-0.047953,0.44532,10.74,40.8,8.16
3.2416,-8.7306,-2.4244,0.67378,-0.058643,0.42028,12.36,40.32,7.86
2.833,-9.1393,-3.4051,0.57421,0.31093,0.23854,13.2,40.14,7.74
0.58567,-10.106,-5.598,0.24954,2.2135,0.20433,14.76,39.66,7.74
2.5334,-10.311,-4.8216,-0.075442,4.1594,-0.035125,16.08,39.36,7.74
5.3937,-8.8805,-3.1599,-0.25351,4.163,-0.60781,16.8,39.06,8.16
6.4833,-9.0031,-2.5334,-0.31551,3.7208,-0.5568,16.86,39.06,8.28
7.1371,-9.0712,-2.0839,-0.28008,2.0458,-0.18784,16.98,38.94,8.76
5.2711,-8.7034,-1.5391,-0.25381,0.65454,-0.019853,16.92,39.06,9.36
4.4947,-8.8941,-0.83084,-0.14172,0.16646,0.24007,16.56,39.12,9.9
4.8216,-10.297,-0.76274,0.10171,-0.77855,0.33506,16.08,39.12,10.32
4.4266,-11.032,-1.0624,0.32712,-1.1961,0.45418,15.78,39.3,10.5
4.0316,-12.095,-1.3348,0.56077,-1.1726,0.68539,15.36,39.42,10.92
4.7671,-12.98,-1.8387,0.79626,-1.274,0.80359,14.94,39.72,10.92
5.2166,-12.422,-2.2065,0.78099,-1.5916,0.81948,15.36,39.72,10.68
5.6524,-11.346,-2.2201,0.74464,-2.1866,0.74067,15.66,39.54,10.62
5.8023,-9.8339,-1.8796,0.67287,-2.9004,0.63774,16.32,39.48,9.78
4.8625,-9.5615,-0.83084,0.63377,-3.5769,0.72235,17.46,39.66,8.7
4.0861,-9.6704,-0.49033,0.76328,-4.0846,0.49724,18.3,39.6,7.5
2.4653,-10.256,0.040861,0.61667,-4.251,0.27886,18.78,39.54,6.84
1.5255,-9.902,-0.32689,0.36499,-3.7874,0.23091,19.68,39.66,5.34
1.0215,-8.5263,-0.6674,-0.069639,-2.0721,0.17043,20.28,39.66,3.42
1.1577,-7.8998,-0.68102,-0.21655,-0.96028,0.086132,20.64,39.66,2.58
1.7979,-6.8374,-0.7355,-0.2416,-0.13011,-0.032376,20.88,39.78,1.02
2.4517,-7.2869,-0.38137,-0.2025,0.31948,-0.1179,20.88,39.96,-0.54
2.6287,-7.8317,-0.19068,-0.16554,0.53329,-0.16707,20.88,40.14,-1.2
2.9148,-9.4117,0.74912,-0.1909,0.58735,-0.18998,20.28,40.44,-2.28
3.0237,-11.06,1.4165,-0.29474,0.44104,-0.15669,19.98,40.62,-3.36
2.8875,-12.572,1.6889,-0.46914,0.30055,-0.12309,19.38,41.04,-3.6
2.7241,-12.735,1.6481,-0.55986,0.13775,-0.12737,19.14,41.22,-3.84
2.2746,-13.484,1.7706,-0.55222,-0.040012,-0.20464,18.66,41.52,-4.02
1.866,-13.838,1.8932,-0.51496,-0.15699,-0.31001,18.42,41.76,-4.02
0.68102,-14.547,2.1248,-0.52076,0.012217,-0.42852,17.88,42.06,-3.9
-0.095342,-15.445,2.3563,-0.57482,0.48717,-0.44807,17.34,42.48,-3.78
-0.40861,-15.418,2.3563,-0.64294,1.1536,-0.42577,16.74,42.84,-3.54
-0.21793,-13.825,1.8115,-0.63805,1.7339,-0.3708,16.44,42.96,-3.36
0.70826,-12.204,0.84446,-0.5058,1.9984,-0.29596,15.9,43.56,-2.76
1.2122,-9.9292,-0.47671,-0.27978,1.7975,-0.25259,15.06,43.8,-1.98
0.91256,-9.0303,-1.0896,-0.041539,1.2428,-0.29963,14.82,43.98,-1.92
0.70826,-8.7851,-1.2531,0.20647,0.36285,-0.36835,13.26,44.28,-0.66
0.47671,-8.8805,-1.2803,0.29291,0.039095,-0.27733,12.72,44.34,-0.42
0.99429,-9.6704,-1.2122,0.30879,-0.065057,-0.098044,11.94,44.58,0.06
1.6617,-10.188,-1.2258,0.22999,-0.043982,0.16432,11.34,44.52,0.36
1.3212,-9.5887,-1.9341,-0.16982,0.15974,0.55131,10.86,44.46,0.6
0.8717,-8.9349,-2.2882,-0.354,0.57696,0.59926,10.74,44.52,0.66
2.0158,-6.3198,-1.7025,-0.28069,1.3014,0.36713,10.5,44.16,0.78
2.6968,-5.1213,-1.3757,-0.13408,0.94012,0.24954,10.5,44.04,0.9
2.438,-4.6173,-1.3212,0.014966,0.45784,0.27581,10.68,44.04,1.08
1.9886,-4.4675,-1.185,0.13897,0.22205,0.32712,10.8,44.04,0.9
2.4517,-5.0123,-1.2531,0.24618,0.20983,0.2697,11.4,43.98,0.9
3.051,-5.6797,-1.362,0.32681,0.072693,0.26542,11.94,43.8,1.02
3.3506,-6.3198,-1.4165,0.44746,-0.50366,0.4328,12.0,43.8,1.2
3.514,-7.3958,-1.5663,0.51771,-0.83902,0.59284,12.6,43.62,1.26
3.5004,-8.3493,-1.7298,0.57146,-1.0305,0.72113,12.84,43.8,1.32
3.4732,-10.433,-1.471,0.62094,-1.1032,0.80604,13.38,43.86,1.14
4.018,-14.247,-1.58,0.70647,-1.1875,0.87995,14.16,43.98,0.6
4.413,-15.8,-1.7706,0.7535,-1.2321,0.95356,14.46,44.04,0.48
4.9306,-16.167,-1.7298,0.44379,-1.2297,0.85796,15.18,43.92,-0.3
5.1485,-14.56,-1.3484,0.20036,-1.3289,0.67806,15.84,43.68,-1.02
5.0259,-13.484,-1.0624,0.049175,-1.6035,0.37935,16.32,43.5,-1.74
4.6582,-13.225,-0.83084,-0.043066,-1.9407,0.049175,16.5,43.56,-2.28
3.9499,-12.83,-0.39499,-0.19059,-2.0919,-0.27397,16.92,43.5,-3.24
3.1735,-11.877,-0.40861,-0.43646,-1.9661,-0.58246,16.92,43.32,-3.84
2.6832,-10.379,-0.62654,-0.65851,-1.5837,-0.84025,16.5,43.26,-4.56
2.4108,-8.8668,-0.57205,-0.93218,-0.76297,-1.1628,16.2,43.38,-4.86
2.152,-6.9464,-0.50395,-0.99388,-0.19426,-1.4035,15.3,43.5,-5.16
2.0839,-5.5299,-0.25879,-0.96853,0.26114,-1.6499,13.98,43.8,-5.04
2.0839,-5.2575,-0.14982,-0.90255,0.54886,-1.8772,12.24,44.22,-4.92
2.0839,-5.4073,0.20431,-0.80726,0.70769,-2.062,11.34,44.58,-4.74
1.8251,-6.2245,0.6674,-0.67073,0.7254,-2.2266,9.24,45.36,-4.38
1.7843,-7.4503,0.8036,-0.61667,0.56688,-2.2006,6.9,46.08,-3.9
1.6889,-8.54,0.85808,-0.60048,0.37813,-2.0827,5.64,46.5,-3.66
1.4438,-9.6977,1.2258,-0.54306,0.14661,-1.8289,3.24,47.1,-3.36
0.83084,-10.964,1.7025,-0.49327,-0.029322,-1.4875,1.02,47.64,-2.94
0.27241,-11.509,2.1384,-0.4441,-0.1014,-0.83811,-1.2,47.88,-2.88
-0.040861,-11.836,2.1112,-0.41875,-0.065363,-0.62644,-2.28,48.0,-2.76
-0.35413,-12.572,2.0431,-0.32651,0.16096,0.034514,-4.2,48.18,-2.58
-0.40861,-13.797,2.3972,-0.29016,0.40745,0.46823,-5.04,48.18,-2.46
-0.34051,-14.833,2.6015,-0.29138,0.7761,0.92424,-6.36,48.18,-2.7
0.6674,-13.402,1.6208,-0.2361,1.1539,1.3134,-7.38,48.12,-2.52
1.471,-11.795,0.38137,-0.029932,1.2746,1.6713,-7.8,48.12,-2.52
1.9886,-10.76,-0.47671,0.47983,0.82711,1.7321,-7.86,48.06,-2.4
2.3836,-9.5615,-1.6344,0.79199,0.21991,1.6692,-7.62,47.82,-2.4
2.2201,-8.7715,-1.9341,0.98288,-0.34819,1.5754,-7.32,47.76,-2.52
2.0567,-9.3844,-1.6072,1.062,-0.72021,1.5211,-6.72,47.76,-2.58
2.0022,-10.161,-1.1169,0.99663,-0.86193,1.5153,-6.18,47.64,-2.76
2.0158,-10.065,-1.0215,0.78618,-0.82192,1.5272,-4.74,47.4,-2.76
1.866,-8.5944,-1.1577,0.45051,-0.43402,1.5207,-3.36,46.98,-2.76
1.3212,-6.9328,-1.5391,0.071777,0.034819,1.427,-1.62,46.38,-3.18
1.4165,-5.6661,-2.2201,-0.034819,0.77946,1.2514,0.12,45.96,-3.36
2.3563,-5.2166,-2.0431,0.05681,1.1545,0.95356,0.9,45.66,-3.36
2.833,-5.2847,-1.9205,0.21502,0.86743,0.80879,2.64,45.06,-3.48
3.1191,-6.2381,-1.8251,0.28802,0.50183,0.90378,3.6,44.82,-3.54
3.1872,-8.036,-1.9341,0.34758,0.36438,0.95997,5.64,44.16,-3.66
3.7728,-9.6841,-2.1112,0.37477,0.23732,1.0739,7.38,43.62,-3.66
4.1814,-10.787,-2.3836,0.354,0.065973,1.2343,8.22,43.62,-3.78
4.699,-11.891,-2.547,0.30879,-0.078191,1.3555,9.84,43.2,-4.02
4.8216,-11.632,-2.3836,0.21564,-0.14233,1.3534,11.4,42.78,-3.9
4.6309,-10.883,-1.7979,0.13958,-0.15394,1.189,12.84,42.18,-4.08
4.6582,-11.141,-1.9613,0.17746,-0.22846,0.86621,13.62,41.88,-4.08
5.1621,-12.231,-3.0237,0.31643,-0.61942,0.27642,15.18,41.7,-4.26
5.3528,-12.517,-3.0373,0.24771,-1.0153,-0.13256,15.72,41.46,-4.32
5.2438,-12.49,-1.9886,0.064752,-1.3729,-0.49083,16.62,41.04,-4.44
4.0589,-12.177,-0.84446,-0.17379,-1.5623,-0.8039,17.1,40.56,-4.38
3.2961,-12.612,-0.5993,-0.37599,-1.5498,-1.0828,17.22,40.26,-4.68
3.1191,-12.939,-0.68102,-0.57452,-1.3573,-1.296,17.4,40.2,-4.8
2.7377,-12.83,-0.6674,-0.91477,-1.0406,-1.4545,17.22,40.02,-4.86
2.3563,-11.087,-0.31327,-1.3241,-0.30788,-1.6832,16.44,40.14,-5.1
2.0294,-9.6432,-0.16344,-1.3879,0.30513,-1.806,15.78,40.26,-4.98
1.975,-8.7443,-0.095342,-1.3399,0.89889,-1.9227,14.88,40.5,-4.8
1.9886,-8.1858,0.027241,-1.262,1.3088,-2.0311,13.98,40.62,-4.8
2.5198,-6.6331,-0.027241,-1.1157,1.4972,-2.116,11.46,40.92,-4.32
2.6832,-6.4424,0.081722,-0.90958,1.4441,-2.1698,10.26,41.22,-4.14
2.9011,-6.6604,0.16344,-0.60751,0.96181,-2.2333,8.82,41.52,-4.08
2.8467,-7.4776,0.34051,-0.45021,0.48594,-2.2089,6.06,42.18,-3.66
2.5606,-8.0224,0.47671,-0.32712,-0.0058032,-2.1191,4.5,42.42,-3.42
2.0158,-9.7113,0.68102,-0.19823,-0.63194,-1.8521,1.62,42.6,-2.82
1.5936,-10.992,0.55843,-0.16432,-0.77244,-1.7272,-0.12,42.78,-2.76
1.3757,-11.387,0.64016,-0.13286,-0.90897,-1.4169,-1.68,42.96,-2.46
1.0624,-11.795,0.40861,-0.13225,-0.68997,-0.8772,-3.12,42.96,-2.16
0.76274,-12.599,0.65378,-0.14661,-0.35827,-0.48869,-5.76,42.78,-2.1
0.43585,-13.089,0.96704,-0.21686,0.059559,-0.10843,-6.9,42.48,-2.16
0.14982,-13.729,0.99429,-0.2978,0.49755,0.29413,-8.04,42.36,-2.1
0.47671,-12.967,0.83084,-0.35858,1.0568,0.8378,-9.78,42.0,-2.34
0.95342,-12.286,0.19068,-0.27519,1.2144,1.1225,-10.62,41.76,-2.46
1.2258,-11.4,-0.19068,-0.17929,1.1991,1.2364,-11.16,41.52,-2.58
1.3212,-10.61,-0.76274,0.20922,0.7761,1.4386,-11.58,41.4,-2.64
1.4165,-9.8884,-1.3212,0.4444,0.33995,1.4884,-12.12,41.1,-2.76
1.8251,-9.3027,-1.9613,0.5962,-0.034208,1.5589,-12.36,40.86,-3.18
1.8387,-9.507,-2.0975,0.65118,-0.34239,1.7434,-12.12,40.8,-3.3
1.866,-9.5887,-2.1112,0.59407,-0.37477,1.7962,-11.88,40.74,-3.18
1.58,-8.4582,-1.6072,0.39034,-0.34697,1.8607,-11.52,40.62,-3.3
1.0079,-7.7364,-2.0158,-0.088881,-0.13744,1.8888,-10.44,40.5,-3.06
0.054481,-7.1507,-3.1191,-0.68906,1.1136,1.7639,-9.66,40.38,-2.94
2.2201,-5.5571,-1.9068,-0.56291,2.116,1.5247,-7.8,40.44,-2.7
3.4868,-5.3528,-1.3757,-0.1909,1.5266,1.4783,-6.78,40.26,-2.4
3.1872,-5.8295,-1.2395,-0.1295,1.2947,1.5678,-5.46,40.26,-2.1
3.2825,-6.3471,-1.5119,-0.062308,1.0904,1.7013,-3.0,40.08,-1.38
3.9363,-6.9872,-1.3484,0.042761,0.96181,1.6561,-1.68,39.96,-1.08
4.3858,-7.4776,-1.3348,0.15791,0.52687,1.617,-0.24,39.96,-0.78
5.0531,-10.215,-1.6481,0.28497,0.036652,1.6304,2.58,39.6,-0.06
5.0668,-10.951,-1.6208,0.41294,-0.31001,1.628,3.84,39.42,0.18
5.0668,-12.313,-1.4165,0.44318,-0.30177,1.591,5.22,39.12,0.3
5.0668,-12.967,-1.2258,0.51191,-0.21044,1.4297,8.04,38.7,0.72
5.2575,-14.002,-1.5119,0.59376,-0.097738,1.1808,9.3,38.34,0.78
5.8023,-15.323,-2.4108,0.81673,-0.23763,0.66218,10.5,38.16,0.78
7.0281,-15.854,-3.1191,0.8659,-0.63286,0.21594,12.66,37.74,0.6
6.4152,-15.214,-2.3836,0.51649,-1.3644,-0.48472,13.62,37.62,0.42
5.2166,-13.539,-0.89894,0.37171,-1.5568,-0.72235,14.34,37.44,0.12
3.4459,-12.762,-0.5993,0.19792,-1.7443,-1.197,15.6,37.08,-0.66
2.8603,-12.967,-0.95342,0.069333,-1.6729,-1.627,15.9,36.9,-1.14
2.7649,-12.803,-1.1577,-0.44563,-1.3384,-2.0284,16.08,36.66,-1.62
2.3972,-10.542,-1.3076,-0.77672,-1.0733,-2.1399,15.9,36.72,-2.34
2.2201,-9.0575,-1.4165,-0.9499,-0.61514,-2.1942,15.48,36.6,-2.58
1.8932,-6.6467,-1.2939,-0.96853,-0.4554,-2.1988,14.22,36.84,-3.0
1.8387,-5.5707,-1.2395,-0.83872,-0.044899,-2.2263,13.32,36.9,-3.06
1.7979,-5.1757,-1.185,-0.79412,0.047953,-2.2568,12.18,37.08,-3.3
1.7162,-4.8625,-0.92618,-0.67531,0.15241,-2.3167,10.92,37.32,-3.42
1.7434,-5.1894,-0.57205,-0.61972,0.089492,-2.3298,8.22,37.68,-3.72
1.6617,-5.6661,-0.28603,-0.60323,-0.080329,-2.2336,6.54,37.98,-3.84
1.3076,-6.9328,0.12258,-0.60628,-0.14325,-2.1603,3.36,38.46,-3.96
1.076,-7.9951,0.40861,-0.69272,-0.24282,-1.8225,1.92,38.7,-3.9
0.98067,-8.9349,0.54481,-0.73059,-0.2251,-1.6664,0.42,38.76,-3.9
0.84446,-11.441,1.0624,-0.82009,-0.017715,-1.1029,-2.16,39.0,-3.9
0.96704,-12.04,1.2939,-0.79412,0.19151,-0.69455,-3.6,39.0,-3.84
1.1169,-12.572,1.4438,-0.71105,0.40287,-0.25015,-4.68,39.06,-3.84
1.2531,-13.307,1.3212,-0.48808,0.62156,0.33323,-6.84,39.0,-3.78
1.1986,-13.457,1.2258,-0.39156,0.64294,0.48594,-7.56,39.12,-3.72
1.0488,-14.029,1.3757,-0.21258,0.61148,0.77061,-8.16,39.06,-3.78
1.4438,-14.506,1.3076,-0.040012,0.56566,1.1909,-9.0,39.06,-3.54
1.7025,-13.579,0.8036,0.069639,0.51099,1.4737,-9.42,38.94,-3.6
1.8251,-12.435,-0.23155,0.3146,0.2755,1.7275,-9.42,38.82,-3.48
1.9477,-11.319,-0.96704,0.5003,0.062003,1.8121,-9.36,38.76,-3.48
2.0703,-10.869,-1.6072,0.63713,-0.13653,1.8634,-9.24,38.76,-3.54
2.0975,-10.474,-1.7979,0.67348,-0.22358,1.8827,-9.0,38.88,-3.42
2.1929,-10.052,-1.8251,0.63835,-0.38271,1.9734,-8.88,38.88,-3.3
2.3699,-10.093,-1.757,0.49724,-0.37049,2.0467,-7.86,38.82,-3.18
2.3836,-9.7113,-1.6889,0.28619,-0.2474,2.0763,-7.2,38.76,-3.18
2.2746,-8.2539,-1.9205,-0.040623,0.14569,1.9758,-5.64,38.76,-3.06
2.1112,-7.2869,-1.8251,-0.23427,0.56688,1.8017,-4.74,38.52,-3.12
1.8387,-6.2926,-1.6889,-0.30452,0.79962,1.6677,-3.66,38.46,-2.88
1.5936,-4.9033,-1.5391,-0.32193,1.4951,1.2785,-1.62,38.22,-2.64
2.0839,-4.808,-1.5663,-0.22052,1.8256,1.1047,-0.48,38.22,-2.4
2.7513,-5.2438,-1.4846,-0.15547,1.9093,0.98502,0.72,38.1,-2.1
3.9635,-6.5105,-1.7979,-0.1237,1.6625,0.91385,2.94,37.8,-1.32
4.7807,-7.1643,-1.7843,-0.081245,1.2828,0.9444,3.9,37.56,-0.96
5.1894,-7.6002,-1.8115,-0.03207,1.025,0.95936,5.22,37.2,-0.54
5.8704,-9.0031,-2.0294,0.13378,0.17165,0.98227,7.68,36.9,0.06
5.9657,-9.4253,-2.2065,0.28497,-0.20892,0.88575,8.76,36.78,0.24
6.1292,-9.8339,-2.6287,0.47525,-0.40531,0.68814,9.72,36.66,0.54
6.3062,-10.161,-3.3915,0.66768,-0.54795,0.23702,11.7,36.24,0.72
6.1564,-9.902,-3.4596,0.69975,-0.60079,-0.11454,12.54,36.3,0.72
5.775,-9.6568,-3.4323,0.73243,-0.65454,-0.46334,13.32,36.24,0.66
5.4481,-10.025,-3.3506,0.81642,-0.74373,-0.76328,13.86,36.12,0.72
5.0395,-10.91,-3.3234,0.7422,-0.93951,-1.0082,14.52,35.7,0.36
4.985,-11.019,-3.1599,0.52595,-1.2175,-1.1826,14.64,35.52,0.06
4.8488,-10.978,-2.5742,0.36133,-1.5149,-1.3366,14.82,35.46,-0.24
3.8137,-11.427,-1.9886,0.15882,-1.7929,-1.4532,14.52,35.46,-1.02
3.4732,-12.04,-1.4982,-0.010996,-2.0519,-1.5204,14.1,35.46,-1.44
2.9965,-13.811,-0.8036,-0.11179,-2.0711,-1.5061,13.5,35.46,-1.86
2.6423,-15.99,-0.23155,-0.67287,-1.8167,-1.3231,12.12,35.64,-2.7
2.7649,-17.121,0.32689,-1.1579,-1.368,-1.1548,11.4,35.64,-3.18
2.8739,-16.699,0.5993,-1.1551,-0.58002,-0.7364,9.24,36.0,-3.78
3.4868,-17.025,0.8717,-0.90286,-0.15272,-0.34392,8.04,36.06,-3.96
3.8273,-17.666,1.2531,-0.57788,-0.014355,0.025656,6.84,36.24,-4.02
4.1406,-18.224,1.471,-0.42394,-0.010996,0.219,5.76,36.24,-4.2
4.2223,-17.366,1.9477,-0.062614,-0.12004,0.70738,3.96,36.54,-4.5
3.9635,-15.01,1.6753,0.09896,-0.18998,0.82467,3.12,36.72,-4.68
3.514,-12.149,0.6674,0.23885,-0.2587,0.73457,2.4,36.84,-4.8
1.8796,-6.5241,0.44947,0.25901,-0.46151,0.1799,1.44,37.08,-4.8
0.57205,-4.6718,0.54481,0.14844,-0.69272,-0.29352,1.08,37.32,-4.92
-0.8717,-3.2144,0.77636,0.11423,-0.82681,-0.48686,0.84,37.44,-4.98
-2.1929,-2.1248,1.2122,0.018937,-1.0388,-0.748,0.66,37.38,-4.92
-3.9227,-1.0624,1.4301,-0.059865,-0.63958,-0.7196,0.24,37.44,-4.98
-3.9771,-1.185,1.3484,-0.20739,0.18631,-0.61789,0.12,37.44,-5.04
-2.5061,-2.0158,0.99429,-0.38698,1.2083,-0.31826,0.06,37.5,-5.04
-1.4982,-3.623,0.83084,-0.35308,1.332,-0.12798,0.06,37.44,-5.1
-0.78998,-5.1894,0.6674,-0.37751,1.1606,0.087659,0.12,37.44,-5.1
0.28603,-10.161,0.95342,-0.5904,1.0195,0.36988,-0.12,37.32,-4.86
0.96704,-11.319,0.78998,-0.45357,0.79901,0.70219,-0.12,37.2,-4.62
1.471,-11.931,0.61292,-0.29444,0.63897,0.86407,-0.36,37.14,-4.38
1.3484,-12.871,0.21793,-0.029627,0.49236,0.90958,-0.42,36.9,-3.9
1.0896,-13.021,0.19068,0.043066,0.48136,0.90836,-0.48,36.72,-3.6
0.89894,-12.898,-0.027241,0.17074,0.47892,0.8436,-0.36,36.54,-3.18
1.0624,-12.98,-0.34051,0.2529,0.68936,0.66584,-0.18,36.24,-2.52
1.3348,-12.803,-0.31327,0.25534,0.91324,0.64232,0.18,35.88,-1.92
1.6753,-12.313,-0.34051,0.18418,1.1194,0.68875,0.78,35.64,-1.5
2.3018,-10.311,-1.1441,0.12187,1.2288,0.7422,1.68,35.1,-0.9
2.3972,-9.1937,-1.6072,0.14325,1.1906,0.75381,2.28,34.8,-0.66
2.3972,-8.3901,-1.8932,0.19273,1.0321,0.72632,3.0,34.56,-0.3
2.0431,-6.7421,-2.2201,0.24465,0.73304,0.61117,3.72,34.32,-0.3
1.8387,-5.0123,-2.3836,0.2361,0.53909,0.53787,5.28,33.84,0.42
1.7025,-4.5628,-2.2882,0.19548,0.36408,0.46456,6.12,33.54,0.6
1.2803,-3.8273,-2.1248,0.1967,0.20189,0.35736,7.68,33.18,0.66
1.0896,-4.0589,-2.0567,0.19853,0.18204,0.35094,8.52,33.0,0.72
1.1577,-4.6037,-1.9068,0.18723,0.17257,0.40042,9.84,32.7,0.78
1.5255,-5.5843,-1.9068,0.15272,0.1686,0.45418,10.92,32.7,0.54
2.0158,-6.9736,-1.8115,0.10843,0.12248,0.51221,11.7,32.64,0.66
2.3018,-8.6081,-1.58,0.12248,0.032987,0.57299,12.54,32.52,0.66
2.4517,-10.992,-1.2531,0.18295,-0.025962,0.6014,13.2,32.52,0.42
2.6696,-13.089,-1.3484,0.21319,-0.066584,0.63347,13.56,32.28,0.42
2.9692,-14.383,-1.58,0.040623,-0.068417,0.66401,13.68,32.22,0.36
3.5413,-14.833,-1.3757,0.040623,-0.03543,0.59498,13.92,31.98,0.3
3.3778,-14.41,-1.0624,0.15272,0.025045,0.54184,14.04,31.98,-0.12
3.228,-14.805,-0.99429,0.28497,0.12981,0.4218,14.34,31.74,-0.18
3.3778,-14.764,-1.3076,0.41722,0.20861,0.22907,14.82,31.44,-0.3
3.5958,-13.729,-1.6208,0.49205,0.14264,-0.018021,15.12,31.2,-0.66
3.4187,-10.801,-1.6481,0.45204,0.063835,-0.10721,15.12,31.08,-0.78
3.2416,-9.1801,-1.4165,0.30665,-0.32773,-0.38179,15.12,30.72,-0.72
3.0918,-7.8998,-1.3212,0.26084,-0.67409,-0.53084,15.18,30.66,-0.96
3.1599,-7.1507,-1.5119,0.30452,-1.1038,-0.67012,15.06,30.54,-1.14
3.2144,-8.4038,-1.7162,0.32162,-1.7987,-0.84941,14.94,30.24,-1.44
2.7649,-8.9622,-1.1713,0.2248,-1.9719,-0.91813,14.76,30.18,-1.38
2.4108,-9.4389,-0.47671,-0.038179,-2.1133,-1.0834,14.7,29.94,-1.32
1.9613,-11.346,0.17706,-0.11698,-2.0525,-1.1029,14.46,29.94,-1.38
1.7298,-14.628,0.85808,-0.61667,-1.5919,-0.99663,13.86,29.82,-1.68
1.8115,-15.091,1.5527,-1.2058,-1.0611,-0.91599,13.38,29.7,-1.86
2.152,-14.124,1.6072,-1.3592,-0.59498,-0.76786,12.96,29.64,-2.04
3.1191,-13.893,1.8387,-1.2682,-0.29566,-0.6805,12.0,29.52,-2.1
3.4051,-14.083,1.8524,-0.87232,-0.45907,-0.47892,11.52,29.52,-2.34
3.6775,-14.451,1.866,-0.68203,-0.65699,-0.41386,11.1,29.58,-2.58
3.8001,-15.01,2.1248,-0.17226,-1.3515,-0.21228,10.56,29.58,-2.64
3.5277,-15.514,2.3563,0.06017,-1.6435,-0.033903,9.9,29.64,-2.76
3.4187,-15.609,2.1929,0.21197,-1.7459,0.15088,9.48,29.58,-2.7
3.3097,-14.86,1.9341,0.24129,-1.6994,0.30788,9.24,29.7,-2.88
3.0237,-11.468,1.3212,0.14875,-1.4997,0.36957,8.76,29.88,-3.36
2.5879,-9.1529,1.1441,0.079412,-1.4224,0.33659,8.76,29.82,-3.36
2.1248,-7.7364,0.99429,-0.18662,-1.1695,0.0033598,8.64,29.64,-3.54
1.2531,-5.2847,0.83084,-0.33598,-0.978,-0.33811,8.58,29.7,-3.72
0.095342,-2.7649,0.77636,-0.39034,-0.76602,-0.68814,8.52,30.12,-4.14
-0.53119,-2.2474,0.74912,-0.41386,-0.56505,-0.96944,8.52,30.3,-4.5
-1.4301,-1.9886,0.62654,-0.50396,-0.25595,-1.1869,8.7,30.6,-5.1
-1.6753,-3.051,0.49033,-0.478,-0.028711,-1.2184,8.76,30.78,-5.34
-1.5119,-4.304,0.64016,-0.46151,0.23274,-1.1185,8.7,30.96,-5.82
-1.2531,-6.5786,0.6674,-0.65973,0.52595,-0.93249,8.64,31.2,-6.06
-0.081722,-9.8339,0.83084,-0.90408,0.78313,-0.70921,8.34,31.8,-6.36
0.57205,-9.4798,0.81722,-0.8772,0.80023,-0.3036,8.04,31.92,-6.36
0.91256,-9.1801,0.53119,-0.55467,0.53817,-0.064446,7.32,32.22,-6.18
1.1713,-9.4117,0.14982,-0.21319,0.18479,0.062308,6.9,32.34,-6.18
1.4165,-9.5479,-0.027241,-0.034819,-0.042455,0.12339,6.72,32.58,-6.0
1.8387,-9.8748,-0.51757,0.47709,-0.8491,0.24404,6.42,32.76,-5.7
2.0294,-10.488,-1.0488,0.69639,-1.2624,0.31673,5.94,32.64,-5.16
1.866,-10.569,-0.95342,0.75259,-1.4322,0.45723,5.82,32.58,-4.92
1.3212,-9.8748,-0.77636,0.69883,-1.3919,0.51496,5.52,32.46,-4.5
0.9398,-8.9758,-0.7355,0.4444,-1.1057,0.55772,5.52,32.4,-4.38
0.7355,-7.9679,-1.0079,0.35766,-0.8152,0.53695,5.7,32.46,-4.14
0.9398,-7.1234,-1.6208,0.37232,-0.55741,0.53115,5.94,32.1,-3.78
1.6753,-6.7557,-2.0567,0.37324,-0.478,0.56505,6.24,31.86,-3.9
2.2201,-6.3198,-2.3018,0.3204,-0.65424,0.63011,7.08,31.68,-4.2
2.2201,-6.0883,-2.1929,0.26328,-0.82711,0.66859,7.62,31.56,-4.38
2.0022,-5.8023,-1.975,0.17623,-0.88637,0.66432,8.16,31.5,-4.44
1.9205,-5.7478,-1.9886,0.13744,-0.87751,0.66645,8.58,31.44,-4.68
1.6889,-5.5707,-1.7979,0.033598,-0.70799,0.65454,9.72,31.32,-5.16
1.7298,-5.6116,-1.6753,-0.036957,-0.5507,0.61331,10.08,31.14,-5.64
1.8524,-6.2245,-1.4846,-0.085521,-0.40073,0.56902,10.56,31.14,-5.76
2.3018,-6.7966,-1.58,-0.10293,-0.27947,0.5565,11.52,31.02,-6.3
2.6832,-7.4095,-1.5936,-0.092546,-0.20311,0.56536,12.0,31.02,-6.42
3.1054,-7.927,-1.757,-0.097433,-0.21105,0.57544,12.48,30.78,-6.72
3.3097,-8.2676,-1.6753,-0.089492,-0.2926,0.56963,12.84,30.72,-7.08
3.623,-8.4446,-1.471,-0.019853,-0.37935,0.51985,13.8,30.66,-7.44
3.8409,-8.9758,-1.5527,0.10263,-0.61697,0.38943,14.16,30.66,-7.56
4.5356,-11.046,-1.8251,0.21502,-0.74403,0.34147,14.7,30.54,-7.8
4.8488,-12.34,-1.9613,0.33292,-1.1784,0.2251,14.94,30.36,-8.04
4.9033,-13.375,-1.6072,0.23702,-1.3534,0.13897,15.06,30.42,-8.22
4.5492,-13.253,-1.2258,0.014355,-1.3439,0.03146,15.42,30.36,-8.46
3.6911,-12.762,-0.43585,-0.18601,-1.1429,-0.13347,15.66,30.12,-8.82
3.3778,-12.476,-0.47671,-0.36102,-0.78466,-0.40714,15.78,30.12,-9.12
3.1191,-11.645,-0.44947,-0.46762,-0.36652,-0.7419,15.84,30.06,-9.42
3.3234,-10.964,-0.14982,-0.50305,0.031154,-1.1643,15.84,30.12,-9.6
3.6775,-10.637,-0.095342,-0.35705,-0.090408,-1.3677,15.66,30.12,-9.54
3.9635,-10.828,-0.47671,-0.21258,-0.44471,-1.4893,15.66,30.24,-9.54
4.5083,-10.828,-0.6674,-0.057116,-0.96272,-1.555,14.88,30.48,-9.6
4.3721,-10.42,-0.58567,0.050396,-1.4618,-1.529,14.4,30.48,-9.6
3.2825,-9.1256,0.42223,0.054062,-1.9053,-1.4612,13.44,31.08,-9.72
2.7377,-8.4446,0.47671,0.04612,-1.9319,-1.4572,12.72,31.38,-9.72
2.5061,-8.0224,0.47671,-0.011301,-1.8815,-1.4334,12.0,31.5,-9.78
2.4517,-7.4912,0.24517,0.013439,-1.8812,-1.419,10.08,32.16,-9.6
2.4789,-7.5729,0.095342,0.051313,-1.948,-1.3372,9.18,32.4,-9.6
2.5742,-7.7636,0.23155,0.063225,-2.0553,-1.2211,8.04,32.76,-9.48
2.4653,-8.322,0.50395,0.04215,-2.1197,-1.0623,5.58,33.18,-9.3
2.3699,-8.7034,0.64016,-0.08827,-2.0794,-0.74281,4.38,33.36,-9.36
2.152,-9.5615,0.9398,-0.22297,-1.9468,-0.52443,3.12,33.54,-9.36
1.8932,-10.338,1.1305,-0.37843,-1.6707,-0.30329,0.72,33.96,-9.48
1.9613,-10.447,1.3484,-0.51862,-1.3237,-0.1292,-0.42,34.02,-9.48
1.9886,-10.433,1.5255,-0.6072,-0.94562,-0.019242,-1.5,34.26,-9.36
1.8251,-10.515,1.8251,-0.60231,-0.48045,0.029322,-3.48,34.5,-9.24
1.9613,-11.087,1.7298,-0.49388,-0.36255,0.068417,-4.26,34.74,-9.18
2.1248,-11.346,1.5255,-0.29291,-0.37049,0.16799,-4.98,35.04,-8.94
2.4108,-11.673,0.85808,-0.061087,-0.51374,0.30299,-5.64,35.28,-8.94
2.8467,-12.776,0.65378,0.15485,-0.7364,0.51099,-6.84,35.52,-8.64
3.1599,-13.28,0.39499,0.31948,-0.89797,0.76908,-7.2,35.76,-8.46
3.3778,-10.651,-0.1362,0.42852,-1.0122,0.92913,-7.44,36.0,-8.22
2.8875,-7.641,-0.47671,0.49877,-1.0507,0.93737,-7.56,36.18,-7.68
2.5198,-6.5922,-0.57205,0.68814,-1.1109,0.63408,-7.44,36.42,-7.56
2.0703,-5.8023,-0.95342,0.79657,-1.2016,0.47128,-7.14,36.48,-7.44
2.2474,-6.96,-1.866,1.1044,-1.7242,0.095906,-6.9,36.66,-6.9
2.656,-8.1177,-2.2337,1.2398,-2.1072,0.036957,-6.54,36.72,-7.02
3.0646,-9.6432,-2.4517,1.2288,-2.4114,0.1066,-6.3,36.78,-6.96
2.8739,-9.5342,-2.3155,1.0712,-2.5195,0.25381,-6.0,36.72,-7.14
2.547,-9.1801,-2.0567,0.81642,-2.46,0.39798,-5.76,36.72,-7.26
2.261,-8.8396,-1.9341,0.62553,-2.2923,0.46273,-5.52,36.78,-7.32
2.3291,-8.8668,-2.152,0.44013,-2.0342,0.44502,-5.16,36.66,-7.62
2.6423,-9.0848,-2.3291,0.31643,-1.9652,0.35949,-5.04,36.54,-7.86
2.7922,-9.112,-2.3972,0.19273,-1.9743,0.26634,-5.04,36.42,-7.98
3.0237,-9.1529,-2.3972,0.095906,-2.0097,0.18662,-5.28,36.36,-8.58
3.1191,-9.1529,-2.3836,0.000305,-2.0039,0.10721,-5.52,36.3,-8.64
3.0646,-9.0439,-2.4108,-0.10171,-1.9673,0.028711,-5.82,36.36,-8.76
3.1054,-8.826,-2.0975,-0.25076,-1.8781,-0.10812,-6.18,36.42,-8.88
3.3234,-8.5808,-1.7025,-0.3207,-1.814,-0.20006,-7.02,36.48,-8.88
3.3778,-8.4174,-1.7025,-0.37141,-1.7746,-0.31643,-7.44,36.66,-8.82
3.5685,-8.7851,-1.3757,-0.39523,-1.762,-0.45662,-8.16,36.6,-8.58
3.5413,-9.0575,-1.2258,-0.4163,-1.7822,-0.57849,-8.64,36.48,-8.34
3.7047,-10.665,-0.81722,-0.4331,-1.7849,-0.72296,-9.66,36.54,-7.8
3.7184,-12.19,-0.55843,-0.4215,-1.7156,-0.78252,-10.26,36.54,-7.38
3.7184,-13.511,-0.42223,-0.50702,-1.5311,-0.80329,-10.74,36.3,-7.02
4.0589,-15.854,0.040861,-0.74709,-1.244,-0.83872,-11.94,36.06,-6.18
4.1678,-14.342,0.44947,-0.97861,-0.95631,-0.95539,-12.6,36.0,-5.76
4.0861,-13.266,0.81722,-0.98471,-0.89278,-1.1121,-13.98,35.46,-4.92
3.9227,-13.416,0.92618,-0.81581,-1.138,-1.3418,-14.58,35.1,-4.56
3.8409,-13.253,1.0624,-0.76511,-1.2853,-1.4221,-15.06,34.74,-4.08
3.6911,-12.054,1.7162,-0.64782,-1.6499,-1.5348,-16.26,33.96,-3.18
3.4596,-11.4,1.7706,-0.59895,-1.7031,-1.5146,-16.98,33.54,-2.7
3.051,-10.297,1.7843,-0.47006,-1.5427,-1.5354,-17.58,33.06,-2.22
2.547,-8.0496,1.5255,-0.4102,-1.4557,-1.569,-18.96,31.92,-1.44
2.4789,-7.3958,1.362,-0.18295,-1.2877,-1.6719,-19.62,31.5,-1.08
2.4653,-7.4095,1.3484,-0.10507,-1.2846,-1.6939,-20.28,30.96,-0.72
2.5742,-8.1995,1.3076,0.061392,-1.3656,-1.7196,-21.6,30.42,-0.3
2.547,-8.9213,1.3893,0.10629,-1.4859,-1.6802,-22.26,29.94,0.24
2.4108,-9.6568,1.6481,0.084605,-1.6237,-1.573,-22.8,29.4,0.48
1.9205,-10.733,1.9477,0.031154,-1.6118,-1.5,-23.88,28.44,0.78
1.4574,-11.319,1.975,0.022907,-1.4804,-1.4172,-24.42,27.96,1.02
0.96704,-12.04,1.8251,0.032376,-1.3561,-1.3641,-25.08,27.48,1.14
0.25879,-13.157,1.6753,0.12828,-0.83933,-1.1573,-26.16,26.52,1.08
0.01362,-13.811,1.4301,0.24771,-0.42669,-0.95631,-26.7,26.16,1.08
0.12258,-13.838,0.69464,0.41661,-0.090408,-0.72632,-27.66,25.2,0.9
0.46309,-15.023,0.55843,0.68081,0.12309,-0.29993,-28.08,24.84,0.72
0.54481,-14.778,0.38137,0.80207,0.13714,0.000305,-28.44,24.36,0.48
0.5993,-14.165,0.21793,0.86132,0.09499,0.23885,-28.74,23.94,0.18
0.81722,-12.054,-0.92618,0.96761,-0.044593,0.40623,-29.16,23.52,-0.12
0.91256,-10.896,-1.6617,1.1225,-0.28924,0.43677,-29.28,23.1,-0.42
0.27241,-9.9429,-2.152,1.2559,-0.56383,0.40439,-29.88,22.5,-1.08
-0.040861,-9.507,-2.1248,1.3158,-0.82131,0.40714,-30.12,22.2,-1.32
-0.10896,-9.3299,-1.8796,1.2382,-0.7816,0.47464,-30.36,22.08,-1.38
0.76274,-9.6023,-1.9886,1.1442,-0.63927,0.63805,-30.6,21.78,-2.1
1.3484,-9.8339,-2.2882,1.0406,-0.4612,0.88056,-30.78,21.66,-2.34
1.8115,-9.5887,-2.6696,0.89583,-0.39218,1.1026,-30.78,21.72,-2.46
2.0431,-8.0632,-3.1054,0.75503,-0.38454,1.2422,-30.54,21.78,-2.88
2.0158,-7.5457,-3.0646,0.62858,-0.40348,1.1836,-30.3,21.96,-3.06
1.8932,-6.8238,-2.9965,0.6014,-0.40134,1.1408,-30.06,22.02,-3.0
1.7434,-6.1019,-2.7377,0.58918,-0.35736,0.96425,-29.52,22.44,-2.82
1.9477,-6.1292,-2.6696,0.59926,-0.29841,0.87232,-28.98,22.44,-2.82
2.5061,-7.1098,-2.8603,0.60873,-0.26298,0.8323,-28.08,22.86,-3.18
2.7104,-7.7091,-2.9284,0.59376,-0.30696,0.83291,-27.42,23.1,-3.18
3.1599,-8.5808,-3.1463,0.53115,-0.42089,0.90683,-26.88,23.46,-3.36
3.8137,-10.379,-3.3642,0.47983,-0.57635,0.94165,-25.74,24.0,-3.78
4.0316,-10.992,-3.3642,0.35522,-0.78038,1.0351,-25.26,24.12,-3.84
4.0316,-11.305,-3.2689,0.19609,-0.79626,1.0357,-24.48,24.54,-4.02
3.6911,-11.673,-2.4108,0.084605,-0.6634,0.93279,-23.4,25.08,-4.38
3.5004,-12.149,-2.0294,0.054672,-0.43219,0.74098,-22.74,25.38,-4.56
3.5413,-13.389,-1.9477,0.089186,-0.24312,0.51771,-22.38,25.68,-4.68
4.808,-15.541,-2.6968,-0.072388,-0.23976,0.16677,-21.54,26.16,-5.28
5.38,-14.547,-2.5061,-0.21166,-0.34575,0.0281,-21.24,26.4,-5.58
5.2847,-12.83,-2.0703,-0.46059,-0.88087,-0.38729,-21.0,26.76,-5.76
4.1814,-11.414,-0.78998,-0.44776,-1.2926,-0.71654,-20.76,27.18,-5.64
3.7728,-11.496,-0.77636,-0.50885,-1.5782,-1.0415,-20.82,27.36,-5.76
3.4187,-11.427,-0.7355,-0.75992,-1.6148,-1.4142,-20.82,27.36,-5.7
2.7513,-10.256,-0.42223,-0.84758,-1.5342,-1.4975,-21.06,27.18,-5.4
2.4653,-9.3572,-0.25879,-1.0742,-1.0785,-1.69,-21.3,27.36,-5.22
2.3427,-8.6353,-0.17706,-1.12,-0.67287,-1.8124,-21.72,27.12,-5.16
2.1929,-6.9055,-0.27241,-1.0916,-0.31796,-1.9126,-22.8,26.94,-4.74
2.1793,-6.3607,-0.28603,-1.0125,-0.074831,-2.0042,-23.52,26.7,-4.5
2.3155,-6.0338,-0.21793,-0.90958,0.046731,-2.0498,-24.12,26.28,-4.32
2.4244,-6.1973,-0.054481,-0.78679,0.0058032,-2.0501,-25.92,25.56,-4.02
2.4517,-6.2654,0.040861,-0.75625,-0.036652,-2.0345,-26.64,25.08,-3.72
2.4517,-7.0281,0.19068,-0.66554,-0.24099,-1.9025,-27.6,24.6,-3.66
2.3563,-8.036,0.44947,-0.6411,-0.37874,-1.7572,-29.58,23.58,-3.6
2.3018,-9.0984,0.50395,-0.61087,-0.47922,-1.5745,-30.42,23.1,-3.66
2.1793,-9.9156,0.57205,-0.58949,-0.52779,-1.3564,-31.2,22.56,-3.66
2.1112,-11.673,0.83084,-0.54795,-0.49908,-1.0971,-32.64,21.72,-3.96
2.1793,-12.286,0.89894,-0.42547,-0.3094,-0.68478,-33.3,21.18,-4.08
2.1929,-12.49,0.85808,-0.29719,-0.14813,-0.45326,-34.14,20.64,-4.08
2.0839,-12.245,0.50395,-0.11576,-0.023824,-0.25962,-35.22,19.5,-4.38
1.7979,-12.122,0.50395,0.044288,0.041539,-0.13836,-35.64,18.9,-4.56
1.4165,-12.776,0.62654,0.19426,0.12981,0.0054978,-36.06,18.72,-4.8
0.78998,-12.245,0.44947,0.30329,0.35064,0.30696,-36.3,17.88,-4.98
0.95342,-11.387,-0.12258,0.40775,0.46059,0.56749,-36.66,17.58,-5.16
1.1986,-10.488,-0.46309,0.46823,0.48472,0.67989,-36.78,17.34,-5.28
1.4438,-10.12,-0.85808,0.74709,0.33811,0.89614,-36.84,17.1,-5.46
1.3893,-10.161,-1.6344,0.89186,0.13256,0.98685,-37.02,16.68,-5.58
1.3348,-9.9837,-1.7706,0.97525,-0.048258,1.0858,-37.02,16.68,-5.76
1.3484,-9.793,-1.8115,0.96028,-0.090713,1.2572,-37.14,16.86,-5.94
1.4574,-10.025,-2.0839,0.94134,-0.053756,1.3195,-37.2,17.16,-6.06
1.5663,-9.9292,-2.3427,0.77519,0.096517,1.4981,-37.08,17.4,-6.0
1.4438,-9.2618,-2.4789,0.61209,0.24709,1.5449,-36.96,17.64,-6.0
1.3212,-7.7636,-2.547,0.489,0.45204,1.5485,-36.66,18.42,-6.24
1.185,-6.851,-2.4925,0.38973,0.68967,1.4969,-36.48,18.66,-6.36
1.2122,-5.884,-2.5061,0.29658,1.0837,1.3778,-35.94,19.5,-6.48
1.8524,-6.0202,-2.3836,0.32803,1.2257,1.303,-35.52,19.92,-6.42
2.1793,-6.2517,-2.3018,0.33139,1.1887,1.2801,-34.92,20.4,-6.36
2.5061,-6.8238,-2.1929,0.29077,0.96853,1.3372,-34.2,20.88,-6.36
3.1872,-8.036,-2.2065,0.28497,0.82284,1.3989,-32.64,22.02,-6.6
3.5685,-8.8668,-2.1656,0.31276,0.60903,1.4813,-31.86,22.44,-6.66
4.1814,-10.964,-2.6015,0.36408,0.38576,1.5763,-30.96,22.8,-6.96
4.3313,-11.659,-2.6151,0.38576,0.21869,1.6661,-29.16,23.64,-7.08
4.4539,-11.891,-2.6832,0.41264,0.2248,1.635,-28.02,24.0,-7.5
4.6173,-12.149,-2.4789,0.45662,0.28588,1.5485,-26.94,24.48,-7.8
4.6582,-12.626,-2.0703,0.49877,0.37996,1.3647,-25.92,25.02,-8.04
5.094,-14.329,-2.5742,0.54917,0.39676,1.1301,-23.94,25.86,-8.64
5.8295,-14.574,-3.4459,0.52076,0.053145,0.64477,-22.86,26.28,-9.0
6.8647,-12.871,-3.5958,0.39034,-0.18937,0.44838,-21.12,27.18,-9.78
6.6059,-12.0,-2.8467,0.16127,-1.1161,-0.11942,-20.46,27.54,-10.26
6.0338,-11.577,-2.3699,0.12187,-1.6713,-0.48411,-19.86,27.9,-10.5
4.6037,-11.959,-1.6617,0.023824,-1.9933,-0.83902,-18.9,28.32,-11.22
4.2223,-12.286,-1.58,-0.24893,-2.0614,-1.1414,-18.6,28.62,-11.28
3.8954,-12.108,-1.7434,-0.69578,-1.8897,-1.4337,-18.36,28.92,-11.46
2.9556,-10.692,-1.7025,-0.99632,-1.5861,-1.6093,-18.42,28.86,-11.46
2.6287,-9.5342,-1.5527,-1.2398,-1.1393,-1.7938,-18.84,28.92,-11.16
2.3155,-8.322,-1.2803,-1.3586,-0.61667,-1.9749,-19.32,28.92,-10.92
2.2201,-7.246,-1.0624,-1.354,-0.15699,-2.1573,-19.74,28.68,-10.68
2.2746,-6.0202,-0.78998,-1.2999,0.18784,-2.3338,-21.24,28.44,-9.9
2.3427,-6.0338,-0.81722,-1.2214,0.38668,-2.5052,-22.26,28.2,-9.6
2.4244,-6.3471,-0.55843,-1.1542,0.44074,-2.5424,-23.22,27.96,-9.24
2.547,-7.2596,-0.43585,-1.0907,0.38729,-2.5794,-25.56,27.12,-8.52
2.5198,-8.0632,-0.25879,-1.0446,0.25107,-2.5693,-26.82,26.76,-8.28
2.4244,-8.7987,-0.040861,-1.0663,-0.0079412,-2.4276,-27.96,26.34,-7.86
2.3155,-10.42,0.46309,-1.1017,-0.12187,-2.2339,-30.54,25.44,-7.44
2.2065,-11.645,0.64016,-1.1173,-0.15852,-1.8259,-31.8,24.84,-7.2
2.0975,-12.326,0.76274,-1.0776,-0.13958,-1.664,-33.72,23.64,-6.84
1.9613,-12.558,0.77636,-0.905,0.040317,-1.1374,-34.5,23.04,-6.78
1.7979,-12.313,0.83084,-0.832,0.12767,-0.96669,-35.4,22.32,-6.72
1.4438,-11.795,0.8717,-0.54581,0.42241,-0.47434,-36.96,20.94,-6.84
0.99429,-12.313,1.0215,-0.34911,0.56536,-0.15974,-37.56,20.4,-6.9
0.8717,-12.721,1.2258,-0.18387,0.70769,0.19426,-37.98,19.86,-7.08
0.91256,-11.945,0.84446,0.042761,0.94257,0.77733,-38.76,18.78,-7.26
1.3484,-11.21,0.46309,0.24312,0.99296,1.1442,-39.06,18.48,-7.32
1.6072,-10.774,0.095342,0.35858,0.95173,1.3018,-39.06,17.94,-7.5
1.8796,-10.651,-0.54481,0.73731,0.5174,1.6212,-39.18,17.64,-7.62
1.9886,-10.869,-1.4165,0.94715,0.1069,1.7578,-39.3,17.28,-7.92
2.0567,-10.569,-1.7979,1.0562,-0.26176,1.8659,-39.24,17.52,-8.04
2.0022,-10.174,-1.6753,1.0501,-0.44929,1.9997,-39.3,17.82,-8.34
2.0703,-9.2755,-1.6481,0.84605,-0.39065,2.1353,-39.36,18.36,-8.76
1.9205,-9.112,-1.6889,0.77549,-0.31734,2.1646,-39.06,18.84,-8.82
1.8251,-8.8805,-1.8932,0.56597,-0.0061087,2.1964,-38.7,19.38,-8.76
1.7025,-7.7636,-1.9341,0.38882,0.30604,2.1292,-37.86,20.4,-9.0
1.7162,-7.1234,-1.9613,0.24068,0.6747,2.0064,-37.44,20.94,-8.94
2.1656,-6.1564,-1.9613,0.16463,1.2281,1.7816,-36.06,22.5,-9.0
2.4244,-6.0747,-2.0158,0.15852,1.4529,1.6521,-35.04,23.22,-9.06
2.6968,-6.2245,-1.9477,0.15302,1.5049,1.5925,-34.2,24.0,-9.0
2.6968,-6.2245,-1.9477,0.15302,1.5049,1.5925,-34.2,24.0,-9.0
3.5277,-8.0905,-1.58,0.11148,1.372,1.357,-31.02,26.16,-9.0
3.8001,-8.8805,-1.471,0.11454,1.2578,1.3552,-30.0,26.76,-9.12
4.0725,-10.869,-1.5663,0.13744,1.1396,1.408,-27.36,28.08,-9.24
4.2495,-11.55,-1.5936,0.15577,1.0501,1.493,-25.98,28.5,-9.42
4.6037,-12.313,-1.8932,0.17593,1.0064,1.565,-24.66,28.98,-9.84
5.3256,-12.408,-2.0431,0.28772,0.89247,1.5669,-22.02,29.94,-10.8
5.6524,-12.708,-1.9613,0.46609,0.69394,1.467,-20.76,30.6,-11.22
6.6059,-14.506,-2.6015,0.65699,0.3656,1.2798,-18.42,31.56,-12.12
7.1507,-14.86,-3.0918,0.81856,-0.098349,1.0024,-17.28,31.92,-12.54
7.7091,-14.683,-3.5822,0.80695,-0.67745,0.62369,-16.32,32.28,-12.96
6.7829,-11.959,-2.9011,0.60323,-1.2929,0.20403,-14.7,32.88,-13.8
5.7342,-10.774,-2.261,0.29627,-2.1619,-0.52809,-13.98,33.0,-14.16
5.0804,-10.488,-1.8524,0.33048,-2.5122,-1.0165,-13.44,33.18,-14.4
4.0725,-11.536,-1.5119,0.20372,-2.6276,-1.4245,-12.72,33.18,-15.0
3.732,-11.918,-1.5255,-0.13744,-2.5427,-1.7773,-12.72,33.06,-15.12
2.8603,-11.577,-1.5527,-0.68203,-2.3439,-1.905,-13.38,33.24,-15.06
2.4653,-11.101,-1.4846,-1.0217,-1.9816,-1.9917,-13.8,33.18,-14.76
2.3563,-10.665,-1.4165,-1.1719,-1.7535,-2.0302,-14.52,33.0,-14.4
2.0022,-8.7987,-1.2258,-1.4752,-0.92027,-2.1447,-16.44,32.46,-13.74
1.975,-7.9815,-1.0215,-1.4936,-0.36102,-2.2089,-17.52,32.22,-13.32
2.0022,-7.3414,-0.61292,-1.4175,0.26725,-2.3057,-20.34,31.5,-12.24
2.1248,-6.7285,-0.32689,-1.3812,0.51252,-2.3705,-21.9,31.14,-11.58
2.2065,-6.7829,-0.12258,-1.3143,0.59712,-2.423,-23.4,30.72,-11.1
2.3291,-6.9872,-0.054481,-1.2795,0.58399,-2.445,-24.96,30.18,-10.62
2.3972,-7.3414,0.1362,-1.2095,0.37018,-2.4343,-26.52,29.76,-10.2
2.2882,-8.7715,0.50395,-1.204,0.17501,-2.3381,-29.46,28.74,-9.54
2.2474,-9.8611,0.62654,-1.1939,0.0094684,-2.1606,-30.9,28.14,-9.3
2.2201,-11.822,0.92618,-1.1716,-0.13836,-1.7425,-33.36,26.7,-8.88
2.1248,-12.245,1.2258,-1.1069,-0.10629,-1.4001,-34.56,25.92,-8.88
2.0839,-12.258,1.4438,-1.0626,-0.053756,-1.2254,-35.58,25.26,-8.82
1.866,-12.217,1.6889,-0.85063,0.18509,-0.69028,-36.6,24.42,-8.7
1.3212,-11.959,1.3757,-0.60537,0.3485,-0.36927,-38.16,23.1,-8.88
0.77636,-12.231,1.2122,-0.32315,0.44532,-0.071166,-38.88,22.44,-9.0
0.36775,-12.776,1.3212,-0.069028,0.51801,0.27397,-39.72,21.06,-9.3
0.44947,-12.599,1.1986,0.12706,0.62094,0.7028,-39.96,20.58,-9.54
0.99429,-11.863,0.70826,0.37874,0.79626,1.3396,-40.2,20.1,-9.6
1.4165,-11.169,0.34051,0.57299,0.74251,1.6551,-40.38,19.68,-9.66
1.8524,-10.719,-0.64016,0.79474,0.42791,1.8494,-40.62,19.14,-9.78
1.7434,-10.91,-1.1305,1.0076,0.0067195,1.9383,-40.62,19.14,-10.02
1.7843,-11.237,-1.6617,1.1558,-0.34728,1.9676,-40.62,19.26,-10.26
1.8387,-10.855,-1.5119,1.168,-0.61697,2.0543,-40.08,19.92,-10.44
1.866,-10.406,-1.58,1.0501,-0.58124,2.1215,-39.96,20.1,-10.5
1.7025,-9.9973,-1.6208,0.87842,-0.40012,2.1915,-39.54,20.64,-10.74
1.6072,-9.1665,-1.9613,0.7086,-0.10996,2.2003,-38.76,21.78,-10.62
1.5119,-8.2812,-2.3427,0.5452,0.25443,2.1322,-38.16,22.38,-10.68
1.4574,-7.4776,-2.3018,0.36805,0.66187,2.0058,-36.6,23.94,-10.32
1.5119,-6.3198,-2.0294,0.20036,1.259,1.795,-35.76,24.78,-10.26
1.6072,-6.2245,-1.866,0.16066,1.5873,1.6609,-34.8,25.74,-10.26
1.9205,-6.3471,-1.8115,0.10507,1.8094,1.5852,-33.78,26.64,-10.2
2.4789,-6.9872,-1.6889,0.033903,1.9028,1.5391,-32.64,27.36,-10.26
3.1872,-7.9679,-1.5936,-0.030238,1.8973,1.5317,-30.18,28.98,-10.26
3.7592,-9.1256,-1.5391,-0.048869,1.7932,1.6301,-28.86,29.64,-10.14
4.3994,-10.883,-1.7162,-0.030543,1.627,1.6729,-26.04,30.9,-10.44
4.7126,-11.4,-1.6344,-0.072388,1.4163,1.7743,-24.66,31.68,-10.62
4.9442,-11.414,-1.6208,-0.06353,1.3674,1.7822,-23.16,32.22,-10.86
5.094,-11.414,-1.4982,0.06353,1.2303,1.7031,-21.66,33.06,-11.22
5.6524,-11.713,-1.6617,0.20159,1.0708,1.5534,-18.24,34.14,-12.06
5.9385,-12.068,-1.7706,0.40531,0.7535,1.3363,-16.86,34.62,-12.72
7.246,-13.906,-2.7649,0.62889,0.28436,1.0672,-15.48,35.16,-13.32
7.75,-14.247,-3.1599,0.81703,-0.33262,0.73457,-12.78,35.7,-14.22
7.7908,-13.988,-3.1599,0.84025,-0.98471,0.32223,-11.46,35.94,-14.64
7.246,-12.967,-2.8194,0.54642,-1.9539,-0.34697,-10.32,36.42,-14.94
5.2847,-11.427,-1.58,0.32498,-2.4117,-0.84727,-8.64,36.78,-15.72
4.2087,-11.087,-0.95342,0.23457,-2.5892,-1.3552,-8.04,36.84,-16.08
3.4868,-11.822,-0.85808,-0.040317,-2.4804,-1.9352,-7.5,37.02,-16.44
3.1872,-12.122,-0.88532,-0.1857,-2.4151,-2.0366,-7.38,36.9,-16.56
2.9284,-12.081,-1.0351,-0.73487,-2.1628,-2.2339,-7.62,36.84,-16.68
2.6696,-10.801,-1.1577,-1.04,-1.8763,-2.3088,-9.0,36.24,-16.62
2.4517,-9.6704,-1.1441,-1.1683,-1.5168,-2.3524,-10.14,36.12,-16.44
2.5198,-8.0905,-1.0215,-1.0876,-1.1723,-2.3427,-11.28,35.88,-16.14
2.4108,-7.6819,-0.50395,-0.98258,-0.75839,-2.3228,-14.4,35.4,-15.54
2.3291,-7.4503,-0.28603,-0.92393,-0.57208,-2.3308,-16.08,35.28,-15.24
2.2882,-7.4095,0.027241,-0.91752,-0.49877,-2.3256,-18.12,34.98,-15.06
2.2474,-7.8998,0.38137,-0.94715,-0.38332,-2.3188,-20.16,34.62,-14.82
2.0022,-8.7034,0.76274,-1.0296,-0.33964,-2.2688,-24.24,33.78,-13.98
1.9205,-9.1937,1.1169,-1.1078,-0.27397,-2.1991,-26.4,33.42,-13.62
1.6753,-10.379,1.3893,-1.1875,-0.16952,-2.0595,-30.24,32.58,-13.32
1.6889,-11.673,1.5663,-1.2208,-0.010996,-1.8796,-32.22,32.1,-13.26
1.58,-12.0,1.7706,-1.2346,0.29841,-1.5305,-34.02,31.56,-13.02
1.4982,-11.85,1.9477,-1.1503,0.50396,-1.281,-35.58,31.02,-12.84
0.96704,-11.509,1.9886,-0.98716,0.68661,-1.0079,-38.58,30.06,-12.6
0.72188,-11.727,1.8796,-0.73793,0.76297,-0.72724,-39.84,29.46,-12.84
0.50395,-12.408,1.8115,-0.29322,0.68661,-0.2474,-41.1,28.86,-12.84
0.5993,-12.762,1.5527,-0.13592,0.63744,-0.055894,-43.02,27.78,-13.26
0.95342,-12.476,1.3484,0.32406,0.4215,0.57085,-43.8,27.18,-13.44
1.1441,-11.863,0.9398,0.60812,0.20953,0.98135,-44.46,26.76,-13.5
1.1713,-10.61,0.054481,0.89583,-0.16677,1.3036,-45.48,26.22,-14.04
1.2395,-10.488,-0.83084,1.1945,-0.62553,1.4734,-45.6,26.1,-14.22
1.3212,-10.447,-1.4846,1.5198,-1.2306,1.6264,-45.96,25.8,-14.34
1.1305,-10.406,-1.6072,1.5892,-1.368,1.6539,-46.02,25.8,-14.28
0.95342,-10.406,-1.6072,1.6023,-1.5043,1.7364,-46.02,26.04,-14.34
0.96704,-10.161,-1.4438,1.4682,-1.4352,1.8185,-45.96,26.28,-14.4
0.96704,-9.8611,-1.6753,1.0849,-1.047,1.9145,-45.66,26.64,-14.28
1.2395,-9.4389,-1.8387,0.8772,-0.70341,1.9309,-45.54,27.12,-13.98
1.58,-8.7851,-2.2201,0.63835,-0.16829,1.8836,-44.88,28.32,-13.32
1.7298,-8.1313,-2.2882,0.50946,0.1744,1.777,-44.28,28.86,-12.84
1.7706,-7.8045,-2.261,0.45448,0.49938,1.6215,-43.56,29.7,-12.48
2.0975,-7.4503,-2.261,0.45326,0.78221,1.4832,-41.7,31.14,-12.0
2.5061,-7.5865,-2.3836,0.44899,0.97097,1.3864,-40.98,31.74,-11.58
3.0373,-7.8045,-2.3155,0.43768,1.0037,1.3558,-40.02,32.52,-11.16
4.0589,-8.3765,-2.3699,0.43524,0.87415,1.3497,-38.1,33.9,-10.8
4.3449,-8.6762,-2.438,0.47006,0.45173,1.4025,-36.84,34.68,-10.74
4.9578,-9.0303,-2.7377,0.52382,0.070555,1.4099,-35.76,35.28,-10.8
5.5162,-9.4525,-3.1191,0.54825,-0.28894,1.358,-34.56,35.88,-10.56
5.6252,-9.4525,-3.337,0.52229,-0.55497,1.2278,-33.12,36.6,-10.62
5.2847,-9.3163,-3.2961,0.47159,-0.71349,1.004,-30.48,38.04,-11.22
5.0259,-9.2482,-3.1463,0.4386,-0.79138,0.72907,-29.16,38.64,-11.58
4.7126,-9.4798,-2.9284,0.37415,-0.77488,0.2474,-26.94,39.48,-12.42
4.1542,-10.869,-2.4244,0.29658,-0.70066,-0.10537,-26.1,39.9,-12.78
4.1814,-11.972,-1.9205,0.24221,-0.67256,-0.28711,-25.5,40.32,-13.02
4.2495,-12.776,-1.6344,0.083994,-0.7196,-0.7367,-24.96,40.62,-13.38
4.1542,-15.023,-0.91256,-0.21411,-0.83627,-0.96181,-24.3,41.1,-14.16
3.7728,-16.235,-0.35413,-0.51252,-0.91569,-1.1151,-24.36,41.46,-14.4
3.1327,-19.232,0.44947,-0.87598,-0.85827,-1.2178,-24.72,41.94,-14.46
2.9556,-19.504,1.0624,-1.3812,-0.46853,-1.2691,-25.32,42.24,-14.22
2.7922,-19.532,1.471,-1.3714,-0.059559,-1.1359,-25.98,42.48,-14.04
2.6696,-19.355,1.8251,-1.2318,0.37996,-0.82894,-26.82,42.6,-13.74
2.7377,-16.181,1.8387,-0.93615,0.60262,-0.56077,-28.74,42.96,-12.9
2.6015,-13.634,1.7434,-0.59132,0.50121,-0.34178,-29.88,42.96,-12.36
2.1929,-10.665,1.7979,-0.21319,-0.31734,-0.343,-30.84,43.08,-11.7
1.3757,-7.4095,2.1248,-0.1347,-0.70402,-0.42364,-32.04,43.2,-10.98
-0.6674,-2.8058,2.1656,0.0033598,-1.7663,-0.70891,-34.38,43.14,-9.48
-2.0158,-1.6208,1.8387,0.055589,-2.1359,-0.80481,-35.46,43.2,-8.46
-3.0237,-1.1441,1.3076,0.064752,-2.0232,-0.7196,-36.6,43.2,-7.44
-3.228,-1.1169,0.23155,-0.034514,-1.4102,-0.53573,-38.52,43.02,-5.04
-2.8058,-0.72188,0.21793,-0.31276,-0.28069,-0.29505,-39.42,42.72,-3.84
-2.2474,-0.1362,0.081722,-0.38454,-0.0018326,-0.25015,-40.68,42.3,-1.74
-1.8251,-0.91256,0.095342,-0.40073,0.28069,-0.25901,-41.28,42.0,-0.84
-1.3893,-3.0373,0.40861,-0.29535,0.24435,-0.23885,-41.76,41.64,0.18
-1.1305,-8.1858,1.2803,-0.22052,0.29535,-0.13164,-42.78,40.68,2.28
-0.40861,-14.247,1.58,-0.61361,0.6805,0.050702,-43.2,40.38,3.18
0.8036,-14.819,1.9613,-1.252,1.3088,0.19914,-43.56,40.02,4.02
1.6889,-13.184,1.0896,-1.0259,1.7443,0.34758,-44.22,39.18,5.52
2.1793,-12.612,0.25879,-0.489,1.6222,0.42852,-44.34,38.82,6.12
2.3836,-12.027,-0.44947,0.15944,1.0247,0.36469,-44.58,38.4,6.54
2.3155,-10.447,-1.7298,0.73823,0.18845,0.27611,-44.7,38.16,6.84
1.9613,-9.6023,-2.1929,1.0938,-0.52076,0.23488,-44.7,37.44,7.08
1.2667,-9.0031,-1.975,1.1548,-0.91355,0.33109,-44.52,37.38,7.08
0.78998,-8.7851,-1.7298,0.82803,-0.70066,0.49724,-44.4,37.08,7.08
0.25879,-8.3901,-1.2667,0.63041,-0.52229,0.56536,-44.34,36.9,7.08
0.054481,-7.6002,-0.8717,0.17196,0.14447,0.67837,-43.98,36.9,7.02
0.23155,-7.6002,-1.2667,0.037568,0.54489,0.74098,-43.62,36.96,6.84
0.69464,-8.1177,-1.6889,-0.095295,0.83719,0.75014,-42.84,37.02,6.3
0.89894,-8.2948,-1.6753,-0.22419,1.0684,0.73365,-42.48,37.08,6.0
1.6753,-8.9622,-1.471,-0.29474,1.2321,0.73609,-42.06,37.26,5.7
2.0022,-9.3163,-1.4029,-0.29566,1.2944,0.74373,-41.34,37.68,5.1
2.3291,-9.8884,-1.362,-0.2248,1.2614,0.77274,-40.74,37.98,4.86
2.7513,-10.379,-1.5391,-0.089492,1.0437,0.84666,-40.2,38.1,4.62
3.5277,-10.924,-1.8387,0.080023,0.77,0.91935,-39.18,38.76,3.9
3.9227,-10.828,-1.9341,0.23488,0.31032,0.95356,-38.7,39.12,3.6
4.0861,-10.815,-1.8932,0.36102,0.17013,0.92913,-37.8,39.9,3.0
4.3858,-12.136,-2.2474,0.61911,-0.31429,0.78832,-37.14,40.2,2.7
4.9033,-13.634,-2.8603,0.66737,-0.51771,0.7199,-36.66,40.32,2.34
5.3528,-14.301,-3.0782,0.53603,-1.1545,0.47709,-36.18,40.74,1.92
5.2438,-13.103,-2.3563,0.20739,-1.4777,0.32529,-35.28,41.28,1.26
4.699,-12.476,-1.7434,-0.083994,-1.7266,-0.13897,-34.92,41.58,0.96
3.0373,-11.673,-0.99429,-0.31398,-1.7449,-0.36621,-34.26,41.76,0.96
2.6151,-11.319,-0.8036,-0.60323,-1.6832,-0.85765,-33.9,41.76,1.2
2.4517,-11.196,-0.7355,-0.85155,-1.4737,-1.2911,-33.84,41.82,1.38
2.2474,-11.455,-0.76274,-1.1545,-0.99571,-1.6582,-33.96,41.52,2.34
2.2474,-11.319,-0.65378,-1.3958,-0.64202,-1.8088,-34.08,41.16,3.06
2.2882,-10.706,-0.44947,-1.6191,-0.25595,-1.8922,-34.14,40.62,3.84
2.261,-9.0303,0.095342,-1.6774,0.32284,-1.8729,-34.92,39.24,5.58
2.2746,-8.1858,0.28603,-1.5464,0.64355,-1.7819,-35.4,38.46,6.36
2.3291,-7.4367,0.35413,-1.3549,0.83444,-1.664,-36.06,37.56,7.32
2.5198,-6.4833,0.34051,-1.1148,0.83169,-1.5464,-37.32,35.46,9.54
2.7649,-6.1292,0.43585,-0.87293,0.62186,-1.4044,-38.1,34.2,10.56
3.0782,-5.7478,0.47671,-0.64507,0.22602,-1.2428,-38.82,32.82,11.4
3.2825,-5.8023,0.64016,-0.38026,-0.58704,-0.99418,-40.08,30.24,12.78
3.3097,-6.17,0.8036,-0.29566,-0.90072,-0.91049,-40.68,28.8,13.38
3.2689,-6.3198,0.8036,-0.17593,-1.5241,-0.75961,-41.28,27.42,13.86
3.0101,-7.2869,0.78998,-0.051618,-2.2886,-0.49358,-42.12,24.84,14.88
2.8194,-7.7636,0.81722,0.0033598,-2.5385,-0.31124,-42.42,23.7,15.36
2.6696,-8.3493,0.83084,0.022602,-2.5607,-0.11912,-42.78,22.68,15.72
2.7377,-9.7658,0.72188,0.022297,-2.4441,0.053145,-42.78,21.84,16.08
2.8058,-10.161,0.64016,-0.033292,-2.1206,0.25107,-42.24,20.22,16.92
2.9284,-10.174,0.5993,-0.066584,-1.9948,0.29077,-41.7,19.56,17.4
2.9284,-10.052,0.51757,-0.15791,-1.6011,0.27733,-41.16,19.08,17.94
2.5742,-9.9973,0.61292,-0.19059,-1.3155,0.17013,-39.96,18.18,19.2
2.3155,-10.515,0.5993,-0.21014,-1.0058,0.032987,-39.18,17.88,19.98
2.547,-11.359,0.25879,-0.18876,-0.71166,-0.097433,-37.56,17.22,21.54
2.7104,-13.184,0.44947,-0.087659,-0.48808,-0.077274,-36.9,17.16,22.2
2.833,-14.601,0.50395,0.03146,-0.35277,0.10079,-36.12,17.1,23.16
3.4459,-15.677,0.49033,0.18234,-0.050396,0.47953,-35.16,16.98,23.88
3.6775,-10.379,0.12258,0.35247,0.1686,0.62736,-33.36,16.62,25.02
3.623,-5.8704,-1.0896,0.68447,0.2193,0.53634,-32.64,16.62,25.62
3.5685,-3.6094,-2.8058,1.1582,-0.31551,0.19212,-31.86,16.44,26.04
3.732,-4.0316,-3.4459,1.8802,-2.1698,-0.35369,-30.72,16.68,26.88
3.7047,-5.7342,-3.514,2.1316,-3.4978,-0.53329,-30.12,16.92,27.18
3.5549,-6.674,-3.337,2.1768,-4.0186,-0.60934,-29.4,17.1,27.54
2.5061,-8.9349,-1.9886,1.9936,-4.6184,-0.64507,-27.72,17.52,28.02
1.5119,-9.7385,-1.4438,1.635,-4.2816,-0.44685,-26.7,17.94,28.26
0.70826,-10.256,-1.5663,0.82009,-3.0727,-0.029322,-24.6,18.84,28.8
0.54481,-10.283,-1.8932,0.34697,-2.2092,0.045815,-23.16,19.32,29.16
1.0351,-9.902,-2.261,0.058338,-1.5547,-0.085216,-21.84,19.62,29.34
1.4301,-9.507,-2.2882,-0.036346,-1.3146,-0.16493,-20.7,20.1,29.46
2.0567,-9.1665,-2.3699,-0.15485,-1.0739,-0.36835,-18.12,21.18,29.82
2.3836,-9.1529,-2.2474,-0.17043,-1.1533,-0.45571,-16.92,21.66,30.0
2.6423,-9.2755,-2.0431,-0.12798,-1.2547,-0.50946,-14.4,22.32,30.36
3.2008,-9.398,-1.8387,-0.1182,-1.2642,-0.46426,-13.2,22.62,30.54
3.2553,-9.0848,-1.5663,-0.11057,-1.3036,-0.40653,-12.06,22.92,30.78
3.2961,-9.0167,-1.4438,-0.096211,-1.3476,-0.38423,-11.1,23.04,30.78
3.4596,-8.7443,-1.1713,-0.091935,-1.5464,-0.32467,-10.02,23.28,30.84
3.5958,-8.322,-0.99429,-0.097433,-1.7022,-0.29841,-8.34,23.46,30.78
3.6639,-8.1722,-0.8717,-0.10843,-1.8314,-0.27978,-7.5,23.46,30.66
3.4732,-7.8998,-0.76274,-0.1295,-1.8815,-0.27672,-6.72,23.46,30.6
3.3778,-7.9543,-0.61292,-0.13683,-1.8014,-0.32009,-5.58,23.64,30.6
3.3778,-8.3901,-0.50395,-0.12217,-1.7153,-0.34453,-4.8,23.64,30.6
3.514,-8.826,-0.51757,-0.090103,-1.6222,-0.35858,-4.14,23.7,30.6
3.8954,-10.76,-0.24517,-0.095906,-1.4832,-0.37996,-3.0,23.82,30.42
3.8546,-11.809,0.31327,-0.1405,-1.2633,-0.45204,-2.22,23.82,30.42
3.7047,-13.239,0.8036,-0.16738,-0.91111,-0.54459,-0.78,24.0,30.18
4.2632,-16.535,0.57205,-0.17349,-0.52687,-0.64416,-0.18,24.0,30.0
4.8488,-15.704,0.068102,-0.13653,-0.26756,-0.78741,0.54,24.12,29.94
5.1621,-13.934,-0.10896,0.16066,-0.58307,-0.99693,1.14,24.18,29.88
5.2575,-13.293,0.14982,0.46151,-1.1487,-1.1023,2.16,24.48,29.46
5.4209,-13.062,0.47671,0.68417,-1.9569,-1.2352,2.52,24.72,29.52
5.4481,-12.217,0.70826,0.7703,-2.8506,-1.3439,2.88,24.84,29.28
4.6309,-11.06,1.0215,0.7367,-3.8866,-1.3873,3.66,25.32,28.62
3.6775,-9.8066,0.83084,0.71899,-4.0198,-1.4313,4.08,25.68,28.2
2.9148,-8.7851,0.8036,0.62308,-3.8292,-1.6017,4.5,25.92,27.72
1.5936,-7.3686,0.5993,0.53939,-3.4349,-1.7101,5.52,26.58,26.88
1.1305,-6.8374,0.38137,0.44593,-2.93,-1.7367,5.82,27.06,26.1
1.1577,-6.9191,0.19068,0.34911,-2.4661,-1.6622,6.42,28.02,24.9
1.2803,-7.5048,0.21793,0.2135,-1.9838,-1.4025,6.78,28.68,24.3
1.3757,-8.0905,0.31327,0.11606,-1.7474,-1.1387,7.02,29.28,23.52
1.3757,-10.161,1.2395,-0.036346,-1.5165,-0.80909,7.38,30.42,22.32
1.3757,-11.591,1.7706,-0.20311,-1.241,-0.44074,7.56,30.96,21.54
1.4438,-12.898,2.3699,-0.35675,-0.96456,-0.12278,7.86,31.5,20.82
0.83084,-13.866,2.8058,-0.42547,-0.64538,0.17959,8.52,32.7,19.56
0.47671,-13.92,2.5606,-0.29841,-0.47037,0.30849,8.82,33.18,19.08
0.31327,-13.552,2.0975,-0.051618,-0.39431,0.39401,8.94,33.6,18.6
0.19068,-12.463,1.471,0.26023,-0.41172,0.44563,9.12,34.02,18.06
0.14982,-13.157,1.3484,0.5003,-0.42028,0.52687,9.3,34.74,17.28
-0.16344,-11.741,1.2122,0.55619,-0.35339,0.5849,9.36,34.92,17.04
-0.35413,-9.507,0.14982,0.59712,-0.20831,0.57574,9.54,35.1,16.74
0.095342,-9.1937,-0.74912,0.74892,-0.18021,0.44685,9.9,35.46,16.38
0.64016,-9.5479,-1.7025,0.95661,-0.4386,0.33078,10.08,35.64,16.32
1.1986,-10.542,-2.3699,1.0278,-0.61606,0.28161,10.38,35.7,16.14
1.58,-11.319,-2.3972,1.1371,-1.2914,0.26298,10.68,35.88,15.84
3.1191,-12.449,-2.5606,1.1347,-1.741,0.35277,11.34,36.06,15.42
4.0725,-13.035,-2.8467,1.1185,-2.1481,0.60689,11.7,36.0,15.12
4.6718,-13.43,-3.3642,1.1142,-2.4279,0.70677,12.54,36.06,14.28
4.3721,-13.702,-3.2144,1.1118,-2.5705,0.894,13.02,36.06,13.8
4.127,-13.838,-3.1599,1.0669,-2.5339,0.94134,13.5,36.18,13.44
3.6366,-12.858,-3.7592,0.79046,-2.1078,0.74648,14.7,36.3,12.12
3.6911,-11.536,-4.1814,0.52168,-1.6325,0.53481,15.36,36.36,11.64
3.6366,-9.6977,-4.4402,0.097738,-0.90805,0.21472,16.62,36.36,10.14
3.5685,-6.0747,-3.8682,-0.067501,-0.63072,-0.014355,17.28,36.24,9.3
3.5277,-5.0668,-3.5413,-0.13744,-0.56413,-0.2364,17.94,36.12,8.7
3.4187,-3.8546,-3.1463,-0.13439,-0.57391,-0.32926,18.48,36.24,7.98
3.9635,-2.5198,-2.656,-0.0094684,-0.84055,-0.60384,19.44,36.36,6.6
3.8409,-2.5742,-1.8387,0.1405,-1.1958,-0.85521,19.86,36.42,6.06
2.9556,-4.4675,-0.35413,0.43585,-1.5892,-1.0479,20.16,36.48,5.4
1.8251,-9.4934,0.84446,0.85796,-2.0308,-1.0256,20.16,36.66,4.14
1.6889,-12.749,0.28603,0.21166,-2.0262,-0.75839,20.04,36.78,3.54
3.1327,-18.183,-0.17706,-0.80146,-1.792,-0.66004,19.8,36.96,2.82
2.942,-15.514,0.5993,-1.1545,-1.15,-0.51129,19.26,37.08,2.04
2.1248,-15.895,2.4108,-1.12,-0.43738,-0.03146,18.9,37.26,1.62
0.47671,-17.216,4.5083,-1.0046,-0.20342,0.10263,18.12,37.86,1.08
-0.027241,-16.508,4.8352,-0.86896,-0.1909,0.025351,17.64,37.98,0.78
-0.14982,-14.669,4.018,-0.52046,-0.23549,0.0079412,17.1,38.22,0.48
-0.70826,-9.3163,3.0373,0.16982,-0.68997,0.13897,16.32,38.4,0.06
-1.866,-6.6467,2.5061,0.51099,-1.1637,0.19456,15.78,38.58,-0.18
-2.9284,-4.7807,2.2065,0.6466,-1.5382,0.18509,15.3,38.7,-0.48
-4.4402,-3.0646,1.3212,0.56963,-1.5855,0.1573,14.52,38.82,-0.78
-4.7126,-1.9341,0.40861,0.33506,-0.89431,0.23213,14.34,38.82,-1.08
-3.7728,-0.74912,-0.50395,0.20403,-0.50763,0.2868,13.98,38.94,-1.26
-2.7922,-1.5119,-0.27241,0.10415,0.42883,0.38271,13.8,39.0,-1.44
-1.866,-3.7047,0.58567,0.34697,0.76633,0.39798,13.8,39.06,-1.62
-0.65378,-8.4719,1.8251,0.686,0.91508,0.44379,13.68,38.94,-2.04
0.7355,-12.217,0.83084,0.69791,0.93676,0.3992,13.68,38.7,-2.34
3.3506,-18.51,-1.7843,-0.60567,0.99602,0.23885,14.1,38.58,-2.64
5.1621,-16.058,-2.8194,-0.93859,0.28894,-0.0094684,14.28,38.52,-2.64
4.7671,-15.514,-3.1054,-0.65454,0.091324,0.040623,14.46,38.34,-2.64
4.3449,-16.603,-3.0646,0.21777,-0.1127,0.0045815,14.46,38.34,-2.64
3.8818,-15.119,-2.8739,0.48991,0.12645,-0.21197,14.64,38.1,-2.76
3.8682,-11.795,-2.8739,0.50152,0.49419,-0.3769,14.76,38.16,-2.82
3.6094,-7.7227,-2.8739,0.30238,0.66584,-0.50793,14.82,38.1,-2.88
3.732,-4.9169,-3.5685,0.054062,0.41539,-0.57055,14.88,38.1,-2.88
3.9499,-3.7456,-3.7047,0.020464,0.22144,-0.56719,14.94,37.98,-2.82
4.3721,-2.438,-3.3778,0.067195,-0.56749,-0.4948,14.7,37.98,-2.82
4.304,-0.96704,-2.7104,0.14508,-1.0599,-0.58032,14.4,37.98,-2.7
3.3778,-1.3893,-2.0975,0.32742,-1.3558,-0.82253,13.98,37.98,-2.76
2.3155,-3.9499,-0.98067,0.65973,-1.5583,-0.97494,13.44,38.16,-2.7
2.3155,-9.3027,-0.17706,1.1332,-1.8387,-0.87201,12.18,38.34,-3.3
2.6696,-14.969,-1.2531,0.73457,-1.9102,-0.67745,11.52,38.52,-3.78
2.8467,-17.829,-2.0294,0.092241,-1.8118,-0.58368,10.92,38.7,-4.02
2.6968,-17.039,-0.21793,-1.0977,-0.99815,-0.46059,10.2,38.94,-4.32
2.1793,-15.636,1.1577,-0.97952,-0.35216,-0.19426,8.7,39.24,-4.56
2.3155,-16.331,1.2803,-0.78527,0.146,0.057727,7.98,39.42,-4.68
1.8932,-14.642,0.9398,-0.37507,0.43188,0.20983,6.6,39.66,-4.68
1.6344,-13.484,1.2531,-0.10934,0.36408,0.24709,5.82,39.96,-4.8
1.2258,-11.904,1.4301,0.011301,0.15699,0.20831,5.22,40.2,-4.92
0.01362,-8.0632,1.4982,0.03207,-0.14722,0.15577,3.96,40.92,-4.92
-0.76274,-5.8704,1.6481,0.012217,-0.51618,0.072082,3.36,41.28,-4.92
-1.9068,-3.909,1.7434,0.054672,-0.87384,-0.026878,2.88,41.52,-4.98
-3.1599,-3.4732,1.5119,0.14508,-0.95753,-0.025351,2.04,41.88,-4.92
-3.4732,-3.6094,1.2122,0.11851,-0.80817,-0.0097738,1.68,42.06,-4.86
-3.7184,-4.0316,0.91256,0.072388,-0.3259,0.091935,1.32,42.18,-4.86
-2.8058,-8.1041,2.3836,0.032681,0.72296,0.3766,1.02,42.42,-4.62
-1.7979,-11.319,2.6696,-0.098655,1.376,0.60781,0.84,42.6,-4.56
-0.54481,-13.648,2.7104,-0.27245,1.7831,0.78099,0.84,42.42,-4.44
0.70826,-12.258,1.3212,-0.12217,1.5189,0.88362,1.08,42.3,-4.26
0.24517,-11.482,0.50395,0.23243,1.0064,0.79321,1.32,42.24,-4.08
-0.38137,-11.087,-0.054481,0.64202,0.61881,0.65729,1.56,42.24,-3.96
-0.85808,-10.093,-0.8036,0.94409,0.63286,0.58185,2.16,41.64,-3.84
-0.32689,-9.6432,-1.2395,1.0996,0.894,0.63683,2.64,41.52,-3.78
0.68102,-9.0303,-1.6753,1.0968,1.1664,0.81276,3.18,41.34,-3.6
2.2882,-8.6489,-1.7706,0.905,1.1674,0.98716,4.32,41.04,-3.48
3.1599,-8.3629,-1.8932,0.57666,0.7138,1.0308,5.1,40.86,-3.36
3.2825,-8.3493,-1.9477,0.52015,0.30727,1.0519,5.88,40.68,-3.36
3.5004,-9.2482,-2.2474,0.5287,-0.06689,1.0476,7.44,40.2,-3.72
3.5685,-10.025,-2.4108,0.5003,-0.3488,0.96669,8.4,39.96,-3.9
3.7456,-10.706,-2.4789,0.39676,-0.45509,0.85582,9.3,39.96,-4.2
3.8682,-11.128,-2.6696,0.27214,-0.36988,0.71685,10.68,39.72,-4.98
3.8137,-10.706,-2.7377,0.034819,0.022907,0.40928,11.28,39.36,-5.4
3.514,-10.12,-2.547,-0.0024435,0.29902,0.10232,12.0,39.18,-5.7
3.6094,-9.7385,-2.4244,0.083994,0.38362,-0.23335,13.38,39.0,-6.24
4.3994,-10.365,-2.8603,0.16402,0.13714,-0.46151,13.98,38.7,-6.48
5.0123,-10.883,-3.0918,0.10232,-0.33811,-0.63744,14.4,38.46,-6.84
5.4481,-11.087,-2.547,0.023518,-0.98991,-0.72632,15.18,38.52,-7.38
4.7263,-10.665,-1.8524,-0.29963,-1.9401,-0.76083,15.12,38.52,-7.56
4.1814,-10.569,-1.471,-0.50213,-2.2688,-0.83108,15.3,38.4,-7.74
2.547,-11.264,-0.92618,-0.70005,-2.2156,-0.90836,14.88,38.52,-7.74
2.0158,-11.741,-0.72188,-0.93585,-1.8137,-0.96914,14.58,38.46,-7.8
1.4165,-11.836,-0.44947,-1.244,-1.1252,-1.0727,14.04,38.52,-7.74
0.99429,-11.523,-0.16344,-1.5156,-0.25137,-1.2055,13.56,38.58,-7.32
0.54481,-9.6841,0.64016,-1.6612,0.58063,-1.3781,12.18,39.18,-6.96
0.83084,-9.2482,0.74912,-1.6942,1.2175,-1.5379,11.34,39.42,-6.54
1.1032,-8.8532,0.88532,-1.5354,1.5421,-1.6561,10.26,39.66,-6.12
1.6344,-8.2812,0.88532,-1.0968,1.2565,-1.6368,7.92,40.14,-5.4
1.7025,-8.54,0.9398,-0.7419,0.6298,-1.4697,6.78,40.5,-5.04
1.6753,-9.2346,1.3484,-0.43035,-0.12645,-1.2443,5.58,40.56,-4.68
0.6674,-10.964,1.9886,-0.13592,-0.9444,-0.73701,3.36,40.98,-3.66
-0.12258,-11.25,2.4244,-0.036652,-1.1234,-0.34972,2.22,41.04,-3.12
-0.99429,-11.182,2.656,-0.016799,-1.0818,-0.17532,1.44,41.16,-2.7
-1.7298,-9.7249,2.1929,0.062919,-0.59437,0.26512,-0.42,41.7,-1.74
-1.6344,-9.1529,1.7025,0.17959,-0.23671,0.43646,-1.2,41.88,-1.26
-1.5119,-8.9349,1.7025,0.29444,-0.05284,0.55222,-1.8,41.88,-0.96
-1.9886,-10.338,1.975,0.28161,0.25809,0.72876,-2.88,41.82,-0.48
-1.8932,-10.569,2.0703,0.20831,0.64568,0.81886,-3.36,41.76,-0.42
-1.3757,-10.46,1.757,0.20861,0.82833,0.86712,-3.48,41.58,-0.42
-0.54481,-9.6023,0.24517,0.41417,0.92821,1.0003,-3.48,41.46,-0.42
0.1362,-9.1529,-0.24517,0.66768,0.60445,1.0098,-3.36,41.16,-0.3
-0.054481,-9.1256,-0.44947,0.87476,0.23702,0.96914,-3.06,41.16,-0.36
-0.31327,-10.12,-0.95342,1.0064,-0.018631,0.8998,-2.28,40.68,-0.48
-0.38137,-10.815,-1.3348,1.0974,-0.0088575,0.9444,-1.8,40.74,-0.6
-0.24517,-11.373,-1.7025,1.0718,0.067195,0.97586,-1.26,40.56,-0.78
0.19068,-11.605,-1.7843,0.77885,0.42364,1.1249,0.06,40.14,-1.14
0.54481,-11.291,-1.757,0.52229,0.66981,1.1921,0.9,39.84,-1.26
1.3757,-11.06,-2.2201,0.39309,0.80146,1.1961,1.8,39.54,-1.56
2.656,-11.332,-3.0782,0.34544,0.67562,1.153,3.72,39.12,-1.98
3.5822,-11.754,-3.5277,0.32193,0.40806,1.1402,4.86,38.88,-2.22
3.9908,-11.931,-3.514,0.29505,0.24862,1.1255,5.82,38.82,-2.46
3.6775,-11.645,-2.5198,0.11759,-0.010079,1.0788,7.68,38.52,-2.94
3.4051,-10.978,-2.1656,-0.035736,0.10934,0.98899,8.7,38.46,-3.18
3.4459,-9.9973,-2.3836,-0.17837,0.36682,0.75992,9.78,38.28,-3.36
4.127,-7.7772,-3.2689,-0.22571,0.52168,0.46487,11.64,38.1,-3.72
4.5764,-6.1836,-3.4187,-0.27794,0.2645,0.058643,12.54,37.98,-3.9
4.6854,-4.8625,-3.2416,-0.1295,-0.15027,-0.19334,13.5,37.92,-4.02
4.3449,-4.699,-2.4517,0.21228,-0.66004,-0.43463,14.88,37.74,-4.14
4.127,-6.7421,-2.3836,0.5058,-1.1041,-0.56383,15.36,37.8,-4.32
4.3177,-9.9292,-2.6287,0.53848,-1.4438,-0.6014,15.78,37.98,-4.38
4.2632,-12.83,-2.3155,0.25595,-1.6142,-0.58949,16.38,37.98,-4.62
3.514,-13.729,-1.5119,-0.45845,-1.4899,-0.5507,16.38,37.98,-4.68
3.1191,-13.743,-0.83084,-0.66829,-1.347,-0.56261,16.26,37.92,-4.68
2.5606,-13.648,-0.095342,-1.1585,-0.67959,-0.76297,16.2,38.1,-4.74
1.9613,-13.607,0.47671,-1.4038,-0.15821,-0.97402,15.78,37.86,-4.74
1.8932,-13.579,0.57205,-1.6338,0.29169,-1.1936,15.18,37.92,-4.74
1.7706,-13.212,0.40861,-1.3995,0.72082,-1.5278,14.1,38.1,-4.5
1.1713,-12.544,0.64016,-1.1212,0.90744,-1.5794,13.44,38.1,-4.5
0.6674,-11.891,0.84446,-0.8601,0.98777,-1.58,12.6,38.16,-4.26
0.38137,-11.346,0.95342,-0.73762,0.96883,-1.5562,11.76,38.16,-4.26
-0.095342,-10.324,1.2531,-0.39492,0.6017,-1.3164,10.98,38.28,-3.96
-0.8717,-9.1529,1.4438,-0.28314,0.30177,-1.0831,9.3,38.46,-3.36
-1.076,-8.4446,1.2803,-0.21808,0.135,-0.79321,8.46,38.58,-3.24
-1.3757,-6.9736,0.98067,-0.18326,0.073609,-0.52962,6.96,38.94,-2.82
-1.6208,-6.2381,0.76274,-0.16616,0.0562,-0.24526,6.36,39.12,-2.64
-2.1248,-5.993,0.44947,-0.15608,0.036957,-0.15577,5.82,39.24,-2.28
-2.2201,-6.4152,0.43585,-0.17532,0.1689,-0.12706,5.22,39.48,-2.1
-2.2882,-9.2482,1.0079,-0.26909,0.53237,-0.076053,4.38,39.78,-1.98
-2.2065,-10.665,1.4165,-0.46487,1.0855,0.043371,4.08,39.78,-1.68
-1.3757,-10.896,1.5119,-0.69516,1.8528,0.24557,3.6,39.9,-1.5
-0.58567,-10.025,0.81722,-0.60231,2.065,0.3149,3.42,40.02,-1.26
-0.21793,-9.6432,0.42223,-0.48472,2.0272,0.36285,3.24,40.08,-1.02
0.12258,-9.4117,-0.44947,0.013134,1.4087,0.50366,3.18,40.02,-0.96
0.12258,-9.5479,-1.0079,0.32742,0.90255,0.62094,3.18,39.96,-0.6
0.19068,-9.7658,-1.185,0.54123,0.5736,0.80451,3.18,39.9,-0.3
0.7355,-9.9837,-1.1577,0.63194,0.49786,1.1762,3.3,39.84,-0.3
1.9477,-10.351,-1.2531,0.59956,0.53512,1.3057,3.48,39.78,0.42
2.4789,-10.46,-1.2667,0.49388,0.57666,1.5501,4.32,39.6,0.72
3.0237,-10.665,-1.2667,0.39859,0.41264,1.7825,4.86,39.48,0.9
3.5004,-11.06,-1.4438,0.40928,0.1686,1.8598,5.4,39.48,1.14
4.4266,-11.659,-2.1112,0.46273,-0.10965,1.8833,6.72,39.24,1.68
4.5901,-11.387,-2.3427,0.52657,-0.38973,1.7773,7.56,39.0,1.74
4.5356,-10.665,-2.5334,0.57421,-0.40256,1.7074,8.52,38.82,1.8
4.5356,-10.665,-2.5334,0.50793,-0.24954,1.3335,9.48,38.4,1.74
4.3449,-8.1041,-3.0782,0.32926,-0.10629,0.92485,11.88,38.16,1.62
3.8954,-6.4424,-2.6151,0.28527,-0.074831,0.45571,14.28,37.56,1.32
3.6775,-6.5378,-2.3291,0.51221,-0.22327,0.047342,15.48,37.38,1.08
3.9635,-8.4174,-2.3427,0.69028,-0.59437,-0.26542,17.64,36.9,0.36
4.5356,-9.6432,-2.7377,0.60415,-0.7309,-0.33262,19.14,36.36,0.12
4.808,-10.093,-2.6696,0.27764,-1.2055,-0.34544,19.92,36.0,-0.36
4.9442,-10.964,-2.3155,0.14019,-1.5333,-0.21564,21.18,35.46,-1.08
4.6037,-12.122,-1.7706,-0.029016,-1.7926,-0.085827,21.84,35.16,-1.56
3.9363,-12.776,-1.3348,-0.28772,-1.8671,-0.023518,22.26,35.04,-2.22
3.3506,-13.089,-0.77636,-0.53023,-1.6704,-0.054367,22.2,34.8,-2.94
2.9965,-13.184,-0.027241,-0.74556,-1.2905,-0.16157,21.96,35.04,-3.42
2.8194,-13.402,0.20431,-1.0055,-0.51129,-0.42913,21.66,34.98,-3.72
2.9011,-13.539,0.24517,-1.1429,-0.068417,-0.64446,21.6,35.04,-3.84
2.9965,-13.103,0.35413,-1.1759,0.23274,-0.88698,21.18,35.22,-4.08
2.6696,-12.0,0.53119,-1.1054,0.43402,-1.0825,20.52,35.46,-4.26
2.2882,-10.392,0.61292,-0.95387,0.52779,-1.2138,19.98,35.76,-4.14
2.0567,-9.507,0.46309,-0.73365,0.41722,-1.3613,19.68,36.06,-4.08
1.7706,-8.7715,0.40861,-0.6805,0.33872,-1.3693,19.32,36.36,-4.08
1.6753,-7.6274,0.31327,-0.57421,0.10507,-1.3607,18.54,36.96,-3.72
1.7706,-7.1098,0.23155,-0.60598,-0.0079412,-1.347,18.06,37.26,-3.54
1.8932,-6.4833,0.16344,-0.66493,-0.074831,-1.3433,17.04,38.04,-3.3
1.8115,-6.3471,0.095342,-0.74862,-0.11942,-1.394,16.44,38.46,-3.36
1.6344,-6.7421,0.21793,-0.8656,-0.076969,-1.5672,15.72,38.88,-3.18
1.1169,-8.7034,0.88532,-0.91294,-0.018326,-1.631,15.06,39.36,-3.06
1.1305,-9.9292,1.076,-1.0357,0.32223,-1.7321,13.74,40.38,-2.52
1.4165,-10.474,0.92618,-1.0715,0.63713,-1.697,12.9,41.16,-2.22
1.7298,-10.324,0.69464,-0.96547,0.8717,-1.5864,12.18,41.64,-2.04
2.3699,-9.5751,0.095342,-0.70738,0.94562,-1.4126,10.62,42.72,-1.62
2.4108,-9.1529,-0.28603,-0.22938,0.74709,-1.1377,9.78,43.14,-1.44
2.2065,-8.8805,-0.31327,-0.085827,0.60476,-1.0421,8.94,43.5,-1.08
2.152,-8.6762,-0.55843,0.25595,0.13622,-0.7761,7.08,44.16,-0.66
2.0022,-8.2812,-0.74912,0.39065,-0.14844,-0.54825,6.18,44.58,-0.3
1.8115,-7.8181,-0.81722,0.49297,-0.33903,-0.28314,5.46,44.88,-0.3
1.2258,-6.8647,-1.3076,0.56688,-0.42364,-0.027489,3.84,45.24,0.42
1.2258,-6.6195,-1.5663,0.6298,-0.41203,0.33475,3.18,45.66,0.6
1.6072,-6.4833,-1.7298,0.63469,-0.39431,0.44868,1.74,45.9,0.72
1.6753,-6.3198,-1.7843,0.61972,-0.38026,0.65668,1.26,45.72,0.66
1.7025,-6.4288,-1.866,0.60048,-0.37385,0.8207,0.84,45.72,0.42
1.6753,-7.3414,-2.152,0.53939,-0.39828,1.0571,0.6,45.78,0.24
1.7843,-7.5048,-1.9205,0.39615,0.059254,1.1344,0.48,45.66,0.24
2.6968,-7.5593,-1.6753,0.56505,-0.31429,1.3216,0.66,45.66,-0.12
2.7786,-9.1937,-1.866,0.58704,-0.4667,1.4707,1.5,45.48,-0.54
2.8875,-9.7385,-1.8387,0.61636,-0.51343,1.7856,1.86,45.48,-0.9
3.0918,-9.9837,-1.8115,0.63163,-0.48625,1.8451,2.52,45.36,-1.26
3.5413,-10.869,-2.0294,0.74678,-0.54611,2.04,4.02,45.0,-1.74
3.623,-11.496,-2.2065,0.81795,-0.5791,2.1426,4.98,44.94,-2.04
3.7865,-11.986,-2.4244,0.86071,-0.55528,2.157,6.06,44.64,-2.46
3.8682,-11.809,-2.3563,0.79748,-0.4386,2.0385,8.4,44.28,-3.18
3.7047,-12.395,-1.8932,0.77122,-0.35369,1.8769,9.78,44.22,-3.66
3.6775,-13.552,-2.0431,0.81581,-0.3207,1.7929,11.28,43.86,-4.08
4.5356,-15.309,-2.5606,0.64568,-0.22449,1.4658,13.8,43.32,-5.16
4.699,-14.233,-2.5742,0.26481,-0.13683,1.2181,15.18,42.84,-5.64
5.0668,-13.144,-2.5334,0.040317,-0.15791,0.9893,16.38,42.48,-6.18
5.1757,-11.904,-2.0703,-0.098044,-0.33445,0.69425,18.72,41.82,-7.14
4.9306,-11.523,-1.5527,-0.33964,-0.73457,0.1518,20.04,41.4,-7.44
4.9169,-11.319,-0.95342,-0.43585,-0.85918,-0.021686,21.12,41.04,-7.86
4.5083,-11.019,-0.85808,-0.65943,-1.1912,-0.53329,22.08,40.8,-8.22
3.9363,-11.414,-0.89894,-0.78924,-1.2596,-0.79107,23.52,40.26,-9.0
3.7047,-11.359,-0.76274,-0.95112,-1.1102,-1.0418,23.94,40.2,-9.3
3.1872,-10.678,-0.31327,-1.1054,-0.98624,-1.1191,24.42,40.26,-9.54
2.8603,-9.507,-0.054481,-1.2627,-0.47464,-1.3088,24.36,40.14,-9.66
2.7377,-8.9758,0.01362,-1.2675,-0.28161,-1.3628,24.18,40.32,-9.48
2.6968,-8.2812,0.10896,-1.1701,0.1463,-1.4899,23.88,40.68,-9.18
2.9011,-7.1643,0.12258,-1.055,0.26145,-1.5327,22.68,41.22,-8.64
3.1054,-6.5105,0.068102,-0.91508,0.208,-1.5094,21.96,41.64,-8.34
3.3234,-5.7614,0.27241,-0.70036,-0.15516,-1.4468,20.46,42.72,-7.56
3.2825,-5.7069,0.21793,-0.56261,-0.55039,-1.3845,19.32,43.14,-7.2
3.2825,-5.8023,0.34051,-0.49663,-0.76908,-1.3424,18.12,43.68,-6.84
3.2144,-5.9112,0.50395,-0.36774,-1.4416,-1.1716,16.92,44.16,-6.42
2.9692,-6.5105,0.8036,-0.30238,-1.8473,-1.0165,14.52,45.12,-5.52
2.7649,-6.9872,0.8717,-0.26267,-2.1276,-0.82131,13.26,45.6,-5.1
2.4789,-7.7636,0.84446,-0.25381,-2.175,-0.4945,11.1,46.38,-4.38
2.3836,-8.1995,0.88532,-0.2645,-1.9936,-0.27153,10.02,46.92,-3.96
2.3427,-8.7306,0.89894,-0.27764,-1.6927,-0.069028,9.0,47.34,-3.66
2.4789,-9.7385,0.76274,-0.30543,-1.3366,0.074831,7.02,48.06,-3.3
2.5061,-9.9292,0.8036,-0.34911,-0.967,0.13928,6.18,48.42,-3.3
2.5061,-9.6023,0.7355,-0.38973,-0.57116,0.12523,5.52,48.78,-3.0
2.4925,-9.8884,0.89894,-0.38546,-0.021075,0.0033598,3.9,49.26,-2.88
2.547,-10.283,0.76274,-0.35797,0.13928,-0.046426,3.24,49.5,-2.7
2.6151,-10.678,0.72188,-0.25901,0.43127,-0.12156,2.82,49.74,-2.7
2.8194,-13.225,0.9398,-0.0015272,0.6466,-0.089186,2.22,50.34,-2.58
3.1872,-14.764,0.89894,0.19884,0.70799,0.10232,1.86,50.64,-2.64
4.0589,-11.155,0.20431,0.39126,0.72601,0.27733,1.44,50.82,-2.46
4.304,-8.4174,-0.35413,0.6857,0.63591,0.47495,1.26,51.0,-2.52
4.4402,-6.7829,-0.8036,1.2611,0.030849,0.32895,1.2,51.18,-2.52
4.6854,-4.3994,-1.6753,1.693,-0.8659,0.039401,1.08,51.36,-2.52
4.7671,-5.1485,-2.3018,2.0717,-2.0867,-0.16952,1.14,51.42,-2.82
3.8273,-6.7557,-2.3836,2.2779,-3.3549,-0.28772,0.9,51.6,-3.06
3.0646,-7.4776,-2.3291,2.2541,-4.353,-0.29016,0.84,51.54,-3.66
2.0022,-9.5206,-2.0294,2.0986,-4.7382,-0.16066,0.36,51.48,-5.04
1.5936,-10.896,-1.9613,1.8558,-4.3717,0.095295,0.18,51.36,-5.94
1.362,-11.741,-1.9613,1.668,-4.0763,0.26664,-0.18,51.12,-6.78
0.47671,-12.34,-2.261,0.84025,-2.8833,0.63683,-1.32,50.7,-8.76
0.12258,-11.387,-2.2474,0.29291,-1.996,0.6295,-1.74,50.52,-9.72
-0.28603,-10.256,-2.0567,-0.10018,-1.1643,0.41569,-2.28,50.34,-10.74
0.040861,-8.4446,-2.2337,-0.15577,-0.45112,-0.16249,-3.3,49.98,-12.6
0.70826,-8.6217,-2.5334,-0.055589,-0.39004,-0.34606,-4.02,49.74,-13.56
1.5391,-9.2482,-2.7513,-0.047953,-0.4328,-0.36377,-4.68,49.5,-14.46
2.2746,-9.7522,-2.7513,-0.12156,-0.71166,-0.28314,-5.28,49.5,-15.42
2.9829,-9.7385,-2.4108,-0.1744,-0.95051,-0.065363,-6.72,49.14,-16.68
3.0237,-9.4798,-2.0567,-0.21686,-1.1625,0.18723,-7.44,49.26,-17.04
2.833,-9.1801,-1.362,-0.2584,-1.3787,0.36866,-8.52,49.32,-17.46
2.833,-9.0848,-1.3076,-0.3488,-1.4212,0.3708,-9.12,49.44,-17.52
2.833,-8.8668,-1.1441,-0.37171,-1.4032,0.35308,-9.6,49.44,-17.46
3.0101,-8.5536,-0.95342,-0.40867,-1.3002,0.28955,-9.9,49.5,-17.22
3.1463,-8.1995,-1.076,-0.38576,-1.1924,0.23366,-10.56,49.62,-16.62
3.2961,-7.8998,-1.0896,-0.35613,-1.08,0.16616,-10.74,49.8,-16.32
3.337,-7.5457,-1.0896,-0.30207,-0.98716,0.088575,-11.16,49.8,-15.9
3.6366,-7.6274,-1.0351,-0.13225,-0.91844,-0.011606,-11.82,50.28,-15.18
3.8682,-7.9951,-1.0624,-0.044288,-0.94379,-0.063225,-12.12,50.34,-14.82
4.0316,-8.2403,-0.83084,0.042455,-0.99266,-0.098044,-12.54,50.22,-14.28
4.1678,-11.591,-0.42223,0.21319,-1.0522,-0.078496,-13.32,50.46,-13.38
4.808,-14.642,-0.77636,0.25626,-1.1307,0.010996,-13.62,50.34,-12.96
5.7069,-15.582,-0.50395,0.1909,-1.2501,0.062308,-14.04,50.52,-12.42
6.565,-14.247,0.081722,0.092546,-1.7156,0.021686,-14.88,50.22,-11.64
6.2245,-13.498,0.49033,0.057727,-1.9056,-0.066279,-15.24,50.34,-11.22
5.7478,-13.321,0.84446,0.034819,-2.4077,-0.40867,-15.72,50.28,-10.86
4.985,-13.089,0.99429,0.027489,-3.2913,-1.054,-17.04,50.1,-10.14
4.413,-12.844,0.95342,0.029932,-3.6976,-1.4316,-17.82,49.86,-9.6
3.7456,-12.354,0.83084,-0.0064141,-3.7415,-1.6823,-18.48,49.56,-9.18
2.6968,-10.883,0.95342,-0.097738,-3.2535,-1.8644,-20.16,48.42,-7.86
2.3155,-9.9292,0.9398,-0.13042,-3.0039,-1.8857,-21.18,47.82,-7.02
1.6072,-8.8396,0.8717,-0.17135,-2.4926,-1.872,-22.08,47.22,-6.36
0.91256,-6.9872,0.5993,-0.20495,-1.9117,-1.6903,-24.24,45.48,-4.5
1.0896,-6.6604,0.64016,-0.21105,-1.6173,-1.5394,-25.44,44.58,-3.72
1.5255,-6.7966,0.61292,-0.18784,-1.4716,-1.3576,-26.52,43.5,-2.76
1.7706,-8.0905,1.2122,-0.22571,-1.5079,-0.95356,-28.8,41.58,-0.78
1.7025,-8.826,1.6072,-0.34514,-1.5534,-0.67867,-29.88,40.44,0.12
1.3893,-9.398,2.0839,-0.41294,-1.5492,-0.57238,-30.9,39.24,1.08
1.3893,-9.398,2.0839,-0.54062,-1.2984,-0.32681,-30.9,39.24,1.08
1.3893,-9.398,2.0839,-0.51801,-1.2052,-0.29291,-30.9,39.24,1.08
1.0624,-12.626,2.7649,-0.26603,-1.0269,-0.22938,-31.56,38.04,2.04
1.0488,-13.634,2.5198,0.017104,-1.0223,-0.23885,-32.22,36.78,3.12
0.91256,-13.77,1.8115,0.26573,-1.0287,-0.23763,-33.3,34.38,5.04
0.70826,-13.511,1.6208,0.45509,-0.9612,-0.21502,-33.66,33.24,5.88
-0.29965,-14.029,1.5663,0.54092,-0.72693,-0.16249,-33.9,31.32,7.08
-1.3076,-14.969,2.0294,0.48289,-0.24954,-0.087965,-33.6,29.34,8.16
-1.7162,-13.116,1.3484,0.32742,0.36744,-0.062003,-33.18,27.9,9.0
-0.5993,-11.536,0.040861,0.35583,0.8659,-0.01405,-32.64,26.88,9.36
0.38137,-10.215,-1.2395,0.54367,0.9612,0.099876,-32.22,26.04,9.66
0.58567,-9.6023,-1.7706,0.90439,0.32467,0.21105,-31.86,25.5,9.78
0.39499,-9.6977,-1.866,1.0482,-0.23274,0.25565,-31.74,25.38,9.72
0.095342,-10.12,-1.8251,1.0818,-0.62278,0.29138,-31.5,25.08,9.36
0.25879,-10.787,-1.9205,1.0492,-0.78649,0.36346,-31.32,25.14,8.76
0.8036,-10.637,-2.4108,0.91294,-0.81642,0.48197,-31.32,25.26,8.34
1.1169,-9.5479,-2.8194,0.64996,-0.74312,0.7086,-30.96,25.56,7.8
1.2803,-7.9679,-3.2008,0.5284,-0.73518,0.75014,-30.6,25.8,7.5
1.471,-6.7421,-3.6775,0.50671,-0.79443,0.68295,-30.0,25.86,7.5
1.6617,-6.0474,-3.8273,0.51557,-0.93829,0.57574,-29.04,26.1,7.62
1.866,-5.9657,-3.7456,0.53695,-1.1023,0.49205,-28.26,26.34,7.38
1.975,-6.1836,-3.5413,0.52443,-1.204,0.4215,-27.78,26.46,7.38
2.2474,-7.0553,-3.2416,0.45051,-1.2501,0.37202,-26.82,26.76,7.5
2.261,-7.4776,-3.1599,0.25045,-1.2376,0.34697,-26.34,26.7,7.62
2.4517,-8.5808,-2.7649,0.09896,-1.182,0.30391,-25.26,26.76,7.8
2.6968,-10.106,-2.547,0.0018326,-1.0831,0.25779,-24.9,26.88,7.8
2.8603,-10.733,-2.4244,-0.11057,-0.90652,0.21197,-24.06,27.12,8.1
3.3915,-11.25,-2.547,-0.31582,-0.65485,0.17349,-22.98,27.06,8.28
3.8273,-10.569,-2.3699,-0.53145,-0.33781,0.050702,-22.38,27.0,8.16
4.0861,-9.9429,-2.2474,-0.49205,-0.28039,-0.072693,-22.08,26.88,8.22
4.3177,-9.2618,-1.7434,-0.37935,-0.37446,-0.26909,-21.3,26.82,8.64
4.413,-9.5751,-1.7298,-0.15516,-0.63683,-0.45235,-21.0,26.82,8.94
4.8352,-10.46,-1.9341,-0.061392,-0.98746,-0.65027,-20.4,26.64,9.06
4.7399,-9.8339,-1.362,-0.071777,-1.3653,-0.82589,-20.04,26.64,9.18
4.4675,-9.5751,-0.98067,-0.089797,-1.6884,-0.97525,-19.86,26.64,9.36
3.7592,-10.215,-0.50395,-0.10324,-1.9364,-1.1249,-19.32,26.4,9.84
3.4732,-11.727,-0.17706,-0.13317,-2.2297,-1.2795,-19.14,26.04,10.14
3.2008,-13.974,0.027241,-0.23702,-2.3311,-1.2721,-19.14,25.98,10.32
2.547,-16.753,0.6674,-0.56597,-2.1637,-1.2007,-18.96,25.98,10.86
1.58,-17.298,1.4846,-0.79779,-1.7364,-1.1179,-18.84,25.68,11.34
1.1032,-16.889,1.7162,-0.91721,-1.0214,-0.96578,-18.9,25.62,11.58
0.99429,-16.413,1.8115,-0.8714,-0.16646,-0.76694,-18.9,25.68,11.88
0.54481,-14.642,1.9613,-0.72693,0.59498,-0.6185,-18.96,25.56,12.48
0.47671,-13.797,1.8115,-0.30085,1.2007,-0.47189,-18.96,25.56,12.72
0.27241,-9.9292,1.7434,-0.038179,1.2168,-0.40439,-19.38,25.56,13.02
0.27241,-6.5105,1.0351,0.20281,0.93829,-0.34147,-19.74,25.62,13.14
0.095342,-4.7399,0.35413,0.41233,0.47067,-0.27245,-19.92,26.16,13.08
0.01362,-4.3449,0.12258,0.56963,-0.091324,-0.18998,-20.04,26.28,13.02
-0.58567,-4.2632,-0.28603,0.64294,-0.62827,-0.13256,-20.28,26.76,12.84
-1.185,-4.0861,-0.14982,0.50335,-0.99174,-0.063225,-20.58,27.18,12.9
-1.6344,-3.7728,-0.20431,0.3094,-0.83017,-0.029932,-20.7,27.3,12.72
-2.3291,-3.8546,-0.054481,0.1518,-0.4722,-0.011912,-21.06,27.6,12.48
-2.942,-6.674,1.2531,0.22083,0.013134,0.048869,-21.42,28.02,12.24
-3.0918,-8.4174,1.7843,0.26267,0.61942,0.16188,-21.42,28.38,12.0
-1.7162,-13.866,1.58,-0.53359,1.6799,0.37721,-21.36,28.86,12.0
0.51757,-13.389,0.77636,-0.8039,2.0876,0.37202,-21.36,29.1,11.94
1.8932,-10.569,-0.5993,-0.36957,1.8457,0.5287,-21.48,29.22,11.82
1.757,-10.243,-1.0624,0.13073,1.2642,0.82711,-21.42,29.28,11.88
0.70826,-9.6977,-1.6889,0.63988,0.49022,0.90316,-21.3,29.28,11.76
0.64016,-9.4661,-2.152,1.0342,0.07086,0.93951,-21.0,29.34,11.52
0.95342,-9.4525,-2.261,1.2251,-0.039401,1.0577,-20.76,29.4,11.4
1.9068,-9.5479,-2.2746,1.0913,-0.018631,1.3274,-20.22,29.76,11.22
2.152,-9.6023,-2.0839,0.84574,-0.10812,1.4383,-19.92,29.94,10.92
2.6832,-9.7522,-1.9341,0.66309,-0.27764,1.5275,-19.32,30.06,10.56
3.2961,-10.161,-2.0975,0.53939,-0.42669,1.6008,-18.48,30.36,9.9
3.7592,-10.637,-2.2337,0.43585,-0.52595,1.602,-17.28,30.78,9.24
4.0316,-10.91,-2.2882,0.3262,-0.54214,1.5516,-16.56,31.02,9.06
4.2904,-10.855,-2.5198,0.23121,-0.38362,1.4245,-15.36,31.62,8.46
5.2166,-9.8611,-3.2825,0.20525,-0.2416,1.2685,-14.04,32.22,7.86
5.7614,-9.3027,-3.5549,0.1799,-0.2306,1.0232,-13.26,32.58,7.56
6.6331,-8.1313,-3.4868,0.13439,-0.41875,0.7251,-12.0,33.12,7.2
6.6467,-7.9543,-2.9011,0.18295,-0.80023,0.34606,-10.74,33.42,7.02
5.8976,-8.717,-2.7513,0.41417,-1.6344,-0.27184,-9.42,33.84,6.9
5.203,-9.3299,-2.3972,0.29016,-2.1032,-0.68967,-8.82,34.08,7.02
4.3177,-10.065,-1.7843,0.073915,-2.3854,-1.0904,-7.98,34.56,7.08
3.5685,-10.815,-1.3212,-0.10507,-2.5006,-1.3295,-7.8,34.68,7.2
2.833,-12.122,-0.64016,-0.25656,-2.4957,-1.4154,-7.32,35.1,7.14
2.2882,-15.255,-0.49033,-0.5901,-2.3091,-1.4114,-7.26,35.28,7.44
2.0975,-16.59,-0.54481,-1.2859,-1.7788,-1.3531,-7.26,35.4,7.74
1.6344,-15.405,0.40861,-1.9951,-0.91172,-1.31,-7.8,35.64,8.46
1.7025,-14.642,0.8036,-1.8515,0.36591,-1.2266,-8.4,35.94,9.12
1.7706,-14.805,1.2803,-1.6228,1.0385,-1.1277,-9.12,35.88,9.9
1.9068,-13.988,1.9068,-1.317,1.2914,-1.1188,-10.26,36.0,10.62
1.9886,-13.688,2.2474,-0.95356,0.92241,-1.1298,-10.86,36.0,11.04
1.1305,-11.931,3.1735,-0.67898,0.038179,-1.1475,-12.18,36.06,11.7
-0.17706,-9.6568,3.0918,-0.45479,-0.96028,-1.1017,-13.44,36.0,12.48
-1.6072,-7.6546,2.6287,-0.12248,-1.7324,-0.89828,-14.46,36.06,13.08
-2.7104,-6.565,2.4517,0.048258,-1.7391,-0.72296,-14.88,35.88,13.38
-4.0861,-5.3528,2.4789,0.14508,-1.3821,-0.47922,-15.78,35.88,13.8
-4.6718,-4.1542,2.3155,0.14325,-0.76297,-0.24862,-16.5,35.76,14.04
-4.3858,-3.9908,2.1929,0.073609,0.24526,0.022602,-17.16,35.88,14.4
-3.8682,-5.1894,2.4925,0.090713,0.7981,0.22419,-17.46,35.88,14.58
-2.6696,-8.6353,2.7241,0.059559,1.2541,0.4893,-17.82,35.88,14.94
-0.29965,-11.332,2.1929,-0.11637,1.5766,0.75625,-18.0,35.88,15.0
0.62654,-11.25,1.7706,-0.083078,1.4881,0.95448,-18.0,35.76,14.94
1.4438,-10.896,0.61292,0.15577,1.1316,1.0675,-18.18,35.58,15.18
0.8036,-10.746,-0.12258,0.50274,0.59468,1.0311,-18.0,35.76,15.06
0.31327,-10.774,-1.1032,1.0046,0.16799,0.87079,-17.64,35.7,14.88
0.44947,-10.678,-1.5391,1.1997,0.24068,0.81153,-17.1,35.76,14.76
1.0488,-10.134,-1.7979,1.2141,0.46212,0.81031,-16.74,35.7,14.7
1.4574,-9.507,-1.8524,1.036,0.686,0.85796,-16.2,35.82,14.04
1.866,-8.6762,-1.9341,0.74312,0.80207,0.85888,-15.42,35.94,13.32
2.0839,-8.2948,-1.9341,0.52809,0.78466,0.81917,-15.0,35.88,12.96
2.4108,-8.0224,-2.2474,0.45082,0.69364,0.77397,-14.04,36.0,12.18
2.7377,-8.5808,-2.4789,0.36163,0.50763,0.75228,-13.26,36.24,11.34
2.9556,-8.8805,-2.6696,0.2529,0.4383,0.74098,-12.84,36.48,10.74
3.3778,-9.2074,-2.8194,0.15272,0.43249,0.77855,-11.88,36.6,10.14
3.8682,-9.6841,-2.8875,0.085827,0.46151,0.83322,-11.22,36.96,9.42
3.9227,-9.8339,-2.8603,0.043677,0.49511,0.90164,-10.74,37.14,9.06
4.2904,-10.12,-2.438,-0.0088575,0.5287,0.94165,-10.02,37.38,8.52
4.6037,-10.42,-2.1248,-0.046731,0.5226,0.88301,-9.18,37.5,7.98
4.9714,-10.978,-1.975,0.002138,0.35308,0.78099,-8.76,37.62,7.74
6.0611,-13.321,-2.6832,0.13531,-0.033598,0.66829,-7.92,37.92,7.56
7.0281,-14.492,-3.2553,0.18082,-0.56291,0.5284,-7.56,38.04,7.56
6.8647,-12.817,-2.5334,-0.015882,-1.0553,0.25687,-6.72,38.34,7.14
5.4481,-10.719,-1.3212,-0.45021,-1.5959,-0.3149,-5.88,38.58,7.02
4.0861,-9.6704,-0.98067,-0.50885,-1.7171,-0.58277,-5.52,38.7,7.02
3.2825,-9.2618,-0.70826,-0.53909,-1.8631,-1.1765,-5.34,38.58,7.08
2.6015,-9.6432,-0.69464,-0.54123,-1.7376,-1.9053,-5.1,38.58,7.08
2.7241,-10.515,-0.68102,-0.75686,-1.5922,-2.1194,-5.28,38.58,7.32
2.6151,-10.706,-0.72188,-1.0201,-1.42,-2.2089,-5.4,38.64,7.32
2.6423,-10.719,-0.81722,-1.2135,-1.1359,-2.1909,-5.7,38.76,7.68
2.3836,-10.093,-0.47671,-1.2617,-0.55741,-2.0892,-6.9,38.76,8.28
2.0431,-10.12,-0.027241,-1.1341,-0.19517,-1.9328,-7.62,38.64,8.76
1.7706,-10.202,0.19068,-1.058,0.11912,-1.7883,-8.46,38.58,9.06
1.5391,-11.005,0.57205,-0.97097,0.37721,-1.6866,-10.56,38.22,9.66
1.3212,-11.877,0.76274,-0.89583,0.52993,-1.5831,-11.64,37.98,10.08
1.3212,-11.877,0.76274,-0.89583,0.52993,-1.5831,-11.64,37.98,10.08
1.3212,-11.877,0.76274,-0.89583,0.52993,-1.5831,-11.64,37.98,10.08
-0.84446,-11.659,2.438,-0.78649,0.24771,-0.92057,-16.68,37.02,10.8
-1.866,-9.7385,1.9068,-0.57452,-0.17013,-0.5962,-19.26,36.42,10.86
-2.0158,-9.1393,1.6753,-0.24221,-0.45418,-0.27978,-20.34,36.06,10.92
-1.9886,-7.7364,1.1577,0.09499,-0.49144,0.1408,-22.38,35.28,10.98
-2.0294,-7.4367,1.3212,0.35094,-0.36682,0.56444,-23.04,34.98,10.74
-2.2201,-7.8862,1.5663,0.44563,-0.23793,0.90316,-23.7,34.62,10.74
-2.1656,-10.338,2.1929,0.29138,0.24343,1.2969,-24.72,34.26,10.2
-1.7025,-10.855,2.2337,0.13378,0.70647,1.434,-25.02,33.96,10.2
-0.23155,-10.542,1.5527,0.024435,1.0907,1.5666,-25.26,33.6,10.08
0.10896,-10.106,1.3076,0.051618,1.2596,1.6906,-25.2,33.54,9.9
0.8036,-9.1937,0.47671,0.22235,1.1609,1.715,-24.96,33.48,9.9
0.88532,-8.8668,-0.19068,0.48839,0.88301,1.6631,-24.72,33.24,9.9
0.8036,-9.1937,-0.78998,0.76175,0.55833,1.5699,-24.12,33.36,9.9
0.8717,-9.6432,-1.2395,1.069,0.30329,1.5024,-23.46,33.48,9.66
1.2258,-10.134,-1.7979,1.1695,0.32529,1.5272,-22.14,33.84,9.24
1.4438,-10.324,-1.8932,1.1154,0.49847,1.6634,-21.24,34.08,9.0
1.8115,-10.106,-1.9477,0.9447,0.56688,1.6964,-19.62,34.5,8.64
2.2337,-9.7794,-2.2474,0.65546,0.67104,1.6863,-18.66,34.62,8.46
2.5742,-9.4389,-2.656,0.60567,0.65424,1.6719,-17.76,34.92,8.1
3.3642,-9.0984,-3.0918,0.5287,0.4554,1.5586,-15.66,35.52,7.32
3.7047,-9.3163,-3.0918,0.50763,0.25595,1.4432,-14.64,35.7,6.96
3.9227,-9.6977,-2.9692,0.49694,0.018021,1.2987,-12.48,36.3,6.18
4.2223,-11.06,-2.9148,0.43219,-0.058948,1.2004,-11.46,36.66,5.76
4.3858,-11.319,-3.0237,0.28253,-0.02474,1.0849,-10.38,37.08,5.28
4.4675,-11.359,-3.0646,0.068417,0.10965,0.91905,-9.54,37.2,4.74
4.7263,-10.079,-2.6696,-0.088575,0.26084,0.67287,-7.74,37.56,3.96
4.8761,-9.4934,-2.5061,-0.13011,0.32437,0.34972,-6.84,37.8,3.6
5.0395,-9.3844,-2.5742,-0.0073304,0.052534,-0.18051,-5.04,38.04,2.88
5.4754,-10.992,-2.8875,0.11393,-0.35155,-0.49938,-4.32,38.22,2.58
5.6661,-11.904,-2.9829,0.048869,-0.76083,-0.80298,-3.78,38.4,2.28
5.6116,-11.918,-2.7241,-0.059559,-0.93493,-0.95326,-3.36,38.4,2.1
4.9987,-11.141,-2.2065,-0.33903,-1.3503,-1.4117,-3.12,38.4,1.92
3.8682,-10.883,-1.3076,-0.41447,-1.5198,-1.7269,-2.64,38.46,1.44
3.4187,-11.782,-0.85808,-0.50183,-1.6203,-2.0302,-2.76,38.4,1.26
3.0237,-14.955,-0.35413,-0.66065,-1.6374,-2.2565,-3.3,38.1,1.2
2.4244,-17.025,0.054481,-0.93585,-1.4832,-2.3863,-3.84,37.92,1.14
1.8796,-18.033,0.85808,-1.5495,-1.0693,-2.5085,-4.44,37.56,1.32
1.1986,-18.224,1.4438,-1.9334,-0.1631,-2.5751,-5.4,37.44,1.44
-0.35413,-16.957,1.866,-1.9871,0.60231,-2.3815,-7.56,36.72,1.74
-0.70826,-15.418,1.9886,-1.6982,1.2141,-2.1157,-8.94,36.42,1.86
-0.70826,-13.879,2.5606,-1.0107,1.2914,-1.5488,-11.64,35.76,1.92
-0.14982,-10.12,2.547,-0.51893,0.92302,-1.0843,-12.96,35.52,1.98
0.027241,-8.3765,2.1656,-0.074831,0.35216,-0.64171,-14.28,35.1,1.86
-0.027241,-7.4776,1.9341,0.26481,-0.35797,-0.29963,-15.54,34.86,1.74
-0.91256,-6.0883,1.6208,0.4835,-0.9783,-0.1069,-16.92,34.62,1.68
-2.2882,-4.9987,1.3893,0.57971,-1.2611,0.034819,-19.08,34.32,1.2
-2.9965,-4.6854,1.2803,0.48197,-1.011,0.12675,-19.98,34.2,0.9
-3.2553,-4.0316,0.99429,0.26359,-0.79932,0.14905,-21.54,34.02,0.6
-3.2416,-3.9635,1.0488,0.10079,-0.09163,0.22266,-22.2,34.02,0.36
-3.228,-4.7399,1.2395,0.10568,0.14783,0.28466,-22.8,34.08,0.36
-2.6968,-7.4095,1.7706,0.10201,0.93371,0.56566,-23.64,34.2,-0.72
-1.4029,-9.9701,1.6344,-0.022297,1.4624,0.77824,-24.0,34.26,-0.9
0.01362,-11.863,1.2531,-0.62278,1.9575,1.0385,-24.24,34.44,-1.26
1.9205,-10.569,0.40861,-0.5339,1.7165,1.1762,-24.12,34.56,-1.5
2.1384,-9.6432,-0.17706,-0.15302,1.1805,1.3421,-24.06,34.62,-1.5
2.0294,-9.4389,-0.83084,0.067501,0.84666,1.3961,-23.7,34.62,-1.56
1.3757,-9.0439,-1.5527,0.7083,-0.028405,1.4557,-23.1,34.5,-1.5
1.1713,-9.3163,-1.6072,0.9783,-0.28772,1.4896,-22.68,34.62,-1.32
1.2258,-9.6704,-1.58,1.0104,-0.23396,1.6078,-21.42,34.62,-1.38
1.8932,-10.038,-1.6617,0.80879,-0.090103,1.6802,-20.64,34.86,-1.5
2.1793,-10.011,-1.6344,0.58979,0.0082467,1.7065,-19.68,34.92,-1.56
2.3836,-9.8339,-1.7298,0.48167,0.043677,1.7086,-18.72,35.04,-1.8
2.4517,-9.7658,-1.866,0.24771,0.135,1.6087,-17.4,35.16,-1.8
2.5061,-9.616,-1.9205,0.13011,0.25748,1.4157,-15.24,35.46,-2.1
2.547,-9.7658,-1.9341,0.045204,0.44135,1.0941,-14.04,35.46,-2.34
3.1191,-10.215,-1.9886,-0.000611,0.66523,0.97464,-11.76,35.58,-2.64
3.4187,-10.338,-2.0839,-0.030849,0.83811,0.76175,-10.62,35.76,-2.76
3.6775,-10.392,-1.9886,-0.04215,0.90469,0.51282,-9.66,36.06,-2.88
4.3449,-10.338,-2.0158,-0.028711,0.82039,0.40531,-7.5,36.48,-3.36
4.5628,-10.134,-1.8796,0.002138,0.68631,0.31643,-6.54,36.54,-3.54
4.6445,-10.801,-1.4846,0.076358,0.49816,0.22297,-5.88,36.72,-3.66
4.8625,-11.591,-1.8932,0.14905,0.27122,0.10171,-4.62,37.08,-3.9
5.38,-12.136,-2.3427,0.22022,-0.054978,-0.065363,-4.14,37.26,-4.14
5.8567,-12.217,-2.6423,0.23885,-0.55803,-0.25412,-3.48,37.38,-4.14
5.6116,-11.659,-2.2201,0.1686,-1.4865,-0.55925,-2.7,37.62,-4.5
4.9033,-11.319,-1.5119,0.047037,-1.9621,-0.81428,-2.4,37.68,-4.56
4.0044,-11.223,-1.1169,-0.1124,-2.2495,-1.0986,-2.28,37.86,-4.68
3.1872,-11.891,-1.0079,-0.39584,-2.3192,-1.4591,-2.34,38.1,-4.98
2.7922,-12.395,-0.91256,-0.50793,-2.2492,-1.5464,-2.58,38.28,-5.16
2.5198,-12.395,-0.8036,-0.77091,-1.989,-1.6982,-3.0,38.34,-5.28
2.0839,-11.632,-0.49033,-1.1668,-1.3076,-1.8998,-3.6,38.46,-5.22
1.757,-10.27,-0.19068,-1.2932,-0.77519,-2.0119,-5.28,39.06,-5.04
1.757,-9.8339,-0.19068,-1.3069,-0.30329,-2.0824,-6.06,39.06,-4.86
2.0158,-9.3299,0.10896,-1.2343,0.1405,-2.1496,-8.34,39.3,-4.56
2.1793,-8.9622,0.16344,-1.1826,0.21716,-2.1622,-9.6,39.6,-4.38
2.3291,-8.7851,0.20431,-1.0663,0.28497,-2.1316,-11.28,39.84,-4.02
2.4108,-8.8941,0.44947,-0.82192,0.12156,-2.0308,-14.52,40.14,-3.36
2.3427,-9.4798,0.54481,-0.67073,-0.065363,-1.9013,-16.26,40.32,-3.12
2.1793,-10.188,0.5993,-0.55558,-0.27306,-1.7462,-18.0,40.5,-2.76
1.9341,-10.624,0.8036,-0.43646,-0.4777,-1.4178,-21.36,40.8,-2.22
1.6617,-10.447,0.7355,-0.3769,-0.49327,-1.1573,-22.98,40.62,-1.8
1.5391,-10.351,0.78998,-0.31704,-0.4383,-0.89064,-24.48,40.5,-1.26
0.99429,-9.6432,0.55843,-0.2416,-0.33811,-0.62675,-27.3,40.08,-0.54
0.8036,-9.2482,0.36775,-0.16432,-0.24404,-0.3937,-28.44,39.66,-0.3
0.53119,-9.0848,0.35413,-0.069028,-0.18265,-0.17715,-29.58,39.48,0.18
-0.21793,-10.011,0.74912,-0.020769,-0.060476,0.061392,-31.56,38.88,0.96
-0.58567,-10.297,0.96704,-0.087048,0.34789,0.49694,-32.22,38.58,1.26
-0.38137,-10.61,0.99429,-0.10904,0.70219,0.80634,-32.88,38.1,1.38
0.28603,-10.733,0.62654,-0.081245,0.83841,0.94959,-33.3,37.8,1.68
1.6072,-9.8066,-0.32689,0.12065,0.87232,1.3543,-34.02,37.32,2.1
1.8932,-9.5751,-0.7355,0.35827,0.55589,1.532,-34.32,37.08,2.22
2.0567,-9.3163,-1.6072,0.59865,0.092241,1.573,-34.62,36.84,2.46
2.0839,-9.4253,-1.9477,0.88087,-0.56139,1.5482,-34.44,36.9,2.64
1.8796,-9.5479,-2.0703,0.9331,-0.80329,1.5488,-34.14,37.02,2.52
1.5391,-9.6023,-1.9886,0.9053,-0.84208,1.554,-33.84,37.02,2.64
1.0351,-9.0984,-1.8387,0.58857,-0.62064,1.536,-33.0,37.56,2.76
0.68102,-8.6353,-1.58,0.3485,-0.21991,1.4969,-32.58,37.92,2.58
0.51757,-8.1177,-1.866,0.19426,0.30574,1.4566,-31.86,38.16,2.64
0.8036,-7.6274,-2.1248,0.057116,0.84513,1.3906,-30.36,38.64,2.82
1.1577,-7.3958,-2.1793,-0.044899,1.336,1.3445,-29.34,38.94,2.94
1.5391,-7.4095,-2.0567,-0.089186,1.6692,1.3289,-28.38,39.3,3.06
2.5061,-7.9679,-2.1248,-0.13867,1.8549,1.3494,-26.28,39.72,3.24
2.833,-8.145,-2.0294,-0.18601,1.7981,1.3781,-25.2,40.02,3.18
3.1599,-8.431,-2.0839,-0.18784,1.5629,1.3986,-22.56,40.56,3.24
3.5549,-8.9758,-1.9477,-0.16524,1.3665,1.3693,-21.3,40.86,3.36
3.732,-9.2755,-2.0567,-0.12217,1.1652,1.3179,-20.04,41.22,3.54
3.9227,-9.6841,-2.1384,-0.092852,1.0617,1.285,-18.72,41.64,3.36
4.0997,-10.188,-2.2201,0.012523,0.80084,1.1979,-17.52,41.94,3.3
4.0861,-10.924,-2.0294,0.043677,0.7138,1.1072,-15.18,42.24,3.0
4.0589,-11.046,-2.0022,0.073915,0.69669,1.0107,-14.04,42.54,2.94
4.3313,-11.087,-1.9068,0.11423,0.67867,0.79932,-12.18,43.08,2.4
4.5492,-10.855,-2.0294,0.13683,0.64721,0.71196,-11.22,43.38,2.22
4.7126,-10.569,-2.1793,0.22602,0.44318,0.43555,-10.44,43.68,1.86
5.094,-11.863,-2.2065,0.41294,0.15333,0.25656,-8.94,44.4,1.32
5.598,-13.525,-2.833,0.61117,-0.23121,0.096517,-8.16,44.52,1.2
6.0883,-14.152,-3.1599,0.55008,-0.64843,-0.12828,-7.74,44.82,0.96
5.6661,-12.081,-2.5061,0.35522,-1.0342,-0.478,-6.96,45.06,0.66
5.1485,-11.359,-1.9613,0.024435,-1.4584,-0.79962,-6.66,45.18,0.54
4.3177,-10.869,-1.3757,-0.069944,-1.6368,-1.1781,-6.72,45.12,0.6
3.4732,-11.223,-0.9398,-0.27122,-1.6616,-1.5461,-6.72,45.24,0.42
3.4868,-11.414,-0.81722,-0.48778,-1.6631,-1.7908,-6.96,45.24,0.42
3.3097,-11.632,-0.62654,-0.697,-1.6542,-1.908,-7.44,45.12,0.42
2.9829,-11.509,-0.42223,-1.051,-1.5134,-2.0055,-8.7,44.94,0.96
2.833,-10.474,-0.10896,-1.1316,-1.3286,-2.0278,-9.54,44.64,1.14
2.7649,-9.8748,-0.081722,-1.0812,-1.2361,-2.0125,-10.5,44.22,1.74
2.6423,-8.8668,0.19068,-0.82314,-1.0146,-1.9022,-12.6,43.26,3.0
2.5742,-8.6081,0.25879,-0.65729,-0.95142,-1.8057,-13.86,42.78,3.78
2.5061,-8.2403,0.44947,-0.47953,-0.95417,-1.6823,-15.18,42.18,4.44
2.9692,-7.7091,0.54481,-0.28191,-1.1927,-1.4444,-18.06,41.1,5.88
3.1735,-7.5048,0.58567,-0.19059,-1.4697,-1.244,-19.56,40.32,6.66
3.2416,-7.355,0.61292,-0.13775,-1.8192,-1.047,-20.88,39.9,7.5
2.9556,-7.0962,0.83084,-0.14142,-2.1655,-0.90439,-23.58,38.64,9.18
2.6423,-6.96,0.92618,-0.15424,-2.3637,-0.81642,-25.02,38.04,10.02
2.2201,-6.8919,0.96704,-0.18906,-2.3469,-0.73793,-26.16,37.38,10.86
1.9068,-7.3141,0.99429,-0.23274,-2.0354,-0.6298,-27.84,36.12,12.48
1.8932,-7.7227,0.83084,-0.26298,-1.7303,-0.52962,-28.62,35.64,13.38
1.9886,-7.9407,0.68102,-0.25962,-1.4374,-0.40684,-29.22,35.1,14.22
2.1248,-8.2676,0.62654,-0.25687,-1.1939,-0.29658,-30.12,34.08,15.66
2.1112,-8.5672,0.68102,-0.28191,-0.92577,-0.19334,-30.54,33.72,16.38
1.9613,-9.1529,0.68102,-0.31826,-0.62094,-0.11942,-30.78,33.3,17.1
1.7979,-9.8066,0.65378,-0.35491,-0.27214,-0.026878,-31.08,32.58,18.48
2.0567,-9.9973,0.42223,-0.30268,0.19426,0.11942,-31.2,32.34,19.14
2.3836,-10.093,0.10896,-0.15699,0.28772,0.354,-31.14,31.98,19.8
2.656,-12.19,0.081722,-0.060476,0.27642,0.53206,-31.08,31.74,20.46
3.9227,-15.445,-0.054481,0.19884,0.17165,1.1561,-30.78,31.14,21.48
4.4947,-13.321,-0.28603,0.34972,0.14386,1.4316,-30.6,31.02,22.02
5.2711,-8.0769,-1.8796,0.58215,-0.000611,1.5256,-30.48,30.84,22.44
5.8295,-5.0123,-2.9148,1.2394,-0.9615,1.036,-29.94,30.72,23.16
6.0611,-4.699,-3.4459,1.7107,-2.3631,0.45845,-29.64,30.9,23.34
5.6797,-5.3528,-3.6775,1.8922,-3.1899,0.2135,-29.22,31.14,23.52
4.7126,-7.9134,-2.4789,2.2092,-5.0445,-0.34941,-28.08,31.8,23.94
3.6775,-8.8941,-1.5391,2.0186,-5.4743,-0.60903,-27.3,32.28,24.24
1.8932,-9.9701,-0.65378,1.5638,-5.2333,-0.65912,-26.4,32.7,24.48
0.095342,-10.474,-1.1577,0.67531,-3.7605,-0.40256,-24.0,33.42,24.9
-0.19068,-9.902,-1.9477,0.14905,-2.5186,-0.29413,-22.74,33.84,25.02
-0.19068,-9.4798,-2.152,-0.11881,-1.4135,-0.23671,-21.54,34.2,25.32
0.78998,-8.7715,-2.3563,-0.25656,-0.63958,-0.20861,-20.34,34.74,25.62
2.1384,-8.2403,-2.0567,-0.3375,-0.28894,-0.21411,-17.94,35.46,26.28
2.6151,-7.9679,-1.9613,-0.29719,-0.27,-0.1967,-16.62,35.88,26.52
3.5004,-8.1041,-1.866,-0.16524,-0.47525,-0.17318,-14.52,36.42,27.24
4.1406,-8.5808,-1.7298,0.0073304,-1.0889,-0.1011,-13.62,36.6,27.42
4.3585,-8.6762,-1.4165,0.03543,-1.3161,-0.069639,-12.78,36.78,27.78
4.3449,-8.5808,-1.1305,0.070555,-1.9578,-0.0048869,-11.76,36.84,28.2
3.7728,-8.322,-0.51757,0.03543,-2.2394,-0.015882,-10.38,36.66,28.68
3.514,-8.1586,-0.57205,-0.0045815,-2.3427,-0.074831,-9.78,36.66,28.98
3.1872,-8.0224,-0.62654,-0.078191,-2.24,-0.20159,-8.76,36.72,29.76
3.1599,-7.9951,-0.61292,-0.12309,-2.0333,-0.31185,-8.34,36.6,30.06
2.9692,-7.9951,-0.35413,-0.18051,-1.733,-0.43433,-7.86,36.66,30.24
2.833,-8.1313,-0.10896,-0.21991,-1.3653,-0.57727,-7.32,36.6,30.42
2.8603,-9.2891,0.28603,-0.22663,-1.0192,-0.68478,-6.24,36.48,30.78
3.3234,-10.243,0.61292,-0.29474,-0.76114,-0.75442,-5.94,36.42,30.96
3.8001,-11.319,1.4029,-0.31246,-0.61758,-0.84819,-5.04,36.42,31.38
4.413,-13.579,1.8251,-0.25565,-0.64507,-0.9163,-4.68,36.36,31.68
4.7807,-15.296,2.0431,-0.12767,-0.73823,-0.98288,-4.44,36.3,31.92
4.9578,-16.44,1.8251,0.15119,-0.91263,-1.0681,-4.2,36.24,32.04
5.0804,-14.247,1.471,0.47922,-1.201,-1.1671,-3.72,36.06,32.4
4.7807,-13.525,1.975,0.7703,-1.6322,-1.2489,-3.72,35.94,32.4
4.6037,-13.416,2.152,1.0247,-2.1399,-1.3005,-3.72,35.82,32.4
4.7126,-12.095,1.8796,1.2419,-2.9404,-1.3421,-3.54,35.94,32.28
4.6718,-11.182,1.7025,1.3326,-3.4639,-1.3259,-3.54,35.88,32.22
4.2359,-10.256,1.58,1.354,-3.6786,-1.3073,-3.66,35.94,32.16
2.9556,-8.8941,1.4438,1.3427,-3.8588,-1.317,-3.84,36.3,31.56
2.4653,-8.0769,1.3348,1.2599,-3.6545,-1.3546,-3.72,36.48,31.2
2.152,-7.4912,1.2803,1.113,-3.1988,-1.3552,-3.6,37.08,30.12
2.2201,-7.3822,1.185,1.0033,-2.9807,-1.3008,-3.36,37.38,29.52
2.2746,-7.641,0.96704,0.91508,-2.8698,-1.2278,-3.18,37.74,28.86
2.3018,-7.9543,1.0488,0.8772,-2.8359,-1.1949,-3.06,38.16,28.08
2.1248,-8.6489,1.471,0.70647,-2.7691,-1.0424,-3.06,38.64,27.24
1.362,-9.507,2.2882,0.55528,-2.6594,-0.85155,-2.7,39.54,25.38
0.65378,-10.052,2.6287,0.43768,-2.3931,-0.62553,-2.46,40.02,24.36
-0.081722,-10.896,2.9284,0.36072,-1.9563,-0.34025,-2.4,40.5,23.52
-0.32689,-12.054,2.8875,0.36896,-1.1371,0.20739,-2.1,41.1,21.66
0.12258,-12.503,2.5334,0.45235,-0.62186,0.59773,-1.98,41.52,20.7
0.35413,-12.49,2.3427,0.54856,-0.25748,0.96211,-1.86,41.88,19.92
0.61292,-12.503,2.1384,0.58002,-0.17226,1.2788,-1.62,42.24,19.08
0.28603,-13.062,1.5663,0.55161,-0.29902,1.4328,-1.2,42.36,17.34
0.23155,-14.124,1.8524,0.36224,-0.50366,1.4383,-0.66,42.84,16.02
-0.81722,-12.544,1.6481,0.027794,-0.40103,1.3286,-0.36,42.78,15.36
-1.2258,-11.346,1.2531,-0.069028,-0.29902,1.2474,-0.12,42.84,15.0
-1.076,-10.597,0.40861,-0.028711,-0.044288,0.92913,0.3,42.72,14.64
-0.36775,-10.351,-1.1441,0.20556,-0.10385,0.75381,1.26,42.36,14.22
0.12258,-10.978,-1.7025,0.44227,-0.31857,0.69639,1.74,42.0,14.16
0.88532,-12.19,-1.9886,0.55528,-0.56444,0.7648,2.28,41.7,13.98
1.7843,-13.688,-1.5391,0.43982,-0.50305,0.92852,3.78,41.16,13.74
2.4108,-14.356,-1.3484,0.33995,-0.39981,1.0009,4.5,40.74,13.74
2.8467,-14.315,-1.185,-0.098655,0.072998,1.1041,5.28,40.44,13.68
4.3994,-13.321,-0.92618,-0.34606,0.343,1.0098,7.02,39.72,13.56
4.9578,-12.817,-1.0896,-0.46517,0.47861,0.78496,7.8,39.3,13.56
5.7205,-11.863,-1.5527,-0.3879,0.44929,0.36805,9.24,38.4,13.74
6.4833,-10.174,-1.8387,-0.19151,0.36499,0.18234,10.14,37.98,13.74
6.8102,-9.0712,-1.8932,0.018631,0.1628,0.029932,10.98,37.44,13.62
7.0962,-6.2381,-1.8387,0.19731,-0.24893,-0.12462,12.42,36.78,13.44
6.7966,-5.2983,-1.7706,0.25626,-0.83902,-0.32895,13.08,36.48,13.32
6.3335,-4.5764,-1.6617,0.28161,-1.4759,-0.55405,13.56,36.3,13.08
5.3664,-3.4459,-1.185,0.24832,-2.0064,-0.78985,14.4,35.82,12.66
4.6718,-2.833,-1.0351,0.17379,-2.3213,-1.1875,14.64,35.52,12.42
3.7047,-2.5879,-0.65378,0.20403,-2.2859,-1.4755,14.94,35.22,12.24
2.2201,-5.1621,0.6674,0.38301,-2.1188,-1.6698,15.0,34.44,11.64
1.9205,-8.54,1.1169,0.54672,-1.9777,-1.6955,14.94,34.26,11.34
2.0431,-13.389,0.31327,-0.022602,-1.8329,-1.482,14.82,34.08,10.98
2.6696,-16.317,1.3076,-0.80573,-1.4719,-1.401,14.28,33.72,10.02
2.6151,-16.753,2.5061,-0.82925,-0.94379,-1.1387,13.86,33.54,9.6
2.3972,-17.516,3.4459,-0.83536,-0.74617,-0.9444,13.5,33.48,9.06
0.27241,-17.788,5.3664,-0.75381,-0.48839,-0.66462,12.96,33.42,8.52
-0.92618,-16.971,5.5162,-0.59254,-0.4105,-0.62278,12.36,33.3,8.04
-1.2531,-15.568,5.0123,-0.24465,-0.29963,-0.62858,11.94,33.18,7.5
-1.362,-11.673,3.7728,0.14875,-0.29932,-0.49755,10.92,32.94,6.72
-2.2474,-9.5206,3.3506,0.58429,-0.61209,-0.19456,10.38,32.94,6.18
-3.4596,-7.4776,3.0918,0.6408,-0.72662,-0.10965,9.84,33.06,5.52
-5.4618,-4.7263,2.4653,0.55741,-0.86865,0.19945,8.94,33.06,4.38
-5.7478,-3.9227,1.8524,0.48594,-0.57879,0.32742,8.4,33.12,4.08
-4.8352,-2.8467,0.70826,0.40225,-0.04215,0.53023,7.68,33.18,3.24
-4.0044,-2.6151,0.47671,0.23885,0.34331,0.82284,7.62,33.0,2.94
-3.3915,-3.4732,1.471,0.29322,0.4835,1.0183,7.5,32.88,2.52
-3.2144,-7.246,2.0975,0.52901,0.59926,1.1732,7.44,32.76,2.16
-1.9613,-11.155,1.6753,0.45235,1.0333,1.3925,7.8,32.58,1.92
-0.78998,-13.729,0.54481,-0.27489,1.3354,1.3311,8.16,32.46,1.62
1.5391,-14.029,-0.47671,-0.52993,1.1713,1.2456,8.94,32.1,1.2
1.6889,-12.177,-1.3212,-0.13958,0.77977,1.23,9.6,31.92,1.08
1.4438,-12.217,-1.6753,0.27672,0.46212,1.2746,10.2,31.68,1.02
1.2531,-13.28,-1.7843,0.79015,0.43127,1.1637,11.58,31.08,1.08
1.8932,-13.607,-1.7298,0.87751,0.59468,1.1167,12.3,30.72,1.2
2.9011,-13.62,-1.8524,0.85155,1.1035,1.0345,13.2,30.6,1.14
5.3119,-13.362,-3.1599,0.72815,1.2092,1.0198,15.0,30.06,1.32
6.4016,-12.326,-4.2223,0.50488,1.0785,0.98258,15.9,30.06,1.26
7.1098,-10.774,-4.2632,0.044593,0.85796,0.78679,16.8,29.94,1.38
7.7636,-7.6002,-4.4675,-0.10996,0.82528,0.68722,18.48,29.46,1.44
8.4174,-5.3392,-4.9169,-0.40561,0.66676,0.46609,19.14,29.28,1.56
9.0303,-4.3449,-4.9033,-0.60445,-0.016799,0.021075,19.92,29.16,1.68
9.3708,-2.4517,-2.9011,-0.53787,-0.697,-0.28711,21.12,28.98,1.68
8.2539,-3.2008,-1.6753,-0.14997,-1.376,-0.63744,21.66,28.8,1.68
6.3335,-7.4503,-0.35413,0.29566,-1.93,-1.0476,22.08,28.68,1.68
5.0259,-11.577,0.28603,0.41264,-2.5238,-1.595,22.68,28.56,1.44
4.3313,-13.661,0.50395,0.34453,-2.6307,-1.7101,22.8,28.74,1.26
2.9692,-16.835,0.20431,-0.85827,-2.3167,-1.8329,22.68,28.74,0.84
0.68102,-19.477,1.866,-2.434,-1.3512,-1.9453,22.14,28.8,0.36
-0.43585,-17.802,1.9477,-1.9929,-0.49847,-2.2764,21.66,28.92,0.3
-0.027241,-16.739,3.1872,-0.94379,0.076969,-2.222,21.24,29.04,0.12
1.4165,-16.957,4.4947,0.095295,-0.099266,-1.4322,19.8,29.82,-0.48
0.83084,-15.459,5.5026,0.22297,-0.65393,-0.81367,19.14,30.18,-0.72
0.12258,-14.152,5.4073,0.19487,-0.96089,-0.56597,18.3,30.6,-1.2
-2.8194,-8.1586,4.8216,-0.062308,-1.8338,-0.15821,16.5,31.5,-1.86
-4.413,-5.4209,4.699,-0.21166,-2.2633,-0.052229,15.54,32.04,-2.4
-6.6059,-2.8603,4.0044,0.002138,-2.3738,-0.033903,13.74,33.06,-3.18
-7.3141,-3.1463,3.3915,0.55833,-1.4279,0.11026,12.9,33.6,-3.54
-7.0417,-3.3778,2.833,0.46976,-0.28497,0.46181,12.12,33.96,-3.9
-6.3198,-3.1872,2.3427,0.33414,0.20495,0.60506,11.46,34.38,-4.08
-4.5356,-2.1929,1.5119,0.17318,0.87354,0.82711,10.38,35.1,-4.68
-3.6911,-2.9692,1.8115,0.37141,0.9166,0.93493,10.08,35.28,-5.16
-3.2689,-5.2575,3.1735,0.70005,0.92577,1.0693,9.66,35.46,-5.34
-1.7979,-11.972,2.6696,0.90255,1.19,1.2556,9.84,35.46,-5.7
0.14982,-16.576,1.2258,0.20769,1.529,1.2868,10.02,35.34,-5.82
0.91256,-16.576,1.0488,-0.08827,1.5947,1.2724,10.32,35.16,-5.88
1.8796,-14.506,-0.27241,0.54886,1.2456,1.3824,10.86,34.92,-5.88
2.0839,-14.002,-0.96704,0.98288,0.94531,1.5153,12.0,34.44,-5.76
2.0839,-13.838,-1.5391,1.2211,0.69455,1.4694,12.78,33.9,-5.94
2.6968,-13.348,-2.0294,1.2624,0.5791,1.3225,14.34,32.88,-5.7
3.3506,-13.348,-2.261,1.1567,0.40103,1.1836,15.3,32.4,-5.82
4.2223,-13.076,-2.7241,0.94623,0.16066,1.1383,16.26,31.98,-5.76
4.4947,-12.708,-2.9556,0.6127,-0.095906,1.0473,17.34,31.44,-5.82
4.2768,-10.351,-2.9829,0.24251,-0.24954,0.89644,19.32,30.36,-5.88
3.9635,-9.0984,-2.6968,0.040012,-0.28344,0.66676,20.46,29.88,-6.0
3.8409,-7.7091,-3.2961,-0.0012217,-0.24679,0.22969,22.2,29.1,-6.36
4.0997,-6.8102,-3.8001,-0.066584,-0.30024,-0.064446,22.92,28.68,-6.54
4.3721,-6.4288,-3.8682,-0.041539,-0.53481,-0.26725,23.52,28.44,-6.78
4.9033,-7.3141,-3.6366,0.10079,-0.94715,-0.39065,24.54,27.9,-7.2
4.8625,-8.7851,-3.3915,0.17654,-1.4126,-0.45815,24.84,27.72,-7.5
4.8897,-10.147,-2.9011,-0.039095,-1.8054,-0.48228,25.08,27.78,-7.68
4.0725,-12.217,-2.0294,-0.47464,-2.124,-0.48625,25.44,27.72,-8.34
3.3097,-13.157,-1.2122,-0.77061,-2.036,-0.55344,25.38,27.66,-8.46
2.8194,-13.675,-0.46309,-1.1387,-1.701,-0.71349,25.2,27.66,-8.76
2.152,-14.369,0.88532,-1.5504,-1.2336,-0.93004,24.9,27.84,-9.0
1.5119,-13.77,1.6617,-1.883,-0.67317,-1.2349,24.0,28.32,-9.3
0.89894,-12.503,1.8796,-1.8466,-0.28375,-1.5672,23.34,28.56,-9.18
0.32689,-11.836,2.4244,-1.4227,-0.13958,-1.7733,21.66,29.28,-9.18
-0.44947,-11.7,3.1735,-0.77885,-0.18845,-1.7743,20.82,29.76,-9.24
-0.72188,-11.25,4.2359,-0.5568,-0.37415,-1.5806,19.92,30.18,-9.06
-1.4438,-10.76,4.9442,-0.51618,-0.40836,-1.2944,19.02,30.78,-9.12
-2.6968,-8.2131,5.2711,-0.51313,-0.23579,-0.94379,17.04,31.62,-8.76
-3.1872,-7.069,5.203,-0.45265,-0.076969,-0.65515,15.9,32.16,-8.7
-3.7728,-6.0747,5.1757,-0.23732,-0.27061,-0.23763,15.06,32.58,-8.52
-4.413,-5.2166,5.0259,-0.16096,-0.3766,-0.10354,13.2,33.66,-8.04
-4.699,-5.7478,4.7263,-0.017715,-0.26542,0.28375,12.42,34.08,-7.74
-4.8897,-6.1292,4.8625,0.018631,-0.018326,0.39584,11.76,34.32,-7.56
-5.094,-6.96,5.5707,0.058643,1.0702,0.75075,11.1,34.68,-7.38
-3.5958,-9.3163,5.1894,0.092241,1.7889,0.86834,10.14,35.22,-7.02
-1.8251,-10.351,4.0452,0.039401,2.014,0.91996,9.9,35.34,-6.84
0.57205,-11.291,1.5391,0.077274,1.7981,0.94226,9.72,35.4,-6.42
0.12258,-11.427,0.76274,0.55589,0.84269,1.1328,9.78,35.28,-6.12
-0.29965,-12.0,0.76274,0.73243,0.62308,1.1884,9.96,35.04,-5.7
-0.77636,-13.443,-0.5993,1.0785,0.75289,1.149,10.26,34.8,-5.76
0.44947,-14.492,-1.4438,1.1298,1.16,1.1732,11.22,34.2,-5.16
1.1305,-14.519,-1.2531,0.87751,1.6524,1.3253,11.76,33.96,-4.86
2.3155,-14.002,-1.1169,0.74251,1.7339,1.3427,13.44,33.36,-4.5
3.2553,-13.593,-1.7025,0.52198,1.7043,1.3094,14.22,33.0,-4.32
4.304,-13.13,-2.6832,0.48594,1.1719,1.1655,15.12,32.88,-4.02
5.8295,-11.986,-4.0861,0.53023,0.51313,1.062,17.34,32.1,-3.78
5.9793,-10.678,-3.8818,0.53145,-0.1628,0.95051,18.24,31.8,-3.72
5.8431,-9.6432,-3.9363,0.45082,-0.70708,0.77122,19.26,31.38,-3.66
5.3528,-7.0553,-4.8625,0.197,-1.2514,0.33781,21.06,30.66,-3.84
5.0123,-5.6661,-4.6854,-0.0085521,-1.5153,-0.012828,21.96,30.42,-4.08
4.7126,-5.1076,-4.2223,-0.052534,-1.6072,-0.19273,22.8,30.0,-4.38
3.5822,-4.7535,-2.9011,0.083078,-1.6444,-0.69089,23.52,29.82,-4.5
2.1248,-7.1507,-2.0567,0.15363,-1.4606,-0.89858,24.66,29.46,-5.1
2.2201,-8.6898,-1.757,-0.0051924,-1.2443,-0.99663,24.9,29.28,-5.4
2.5061,-10.243,-1.9068,-0.27642,-1.1151,-0.96181,25.14,29.28,-5.58
3.3097,-13.402,-1.7434,-0.93615,-0.83261,-0.73029,25.2,29.28,-6.24
3.4187,-13.797,-0.85808,-1.679,-0.52504,-0.66462,24.96,29.28,-6.36
3.2416,-13.048,0.36775,-2.1835,-0.14355,-0.75533,24.6,29.34,-6.42
2.8739,-12.177,1.4438,-2.2859,0.22663,-0.92882,23.64,29.7,-6.3
2.6423,-12.313,1.7979,-2.0812,0.47617,-1.1475,23.04,30.06,-6.18
1.4165,-12.367,2.0294,-1.6521,0.5733,-1.4294,22.38,30.48,-6.0
0.98067,-12.258,2.2201,-0.94623,0.61087,-1.8488,20.76,31.38,-5.34
0.32689,-12.108,2.6423,-0.73884,0.6017,-1.9175,19.98,31.92,-4.92
-0.64016,-11.686,3.4187,-0.34147,0.49114,-1.8112,19.02,32.4,-4.44
-1.9886,-10.406,3.8546,-0.24068,0.39584,-1.5916,18.12,32.76,-4.14
-2.2201,-9.3163,3.4596,-0.19853,0.39706,-1.3234,16.02,33.96,-3.24
-2.1248,-8.5536,3.1191,-0.14539,0.3146,-0.74464,14.82,34.38,-2.76
-2.3155,-7.355,2.9556,-0.14019,0.25381,-0.50977,13.2,35.22,-1.68
-2.7922,-6.96,2.7104,-0.14844,0.031765,0.096517,12.42,35.64,-1.26
-3.1599,-6.9328,2.547,-0.13317,-0.055283,0.32895,11.7,36.06,-0.84
-3.6503,-7.9951,2.4108,-0.085827,0.075136,0.51557,10.26,36.96,-0.3
-3.4187,-9.5206,2.6968,-0.061392,0.44746,0.69852,9.72,37.14,-0.24
-1.7025,-12.435,2.6015,-0.12431,1.1606,1.0201,8.94,37.2,0.24
-0.6674,-12.898,2.0703,-0.087354,1.3812,1.1897,8.64,37.32,0.42
-0.21793,-12.544,1.58,-0.036652,1.3738,1.2553,8.22,37.32,0.66
-0.36775,-10.665,0.40861,0.25779,1.0458,1.2825,8.22,37.32,1.32
-0.76274,-10.283,0.40861,0.48503,0.8601,1.2291,8.4,37.26,1.74
-0.85808,-10.188,-0.25879,0.63194,0.86499,1.1927,8.76,37.08,2.1
-0.20431,-10.093,-0.6674,0.6747,1.084,1.2504,9.6,36.72,2.58
0.21793,-10.311,-0.74912,0.58857,1.529,1.5085,10.08,36.48,2.94
1.471,-10.597,-0.83084,0.42119,1.6536,1.6955,10.62,36.42,3.18
2.6151,-10.869,-0.96704,0.28588,1.5675,1.8305,12.24,35.76,3.84
3.5413,-10.924,-1.1577,0.2025,1.3213,1.9117,13.14,35.34,4.08
4.0316,-11.005,-1.4165,0.20281,0.9838,1.941,13.98,35.16,4.44
4.7944,-11.21,-2.1384,0.28802,0.57177,1.9068,15.96,34.74,4.74
5.0668,-11.06,-2.4789,0.45784,0.025045,1.7556,16.98,34.32,4.8
4.9306,-10.692,-2.3699,0.45907,-0.20128,1.6017,18.18,34.02,4.98
4.7807,-8.9758,-2.4108,0.40836,-0.31093,1.3528,20.4,33.24,4.92
5.1485,-7.8862,-3.6911,0.37965,-0.49205,1.0064,21.48,33.0,4.74
5.7205,-6.674,-4.5356,0.27122,-0.90133,0.59834,22.38,32.64,4.5
5.8976,-5.5707,-4.3721,0.20617,-1.3995,0.2306,23.46,32.04,4.2
3.3915,-6.0747,-1.9886,0.33964,-1.8048,-0.076053,25.32,31.68,3.84
2.7649,-7.5457,-1.8932,0.68875,-1.9875,-0.3094,26.1,31.2,3.66
2.5061,-10.27,-1.9613,0.78679,-1.9688,-0.50335,26.7,30.9,3.24
2.3427,-14.642,-1.3757,0.1011,-1.7575,-0.76664,27.72,30.36,2.34
1.8251,-15.214,-0.38137,-0.75717,-1.4844,-0.88881,28.14,30.06,1.8
1.185,-14.819,0.61292,-1.3451,-1.2025,-1.0241,28.32,29.94,1.56
1.2122,-16.181,0.49033,-1.8072,-0.73334,-1.2779,28.32,29.94,0.78
1.7025,-16.249,1.0488,-1.8308,-0.61392,-1.445,28.02,30.0,0.54
2.0567,-15.432,1.2258,-1.6267,-0.66493,-1.4603,27.72,30.12,0.36
1.8932,-14.737,2.0431,-1.1723,-0.75656,-1.1374,26.82,30.48,0.3
1.58,-13.947,2.6696,-0.96486,-0.80329,-1.0183,26.16,30.72,0.3
1.1986,-12.926,2.7649,-0.86254,-0.8262,-0.9279,25.56,31.08,0.36
0.49033,-10.665,2.7922,-0.88759,-0.79993,-0.90072,23.88,31.86,0.3
0.1362,-9.1256,2.7241,-0.9166,-0.75472,-0.93371,23.1,32.28,0.3
-0.054481,-8.0224,2.8058,-0.91111,-0.7364,-0.95478,22.26,32.82,0.48
-0.96704,-5.8023,2.4517,-0.74495,-0.76908,-1.0458,20.52,33.84,0.84
-1.3212,-5.5571,2.4108,-0.56261,-0.72754,-1.0644,19.68,34.38,1.2
-1.6753,-5.6661,2.4789,-0.46853,-0.55283,-1.0406,18.9,34.86,1.38
-2.2746,-4.9033,2.3018,-0.48289,-0.2416,-0.93096,17.4,35.82,1.56
-2.3836,-4.9578,2.1793,-0.39951,-0.050702,-0.84208,16.92,36.36,1.62
-2.9148,-6.3743,2.7649,-0.33872,0.27122,-0.72082,16.02,36.9,1.74
-3.2416,-8.3901,3.5549,-0.34789,0.77061,-0.53573,14.82,37.74,1.86
-2.9284,-9.9973,3.5822,-0.49327,1.3421,-0.36957,14.28,38.16,2.04
-1.471,-10.883,2.5334,-0.49205,1.6997,-0.20922,13.08,38.94,2.28
-0.19068,-10.379,0.95342,0.13561,1.3961,0.10782,12.0,39.42,2.94
0.14982,-9.9156,0.40861,0.59804,0.7703,0.35491,11.7,39.66,3.18
0.14982,-9.1529,-0.61292,0.97494,0.10782,0.51465,11.16,39.84,3.54
-0.31327,-8.5672,-1.5663,1.2294,-0.36194,0.63652,10.56,40.14,3.72
-0.50395,-8.54,-2.1112,1.3225,-0.56933,0.78618,10.56,40.26,4.32
-0.85808,-9.3163,-1.6208,1.1579,-0.56352,0.96608,10.8,39.78,4.5
-0.84446,-10.597,-3.2553,0.64477,-0.10965,1.1124,11.22,39.54,4.38
0.99429,-9.1801,-2.0431,-0.11851,1.1848,0.97983,11.94,39.3,3.96
2.4108,-8.4855,-1.4029,0.014661,0.55283,0.87018,12.78,39.0,3.78
2.152,-8.431,-1.4438,0.014966,0.14997,1.0858,13.38,38.82,3.66
1.6344,-8.6353,-1.6481,-0.11301,0.096211,1.2446,14.1,38.76,3.42
1.0488,-8.3901,-1.7025,-0.23121,0.37568,1.0846,15.54,38.34,3.24
0.89894,-8.0769,-1.6753,-0.22205,0.89675,0.74312,16.2,38.16,3.24
1.6208,-8.431,-1.5255,-0.21564,1.1307,0.64263,17.28,37.68,3.18
2.0158,-8.8668,-1.4846,-0.24374,1.3182,0.59865,17.88,37.74,3.18
2.2882,-9.0984,-1.2531,-0.29077,1.4728,0.55589,18.48,37.68,3.12
2.5061,-9.221,-0.89894,-0.32803,1.5513,0.4893,19.38,37.44,3.48
2.7104,-9.0848,-0.70826,-0.34544,1.5125,0.39401,19.92,37.2,3.9
2.6696,-9.0575,-0.6674,-0.29199,1.3332,0.27642,20.82,36.78,4.44
2.547,-9.112,-0.78998,-0.21655,1.2025,0.23091,20.94,36.66,4.62
2.6696,-9.2618,-0.84446,-0.11362,1.0504,0.18143,21.3,36.42,5.04
2.6287,-9.3844,-0.88532,-0.039095,0.96578,0.18265,21.6,36.12,5.28
2.6696,-9.902,-0.8036,0.13347,0.69242,0.23305,21.9,36.0,5.46
2.8467,-10.324,-0.84446,0.22144,0.51282,0.24038,21.96,35.82,6.18
2.8194,-10.256,-0.74912,0.29474,0.36041,0.21625,22.08,35.7,6.48
2.9011,-11.237,-1.0624,0.40439,0.21808,0.135,22.14,35.52,6.72
2.8603,-12.19,-1.2258,0.52962,0.069333,-0.034514,22.32,35.34,7.2
2.833,-12.653,-1.1169,0.54489,0.059254,-0.081856,22.26,35.28,7.5
2.8603,-13.144,-1.0215,0.49358,0.10018,-0.21166,22.26,35.22,7.68
3.0646,-13.852,-0.76274,0.41692,0.11576,-0.31918,22.38,35.28,7.92
3.1599,-13.974,-0.89894,0.35766,0.052229,-0.4664,22.38,35.34,8.1
3.6366,-12.994,-1.4438,0.34331,-0.17349,-0.60231,22.62,35.7,8.04
3.8001,-12.231,-1.7162,0.4105,-0.79535,-0.77641,22.5,35.94,7.68
3.8001,-11.836,-1.6617,0.42516,-1.0211,-0.81459,22.44,36.24,7.44
3.5004,-11.169,-1.362,0.34056,-1.5693,-0.92882,22.38,36.36,7.38
2.8739,-10.542,-0.95342,0.18937,-1.7678,-0.99754,22.14,36.72,6.96
2.4789,-10.161,-0.69464,0.025045,-1.8393,-1.04,21.84,36.96,6.42
2.4108,-9.7658,-0.5993,-0.15485,-1.8118,-1.051,21.18,37.68,5.58
2.4108,-9.398,-0.29965,-0.30604,-1.7724,-1.0324,20.64,37.98,5.22
2.4517,-8.9349,-0.054481,-0.4554,-1.6924,-0.92729,20.22,38.22,4.8
2.4517,-8.5808,-0.027241,-0.5058,-1.668,-0.83505,19.68,38.76,4.5
2.6696,-7.6546,0.068102,-0.50977,-1.6768,-0.75808,18.48,39.42,3.72
2.7377,-7.3686,0.25879,-0.51252,-1.711,-0.67348,17.82,39.6,3.18
2.6696,-7.1915,0.27241,-0.51129,-1.7404,-0.62186,17.22,39.9,3.06
2.4517,-7.2052,0.89894,-0.53206,-1.7462,-0.52993,15.84,40.56,2.22
2.4244,-7.246,1.0079,-0.55008,-1.6961,-0.48289,15.12,40.74,2.16
2.4108,-7.4095,1.1577,-0.56047,-1.6564,-0.44868,14.4,41.16,1.8
2.3563,-7.5048,1.1713,-0.55772,-1.5229,-0.31979,13.62,41.58,1.62
2.547,-7.7636,1.3484,-0.53084,-1.4481,-0.21716,12.36,42.12,1.56
2.6015,-7.7091,1.3484,-0.4948,-1.4108,-0.04948,11.7,42.42,1.5
2.7104,-8.0496,1.4165,-0.43555,-1.4114,0.0064141,10.74,42.84,1.44
2.8875,-8.2676,1.58,-0.37874,-1.4221,0.1069,10.26,43.14,1.38
2.8739,-8.54,1.5527,-0.30757,-1.4447,0.23366,9.78,43.32,1.32
2.8194,-9.3436,1.6481,-0.28588,-1.3595,0.27184,9.06,43.8,1.38
2.5879,-9.3844,1.7434,-0.27519,-1.1997,0.26695,8.76,44.16,1.38
2.5061,-9.4798,1.58,-0.25137,-1.0018,0.21258,8.52,44.34,1.38
2.6287,-9.5206,1.2803,-0.15211,-0.77885,0.088881,8.1,44.76,1.68
2.6968,-9.6977,0.84446,-0.029932,-0.7199,0.023824,7.92,44.94,1.86
2.6968,-10.229,0.69464,0.067501,-0.70127,-0.031765,7.86,45.18,1.86
2.5334,-10.964,0.53119,0.10965,-0.64935,-0.029322,7.86,45.48,1.98
2.3155,-11.319,0.49033,0.11301,-0.54,0.010996,7.8,45.66,1.86
2.0431,-12.994,0.50395,0.080023,-0.18234,0.2022,7.62,46.14,1.86
2.3155,-13.634,0.28603,0.025656,0.18815,0.37874,7.5,46.5,1.86
2.8194,-12.217,-0.1362,0.026573,0.57941,0.5287,7.38,46.62,1.98
3.1054,-10.665,-0.43585,0.16218,0.84941,0.55405,7.44,46.62,2.04
3.5685,-5.5435,-1.3757,0.4386,0.82192,0.35003,7.68,46.74,1.92
3.7047,-4.4811,-1.7843,0.90316,0.20464,-0.029322,7.74,46.74,1.86
4.2223,-5.8431,-3.2144,1.6677,-1.6811,-0.38759,7.86,46.68,1.62
4.522,-7.246,-3.5549,1.9991,-3.0891,-0.44746,7.92,46.56,1.32
4.522,-8.4991,-3.5413,2.0702,-3.6692,-0.43005,7.92,46.56,0.9
4.3994,-9.3027,-3.1327,1.9007,-4.6258,-0.1518,7.92,46.56,0.42
3.2144,-9.9292,-2.3972,1.507,-4.6603,0.13683,7.74,46.5,-0.9
1.9886,-9.9701,-1.9613,1.062,-4.3121,0.36072,7.56,46.56,-1.62
1.362,-9.8611,-1.8387,0.63011,-3.7199,0.42455,7.26,46.56,-2.4
0.95342,-9.7522,-1.7025,0.088881,-2.8014,0.2584,6.9,46.26,-4.02
1.1986,-9.6296,-1.7434,-0.15577,-2.324,0.086437,6.54,46.32,-4.92
1.3757,-9.7658,-1.7298,-0.31918,-1.9746,-0.015882,6.0,46.44,-5.7
1.6481,-9.9292,-1.8387,-0.50335,-1.7098,-0.071166,5.34,46.5,-6.6
2.2882,-9.9973,-1.6617,-0.66584,-1.4966,-0.11179,3.84,46.56,-8.04
2.6015,-9.6977,-1.4846,-0.7422,-1.3195,-0.12767,3.0,46.8,-8.7
2.9692,-9.507,-1.3484,-0.73365,-1.2117,-0.12492,2.28,46.92,-9.06
3.2144,-9.3436,-1.0215,-0.67776,-1.1716,-0.11118,0.6,47.4,-9.54
3.228,-9.221,-0.88532,-0.66096,-1.2129,-0.098044,-0.24,47.46,-9.54
3.3642,-8.9349,-0.62654,-0.67501,-1.2602,-0.1124,-1.14,47.58,-9.42
3.3642,-8.4855,-0.34051,-0.70188,-1.2779,-0.16341,-3.06,47.88,-8.7
3.2008,-8.322,-0.16344,-0.73395,-1.2391,-0.24984,-3.78,48.06,-8.28
3.1054,-8.2403,-0.027241,-0.80665,-1.1228,-0.40531,-4.62,48.06,-7.5
2.9556,-7.927,0.19068,-0.83536,-1.0595,-0.45509,-6.42,48.3,-6.18
2.8603,-8.0769,0.31327,-0.82345,-0.84483,-0.6017,-7.08,48.42,-5.34
2.8739,-8.5672,0.38137,-0.76633,-0.70036,-0.66218,-7.86,48.48,-4.5
3.0373,-9.7385,0.50395,-0.71593,-0.55558,-0.69211,-9.48,48.54,-2.7
3.2961,-10.052,0.57205,-0.6411,-0.39462,-0.70952,-10.26,48.42,-1.98
3.1599,-9.5887,0.91256,-0.51068,-0.098655,-0.77366,-11.88,47.94,-0.66
3.0237,-9.4389,1.0896,-0.38454,0.1066,-0.87781,-12.72,47.88,0.12
2.9011,-10.188,1.3484,-0.1741,0.24801,-0.96089,-13.5,47.64,0.96
3.0373,-12.994,1.4574,0.020159,0.33872,-0.94409,-15.12,47.04,2.22
3.4732,-14.07,1.4029,0.21961,0.37813,-0.87506,-15.9,46.62,2.82
4.1133,-13.348,1.3212,0.47067,0.33109,-0.73518,-16.8,46.2,3.36
4.4811,-11.182,1.1577,0.91416,-0.036652,-0.46823,-18.54,45.3,4.08
4.4402,-9.5342,0.99429,1.2456,-0.613,-0.43585,-19.32,44.88,4.32
4.5764,-9.4389,0.89894,1.5858,-1.4649,-0.46731,-20.16,44.34,4.38
5.2575,-10.924,0.64016,1.8518,-2.5537,-0.51771,-21.6,43.38,4.32
5.5026,-11.155,0.54481,1.9841,-3.7217,-0.53084,-22.32,42.9,4.2
5.489,-11.223,0.83084,1.9957,-4.6218,-0.42272,-22.92,42.42,4.2
4.3177,-11.332,1.3212,1.8983,-5.1511,-0.33628,-24.0,41.46,4.02
3.8954,-11.278,1.2667,1.5739,-5.3475,-0.38149,-24.42,40.86,3.9
3.2144,-10.801,1.1577,1.292,-5.1151,-0.48411,-24.84,40.38,3.9
2.1793,-9.616,0.95342,0.99357,-4.6496,-0.61025,-25.32,39.48,4.14
1.8932,-9.0848,0.8036,0.72235,-3.9856,-0.75045,-25.5,39.06,4.32
1.4438,-8.3765,0.54481,0.50641,-3.2333,-0.87629,-25.56,38.64,4.38
1.4438,-8.0905,0.35413,0.33445,-2.5131,-1.0043,-25.68,37.86,4.92
1.6072,-8.0496,0.36775,0.18845,-1.7168,-1.0153,-25.74,37.5,5.22
2.0022,-8.2403,0.38137,0.1686,-1.5611,-0.99693,-25.8,37.14,5.7
2.3155,-8.9622,0.54481,0.10201,-1.2813,-0.8491,-25.92,36.72,6.72
2.2474,-9.3027,0.85808,0.02474,-1.1784,-0.70799,-25.92,36.3,7.38
2.1929,-9.4798,1.2667,-0.048258,-1.0592,-0.54764,-26.04,35.88,7.86
2.1384,-10.161,1.7025,-0.085827,-0.96853,-0.39401,-26.16,35.52,8.64
2.1248,-11.101,1.7025,-0.042761,-0.94348,-0.20036,-26.28,35.34,9.0
1.757,-12.068,1.7025,0.015577,-0.97891,-0.15088,-26.4,34.92,9.24
1.3757,-12.749,1.6344,0.20342,-1.0562,-0.01069,-26.28,34.86,9.42
1.1441,-13.443,1.58,0.31857,-1.0351,0.12034,-26.28,34.62,9.54
0.38137,-14.86,1.8115,0.36224,-0.88514,0.28253,-26.16,34.32,9.54
-0.74912,-16.058,2.2337,0.28833,-0.49969,0.51404,-25.98,34.38,9.54
-1.3348,-15.704,1.9068,0.14142,0.080023,0.71624,-25.86,34.38,9.42
-0.76274,-13.675,1.3212,0.044593,0.9841,0.95906,-25.68,34.08,8.94
-0.040861,-12.749,0.89894,0.093157,1.2822,1.1362,-25.38,33.84,8.88
0.14982,-12.476,0.61292,0.19792,1.2648,1.2471,-25.08,33.84,8.58
0.62654,-11.863,0.29965,0.25809,0.97341,1.2569,-24.66,33.84,8.28
0.81722,-10.501,-0.068102,0.27581,0.51191,1.1976,-24.06,33.84,8.1
0.50395,-9.8748,-0.28603,0.30849,-0.058032,1.0733,-23.64,33.9,7.98
0.14982,-9.4934,-0.76274,0.31185,-0.13622,1.04,-22.8,33.9,7.62
0.14982,-9.3163,-0.98067,0.24099,-0.019242,1.0357,-22.32,33.96,7.44
0.34051,-8.8124,-1.2531,0.13928,0.19731,1.0938,-21.78,33.96,7.26
0.69464,-8.2131,-1.2395,-0.0061087,0.40989,1.1423,-21.18,34.02,7.08
1.2803,-6.3879,-1.3757,-0.095906,0.53665,1.1215,-19.86,34.02,6.9
1.4438,-5.6661,-1.5119,-0.1011,0.48594,0.99357,-19.08,34.08,6.72
1.9886,-5.0259,-1.8796,-0.050091,0.40317,0.93646,-17.34,34.26,6.42
2.2474,-4.9987,-1.9886,0.051924,0.081245,0.81215,-16.5,34.38,6.12
2.4653,-5.2438,-1.9613,0.082467,-0.026267,0.77061,-15.6,34.68,6.06
2.547,-6.3471,-1.8387,0.12737,-0.30268,0.67989,-13.92,35.1,5.7
2.6696,-7.1098,-1.8115,0.11912,-0.40745,0.6295,-13.14,35.04,5.4
2.7649,-8.7579,-1.8796,0.090103,-0.46853,0.59223,-12.3,35.16,5.16
3.5004,-9.6023,-1.9341,0.055589,-0.56597,0.52962,-10.56,35.4,4.8
3.7456,-10.093,-1.9205,0.037568,-0.5904,0.5061,-9.9,35.46,4.74
3.9635,-10.283,-1.8932,0.0033598,-0.63835,0.41539,-9.3,35.58,4.68
4.1542,-9.9701,-1.6753,-0.0082467,-0.73548,0.12339,-8.1,35.58,4.32
4.0452,-9.8475,-1.471,0.02474,-0.84299,-0.13897,-7.62,35.52,4.08
3.7592,-9.8475,-1.2122,0.062308,-0.91263,-0.44471,-7.14,35.58,3.9
3.4459,-11.536,-1.0215,0.18143,-0.92363,-0.90683,-6.48,35.64,3.66
3.9635,-13.648,-1.1986,0.31276,-1.0046,-1.0989,-6.42,35.64,3.6
4.3313,-15.282,-1.3757,0.26084,-1.0767,-1.1539,-6.24,35.58,3.54
4.9987,-16.113,-1.3757,0.013439,-1.4615,-1.3354,-6.18,35.4,3.36
4.6582,-13.784,-0.49033,-0.16768,-1.7504,-1.3631,-6.12,35.22,3.3
3.8001,-13.293,0.31327,-0.27611,-1.9514,-1.4389,-6.36,34.86,3.18
3.0918,-13.784,0.49033,-0.44349,-2.0204,-1.6399,-7.02,34.56,3.06
3.1872,-13.866,0.51757,-0.63835,-2.0272,-1.8729,-7.44,34.32,2.88
3.2961,-13.757,0.57205,-0.71502,-2.0223,-1.883,-7.86,34.2,2.88
3.228,-13.348,0.5993,-0.77977,-1.9313,-1.8671,-8.34,34.08,3.0
2.9011,-11.931,0.7355,-0.80726,-1.7449,-1.8772,-9.18,33.96,3.12
2.4789,-9.902,0.89894,-0.78679,-1.4936,-1.941,-11.1,33.6,3.72
2.2882,-8.717,0.68102,-0.75136,-1.2718,-2.0663,-12.84,33.12,4.32
2.0431,-7.1507,0.54481,-0.68417,-1.1292,-2.215,-13.92,32.82,4.74
2.1656,-6.6331,0.46309,-0.61453,-1.0773,-2.3161,-15.0,32.4,4.98
2.1929,-6.2926,0.55843,-0.54703,-1.1313,-2.3582,-16.02,32.1,5.46
2.0022,-6.0747,0.50395,-0.5174,-1.2153,-2.2868,-18.18,31.5,6.06
1.9205,-6.1155,0.49033,-0.48991,-1.3073,-2.1741,-19.32,31.38,6.42
1.7706,-7.246,0.61292,-0.45051,-1.3894,-2.0156,-20.46,31.08,6.9
1.3212,-7.927,0.96704,-0.45143,-1.3549,-1.6661,-22.44,30.3,7.8
1.0896,-8.7851,1.2258,-0.49144,-1.1784,-1.3647,-23.28,29.7,8.28
0.96704,-9.3436,1.4438,-0.50549,-0.88881,-1.0192,-24.12,29.16,8.76
0.9398,-10.283,1.7162,-0.48717,-0.56658,-0.64232,-24.84,28.56,9.18
1.2258,-11.046,1.8387,-0.3882,-0.29383,-0.28191,-25.98,27.36,10.32
1.2531,-10.937,1.8932,-0.085827,0.013744,0.17715,-26.46,26.76,10.92
0.77636,-11.278,1.757,0.032376,0.08491,0.30452,-27.24,25.5,11.7
0.57205,-11.891,1.6617,0.43066,0.19487,0.68325,-27.72,25.02,12.12
0.39499,-12.994,1.6344,0.65546,0.23824,1.0116,-28.02,24.84,12.42
0.35413,-14.574,1.6072,0.84391,0.32193,1.4368,-28.26,24.06,12.96
0.8717,-14.247,1.1032,0.9951,0.416,1.813,-28.26,23.82,13.2
1.6617,-12.898,-0.027241,1.248,0.38607,2.2941,-28.26,23.76,13.38
2.0975,-12.081,-1.362,1.5061,0.043982,2.4425,-28.26,23.94,13.2
2.2746,-12.354,-1.9886,1.7572,-0.44532,2.4456,-28.08,24.3,12.84
2.2746,-12.49,-2.3699,1.8747,-0.72662,2.4034,-27.9,24.78,12.48
1.9341,-12.585,-2.656,2.0003,-1.4047,2.2813,-27.3,25.8,11.64
1.5936,-12.272,-2.3836,1.719,-1.525,2.1817,-26.82,26.52,11.22
1.0351,-11.373,-2.3427,1.2391,-1.2724,2.0217,-26.46,27.24,10.62
0.054481,-9.2346,-2.6015,0.82986,-0.70188,1.814,-25.2,29.04,9.9
-0.17706,-8.2131,-2.6968,0.39187,0.42119,1.478,-24.42,29.82,9.54
-0.20431,-7.3005,-2.8058,0.27122,0.80237,1.3564,-23.58,30.36,9.24
0.12258,-5.9793,-2.6968,0.025962,1.821,0.95997,-21.78,31.68,9.0
0.55843,-5.5162,-2.6015,-0.09163,2.3072,0.78649,-20.76,32.16,8.64
1.4165,-5.3937,-2.0839,-0.18937,2.6557,0.65821,-19.62,32.64,8.46
1.7979,-5.5435,-1.8387,-0.33109,2.9086,0.55711,-17.7,33.3,8.16
2.1929,-5.8431,-1.5527,-0.36621,2.9111,0.53512,-16.86,33.6,8.28
2.5061,-6.4833,-1.4029,-0.39767,2.8155,0.51435,-16.02,33.66,8.22
3.3097,-8.3493,-0.98067,-0.40959,2.5052,0.562,-14.52,34.02,7.98
3.7047,-9.2346,-0.96704,-0.44502,2.2565,0.6185,-13.86,34.02,7.86
4.127,-9.9565,-0.99429,-0.46548,2.0036,0.68356,-13.08,34.02,7.74
4.8625,-10.637,-1.3212,-0.40836,1.5507,0.77458,-12.12,33.84,7.32
5.0123,-10.188,-1.471,-0.15669,1.1982,0.79229,-11.64,33.9,7.02
5.0531,-9.9565,-1.5663,0.13897,0.81489,0.73945,-11.16,33.96,6.78
4.9578,-10.542,-1.471,0.44746,0.43982,0.58643,-10.62,34.2,5.94
5.1213,-12.027,-1.7025,0.75839,0.043371,0.4105,-10.26,34.2,5.7
5.8159,-15.636,-2.5742,1.106,-0.73793,0.13134,-9.9,34.38,4.98
7.0009,-16.031,-2.5742,1.0989,-1.3482,-0.090408,-9.72,34.5,4.74
6.6059,-14.478,-1.9886,0.96089,-1.6469,-0.21808,-9.42,34.56,4.38
5.9385,-13.607,-1.4438,0.51129,-2.1939,-0.47647,-9.3,34.68,4.02
4.9033,-13.062,-0.7355,0.26603,-2.6915,-1.0082,-9.12,34.68,3.84
3.5685,-14.383,-0.83084,0.026267,-2.7248,-1.4163,-9.06,34.68,3.6
3.2553,-14.547,-0.99429,-0.34972,-2.5504,-1.744,-9.24,34.8,3.36
2.5879,-12.749,-1.1032,-0.86437,-2.043,-2.0336,-9.72,34.68,3.3
2.3155,-11.414,-1.0624,-0.98013,-1.8298,-2.1148,-10.14,34.5,3.54
2.0431,-9.6296,-0.89894,-1.1164,-1.3598,-2.2794,-10.86,34.38,3.78
2.0294,-8.826,-0.8036,-1.1044,-0.72174,-2.5061,-11.52,34.2,4.08
2.1112,-7.2188,-0.8036,-1.0278,-0.47312,-2.6276,-13.5,33.6,4.92
2.0567,-6.6059,-0.65378,-0.93187,-0.34758,-2.7061,-14.64,33.24,5.22
1.9886,-6.0883,-0.54481,-0.81825,-0.37599,-2.7086,-16.92,32.28,6.36
1.9341,-5.38,-0.43585,-0.75564,-0.51099,-2.653,-18.36,31.74,6.84
1.866,-5.3119,-0.21793,-0.71532,-0.69119,-2.518,-19.68,31.14,7.38
1.7706,-5.5707,-0.095342,-0.68081,-0.83536,-2.3158,-21.0,30.48,7.86
1.6889,-6.1564,-0.054481,-0.66798,-0.95173,-2.0495,-22.32,29.64,8.28
1.3348,-7.8589,0.24517,-0.67684,-1.0024,-1.719,-24.78,27.96,9.48
1.185,-8.5808,0.5993,-0.7199,-0.8659,-1.0754,-25.92,27.06,10.08
1.3484,-10.243,1.2122,-0.74098,-0.75381,-0.8152,-27.72,25.02,11.4
1.7979,-11.468,1.2939,-0.70891,-0.38668,-0.090103,-28.26,24.0,11.94
2.0022,-11.822,1.4165,-0.6524,-0.28405,0.11393,-28.92,22.92,12.36
2.2337,-12.408,1.58,-0.43524,-0.068722,0.551,-29.82,21.0,13.38
2.2201,-12.476,1.3484,-0.20189,-0.020769,0.66951,-29.88,20.16,13.92
2.1793,-12.381,1.1032,0.064141,-0.0956,0.67531,-30.0,19.38,14.34
1.5119,-13.825,1.3348,0.38118,-0.18784,0.74006,-29.94,17.94,15.12
1.3212,-14.274,1.2803,0.49786,-0.055283,0.91813,-29.82,17.34,15.72
1.4438,-13.947,1.0351,0.55436,0.052534,1.0476,-29.64,16.86,16.14
1.9477,-13.116,0.35413,0.74403,0.34636,1.5601,-29.4,16.62,16.38
2.3427,-11.114,-0.83084,0.91752,0.3766,1.8353,-28.98,16.44,16.74
2.1656,-10.746,-1.185,1.098,0.13897,2.0968,-28.74,16.56,16.68
2.1929,-11.06,-1.6072,1.2382,0.03207,2.1215,-28.2,17.4,16.14
2.2337,-11.032,-2.0839,1.3103,-0.18234,2.1475,-28.2,18.0,15.78
2.1929,-10.978,-2.2474,1.3393,-0.33048,2.1447,-27.96,18.66,15.6
2.0703,-10.719,-2.2201,1.1609,-0.3485,2.1435,-27.66,19.5,15.48
1.7298,-9.9292,-2.1112,0.91324,-0.17959,2.0647,-26.94,21.24,14.94
1.4982,-9.1801,-2.2065,0.65546,0.13408,1.9422,-26.52,22.14,14.64
1.1441,-7.5048,-2.3427,0.46334,0.56566,1.7816,-25.44,23.82,14.34
1.2803,-6.8919,-2.3427,0.27855,1.2773,1.5336,-24.9,24.78,13.86
1.5663,-6.2517,-2.3427,0.18723,1.6444,1.3518,-24.18,25.74,13.68
1.7298,-6.0883,-2.3291,0.12431,1.8964,1.2251,-23.34,26.52,13.56
2.3972,-5.8704,-2.1112,0.076358,2.0253,1.1228,-21.72,28.14,13.02
2.656,-6.0611,-2.0022,0.03146,2.0635,1.0528,-20.82,28.8,12.96
3.0101,-6.6331,-1.866,-0.015272,1.9288,0.97677,-19.2,29.94,12.6
3.4459,-7.4503,-1.7979,-0.013134,1.8473,0.96303,-18.18,30.24,12.36
3.6503,-8.1722,-1.6617,0.017104,1.5711,0.95356,-17.16,30.66,12.0
3.8682,-8.7987,-1.6617,0.078496,1.3833,0.96608,-16.2,30.96,11.58
4.5083,-10.46,-2.0839,0.12034,1.1713,0.99205,-14.76,31.5,10.74
4.9578,-10.774,-2.4517,0.17013,0.86926,0.99663,-14.04,31.74,10.26
4.9578,-10.774,-2.4517,0.17013,0.86926,0.99663,-14.04,31.74,10.26
5.2983,-10.964,-2.4517,0.416,0.026267,0.70036,-12.96,32.28,9.36
5.2847,-11.06,-2.4517,0.43707,-0.10629,0.55955,-12.18,32.58,8.94
4.9033,-12.149,-2.3155,0.51862,-0.45632,0.018631,-11.46,32.88,8.04
4.9578,-13.729,-2.5879,0.63377,-0.74709,-0.35186,-11.1,32.94,7.68
5.1894,-16.154,-2.9148,0.58338,-1.0418,-0.7254,-10.62,33.3,6.72
4.9169,-15.473,-2.5334,0.24343,-1.2352,-1.1051,-10.44,33.36,6.42
4.2223,-13.934,-1.9068,-0.2135,-1.2895,-1.4667,-10.26,33.42,6.3
3.2961,-13.253,-1.4301,-0.37568,-1.2599,-1.9832,-10.44,33.3,6.18
3.0918,-14.029,-1.2122,-0.44104,-1.2437,-2.135,-10.8,33.0,6.18
3.0918,-14.138,-1.185,-0.79657,-1.2892,-2.4151,-11.16,32.82,6.3
3.051,-13.062,-0.99429,-1.0608,-1.3387,-2.4884,-12.18,32.28,6.66
3.0237,-12.258,-0.89894,-1.1222,-1.3512,-2.4783,-12.84,31.98,6.9
2.8194,-10.855,-0.58567,-1.0904,-1.2886,-2.3925,-14.58,30.9,7.68
2.4653,-9.7522,-0.50395,-1.0137,-1.2086,-2.3103,-15.6,30.48,8.22
2.4108,-8.8668,-0.50395,-0.84758,-1.1005,-2.2578,-16.56,29.88,8.76
2.2474,-7.5865,-0.53119,-0.76083,-1.0504,-2.251,-18.84,28.62,10.02
2.2474,-7.0417,-0.46309,-0.70647,-1.0528,-2.2694,-19.92,28.02,10.56
1.975,-6.0883,-0.23155,-0.70555,-1.1072,-2.2944,-21.84,26.52,11.46
1.7706,-5.6116,-0.12258,-0.73518,-1.1442,-2.2724,-22.98,25.98,12.0
1.6072,-5.5843,-0.16344,-0.76236,-1.1664,-2.1958,-23.76,25.44,12.66
1.5119,-5.7205,-0.19068,-0.78282,-1.171,-2.1341,-24.48,24.66,13.32
1.3212,-6.1428,-0.12258,-0.81153,-1.1203,-1.8607,-25.08,23.94,13.8
