Ax,Ay,Az,Gx,Gy,Gz,Mx,My,Mz
3.4459,-11.06,-1.2258,0.49236,0.0094684,1.8579,0.36,38.28,18.3
3.2689,-10.76,-1.185,0.3879,0.023518,1.6839,1.44,38.28,18.24
2.9148,-9.6704,-0.84446,0.23243,0.10415,1.5101,3.66,38.22,17.88
2.6832,-8.9213,-0.64016,0.12798,0.29749,1.3659,6.18,38.22,17.7
2.6832,-8.7987,-0.7355,0.050702,0.50916,1.2627,7.56,38.28,17.7
2.6968,-8.5127,-0.76274,-0.038485,0.68814,1.1399,10.14,37.86,17.76
2.7786,-7.8726,-1.185,-0.13836,0.89278,1.0846,12.6,37.56,18.0
2.7241,-7.5048,-1.2803,-0.16218,0.95967,1.0177,13.98,37.38,17.94
2.7241,-6.4969,-1.2122,-0.1744,0.96914,0.94959,16.08,36.9,18.3
2.6015,-5.8295,-1.2531,-0.15455,0.91233,0.86437,18.24,36.48,18.24
2.6968,-5.7886,-1.6753,-0.087965,0.82406,0.80512,19.92,36.24,18.42
2.7513,-5.9385,-1.7979,-0.059559,0.67134,0.67409,20.7,36.12,18.54
2.6968,-6.2517,-2.1248,-0.053451,0.3824,0.57849,22.14,35.88,19.02
2.6968,-6.7966,-2.1656,-0.043371,0.25137,0.49236,23.46,35.76,19.14
2.6968,-7.1098,-2.3699,-0.059254,0.21777,0.42272,23.94,35.7,19.14
3.3097,-7.7364,-3.1599,-0.12462,0.25931,0.35522,24.78,35.7,19.26
3.5413,-8.1858,-3.4187,-0.19212,0.32101,0.26786,25.8,35.52,19.44
3.8682,-8.4991,-3.2416,-0.27672,0.42425,0.13836,26.64,35.52,19.44
4.2495,-8.5808,-3.051,-0.31704,0.47617,0.072388,26.94,35.4,19.62
4.699,-8.3357,-2.9692,-0.39156,0.45937,0.029932,27.48,35.28,19.92
4.7944,-8.1586,-2.8194,-0.35675,0.39218,-0.01069,27.66,35.16,20.16
5.203,-8.5944,-2.4517,-0.26359,0.31551,-0.046731,27.9,35.04,20.4
5.7614,-10.665,-2.8603,-0.12278,0.18723,-0.052229,28.08,35.1,20.7
6.0202,-12.83,-2.7377,-0.010079,0.0012217,-0.071777,28.2,34.98,21.06
6.2245,-14.124,-2.152,0.014661,-0.14172,-0.09163,28.2,34.98,21.24
6.279,-14.86,-1.5119,-0.10171,-0.20892,-0.29199,28.26,34.92,21.66
6.1428,-14.124,-1.5255,-0.19823,-0.29719,-0.5733,28.02,34.92,21.84
5.6116,-12.122,-1.7979,-0.23213,-0.3824,-0.91355,27.72,34.98,22.38
5.2847,-10.801,-1.9886,-0.17654,-0.61178,-1.3057,27.3,35.22,22.62
5.1349,-10.964,-1.7162,-0.066584,-0.99938,-1.7034,26.88,35.28,22.62
5.1076,-12.217,-1.1441,-0.12492,-1.4083,-2.073,26.04,35.52,22.56
4.5083,-12.081,-0.69464,-0.27855,-1.5449,-2.2486,24.6,35.76,22.62
3.9499,-11.768,-0.31327,-0.43341,-1.4013,-2.3598,23.88,35.76,22.68
2.9965,-11.182,-0.14982,-0.57635,-1.3182,-2.3818,22.02,35.94,22.56
3.1054,-10.202,-0.28603,-0.66126,-1.0599,-2.4001,19.44,35.76,22.62
2.8739,-9.7385,-0.28603,-0.67104,-0.59346,-2.5134,18.18,35.76,22.68
2.942,-8.6081,-0.095342,-0.6466,-0.037568,-2.4502,15.3,35.64,22.62
3.0237,-8.1586,0.01362,-0.56994,-0.10018,-2.3921,13.98,35.58,22.68
2.8739,-7.1915,0.24517,-0.48106,-0.1179,-2.3561,10.68,35.28,22.56
2.547,-6.2654,0.31327,-0.40256,-0.090713,-2.2483,7.74,34.86,22.86
2.4517,-5.8023,0.35413,-0.29658,-0.13439,-2.1053,6.24,34.74,22.86
2.3155,-5.3119,0.16344,-0.14813,-0.25656,-1.9276,3.18,33.9,22.92
2.3155,-5.3937,-0.027241,0.0051924,-0.34422,-1.7147,0.36,33.18,23.04
2.3427,-5.5299,-0.027241,0.21716,-0.43494,-1.3225,-0.84,32.7,23.1
2.5606,-5.993,-0.24517,0.36194,-0.57574,-1.0302,-2.94,31.98,23.22
2.5061,-6.851,-0.29965,0.47678,-0.72571,-0.73487,-4.98,31.2,23.04
2.5061,-7.4231,-0.34051,0.59498,-0.80237,-0.39859,-6.66,30.42,22.98
2.5742,-8.4174,-0.38137,0.68478,-0.82925,-0.025656,-7.26,29.94,23.1
2.7786,-9.507,-0.64016,0.74953,-0.80573,0.38454,-8.4,29.28,23.22
2.8739,-10.569,-0.84446,0.89247,-0.68509,1.0177,-9.3,28.62,22.98
3.0237,-11.278,-1.0896,1.0033,-0.58154,1.4392,-9.48,28.5,22.86
3.623,-12.898,-1.3348,1.0718,-0.54734,1.8821,-9.72,28.26,22.56
3.7728,-14.22,-1.185,1.1005,-0.53237,2.2587,-9.66,28.26,22.08
3.7047,-14.737,-1.1577,1.0797,-0.47495,2.5678,-9.3,28.56,21.66
3.6094,-16.276,-0.47671,0.98594,-0.31246,2.8265,-8.46,28.74,21.42
3.4459,-16.508,0.12258,0.66768,0.17165,3.0278,-7.2,29.22,20.94
3.4459,-16.195,0.39499,0.48869,0.58674,3.0748,-6.48,29.46,20.88
3.8546,-14.669,-0.027241,0.38118,0.88911,3.0223,-4.98,30.06,20.34
3.9363,-12.027,-1.2803,0.36774,1.0412,2.8524,-2.58,30.42,20.04
3.7047,-11.032,-1.4301,0.47159,0.99968,2.5785,0.18,30.96,19.74
3.6639,-11.25,-1.2531,0.56505,0.8491,2.3063,1.68,31.14,19.5
3.6094,-11.455,-1.185,0.39401,0.71288,1.9245,4.74,31.56,19.38
3.4732,-11.087,-0.8036,0.30116,0.73731,1.7999,6.3,31.74,19.02
3.0918,-9.5751,-0.61292,0.097128,0.9557,1.4841,9.42,31.8,18.9
2.9692,-8.8396,-0.76274,0.0018326,1.1765,1.2923,10.92,31.74,18.9
2.8194,-7.2869,-1.3757,-0.083383,1.3674,1.1081,14.1,31.8,18.84
2.9011,-6.5378,-1.58,-0.13989,1.5388,0.94928,15.66,31.86,18.66
2.8603,-5.8976,-1.6753,-0.16127,1.6463,0.81398,17.28,31.86,18.54
2.8467,-5.6116,-1.7025,-0.17165,1.6878,0.63072,18.72,31.8,18.6
2.9965,-5.0259,-1.6617,-0.17196,1.6151,0.57849,21.18,31.86,18.42
3.0918,-4.808,-1.7162,-0.15211,1.4383,0.54642,22.2,31.74,18.6
3.3506,-4.8488,-1.866,-0.10385,1.16,0.52198,23.22,31.68,18.66
3.4187,-5.5162,-2.4108,-0.055894,0.79321,0.47434,25.14,31.56,18.72
3.2961,-5.8567,-2.3836,-0.058338,0.36316,0.35675,26.04,31.44,18.84
3.1463,-6.3198,-2.4108,-0.018937,0.22266,0.28314,26.82,31.5,19.26
2.942,-7.5321,-2.5061,0.011606,0.17226,0.21411,28.14,31.56,19.2
3.1054,-8.3765,-2.833,0.0033598,0.21747,0.17196,28.74,31.56,19.26
3.7728,-9.2755,-3.3234,-0.063225,0.25779,0.093768,29.58,31.26,19.5
3.8954,-9.398,-3.4051,-0.03879,0.15791,-0.0012217,29.94,31.14,19.62
4.0452,-9.616,-3.3915,0.043982,-0.038179,-0.082772,30.12,31.08,19.92
4.2495,-9.8748,-3.514,0.12981,-0.28527,-0.18479,30.3,31.14,19.92
4.5628,-10.351,-3.6775,0.17868,-0.54275,-0.30268,30.72,30.84,19.92
4.7399,-11.387,-3.7184,0.19456,-0.73884,-0.41722,30.72,30.6,20.22
4.7126,-12.177,-3.3778,0.14508,-0.81428,-0.59071,30.84,30.54,20.16
4.4675,-13.62,-2.8739,0.050702,-0.73151,-0.77824,30.66,30.48,20.22
4.5356,-13.947,-2.547,-0.13897,-0.49419,-1.0024,30.48,30.42,20.1
4.6718,-14.192,-2.6015,-0.36072,-0.14875,-1.3995,30.18,30.3,19.92
4.8761,-14.288,-2.656,-0.59071,-0.051618,-1.6609,29.34,30.06,20.22
5.0259,-13.893,-2.3836,-0.7083,-0.10201,-1.9444,28.68,30.12,20.22
5.2438,-13.634,-1.5119,-0.76664,-0.43371,-2.2376,27.36,30.0,20.34
4.8625,-13.171,-0.88532,-0.82589,-0.86285,-2.5079,26.52,29.94,20.52
4.304,-13.253,-0.47671,-0.86193,-1.1209,-2.7724,25.56,29.94,20.52
4.1133,-13.144,-0.54481,-0.92057,-1.1319,-2.97,24.42,30.0,20.7
3.6366,-11.713,-0.77636,-0.90683,-0.75869,-3.113,21.66,30.12,21.18
3.2961,-10.774,-0.7355,-0.77549,-0.50793,-3.1847,20.22,30.18,21.36
3.2416,-9.7113,-0.5993,-0.64691,-0.23427,-3.2046,18.54,30.06,21.66
3.2416,-7.8045,-0.31327,-0.51526,-0.14569,-3.2235,15.06,29.88,21.84
2.9284,-7.069,-0.20431,-0.34728,-0.34147,-3.2428,13.14,29.76,22.14
2.5061,-6.3743,-0.19068,-0.24526,-0.43982,-3.1557,11.4,29.58,22.38
2.438,-6.1019,-0.24517,-0.16218,-0.52901,-2.988,9.48,29.52,22.56
2.2474,-5.5162,-0.35413,-0.098349,-0.60659,-2.7678,5.76,28.74,22.98
2.3836,-5.2711,-0.35413,-0.044899,-0.67928,-2.4841,3.96,28.44,23.22
2.547,-5.3119,-0.38137,0.053756,-0.82894,-2.0162,2.22,28.08,23.28
2.5061,-5.4073,-0.24517,0.081245,-0.89003,-1.8558,-1.26,27.12,23.52
2.4517,-5.7614,-0.35413,0.20311,-1.0049,-1.3717,-2.7,26.46,23.7
2.6151,-6.279,-0.43585,0.29352,-1.0229,-0.97708,-3.84,25.98,23.76
3.1735,-7.2188,-0.61292,0.39187,-0.96425,-0.53909,-6.3,24.72,24.0
3.4732,-7.8317,-0.70826,0.50152,-0.89644,-0.06353,-7.32,24.18,24.06
3.9908,-8.9486,-0.85808,0.62889,-0.80695,0.40012,-8.04,23.58,24.3
4.2495,-9.398,-1.1169,0.82681,-0.63225,1.0156,-9.3,22.56,24.78
4.3858,-10.351,-1.4574,1.0015,-0.53023,1.4132,-9.72,22.08,25.02
4.522,-11.155,-1.7706,1.1826,-0.47434,1.8228,-9.9,21.72,25.08
4.3585,-12.926,-2.0294,1.2889,-0.39859,2.2437,-10.02,21.36,25.08
4.0589,-14.996,-1.4165,1.2565,-0.15272,2.6622,-9.9,21.18,25.08
4.0861,-15.636,-0.61292,0.99205,0.54917,3.1912,-9.6,21.24,25.08
4.0861,-14.615,-0.65378,0.83872,0.99571,3.3995,-8.52,21.66,24.84
4.018,-13.634,-1.1577,0.72388,1.3176,3.4636,-8.04,22.02,24.66
3.9363,-12.585,-1.5527,0.68722,1.4749,3.3646,-7.32,22.32,24.42
3.8546,-11.836,-1.6889,0.74403,1.4258,3.1893,-6.48,22.74,24.06
3.8001,-11.795,-1.58,0.75564,1.2901,3.0192,-4.5,23.76,23.46
3.8546,-11.795,-1.362,0.68814,1.1335,2.8124,-3.42,24.36,22.92
4.0589,-11.278,-1.2122,0.52107,0.91324,2.7153,-0.66,25.38,22.26
3.8954,-10.229,-1.2667,0.39981,0.81948,2.6035,0.72,25.92,21.84
3.7592,-9.6977,-1.2667,0.34697,0.79779,2.471,2.22,26.4,21.36
3.2825,-8.1586,-1.5527,0.31704,0.85674,2.3072,5.64,27.36,20.76
3.0782,-7.4776,-1.58,0.29749,0.97128,2.1466,7.38,27.66,20.46
3.1191,-7.1371,-1.7298,0.28069,1.1154,2.0162,9.18,27.9,20.16
3.4323,-6.7012,-1.8932,0.22938,1.2294,1.8995,12.66,28.08,19.62
3.6775,-6.4969,-1.866,0.14569,1.2645,1.7581,14.58,28.2,19.44
3.8137,-6.6059,-1.757,0.090408,1.2312,1.6222,16.32,28.2,19.14
3.909,-6.8647,-1.7706,0.0027489,1.139,1.3631,19.92,28.44,18.96
3.8409,-6.96,-1.9205,-0.079718,1.0846,1.1411,21.54,28.38,18.96
3.7184,-7.0281,-2.3699,-0.13836,1.0498,0.73823,24.54,28.14,19.08
4.0861,-8.1995,-2.6423,-0.12492,1.0608,0.46945,25.98,28.02,19.08
4.3994,-9.2618,-3.1599,-0.20311,1.0372,0.19945,27.18,28.02,19.2
4.4947,-9.398,-3.228,-0.28527,0.96303,-0.080023,28.2,27.84,19.32
4.6173,-9.4798,-3.4868,-0.28344,0.83261,-0.33292,29.82,27.54,19.68
4.6173,-9.5751,-3.5413,-0.24771,0.67592,-0.54734,30.54,27.36,19.74
4.7126,-9.7249,-3.8818,-0.1741,0.35888,-0.77977,31.44,27.3,20.04
4.7535,-10.052,-3.9908,-0.10018,0.10568,-0.90042,31.74,27.36,20.4
4.7944,-10.76,-3.8137,-0.039706,-0.10079,-1.0201,31.98,27.24,20.58
4.7807,-11.577,-3.623,-0.026878,-0.25107,-1.135,31.98,27.36,21.0
4.7535,-12.177,-3.1599,-0.016799,-0.343,-1.2425,31.86,27.12,21.18
5.0531,-13.716,-2.4108,0.013744,-0.40103,-1.3842,31.5,26.94,21.54
5.203,-14.669,-2.3699,0.0061087,-0.51985,-1.5046,31.14,27.0,21.72
5.3119,-13.579,-2.6287,-0.16738,-0.9163,-1.7987,30.0,27.18,21.6
4.6854,-12.04,-1.975,-0.15455,-1.2352,-2.0919,29.34,27.18,21.72
4.2632,-11.836,-1.2803,-0.1628,-1.3399,-2.2199,28.62,27.24,21.9
4.3994,-12.612,-0.8036,-0.24038,-1.4951,-2.536,27.0,27.42,22.08
4.5628,-12.871,-1.0896,-0.39218,-1.5944,-2.6145,25.92,27.54,22.32
4.2768,-12.749,-1.1169,-0.56658,-1.6188,-2.675,24.78,27.54,22.56
3.3915,-11.4,-0.78998,-0.7028,-1.4514,-2.7648,22.44,27.6,22.74
3.0918,-10.842,-0.81722,-0.81245,-0.91874,-2.8136,21.0,27.48,22.92
2.9692,-9.9156,-0.85808,-0.80176,-0.56108,-2.839,19.56,27.36,22.98
2.942,-8.3901,-0.85808,-0.75136,-0.29016,-2.8256,16.5,27.48,23.22
2.9556,-7.6138,-0.76274,-0.6802,-0.13408,-2.8088,14.82,27.42,23.4
2.8467,-6.7966,-0.54481,-0.55894,-0.146,-2.7697,13.08,27.42,23.64
2.6696,-5.5843,-0.44947,-0.36285,-0.28833,-2.5901,9.84,27.18,23.94
2.6151,-5.3528,-0.39499,-0.23243,-0.41386,-2.4413,8.34,27.0,24.0
2.5606,-4.985,-0.35413,-0.16371,-0.51496,-2.346,6.66,26.7,23.94
2.6423,-5.2166,-0.24517,0.038485,-0.84055,-1.9606,3.6,26.28,23.94
2.6696,-5.4754,-0.20431,0.15944,-0.95356,-1.6683,2.34,25.92,23.94
2.6015,-5.6661,-0.14982,0.27703,-0.99663,-1.3418,0.96,25.56,23.88
2.6015,-6.5105,-0.23155,0.42119,-0.97402,-1.0003,-1.32,24.72,23.94
2.9556,-7.246,-0.44947,0.67409,-0.84941,-0.43921,-2.34,24.42,24.0
3.2689,-7.9951,-0.70826,0.83505,-0.79321,-0.041844,-3.06,24.06,24.06
3.6775,-9.221,-0.96704,1.0085,-0.72143,0.36621,-4.32,23.34,24.3
4.018,-9.902,-1.0624,1.1411,-0.65821,0.73976,-4.62,22.92,24.18
3.8273,-10.474,-1.2258,1.2532,-0.59162,1.0815,-4.8,22.62,24.24
4.0589,-12.122,-1.7025,1.3442,-0.52748,1.4117,-5.1,22.02,24.42
4.0589,-13.579,-1.6344,1.3592,-0.36927,1.9526,-5.16,21.84,24.3
4.018,-14.315,-1.58,1.2987,-0.15974,2.3485,-4.98,21.78,24.18
3.9499,-15.786,-1.2531,1.1234,0.20708,2.7223,-4.74,21.72,24.06
3.8001,-15.691,-0.54481,0.83047,0.71624,2.9945,-3.96,21.78,23.7
3.7456,-14.887,-0.38137,0.58215,1.2468,3.1582,-3.42,22.02,23.4
3.8682,-13.838,-0.61292,0.40348,1.693,3.1918,-2.76,22.32,23.28
4.127,-12.858,-1.0624,0.33109,1.9911,2.9709,-1.14,22.92,22.56
4.1542,-12.762,-1.0079,0.33659,1.8973,2.7119,-0.36,23.1,22.38
4.2223,-12.599,-0.8036,0.31918,1.7837,2.5699,0.6,23.4,22.02
4.0589,-11.169,-0.081722,0.21014,1.3836,2.1194,2.76,23.94,21.3
3.8137,-10.052,0.01362,0.11454,1.2,1.8601,3.9,24.18,21.06
3.4187,-8.8805,-0.20431,0.065363,1.1518,1.6597,5.1,24.42,20.94
2.7649,-7.1779,-0.92618,0.06017,1.2733,1.4994,7.92,24.78,20.64
2.6151,-6.5378,-1.1169,0.053145,1.3491,1.4725,9.24,24.96,20.64
2.8058,-5.993,-1.2258,-0.007025,1.6182,1.5162,10.62,25.14,20.58
3.0918,-5.4073,-1.1305,-0.069639,1.711,1.5333,13.38,25.38,20.58
3.2144,-4.9987,-0.99429,-0.096517,1.6771,1.5351,14.88,25.38,20.7
3.3778,-5.0395,-1.1986,-0.068111,1.5421,1.5858,16.2,25.44,20.58
3.9635,-5.8431,-1.7979,-0.0024435,1.106,1.6283,18.9,25.56,20.76
4.413,-6.4697,-2.4108,-0.017104,0.75778,1.5867,20.34,25.68,20.58
4.4811,-6.7148,-2.438,-0.027489,0.60903,1.5259,21.6,25.62,20.76
4.2359,-7.7636,-2.261,-0.026573,0.37385,1.2724,24.12,25.56,21.0
3.9771,-8.7034,-2.0431,0.0048869,0.38668,1.0507,25.26,25.5,21.0
4.0044,-9.6704,-2.0022,0.0058032,0.49786,0.7926,26.28,25.44,21.06
4.0997,-10.869,-2.4653,-0.034208,0.69394,0.33995,28.08,25.26,21.06
4.1406,-10.855,-2.7922,-0.1237,0.91905,0.026573,28.86,25.26,21.06
4.0861,-10.474,-3.1191,-0.12523,0.93554,-0.1405,29.64,25.2,21.12
3.6911,-9.7385,-3.1735,-0.11332,0.90713,-0.65912,30.9,24.78,21.42
3.4051,-9.6977,-3.1872,-0.064141,0.85368,-0.93218,31.32,24.6,21.48
3.7047,-10.392,-3.3506,-0.025351,0.72785,-1.1023,31.68,24.42,21.78
4.2904,-12.612,-3.3097,0.011606,0.50916,-1.2339,31.8,24.24,22.02
4.2223,-14.097,-3.0237,-0.12492,0.34606,-1.266,31.74,24.18,22.2
3.9363,-14.22,-2.7649,-0.30971,0.28283,-1.2761,31.68,24.24,22.44
4.127,-13.852,-2.7377,-0.28619,0.21869,-1.3014,31.08,24.24,22.8
4.4675,-12.708,-2.833,-0.2697,0.11026,-1.3457,30.66,24.3,23.1
4.7944,-10.569,-1.9341,0.01405,-1.2807,-1.7614,29.64,24.24,23.4
4.8216,-10.746,-1.1169,0.041233,-1.6237,-1.8314,28.98,24.3,23.64
4.4947,-10.924,0.095342,0.03207,-1.9398,-1.8879,28.26,24.36,23.88
4.304,-11.727,0.39499,0.010385,-2.2959,-2.007,27.42,24.24,24.12
4.2495,-12.027,0.14982,-0.096517,-2.3708,-2.0934,26.52,24.42,24.18
3.7592,-11.223,-0.46309,-0.27214,-2.0675,-2.1933,24.54,24.36,24.42
3.4868,-10.215,-0.62654,-0.26695,-1.7297,-2.2828,23.64,24.3,24.48
3.4459,-9.2755,-0.57205,-0.2361,-1.4025,-2.3732,22.86,24.3,24.6
3.3642,-7.7091,-0.25879,-0.2303,-1.1231,-2.4542,20.64,24.0,24.84
3.337,-7.2188,-0.20431,-0.21411,-0.90194,-2.4917,19.38,23.88,24.72
3.2825,-6.7012,-0.20431,-0.16096,-0.8323,-2.4728,18.3,23.88,24.66
2.8739,-6.0747,-0.25879,-0.10599,-0.81917,-2.3686,15.96,23.82,24.6
2.7649,-5.6797,-0.24517,-0.050396,-0.81367,-2.2263,14.82,23.82,24.54
2.6696,-5.1894,-0.19068,0.051007,-0.81673,-2.0519,13.74,23.76,24.42
2.5061,-5.4754,-0.16344,0.2022,-0.83017,-1.7257,11.64,23.46,24.3
2.4789,-6.2517,-0.16344,0.31704,-0.84025,-1.4539,10.56,23.34,24.18
2.4517,-6.674,-0.1362,0.43646,-0.87568,-1.1405,9.72,23.22,24.12
2.5334,-7.6274,-0.14982,0.53817,-0.90103,-0.77213,8.64,23.16,24.0
2.5742,-8.6353,-0.12258,0.61911,-0.87445,-0.3766,7.14,23.1,23.82
2.5061,-10.038,-0.095342,0.73059,-0.74892,0.044899,6.42,22.92,23.52
2.9284,-11.918,-0.35413,0.85552,-0.56963,0.67531,5.76,22.86,23.16
3.1599,-12.612,-0.47671,0.90164,-0.51343,1.0831,5.46,22.8,23.1
3.2144,-13.157,-0.51757,0.9279,-0.50305,1.2572,5.28,22.68,22.86
3.2689,-14.342,-0.64016,0.96761,-0.49083,1.7352,5.28,22.5,22.44
3.1327,-15.173,-0.58567,0.91599,-0.41478,2.0,5.4,22.44,22.26
3.0918,-15.473,0.01362,0.75869,-0.20403,2.2294,5.94,22.44,21.78
2.9965,-14.342,0.19068,0.54611,0.34453,2.4218,6.24,22.38,21.66
3.2689,-13.634,0.095342,0.37813,0.68295,2.4658,6.84,22.38,21.54
3.4051,-13.212,-0.14982,0.29658,0.88759,2.3857,7.38,22.32,21.3
3.6775,-12.381,-0.58567,0.29658,0.90683,2.2025,8.22,22.26,20.94
3.6094,-12.313,-0.6674,0.31246,0.76877,1.9419,9.9,22.2,20.7
3.2416,-12.149,-0.21793,0.21869,0.67867,1.6289,10.68,22.32,20.7
2.8058,-11.441,0.12258,-0.013439,0.89339,1.1781,12.36,22.2,20.4
2.3427,-8.8532,0.027241,-0.11881,1.19,0.93218,13.38,22.08,20.22
2.2337,-7.8453,-0.31327,-0.14966,1.5033,0.74678,14.4,22.02,20.46
2.1929,-7.246,-0.57205,-0.16463,1.7721,0.65729,15.48,22.08,20.46
2.4517,-5.9657,-1.2258,-0.14386,1.9297,0.63377,17.52,21.9,20.52
2.6015,-5.38,-1.4029,-0.14142,1.9603,0.68997,18.36,21.84,20.64
2.942,-4.808,-1.4574,-0.15852,1.7892,0.82681,20.34,21.78,21.06
3.0782,-4.5901,-1.4846,-0.16066,1.5635,0.93157,21.3,21.84,21.12
3.1054,-4.4811,-1.6617,-0.13347,1.2572,1.0067,22.08,21.72,21.42
3.051,-4.413,-1.7979,-0.083689,0.96425,1.0806,22.86,21.78,21.72
3.0237,-4.6582,-1.9886,-0.007025,0.67104,1.1457,23.64,21.96,21.84
3.4051,-5.8567,-2.5198,0.043982,0.3824,1.1802,25.02,21.9,22.02
3.4596,-6.6604,-2.5879,0.069639,0.13622,1.1967,25.86,21.96,22.2
3.5004,-8.6217,-2.5742,0.10049,-0.000611,1.182,27.0,21.96,22.44
3.4187,-9.8066,-2.6151,0.12126,-0.027794,1.157,27.54,21.9,22.32
3.5413,-10.542,-2.7104,0.096822,0.045815,1.0886,28.02,21.9,22.38
3.9635,-11.155,-2.7104,-0.002138,0.24404,0.85185,29.1,21.96,22.56
3.9908,-10.706,-2.7649,-0.0094684,0.30696,0.62125,29.7,21.9,22.56
4.1406,-10.256,-2.8603,0.072998,0.24954,0.35033,30.12,21.72,22.5
4.3449,-10.324,-2.9011,0.19578,0.06353,0.087354,30.96,21.48,22.5
4.5356,-10.855,-3.1599,0.31032,-0.17929,-0.15211,31.44,21.42,22.32
4.699,-11.836,-3.1599,0.38759,-0.49205,-0.47067,31.92,21.18,22.38
4.699,-12.885,-2.9011,0.30391,-0.53878,-0.70005,32.34,21.0,22.32
4.413,-14.029,-2.0975,0.14569,-0.46578,-0.90164,32.94,20.64,22.44
4.5083,-13.852,-2.3155,0.0088575,-0.4102,-1.2321,32.94,20.52,22.5
4.7807,-13.062,-2.547,-0.18448,-0.53726,-1.3497,32.94,20.28,22.32
5.3119,-12.027,-2.5198,-0.27947,-1.0583,-1.6997,32.88,20.22,22.38
5.2575,-12.068,-1.8932,-0.37415,-1.5104,-1.8879,32.58,20.16,22.38
5.094,-11.809,-0.81722,-0.4554,-1.8173,-2.0156,32.22,20.04,22.32
4.3858,-11.632,-0.12258,-0.46517,-1.8247,-2.1612,31.44,20.04,22.14
4.3313,-11.863,-0.83084,-0.54,-1.6612,-2.2333,31.02,19.98,22.26
4.3177,-11.686,-1.2395,-0.7196,-1.4236,-2.3137,30.48,19.98,22.2
3.8818,-10.011,-0.96704,-0.75747,-1.0327,-2.4746,28.98,20.28,22.2
3.8818,-9.3572,-0.76274,-0.71227,-0.79443,-2.5974,28.02,20.52,22.2
3.7728,-8.9213,-0.58567,-0.68692,-0.65729,-2.6991,26.88,20.76,22.26
3.5413,-7.5457,-0.24517,-0.64477,-0.613,-2.7611,24.72,21.36,22.08
3.3642,-7.2052,-0.28603,-0.59223,-0.64874,-2.7675,23.76,21.66,22.08
3.2553,-6.565,-0.32689,-0.49358,-0.78191,-2.6906,22.62,21.96,22.14
2.942,-5.9249,-0.36775,-0.43738,-0.82558,-2.6319,20.28,22.74,22.08
2.7377,-5.4481,-0.21793,-0.34178,-0.88759,-2.492,19.14,22.98,21.96
2.5061,-5.2847,-0.21793,-0.17898,-0.92149,-2.2016,18.0,23.4,21.78
2.2882,-5.489,-0.027241,-0.065973,-0.87934,-1.9236,15.6,23.7,21.84
2.4244,-5.8023,-0.21793,0.032681,-0.82558,-1.5766,14.52,24.06,21.6
2.7241,-6.2381,-0.21793,0.13164,-0.76511,-1.1952,12.54,24.48,21.42
2.9692,-7.2324,-0.21793,0.25351,-0.70708,-0.56627,11.82,24.78,21.36
3.0646,-7.9815,-0.14982,0.3598,-0.65821,-0.13775,10.92,24.9,21.18
3.2553,-8.6898,-0.25879,0.46701,-0.61728,0.27061,10.38,24.96,21.24
3.5549,-9.9292,-0.50395,0.56627,-0.58521,0.66035,9.84,25.02,21.24
3.8954,-11.21,-0.83084,0.68875,-0.52993,1.018,9.0,25.02,21.3
3.9499,-12.395,-0.92618,0.81764,-0.46059,1.5082,8.88,25.14,21.18
4.1406,-13.947,-0.84446,0.90591,-0.35888,1.66,8.94,25.08,21.06
4.2087,-14.601,-0.9398,0.9444,-0.16035,2.062,9.18,25.14,20.94
4.0589,-15.159,-1.0215,0.92485,-0.072388,2.1597,9.36,25.14,20.82
3.8546,-15.282,-0.53119,0.73059,0.3824,2.3491,9.66,25.2,20.58
3.7592,-13.797,-0.12258,0.57024,0.74587,2.394,10.62,25.14,20.4
3.7456,-12.599,-0.6674,0.51954,1.0562,2.2932,10.98,25.14,20.22
3.5685,-11.564,-1.7979,0.55008,1.0852,2.2174,12.3,24.9,19.8
3.4596,-11.237,-1.7979,0.58429,1.0235,2.0498,12.96,24.9,19.62
3.5413,-10.801,-1.2803,0.47831,0.89247,1.8937,13.8,24.78,19.38
3.5004,-10.283,-1.1577,0.39156,0.83291,1.8555,14.58,24.72,19.08
3.3778,-9.2891,-1.1441,0.32773,0.82222,1.8323,16.38,24.6,18.6
3.4459,-8.9349,-1.4029,0.30604,0.81276,1.8567,17.1,24.3,18.48
3.3506,-8.4174,-1.8387,0.29383,0.78343,1.9178,18.06,24.06,18.42
3.4868,-7.3005,-2.2882,0.3262,0.75167,1.9728,19.92,23.64,18.36
3.514,-6.96,-2.3972,0.34178,0.65027,1.9532,20.88,23.4,18.42
3.6775,-6.6876,-2.4789,0.3091,0.49266,1.8576,22.02,23.04,18.36
3.3097,-5.7342,-2.6423,0.28375,0.30574,1.7431,24.18,22.74,18.36
3.3097,-5.7614,-2.4789,0.26328,0.17226,1.6176,25.38,22.56,18.36
3.3506,-6.0474,-2.4653,0.17837,0.069028,1.3683,26.34,22.32,18.24
3.3506,-6.3743,-2.547,0.12828,0.07025,1.2758,27.36,22.02,18.3
3.2144,-7.0553,-2.2474,-0.07422,0.21319,0.95203,29.58,21.42,18.12
3.1327,-7.4367,-2.152,-0.17837,0.416,0.73212,30.66,21.3,17.94
3.1599,-7.8317,-2.1384,-0.27611,0.66706,0.50457,31.56,21.12,17.82
3.5549,-8.8941,-2.261,-0.33689,0.88148,0.28344,33.3,20.88,17.7
3.7047,-9.112,-2.2882,-0.37538,1.0247,-0.02474,34.14,20.58,17.82
3.8818,-9.4934,-2.1929,-0.36163,1.0104,-0.11576,34.62,20.46,17.7
3.9635,-9.4389,-2.3427,-0.32223,0.86926,-0.30696,35.22,20.22,17.88
4.127,-9.1801,-2.7377,-0.10629,0.39034,-0.53817,35.58,20.1,18.0
4.3994,-9.5479,-3.1599,0.065973,-0.091935,-0.63041,35.94,20.04,18.06
4.6718,-10.297,-3.8273,0.14294,-0.61056,-0.6857,36.24,20.1,18.12
4.2632,-10.61,-3.8954,0.17959,-1.2315,-0.77152,36.36,19.8,18.36
4.2632,-10.61,-3.8954,0.19212,-1.3919,-0.78374,36.36,19.8,18.36
3.8682,-12.449,-3.5685,0.18509,-1.3717,-0.77763,36.48,19.62,18.3
3.8409,-13.334,-3.4323,0.034208,-1.2162,-0.81703,36.36,19.74,18.54
4.1542,-14.819,-2.9284,-0.081856,-0.90958,-0.8601,35.94,19.74,18.84
4.9169,-15.091,-2.6015,-0.23305,-0.66859,-0.92302,35.52,19.86,18.96
5.4073,-14.056,-2.4517,-0.34728,-0.67165,-0.97586,34.86,20.1,18.6
5.5435,-12.136,-1.9613,-0.37232,-0.97464,-1.1063,34.08,20.52,18.3
5.2711,-10.964,-1.2803,-0.38087,-1.7312,-1.4087,33.84,20.76,18.18
4.8897,-10.038,-0.40861,-0.26114,-2.1747,-1.6277,32.76,20.94,17.94
4.985,-11.087,-0.38137,-0.25534,-2.5323,-1.7651,31.8,21.48,17.58
4.6718,-11.414,-0.44947,-0.40745,-2.6231,-1.8741,30.6,21.9,17.58
4.3177,-10.964,-0.21793,-0.64416,-2.2443,-1.9719,29.16,22.44,17.4
4.1951,-10.215,-0.01362,-0.80604,-1.8234,-2.0049,28.2,22.92,17.28
4.0589,-9.6568,0.19068,-0.95448,-1.4032,-2.0498,27.24,23.28,17.34
4.0589,-9.0848,0.35413,-1.0162,-1.2162,-2.0647,26.16,23.58,17.4
4.2632,-8.1586,0.24517,-1.1353,-0.82253,-2.1457,23.58,24.24,17.58
4.1406,-7.355,0.16344,-1.1512,-0.64721,-2.1964,22.2,24.48,17.88
4.1133,-7.0962,0.34051,-1.0742,-0.45418,-2.2516,18.96,25.2,18.18
4.4402,-6.6331,0.34051,-0.95997,-0.4386,-2.2657,17.46,25.62,18.48
4.5764,-6.5786,0.21793,-0.80298,-0.49266,-2.2513,15.84,25.92,18.66
4.7535,-6.5514,0.27241,-0.7254,-0.54123,-2.2211,14.1,26.28,18.96
4.9987,-6.4833,0.17706,-0.42089,-0.75808,-2.1124,12.3,26.46,19.32
5.0668,-6.0883,0.29965,-0.21105,-0.90225,-2.0269,8.94,26.76,19.98
4.9714,-5.8159,0.29965,0.016493,-1.0427,-1.8818,7.08,26.82,20.28
4.8625,-5.4754,0.19068,0.24221,-1.1576,-1.8124,4.02,26.94,21.0
4.8625,-5.2847,-0.054481,0.49052,-1.2712,-1.6762,2.64,26.88,21.24
4.8897,-5.3119,-0.35413,0.74953,-1.3821,-1.4942,1.14,26.7,21.48
5.1485,-5.4618,-0.85808,1.1023,-1.5229,-1.1869,-1.5,26.28,22.02
5.1621,-5.4209,-1.1986,1.2764,-1.6451,-0.99418,-2.64,25.92,22.2
4.9578,-5.3937,-1.2531,1.4087,-1.7993,-0.73151,-4.5,25.5,22.38
4.9442,-5.5571,-1.4574,1.5382,-1.843,-0.56413,-5.52,25.2,22.32
4.8625,-5.9657,-1.6753,1.5773,-1.8454,-0.48503,-6.3,24.84,22.38
4.7944,-6.1564,-1.8524,1.6536,-1.7987,-0.23885,-7.08,24.48,22.44
4.7126,-6.8783,-2.6968,1.6982,-1.7654,-0.12034,-8.34,24.0,22.38
4.5764,-7.4776,-3.0237,1.7309,-1.7556,-0.017104,-8.94,23.64,22.32
4.3177,-8.1586,-2.9829,1.6991,-1.8396,0.15882,-9.9,22.98,21.96
4.0452,-9.6023,-2.8603,1.6689,-1.8528,0.2923,-10.26,22.8,21.84
3.7728,-10.365,-2.7513,1.6304,-1.8271,0.35064,-10.74,22.74,21.66
3.4459,-10.924,-2.833,1.5159,-1.6835,0.47556,-11.04,22.56,21.6
2.833,-11.645,-3.0782,1.3106,-1.2602,0.69211,-11.4,22.56,21.12
2.4517,-11.85,-3.051,1.1371,-0.86376,0.85185,-11.7,22.68,20.88
2.2882,-11.605,-2.9829,0.97952,-0.41783,0.99663,-12.0,22.74,20.46
2.3427,-11.223,-3.5685,0.87201,0.13378,1.2037,-12.42,22.74,19.92
2.5061,-10.665,-4.5083,0.75198,0.30727,1.288,-12.54,22.86,19.68
2.5742,-10.229,-4.5764,0.67684,0.32406,1.3005,-12.6,22.92,19.44
2.3018,-9.3436,-4.2223,0.51832,0.22449,1.2724,-12.78,22.98,19.02
2.0022,-9.0984,-3.5549,0.46304,0.14966,1.281,-12.84,23.28,18.66
1.8932,-9.3299,-3.2553,0.39737,0.13408,1.3152,-12.66,23.52,18.78
1.8387,-9.8066,-3.0237,0.22938,0.27397,1.4584,-12.06,23.64,18.78
2.0431,-9.7522,-2.8194,0.13408,0.45876,1.5733,-11.64,23.7,18.72
2.3972,-9.5342,-2.833,0.11087,0.61881,1.6551,-11.04,23.88,18.84
2.6015,-9.3844,-2.9011,0.10751,0.69486,1.7159,-10.44,24.06,18.9
3.2144,-8.826,-3.2825,0.15149,0.61423,1.6979,-8.7,24.42,18.96
3.4732,-8.5808,-3.3642,0.26206,0.32193,1.649,-7.68,24.6,19.08
3.6775,-8.54,-3.0918,0.34422,-0.0956,1.5907,-6.6,24.84,19.2
3.8682,-8.1313,-2.833,0.3989,-0.73762,1.4484,-4.2,25.38,19.14
3.8137,-8.1177,-2.6832,0.47189,-1.0611,1.3357,-3.06,25.68,19.2
3.6911,-8.3084,-2.7649,0.52473,-1.2547,1.2562,-1.62,25.98,19.2
3.6775,-8.5944,-3.1463,0.51374,-1.347,1.1753,-0.3,26.28,19.14
3.5822,-8.7034,-3.6775,0.45387,-1.3851,1.0739,2.34,27.0,18.54
3.5685,-8.6081,-3.6775,0.38607,-1.3705,0.95631,3.42,27.3,18.3
3.6366,-8.0632,-3.4732,0.29138,-1.3497,0.77244,5.28,28.08,17.88
3.7456,-8.1177,-3.5277,0.26176,-1.3644,0.63438,6.18,28.44,17.52
3.8001,-8.3493,-3.4187,0.24068,-1.3796,0.56536,6.96,28.62,17.16
4.0589,-8.3629,-3.3506,0.092546,-1.4829,0.33995,7.62,28.8,16.98
4.0589,-8.1177,-3.051,-0.010385,-1.5647,0.17837,8.52,29.22,16.56
4.0861,-7.9543,-2.8058,-0.135,-1.6771,-0.072998,8.76,29.28,16.38
4.0861,-7.8589,-2.4517,-0.18448,-1.6994,-0.15577,9.24,29.64,16.38
4.127,-8.0224,-2.3427,-0.27061,-1.6918,-0.33139,9.24,29.82,16.14
4.3177,-8.5263,-2.0567,-0.33323,-1.635,-0.54367,9.3,29.94,16.26
4.4266,-9.6432,-1.7025,-0.48655,-1.3943,-0.89156,8.94,29.94,16.56
4.5083,-10.215,-1.1032,-0.59926,-1.0938,-1.1591,8.52,30.06,16.86
4.7399,-10.883,-0.76274,-0.64935,-0.72021,-1.4557,8.16,30.0,16.92
5.0259,-12.476,-0.65378,-0.60659,-0.32987,-1.7526,7.38,29.94,17.4
5.6252,-14.043,-1.0351,-0.59743,-0.076053,-1.974,6.66,29.88,17.82
6.279,-15.037,-1.0488,-0.61423,-0.034819,-2.098,5.94,29.82,18.12
6.9872,-13.198,-0.83084,-0.39492,-0.43738,-2.2978,4.08,29.28,18.72
6.7693,-11.727,-0.14982,-0.16463,-0.89186,-2.5165,3.18,28.98,19.08
6.4424,-11.387,0.21793,0.091019,-1.4132,-2.7495,2.34,28.74,19.5
6.5105,-12.599,0.57205,0.35064,-2.408,-2.9832,1.26,27.42,20.04
6.8647,-13.198,0.50395,0.41081,-2.7822,-3.0274,-1.26,26.64,20.58
6.9191,-13.62,0.40861,0.50244,-3.5439,-3.054,-2.64,25.8,20.76
5.8704,-13.116,0.14982,0.49419,-3.9914,-2.9511,-5.7,24.18,21.6
5.1213,-12.463,0.51757,0.37018,-3.7981,-2.945,-7.08,23.22,21.96
4.5901,-11.822,0.8036,0.17043,-3.3872,-2.9712,-8.4,22.26,22.56
4.0725,-10.774,0.8717,-0.17501,-2.5537,-3.0155,-11.58,19.92,23.46
4.1133,-10.106,0.6674,-0.33598,-2.1063,-3.014,-13.14,18.78,23.88
4.304,-9.8748,0.51757,-0.3989,-1.9374,-2.9984,-14.52,17.52,24.36
4.6173,-9.1665,0.21793,-0.48136,-1.6176,-2.8876,-17.1,15.24,25.26
4.4266,-8.7715,0.21793,-0.46273,-1.4835,-2.7501,-18.36,14.04,25.74
4.2359,-8.3357,0.35413,-0.41539,-1.3616,-2.5837,-19.62,12.78,26.16
4.3313,-8.2131,0.21793,-0.30146,-1.2385,-2.2568,-21.42,10.5,27.12
4.4947,-8.4719,0.28603,-0.21961,-1.2248,-2.0039,-22.08,9.36,27.66
4.3858,-8.3765,0.28603,-0.18204,-1.2297,-1.8659,-22.8,8.22,28.08
3.9635,-8.1041,0.40861,-0.058032,-1.1286,-1.4539,-23.82,5.94,28.68
3.6775,-8.0088,0.21793,0.067806,-1.0003,-1.1777,-24.18,4.8,29.04
3.6094,-8.3084,-0.14982,0.24862,-0.84788,-0.88911,-24.6,3.84,29.34
3.5685,-9.2074,-0.53119,0.59162,-0.65057,-0.41966,-24.72,2.16,30.0
3.4459,-10.093,-0.8036,0.83078,-0.52748,-0.03879,-24.72,1.38,30.24
3.4187,-10.529,-0.81722,1.0241,-0.35919,0.39065,-24.72,0.6,30.42
3.228,-11.577,-0.96704,1.1839,-0.078191,0.84086,-24.66,-0.78,30.9
3.2553,-12.0,-0.98067,1.3008,0.26939,1.3076,-24.48,-1.2,30.9
3.3778,-12.231,-1.2803,1.3775,0.5736,1.7715,-24.36,-1.56,30.96
3.2689,-12.027,-1.9341,1.4233,0.82375,2.3066,-24.3,-1.56,30.84
3.1191,-11.754,-2.2065,1.4166,0.83658,2.5119,-24.24,-1.38,30.72
2.9556,-11.605,-2.152,1.3555,0.79535,2.6081,-24.24,-1.02,30.54
2.7649,-11.591,-1.9886,1.2822,0.78221,2.627,-23.88,0.06,30.18
2.7649,-11.618,-1.9341,1.1796,0.79687,2.602,-23.94,0.84,29.76
2.7649,-11.713,-1.9613,1.0724,0.84055,2.5833,-23.7,1.5,29.28
3.0101,-11.782,-2.1248,0.99357,0.88087,2.5873,-23.28,3.3,28.44
3.1872,-11.686,-2.152,0.87048,0.91141,2.6075,-22.92,4.08,28.08
3.3642,-11.155,-2.2337,0.84574,0.87415,2.5714,-22.5,5.22,27.78
3.4051,-9.507,-2.6151,0.85155,0.84849,2.5226,-22.02,6.3,27.24
3.4323,-8.6898,-2.7513,0.88575,0.67959,2.2691,-20.76,8.7,26.4
3.3915,-7.927,-2.833,0.83872,0.45662,2.058,-20.04,9.84,26.04
3.2961,-6.6059,-2.8875,0.79321,0.19395,1.8415,-18.24,11.76,25.26
3.1463,-6.1155,-2.7377,0.66829,-0.15302,1.5137,-17.4,12.78,24.84
2.9692,-5.6797,-2.7377,0.63835,-0.21564,1.409,-16.32,13.68,24.54
2.7649,-5.8023,-2.6015,0.52443,-0.2135,1.1249,-15.24,14.58,24.18
2.7241,-6.2245,-2.7104,0.43494,-0.10446,0.94959,-14.16,15.48,23.64
2.8194,-7.355,-2.7104,0.3036,0.040317,0.77397,-12.12,16.92,22.86
2.9284,-7.8317,-2.8875,0.19028,0.19792,0.58063,-11.1,17.52,22.56
3.1054,-8.4446,-2.9556,0.067501,0.3992,0.29963,-10.02,18.18,22.02
3.7047,-9.4934,-3.1054,0.048869,0.41294,0.20525,-8.28,19.44,21.24
4.1951,-10.215,-3.2825,0.03543,0.22235,0.0042761,-7.62,19.8,20.88
4.522,-10.637,-3.3778,0.029016,-0.077885,-0.10873,-6.96,20.16,20.58
4.7399,-11.141,-3.1599,-0.034514,-0.37018,-0.2697,-6.12,20.52,19.68
4.413,-11.032,-2.7513,-0.065363,-0.56474,-0.46426,-5.58,20.82,19.38
4.2904,-11.509,-2.1248,-0.0012217,-0.61728,-0.66248,-5.46,20.82,19.14
4.413,-13.089,-1.9477,-0.013744,-0.57727,-0.96578,-5.16,20.94,18.48
4.6445,-14.015,-1.975,-0.043982,-0.56719,-1.0873,-5.1,20.76,18.3
5.0259,-14.574,-2.1112,-0.20525,-0.67898,-1.2004,-5.22,20.7,18.3
5.4618,-13.648,-2.0839,-0.34697,-0.94684,-1.343,-5.46,20.34,18.06
5.1485,-12.122,-1.6617,-0.44104,-1.3311,-1.5391,-5.76,20.28,18.06
4.1542,-10.964,-0.35413,-0.4948,-1.715,-1.8528,-6.66,19.56,18.12
4.1406,-11.427,-0.40861,-0.50946,-1.7162,-2.0467,-7.2,19.14,18.12
4.4811,-11.972,-0.70826,-0.64691,-1.6799,-2.1585,-7.62,18.72,18.24
4.7535,-12.217,-0.83084,-0.72998,-1.6872,-2.1896,-8.28,18.3,18.42
4.9306,-12.122,-0.21793,-0.94928,-1.7859,-2.2776,-9.78,17.4,19.02
4.6309,-11.618,0.095342,-1.0852,-1.8109,-2.3512,-10.74,16.86,19.32
4.3994,-10.215,0.054481,-1.1753,-1.6909,-2.3747,-11.64,16.38,19.62
3.9227,-9.4934,0.14982,-1.2394,-1.4484,-2.4193,-13.62,15.0,20.46
3.6775,-8.9213,0.25879,-1.2565,-1.1261,-2.4945,-14.7,14.4,20.94
3.6503,-8.3084,0.24517,-1.2202,-0.61392,-2.6105,-15.72,13.56,21.42
3.4051,-7.3958,0.21793,-1.1319,-0.33506,-2.6567,-18.0,12.06,22.26
3.3778,-6.5786,0.24517,-1.0061,-0.12523,-2.6444,-19.02,11.1,22.62
3.337,-6.1292,0.068102,-0.85368,-0.000916,-2.5821,-20.04,10.14,22.98
3.8682,-5.5707,-0.054481,-0.66432,0.038179,-2.4865,-22.08,8.4,23.4
4.0725,-5.7886,-0.095342,-0.45387,-0.023213,-2.3644,-23.22,7.5,23.64
4.1406,-6.0611,-0.12258,-0.15363,-0.41203,-2.0589,-24.06,6.54,23.76
4.1951,-6.3198,-0.068102,0.031765,-0.71013,-1.8528,-25.44,4.44,23.76
4.018,-6.4424,-0.040861,0.21289,-0.93921,-1.6069,-26.04,3.42,24.0
3.8001,-6.6331,-0.1362,0.35461,-1.0156,-1.3308,-26.58,2.4,24.0
3.6366,-7.3822,-0.31327,0.51282,-0.96395,-0.9896,-27.36,0.3,24.12
3.7865,-8.0632,-0.40861,0.66584,-0.86224,-0.61942,-27.72,-0.48,24.18
4.0044,-8.717,-0.54481,0.82986,-0.71196,-0.20495,-28.02,-1.38,24.18
4.1814,-9.6977,-0.95342,1.088,-0.49297,0.3989,-28.38,-3.0,24.42
4.2495,-10.515,-1.362,1.2547,-0.40653,0.81215,-28.56,-3.72,24.54
3.9227,-11.673,-1.4574,1.361,-0.3372,1.2046,-28.56,-4.38,24.72
3.3097,-13.198,-1.0624,1.3848,-0.07422,1.8253,-28.68,-5.1,25.2
3.2144,-13.539,-0.8036,1.3094,0.28986,2.2743,-28.68,-5.28,25.38
3.2961,-13.511,-0.72188,1.2682,0.5116,2.4743,-28.74,-5.34,25.44
3.5277,-12.98,-1.2258,1.1915,1.1005,2.9841,-28.86,-4.86,25.86
3.6094,-12.326,-1.6208,1.1884,1.2376,3.146,-28.98,-4.56,25.86
3.623,-11.822,-1.7843,1.2055,1.2083,3.1609,-29.04,-3.78,25.86
3.5685,-11.741,-1.8932,1.2156,0.89736,3.0421,-28.8,-2.1,25.62
3.5685,-11.822,-1.58,1.1732,0.78007,2.9981,-28.68,-1.2,25.38
3.623,-11.822,-1.4029,1.0406,0.59254,2.9102,-28.32,-0.12,25.14
3.6366,-11.632,-1.1032,0.80787,0.46762,2.7697,-27.42,2.34,24.78
3.5004,-11.223,-1.2258,0.64966,0.49541,2.6386,-26.82,3.66,24.42
3.3642,-10.569,-1.471,0.53206,0.63347,2.4551,-26.22,5.04,24.0
3.1463,-9.4253,-1.7979,0.38729,0.90103,2.0953,-24.42,7.8,23.34
2.9556,-8.5808,-2.0022,0.29963,1.055,1.814,-23.4,9.24,23.04
3.0782,-7.7908,-1.8932,0.26176,1.1093,1.675,-22.32,10.56,22.74
2.9284,-6.6876,-1.7843,0.17898,1.2046,1.3069,-19.8,13.08,21.84
3.1872,-6.6876,-2.0567,0.15669,1.2245,1.157,-18.54,14.28,21.36
3.2553,-6.7693,-2.0567,0.068417,1.1377,0.99846,-17.22,15.12,21.0
3.2008,-6.3471,-1.9341,-0.058948,1.0501,0.85491,-14.82,17.16,20.28
3.1054,-6.3743,-1.8251,-0.14752,1.0211,0.66035,-13.62,18.0,19.92
3.1191,-6.7285,-1.9613,-0.15394,1.0342,0.55589,-12.6,18.84,19.56
3.228,-7.1507,-2.1656,-0.16188,1.0223,0.44746,-11.46,19.56,19.14
3.5277,-8.0905,-2.6832,-0.16677,0.97097,0.35094,-9.6,20.82,18.18
3.7728,-8.4719,-2.9011,-0.14905,0.86712,0.26512,-8.82,21.42,17.82
4.0997,-9.0303,-3.0782,-0.11545,0.6524,0.19426,-8.16,21.9,17.4
4.4266,-9.2618,-3.051,-0.032987,0.22602,0.088575,-6.96,22.68,16.56
4.5083,-9.1937,-3.0918,0.016188,-0.094379,-0.0073304,-6.48,23.04,16.32
4.4266,-9.221,-3.0237,0.041844,-0.23518,-0.090408,-6.12,23.34,15.9
4.127,-9.9156,-2.7513,0.12645,-0.51252,-0.38485,-5.52,23.88,15.54
3.9908,-11.414,-2.4108,0.17196,-0.50946,-0.58765,-5.22,24.06,15.3
4.1814,-12.762,-2.3155,0.15027,-0.40256,-0.74037,-5.1,24.24,15.06
5.0531,-15.282,-2.547,0.0088575,-0.2193,-0.89247,-4.98,24.3,14.52
5.4618,-15.936,-2.5198,-0.18906,-0.17501,-1.0211,-4.98,24.36,14.16
5.5707,-15.677,-2.3427,-0.40287,-0.21319,-1.2407,-5.04,24.3,13.98
5.1349,-12.817,-2.0022,-0.54123,-0.39981,-1.5595,-5.4,24.12,13.74
4.5764,-11.237,-1.2803,-0.63927,-0.64538,-1.9615,-5.76,23.94,13.74
4.1542,-10.46,-0.54481,-0.56077,-0.84544,-2.2978,-6.24,23.76,13.68
4.7126,-12.027,-0.70826,-0.53054,-1.1035,-2.6588,-7.62,23.22,13.68
5.0259,-12.572,-0.85808,-0.65699,-1.2278,-2.7666,-8.34,22.8,13.68
5.0668,-12.694,-0.78998,-0.70769,-1.2611,-2.8436,-9.24,22.32,13.92
4.7671,-12.463,-0.51757,-0.70708,-1.2086,-2.8964,-10.32,21.72,14.16
4.0861,-10.951,-0.25879,-0.71654,-1.0562,-2.9132,-12.72,20.46,14.7
3.8546,-10.025,-0.16344,-0.72174,-0.86437,-2.9074,-13.86,19.74,15.0
3.7047,-8.8396,-0.054481,-0.71471,-0.74098,-2.894,-16.68,18.18,15.84
3.5004,-8.4719,0.040861,-0.70219,-0.69669,-2.8301,-18.0,17.34,16.32
3.3506,-8.1722,0.040861,-0.68447,-0.68356,-2.744,-19.5,16.32,16.8
2.8058,-6.8647,0.027241,-0.64782,-0.6243,-2.5885,-22.38,14.28,17.52
2.5061,-6.1836,0.054481,-0.58521,-0.5455,-2.4593,-23.7,13.08,18.0
2.2746,-5.6524,0.10896,-0.48442,-0.43402,-2.3152,-24.9,11.88,18.42
2.0567,-5.2166,0.068102,-0.29108,-0.31185,-2.0525,-27.24,9.54,19.14
2.1929,-5.1485,-0.17706,-0.14325,-0.32987,-1.8185,-28.32,8.28,19.5
2.3155,-5.3119,-0.054481,-0.07422,-0.35583,-1.6689,-29.22,7.02,19.92
2.547,-5.8431,-0.095342,0.16554,-0.54214,-1.1979,-30.66,4.74,20.4
2.5061,-6.5378,-0.19068,0.33353,-0.6747,-0.81184,-31.2,3.66,20.64
2.5061,-7.3141,-0.16344,0.49572,-0.75564,-0.37751,-31.74,2.52,21.0
2.833,-8.6625,-0.24517,0.65271,-0.77274,0.33017,-32.4,0.42,21.6
2.9829,-9.3572,-0.38137,0.86834,-0.64691,0.84238,-32.7,-0.54,22.02
3.1327,-10.011,-0.42223,1.0464,-0.49755,1.3146,-32.94,-1.26,22.32
3.9499,-12.19,-0.61292,1.2312,-0.36835,1.7724,-33.18,-2.7,22.98
4.1542,-13.348,-0.70826,1.3601,-0.32742,2.1438,-33.24,-2.88,23.16
3.9363,-14.642,-0.64016,1.431,-0.23243,2.4493,-33.18,-3.12,23.4
3.5413,-16.494,0.58567,1.1704,0.23579,2.8332,-33.06,-3.0,23.88
3.4459,-15.786,1.2531,0.86743,0.76053,3.0,-33.12,-2.52,24.06
3.4187,-14.792,1.1986,0.64874,1.3564,3.1139,-32.94,-1.98,23.94
3.514,-12.994,0.12258,0.56169,1.8741,3.1423,-32.7,-0.3,23.88
3.5685,-12.326,-0.38137,0.59743,2.1964,3.134,-32.58,0.66,23.76
3.9499,-12.286,-0.92618,0.71868,2.2495,3.1169,-32.28,1.86,23.64
4.3994,-12.572,-1.2395,0.81489,2.0498,3.1127,-31.8,3.12,23.34
4.9578,-12.435,-1.5119,0.81551,1.3479,2.9584,-30.6,6.0,22.44
5.0259,-11.182,-1.5119,0.78618,1.0724,2.8787,-29.58,7.44,21.84
4.699,-10.515,-1.471,0.67867,0.29902,2.5385,-28.38,9.24,21.36
4.2495,-9.8884,-1.7434,0.58063,0.16127,2.3008,-27.42,10.86,20.82
3.6094,-8.4719,-2.2746,0.49755,0.28711,2.0507,-24.9,13.92,19.56
3.3506,-7.927,-2.547,0.36163,0.5849,1.7382,-23.4,15.3,18.96
3.0646,-6.7966,-2.3836,0.10446,1.1512,1.3234,-20.34,18.06,17.4
3.1872,-6.2517,-2.0567,0.015577,1.3057,1.211,-18.84,19.38,16.92
3.228,-6.0338,-1.8932,-0.13164,1.5281,1.0369,-17.22,20.46,16.32
3.6775,-6.0338,-1.866,-0.25229,1.6255,0.78252,-14.04,22.38,15.3
3.8001,-6.5378,-1.7843,-0.31001,1.5815,0.62308,-12.36,23.22,14.76
3.8818,-6.9328,-1.975,-0.37599,1.5134,0.44899,-11.04,24.0,14.34
3.7184,-7.4231,-2.3699,-0.41844,1.4065,0.29016,-8.28,25.38,13.5
3.8409,-7.9407,-2.4517,-0.41783,1.3131,0.16035,-7.2,26.1,13.2
4.0861,-8.9349,-2.6015,-0.3766,1.1457,0.0036652,-6.18,26.4,12.9
4.3858,-9.8066,-2.9556,-0.41356,0.97036,-0.10385,-4.38,27.36,12.54
4.3449,-9.3436,-2.8875,-0.44807,0.74617,-0.2248,-3.66,27.66,12.3
4.1542,-9.1529,-2.7104,-0.39584,0.50824,-0.35125,-3.06,28.08,12.12
4.0861,-9.0848,-2.8194,-0.30146,0.28436,-0.48808,-2.1,28.26,12.0
4.1678,-9.0984,-2.8058,-0.18784,-0.036041,-0.67837,-1.8,28.38,11.94
4.2495,-9.3844,-2.7649,-0.13256,-0.13225,-0.73182,-1.62,28.5,11.76
4.5083,-10.896,-2.2337,-0.0097738,-0.37171,-0.85307,-1.44,28.68,11.52
4.699,-12.0,-2.1384,0.030238,-0.48258,-0.87629,-1.5,28.68,11.46
5.094,-13.076,-2.2337,0.040623,-0.5678,-0.90133,-1.56,28.68,11.34
6.0066,-14.982,-2.2882,0.012828,-0.68509,-0.92882,-2.1,28.62,11.28
6.3062,-14.601,-2.3427,-0.073609,-0.88759,-1.0159,-2.52,28.5,11.34
6.0202,-13.293,-2.1384,-0.2135,-1.2062,-1.2587,-3.06,28.32,11.34
5.5162,-11.945,-1.6889,-0.33964,-1.6435,-1.8161,-3.78,28.08,11.22
4.9714,-12.054,-0.61292,-0.36652,-1.777,-2.1783,-5.22,27.48,11.4
4.9987,-13.157,-0.64016,-0.45571,-1.8744,-2.5171,-6.36,27.12,11.64
4.7535,-13.607,-0.83084,-0.65057,-1.8857,-2.7361,-8.64,26.52,12.24
4.4266,-13.116,-0.68102,-0.83597,-1.5864,-2.9566,-9.9,25.92,12.54
4.2495,-12.667,-0.44947,-0.91355,-1.2688,-3.0675,-11.22,25.44,13.02
3.8273,-11.182,-0.16344,-0.95081,-0.97128,-3.156,-14.4,24.18,14.04
3.5822,-10.256,-0.24517,-0.96914,-0.75106,-3.2174,-16.08,23.46,14.52
3.4323,-9.3708,-0.23155,-0.96333,-0.57024,-3.1905,-17.76,22.62,15.12
3.0646,-7.7636,-0.12258,-0.93035,-0.42577,-3.0989,-21.18,20.76,16.26
2.9284,-7.1915,-0.027241,-0.81825,-0.30421,-2.9893,-22.86,19.62,16.8
2.6968,-6.4969,-0.027241,-0.69944,-0.2306,-2.832,-24.6,18.54,17.4
2.2882,-5.3119,0.027241,-0.54917,-0.17013,-2.6243,-27.66,15.96,18.72
2.1929,-4.8352,0.027241,-0.35949,-0.15944,-2.3763,-29.16,14.64,19.26
2.152,-4.522,-0.068102,-0.16096,-0.21105,-2.0919,-30.42,13.14,19.62
2.1929,-4.4266,-0.16344,0.036957,-0.32926,-1.7593,-32.58,10.08,20.1
2.3018,-4.7671,-0.25879,0.32651,-0.59132,-1.2233,-33.42,8.7,20.22
2.5061,-5.2711,-0.21793,0.41172,-0.68142,-1.0259,-34.2,7.14,20.58
2.4789,-6.5105,-0.14982,0.61025,-0.91202,-0.4273,-35.16,4.2,21.06
2.4244,-7.2869,-0.21793,0.72021,-0.96059,-0.007025,-35.52,2.88,21.3
2.5061,-8.036,-0.44947,0.82681,-0.91447,0.44532,-35.82,1.62,21.6
3.0782,-10.147,-0.91256,0.96608,-0.81153,1.1585,-36.12,-0.48,22.26
3.4187,-11.101,-1.1713,1.182,-0.67806,1.6093,-36.24,-1.26,22.68
3.5822,-12.04,-1.3212,1.2452,-0.64141,1.8298,-36.24,-1.86,22.92
3.6094,-12.858,-1.2667,1.3295,-0.55314,2.2345,-36.24,-2.34,23.1
3.7592,-14.642,-1.3757,1.3323,-0.3708,2.711,-36.36,-2.64,23.58
3.8137,-15.418,-0.91256,1.2321,-0.13347,2.9212,-36.18,-2.46,23.88
3.5958,-15.704,-0.54481,1.0146,0.53451,3.2168,-36.06,-1.26,24.42
3.9635,-15.895,-0.74912,0.93157,0.98563,3.4178,-36.0,-0.36,24.66
4.3994,-15.418,-1.1986,0.91844,1.1451,3.4847,-35.76,0.78,24.72
4.7671,-13.471,-1.757,0.9218,1.2636,3.4896,-35.28,2.1,24.78
4.8488,-12.708,-1.9341,0.95753,1.0968,3.3042,-34.8,3.6,24.66
4.7399,-11.836,-1.9613,0.94165,0.76083,3.0045,-33.66,6.9,24.24
4.1678,-10.924,-1.6753,0.79901,0.27367,2.4001,-32.04,10.32,23.76
3.9499,-10.624,-1.6208,0.69639,0.20006,2.0259,-31.02,12.18,23.34
3.1735,-9.3844,-1.7706,0.42791,0.57269,1.5388,-27.3,17.28,22.62
2.8603,-8.7034,-1.8251,0.33109,0.8042,1.4001,-26.04,18.96,22.2
2.7241,-7.7227,-1.7434,0.15974,1.3002,1.1466,-24.78,20.58,21.84
2.6151,-6.6604,-1.7298,0.0281,1.7355,0.96883,-21.9,23.16,21.06
2.8194,-5.8704,-1.8115,-0.062003,2.0418,0.82986,-18.96,25.38,20.34
3.1191,-5.6661,-1.7706,-0.1463,2.1777,0.71257,-16.62,27.0,19.62
3.1463,-5.4073,-1.5391,-0.27947,2.1619,0.60598,-14.22,28.2,19.02
3.3915,-5.3392,-1.4165,-0.31032,2.0779,0.59498,-12.3,29.04,18.3
3.7047,-5.775,-1.5663,-0.29902,1.8983,0.5565,-10.68,29.82,17.4
3.9635,-6.851,-1.8387,-0.26939,1.6411,0.55436,-9.18,30.24,16.62
4.0044,-7.0553,-1.9068,-0.24404,1.3381,0.55772,-8.04,30.66,15.9
4.0044,-7.5593,-2.1384,-0.19273,1.091,0.53726,-7.44,30.96,15.48
3.8954,-8.322,-2.2882,-0.097738,0.91049,0.49388,-6.48,31.32,15.0
4.0589,-8.9758,-2.6015,0.049786,0.67592,0.35033,-5.58,31.62,14.4
4.1951,-9.2482,-2.9284,0.1518,0.45296,0.24709,-5.04,31.8,14.16
4.127,-9.5206,-3.3234,0.22022,0.17287,0.12523,-4.32,32.04,13.62
4.018,-9.3299,-3.4459,0.23305,-0.085827,-0.02474,-3.78,32.28,13.26
4.0316,-9.1801,-3.4187,0.23671,-0.26359,-0.18357,-3.42,32.22,13.02
4.2632,-9.3708,-3.6094,0.2306,-0.38057,-0.33811,-3.18,32.4,12.54
4.413,-9.9973,-3.9227,0.20861,-0.59254,-0.53878,-3.3,32.52,12.3
4.4811,-10.815,-3.6639,0.14172,-0.67165,-0.70708,-3.3,32.34,12.12
4.5901,-11.686,-3.2144,0.050091,-0.60751,-0.84452,-3.42,32.28,11.76
4.7399,-13.198,-2.6287,-0.080023,-0.39615,-0.94684,-3.9,32.16,11.4
5.6388,-14.996,-2.6287,-0.20678,-0.19151,-1.0085,-4.62,31.98,11.22
6.17,-15.377,-3.0101,-0.31215,-0.14569,-1.0336,-5.1,31.8,11.16
6.5241,-14.846,-3.4187,-0.43524,-0.48197,-1.2324,-5.94,31.56,11.1
5.8431,-12.286,-2.833,-0.53359,-0.86621,-1.5507,-7.08,31.2,11.28
5.3528,-11.7,-2.5061,-0.58185,-1.0785,-1.9245,-7.68,31.02,11.46
5.1349,-12.149,-2.0839,-0.67745,-1.2156,-2.3182,-9.3,30.42,11.76
4.9987,-12.926,-1.7434,-0.79168,-1.3583,-2.5965,-11.16,29.58,12.3
4.9169,-12.83,-1.5391,-0.92088,-1.4371,-2.8033,-12.12,29.16,12.54
4.4675,-12.095,-1.1169,-0.99907,-1.3445,-2.923,-14.64,28.26,13.5
4.2904,-11.741,-1.1032,-0.96333,-1.2016,-3.0189,-15.96,27.6,14.04
4.1133,-10.447,-1.0488,-0.8882,-1.018,-3.0497,-18.78,26.34,15.0
3.8954,-9.3844,-0.70826,-0.81337,-0.96608,-3.073,-21.84,25.08,15.84
3.3097,-8.036,-0.39499,-0.75808,-0.91447,-3.0644,-25.2,23.28,17.16
3.1327,-7.5865,-0.23155,-0.71899,-0.77702,-3.0476,-26.82,22.5,17.58
2.6968,-6.7421,0.040861,-0.65424,-0.62766,-2.9548,-30.0,20.76,18.42
2.3563,-5.8431,0.12258,-0.52198,-0.48808,-2.7935,-33.0,18.66,19.08
1.8932,-4.9306,0.054481,-0.38668,-0.33506,-2.5397,-35.64,16.5,20.1
1.9477,-4.6309,0.054481,-0.24221,-0.18815,-2.2749,-36.78,15.42,20.4
1.7979,-4.0589,0.081722,-0.087048,-0.15485,-1.9911,-38.82,12.9,20.94
1.7025,-4.0861,0.081722,0.079718,-0.20403,-1.6399,-39.6,11.64,21.06
2.0567,-4.3994,0.054481,0.24435,-0.29749,-1.0021,-40.98,9.24,21.78
2.6968,-5.0259,-0.19068,0.50641,-0.55589,-0.53451,-42.12,6.78,22.14
2.8058,-5.3528,-0.34051,0.67898,-0.76938,-0.059254,-42.48,5.7,22.38
3.0782,-6.6604,-0.46309,0.85918,-0.91019,0.39645,-43.26,3.66,23.16
3.7047,-8.145,-0.6674,1.0266,-0.97861,0.81886,-43.8,2.04,23.76
4.1814,-9.398,-1.0624,1.193,-1.0657,1.1949,-44.16,1.02,24.24
4.2632,-10.025,-1.2122,1.3497,-1.1558,1.5195,-44.34,0.6,24.42
4.304,-11.918,-1.4574,1.5632,-1.1637,1.9349,-44.58,0.54,25.02
4.2223,-13.607,-1.5119,1.6545,-1.0107,2.2003,-44.7,0.84,25.74
4.0589,-14.669,-1.471,1.6747,-0.69028,2.448,-44.7,1.26,25.86
3.8682,-16.235,-1.0896,1.6338,-0.2025,2.6951,-44.76,2.58,26.58
4.1542,-17.23,-0.76274,1.5168,0.38515,2.9572,-44.64,4.62,26.76
4.3721,-16.753,-1.0896,1.3903,0.89919,3.175,-44.34,5.7,26.82
4.5628,-14.41,-1.8524,1.3033,1.1964,3.2706,-43.44,8.1,26.76
4.3858,-12.476,-2.1384,1.2049,1.2694,3.0983,-42.42,10.86,26.52
4.1542,-11.768,-2.0839,1.1484,1.1118,2.81,-41.7,12.36,26.34
3.8954,-11.809,-1.975,1.0855,0.86346,2.4957,-40.02,15.42,25.8
3.8001,-11.863,-2.0567,0.92271,0.67867,2.2266,-37.92,18.42,25.44
3.7456,-11.509,-2.0158,0.67195,0.60812,1.9648,-36.6,19.86,24.9
3.3097,-10.065,-1.9613,0.3262,0.82589,1.6405,-33.84,22.8,24.06
3.0646,-9.5342,-1.8932,0.12339,1.1848,1.4041,-32.4,24.18,23.4
2.4517,-7.8453,-1.866,-0.040012,1.6448,1.1982,-29.1,26.58,22.68
2.6696,-7.0962,-1.9886,-0.13592,2.0351,1.0119,-26.04,28.92,21.84
2.7649,-6.456,-2.0703,-0.21838,2.2956,0.86437,-24.54,29.82,21.3
3.1191,-6.0883,-1.9886,-0.28711,2.452,0.80146,-21.48,31.62,20.58
3.4459,-5.5843,-2.0294,-0.34025,2.4358,0.74831,-18.78,33.06,19.8
3.8001,-5.1213,-1.9886,-0.34606,2.1197,0.69914,-16.26,34.2,18.84
4.0044,-5.0531,-2.2065,-0.28161,1.7208,0.67256,-15.06,34.68,18.24
4.1406,-5.6116,-2.4517,-0.17837,1.2193,0.63866,-13.2,35.7,17.28
3.9227,-6.1836,-2.6015,-0.15211,0.78191,0.59315,-11.4,36.3,16.56
3.7865,-6.3335,-2.6696,-0.13134,0.49052,0.50335,-10.14,36.9,15.84
3.732,-7.069,-2.833,-0.026573,0.219,0.37629,-9.42,37.14,15.48
3.6094,-8.2948,-3.0646,0.0018326,0.12706,0.26634,-8.4,37.62,14.88
3.8137,-9.4389,-3.0918,0.01405,0.073915,0.16768,-7.38,37.92,14.28
4.0316,-10.174,-3.1872,0.007025,0.025351,0.045509,-6.66,38.04,13.92
4.0316,-10.025,-3.1191,-0.055894,-0.022907,-0.089492,-6.42,38.22,13.86
3.9635,-9.4389,-3.0373,-0.060476,-0.098655,-0.25045,-6.06,38.58,13.68
4.1133,-9.902,-3.0373,0.060781,-0.29138,-0.48289,-5.88,38.64,13.44
4.2359,-10.324,-2.9965,0.087048,-0.41264,-0.62858,-6.06,38.7,13.56
4.3585,-11.945,-2.833,0.098655,-0.47586,-0.74862,-6.24,39.0,13.5
4.7535,-14.383,-2.4108,0.067195,-0.45479,-0.86163,-6.6,39.06,13.2
4.8761,-14.901,-2.5198,-0.12462,-0.36744,-1.0088,-7.02,39.12,13.14
5.3937,-14.655,-2.3155,-0.33201,-0.33139,-1.1918,-8.04,39.18,13.14
5.094,-13.471,-2.3699,-0.43891,-0.42974,-1.4291,-9.42,39.06,13.2
4.9578,-12.667,-2.1656,-0.56719,-0.65607,-1.8598,-10.2,39.12,13.38
4.5764,-11.877,-1.1169,-0.57452,-0.83078,-2.1279,-12.12,38.64,13.68
4.5628,-12.177,-0.7355,-0.55497,-0.93279,-2.3451,-13.14,38.4,13.92
4.8352,-12.667,-1.0896,-0.57971,-1.0855,-2.4459,-15.6,37.92,14.88
4.7807,-12.354,-1.185,-0.61697,-1.2483,-2.4984,-18.48,37.14,15.6
4.6037,-11.863,-1.1169,-0.61025,-1.2944,-2.5036,-20.04,36.6,16.2
4.0589,-10.392,-0.84446,-0.56322,-1.0941,-2.5815,-23.46,35.22,17.7
3.8409,-9.5342,-0.64016,-0.56413,-0.83475,-2.6664,-27.06,33.54,19.38
3.732,-8.717,-0.57205,-0.57635,-0.70127,-2.7932,-30.54,31.62,21.12
3.6503,-7.8998,-0.65378,-0.59101,-0.68173,-2.8943,-34.32,29.28,22.74
3.732,-7.7091,-0.61292,-0.62094,-0.67714,-2.9575,-36.0,27.9,23.64
3.337,-6.851,-0.53119,-0.63163,-0.72846,-3.0027,-39.54,25.38,25.44
2.9965,-6.5105,-0.53119,-0.58826,-0.67165,-2.9022,-42.36,22.26,27.06
2.8194,-6.1836,-0.54481,-0.52565,-0.56749,-2.7547,-43.68,20.52,27.96
2.7377,-5.7342,-0.55843,-0.40592,-0.48228,-2.5461,-45.9,17.04,29.7
3.1463,-5.3664,-0.78998,-0.25931,-0.45418,-2.2413,-47.76,13.44,31.14
3.3234,-5.0395,-0.76274,-0.093768,-0.49877,-1.9181,-49.08,9.78,32.28
3.4459,-4.9987,-0.77636,0.089186,-0.59162,-1.5663,-49.44,7.92,32.94
3.6094,-5.0259,-0.91256,0.36072,-0.75136,-0.99327,-49.86,4.38,34.38
3.5822,-4.9714,-1.0488,0.5116,-0.81764,-0.61606,-50.1,2.64,35.16
3.6366,-4.9306,-1.185,0.65118,-0.81184,-0.26664,-50.22,-0.6,36.36
3.7047,-5.0259,-1.4574,0.77916,-0.7758,0.034208,-49.92,-1.98,36.96
3.9363,-5.2847,-1.4438,0.89706,-0.72632,0.31246,-49.86,-3.18,37.62
4.6718,-6.2517,-2.0839,1.0091,-0.68539,0.57146,-49.56,-5.16,38.94
5.0804,-6.9736,-2.3427,1.1102,-0.71257,0.80451,-49.26,-5.82,39.66
5.1894,-7.4367,-2.3155,1.2077,-0.81917,0.98258,-48.9,-6.36,40.26
4.9306,-8.2948,-2.438,1.3256,-1.0043,1.2092,-48.54,-6.84,41.52
4.6718,-9.5615,-2.6423,1.412,-1.0443,1.3635,-48.24,-6.84,42.42
4.5083,-10.774,-2.9556,1.4645,-1.0119,1.5516,-47.94,-6.66,43.14
4.2087,-12.381,-3.0918,1.4838,-0.88026,1.81,-47.52,-5.52,44.4
3.9771,-13.103,-2.6968,1.463,-0.5849,2.0705,-47.22,-4.62,44.94
3.9908,-13.838,-2.4108,1.4447,-0.16066,2.3048,-46.8,-3.6,45.48
3.9635,-15.909,-1.8387,1.3045,0.59987,2.6848,-46.14,-0.84,46.32
4.1406,-16.481,-1.6072,1.1713,1.0672,2.9205,-46.02,0.6,46.8
4.5083,-16.413,-1.866,1.0812,1.3506,3.1319,-45.78,2.28,47.04
5.1349,-14.002,-2.6287,0.98991,1.3014,3.2052,-45.0,6.06,46.74
5.0668,-12.381,-2.8603,0.95753,1.1677,3.1426,-44.7,8.16,46.44
4.8216,-11.278,-2.7649,0.86987,0.75869,2.8827,-44.28,10.32,46.2
4.0316,-10.964,-2.2337,0.69883,0.19303,2.3714,-42.66,14.82,45.42
3.5004,-10.665,-1.9886,0.47709,0.10171,2.0134,-41.76,17.16,44.82
3.2008,-9.9292,-1.757,0.22083,0.29535,1.6842,-40.74,19.44,44.34
2.833,-8.7034,-1.4846,-0.10843,0.97891,1.2788,-38.4,23.76,43.26
2.8058,-8.1586,-1.4165,-0.29963,1.5119,0.99754,-37.08,25.74,42.66
2.7377,-7.8862,-1.5391,-0.48533,1.9875,0.73059,-35.82,27.66,42.06
2.8739,-7.0826,-1.5119,-0.6014,2.3482,0.49358,-33.0,30.78,40.8
3.0646,-6.674,-1.3757,-0.67592,2.595,0.29474,-31.56,32.28,40.08
3.1735,-6.279,-1.2258,-0.70585,2.7074,0.13408,-30.3,33.54,39.42
3.4732,-5.8976,-1.1441,-0.69364,2.7107,0.0281,-27.96,35.52,38.4
3.6094,-5.8295,-1.2258,-0.63805,2.4493,-0.083994,-26.7,36.12,37.86
3.7456,-5.6524,-1.2531,-0.60812,2.3014,-0.10537,-25.8,36.6,37.32
3.7456,-5.6388,-1.2803,-0.4725,1.762,-0.11729,-24.42,37.38,36.12
3.7047,-5.8023,-1.4301,-0.3711,1.3967,-0.11545,-23.88,37.38,35.52
3.4868,-6.5105,-1.5527,-0.2697,1.1151,-0.12034,-23.52,37.44,34.86
3.337,-7.5321,-1.7298,-0.1744,0.90591,-0.12767,-23.28,37.5,33.48
3.2961,-7.9679,-1.9477,-0.061697,0.72907,-0.12309,-23.4,37.32,32.76
3.2825,-8.1858,-2.2337,0.030543,0.65027,-0.11026,-23.52,37.14,32.1
3.3506,-8.8941,-2.7649,0.097128,0.56719,-0.10782,-24.0,36.96,30.84
3.514,-8.9758,-2.8739,0.1573,0.45387,-0.10263,-24.18,36.78,30.12
3.5277,-9.0167,-3.1463,0.24038,0.25504,-0.10996,-24.42,36.6,29.52
3.514,-9.1393,-3.5958,0.35033,-0.14966,-0.10751,-24.84,36.24,28.56
3.4459,-9.1256,-3.7728,0.41508,-0.42883,-0.1011,-25.26,36.12,28.14
3.2416,-9.2074,-4.018,0.44257,-0.54611,-0.094379,-25.56,35.94,27.66
2.9011,-9.8748,-3.8682,0.45632,-0.71654,-0.092241,-25.98,35.7,27.18
2.7513,-10.283,-3.6503,0.42211,-0.62125,-0.081551,-26.4,35.76,27.06
2.6423,-10.855,-3.4323,0.36316,-0.41172,-0.067806,-26.58,35.58,26.94
2.9284,-11.754,-3.0373,0.30727,-0.19212,-0.044288,-27.06,35.28,26.58
3.3778,-12.871,-2.5334,0.36652,-0.0015272,0.057421,-27.3,35.16,26.34
3.9771,-14.492,-2.3427,0.3769,-0.0024435,0.11484,-27.42,35.16,26.34
4.808,-14.928,-2.5061,0.22113,-0.16371,0.3204,-28.02,34.98,26.16
4.985,-13.661,-2.6968,0.28253,-0.41081,0.40012,-28.32,34.92,26.22
5.0531,-12.149,-2.9556,0.35216,-0.78802,0.36682,-28.32,34.86,26.22
4.5764,-9.5479,-2.8058,0.29444,-1.4303,0.14111,-28.38,34.68,26.34
4.4811,-9.0575,-2.1384,0.1967,-1.7578,-0.013439,-28.5,34.68,26.46
4.413,-8.8941,-1.362,0.14355,-1.9914,-0.22266,-28.44,34.56,26.7
4.304,-9.1256,-0.72188,0.089797,-2.0559,-0.31887,-28.5,34.56,26.94
4.2632,-9.7522,-0.7355,-0.09163,-2.0733,-0.57116,-28.56,34.02,27.78
4.2495,-9.7385,-0.85808,-0.27703,-1.9371,-0.71716,-28.62,33.84,28.32
4.1542,-9.507,-0.96704,-0.45326,-1.7028,-0.86865,-28.68,33.36,29.88
4.4675,-8.8668,-0.99429,-0.66218,-1.1897,-1.0913,-28.8,32.88,30.96
4.6854,-8.4446,-0.89894,-0.70738,-1.0198,-1.1539,-28.86,32.4,31.86
4.9987,-8.0224,-1.0079,-0.76877,-0.76114,-1.2868,-28.92,31.74,32.94
5.7478,-7.3686,-0.7355,-0.81703,-0.70952,-1.5183,-29.22,30.42,35.22
6.2245,-6.8783,-0.054481,-0.77549,-0.88575,-1.6777,-29.64,29.58,36.36
6.6331,-6.7557,0.12258,-0.7141,-1.182,-1.7828,-29.94,28.68,37.68
6.5514,-6.279,0.027241,-0.60353,-1.6454,-1.9141,-30.6,26.58,40.02
6.3471,-6.3743,0.027241,-0.53726,-1.7483,-2.0229,-30.9,25.32,41.22
6.3471,-6.4833,0.068102,-0.45937,-1.6692,-2.1316,-31.14,24.06,42.36
6.5105,-7.2052,0.054481,-0.36316,-1.5562,-2.2153,-31.56,21.3,44.58
6.7148,-7.6683,-0.1362,-0.22907,-1.5211,-2.2419,-31.92,19.8,45.72
6.8374,-7.8998,-0.24517,-0.12553,-1.5498,-2.2416,-31.98,18.18,46.74
6.7421,-8.0769,-0.31327,-0.018631,-1.565,-2.2468,-32.1,15.12,48.42
6.6059,-8.1177,-0.24517,0.10873,-1.5229,-2.2284,-32.04,13.44,49.32
6.2926,-8.1041,-0.39499,0.14111,-1.4856,-2.2168,-32.1,11.94,50.16
5.5026,-7.7364,-0.50395,0.22449,-1.2886,-2.1435,-31.32,9.06,51.6
4.9714,-7.5457,-0.65378,0.31368,-1.1264,-2.0687,-30.72,7.62,52.26
4.8488,-7.3958,-0.92618,0.42486,-1.0061,-1.9624,-30.42,6.12,52.8
4.413,-7.2324,-1.4846,0.62247,-0.87934,-1.7254,-29.1,3.54,54.12
4.3585,-7.0417,-1.6753,0.75503,-0.83017,-1.5437,-28.38,2.52,54.72
4.2904,-7.0553,-1.7706,0.87598,-0.82925,-1.3473,-27.48,1.44,55.26
3.8818,-7.246,-2.0839,0.9896,-0.87995,-1.1393,-25.74,-0.36,56.04
3.514,-7.5457,-2.5742,1.0345,-0.90836,-1.0269,-24.66,-1.14,56.4
3.2553,-7.8589,-2.9829,1.0901,-1.0934,-0.60995,-23.64,-1.74,56.58
3.0373,-8.3901,-3.1735,1.0516,-1.3207,-0.071777,-22.56,-2.04,56.76
2.5334,-9.0848,-2.7649,0.99938,-1.3222,0.1179,-20.58,-2.52,57.18
2.3155,-9.5479,-2.5198,0.95142,-1.0736,0.77549,-19.44,-2.7,57.3
2.1929,-9.7522,-2.5742,0.90988,-0.93615,0.99693,-18.48,-2.64,57.3
1.8524,-9.4798,-2.9965,0.83383,-0.45235,1.5699,-16.8,-2.28,57.36
1.9613,-9.7385,-3.4459,0.85949,-0.19823,1.9068,-15.78,-1.8,57.36
2.2065,-9.6977,-4.0861,0.82467,-0.05681,2.1371,-15.12,-1.14,57.36
2.547,-9.2346,-3.9908,0.6689,-0.039401,2.2578,-13.8,-0.06,57.3
2.5061,-9.1256,-3.5277,0.61942,-0.054062,2.2449,-13.32,0.6,57.18
2.6423,-9.4525,-3.1872,0.58949,-0.068111,2.2199,-12.78,1.32,57.12
2.656,-10.243,-2.4244,0.45021,-0.045509,2.1457,-11.94,2.7,57.3
2.7513,-10.651,-2.0703,0.32742,0.058338,2.087,-11.64,3.3,57.48
2.9965,-10.801,-1.9477,0.16707,0.43402,1.9966,-10.98,4.56,57.78
3.2144,-10.692,-2.0703,0.10415,0.71105,1.9068,-10.62,5.16,58.08
3.3778,-10.256,-2.1929,0.032987,0.92424,1.8033,-10.14,5.94,58.44
3.4732,-9.8066,-2.3427,0.015272,0.97464,1.7419,-9.72,6.48,58.86
3.6911,-8.9486,-2.2337,0.099266,0.87293,1.5568,-9.24,7.08,59.04
3.7865,-8.2812,-1.9613,0.19609,0.65546,1.4361,-8.34,8.04,59.4
4.0589,-8.2403,-1.7434,0.31307,0.40561,1.3222,-7.74,8.4,59.52
4.3177,-8.3629,-1.9886,0.42302,0.18601,1.2599,-6.48,9.24,60.0
4.2223,-8.4991,-2.3427,0.52229,-0.047647,1.1664,-5.88,9.48,60.06
4.018,-8.5127,-2.6151,0.55955,-0.25595,1.0803,-5.22,9.9,60.06
3.9908,-8.54,-2.8739,0.62094,-0.39004,0.95203,-4.5,10.44,60.06
4.0452,-8.3357,-3.3097,0.63408,-0.46242,0.88942,-3.06,11.46,59.64
4.2087,-8.4038,-3.5549,0.67714,-0.62247,0.83017,-2.28,11.88,59.46
4.4811,-8.5536,-4.0589,0.69944,-0.84269,0.76511,-1.56,12.3,59.22
4.5356,-8.4855,-4.304,0.62553,-1.2297,0.63988,-0.12,13.14,58.38
4.413,-8.3629,-4.2904,0.58796,-1.3412,0.57666,0.54,13.56,58.02
4.2223,-8.1586,-4.2087,0.42791,-1.5369,0.33689,1.26,13.86,57.66
3.8273,-8.0496,-3.9499,0.31612,-1.5217,0.15027,2.64,14.46,57.06
3.5413,-8.4719,-3.7047,0.21472,-1.4227,-0.039401,3.48,14.88,56.76
3.6094,-9.6704,-3.3506,0.018631,-1.1405,-0.30238,4.92,15.48,56.34
3.9635,-10.515,-3.2825,-0.13317,-0.95203,-0.45479,5.7,15.78,56.1
4.2359,-10.992,-3.1735,-0.26909,-0.82864,-0.58918,6.54,15.9,56.04
4.413,-11.196,-3.0782,-0.37171,-0.75595,-0.7025,7.26,16.02,55.86
4.6854,-11.673,-2.8875,-0.49572,-0.69852,-0.8042,8.76,16.2,55.68
4.699,-11.931,-2.5606,-0.57788,-0.62766,-0.90469,9.48,16.14,55.56
4.8352,-12.286,-2.0975,-0.65973,-0.42913,-1.117,10.14,16.14,55.26
4.9987,-12.871,-1.4029,-0.67898,-0.33934,-1.1936,11.1,15.9,55.14
5.1485,-12.721,-1.1577,-0.75472,-0.080329,-1.4606,11.52,15.66,55.02
5.2166,-12.068,-1.0079,-0.76236,-0.037874,-1.6713,11.76,15.42,55.02
5.8159,-10.215,-0.01362,-0.6747,-0.2364,-1.8641,12.24,15.0,55.2
6.1155,-9.6568,0.14982,-0.48594,-0.73731,-2.0201,12.18,14.76,55.2
6.7012,-9.3299,-0.095342,-0.30238,-1.4826,-2.1008,12.24,14.52,55.02
6.8647,-9.507,0.24517,0.015882,-2.7248,-2.1557,12.24,14.04,55.14
6.7693,-9.9837,0.74912,0.23457,-3.4117,-2.146,12.24,13.74,54.96
6.7148,-10.256,0.99429,0.40378,-3.9468,-2.1011,12.12,13.56,54.9
6.5378,-10.733,1.4165,0.48197,-4.2498,-2.0064,12.3,13.38,54.72
6.3471,-10.42,1.4982,0.46212,-4.2553,-1.9539,12.3,13.38,54.78
5.9657,-10.161,1.6344,0.33323,-3.7718,-1.9871,12.54,13.5,54.78
5.2983,-9.8884,1.757,0.1405,-3.5265,-2.0137,13.14,13.86,54.54
4.9578,-9.6296,1.6208,-0.05681,-3.0226,-2.1069,13.5,14.1,54.42
4.7807,-9.4798,1.4438,-0.26664,-2.3925,-2.2242,13.92,14.34,54.12
4.9033,-9.5479,1.0896,-0.33384,-2.0843,-2.2345,14.64,14.82,53.52
4.9578,-9.616,0.95342,-0.35766,-1.8549,-2.2,15.18,15.06,53.28
4.6037,-9.3299,0.99429,-0.32987,-1.5036,-2.1005,16.08,15.66,52.8
4.2223,-9.0712,0.77636,-0.25687,-1.2226,-2.0299,16.38,15.96,52.38
3.9635,-9.221,0.61292,-0.16341,-0.92852,-1.9597,16.68,16.44,52.14
3.8818,-9.3844,0.47671,-0.10324,-0.78771,-1.934,16.98,16.86,51.9
3.5413,-9.1937,0.14982,0.054978,-0.49175,-1.8705,17.16,17.76,51.3
3.4459,-8.8941,-0.027241,0.17226,-0.44104,-1.7944,17.34,18.0,50.88
3.2825,-8.9894,-0.19068,0.31979,-0.48045,-1.6948,17.1,18.3,50.7
3.1054,-10.106,-1.2939,0.45754,-0.51588,-1.5653,16.74,18.9,49.98
3.1054,-10.106,-1.2939,0.52229,-0.55741,-1.4713,16.74,18.9,49.98
2.7513,-10.924,-2.0839,0.65821,-1.0156,-0.79168,15.96,19.98,49.38
2.4108,-10.869,-1.9613,0.63072,-1.0379,-0.64263,15.72,20.46,49.14
1.757,-10.801,-1.9886,0.55864,-0.95417,-0.27061,15.36,20.82,48.9
1.0215,-10.515,-1.866,0.4499,-0.72357,0.17623,15.12,21.24,48.72
0.55843,-9.1393,-1.975,0.4496,-0.29841,0.613,14.7,21.9,47.94
0.54481,-7.8589,-2.4517,0.4554,0.2193,0.99418,14.34,22.14,47.52
0.6674,-7.2188,-2.6423,0.51221,0.62033,1.2477,14.04,22.38,47.16
1.3757,-7.0417,-3.0646,0.86132,0.74709,1.5018,13.5,22.56,46.38
1.7979,-7.8045,-3.2961,1.0931,0.56474,1.73,13.26,22.74,46.14
2.4244,-9.2891,-3.3642,1.2737,0.21289,1.9838,13.56,22.98,45.9
2.6015,-9.6432,-3.337,1.4215,-0.1463,2.2901,13.86,22.98,45.72
2.7649,-9.8748,-3.2144,1.5223,-0.43463,2.587,14.4,23.16,45.42
2.7377,-9.5479,-3.051,1.5711,-0.60415,2.8289,15.6,23.46,44.76
2.6832,-9.4117,-3.3097,1.6823,-0.70433,2.9856,16.38,23.46,44.4
2.8875,-9.5887,-3.5958,1.7675,-0.82436,3.0195,17.58,23.64,44.16
3.3506,-9.902,-4.018,1.8298,-1.073,2.9868,18.66,23.52,43.62
4.1951,-10.91,-4.7263,1.7807,-1.6961,2.8543,21.3,23.58,42.72
4.3858,-11.032,-4.7399,1.6823,-2.1176,2.6411,22.98,23.58,42.24
4.3177,-11.155,-4.6582,1.5256,-2.4019,2.3338,24.72,23.52,41.52
3.4323,-11.223,-3.8954,1.3121,-2.4209,1.9276,28.38,23.4,39.96
2.8603,-11.155,-3.6503,1.0608,-2.1982,1.4829,30.24,23.34,38.94
2.5198,-10.733,-3.5685,0.78802,-1.7993,1.0486,31.92,23.22,37.86
2.5334,-9.9429,-3.6503,0.45815,-1.1487,0.51435,35.58,22.92,35.28
2.833,-9.8611,-3.9771,0.281,-0.8152,0.21502,36.96,22.62,34.02
3.1191,-9.5615,-4.1678,0.062614,-0.63011,-0.084605,38.46,22.44,32.88
3.2961,-8.7987,-3.3915,-0.10201,-0.55864,-0.34117,40.98,22.02,30.54
3.3915,-8.8124,-2.8194,-0.10782,-0.58338,-0.57024,41.7,21.96,29.34
3.7184,-9.7113,-2.5742,-0.086743,-0.69822,-0.73884,42.6,21.9,28.26
4.1678,-11.387,-2.152,-0.092852,-0.87904,-0.87323,43.74,21.9,26.46
4.3721,-12.463,-1.7706,-0.14752,-1.0883,-1.0122,44.04,21.84,25.62
4.4811,-13.348,-1.3212,-0.23152,-1.1588,-1.1011,44.22,21.96,24.96
4.8488,-14.737,-1.2258,-0.37507,-1.2834,-1.1762,44.34,22.2,23.82
4.8352,-14.669,-1.2258,-0.56963,-1.4624,-1.292,44.1,22.44,23.22
4.8216,-13.906,-0.95342,-0.66493,-1.7043,-1.4939,43.8,22.62,22.56
4.2495,-12.19,0.98067,-0.77244,-1.9871,-1.7315,42.72,23.46,21.9
3.6775,-11.891,1.6344,-0.95203,-1.9878,-2.1368,42.3,23.94,21.54
3.3097,-12.367,2.0839,-1.0006,-1.8772,-2.2764,41.58,24.3,21.24
3.2144,-14.696,1.6344,-1.3262,-1.5354,-2.5357,40.02,25.44,21.06
3.0646,-14.533,1.6208,-1.5751,-1.2058,-2.6796,39.18,25.86,20.94
2.8058,-12.926,1.6344,-1.6863,-0.75869,-2.7593,37.92,26.4,21.0
2.9011,-11.264,1.4029,-1.6729,-0.22938,-2.7868,35.28,27.54,20.94
3.0646,-10.733,1.4301,-1.5052,0.24496,-2.8821,33.9,28.2,21.06
3.2008,-10.052,1.3757,-1.3412,0.27611,-2.8827,32.4,28.86,21.12
3.2825,-8.6353,1.2803,-1.1655,0.16463,-2.8399,28.98,30.06,21.78
3.228,-7.6546,1.185,-0.95875,-0.06017,-2.7819,27.12,30.78,22.2
3.1599,-7.0281,1.0896,-0.71868,-0.3485,-2.6936,25.2,31.26,22.62
2.7513,-5.9657,0.69464,-0.47464,-0.64294,-2.5589,21.3,32.16,23.4
2.6696,-5.8704,0.61292,-0.13806,-1.0324,-2.2785,19.2,32.46,23.88
2.5606,-5.7342,0.44947,-0.037263,-1.1521,-2.1579,17.1,32.94,24.24
2.3972,-5.8295,0.50395,0.13958,-1.3442,-1.9068,15.06,33.24,24.48
2.4517,-6.1564,0.50395,0.36255,-1.5171,-1.4627,10.98,33.48,25.14
2.5061,-7.1507,0.44947,0.47586,-1.5583,-1.1261,9.18,33.78,25.44
2.4517,-7.8862,0.38137,0.53451,-1.5369,-0.76725,5.76,34.08,26.04
2.5879,-8.0224,0.39499,0.6014,-1.3283,-0.21655,4.26,34.2,26.16
2.4789,-8.1177,0.27241,0.62339,-1.2175,-0.048869,2.82,34.2,26.4
2.9556,-9.0031,-0.14982,0.6915,-1.0006,0.27306,1.56,34.2,26.58
3.1599,-9.6432,-0.31327,0.86743,-0.82345,0.686,-0.36,34.02,26.46
3.2961,-10.406,-0.44947,1.0009,-0.75472,0.94867,-1.08,34.26,26.46
3.5004,-12.136,-0.65378,1.1527,-0.69608,1.2178,-2.04,34.44,26.34
3.5277,-12.667,-0.70826,1.3066,-0.51129,1.6194,-2.34,34.68,26.16
3.7728,-13.579,-0.65378,1.3482,-0.42913,1.7474,-2.46,34.86,25.92
3.8273,-15.364,-0.095342,1.3656,-0.20128,1.9514,-2.16,35.28,25.32
3.7184,-15.868,0.21793,1.2416,0.28405,2.0882,-1.68,35.58,24.96
3.7047,-15.936,0.12258,1.1332,0.60109,2.0714,-1.02,35.7,24.48
3.5413,-14.138,-0.54481,1.036,0.82467,1.9823,0.54,36.06,23.52
3.514,-13.362,-0.98067,1.0006,0.97738,1.85,1.44,36.24,23.04
3.228,-11.795,-1.3212,0.96853,1.1197,1.6475,2.28,36.3,22.44
2.8058,-10.665,-1.3484,0.86376,1.3631,1.4157,4.2,36.6,21.06
2.7104,-10.106,-1.3484,0.81459,1.4438,1.3631,5.46,36.6,20.58
2.7377,-9.6568,-1.3348,0.66768,1.62,1.3241,6.72,36.42,19.98
3.1191,-8.5944,-1.757,0.59254,1.6393,1.3699,9.36,36.36,19.02
3.1599,-8.1858,-1.8387,0.52076,1.5632,1.4462,10.74,36.06,18.66
3.2008,-7.6955,-2.152,0.47983,1.532,1.489,12.3,35.82,18.3
3.2961,-7.2869,-2.3155,0.47525,1.4383,1.5317,15.18,35.22,17.82
3.2553,-7.0417,-2.547,0.45235,1.3311,1.569,16.62,34.92,17.58
3.3234,-6.9328,-2.5879,0.43707,1.1594,1.5776,17.94,34.56,17.28
3.3097,-6.7693,-2.656,0.38912,1.0455,1.5534,20.82,33.84,16.98
3.3506,-6.96,-2.6696,0.36255,0.95142,1.5207,22.2,33.48,16.74
3.4187,-7.0962,-2.8058,0.29993,0.81153,1.3955,23.76,33.12,16.56
3.4732,-7.2188,-2.8603,0.25259,0.76877,1.3308,25.26,32.94,16.5
3.4051,-7.4095,-2.833,0.1127,0.69608,1.0757,27.9,32.34,16.26
3.3234,-7.8453,-2.7649,0.055283,0.67898,0.87476,28.98,32.04,16.14
3.2825,-9.3436,-2.6832,-0.01741,0.7532,0.66462,31.26,31.32,16.02
3.4459,-10.256,-2.833,-0.076664,0.87079,0.4893,32.46,31.14,16.02
3.7456,-10.637,-3.2689,-0.22571,0.92607,0.30727,33.42,30.72,15.96
3.7865,-9.6977,-3.2008,-0.40928,0.90866,-0.011301,35.1,30.24,16.02
3.7047,-9.4798,-3.1327,-0.36224,0.77397,-0.2306,35.76,30.06,16.14
3.8818,-9.4253,-3.1327,-0.2981,0.50641,-0.43585,36.48,29.88,16.26
4.0861,-9.221,-3.337,-0.23885,0.12217,-0.59376,37.56,29.28,16.56
4.1133,-9.4525,-3.1599,-0.16218,-0.24526,-0.70097,37.8,29.22,16.74
4.1814,-10.733,-2.4789,-0.11973,-0.49358,-0.79474,38.1,29.1,17.34
4.1814,-12.136,-2.1384,-0.061087,-0.63561,-0.85918,38.1,29.1,17.52
4.2223,-13.416,-2.0022,-0.069028,-0.57544,-0.9612,38.04,29.16,17.88
4.3177,-15.187,-1.5391,-0.34422,-0.41905,-1.0623,37.8,29.34,18.3
4.3858,-13.729,-1.4846,-0.53909,-0.28222,-1.1707,37.62,29.46,18.54
4.4947,-12.34,-1.6753,-0.50183,-0.38026,-1.328,37.14,29.7,18.6
4.2632,-10.106,-1.5119,-0.44929,-0.77946,-1.6912,35.94,30.12,18.9
4.1814,-9.8066,-1.185,-0.3824,-1.0959,-1.8515,35.4,30.42,19.08
4.6582,-10.392,-1.0896,-0.39951,-1.4505,-1.9157,34.56,30.66,19.14
5.1485,-11.032,-1.0351,-0.48197,-1.8488,-1.9291,33.54,30.9,19.32
5.2575,-11.673,-0.74912,-0.6017,-2.0849,-1.898,31.26,31.56,19.56
5.0804,-11.727,-0.50395,-0.74403,-2.0531,-1.8796,30.0,31.86,19.68
4.699,-11.032,-0.51757,-0.93432,-1.6579,-1.9652,27.3,32.4,19.92
4.6445,-10.474,-0.50395,-1.0324,-1.3848,-2.0849,25.86,32.64,20.1
4.5356,-9.902,-0.54481,-1.0916,-1.1322,-2.2113,24.3,32.94,20.16
4.0997,-8.6898,-0.20431,-1.1237,-0.87262,-2.3546,20.7,33.66,20.76
3.8682,-8.0632,-0.054481,-1.1258,-0.62033,-2.4908,18.9,33.9,20.88
3.6639,-7.5729,-0.095342,-1.0947,-0.42974,-2.5672,16.98,34.08,21.24
3.1872,-7.0553,-0.25879,-0.99663,-0.27947,-2.584,13.14,34.44,21.78
3.1463,-6.9464,-0.32689,-0.81276,-0.07758,-2.5299,11.22,34.5,22.2
3.051,-6.565,-0.35413,-0.74495,-0.043677,-2.4688,9.42,34.5,22.62
3.051,-6.1564,-0.35413,-0.45204,-0.093768,-2.2229,7.74,34.5,22.98
2.9284,-6.0066,-0.35413,-0.25351,-0.22205,-2.0052,4.08,34.38,23.76
2.7922,-6.1836,-0.44947,-0.053756,-0.36408,-1.7315,2.34,34.02,24.06
2.6423,-6.6467,-0.50395,0.19853,-0.5507,-1.2401,-0.78,33.42,24.78
2.4517,-6.7148,-0.44947,0.33842,-0.62736,-0.85888,-2.1,33.0,25.14
2.4244,-6.8919,-0.38137,0.40256,-0.63469,-0.65546,-3.42,32.46,25.56
2.4244,-7.3141,-0.57205,0.63041,-0.57146,-0.023518,-4.62,31.92,25.98
2.6423,-8.322,-0.9398,0.81062,-0.5229,0.39676,-6.72,30.9,26.4
2.6832,-9.0848,-1.2122,0.98655,-0.49663,0.80268,-7.62,30.48,26.58
2.9148,-10.774,-1.5391,1.1451,-0.46884,1.2068,-8.7,29.82,27.06
3.051,-11.891,-1.5936,1.3299,-0.41386,1.8439,-9.24,29.52,26.94
3.2553,-13.362,-1.5255,1.3628,-0.38332,2.0699,-9.48,29.52,26.88
3.3506,-14.696,-1.3893,1.3726,-0.2248,2.4722,-9.54,29.34,26.7
3.4596,-16.086,-0.53119,1.1472,0.3204,2.9102,-9.24,29.46,26.22
3.4187,-15.868,-0.21793,0.93493,0.78099,3.0745,-8.58,29.7,25.98
3.3778,-15.541,-0.25879,0.78893,1.2025,3.1588,-8.04,30.0,25.5
3.8682,-14.097,-1.1032,0.6915,1.5623,3.1313,-6.6,30.78,24.78
3.9908,-13.253,-1.5936,0.74434,1.522,3.0146,-5.58,31.26,24.3
4.127,-12.708,-1.7706,0.78618,1.4419,2.9367,-4.38,31.68,23.7
4.1814,-12.136,-1.6344,0.79993,1.0858,2.6194,-1.5,32.46,22.8
3.9363,-11.414,-1.4029,0.71502,0.86987,2.3976,0.18,32.82,22.2
3.623,-10.924,-1.3484,0.60445,0.74098,2.1942,1.92,32.94,21.72
3.4187,-9.7385,-1.58,0.47434,0.73182,1.9465,5.46,33.18,20.76
3.3778,-9.1393,-1.7706,0.42241,0.76389,1.8662,7.32,33.12,20.34
3.2144,-8.54,-1.8251,0.31032,0.88209,1.6948,9.3,33.12,19.92
2.9148,-7.2188,-1.757,0.1689,1.1903,1.4795,13.32,32.94,19.14
2.8739,-6.9328,-1.7706,0.12401,1.4197,1.3448,15.18,32.76,18.9
2.9556,-6.7285,-1.7025,0.059559,1.6212,1.2138,16.98,32.64,18.66
3.3097,-6.0611,-1.866,-0.065363,1.8192,1.0724,20.58,32.16,18.24
3.4732,-5.7342,-1.8796,-0.11515,1.8106,0.97708,22.32,31.74,18.12
3.6911,-5.6524,-1.9341,-0.11454,1.6484,0.87262,23.88,31.62,18.18
3.8001,-5.8159,-2.2882,-0.10812,1.3922,0.7535,26.76,31.14,18.06
3.7592,-6.2381,-2.5334,-0.1127,1.1524,0.59559,28.02,30.9,18.18
3.7047,-7.0553,-2.547,-0.13073,0.96883,0.43066,29.04,30.78,18.18
3.4732,-8.0224,-2.5742,-0.16341,0.87232,0.18082,30.96,30.54,18.3
3.514,-8.6217,-2.6696,-0.18601,0.90469,0.036652,31.68,30.48,18.36
3.7047,-9.1529,-2.9011,-0.23213,0.9218,-0.13806,32.22,30.48,18.54
4.0861,-9.1801,-3.5277,-0.26634,0.83353,-0.31246,33.36,30.3,19.2
4.0589,-8.9349,-3.6366,-0.2303,0.63866,-0.49419,33.6,30.3,19.38
4.0316,-8.8124,-3.6094,-0.13592,0.3372,-0.66737,33.96,30.3,19.68
3.9635,-8.9486,-3.6503,-0.011912,-0.1799,-0.8885,34.32,30.3,20.16
3.8682,-9.112,-3.7047,0.054672,-0.4725,-0.98869,34.44,30.36,20.4
3.8546,-9.7113,-3.9363,0.07422,-0.67867,-1.1005,34.26,30.3,20.64
3.623,-11.7,-3.6366,0.03879,-0.73518,-1.2083,34.02,30.3,20.94
3.337,-12.531,-3.1327,-0.084299,-0.58949,-1.3228,33.66,30.36,21.06
3.1599,-13.484,-2.547,-0.17837,-0.24251,-1.4029,33.3,30.48,21.24
3.732,-14.111,-2.4789,-0.25748,0.15058,-1.4331,32.28,30.9,21.42
4.6173,-13.389,-2.5742,-0.38393,0.39309,-1.4062,31.68,30.96,21.54
4.9987,-12.735,-2.8603,-0.26756,0.17226,-1.3818,30.96,31.02,21.72
6.1019,-10.992,-2.8875,-0.13378,-0.35705,-1.427,29.16,31.44,21.9
5.8159,-10.188,-1.757,-0.093157,-1.0208,-1.5861,28.2,31.68,22.08
5.3528,-10.093,-0.89894,-0.018937,-1.463,-1.6973,27.18,31.8,22.2
5.4754,-11.346,-0.68102,-0.011912,-1.7419,-1.7672,24.9,32.04,22.26
5.4754,-11.618,-0.89894,-0.18601,-1.7901,-1.8683,23.58,32.16,22.38
5.5026,-11.727,-0.98067,-0.26725,-1.7297,-1.8845,22.26,32.4,22.5
5.2711,-11.087,-0.89894,-0.50488,-1.3992,-1.9957,19.5,32.64,22.8
5.0531,-10.746,-0.64016,-0.61789,-1.1808,-2.1057,18.18,32.64,22.92
4.7807,-10.215,-0.50395,-0.70524,-0.96395,-2.2061,16.8,32.64,23.1
4.1542,-9.221,-0.44947,-0.76511,-0.74648,-2.3057,13.74,32.7,23.4
3.6775,-8.1722,-0.38137,-0.81276,-0.39554,-2.4425,12.12,32.76,23.46
3.4732,-7.7364,-0.32689,-0.78863,-0.17257,-2.5107,10.5,32.88,23.7
3.1463,-6.9328,-0.40861,-0.75992,-0.074526,-2.5296,8.82,32.88,23.88
2.833,-6.2517,-0.42223,-0.63225,0.10568,-2.5458,5.94,32.34,24.24
2.833,-6.1019,-0.47671,-0.49633,0.11148,-2.4545,4.26,32.1,24.48
2.8603,-5.8976,-0.68102,-0.33781,-0.0061087,-2.3054,1.26,31.38,25.02
2.6832,-5.6797,-0.83084,-0.16829,-0.22144,-2.1115,-0.06,31.02,25.26
2.6287,-5.8567,-0.89894,-0.000305,-0.47281,-1.8289,-1.38,30.48,25.5
2.4517,-5.993,-0.83084,0.14966,-0.6802,-1.5043,-2.82,30.0,25.74
2.1929,-6.7012,-0.61292,0.32681,-0.80543,-0.87476,-5.34,29.04,26.4
2.2474,-7.0553,-0.61292,0.4105,-0.75136,-0.39034,-6.6,28.44,26.52
2.2474,-7.3141,-0.70826,0.49724,-0.64538,0.067501,-7.62,27.78,26.82
2.2201,-7.5184,-0.89894,0.67959,-0.49144,0.63316,-9.3,26.76,27.42
2.3427,-7.8045,-1.1577,0.75045,-0.44502,0.80237,-9.84,26.16,27.66
2.4653,-8.4446,-1.3348,0.88789,-0.36591,1.1164,-10.2,25.74,27.66
2.7513,-9.7385,-1.3212,1.1118,-0.32712,1.6298,-10.8,25.44,27.78
2.9148,-11.019,-1.362,1.2144,-0.28436,2.0116,-11.04,25.32,27.78
3.2825,-13.021,-1.0079,1.2712,-0.197,2.3867,-11.04,25.32,27.54
3.4596,-14.124,-1.0215,1.3369,-0.026267,2.9456,-10.92,25.44,27.48
4.0316,-16.562,-0.78998,1.3998,0.17287,3.1423,-10.26,26.04,26.94
4.2904,-17.775,-0.39499,1.3677,0.50916,3.6096,-9.6,26.34,26.52
4.5901,-18.469,0.01362,1.3137,0.74739,3.8338,-8.88,26.7,26.22
5.0531,-18.687,-0.12258,1.2755,0.81153,3.9437,-8.16,27.18,25.62
5.38,-15.568,-1.6344,1.285,0.58613,3.8591,-5.64,28.32,24.54
5.0531,-13.579,-2.0839,1.2856,0.018631,3.3201,-4.2,28.68,23.94
3.5004,-11.686,-1.6889,1.2288,-0.097738,3.0925,-0.72,29.76,22.8
2.7513,-11.182,-1.3212,1.0302,-0.086437,2.6417,1.02,30.3,22.32
2.4517,-10.828,-1.1986,0.7645,0.30177,2.2089,3.0,30.6,21.66
2.4653,-9.9973,-1.5663,0.47709,1.2758,1.6921,7.08,31.08,20.64
2.7649,-9.6977,-1.6481,0.22541,1.876,1.4704,9.06,31.2,20.28
2.8875,-9.398,-1.5527,-0.054978,2.3967,1.2654,13.14,31.44,19.32
3.3778,-8.1995,-1.471,-0.37263,2.8695,1.0632,15.06,31.44,19.02
3.732,-7.4503,-1.6072,-0.47739,2.8857,0.96792,17.04,31.44,18.9
3.9635,-6.7693,-1.6344,-0.53939,2.7156,0.86651,19.08,31.44,18.66
3.909,-6.17,-1.6617,-0.57391,2.4862,0.76572,20.94,31.62,18.54
3.6503,-5.1485,-1.6072,-0.55864,2.2666,0.65301,24.24,31.62,18.72
3.5958,-5.0259,-1.6481,-0.51496,2.0406,0.5003,25.74,31.62,19.08
3.5685,-5.3119,-1.8796,-0.46578,1.8063,0.35858,28.14,31.5,19.56
3.5549,-5.6116,-1.9068,-0.44593,1.5669,0.21564,29.1,31.5,19.86
3.4596,-6.0202,-2.0158,-0.36835,1.3192,0.096822,29.94,31.56,20.4
3.4051,-7.4367,-2.152,-0.28405,1.0608,-0.028711,31.44,31.74,21.54
3.4868,-7.8726,-2.5061,-0.22083,0.90927,-0.087659,31.98,31.74,21.96
3.7047,-8.2403,-2.9692,-0.16066,0.70677,-0.17104,32.46,31.92,22.5
3.9227,-8.7579,-3.5685,-0.04612,0.30513,-0.28497,33.36,31.98,23.7
4.0316,-8.8124,-3.732,0.043982,-0.039401,-0.32467,33.6,32.04,24.24
4.1678,-8.8668,-3.8818,0.091019,-0.22907,-0.34117,33.78,32.22,24.9
4.0861,-8.322,-3.8954,0.19395,-0.78588,-0.43738,33.9,32.04,25.68
4.1951,-8.6353,-3.8682,0.29688,-1.0983,-0.53451,33.78,32.1,25.92
4.4402,-9.507,-3.909,0.37813,-1.4181,-0.65576,33.6,32.04,26.16
4.0861,-11.863,-2.9284,0.37538,-1.7309,-0.86224,33.3,32.16,26.16
3.8954,-12.926,-2.438,0.33781,-1.7055,-0.93768,32.94,32.22,26.16
3.8954,-13.62,-2.3018,0.2697,-1.47,-1.0418,32.7,32.16,25.98
4.4402,-14.465,-2.8467,0.064752,-1.0406,-1.1484,31.8,32.22,25.62
4.8625,-14.451,-3.2961,0.0045815,-0.94409,-1.193,31.26,32.4,25.5
5.0531,-14.029,-3.3915,-0.07086,-1.0388,-1.3375,30.78,32.4,25.38
4.6037,-12.04,-2.2201,-0.30207,-1.3198,-1.7016,29.46,32.34,24.9
4.0589,-11.346,-0.96704,-0.45509,-1.4456,-1.9398,28.74,32.46,24.84
3.9363,-11.264,0.027241,-0.46884,-1.4197,-2.131,27.9,32.52,24.54
4.5492,-12.708,-0.29965,-0.5455,-1.368,-2.2758,25.92,32.7,24.42
4.7399,-13.28,-0.69464,-0.8436,-1.2865,-2.3854,24.9,32.76,24.42
4.4402,-12.408,-0.69464,-1.0461,-1.0956,-2.5015,23.82,32.94,24.24
3.8273,-10.883,-0.40861,-1.0779,-0.81062,-2.6918,21.0,32.7,24.24
3.5958,-10.038,-0.47671,-1.0079,-0.4386,-2.7825,19.74,32.58,24.48
3.4187,-9.2346,-0.31327,-0.93798,-0.30207,-2.8323,18.24,32.7,24.84
3.1191,-7.8045,-0.054481,-0.86071,-0.19761,-2.8399,15.06,32.58,25.44
2.9556,-7.246,-0.12258,-0.76908,-0.12339,-2.7953,13.5,32.4,25.56
2.8194,-6.7421,-0.17706,-0.66981,-0.090713,-2.7055,11.76,32.22,25.62
2.547,-5.775,-0.19068,-0.48808,-0.08827,-2.4432,8.52,31.86,26.1
2.4789,-5.4481,-0.1362,-0.34911,-0.11484,-2.2037,6.84,31.56,26.16
2.3427,-5.2711,-0.054481,-0.27397,-0.13561,-2.0714,5.16,31.14,26.4
2.2474,-5.1349,-0.14982,-0.022297,-0.23121,-1.5931,2.22,30.3,26.82
2.2882,-5.2166,-0.19068,0.15913,-0.38882,-1.2233,0.78,29.88,26.88
2.4244,-5.5571,-0.16344,0.37049,-0.5568,-0.83322,-0.6,29.4,27.06
2.5061,-6.1836,-0.38137,0.60048,-0.70188,-0.26786,-2.58,28.86,27.36
2.5061,-6.6876,-0.6674,0.967,-0.94562,0.11729,-3.54,28.44,27.3
2.4653,-7.355,-0.64016,1.2062,-1.0537,0.49541,-4.32,27.84,27.24
2.547,-8.8668,-0.8036,1.416,-1.1109,0.88698,-5.46,26.94,27.06
2.6968,-10.161,-1.0079,1.5925,-1.1209,1.2795,-5.76,26.58,27.18
2.8739,-11.373,-0.99429,1.7,-1.0437,1.6258,-5.94,26.16,27.18
3.1735,-12.49,-0.85808,1.7132,-0.93279,1.9349,-6.12,25.68,26.76
3.2689,-12.844,-0.91256,1.7153,-0.81001,2.2706,-5.94,25.68,26.46
3.337,-13.757,-0.95342,1.7162,-0.79168,2.3363,-5.52,25.62,26.1
3.337,-16.249,-0.01362,1.566,-0.62033,2.4633,-4.74,25.92,25.14
3.1327,-17.516,0.84446,1.3738,-0.2926,2.4896,-4.08,26.04,24.96
3.228,-18.224,1.3212,1.1246,0.22266,2.5696,-3.36,26.22,24.42
3.6366,-16.848,0.40861,0.96578,0.78649,2.6869,-1.62,26.46,23.46
4.1542,-14.315,-0.64016,1.0348,1.2391,2.744,-0.72,26.76,22.98
4.1951,-12.898,-0.99429,1.1658,1.1875,2.5687,0.36,27.24,22.44
3.9771,-10.896,-1.0079,1.215,1.1051,2.4325,1.56,27.54,21.84
3.5413,-10.855,-0.54481,1.2679,0.78221,2.0708,4.44,28.2,20.64
3.4187,-11.169,-0.39499,1.1747,0.5733,1.8289,6.0,28.62,20.28
3.4459,-11.155,-0.64016,0.92027,0.50946,1.5348,9.18,29.22,19.38
3.3915,-9.9292,-1.1305,0.69852,0.62217,1.3473,10.98,29.4,18.9
3.1191,-9.0167,-1.4165,0.60201,0.7251,1.2391,12.54,29.46,18.42
2.942,-8.2948,-1.6481,0.41142,0.98441,1.0226,14.34,29.46,18.12
2.4517,-6.7966,-2.3291,0.26634,1.3928,0.73426,17.7,29.52,17.4
2.438,-6.6195,-2.6968,0.17043,1.605,0.57055,19.38,29.46,17.1
2.3836,-6.1836,-2.8875,-0.048869,1.781,0.44227,21.0,29.52,16.8
2.4789,-4.9169,-2.3427,-0.2303,1.9172,0.30727,24.06,29.4,16.2
2.6423,-4.6718,-2.2065,-0.3375,1.952,0.21502,25.56,29.28,16.02
2.8194,-4.7535,-2.1929,-0.3598,1.9022,0.16799,26.82,29.28,15.9
2.9284,-4.9169,-2.1112,-0.43891,1.6356,0.041233,27.84,29.22,15.66
3.0237,-5.8023,-2.2882,-0.47037,1.4456,-0.029932,29.58,29.28,15.72
3.0918,-6.674,-2.0839,-0.44899,1.3134,-0.076053,30.42,29.28,15.66
3.2689,-8.5127,-2.7104,-0.42791,1.1842,-0.10782,31.5,29.4,16.38
3.6366,-9.2074,-2.8467,-0.44013,0.90225,-0.15485,31.98,29.52,16.62
3.8273,-9.7113,-3.1599,-0.41203,0.66126,-0.18204,32.4,29.58,17.04
3.909,-10.093,-3.5413,-0.40409,0.51404,-0.19731,32.58,29.52,17.34
3.9227,-10.27,-3.5685,-0.37843,0.032376,-0.31032,32.88,29.64,17.7
3.5549,-9.6704,-3.4732,-0.3372,-0.22663,-0.45754,33.18,30.0,18.66
3.3097,-9.398,-3.4596,-0.25412,-0.44379,-0.69578,33.12,30.12,19.2
3.2689,-9.8066,-3.514,-0.20586,-0.48778,-0.83719,32.76,30.24,19.98
3.732,-10.365,-3.5413,-0.20342,-0.5226,-0.92516,32.52,30.18,20.46
4.1133,-10.815,-3.5004,-0.23182,-0.60262,-0.96486,32.34,30.3,20.88
4.4811,-12.095,-3.1735,-0.24832,-0.63377,-0.94134,31.98,30.36,21.24
4.808,-14.519,-2.8058,-0.28894,-0.52015,-0.81581,31.32,30.24,21.54
5.0531,-16.235,-2.8058,-0.44135,-0.30482,-0.63683,30.9,30.18,21.72
5.993,-15.732,-2.5742,-0.7141,-0.025045,-0.51924,30.06,30.18,22.02
6.0883,-13.253,-1.7434,-1.2129,0.25351,-0.74495,29.58,30.24,22.08
5.5162,-10.12,-1.1441,-1.2129,0.40409,-1.2492,29.28,30.42,22.32
4.9578,-8.0769,-1.0896,-0.78741,0.32345,-1.7547,28.74,30.42,22.5
4.7944,-11.346,-2.0158,-0.55528,-0.17379,-2.1493,27.24,30.36,22.86
5.3528,-12.027,-1.7843,-0.65454,-0.61575,-2.3534,26.52,30.3,23.1
5.4209,-11.319,-1.0079,-0.65027,-0.95142,-2.6377,24.9,30.3,23.64
5.2575,-10.896,-0.5993,-0.68295,-0.8039,-2.6857,24.0,30.3,23.76
5.1076,-10.46,-0.25879,-0.71441,-0.65668,-2.7721,23.04,30.3,24.12
4.3721,-9.5751,-0.095342,-0.69058,-0.68967,-2.803,21.0,30.24,24.66
4.127,-9.1256,-0.14982,-0.64263,-0.81825,-2.8359,19.8,30.36,25.02
3.8001,-8.6898,-0.27241,-0.62217,-0.87812,-2.8292,18.6,30.36,25.32
3.1872,-7.5865,-0.31327,-0.59346,-0.74342,-2.7413,16.08,30.48,25.68
2.7786,-7.0553,-0.01362,-0.54856,-0.54031,-2.6563,14.58,30.42,25.98
2.5334,-6.6059,0.027241,-0.5171,-0.42364,-2.5989,13.08,30.3,26.04
2.3836,-6.3335,0.040861,-0.37721,-0.12492,-2.3592,11.76,30.18,26.28
2.2474,-6.17,-0.39499,-0.25351,-0.037263,-2.1377,9.06,30.18,26.58
2.3836,-6.0883,-0.40861,-0.11087,-0.03879,-1.8851,7.86,30.06,26.58
2.4517,-5.8295,-0.34051,0.12126,-0.15638,-1.4371,6.6,29.88,26.64
2.5606,-6.0747,-0.38137,0.22419,-0.23335,-1.2727,4.32,29.64,26.64
2.6015,-6.5378,-0.50395,0.53237,-0.54062,-0.71105,3.3,29.52,26.46
2.5742,-7.0553,-0.70826,0.73945,-0.74006,-0.27581,2.34,29.52,26.52
2.5334,-8.0224,-0.89894,0.9557,-0.8827,0.20861,0.66,28.98,26.34
2.6832,-8.7306,-1.0079,1.146,-0.94501,0.74067,-0.12,28.8,26.22
2.8194,-9.6432,-1.185,1.3295,-0.94928,1.2843,-0.66,28.68,26.1
3.3778,-11.809,-1.4846,1.5342,-0.94654,2.0198,-1.08,28.44,25.62
3.4187,-12.898,-1.3757,1.6023,-0.92027,2.4456,-1.14,28.5,25.38
3.4459,-13.484,-1.2531,1.6298,-0.80359,2.8026,-1.26,28.5,24.96
3.4732,-16.263,-0.89894,1.6225,-0.59926,3.1053,-0.66,28.68,24.06
3.514,-16.903,-0.8036,1.5846,-0.30513,3.3591,-0.06,28.86,23.64
4.0861,-17.107,-1.2258,1.5333,0.059254,3.6319,0.66,29.04,23.04
4.5083,-15.146,-2.2474,1.5406,0.08827,3.6511,2.52,29.22,21.96
4.4811,-13.825,-2.3155,1.5033,0.043066,3.4236,3.66,29.4,21.48
4.1406,-12.885,-2.1929,1.4649,-0.0018326,3.2645,4.86,29.52,20.94
3.6775,-12.435,-1.9613,1.2483,-0.094379,2.6793,6.3,29.76,20.34
2.9829,-11.904,-1.7434,1.0586,-0.033903,2.2697,9.66,30.06,19.02
2.8603,-11.073,-1.7979,0.84788,0.32406,1.7627,11.34,30.06,18.54
2.7649,-9.4389,-1.9477,0.66523,0.48564,1.627,14.76,30.0,17.7
2.6832,-8.8396,-1.975,0.43097,1.0385,1.2798,16.56,29.82,17.1
2.5879,-8.54,-2.1112,0.30238,1.3854,1.1335,18.24,29.7,16.68
2.8058,-7.9815,-2.2882,0.21838,1.646,1.0394,21.78,29.22,15.96
2.9692,-7.5729,-2.3836,0.091324,1.77,0.96944,23.4,28.86,15.84
3.2008,-6.4424,-2.4517,-0.065057,1.8182,0.89431,26.58,28.68,15.54
3.2144,-5.7069,-2.4789,-0.13378,1.7236,0.83108,27.78,28.56,15.42
3.2961,-5.2983,-2.6423,-0.16524,1.555,0.75259,29.04,28.38,15.48
3.2825,-5.2847,-2.6015,-0.16585,1.4505,0.7141,30.42,28.2,15.48
3.3506,-5.7478,-2.4789,-0.19914,1.1545,0.56077,32.64,27.96,15.84
3.3234,-6.0883,-2.5061,-0.24587,0.97311,0.44929,33.54,27.66,16.14
3.1191,-6.4288,-2.4653,-0.30024,0.85918,0.32132,35.1,27.54,16.62
2.9284,-7.3141,-2.2337,-0.37507,0.90561,0.14111,35.82,27.42,16.98
2.9829,-7.9679,-2.0294,-0.36835,0.96914,0.078802,36.42,27.42,17.46
3.2008,-8.6353,-2.0839,-0.34667,1.065,-0.029627,37.02,27.36,17.88
3.7592,-9.2482,-2.6696,-0.30421,1.0235,-0.22602,37.8,27.42,18.72
3.7728,-8.9077,-2.8603,-0.27458,0.82956,-0.3375,38.04,27.54,19.14
3.8273,-8.6353,-3.0918,-0.12828,0.5171,-0.45173,38.1,27.6,19.62
3.9363,-8.54,-3.5413,0.14233,-0.11301,-0.61117,38.4,27.48,20.46
4.0316,-8.7715,-3.514,0.27581,-0.49969,-0.67012,38.52,27.54,20.64
4.0861,-9.4117,-3.2689,0.33903,-0.66798,-0.70127,38.52,27.6,20.82
4.3721,-11.536,-2.8739,0.49786,-1.0146,-0.75808,38.22,27.78,21.18
4.6718,-13.43,-2.6696,0.48839,-1.1582,-0.79412,37.98,27.78,21.24
4.808,-14.519,-2.7241,0.36224,-1.2184,-0.84605,37.44,27.9,21.12
4.9578,-14.669,-2.8467,0.21808,-1.2685,-0.9331,37.02,27.9,20.94
5.0531,-13.974,-3.0237,0.033598,-1.4392,-1.1185,36.66,28.02,20.7
5.1213,-13.334,-3.0646,-0.10476,-1.6716,-1.2908,36.24,28.2,20.58
4.8625,-12.149,-1.9341,-0.24038,-1.9395,-1.4731,35.4,28.32,19.86
4.6173,-12.027,-1.362,-0.36346,-2.1368,-1.6078,34.74,28.56,19.38
4.4539,-12.122,-0.68102,-0.50549,-2.1805,-1.6942,34.26,28.68,18.84
3.8818,-11.986,-0.32689,-0.80207,-1.8595,-1.8234,32.82,29.22,18.0
3.6366,-11.441,-0.47671,-1.0091,-1.4047,-1.9038,31.92,29.52,17.7
3.5685,-10.678,-0.57205,-1.1365,-0.89553,-1.9862,30.96,29.7,17.52
4.1133,-9.4661,-0.6674,-1.1561,-0.489,-2.0824,28.8,30.42,16.92
4.5764,-8.7987,-0.64016,-1.1115,-0.25931,-2.1683,27.72,30.78,16.68
4.6309,-8.3493,-0.49033,-1.0476,-0.23091,-2.2544,26.46,31.32,16.44
4.4947,-7.4912,-0.040861,-0.98319,-0.26939,-2.4031,23.76,32.22,16.56
4.2359,-7.0281,0.040861,-0.88056,-0.32315,-2.4673,22.32,32.76,16.56
3.9908,-6.4833,0.054481,-0.79779,-0.29749,-2.4987,20.7,33.18,16.56
3.514,-5.8567,-0.24517,-0.68783,-0.23763,-2.5006,17.1,34.02,16.92
3.4459,-5.9112,-0.29965,-0.56536,-0.18479,-2.4322,15.3,34.32,17.22
3.4732,-5.9385,-0.19068,-0.43249,-0.1854,-2.284,13.56,34.62,17.46
3.8273,-5.993,-0.24517,-0.28497,-0.26206,-2.065,9.96,35.04,17.88
4.0044,-6.0474,-0.28603,-0.032987,-0.55283,-1.6628,8.22,35.16,18.18
4.2087,-6.2654,-0.46309,0.051924,-0.66981,-1.5149,6.42,35.28,18.36
4.0589,-6.8374,-0.74912,0.28802,-0.97066,-1.0644,3.12,35.34,18.78
4.2495,-7.1915,-0.77636,0.42638,-1.0767,-0.74923,1.38,35.34,18.9
4.2495,-7.8453,-0.85808,0.54306,-1.098,-0.45937,-0.12,35.4,19.14
4.2495,-8.3493,-1.2395,0.61881,-1.0574,-0.20433,-2.82,35.16,19.2
4.2495,-8.826,-1.5527,0.75992,-0.9389,0.13134,-4.14,35.1,19.44
4.413,-9.2346,-1.7025,0.88423,-0.8769,0.34361,-5.16,34.92,19.38
4.985,-10.46,-2.6832,1.0275,-0.90164,0.57544,-6.84,34.98,19.2
5.1213,-11.06,-3.0237,1.1692,-1.047,0.79351,-7.56,34.86,19.14
4.9169,-11.645,-3.2008,1.2651,-1.1927,1.0027,-8.16,34.8,19.14
4.2359,-12.83,-2.2065,1.2825,-1.1759,1.3421,-8.82,34.8,18.84
4.304,-13.416,-2.0294,1.2892,-0.78007,1.6136,-8.88,34.8,18.48
4.413,-14.288,-2.1248,1.2486,-0.44715,1.9056,-9.12,34.92,18.06
4.6309,-12.994,-3.4868,1.2459,-0.21258,2.1191,-8.82,35.16,17.4
4.3858,-11.754,-3.7728,1.2697,-0.13836,2.1872,-8.46,35.52,16.98
3.8818,-10.311,-3.5277,1.2355,-0.14386,2.0968,-7.92,35.82,16.32
3.3234,-9.8203,-2.7649,1.1716,-0.15516,1.8692,-6.72,36.3,15.18
3.3097,-9.9156,-2.6287,1.0763,-0.13744,1.751,-5.94,36.48,14.64
3.4323,-10.324,-2.6015,1.0192,-0.14539,1.7245,-5.1,36.78,14.22
3.4868,-10.229,-2.8058,0.73212,-0.11179,1.6991,-3.18,36.84,13.2
3.4187,-9.6704,-2.4925,0.50457,0.016188,1.6619,-1.98,36.96,12.72
3.2008,-8.9758,-2.3018,0.29749,0.25626,1.5919,-0.84,37.14,12.18
2.547,-7.2324,-1.7298,0.17043,0.58918,1.4676,1.5,37.14,11.58
2.4789,-7.0417,-1.8115,0.11576,1.0525,1.2663,2.76,37.14,11.16
2.6968,-6.6331,-2.6423,0.094379,1.1664,1.1976,4.38,37.14,10.98
2.9965,-6.3879,-2.7513,0.012217,1.3784,1.011,7.26,36.9,10.5
3.0646,-6.0474,-2.6696,-0.045509,1.383,0.90194,8.76,36.6,10.38
3.4459,-5.7614,-2.7104,-0.064752,1.273,0.80756,11.46,36.24,10.5
3.4459,-5.7614,-2.7104,-0.075136,1.0443,0.71257,11.46,36.24,10.5
3.337,-6.1428,-3.0237,-0.093768,0.6579,0.56749,14.22,35.82,10.38
3.2553,-6.7285,-3.0237,-0.11332,0.46578,0.48045,16.68,35.46,10.5
3.2144,-7.3141,-3.0237,-0.18967,0.38759,0.40684,17.94,35.4,10.5
3.1054,-8.1177,-3.0237,-0.27153,0.42058,0.34575,20.22,35.1,10.8
3.0918,-8.6762,-3.1054,-0.39218,0.55222,0.29505,22.02,35.04,10.98
3.1191,-9.0303,-3.2144,-0.48961,0.72021,0.24557,23.28,35.1,11.16
3.3097,-9.0984,-3.228,-0.54153,0.83719,0.18479,24.36,35.22,11.58
3.5004,-8.7987,-3.2416,-0.58826,0.88942,0.1014,25.14,35.28,11.76
3.4051,-8.2267,-3.2144,-0.60415,0.81673,-0.084299,25.62,35.4,12.06
3.1735,-8.0496,-3.1054,-0.55619,0.71838,-0.21655,25.92,35.52,12.36
3.0918,-8.0632,-3.0373,-0.53176,0.67592,-0.32376,26.1,35.7,12.66
3.1327,-8.1041,-2.9284,-0.50366,0.6353,-0.38668,26.04,35.82,13.08
3.1599,-7.8317,-2.8603,-0.47403,0.57208,-0.40714,26.1,36.18,13.44
3.1872,-7.6819,-2.9148,-0.42852,0.47281,-0.39828,26.04,36.36,13.68
3.337,-7.3141,-3.0646,-0.33414,0.30696,-0.3598,26.04,36.6,14.22
3.2553,-7.3414,-3.1599,-0.11637,-0.044593,-0.27581,25.8,36.72,14.82
3.2689,-7.5593,-3.1735,0.015882,-0.27764,-0.17135,25.5,37.32,15.48
3.3097,-8.0088,-3.1872,0.13073,-0.4554,-0.044593,25.38,37.5,15.66
3.4323,-8.7851,-3.0918,0.20647,-0.56933,0.10415,25.14,37.92,16.02
3.5413,-9.1801,-2.9011,0.25656,-0.65271,0.26389,24.84,38.22,16.32
3.7047,-9.6023,-2.7649,0.31246,-0.66157,0.39462,24.72,38.34,16.5
4.3177,-11.032,-2.7241,0.37721,-0.69791,0.58613,24.66,38.58,16.44
4.7399,-11.809,-2.8603,0.32895,-0.76267,0.64935,24.66,38.82,16.2
5.0531,-12.054,-2.9284,0.27642,-0.81978,0.62492,24.72,39.0,15.9
5.5162,-12.095,-2.6832,0.22327,-0.92149,0.5287,24.84,39.12,15.6
5.8023,-11.986,-2.5334,0.12828,-1.1875,0.21747,25.08,39.36,14.76
5.3528,-10.815,-2.1793,0.078496,-1.2837,0.069639,25.56,39.36,13.98
5.1485,-9.9292,-1.8796,-0.025656,-1.4187,-0.4444,25.56,39.6,13.74
4.699,-8.3493,-1.3348,0.051007,-1.4334,-0.84208,25.5,39.78,13.2
4.6037,-8.4855,-1.4438,0.18662,-1.4978,-1.1826,25.32,40.08,12.54
5.4073,-9.6023,-1.7706,0.25473,-1.6561,-1.4074,24.84,40.38,12.24
5.6797,-9.9429,-1.6481,0.2529,-1.9743,-1.573,24.48,40.5,11.88
6.3471,-10.556,-1.2667,0.26725,-2.7193,-1.7025,23.22,40.74,11.58
6.5105,-10.774,-1.0079,0.26206,-3.0299,-1.7132,21.6,40.98,11.22
6.2245,-10.515,-0.68102,0.19517,-3.7907,-1.7342,19.44,41.1,11.16
5.8567,-10.283,-0.54481,0.1179,-3.9505,-1.7575,18.06,41.1,11.46
5.3119,-9.8611,-0.57205,-0.023824,-3.7971,-1.8256,15.3,41.1,11.34
5.2711,-9.6977,-0.55843,-0.19212,-3.4657,-1.897,12.06,41.1,11.46
5.4209,-9.902,-0.72188,-0.44288,-2.9877,-2.0485,10.14,40.92,11.76
5.8295,-10.447,-0.53119,-0.62247,-2.7999,-2.1157,6.42,40.74,12.18
5.8704,-10.855,-0.27241,-0.80237,-2.6133,-2.1594,2.46,40.5,13.08
5.7614,-10.992,-0.16344,-0.96944,-2.3634,-2.1664,-1.5,39.96,14.4
5.3664,-11.073,0.040861,-1.0974,-2.022,-2.1447,-3.48,39.78,15.0
5.0259,-10.637,0.01362,-1.1842,-1.5776,-2.1148,-7.32,39.0,16.74
4.9306,-10.052,0.01362,-1.1918,-1.1402,-2.0632,-10.98,38.22,18.3
5.0123,-9.2618,0.095342,-1.0189,-0.71502,-1.9994,-14.7,37.26,20.1
5.0531,-8.6081,0.095342,-0.81551,-0.6411,-1.9523,-16.2,36.66,21.0
4.9442,-7.7636,-0.10896,-0.57299,-0.72937,-1.9035,-19.14,35.46,22.5
4.7671,-7.246,0.01362,-0.30543,-0.89706,-1.8286,-21.78,33.96,24.18
4.522,-7.1507,-0.39499,0.075747,-1.0767,-1.682,-24.0,32.22,25.56
3.909,-7.3277,-0.7355,0.18998,-1.0901,-1.6328,-25.08,31.38,26.22
3.5413,-7.6819,-0.9398,0.46609,-0.9838,-1.4636,-26.94,29.46,27.18
3.4187,-7.8181,-1.0624,0.59651,-0.87262,-1.3292,-27.72,28.56,27.6
3.0237,-8.2131,-1.0624,0.68111,-0.77183,-1.1567,-29.46,26.82,28.44
2.9284,-8.4174,-1.3348,0.74434,-0.7254,-0.92118,-30.54,25.02,28.92
2.8603,-8.8668,-1.8387,0.82467,-0.70311,-0.6634,-31.74,23.16,29.4
2.8467,-9.1256,-2.1793,0.91019,-0.71716,-0.35644,-32.1,22.44,29.64
2.547,-9.6841,-2.3427,0.98166,-0.77519,-0.04612,-33.06,21.0,29.76
2.2201,-9.8748,-2.2474,1.0559,-0.62461,0.44104,-33.54,19.92,29.94
2.152,-10.025,-2.1656,1.1096,-0.40409,0.77427,-33.78,19.5,29.88
2.152,-9.4389,-2.7377,1.1353,-0.18631,1.0201,-34.02,18.78,29.58
2.2474,-8.4582,-3.5822,1.1949,-0.09896,1.1344,-34.2,18.66,29.58
2.2882,-8.4038,-3.8001,1.2996,-0.18112,1.1558,-34.14,18.66,29.34
2.3155,-9.1937,-3.8409,1.3751,-0.35919,1.1668,-34.08,18.78,29.22
2.3155,-10.038,-3.4732,1.3207,-0.59498,1.2138,-33.9,19.14,29.22
2.2882,-10.392,-3.0918,1.2306,-0.65576,1.3024,-33.42,19.62,29.04
2.2474,-10.474,-2.9965,1.1442,-0.5736,1.3876,-33.12,19.98,29.04
2.2337,-10.406,-3.1735,1.047,-0.35766,1.4594,-32.28,20.82,29.1
2.3018,-9.4934,-3.2553,0.93126,-0.092546,1.4838,-31.26,21.78,29.1
2.4517,-8.7715,-3.2825,0.86407,0.10782,1.4193,-30.54,22.32,29.1
2.7377,-8.0088,-3.5549,0.91935,0.13561,1.357,-28.92,23.16,29.1
3.0918,-8.1858,-3.7728,1.0037,-0.067501,1.3347,-27.18,24.18,28.92
3.8546,-8.826,-3.8954,1.0702,-0.43646,1.3424,-25.32,25.26,28.38
3.9771,-8.9213,-3.8954,1.0809,-0.92393,1.3424,-24.24,25.86,28.14
3.8137,-8.8668,-3.732,1.0504,-1.3244,1.3424,-22.32,26.88,27.6
3.6094,-9.0575,-3.6366,1.0366,-1.6576,1.2633,-20.46,28.02,26.94
3.4868,-9.2482,-3.7592,1.0256,-1.7306,1.2162,-19.8,28.62,26.82
3.4323,-9.7113,-4.0452,0.95845,-1.868,1.0101,-18.0,29.64,26.04
3.3642,-9.9973,-4.1542,0.86437,-1.9102,0.82345,-17.34,30.06,25.86
3.2144,-10.283,-4.1678,0.7199,-1.9193,0.5904,-16.02,30.84,25.62
3.0101,-10.12,-3.7047,0.51862,-1.8357,0.36499,-14.76,31.56,25.38
2.8739,-9.8339,-3.4732,0.33139,-1.6591,0.14447,-14.22,31.86,25.38
3.0237,-9.6023,-3.2689,0.1518,-1.4172,-0.11637,-13.26,32.22,25.62
3.8273,-10.12,-2.9284,0.066584,-1.398,-0.2642,-12.66,32.4,25.92
4.3858,-10.61,-2.7513,-0.017715,-1.5363,-0.37965,-12.24,32.58,26.1
4.6445,-10.733,-2.5061,-0.10873,-1.7422,-0.48136,-11.64,32.46,26.7
4.2904,-10.052,-2.0839,-0.18662,-1.8867,-0.57635,-11.1,32.04,27.6
3.7865,-9.1937,-1.1169,-0.20678,-1.9047,-0.67745,-10.86,31.5,28.44
3.3506,-8.54,-0.6674,-0.11484,-1.4615,-0.93585,-10.86,31.32,28.86
3.5685,-8.7306,-0.98067,0.079718,-1.1387,-1.0971,-10.98,30.48,29.88
4.0589,-9.616,-1.4574,0.15027,-1.1261,-1.0803,-11.04,30.06,30.48
5.3119,-11.291,-1.7979,0.20922,-1.3085,-1.0351,-11.22,28.98,31.5
6.5378,-13.62,-1.4438,0.33139,-1.6848,-0.97616,-11.34,27.78,32.64
7.1371,-14.152,0.068102,0.30177,-2.3891,-0.94043,-11.64,26.46,33.54
7.0145,-13.838,0.6674,0.19609,-2.5892,-0.97219,-11.64,25.74,34.14
6.0611,-13.525,1.757,-0.19151,-2.9221,-1.3317,-11.82,24.54,34.98
5.5162,-13.661,2.152,-0.47434,-2.9948,-1.627,-11.88,23.88,35.4
4.5901,-13.77,2.3836,-0.81153,-2.8198,-1.9309,-12.0,22.44,36.54
4.9442,-14.478,1.866,-1.1212,-2.3017,-2.1979,-11.82,20.76,37.44
4.9987,-13.906,1.2395,-1.4047,-1.7003,-2.4529,-11.7,19.02,38.28
5.0259,-13.021,0.98067,-1.5598,-0.86743,-2.8463,-11.58,18.3,39.0
4.7944,-11.795,0.99429,-1.5253,-0.54062,-3.1047,-11.88,16.74,40.14
4.6037,-11.223,1.0351,-1.4627,-0.30971,-3.2874,-11.94,15.0,40.92
4.6445,-10.501,1.5119,-1.3943,-0.17776,-3.3912,-12.06,14.16,41.4
4.2768,-9.3844,1.58,-1.339,-0.11668,-3.4325,-12.36,12.36,42.06
3.6911,-7.641,1.4982,-1.2446,-0.097128,-3.4276,-13.02,10.44,42.36
3.1599,-6.6876,0.96704,-0.9841,-0.135,-3.2965,-13.32,8.64,42.54
2.833,-6.2517,0.7355,-0.87293,-0.16127,-3.2226,-13.62,7.86,42.6
2.6015,-6.0338,0.76274,-0.5342,-0.2529,-2.8619,-14.04,6.9,42.66
2.3836,-5.5707,0.9398,-0.31551,-0.31796,-2.5525,-14.82,5.28,42.54
2.4653,-5.7614,1.076,-0.089797,-0.38485,-2.1658,-15.12,4.38,42.36
2.5198,-6.4016,0.8036,0.13134,-0.49419,-1.7709,-15.36,3.06,42.06
2.5334,-6.7012,0.54481,0.36713,-0.65424,-1.3522,-15.66,2.16,42.06
2.4789,-7.0553,0.49033,0.61758,-0.83322,-0.90133,-15.9,1.68,42.06
2.438,-7.8317,0.50395,0.97861,-1.0037,-0.14783,-16.08,0.72,41.82
2.5334,-8.6081,0.23155,1.2132,-1.0128,0.35583,-16.08,0.3,41.94
2.7786,-9.7658,-0.20431,1.4639,-0.96272,0.85796,-15.96,0.06,41.94
3.8001,-12.108,-0.85808,1.7694,-0.95264,1.5708,-15.84,-0.24,42.06
3.8682,-13.116,-0.96704,1.8696,-0.95051,2.0168,-15.72,-0.18,42.18
3.5549,-14.083,-0.76274,1.8937,-0.90988,2.2315,-15.54,0.06,42.42
3.3915,-15.623,0.14982,1.7755,-0.57513,2.8307,-14.76,1.08,42.54
3.4187,-16.086,0.20431,1.5837,-0.15363,3.1304,-14.46,1.74,42.6
3.6503,-15.84,-0.44947,1.4474,0.29627,3.3738,-14.04,2.52,42.66
4.0452,-13.825,-2.0839,1.3854,0.68417,3.4428,-13.14,4.26,42.54
4.0316,-13.007,-2.4517,1.4013,0.71471,3.3619,-12.54,5.4,42.6
3.8001,-12.926,-2.4517,1.4142,0.57941,2.9749,-11.88,6.54,42.42
3.1872,-12.708,-1.7706,1.2966,0.45937,2.6808,-10.62,8.64,42.0
3.0918,-12.313,-1.4165,1.1292,0.44288,2.4077,-9.96,9.6,41.82
3.1327,-11.754,-1.4982,1.0009,0.51374,2.2071,-9.3,10.68,41.64
3.3097,-10.297,-1.757,0.88637,0.74434,1.9279,-7.8,12.9,41.46
3.2553,-9.4117,-2.1384,0.81428,0.90683,1.7697,-7.02,13.92,41.16
3.1327,-8.5536,-2.4789,0.76877,0.97158,1.646,-6.06,14.82,40.98
3.1191,-7.5593,-2.942,0.76511,0.94837,1.5226,-4.56,16.5,40.38
3.1327,-7.1234,-3.1735,0.72479,0.83536,1.4172,-3.84,17.22,40.14
3.1191,-6.6059,-3.2825,0.61972,0.70311,1.3247,-3.06,17.94,39.78
3.0646,-5.8023,-3.0782,0.50671,0.57849,1.222,-1.68,19.02,39.24
2.8739,-5.5707,-2.9011,0.36896,0.46914,1.0443,-0.96,19.62,38.76
2.7649,-5.7069,-2.8603,0.24862,0.48503,0.92454,-0.42,20.04,38.52
2.6696,-6.2926,-2.7377,0.10904,0.5678,0.78771,0.84,21.06,38.1
2.656,-6.7148,-2.4925,-0.036041,0.71288,0.65271,1.32,21.66,37.8
2.7241,-7.4367,-2.2882,-0.13408,0.89217,0.51649,1.8,22.02,37.44
3.1463,-8.3765,-2.3972,-0.27458,1.1081,0.33475,2.82,22.56,36.6
3.4459,-8.4582,-2.6151,-0.28191,1.1298,0.21197,3.06,22.98,36.36
3.7728,-8.6081,-2.7513,-0.26237,1.0198,0.091324,3.3,23.28,35.94
4.0316,-8.5944,-3.0237,-0.24068,0.90255,0.021075,3.6,23.46,35.7
4.2495,-8.7034,-3.2416,-0.12889,0.40897,-0.17715,3.96,23.76,35.34
4.1951,-9.1937,-3.1054,-0.010996,0.033598,-0.32865,4.26,23.94,35.16
4.1542,-9.8884,-2.8058,0.055589,-0.27794,-0.48839,4.38,24.06,35.16
4.0997,-11.536,-2.4789,0.080634,-0.46823,-0.65424,4.68,24.12,34.8
4.1406,-12.313,-2.1112,0.039706,-0.53267,-0.82436,4.68,24.06,34.68
4.1814,-12.735,-1.8932,-0.041233,-0.49755,-0.95661,4.68,24.06,34.5
4.6718,-13.293,-1.9341,-0.11454,-0.49083,-1.0837,4.56,23.94,34.32
5.38,-14.124,-2.4517,-0.1237,-0.6466,-1.1225,4.5,23.88,34.26
5.993,-14.288,-2.7786,-0.26573,-0.93921,-1.2321,4.26,23.82,34.26
5.5707,-13.171,-2.0839,-0.57024,-1.4664,-1.514,3.9,23.52,34.38
5.0259,-12.585,-0.99429,-0.73395,-1.6948,-1.7535,3.72,23.34,34.44
4.5901,-12.354,-0.21793,-0.80176,-1.6597,-1.9951,3.54,23.22,34.44
4.0044,-12.422,0.095342,-0.86804,-1.339,-2.2138,3.3,23.16,34.62
4.3449,-12.83,-0.68102,-0.9841,-1.0571,-2.4542,2.46,22.68,34.98
4.4675,-12.749,-1.1169,-1.1646,-0.79657,-2.6457,1.98,22.56,35.22
4.1542,-11.836,-0.88532,-1.2963,-0.57574,-2.8326,0.66,21.96,36.12
4.0589,-11.278,-0.8036,-1.2697,-0.39951,-3.0213,-0.06,21.9,36.48
3.9908,-10.597,-0.53119,-1.2254,-0.32437,-3.1493,-1.02,21.78,36.96
3.8409,-9.616,-0.34051,-1.1332,-0.27886,-3.2535,-2.82,21.3,37.68
3.7184,-9.0303,-0.19068,-1.0678,-0.28863,-3.2596,-3.96,21.06,38.1
3.5004,-8.6489,-0.027241,-1.0217,-0.33231,-3.2168,-4.86,20.88,38.34
2.9284,-7.6002,-0.027241,-0.90255,-0.38576,-3.0412,-7.26,20.1,38.94
2.7377,-6.9872,0.081722,-0.81978,-0.36896,-2.8601,-8.58,19.68,39.48
2.547,-6.6059,0.068102,-0.70738,-0.31612,-2.6414,-9.84,19.08,39.78
2.2882,-5.7478,0.040861,-0.54917,-0.2416,-2.3726,-12.6,17.76,40.26
2.2201,-5.6797,0.01362,-0.37782,-0.20433,-2.0782,-13.8,17.1,40.5
2.2882,-5.7069,-0.1362,-0.1909,-0.23427,-1.7407,-15.06,16.32,40.68
2.3836,-6.0202,-0.054481,-0.087965,-0.31307,-1.1857,-17.4,14.82,40.86
2.3563,-6.2654,-0.12258,0.30971,-0.45907,-0.75411,-18.36,13.98,40.92
2.3836,-6.8374,-0.14982,0.5116,-0.52046,-0.25137,-19.26,13.2,41.04
2.8467,-8.54,-0.16344,0.71349,-0.54092,0.28588,-20.94,11.7,41.4
3.2553,-9.5479,-0.081722,0.88637,-0.56536,0.85582,-21.6,10.98,41.46
3.4596,-9.9973,-0.19068,1.0489,-0.54795,1.3854,-22.32,10.44,41.76
4.0725,-12.149,-0.46309,1.3769,-0.57146,2.0919,-23.1,9.96,42.0
4.1406,-13.511,-0.6674,1.551,-0.63622,2.5097,-23.22,9.96,41.94
4.0589,-14.369,-0.58567,1.6209,-0.59529,2.8863,-23.34,10.14,42.0
3.623,-15.132,0.14982,1.5568,-0.34575,3.2034,-22.92,11.16,42.0
3.623,-15.132,0.14982,1.4499,0.079718,3.4639,-22.92,11.16,42.0
3.7456,-13.702,-0.027241,1.3912,0.53054,3.6371,-22.02,12.72,41.7
3.9227,-13.375,-0.6674,1.3891,0.98349,3.6792,-21.24,13.8,41.4
4.3177,-13.607,-1.3212,1.4276,1.0259,3.6334,-19.56,16.32,41.04
4.4675,-13.648,-1.3484,1.4462,0.84788,3.4166,-18.36,17.4,40.74
4.5356,-13.716,-1.2395,1.412,0.74128,3.3051,-17.22,18.66,40.38
4.3858,-13.116,-0.85808,1.2031,0.4722,2.8683,-15.9,19.86,40.02
3.8001,-10.924,-1.1577,1.0592,0.38637,2.532,-12.78,22.32,39.36
3.5685,-10.134,-1.3757,0.97464,0.49297,1.9966,-11.22,23.52,38.88
2.9556,-8.7715,-2.0975,0.91935,0.58674,1.8268,-9.66,24.48,38.46
2.942,-8.3357,-2.3836,0.84513,0.82681,1.5006,-6.3,26.22,37.5
2.8875,-7.8453,-2.4789,0.62675,1.1716,1.1182,-4.62,26.88,37.02
2.8603,-7.5457,-2.6287,0.48075,1.3305,0.93157,-3.0,27.42,36.48
2.9692,-6.851,-2.5879,0.3207,1.4508,0.72693,-0.3,28.38,35.7
2.8739,-6.5514,-2.4789,0.13897,1.529,0.53512,0.96,28.74,35.46
2.7513,-6.2245,-2.1929,0.044288,1.6029,0.39187,1.98,28.92,35.1
2.9011,-6.6467,-2.152,-0.036957,1.5861,0.26909,4.02,29.22,34.44
2.9965,-6.8238,-2.3155,-0.15241,1.5244,0.24954,4.86,29.34,34.14
3.0373,-6.8647,-2.5879,-0.25443,1.4594,0.26725,5.52,29.46,33.78
3.1463,-7.1234,-2.547,-0.26267,1.3964,0.31185,6.12,29.58,33.42
3.6911,-8.6489,-2.6968,-0.24984,1.2807,0.37874,6.84,29.82,32.64
3.9908,-9.4798,-2.833,-0.28497,1.1283,0.45571,7.2,29.82,32.52
4.1542,-9.4661,-2.8603,-0.34911,0.79626,0.47403,7.44,30.06,32.1
4.1678,-9.3163,-2.9011,-0.28222,0.59559,0.3821,7.26,30.18,32.04
4.1542,-9.2618,-2.9284,-0.208,0.42394,0.23763,7.2,30.24,31.92
4.1678,-9.2482,-2.7786,-0.091324,0.20495,0.033903,7.08,30.24,31.56
4.2223,-9.4934,-2.8058,0.058032,-0.046731,-0.15149,7.14,30.24,31.38
4.3449,-10.556,-2.8875,0.1967,-0.4102,-0.43952,7.14,30.3,31.2
4.6037,-12.19,-3.0101,0.22449,-0.50732,-0.54978,7.14,30.42,31.02
4.6854,-13.048,-2.9556,0.10324,-0.76602,-0.894,6.96,30.48,30.96
4.5628,-13.321,-2.8058,-0.039706,-0.92088,-1.1164,6.96,30.54,31.02
4.6037,-13.525,-2.6832,-0.19639,-1.0623,-1.3192,6.9,30.54,31.14
4.1814,-13.552,-2.6423,-0.43616,-1.1597,-1.5391,6.6,30.42,31.14
3.9227,-13.266,-2.0431,-0.832,-1.0608,-1.8436,6.42,30.48,31.2
3.9635,-13.089,-1.2667,-0.91966,-1.0076,-1.916,5.58,30.36,31.5
4.1814,-12.926,-1.1169,-1.1759,-0.93279,-2.0436,5.28,30.36,31.56
4.2223,-12.871,-0.98067,-1.2831,-0.97922,-2.08,4.8,30.12,31.86
4.3449,-12.272,-0.54481,-1.3741,-1.0342,-2.0904,3.78,30.0,32.46
4.1133,-11.632,-0.38137,-1.4484,-0.94165,-2.1383,2.94,29.88,32.94
3.9908,-10.283,-0.49033,-1.4306,-0.74006,-2.2162,0.96,29.58,34.08
3.4459,-9.5479,-0.43585,-1.3378,-0.4496,-2.3592,-0.18,29.34,34.62
3.3506,-8.7987,-0.36775,-1.2129,-0.26848,-2.4645,-1.2,29.1,35.22
3.2961,-8.2948,-0.24517,-1.0916,-0.17776,-2.5589,-2.34,28.68,35.7
3.3097,-7.7636,-0.19068,-0.97097,-0.15424,-2.6295,-5.16,27.54,36.9
3.2144,-7.4095,0.027241,-0.89278,-0.16005,-2.6469,-6.6,26.94,37.56
3.0646,-7.1234,0.17706,-0.81825,-0.21075,-2.6316,-9.6,25.56,38.82
2.833,-7.2188,-0.027241,-0.67317,-0.28772,-2.4661,-11.04,24.78,39.24
2.7377,-7.6955,-0.14982,-0.56627,-0.29596,-2.3078,-12.42,23.94,39.96
2.7513,-7.7636,-0.1362,-0.49236,-0.30788,-2.1188,-13.86,23.1,40.5
2.6423,-7.7364,-0.14982,-0.39126,-0.30024,-1.8876,-16.68,21.24,41.28
2.6151,-7.9134,-0.14982,-0.27489,-0.26206,-1.6438,-18.0,20.16,41.52
2.4244,-8.0632,-0.027241,-0.15699,-0.22969,-1.3864,-19.2,19.02,41.88
2.3018,-8.2403,0.12258,0.050091,-0.16127,-0.91691,-21.42,16.62,42.12
2.3155,-8.1858,-0.027241,0.22694,-0.1295,-0.54245,-22.32,15.48,42.36
2.3972,-8.145,-0.21793,0.32193,-0.13225,-0.33567,-23.22,14.52,42.6
2.547,-8.0769,-0.34051,0.67378,-0.17532,0.30879,-24.0,13.56,42.66
2.8467,-9.3436,-0.89894,0.94287,-0.22327,0.77427,-25.2,11.94,42.6
3.0646,-10.283,-1.0896,1.1765,-0.30604,1.2556,-25.8,11.1,42.6
3.4732,-12.476,-1.0624,1.4371,-0.46517,1.9963,-26.28,10.32,42.78
3.6503,-13.539,-0.81722,1.4911,-0.48655,2.2397,-26.58,10.08,42.48
3.6366,-14.192,-0.69464,1.5464,-0.41936,2.7104,-26.46,10.2,42.36
3.8546,-15.541,-0.28603,1.5284,-0.048564,3.3665,-26.16,10.62,42.18
4.0861,-15.105,-0.84446,1.5076,0.23305,3.6637,-25.74,11.28,42.06
4.2904,-14.274,-1.2122,1.5528,0.39981,3.7629,-25.26,11.88,41.7
4.0589,-12.803,-1.866,1.6145,0.40928,3.5684,-23.82,14.1,40.98
3.7865,-12.83,-1.6072,1.616,0.38118,3.4376,-22.98,15.36,40.62
3.5958,-13.021,-1.2258,1.5305,0.31582,3.1337,-21.9,16.56,40.2
3.4051,-12.735,-0.83084,1.1982,0.36652,2.689,-20.7,17.88,39.96
3.6094,-11.536,-0.68102,1.0424,0.52198,2.4041,-17.64,20.46,39.48
3.514,-10.937,-0.92618,0.88209,0.73884,2.0876,-15.84,21.78,39.06
3.1054,-9.1937,-1.5119,0.62522,1.1335,1.605,-12.48,24.18,38.1
3.1054,-9.1937,-1.5119,0.62522,1.1335,1.605,-12.48,24.18,38.1
2.9284,-7.7636,-2.0975,0.44196,1.536,1.1243,-8.94,26.34,37.2
2.9284,-7.3822,-2.1248,0.31429,1.6713,0.95661,-7.2,27.24,36.84
3.0101,-6.4152,-2.0294,0.21014,1.7327,0.81917,-4.02,28.5,35.76
3.0101,-6.1836,-2.0294,0.14355,1.7703,0.73701,-2.46,29.1,35.1
3.1327,-6.3743,-1.9613,0.067195,1.7654,0.69333,0.12,29.76,34.26
3.2416,-6.2517,-1.7979,-0.049786,1.7202,0.66829,1.32,30.0,33.78
3.4459,-6.5378,-1.866,-0.11332,1.6689,0.66035,2.34,30.24,33.36
3.5277,-6.7693,-1.9613,-0.18998,1.5473,0.62889,3.18,30.48,32.76
3.6366,-7.6546,-2.2474,-0.21655,1.4719,0.56474,4.5,30.84,31.74
3.6775,-7.9951,-2.4789,-0.22663,1.3882,0.46731,4.92,30.84,31.26
3.7865,-8.145,-2.6151,-0.23457,1.2746,0.34544,5.22,30.9,30.9
4.127,-8.8124,-3.1463,-0.12859,0.94104,0.14416,5.7,31.08,30.36
4.2223,-9.2346,-3.2825,-0.10232,0.63316,-0.0085521,5.88,31.14,30.12
4.2495,-9.4117,-3.3097,-0.07758,0.29871,-0.17685,6.0,31.08,29.76
4.1814,-9.7658,-3.4051,-0.027184,-0.018937,-0.35461,6.06,31.32,29.46
3.9635,-10.12,-3.3915,-0.024129,-0.29566,-0.53237,6.06,31.2,29.58
3.8137,-10.42,-3.3234,-0.044593,-0.47464,-0.73487,6.06,31.2,29.46
3.6775,-11.918,-2.5061,-0.068111,-0.4612,-1.0015,6.12,31.14,29.4
3.9635,-12.858,-2.0839,-0.090408,-0.35675,-1.1106,6.06,31.02,29.22
4.3858,-13.484,-2.0839,-0.13561,-0.33445,-1.1274,5.94,30.9,29.22
5.4481,-14.451,-2.6151,-0.19028,-0.44135,-1.1157,5.28,30.9,29.34
6.0202,-14.192,-2.8058,-0.31429,-0.67623,-1.138,4.98,30.84,29.4
6.1973,-13.321,-2.833,-0.44349,-1.0382,-1.3024,4.62,30.78,29.4
5.3937,-11.686,-1.6889,-0.53023,-1.4963,-1.558,3.66,30.54,29.46
4.6445,-11.346,-0.40861,-0.62033,-1.7895,-1.8265,3.06,30.3,29.46
4.1814,-11.55,0.054481,-0.62614,-1.7648,-2.0684,2.4,30.12,29.76
4.3177,-12.408,-0.27241,-0.75472,-1.4358,-2.3906,1.68,29.7,30.06
4.0452,-12.871,-0.8717,-1.0296,-1.0757,-2.591,-0.06,29.04,30.6
3.8137,-12.122,-0.70826,-1.2697,-0.61911,-2.7254,-1.08,28.68,30.96
3.6911,-10.392,-0.32689,-1.3732,-0.15577,-2.8268,-3.48,27.66,31.68
3.7592,-9.6841,-0.1362,-1.3628,0.15058,-2.9483,-4.68,27.0,32.04
3.8954,-9.221,-0.081722,-1.299,0.20006,-3.0372,-5.94,26.34,32.46
3.7047,-8.0632,-0.027241,-1.0864,-0.11881,-3.0974,-8.58,24.54,32.82
3.4459,-7.8317,0.01362,-0.9108,-0.33995,-3.0061,-9.9,23.82,33.18
3.3097,-7.4095,-0.027241,-0.66065,-0.6182,-2.7776,-12.6,21.66,33.6
2.833,-7.1234,-0.12258,-0.50091,-0.76389,-2.5724,-13.98,20.58,33.72
2.7513,-7.0145,-0.095342,-0.41569,-0.80115,-2.4322,-15.3,19.62,33.84
2.6968,-6.8374,-0.095342,-0.25412,-0.83597,-2.1386,-16.44,18.48,33.9
2.6423,-6.7421,-0.027241,-0.037874,-0.87842,-1.686,-18.48,16.14,33.9
2.4789,-6.6331,0.095342,0.1069,-0.94776,-1.3796,-19.38,15.0,33.84
2.3699,-6.6195,0.01362,0.26114,-1.0137,-1.0742,-20.16,13.8,33.78
2.2337,-6.7966,-0.21793,0.45601,-1.0458,-0.54214,-21.66,11.58,33.72
2.2201,-6.8374,-0.17706,0.52229,-1.0421,-0.36316,-22.14,10.68,33.84
2.3018,-6.7285,-0.28603,0.7477,-0.9896,0.20464,-22.62,9.84,33.96
2.438,-7.7091,-0.42223,0.93432,-0.9218,0.58949,-23.22,8.4,34.08
2.5742,-8.7715,-0.43585,1.1173,-0.87476,1.025,-23.4,7.68,34.2
2.8603,-9.9973,-0.49033,1.2813,-0.84635,1.4755,-23.4,7.38,34.32
3.6775,-12.204,-0.50395,1.4227,-0.85552,2.1136,-23.34,6.84,34.62
3.7865,-13.184,-0.57205,1.6725,-0.86315,2.4691,-23.1,6.72,34.86
3.909,-14.737,-0.28603,1.7187,-0.73334,2.7785,-22.98,6.96,34.98
3.5277,-15.459,0.1362,1.6924,-0.42302,2.9813,-22.38,7.92,35.16
3.4187,-15.541,0.1362,1.697,0.012217,3.1157,-21.9,8.46,35.1
3.623,-15.377,-0.44947,1.6845,0.40989,3.1515,-21.3,9.3,35.16
3.7184,-13.457,-1.1169,1.5977,0.78252,2.9633,-19.74,11.28,35.1
3.5685,-12.544,-1.2122,1.5629,0.88606,2.7055,-19.02,12.42,34.98
3.5685,-12.367,-1.3212,1.4991,0.8717,2.4041,-18.24,13.38,34.8
3.4187,-12.408,-1.58,1.3182,0.81306,2.0779,-16.26,15.66,34.38
3.4187,-11.85,-1.6072,1.0794,0.80787,1.766,-15.18,16.8,34.08
3.3097,-10.515,-1.7434,0.8714,0.85827,1.492,-13.2,18.9,33.42
2.9556,-9.9973,-1.6617,0.6689,1.0253,1.0574,-11.94,19.8,33.06
2.6696,-8.9486,-1.8387,0.49969,1.2688,0.92852,-11.04,20.76,32.7
2.4517,-7.8453,-1.9886,0.37324,1.5256,0.69669,-8.7,22.26,31.74
2.4108,-7.5048,-2.3699,0.30146,1.7361,0.52931,-7.62,23.04,31.26
2.5061,-7.2733,-2.5334,0.13836,1.9422,0.39095,-6.66,23.64,31.02
2.7513,-6.5378,-2.3427,0.000611,1.9994,0.35125,-4.98,24.42,29.82
2.833,-6.1292,-2.2882,-0.097433,1.9899,0.34606,-4.08,24.84,29.46
2.9556,-5.8567,-2.0567,-0.16677,1.9032,0.36011,-3.36,25.02,28.92
3.2825,-5.8023,-2.1248,-0.16585,1.7162,0.40531,-1.92,25.56,28.14
3.4187,-6.279,-2.3836,-0.15821,1.4349,0.46578,-1.32,25.74,27.66
3.4732,-6.4833,-2.5742,-0.16982,0.99235,0.50732,-0.78,25.92,27.18
3.4187,-7.2188,-2.7377,-0.19487,0.75931,0.49969,0.18,26.28,26.58
3.3506,-7.6955,-2.6696,-0.18754,0.58124,0.45357,0.48,26.4,26.34
3.3778,-8.9894,-2.547,-0.16738,0.4893,0.40012,1.26,26.7,25.68
3.5549,-9.398,-2.6423,-0.17349,0.41386,0.27581,1.62,26.76,25.32
3.7592,-9.4934,-2.656,-0.1799,0.3598,0.21441,1.8,26.64,25.08
3.8273,-9.3844,-3.0237,-0.15852,0.10965,0.012217,2.16,26.82,24.72
3.909,-9.4798,-3.051,-0.085216,-0.12553,-0.10599,2.34,27.0,24.54
4.2904,-10.052,-3.4868,0.01405,-0.56841,-0.23976,2.76,27.0,24.54
4.4947,-10.869,-3.3506,0.0018326,-0.84544,-0.33353,2.94,26.94,24.36
4.4811,-11.577,-3.0918,-0.016493,-1.0226,-0.43035,3.18,26.94,24.36
4.4402,-12.136,-2.7241,-0.039706,-1.0614,-0.48381,3.24,26.94,24.42
4.4947,-12.858,-2.2882,-0.16799,-0.96303,-0.66951,3.24,26.94,24.42
5.0259,-14.465,-1.9613,-0.23854,-0.80268,-0.76205,3.48,26.76,24.3
5.5435,-14.737,-2.3563,-0.33506,-0.78435,-0.86865,3.48,26.76,24.24
5.5162,-12.64,-2.6696,-0.63591,-1.0516,-1.1762,3.12,26.46,24.42
4.8625,-11.114,-2.0158,-0.7422,-1.0965,-1.4853,2.88,26.34,24.54
4.1951,-10.324,-1.3484,-0.72601,-0.80634,-1.814,2.7,26.28,24.72
4.2223,-11.128,-1.2258,-0.64355,-0.59071,-2.0653,1.98,25.86,24.72
4.9306,-12.081,-1.3484,-0.70005,-0.5339,-2.2284,1.5,25.68,24.9
5.5299,-12.667,-1.0896,-0.84422,-0.57941,-2.3753,0.9,25.5,24.84
5.38,-12.544,-0.28603,-1.0226,-0.61514,-2.4538,-0.66,25.08,25.2
5.1894,-12.136,-0.23155,-1.2251,-0.59071,-2.5611,-1.68,24.84,25.2
4.7263,-11.468,-0.25879,-1.2798,-0.53329,-2.6325,-2.76,24.48,25.32
3.9499,-9.8611,-0.19068,-1.2651,-0.47159,-2.7,-4.86,23.76,25.62
3.5685,-9.0848,-0.1362,-1.2013,-0.38179,-2.737,-6.06,23.46,25.68
3.3642,-8.4174,0.01362,-1.1148,-0.30696,-2.7574,-7.32,23.04,25.86
3.0237,-7.2869,0.027241,-0.95326,-0.25962,-2.7263,-10.08,22.56,26.1
2.8194,-6.6331,0.095342,-0.81795,-0.23152,-2.6072,-11.34,22.14,26.28
2.7649,-6.3198,0.027241,-0.66065,-0.24343,-2.4487,-12.84,21.66,26.34
2.6287,-5.8976,0.054481,-0.49327,-0.32254,-2.2532,-15.48,20.52,26.82
2.5334,-5.8567,0.040861,-0.33323,-0.45112,-2.0189,-16.92,19.92,26.94
2.4108,-5.775,-0.095342,-0.16249,-0.56536,-1.7556,-18.24,19.32,27.12
2.2201,-5.8023,-0.35413,0.090713,-0.68203,-1.3146,-20.46,17.88,27.6
2.1793,-5.8976,-0.28603,0.24312,-0.71166,-0.99327,-21.6,17.1,27.84
2.0158,-6.1292,-0.23155,0.31918,-0.69455,-0.82253,-22.62,16.5,27.96
1.8796,-6.7693,-0.19068,0.52046,-0.55864,-0.25901,-24.48,15.06,28.32
2.0431,-7.1779,-0.34051,0.6463,-0.41508,0.13897,-25.32,14.58,28.62
2.152,-7.6002,-0.64016,0.77733,-0.27855,0.53359,-26.04,14.1,28.86
2.4108,-8.5672,-0.8036,0.93187,-0.16463,1.1283,-26.82,13.14,29.28
2.6015,-9.793,-1.1169,1.1808,-0.094684,1.5769,-27.24,12.78,29.46
2.9965,-10.624,-1.3757,1.2599,-0.11912,1.8243,-27.54,12.66,29.58
3.7047,-12.027,-1.7979,1.4343,-0.26512,2.2917,-27.84,12.72,29.58
4.0589,-13.661,-1.9068,1.6362,-0.50702,2.9068,-27.78,13.08,29.34
3.9635,-15.159,-1.3212,1.697,-0.46762,3.2354,-27.6,13.56,29.34
3.7865,-16.154,-0.81722,1.6331,-0.22571,3.4673,-27.24,14.22,29.1
3.8001,-17.611,-0.54481,1.5372,0.17562,3.6343,-26.04,16.14,28.44
4.2904,-17.461,-1.2803,1.4325,0.60415,3.7544,-25.14,17.1,28.2
4.5764,-16.835,-1.9068,1.31,0.88056,3.7672,-24.24,18.12,27.9
5.2166,-13.702,-3.1735,1.1787,0.87781,3.5042,-21.72,20.46,27.12
4.9578,-12.735,-3.0646,0.99846,0.68111,3.1218,-20.4,21.66,26.76
4.5764,-12.136,-2.5061,0.78985,0.51404,2.7168,-18.96,22.74,26.22
3.6911,-10.855,-1.6072,0.51801,0.46029,2.0543,-15.54,24.9,25.44
3.4732,-10.297,-1.3348,0.34544,0.62797,1.6735,-13.68,25.74,25.08
3.1735,-9.7249,-1.0624,0.17593,0.96761,1.3182,-11.7,26.88,24.96
2.8467,-8.7306,-1.0488,-0.0045815,1.4206,0.98044,-8.04,28.62,24.54
2.6696,-8.1313,-1.185,-0.12859,1.9025,0.71257,-6.36,29.28,24.3
2.6151,-7.7364,-1.362,-0.25901,2.3451,0.51893,-4.62,29.76,24.24
3.0782,-6.5378,-1.6072,-0.39248,2.7177,0.35919,-1.62,30.54,24.0
3.3097,-5.9657,-1.7706,-0.49541,2.9544,0.22877,-0.18,30.72,24.0
3.4596,-5.6661,-1.757,-0.50793,3.0079,0.16432,1.26,30.78,23.94
3.8137,-5.3119,-1.8932,-0.44013,2.6741,0.10934,3.24,30.9,24.06
3.9908,-5.5026,-1.9613,-0.34483,2.1838,0.135,4.26,30.9,24.0
4.0316,-5.9249,-2.2065,-0.25045,1.6014,0.19273,5.1,30.9,24.06
4.0997,-6.4288,-2.6696,-0.17623,0.79474,0.27092,6.12,30.9,24.06
4.0589,-6.674,-2.8467,-0.10537,0.354,0.29749,6.54,31.02,24.06
3.8409,-7.2324,-3.051,-0.064141,0.17685,0.30788,7.08,30.78,23.94
3.6639,-7.6819,-3.3915,-0.033598,-0.25687,0.31154,7.38,30.72,23.94
3.4323,-8.6898,-3.7728,0.038485,-0.41447,0.31551,7.92,30.6,24.18
3.5685,-9.3844,-3.8546,0.081856,-0.49908,0.32284,8.22,30.78,24.18
3.7865,-9.6704,-3.6094,0.011301,-0.55619,0.24343,8.58,30.72,24.24
3.9771,-9.8611,-3.7592,0.087354,-0.65118,0.13134,8.64,30.78,24.18
3.9908,-10.106,-3.909,0.06017,-0.78221,-0.063225,8.88,30.9,24.24
4.0316,-10.665,-3.6366,0.064446,-0.91049,-0.28863,9.3,31.32,24.3
4.0861,-11.455,-3.2416,0.1124,-1.0177,-0.52076,9.3,31.38,24.18
4.2904,-12.735,-2.7649,0.13867,-1.0366,-0.72052,9.3,31.5,24.24
4.8625,-15.609,-2.6832,0.1182,-1.0165,-0.85643,9.24,31.86,24.18
5.0259,-15.895,-2.7649,-0.22816,-1.0116,-1.1041,9.24,32.1,24.12
5.0668,-15.418,-2.9011,-0.46701,-1.0849,-1.3207,8.76,32.52,24.12
4.6718,-12.667,-2.7104,-0.61514,-1.2199,-1.5956,8.16,32.88,24.36
4.1542,-11.768,-1.7979,-0.66859,-1.3347,-1.8781,7.92,33.06,24.36
3.909,-11.496,-1.076,-0.68264,-1.4175,-2.0962,7.2,33.12,24.6
3.6911,-11.836,-0.53119,-0.73548,-1.4077,-2.2562,5.7,33.36,25.14
3.8682,-11.863,-0.5993,-0.84116,-1.1973,-2.3674,4.62,33.54,25.5
4.0725,-11.673,-0.57205,-0.8882,-1.1133,-2.3796,3.36,33.6,25.92
3.8954,-10.746,-0.44947,-1.0406,-0.79871,-2.4487,2.04,33.54,26.46
3.6639,-9.4661,-0.39499,-1.0302,-0.5901,-2.4783,-0.96,33.12,27.72
3.5549,-8.4719,-0.54481,-0.95692,-0.49724,-2.4719,-2.46,32.88,28.38
3.6639,-7.8453,-0.40861,-0.84574,-0.49969,-2.4422,-4.14,32.4,29.34
3.8001,-6.7421,-0.27241,-0.67592,-0.60842,-2.3894,-7.68,31.38,30.96
3.732,-6.2926,-0.19068,-0.58429,-0.66981,-2.3393,-9.06,30.48,31.98
3.732,-6.0611,-0.027241,-0.53451,-0.70647,-2.3188,-10.86,29.64,32.76
3.5685,-5.7478,0.1362,-0.39279,-0.80695,-2.226,-12.6,28.62,33.66
3.3778,-5.8976,0.29965,-0.29535,-0.84177,-2.1108,-15.96,26.64,35.46
3.4732,-5.9793,0.19068,-0.20433,-0.83658,-1.9456,-17.4,25.56,36.42
3.7728,-6.0611,-0.081722,-0.096517,-0.79962,-1.7394,-19.92,23.22,37.98
4.1133,-6.1836,-0.19068,0.04948,-0.77519,-1.511,-21.0,21.9,38.58
4.3449,-6.3335,-0.23155,0.20678,-0.7926,-1.2651,-21.84,20.7,39.24
4.7399,-6.3335,-0.36775,0.47037,-0.88545,-0.9331,-23.28,18.48,40.56
4.7399,-6.6059,-0.69464,0.66951,-1.0266,-0.72846,-23.94,17.34,40.92
4.7126,-6.7012,-1.2803,0.81703,-1.1102,-0.55467,-24.36,16.32,41.4
5.1485,-6.9464,-2.0158,0.93218,-1.0156,-0.40164,-24.78,14.52,42.54
5.4481,-7.2733,-2.0158,0.95967,-0.98899,-0.35491,-25.14,13.92,43.02
5.5299,-7.5729,-1.975,1.0345,-0.94867,-0.15088,-25.2,13.32,43.44
5.8159,-8.1586,-2.1112,1.0791,-0.95295,-0.0036652,-25.26,12.96,43.8
6.0883,-8.6898,-2.7377,1.1402,-0.98349,0.18112,-25.02,12.3,44.46
6.4697,-9.221,-3.3915,1.1738,-1.0195,0.35644,-24.84,12.12,44.76
6.2926,-9.9565,-3.6094,1.1661,-1.0479,0.52779,-24.54,11.94,45.42
6.4016,-11.387,-3.0646,1.2923,-0.90316,0.82192,-24.42,12.18,45.84
6.5378,-12.217,-3.1872,1.3421,-0.77794,1.0379,-24.3,12.54,46.08
6.5786,-12.558,-3.3506,1.3329,-0.76755,1.2608,-23.94,12.96,46.38
6.5786,-12.449,-4.4402,1.3372,-0.89278,1.4215,-23.58,13.32,46.56
5.7342,-11.605,-5.3119,1.2385,-1.0562,1.449,-22.86,14.4,46.86
4.9033,-10.542,-4.8625,1.0504,-1.0669,1.1634,-22.32,15.06,46.86
3.6366,-9.5479,-4.0316,0.85063,-0.97677,1.0168,-21.42,16.62,46.86
3.0237,-9.3436,-3.623,0.66951,-0.70005,0.71593,-20.76,17.34,46.86
2.547,-9.2891,-3.2008,0.35949,-0.1799,0.39645,-20.22,18.12,46.92
2.3699,-9.0303,-2.8875,0.17013,0.17013,0.31734,-19.32,19.38,46.8
2.6287,-8.8124,-2.9556,0.0030543,0.49847,0.31551,-18.9,19.92,46.86
2.7513,-8.7987,-3.3097,-0.16616,0.72113,0.34728,-18.42,20.58,46.74
2.6696,-7.927,-3.1872,-0.3375,0.85796,0.42058,-17.34,21.54,46.68
2.5742,-7.3686,-2.9011,-0.49908,0.99876,0.47647,-17.04,21.66,46.62
2.4517,-6.851,-2.656,-0.48564,1.0611,0.48625,-16.62,21.78,46.56
2.3291,-5.8295,-2.6696,-0.39431,1.0767,0.5058,-16.08,22.02,46.98
2.4925,-5.8023,-2.9011,-0.30543,0.9893,0.51252,-15.84,22.08,47.04
2.6423,-5.6797,-3.0918,-0.26573,0.78649,0.51862,-15.78,21.96,47.16
2.1929,-5.2847,-3.1191,-0.25565,0.80329,0.46548,-15.24,21.6,47.52
3.9499,-5.7069,-3.3506,-0.3821,0.74617,0.45235,-15.24,21.3,47.82
3.8001,-5.5435,-2.7241,-0.27214,0.066584,0.57085,-15.0,21.12,47.94
2.5879,-6.4288,-2.2474,-0.0027489,-0.32467,0.63652,-14.46,20.82,48.36
2.9829,-6.9328,-1.8115,0.087048,-0.4331,0.72785,-14.22,20.76,48.6
2.9556,-7.2869,-1.6481,0.18815,-0.59712,0.76694,-13.56,20.64,48.78
2.7513,-8.5672,-1.7706,0.24312,-0.52046,0.88423,-12.9,20.7,48.84
2.6423,-8.8668,-1.7979,0.21686,-0.4441,0.9108,-12.3,20.82,49.02
2.7377,-8.9486,-1.7706,0.17074,-0.21472,0.95203,-11.82,20.94,49.14
2.9011,-8.8124,-1.9341,0.15241,0.11057,0.96608,-10.8,21.36,49.08
2.9284,-8.6353,-2.0839,0.16524,0.26664,0.91233,-10.2,21.54,49.2
3.0101,-8.2131,-2.2337,0.20372,0.33628,0.84727,-9.72,21.84,49.26
3.3097,-8.2539,-2.8058,0.3204,0.33689,0.79443,-8.7,22.38,49.02
3.5413,-8.6081,-3.1327,0.41936,0.23243,0.80176,-8.04,22.8,48.9
3.7592,-8.826,-3.514,0.51374,-0.077885,0.84819,-7.56,23.16,48.72
3.909,-8.7034,-4.0997,0.5284,-0.3204,0.88911,-6.54,24.0,48.48
3.7728,-8.2131,-4.127,0.51465,-0.53054,0.90042,-6.06,24.42,48.24
3.6775,-7.927,-4.0316,0.51893,-0.69852,0.88026,-5.16,25.38,47.94
3.5004,-8.7306,-3.9635,0.58246,-0.82742,0.86315,-4.8,25.8,47.64
3.5413,-9.4117,-4.0861,0.53939,-0.8378,0.87537,-4.32,26.22,47.4
3.5685,-9.6704,-4.0861,0.47586,-0.81459,0.88728,-3.66,26.64,47.34
3.7456,-10.025,-3.9771,0.21625,-0.58704,0.86529,-3.18,27.06,47.04
3.9908,-10.379,-3.514,0.080634,-0.31918,0.79107,-1.86,27.96,46.62
4.2768,-10.937,-3.1191,0.0051924,-0.058643,0.68081,-1.26,28.26,46.38
5.2438,-11.768,-3.3234,-0.075136,0.051924,0.43371,0.06,29.04,46.2
5.5026,-11.25,-3.1191,-0.28314,-0.1182,0.21044,0.54,29.34,46.14
5.7069,-10.91,-2.656,-0.22694,-0.27611,-0.035736,1.08,29.58,46.26
6.2517,-11.182,-2.3155,-0.12981,-0.52473,-0.30055,1.92,30.06,46.32
6.2654,-10.787,-2.833,-0.11606,-0.87598,-0.55955,2.46,30.06,46.5
6.2654,-9.9837,-2.7649,-0.15821,-1.2104,-0.83902,2.82,30.06,46.62
6.0611,-8.7987,-2.0839,-0.146,-1.4377,-1.2767,3.54,30.12,46.98
6.0338,-8.7306,-1.6344,-0.020769,-1.8326,-1.507,3.72,30.18,47.16
6.0202,-8.8396,-1.4301,0.016493,-2.1658,-1.6787,3.66,30.12,47.4
6.3879,-9.5615,-1.1169,0.050091,-2.5391,-1.7996,3.84,29.88,48.06
6.6331,-10.256,-0.92618,0.061087,-2.9465,-1.8564,3.72,29.7,48.42
6.7148,-10.828,-0.70826,0.010385,-3.2877,-1.8717,3.72,29.58,48.9
6.5514,-11.754,-0.69464,-0.095295,-3.4987,-1.8485,3.48,29.16,49.74
6.1292,-11.264,-0.36775,-0.39981,-3.4444,-1.8851,3.48,28.8,50.28
5.8976,-10.815,-0.068102,-0.5736,-3.1515,-1.992,3.6,28.5,50.88
5.6797,-10.733,0.040861,-0.64507,-2.9893,-2.0663,3.66,28.14,51.42
5.598,-10.774,0.40861,-0.82039,-2.6105,-2.266,3.66,27.84,52.08
5.7069,-11.305,0.50395,-0.94928,-2.3912,-2.3213,3.54,27.0,53.52
5.6661,-11.182,0.64016,-1.0708,-2.1728,-2.3527,3.42,26.52,54.24
5.3664,-10.733,0.65378,-1.1231,-1.938,-2.375,3.42,25.26,55.86
5.2302,-10.338,0.5993,-1.1069,-1.6796,-2.3714,3.54,24.48,56.64
5.0668,-10.106,0.54481,-1.0162,-1.4496,-2.3521,3.42,23.88,57.18
5.094,-9.8066,0.47671,-0.78099,-1.2941,-2.2498,3.42,23.1,57.96
5.1213,-9.7385,0.54481,-0.62675,-1.2737,-2.1417,3.24,21.72,59.1
4.8897,-9.5751,0.68102,-0.49755,-1.2135,-2.0772,3.18,21.12,59.7
4.1542,-9.1393,0.5993,-0.27397,-1.0828,-1.9496,3.06,19.56,60.78
3.8954,-8.8668,0.47671,-0.11545,-1.0159,-1.8696,2.94,18.72,61.2
3.6639,-8.7579,0.31327,0.063835,-0.95326,-1.7599,2.88,17.94,61.5
3.2144,-9.0848,-0.29965,0.26267,-0.89889,-1.6393,2.76,16.62,61.86
2.9556,-9.3844,-0.5993,0.45051,-0.85063,-1.5012,2.76,16.14,62.04
2.7649,-9.5751,-1.1441,0.58643,-0.80237,-1.3011,2.7,15.6,62.22
2.2201,-10.351,-1.1986,0.70005,-0.75381,-1.0443,2.52,14.94,62.28
2.0703,-10.515,-1.1713,0.75503,-0.66706,-0.65515,2.28,14.64,62.28
1.5936,-9.8884,-1.2939,0.73029,-0.50457,-0.26145,2.34,14.4,62.28
1.3757,-8.3629,-2.3427,0.83658,-0.23243,0.25931,2.46,14.04,62.1
1.185,-7.6683,-3.3506,0.97983,-0.19914,0.50732,2.4,13.98,61.98
0.95342,-7.8998,-3.6775,1.1396,-0.25992,0.71929,2.46,13.86,61.86
0.8717,-8.6762,-3.5549,1.2697,-0.3427,1.0599,2.34,14.22,61.38
0.99429,-8.8941,-3.2553,1.3158,-0.35583,1.2944,2.46,14.52,61.02
1.1032,-8.9894,-3.1191,1.3329,-0.34392,1.419,2.58,14.88,60.84
1.6753,-9.0031,-3.1191,1.4212,-0.23976,1.8027,3.0,15.6,60.48
1.7979,-8.8124,-3.514,1.449,-0.15821,2.0125,3.36,16.2,60.18
2.1248,-8.6353,-3.5685,1.4752,-0.13073,2.153,3.84,16.74,60.12
2.5742,-8.4719,-4.1542,1.5806,-0.28253,2.2678,5.28,17.82,59.52
2.8739,-8.6762,-4.2359,1.6616,-0.58826,2.3216,6.24,18.6,59.22
3.2416,-9.0712,-4.3858,1.722,-1.0015,2.3637,7.26,19.32,58.8
3.7184,-9.6023,-4.4675,1.7104,-1.4322,2.3427,9.54,20.94,57.84
3.8001,-9.7249,-4.413,1.657,-1.8198,2.281,10.92,21.84,57.3
3.7047,-10.065,-4.3449,1.5861,-2.0751,2.182,12.36,22.62,56.64
3.5413,-10.556,-4.3177,1.4813,-2.1945,1.9236,15.96,24.18,55.26
3.4323,-10.692,-4.413,1.215,-2.2003,1.653,17.7,24.9,54.48
3.3642,-10.46,-4.413,1.102,-2.1677,1.4847,19.44,25.5,53.58
2.8467,-9.3027,-3.8273,0.75656,-2.0217,0.90988,23.1,26.76,51.42
2.7104,-8.9622,-3.5685,0.64049,-1.9028,0.53451,25.02,27.18,50.34
2.6423,-8.8124,-3.5685,0.55619,-1.803,0.2416,26.76,27.6,49.14
2.9965,-9.2482,-3.6639,0.3934,-1.737,-0.047037,30.12,28.26,46.86
3.1872,-9.4661,-3.4051,0.13256,-1.624,-0.19823,31.56,28.44,45.78
3.4596,-9.8884,-2.9965,0.0012217,-1.5583,-0.33811,32.94,28.74,44.64
3.5413,-10.447,-2.5742,-0.14508,-1.47,-0.48533,34.14,29.04,43.68
3.514,-11.128,-1.9613,-0.25259,-1.3433,-0.65332,36.12,29.16,41.7
3.5004,-11.278,-1.58,-0.34117,-1.2074,-0.81153,36.78,29.34,40.92
3.6366,-11.536,-0.85808,-0.31246,-1.0748,-0.94165,37.26,29.4,40.08
4.6309,-13.43,-1.0896,-0.23579,-1.0232,-1.0327,37.98,29.52,38.64
5.4073,-14.506,-1.3757,-0.42455,-1.2401,-1.0589,38.1,29.64,38.04
6.0202,-14.465,-1.1441,-0.44746,-1.4123,-1.1038,38.1,29.76,37.62
6.2517,-13.661,-0.6674,-0.3146,-1.9905,-1.3372,38.04,29.82,37.14
6.0066,-13.184,-0.29965,-0.31734,-2.2452,-1.628,37.74,29.82,36.84
4.9169,-12.776,1.0624,-0.39462,-2.251,-1.967,36.78,30.12,35.94
4.9987,-13.457,1.5119,-0.6411,-2.1478,-2.3262,36.12,30.24,35.58
4.9578,-14.22,2.0567,-0.95631,-2.0262,-2.5552,35.28,30.42,35.34
4.5764,-14.342,2.7649,-1.2801,-1.7779,-2.7116,33.54,30.18,35.04
4.2495,-14.124,2.9556,-1.5476,-1.4093,-2.8344,32.28,30.12,34.86
3.9635,-13.266,3.0782,-1.7043,-0.94134,-2.9392,31.08,30.0,34.8
3.6094,-11.972,2.5061,-1.7309,-0.46334,-3.0003,28.56,29.58,34.5
3.5685,-10.787,2.0703,-1.4817,0.049786,-3.0665,27.0,29.4,34.56
3.4732,-9.5751,1.6753,-1.3534,0.1573,-3.0803,25.44,29.22,34.62
3.4732,-8.0769,1.3757,-1.0757,0.21838,-3.1041,24.0,28.98,34.62
3.4459,-7.6138,1.3484,-0.7199,0.019853,-3.0623,20.64,28.32,34.62
3.2689,-7.246,1.3212,-0.54459,-0.25504,-2.9789,19.02,28.08,34.8
3.1191,-6.8919,1.1577,-0.4102,-0.55864,-2.8356,17.4,27.6,34.98
2.6968,-6.2245,0.9398,-0.22969,-0.89217,-2.5107,14.16,26.88,35.1
2.4925,-6.0611,0.8036,-0.17654,-0.9615,-2.3656,12.66,26.22,35.1
2.2746,-5.9521,0.64016,-0.058948,-1.0305,-2.0525,11.04,25.62,35.22
2.1112,-6.6059,0.55843,0.17532,-0.93951,-1.5476,8.46,24.72,35.4
2.0567,-6.7693,0.46309,0.32803,-0.82864,-1.1619,7.38,24.36,35.34
2.1656,-6.7693,0.55843,0.50396,-0.7028,-0.73365,6.3,23.76,35.34
2.3563,-7.2188,0.20431,0.81428,-0.56688,-0.062614,4.74,22.92,35.1
2.5334,-7.927,0.027241,1.076,-0.55833,0.39828,4.08,22.5,35.04
2.8467,-8.8668,-0.16344,1.201,-0.5791,0.63774,3.48,22.14,34.92
3.2825,-10.392,-0.47671,1.5699,-0.72388,1.3305,2.82,21.36,34.38
3.5004,-11.795,-0.70826,1.8042,-0.83658,1.7807,2.64,21.12,33.9
3.6503,-13.062,-0.74912,1.9807,-0.93218,2.1933,2.76,21.0,33.72
3.5958,-15.091,-0.50395,2.0626,-0.93096,2.7394,3.18,20.94,33.12
3.4051,-16.126,-0.095342,1.9844,-0.60659,3.0345,3.54,21.12,32.7
3.3506,-16.603,0.20431,1.8094,-0.2303,3.2584,4.08,21.36,32.04
3.5958,-15.078,-0.57205,1.6515,0.1127,3.3579,5.58,21.66,30.78
3.732,-13.879,-1.3076,1.5809,0.2926,3.3115,6.42,21.84,30.12
3.6775,-13.007,-1.7979,1.5876,0.33475,3.1221,7.5,22.14,29.52
3.6094,-12.967,-2.438,1.5882,0.26023,2.8729,9.42,22.56,28.14
3.732,-13.076,-2.3699,1.3485,0.076664,2.4682,10.62,22.8,27.54
3.7728,-12.817,-2.3427,1.2058,0.039706,2.3008,11.82,22.98,26.94
3.2825,-11.21,-1.5936,0.77549,0.12675,1.762,14.4,23.34,25.74
2.833,-10.161,-1.3484,0.57666,0.32926,1.401,15.72,23.4,25.2
2.4517,-9.1937,-1.2395,0.43371,0.61423,1.0895,16.92,23.46,24.42
2.2337,-7.8045,-1.5663,0.34483,0.91172,0.697,19.44,23.4,23.34
2.1384,-7.6002,-1.866,0.18815,1.2929,0.52657,20.82,23.34,22.86
2.4108,-6.96,-2.0703,0.13195,1.3943,0.45723,22.08,23.28,22.44
2.656,-6.0338,-2.5061,-0.02138,1.5568,0.28741,24.36,23.16,22.08
2.833,-5.7069,-2.6151,-0.10629,1.532,0.23335,25.38,22.98,22.08
2.8875,-5.6388,-2.4653,-0.16432,1.4453,0.1857,26.22,22.92,21.9
2.8194,-5.7614,-2.1793,-0.20769,1.3131,0.16524,28.14,22.86,21.9
2.9284,-6.0066,-2.2201,-0.22083,1.054,0.13134,28.68,22.74,21.84
3.0101,-6.3879,-2.261,-0.20922,0.86865,0.12737,29.28,22.68,21.84
3.1191,-6.8647,-2.3427,-0.19242,0.77549,0.13073,29.76,22.56,22.08
3.3506,-8.0632,-2.4244,-0.14386,0.4893,0.16005,30.54,22.62,22.38
3.4459,-8.5808,-2.547,-0.13134,0.31948,0.17287,30.96,22.68,22.62
3.4732,-8.7987,-2.6015,-0.090103,0.17165,0.15363,31.26,22.74,22.86
3.623,-9.3027,-2.4925,-0.028405,0.0079412,0.072998,31.68,22.5,23.16
3.732,-9.5751,-2.4108,-0.011606,-0.040623,0.022297,31.86,22.38,23.58
