Ax,Ay,Az,Gx,Gy,Gz,Mx,My,Mz
2.547,-7.6546,0.34051,-0.086743,-0.45143,-1.5797,3.0,47.1,4.02
2.4789,-7.927,0.31327,0.078496,-0.71716,-1.4148,1.8,47.34,4.02
2.0158,-8.9758,0.054481,0.29993,-0.87079,-1.0684,-0.72,48.06,4.14
1.9613,-9.3708,-0.12258,0.36316,-0.85216,-0.75167,-1.68,48.18,4.2
1.9341,-10.052,-0.51757,0.3879,-0.83017,-0.58277,-2.46,48.3,4.14
1.9613,-10.624,-0.70826,0.40439,-0.71868,-0.0024435,-3.9,48.48,4.2
1.8387,-11.141,-1.0351,0.38576,-0.56933,0.40623,-4.44,48.54,4.26
1.9613,-11.877,-1.2258,0.36744,-0.40409,0.79351,-5.16,48.48,4.14
1.8115,-12.381,-0.88532,0.33903,-0.17165,1.1671,-6.06,48.3,4.02
1.58,-12.217,-0.78998,0.33995,0.219,1.4774,-6.42,48.3,3.78
1.5119,-12.0,-0.99429,0.44715,0.95906,1.8805,-6.6,48.3,3.48
1.7843,-10.665,-2.1248,0.4945,1.5146,2.0152,-6.96,48.42,2.46
1.7843,-10.665,-2.1248,0.51404,1.5733,2.0012,-6.96,48.42,2.46
2.4789,-9.1937,-3.4596,0.51435,1.4371,1.9331,-6.96,48.48,1.74
2.6968,-9.2618,-3.4323,0.46426,0.85491,1.8051,-6.9,48.42,1.44
2.4653,-9.1665,-2.7649,0.42547,0.64446,1.7685,-6.84,48.3,1.14
2.2201,-9.0848,-2.0567,0.32803,0.24954,1.6066,-6.12,48.12,1.08
1.9341,-9.0575,-1.6072,0.26145,0.31185,1.5091,-5.58,47.94,1.26
1.4982,-8.8396,-1.2803,0.18418,0.64171,1.3885,-4.02,47.46,1.56
1.7706,-8.54,-1.1577,0.13531,1.1173,1.303,-2.88,47.22,1.8
1.9341,-8.322,-1.1441,0.11759,1.8106,1.2153,-1.86,46.86,2.04
2.4108,-7.9951,-1.2258,0.1182,1.97,1.2159,0.42,46.26,3.0
2.8603,-7.7636,-1.0215,0.11393,2.1344,1.2544,1.38,45.9,3.42
3.1463,-7.5729,-0.99429,0.15302,1.9661,1.303,2.58,45.42,3.96
3.623,-7.641,-0.98067,0.20342,1.6325,1.3702,5.22,44.64,4.92
3.8682,-7.8589,-1.0215,0.24435,1.2126,1.4523,6.54,44.22,5.34
4.0589,-8.322,-1.2531,0.32284,0.72662,1.5143,7.98,43.92,5.7
3.9635,-8.9622,-1.5119,0.45815,0.067806,1.5739,10.92,43.38,6.0
3.9227,-9.5751,-1.6072,0.53481,-0.23732,1.5742,12.18,43.02,6.06
3.7865,-9.9565,-1.7434,0.56719,-0.42516,1.5272,13.38,42.72,5.94
3.6639,-10.42,-2.0567,0.57788,-0.46059,1.4248,15.24,42.24,5.7
3.6094,-10.447,-2.261,0.56566,-0.41172,1.2682,15.96,42.0,5.58
3.6366,-10.46,-2.3972,0.52565,-0.31918,1.0278,17.76,41.64,4.98
3.7456,-11.7,-2.3291,0.45387,-0.2361,0.55711,18.54,41.46,4.56
4.0044,-13.225,-2.1929,0.39248,-0.22969,0.24923,19.44,41.34,4.32
4.2904,-14.315,-2.1929,0.2364,-0.21319,-0.054978,20.1,41.04,3.96
4.2223,-13.757,-2.3972,0.072388,-0.27122,-0.37141,21.42,40.8,3.3
4.0316,-12.381,-2.4789,-0.05681,-0.4215,-0.73334,21.9,40.74,3.0
3.5413,-11.019,-2.2201,-0.17165,-0.57574,-1.102,22.5,40.62,2.76
3.4459,-10.311,-2.0839,-0.34056,-0.84971,-1.5675,22.92,40.5,2.22
3.5685,-10.351,-1.8115,-0.42791,-1.1173,-1.8283,23.04,40.56,2.04
3.5277,-10.42,-1.7025,-0.53878,-1.3787,-2.0058,23.04,40.68,1.86
3.2416,-10.637,-1.1577,-0.62522,-1.6182,-2.1377,22.68,40.8,1.44
3.0646,-11.073,-0.84446,-0.70097,-1.7547,-2.2376,22.32,40.98,1.38
2.7377,-11.482,-0.38137,-0.77946,-1.7141,-2.2614,21.6,41.22,1.44
2.1793,-11.496,0.054481,-0.88209,-1.3299,-2.2217,20.04,41.46,1.62
2.1248,-11.087,0.095342,-0.97005,-0.98685,-2.1432,18.96,41.64,1.68
2.2201,-10.42,0.068102,-1.0024,-0.66493,-2.0611,17.88,42.0,2.04
2.3563,-9.1665,0.38137,-0.98258,-0.47067,-1.9743,14.82,42.6,2.58
2.3972,-8.4446,0.64016,-0.93279,-0.38943,-1.8598,13.14,42.78,2.76
2.4517,-7.8453,0.64016,-0.83658,-0.42455,-1.7798,11.4,43.14,3.0
2.438,-7.0962,0.72188,-0.67134,-0.66065,-1.6509,7.8,43.56,3.36
2.3836,-6.8374,0.74912,-0.55528,-0.83078,-1.5537,5.88,43.74,3.48
2.2882,-6.674,0.68102,-0.50244,-0.91721,-1.5104,4.14,43.92,3.6
2.152,-6.5786,0.76274,-0.35705,-1.0626,-1.3216,0.9,44.4,3.72
2.0294,-6.8919,0.76274,-0.25779,-1.0522,-1.1784,-0.66,44.52,3.66
2.0294,-7.5048,0.6674,-0.16707,-0.98502,-0.99021,-3.6,44.94,3.24
2.0431,-7.8317,0.7355,-0.084299,-0.79138,-0.6521,-4.74,45.18,3.24
2.152,-8.8124,0.61292,0.045509,-0.6463,-0.3992,-6.9,45.36,3.06
2.1656,-9.8066,0.50395,0.088881,-0.57544,-0.26603,-7.68,45.48,3.0
2.2746,-10.992,0.40861,0.16096,-0.40775,0.0064141,-8.16,45.48,2.7
2.4108,-12.149,0.095342,0.20311,-0.14019,0.38882,-9.06,45.54,2.28
2.5061,-12.735,-0.20431,0.2419,0.012217,0.64141,-9.06,45.6,2.1
2.6968,-13.579,-0.068102,0.29902,0.15058,1.0366,-9.18,45.66,1.98
2.7377,-14.233,0.47671,0.42058,0.34086,1.3314,-9.18,45.96,1.74
2.7649,-14.22,0.095342,0.55039,0.57788,1.6118,-9.12,45.84,1.68
2.8603,-13.579,-0.53119,0.61636,0.72632,1.8014,-9.0,45.84,1.56
3.228,-11.441,-2.3427,0.6353,0.65057,1.8995,-8.52,45.84,1.38
3.2825,-10.229,-3.4187,0.66035,0.2697,1.8784,-8.28,45.72,1.26
2.8739,-9.2482,-3.4323,0.63866,-0.27703,1.7471,-7.98,45.6,0.84
2.547,-9.4253,-2.833,0.54489,-0.80695,1.4954,-7.74,45.6,0.72
2.152,-9.4661,-2.5198,0.49633,-0.8491,1.3885,-7.08,45.3,0.72
1.757,-9.1937,-1.9886,0.31979,-0.56719,1.084,-6.72,45.18,0.84
1.1169,-8.6353,-1.4301,0.23213,-0.085216,0.87568,-5.1,44.82,1.32
0.99429,-8.4855,-1.471,0.13195,0.59682,0.70402,-4.26,44.58,1.5
1.4438,-8.0088,-1.5527,0.049786,1.5608,0.52321,-2.28,44.1,1.86
1.9613,-7.5593,-1.6072,0.036652,1.9697,0.5061,-1.26,43.8,2.28
2.3972,-7.2188,-1.7706,0.027489,2.1014,0.53695,-0.12,43.68,2.46
2.8058,-6.7557,-1.866,0.059865,1.9386,0.57696,0.9,43.38,2.94
3.4459,-5.9249,-1.4574,0.11942,1.5437,0.63958,3.06,43.14,3.66
3.5413,-5.6524,-1.3757,0.19945,1.0232,0.72785,4.14,42.96,3.9
3.5004,-5.4481,-1.6344,0.28955,0.45784,0.83047,6.72,42.78,4.44
3.6366,-5.7614,-2.1929,0.48991,-0.43982,0.87568,7.74,42.66,4.5
3.7456,-6.4697,-2.5606,0.59223,-1.1038,0.93096,8.58,42.66,4.44
3.8409,-7.7636,-2.8058,0.63438,-1.4398,0.95448,10.2,42.48,4.08
3.3915,-8.9077,-2.6968,0.69028,-2.2443,1.022,10.98,42.48,3.72
3.1599,-9.7249,-2.3836,0.67317,-2.4447,1.0427,11.4,42.48,3.3
2.2882,-10.964,-2.1793,0.63897,-2.3036,1.0452,12.66,42.48,2.16
1.9341,-11.182,-2.152,0.49999,-1.5269,0.94318,13.26,42.3,1.56
1.8524,-11.237,-2.152,0.3766,-0.82039,0.78802,13.74,42.24,1.02
1.8387,-10.787,-2.6287,0.24832,-0.17593,0.55222,14.76,42.3,-0.3
2.0839,-10.542,-2.7922,0.13011,0.26328,0.24251,15.18,42.12,-0.96
2.5334,-10.992,-2.833,0.0281,0.47159,-0.064752,15.78,42.0,-1.5
3.5413,-13.77,-2.3155,-0.03879,0.52809,-0.33567,16.68,41.82,-2.64
3.9227,-14.601,-2.0567,-0.17532,0.46426,-0.59651,17.04,41.76,-3.06
4.2768,-15.663,-1.9341,-0.22694,0.25992,-0.7138,17.46,41.58,-3.42
3.8682,-14.451,-1.8251,-0.34056,0.14722,-0.8323,17.88,41.58,-4.14
3.2144,-11.945,-1.9341,-0.41661,0.092241,-1.0861,17.88,41.46,-4.32
3.051,-10.46,-2.152,-0.42974,-0.054367,-1.3818,17.94,41.46,-4.38
3.2553,-9.5479,-2.0567,-0.44563,-0.33017,-1.6518,17.52,41.4,-4.26
3.4732,-10.011,-1.8251,-0.43707,-0.95997,-1.9316,17.22,41.46,-3.96
3.5413,-10.597,-1.4029,-0.51526,-1.3613,-1.9673,16.38,41.28,-3.78
3.3097,-10.556,-1.0624,-0.55161,-1.5189,-1.9587,15.72,41.22,-3.48
2.8467,-10.678,-0.55843,-0.65301,-1.7853,-1.8986,15.0,41.16,-3.18
2.6151,-10.706,-0.35413,-0.70005,-1.7071,-1.7962,13.98,41.1,-2.82
2.1248,-10.529,-0.31327,-0.80176,-1.4679,-1.6982,11.46,41.04,-1.92
1.9886,-10.161,-0.28603,-0.89309,-0.9444,-1.5259,10.26,40.98,-1.44
1.8524,-9.3027,-0.19068,-0.90836,-0.75442,-1.4847,7.14,41.22,-0.78
1.9341,-8.7715,-0.17706,-0.90316,-0.25626,-1.368,5.64,41.22,-0.48
1.9613,-8.145,-0.054481,-0.86926,-0.034208,-1.3021,4.02,41.4,-0.36
2.0839,-7.1915,-0.16344,-0.78924,0.076969,-1.2675,0.78,41.7,-0.42
2.152,-6.6059,-0.17706,-0.71288,0.091324,-1.2272,-0.78,41.7,-0.36
2.1929,-6.0202,-0.31327,-0.61789,-0.012217,-1.2065,-2.28,41.88,-0.54
2.2201,-5.9249,-0.23155,-0.45632,-0.28497,-1.1744,-5.16,42.18,-0.96
2.1248,-6.0202,-0.27241,-0.35491,-0.46762,-1.1133,-6.42,42.24,-1.26
2.1112,-6.0066,-0.16344,-0.30391,-0.54184,-1.0611,-7.56,42.42,-1.44
2.0839,-6.851,-0.14982,-0.13928,-0.68264,-0.82253,-9.36,42.78,-1.92
2.0431,-7.3822,-0.21793,-0.033598,-0.66859,-0.5568,-10.02,42.72,-2.28
2.2201,-8.1177,-0.38137,0.076664,-0.58002,-0.045204,-10.98,42.72,-2.88
2.2882,-9.0848,-0.34051,0.097433,-0.52779,0.13897,-11.34,42.6,-3.06
2.261,-9.5887,-0.32689,0.18448,-0.23182,0.64507,-11.46,42.54,-3.24
2.2201,-10.161,-0.17706,0.25473,0.03146,0.96181,-11.64,42.42,-3.3
2.4653,-11.291,-0.31327,0.30452,0.27855,1.2498,-11.64,42.18,-3.3
2.5606,-12.149,-0.54481,0.34819,0.48197,1.4972,-11.52,42.18,-3.42
2.9965,-13.607,-0.50395,0.39034,0.63774,1.7052,-11.16,41.88,-3.42
3.0782,-14.397,-0.14982,0.43768,1.0131,1.9679,-10.98,41.82,-3.36
2.9148,-14.873,0.23155,0.52168,1.3222,2.1484,-10.68,41.82,-3.3
2.9011,-14.587,-0.027241,0.59407,1.5986,2.3164,-10.02,41.82,-3.36
3.1599,-12.79,-1.5391,0.60506,1.7712,2.3295,-9.6,41.76,-3.48
3.4596,-11.182,-2.8058,0.58765,1.66,2.2037,-9.24,41.76,-3.48
3.732,-9.2482,-3.4187,0.62766,1.2312,1.9984,-8.04,41.76,-3.36
3.5822,-8.9077,-3.2144,0.50885,0.41539,1.5088,-7.26,41.7,-3.3
3.228,-8.7987,-2.7241,0.39462,-0.015577,1.1274,-6.54,41.64,-3.18
2.3155,-8.3765,-1.471,0.28069,-0.17379,0.77519,-4.62,41.4,-2.76
1.9068,-8.3629,-1.0215,0.18051,-0.040012,0.44318,-3.6,41.34,-2.46
1.6617,-8.5944,-0.5993,0.085216,0.32406,0.14539,-2.58,41.16,-2.22
1.7706,-8.6898,-0.57205,-0.023518,0.79932,-0.082467,-0.54,40.92,-1.5
1.9886,-8.7306,-0.72188,-0.068417,1.3937,-0.2529,0.54,40.68,-1.08
2.152,-8.6217,-0.83084,-0.07758,1.5556,-0.26084,1.44,40.5,-0.78
2.5061,-8.2403,-1.1032,-0.085827,1.9978,-0.19975,3.48,40.08,-0.06
2.7377,-7.9951,-1.185,-0.099876,2.1787,-0.081245,4.38,40.02,0.3
2.9965,-7.4776,-1.2258,-0.076664,2.1814,0.079718,5.22,39.9,0.54
3.4051,-6.7148,-1.2258,-0.032376,1.9942,0.28588,6.72,39.72,0.9
3.4051,-6.3743,-1.4301,0.014966,1.4181,0.53848,7.26,39.66,0.9
3.0237,-6.279,-1.471,0.11332,1.0287,0.6521,8.4,39.6,1.14
2.8739,-6.565,-1.6617,0.18173,0.72143,0.75167,8.7,39.72,1.26
3.0237,-7.2188,-1.9613,0.25565,0.44257,0.85063,8.88,39.72,1.26
3.1463,-7.6002,-2.2065,0.3262,0.17013,0.98807,9.12,39.9,1.32
3.4187,-9.8066,-2.6423,0.39584,-0.12095,1.1261,9.78,39.96,1.2
3.4459,-10.556,-2.6968,0.49633,-0.48167,1.3286,10.14,40.08,0.9
3.3778,-12.027,-2.833,0.49847,-0.53878,1.3717,10.44,40.02,1.02
3.2144,-12.081,-2.8058,0.48686,-0.53787,1.4123,11.28,40.02,0.6
3.0782,-11.85,-2.7649,0.43952,-0.41661,1.3488,11.64,39.84,0.42
2.9556,-12.136,-2.547,0.36805,-0.18815,1.0476,12.78,39.66,0.18
3.051,-12.885,-2.5061,0.33017,-0.12492,0.7535,13.14,39.66,-0.12
3.5277,-14.07,-2.3563,0.21289,-0.15363,0.35339,13.8,39.48,-0.36
4.2087,-14.928,-2.3972,0.14722,-0.21625,0.21441,14.76,39.42,-0.96
4.2223,-14.669,-2.2882,-0.010385,-0.45968,-0.16402,15.3,39.24,-1.32
3.9908,-14.07,-2.0839,-0.079718,-0.50396,-0.32193,16.02,39.0,-1.56
3.2008,-12.19,-2.0022,-0.27122,-0.5116,-0.82742,16.44,38.64,-1.74
2.8058,-9.0848,-2.0294,-0.34697,-0.58368,-1.1912,17.04,38.28,-2.1
2.8875,-8.431,-2.0975,-0.37629,-0.78618,-1.6014,17.1,38.16,-2.1
3.3778,-8.826,-1.9613,-0.40714,-1.0971,-1.6707,17.22,37.98,-2.4
3.5685,-9.1665,-1.471,-0.4609,-1.7086,-1.7859,17.04,37.92,-2.34
3.6366,-9.3572,-1.2531,-0.50824,-2.1237,-1.7471,16.86,37.8,-2.4
3.1872,-9.7658,-0.40861,-0.57085,-2.4166,-1.664,15.9,37.8,-2.4
2.5742,-9.9429,-0.17706,-0.64691,-2.5024,-1.5482,15.36,37.74,-2.46
1.9341,-9.8748,-0.054481,-0.80207,-2.3133,-1.4325,14.64,37.8,-2.34
1.6753,-9.4253,0.12258,-0.9331,-1.8689,-1.3124,12.9,37.68,-2.04
1.6753,-8.7715,0.27241,-1.0369,-1.2892,-1.1897,11.94,37.62,-1.8
1.6072,-8.322,0.38137,-1.1115,-0.48014,-1.0406,10.62,37.68,-1.62
1.9341,-7.2869,0.62654,-1.0568,-0.086132,-0.97433,8.16,37.98,-1.32
2.0839,-7.0826,0.55843,-0.98227,0.15821,-0.92118,6.9,38.04,-1.08
2.152,-6.851,0.65378,-0.87812,0.2532,-0.88026,5.7,38.16,-1.02
2.5061,-6.7966,0.40861,-0.70524,0.17562,-0.82894,3.18,38.4,-0.84
2.6015,-6.96,0.38137,-0.6466,0.11118,-0.81764,1.98,38.4,-0.72
2.656,-7.246,0.36775,-0.52687,-0.083383,-0.77244,0.78,38.64,-0.6
2.6015,-8.1041,0.46309,-0.33628,-0.38087,-0.67073,-1.26,38.82,-0.42
2.547,-9.0575,0.40861,-0.22571,-0.50457,-0.55741,-2.22,38.76,-0.36
2.4653,-9.7658,0.32689,-0.135,-0.4893,-0.35064,-3.9,39.3,-0.36
2.3836,-11.414,-0.12258,-0.13195,-0.36194,-0.21838,-4.56,39.3,-0.36
2.4108,-12.136,-0.28603,-0.1799,-0.17165,-0.066279,-5.1,39.48,-0.66
2.3427,-12.476,-0.20431,-0.20189,-0.04948,0.002138,-5.4,39.42,-0.84
2.2474,-12.967,-0.39499,-0.19609,0.35613,0.20556,-5.94,39.3,-0.84
2.2201,-13.307,-0.068102,-0.12523,0.68111,0.37293,-6.12,39.24,-1.02
2.2474,-13.416,0.068102,-0.037263,1.0657,0.53603,-6.3,39.24,-1.02
2.5879,-12.749,0.027241,0.16463,1.5556,0.81245,-6.42,39.18,-0.96
2.9284,-12.04,-0.50395,0.31796,1.6628,0.99235,-6.54,39.0,-0.96
3.2553,-10.896,-1.1577,0.40164,1.6078,1.0589,-6.6,38.76,-0.9
3.623,-8.9894,-2.4517,0.58857,0.97219,1.1503,-6.42,38.58,-0.84
3.7728,-8.3765,-2.547,0.69516,0.2251,1.0678,-6.36,38.46,-0.78
3.514,-8.3357,-2.2201,0.7648,-0.48136,0.90042,-6.12,38.22,-0.84
2.5061,-8.4174,-1.185,0.77336,-1.0916,0.68111,-5.82,37.74,-0.54
2.0567,-8.322,-0.84446,0.76877,-1.1377,0.60201,-5.52,37.5,-0.24
1.7843,-8.322,-0.57205,0.71899,-0.94104,0.41478,-5.16,37.5,-0.06
1.3757,-8.0496,-1.1305,0.63347,-0.57757,0.35491,-4.14,37.08,0.3
1.1577,-7.8589,-1.58,0.53481,-0.082467,0.34728,-3.6,36.96,0.6
1.1169,-7.4912,-1.9068,0.45082,0.4664,0.35033,-3.0,36.78,0.72
1.3484,-7.246,-2.6015,0.36194,0.99143,0.37874,-1.56,36.48,0.84
0.98067,-7.0281,-2.3836,0.17501,2.2877,0.34544,-0.66,36.54,0.96
-0.44947,-6.9464,-3.3234,0.041539,3.0803,0.39615,0.18,36.54,0.9
1.5527,-7.5457,-3.0782,-0.37904,4.8118,0.43005,1.8,36.42,1.26
4.5901,-7.3141,-2.152,-0.41294,4.2403,0.45021,2.7,36.3,1.5
5.9249,-7.8726,-2.6968,-0.31398,2.9322,0.80359,3.36,36.3,1.68
5.9521,-8.7443,-3.1599,-0.21411,1.3326,1.0049,4.92,36.12,1.74
4.8897,-9.4525,-3.2553,-0.030238,-0.46701,1.0183,5.46,36.12,1.8
4.4402,-9.8066,-3.2553,-0.04948,-1.0904,1.058,6.0,36.12,1.8
3.8273,-10.351,-2.3155,-0.030849,-1.3677,1.1173,7.02,36.3,1.5
3.5004,-10.91,-2.3155,0.16096,-1.8219,1.2905,7.5,36.24,1.38
3.0237,-11.346,-2.261,0.19517,-1.7455,1.273,8.04,36.18,1.32
2.6015,-11.7,-2.1656,0.21105,-1.4514,1.2462,9.06,36.06,1.26
2.6696,-11.741,-2.1112,0.17379,-0.82558,1.1148,9.42,36.06,1.02
2.7649,-11.85,-2.0839,0.17349,-0.61056,1.036,10.02,36.0,1.02
3.3097,-13.198,-1.9613,0.15485,-0.14875,0.70952,10.86,35.82,0.72
3.732,-13.539,-1.9068,0.068111,-0.094073,0.47495,11.22,35.82,0.18
4.0725,-13.293,-1.9613,-0.031765,-0.22846,0.25198,11.76,35.82,0.06
4.2087,-11.509,-1.7979,-0.17135,-0.43921,-0.044288,12.72,35.7,-0.18
3.7728,-9.2891,-1.4438,-0.32406,-0.70066,-0.56597,13.68,35.4,-0.48
3.3097,-9.3163,-1.2395,-0.39004,-0.92057,-0.89919,14.04,35.34,-0.48
3.2553,-9.6432,-1.0624,-0.46304,-1.1487,-1.1832,14.22,35.34,-0.66
3.2008,-9.8475,-1.1169,-0.56872,-1.2996,-1.3751,14.34,35.4,-0.78
2.9556,-10.188,-0.83084,-0.66584,-1.3674,-1.5171,14.1,35.34,-0.84
2.8058,-10.433,-0.7355,-0.74556,-1.3219,-1.5989,14.04,35.28,-0.84
2.4244,-10.283,-0.38137,-0.84452,-1.1274,-1.6539,13.14,35.22,-0.54
2.2065,-9.9156,-0.12258,-0.92088,-0.79199,-1.7187,12.72,35.22,-0.42
2.0567,-9.5479,-0.068102,-0.96333,-0.37813,-1.7901,12.0,35.16,-0.18
2.0431,-8.5536,-0.17706,-0.95906,0.20861,-1.8717,10.2,35.16,0.36
2.0975,-8.0224,-0.31327,-0.91813,0.4777,-1.9328,9.24,35.28,0.6
2.3155,-7.4776,-0.36775,-0.83872,0.58551,-1.9594,8.22,35.34,0.72
2.5061,-7.1098,-0.19068,-0.67714,0.48106,-1.9013,5.76,35.52,0.9
2.6423,-6.9736,-0.20431,-0.62247,0.3989,-1.832,4.62,35.58,1.02
2.7922,-6.6331,-0.081722,-0.51801,0.13042,-1.7507,3.24,35.7,1.2
2.6696,-6.7966,0.054481,-0.29871,-0.39309,-1.5953,0.78,35.82,1.26
2.6015,-7.2188,0.054481,-0.17746,-0.68814,-1.4129,-0.3,35.88,1.26
2.3699,-7.927,0.068102,-0.055589,-0.89125,-1.1894,-1.44,36.06,1.14
2.4108,-8.8941,-0.054481,0.043371,-0.95997,-0.89553,-2.34,36.12,1.14
2.4789,-9.5751,-0.14982,0.11332,-0.87415,-0.35583,-4.26,36.12,0.84
2.3427,-10.147,-0.25879,0.17776,-0.76297,0.015882,-5.46,36.24,0.42
2.2201,-10.855,-0.42223,0.24038,-0.58246,0.37263,-6.06,36.06,0.06
2.3699,-11.278,-0.69464,0.2642,-0.42486,0.64202,-6.72,36.18,-0.3
2.7104,-12.381,-0.92618,0.30757,-0.38271,0.87537,-6.9,35.94,-0.72
2.9965,-13.893,-0.68102,0.41172,-0.44899,1.1112,-6.72,35.76,-1.02
2.8875,-14.506,-0.46309,0.5058,-0.5058,1.3317,-6.42,35.7,-1.38
2.547,-13.811,-0.83084,0.64935,-0.38271,1.5379,-6.36,35.7,-1.62
2.1656,-12.204,-1.4574,0.7196,-0.19395,1.5672,-6.18,35.88,-2.1
2.0158,-10.583,-2.1793,0.76786,-0.071471,1.4621,-6.18,35.76,-2.28
1.9341,-9.6432,-2.5334,0.81123,-0.10599,1.2608,-6.36,35.76,-2.16
1.8932,-9.9292,-2.547,0.82589,-0.18326,1.0431,-6.48,35.46,-1.86
1.8387,-9.9565,-2.3563,0.74159,-0.17685,0.94165,-6.36,35.34,-1.44
1.7434,-9.616,-2.1248,0.67256,-0.096822,0.87629,-6.0,35.22,-1.14
1.5936,-8.8668,-1.4438,0.60812,0.043066,0.83505,-4.92,34.86,-0.24
1.5391,-8.7579,-1.2122,0.55925,0.30788,0.83414,-4.2,34.68,0.18
1.5255,-8.5127,-1.3212,0.5003,0.67714,0.86407,-3.42,34.5,0.54
1.7706,-7.927,-1.4574,0.46456,1.0693,0.91019,-1.44,33.9,1.2
2.0839,-7.7091,-1.471,0.45051,1.4722,1.0116,-0.3,33.6,1.62
2.4517,-7.4095,-1.6344,0.45173,1.5501,1.0825,0.9,33.6,1.86
2.8875,-7.0145,-1.5936,0.46517,1.4612,1.1655,3.24,33.42,2.16
3.0646,-6.8374,-1.6889,0.49205,1.2541,1.2327,4.44,33.3,2.1
3.0646,-6.5786,-1.6753,0.51954,1.0195,1.2636,5.58,33.24,1.98
2.7922,-6.7148,-1.7162,0.51435,0.82345,1.2617,8.28,33.3,1.44
2.6423,-7.0553,-1.866,0.50855,0.66065,1.179,9.48,33.18,1.08
2.6287,-7.5048,-1.9886,0.46884,0.60537,1.0754,10.5,33.3,0.78
2.7649,-8.2812,-2.2337,0.44166,0.50641,0.94684,11.64,33.42,0.24
3.1054,-9.221,-3.0646,0.41386,0.32376,0.82894,13.08,33.66,-0.54
3.4596,-10.338,-3.2961,0.3711,0.036346,0.72143,13.62,33.78,-0.96
3.4732,-10.924,-3.3506,0.29474,-0.23976,0.63744,14.1,33.78,-1.32
3.1191,-11.509,-3.0373,0.15241,-0.40806,0.49847,14.76,33.96,-1.8
2.7786,-11.591,-2.7649,0.028711,-0.28863,0.36438,15.18,33.72,-1.98
2.6287,-11.577,-2.6015,-0.01741,-0.17532,0.27306,15.6,33.6,-2.28
2.5606,-11.918,-2.3427,-0.13928,0.16768,-0.055894,15.96,33.42,-2.4
2.9965,-12.967,-2.1656,-0.1628,0.24496,-0.2419,16.26,33.24,-2.64
3.9227,-14.22,-1.9886,-0.18845,0.22083,-0.39645,16.86,33.06,-2.94
4.2768,-14.519,-2.0431,-0.24954,0.12889,-0.58887,17.22,32.94,-2.88
4.4539,-13.906,-1.7843,-0.33537,-0.06353,-0.6579,17.34,32.82,-3.0
3.8409,-12.626,-1.4165,-0.55253,-0.42822,-1.0049,17.52,32.4,-2.88
3.2825,-10.774,-1.0896,-0.66493,-0.62889,-1.3558,17.4,32.28,-2.76
3.0646,-10.079,-0.89894,-0.73059,-0.78588,-1.6967,17.22,32.04,-2.52
2.9284,-10.324,-0.19068,-0.72601,-0.9838,-2.0024,16.86,32.04,-2.34
2.9965,-10.937,0.01362,-0.7703,-1.2798,-2.2492,16.56,31.98,-2.16
2.6423,-11.196,-0.12258,-0.81184,-1.3057,-2.2926,15.6,31.8,-1.5
2.5061,-10.964,-0.10896,-0.98166,-1.1903,-2.3091,14.82,31.86,-1.14
2.4517,-10.569,0.10896,-1.0354,-1.0818,-2.2978,14.04,31.86,-0.78
2.1656,-9.9156,0.39499,-1.1191,-0.71349,-2.1545,11.94,31.98,0.24
2.3155,-9.2618,0.46309,-1.1301,-0.46914,-2.0314,10.86,31.92,0.72
2.2474,-8.6081,0.47671,-1.0767,-0.29688,-1.8751,8.04,32.34,1.2
2.0022,-7.3414,0.51757,-0.99113,-0.20708,-1.7413,6.66,32.7,1.32
1.9341,-6.7148,0.57205,-0.87384,-0.17318,-1.6396,5.28,33.0,1.5
2.0022,-6.4424,0.42223,-0.80817,-0.16677,-1.5748,4.02,33.24,1.44
2.0839,-5.8295,0.46309,-0.60689,-0.20128,-1.3757,1.68,33.66,1.38
2.0567,-5.6661,0.46309,-0.46517,-0.25107,-1.2266,0.6,33.96,1.2
1.9886,-5.5299,0.34051,-0.22694,-0.34544,-0.9841,-1.2,34.5,0.84
2.0431,-5.7205,0.40861,-0.076969,-0.41081,-0.7816,-2.16,34.56,0.6
2.1656,-6.5378,0.35413,-0.0036652,-0.43982,-0.66371,-2.64,34.74,0.3
2.261,-7.0962,0.40861,0.15699,-0.47678,-0.37843,-3.18,35.04,0.3
2.3155,-7.75,0.38137,0.33964,-0.45784,0.14111,-3.54,35.22,-0.3
2.5061,-9.0575,0.14982,0.4441,-0.3992,0.49327,-3.84,35.46,-0.84
2.547,-9.6704,0.068102,0.53573,-0.29993,0.96547,-3.72,35.64,-1.14
2.6968,-10.896,-0.40861,0.62308,-0.19792,1.0968,-3.6,35.58,-1.32
2.7513,-11.564,-0.6674,0.65729,-0.15058,1.3341,-3.24,35.64,-1.86
2.9829,-12.49,-0.92618,0.69578,-0.20678,1.5204,-3.0,35.52,-1.86
3.0918,-13.048,-0.83084,0.79015,-0.37629,1.7385,-2.7,35.58,-1.98
2.9692,-14.71,-0.054481,0.89644,-0.38087,1.8711,-2.04,35.46,-2.16
2.9965,-15.895,0.19068,1.0104,-0.24679,2.0357,-1.8,35.58,-2.46
3.1872,-15.977,-0.21793,1.0687,0.030238,2.2294,-1.38,35.52,-2.76
3.3778,-14.533,-1.4165,1.0449,0.13225,2.2541,-1.2,35.4,-2.82
3.5004,-12.762,-2.0294,1.0327,-0.0048869,2.1585,-0.9,35.16,-2.82
3.5004,-9.9292,-3.1327,1.0119,-0.38332,1.927,-0.18,35.1,-2.7
3.3097,-8.6625,-3.0237,0.96364,-0.86834,1.5953,0.24,34.92,-2.52
2.833,-8.5536,-2.5334,0.90683,-1.2608,1.1967,0.84,34.38,-2.28
1.7706,-9.0167,-1.5119,0.7251,-1.4138,0.69608,2.82,33.78,-1.86
1.2803,-9.0031,-1.1032,0.6524,-1.3085,0.59162,3.84,33.36,-1.8
1.0488,-8.8396,-1.0896,0.51129,-0.88117,0.40195,4.92,33.12,-1.92
0.8036,-8.4719,-1.3212,0.27764,0.20922,0.24557,7.14,32.4,-2.04
0.95342,-8.322,-1.3757,0.15974,0.98105,0.18418,8.22,32.1,-2.04
1.2803,-8.0088,-1.5119,0.080329,1.6038,0.16524,9.36,31.62,-1.98
2.1384,-7.5865,-1.8115,0.01741,2.1958,0.1909,11.88,31.32,-1.98
2.5742,-7.355,-1.8115,0.000305,2.3078,0.24282,13.08,31.26,-2.1
3.0237,-7.0962,-1.8387,-0.0033598,2.1655,0.31551,14.16,31.14,-2.22
3.5958,-6.7693,-1.9205,0.020159,1.77,0.38149,16.14,31.02,-2.7
3.5685,-6.7012,-1.866,0.057727,1.2101,0.41142,16.92,31.08,-3.12
3.4459,-6.8102,-1.866,0.10507,0.62827,0.39126,17.64,31.2,-3.42
2.9829,-7.1915,-1.975,0.14569,-0.016799,0.30329,18.36,31.2,-3.96
2.8194,-7.4095,-2.0703,0.16829,-0.31276,0.21105,18.66,31.44,-4.14
2.6696,-7.6683,-2.0703,0.18295,-0.51679,0.11942,18.84,31.56,-4.14
2.6423,-8.4719,-2.261,0.1631,-0.65851,0.045204,18.84,31.74,-4.08
2.5334,-9.6296,-2.6015,0.10843,-0.77824,-0.010079,19.02,31.8,-4.02
2.4108,-10.283,-2.6015,0.050396,-0.8207,-0.057727,19.2,31.98,-3.9
2.2882,-10.924,-2.5061,-0.0073304,-0.76144,-0.073609,19.32,31.8,-3.9
2.2065,-10.924,-2.3699,-0.146,-0.5116,-0.076358,19.2,31.74,-3.9
1.9068,-10.76,-2.2746,-0.21747,-0.27031,-0.14355,19.32,31.68,-3.9
1.8524,-10.746,-2.1112,-0.28863,0.037874,-0.21655,19.44,31.62,-3.9
2.2201,-12.34,-1.9068,-0.33139,0.29474,-0.27428,19.68,31.5,-4.02
2.6696,-13.443,-1.7979,-0.33445,0.43707,-0.27245,19.68,31.44,-4.08
3.3642,-14.819,-1.5255,-0.354,0.51526,-0.23885,19.62,31.62,-3.9
3.4732,-14.587,-1.3212,-0.38118,0.59407,-0.18692,19.62,31.62,-3.84
3.2416,-13.157,-1.1441,-0.41447,0.66676,-0.25473,19.62,31.44,-3.6
3.1463,-11.182,-1.076,-0.39431,0.65027,-0.45387,19.62,31.32,-3.48
3.1054,-8.5944,-1.2803,-0.30971,0.37721,-0.7199,19.5,31.14,-3.18
3.3097,-7.9815,-1.4165,-0.18692,-0.21655,-0.96181,19.32,30.96,-3.0
3.8273,-9.0848,-1.2258,-0.098655,-1.3491,-1.1393,19.14,30.96,-2.7
3.8954,-9.8475,-0.70826,-0.1127,-2.0382,-1.1777,19.02,31.08,-2.52
3.4323,-10.256,-0.35413,-0.17562,-2.4261,-1.0919,18.84,31.2,-2.4
3.2553,-10.569,-0.10896,-0.27061,-2.4664,-0.94592,18.54,31.26,-2.04
2.5061,-10.787,0.49033,-0.37507,-2.2367,-0.79535,17.88,31.5,-1.8
2.1793,-10.447,0.54481,-0.45509,-1.8152,-0.64691,17.34,31.62,-1.56
2.0294,-9.9292,0.44947,-0.49266,-1.3097,-0.54306,16.8,31.56,-1.5
2.1929,-8.5944,0.34051,-0.45968,-0.60598,-0.48625,15.48,31.8,-1.32
2.3155,-8.1313,0.25879,-0.39828,-0.33201,-0.52198,14.88,32.04,-1.5
2.5198,-7.3141,0.054481,-0.35919,-0.28008,-0.5397,14.16,32.28,-1.44
2.7786,-6.4152,-0.054481,-0.20189,-0.41844,-0.64294,12.54,32.94,-1.86
2.9148,-6.2109,-0.12258,-0.091324,-0.68692,-0.7141,11.7,33.36,-2.04
2.8739,-5.993,-0.095342,0.0033598,-1.0146,-0.77885,10.26,34.14,-2.52
2.7786,-5.993,-0.095342,0.13195,-1.4749,-0.85124,9.54,34.44,-2.76
2.5606,-6.17,-0.040861,0.1686,-1.5889,-0.86499,8.64,34.68,-3.0
2.438,-7.0281,0.10896,0.27886,-1.762,-0.82956,7.38,35.46,-3.96
2.3563,-7.5457,0.095342,0.33811,-1.7999,-0.74373,6.78,35.76,-4.26
2.3699,-8.322,-0.027241,0.37263,-1.7761,-0.60506,6.36,36.06,-4.86
2.3563,-9.7113,-0.19068,0.37385,-1.6619,-0.41508,5.46,36.78,-6.0
2.3972,-10.474,-0.12258,0.34178,-1.2758,-0.075747,5.22,37.14,-6.66
2.3699,-12.081,0.081722,0.32009,-0.90713,0.16829,4.8,37.68,-7.56
2.3427,-12.708,0.19068,0.3091,-0.45021,0.3821,4.56,37.86,-8.04
2.3427,-13.062,0.19068,0.31734,0.0033598,0.5736,4.44,38.04,-8.58
2.5879,-13.716,-0.20431,0.32467,0.3766,0.75686,4.2,38.16,-9.78
2.8058,-13.729,-0.39499,0.34239,0.63988,0.89431,4.14,38.28,-10.26
3.1735,-13.307,-0.36775,0.42211,0.78496,0.99327,4.32,38.46,-11.22
3.337,-12.967,-0.8036,0.57116,0.78038,1.0815,4.2,38.52,-11.7
3.5958,-12.435,-1.471,0.613,0.44654,1.0595,4.14,38.46,-12.0
3.8001,-10.038,-3.3915,0.6014,-0.16768,0.93065,3.9,38.46,-12.54
3.7047,-9.0303,-3.7728,0.57666,-0.97433,0.68997,3.78,38.22,-12.66
3.4596,-8.4174,-3.4732,0.5397,-1.7471,0.38637,3.48,38.1,-12.78
2.3836,-8.7987,-2.0703,0.45998,-2.3439,0.080023,3.24,37.74,-12.96
2.0022,-8.9213,-1.6889,0.2416,-2.5629,-0.2303,3.0,37.56,-13.08
1.4301,-9.0167,-1.0215,0.16005,-2.4587,-0.30146,2.82,37.32,-12.9
0.92618,-9.1801,-1.0488,-0.1011,-1.7162,-0.38301,2.58,37.02,-12.18
0.76274,-9.1256,-1.3757,-0.22694,-1.0018,-0.33231,2.52,36.78,-11.7
0.8036,-8.9349,-1.6072,-0.35705,-0.19151,-0.29444,2.46,36.42,-11.22
1.4982,-8.4719,-1.9068,-0.44929,0.54214,-0.26512,2.64,35.94,-10.44
1.9341,-8.0769,-1.866,-0.48869,1.2321,-0.24435,2.88,35.7,-9.9
2.3699,-7.6683,-1.8932,-0.47434,1.3198,-0.24862,3.0,35.46,-9.3
2.833,-7.1507,-1.7162,-0.4218,1.1136,-0.27672,3.18,35.28,-8.7
3.2825,-6.4833,-1.4438,-0.34514,0.64721,-0.32162,3.9,35.28,-7.8
3.4732,-6.2245,-1.3484,-0.27336,0.03207,-0.38607,4.32,35.28,-7.32
3.2144,-6.2517,-1.185,-0.16127,-0.89583,-0.47861,4.86,35.16,-6.6
2.7377,-6.565,-0.96704,-0.12034,-1.2972,-0.52504,5.1,35.1,-6.24
2.4925,-6.8102,-0.83084,-0.1014,-1.4077,-0.54092,5.28,35.28,-6.12
2.3836,-7.0009,-0.8036,-0.089186,-1.5088,-0.5733,5.46,35.4,-6.12
2.0975,-7.8589,-0.64016,-0.073915,-1.3845,-0.5678,5.58,35.46,-5.82
1.9477,-8.3493,-0.53119,-0.07086,-1.149,-0.53176,5.4,35.58,-5.82
1.9613,-8.7715,-0.61292,-0.065363,-0.8097,-0.47709,5.22,35.7,-5.7
1.9613,-9.0303,-0.57205,-0.069639,-0.29169,-0.39584,4.62,35.76,-5.58
2.1248,-8.8941,-0.6674,-0.049786,-0.13683,-0.38332,4.44,35.94,-5.7
2.2882,-8.7851,-0.6674,0.043371,0.1576,-0.33048,4.14,35.94,-5.76
2.5198,-8.6081,-1.0488,0.13195,0.2022,-0.29963,3.36,35.94,-5.88
2.8194,-8.6081,-1.2258,0.2532,0.1237,-0.24007,3.0,36.0,-6.0
2.9284,-8.6762,-1.7162,0.36499,-0.086437,-0.15577,2.7,36.12,-6.0
3.0101,-8.8668,-1.8387,0.49724,-0.5003,0.011912,2.04,36.24,-6.12
2.8467,-9.0439,-2.0567,0.5507,-0.70372,0.13561,1.92,36.36,-6.36
2.6423,-9.0848,-2.1248,0.54764,-0.74403,0.18937,1.68,36.3,-6.54
1.6072,-9.3572,-2.8058,0.47739,-0.18723,0.28253,1.38,36.42,-6.84
1.7025,-9.3844,-3.1054,0.35339,0.67195,0.22846,1.38,36.42,-7.14
2.3427,-9.4661,-3.0646,0.18631,1.3259,0.20678,1.32,36.48,-7.32
5.0259,-9.0303,-2.4517,0.21014,0.39156,0.42852,1.14,36.48,-7.86
4.9987,-8.717,-2.4925,0.30024,-0.25687,0.47953,1.2,36.6,-7.98
4.2223,-8.717,-2.261,0.47067,-1.3085,0.5174,1.26,36.54,-8.22
3.1327,-9.7658,-1.7843,0.66676,-2.0226,0.58277,1.32,36.54,-8.82
2.6696,-11.237,-1.6889,0.73609,-2.0027,0.6185,1.38,36.54,-9.24
2.6968,-12.354,-1.757,0.74128,-1.7324,0.70066,1.5,36.48,-9.54
3.2689,-11.686,-2.0294,0.65057,-1.4074,0.86743,1.62,36.42,-10.14
3.1735,-10.025,-1.9613,0.51435,-1.3631,0.85307,1.74,36.18,-10.5
3.2553,-8.6217,-1.8524,0.49022,-1.383,0.81001,1.8,36.3,-10.74
3.5413,-8.1177,-1.3893,0.4328,-1.7181,0.59162,1.8,36.24,-11.4
3.9635,-9.2482,-1.1577,0.43891,-2.2043,0.51282,1.74,36.18,-11.58
4.3313,-10.61,-1.1169,0.38973,-2.7516,0.53909,1.8,36.06,-12.06
4.2495,-11.904,-0.54481,0.27978,-3.2657,0.70555,1.5,36.0,-12.84
3.6775,-11.359,-0.27241,0.13103,-3.1771,0.78496,1.38,35.88,-13.2
3.1191,-10.678,-0.040861,0.009163,-2.7773,0.74495,1.14,36.0,-13.62
2.547,-9.9973,0.40861,-0.11576,-2.1771,0.58124,0.66,35.94,-14.1
2.2882,-9.4525,0.47671,-0.19975,-1.5434,0.31215,0.54,36.0,-14.28
2.3291,-8.9349,0.35413,-0.26237,-1.0434,0.054062,0.18,36.0,-14.58
2.7786,-8.3765,-0.14982,-0.26481,-0.78343,-0.15424,-0.24,36.3,-15.0
3.2961,-8.4174,-0.34051,-0.26909,-0.78069,-0.36682,-0.66,36.66,-15.0
3.6911,-8.4446,-0.32689,-0.27672,-0.87293,-0.4047,-1.02,36.72,-14.94
4.1542,-8.7306,0.054481,-0.27978,-1.3567,-0.42699,-2.04,36.96,-15.18
3.9908,-9.0984,0.32689,-0.27306,-1.7022,-0.39309,-2.34,37.2,-15.12
3.8682,-9.3027,0.35413,-0.30452,-1.9047,-0.34331,-2.94,37.38,-14.88
2.8467,-9.5887,0.46309,-0.3766,-1.8363,-0.27,-3.6,37.74,-14.58
2.7377,-9.507,0.46309,-0.50671,-1.3305,-0.24068,-4.26,37.92,-14.4
2.6423,-9.3572,0.47671,-0.54031,-1.1136,-0.24282,-4.68,38.16,-14.1
2.8875,-9.221,0.46309,-0.59926,-0.52931,-0.28436,-5.82,38.7,-13.5
3.2416,-9.5206,0.46309,-0.60598,-0.36346,-0.35247,-6.54,38.94,-13.2
3.3778,-9.8884,0.5993,-0.59987,-0.32101,-0.40745,-7.08,39.12,-12.96
3.6639,-10.406,0.91256,-0.56108,-0.35522,-0.47098,-8.58,39.36,-12.3
3.732,-10.746,1.0896,-0.45326,-0.43371,-0.55131,-9.06,39.18,-11.94
3.7592,-11.06,1.185,-0.32651,-0.48961,-0.62339,-9.72,39.24,-11.76
3.5277,-11.468,0.92618,-0.21136,-0.53023,-0.72815,-10.92,39.42,-10.98
3.1872,-11.087,0.57205,-0.085216,-0.58307,-0.86621,-11.64,39.42,-10.68
3.0237,-10.774,0.29965,0.055589,-0.64538,-1.0324,-12.36,39.42,-10.32
2.9829,-10.978,0.027241,0.21747,-0.75075,-1.19,-13.14,39.24,-10.02
3.3778,-13.362,-0.92618,0.2978,-1.0534,-1.2871,-14.76,39.12,-9.48
3.1191,-13.348,-1.0215,0.28527,-1.193,-1.2529,-15.6,38.76,-9.12
2.7377,-13.089,-1.0351,0.21991,-1.4123,-1.1307,-16.26,38.4,-8.94
1.2395,-10.719,-1.1169,0.12217,-1.4737,-0.91996,-17.88,37.62,-8.22
0.57205,-9.0984,-1.6344,0.025656,-1.3076,-0.80329,-18.6,37.08,-7.86
0.068102,-7.7364,-2.0294,-0.0012217,-1.0736,-0.75686,-19.26,36.6,-7.56
-0.081722,-7.0962,-2.4517,0.032987,-0.75931,-0.70799,-20.58,35.7,-6.84
0.28603,-7.3822,-2.3291,0.062308,-0.74434,-0.64324,-21.18,35.28,-6.42
1.0896,-8.3493,-2.1929,0.080329,-0.81825,-0.6017,-21.66,34.62,-5.94
1.8387,-9.7249,-1.9886,0.12187,-1.262,-0.41905,-22.62,33.66,-5.1
2.0294,-10.678,-1.8387,0.17532,-1.5598,-0.29108,-22.92,33.24,-4.92
1.8387,-10.978,-1.6617,0.18295,-1.7003,-0.18906,-23.1,32.76,-4.5
1.6344,-10.106,-1.4846,0.17959,-1.5748,-0.13286,-23.46,32.04,-3.66
1.7706,-9.3708,-1.4301,0.19761,-1.4395,-0.13011,-23.7,31.68,-3.24
2.0158,-8.826,-1.4982,0.21777,-1.4126,-0.1347,-23.82,31.32,-2.82
2.2882,-8.0496,-1.5391,0.27978,-1.4868,-0.13928,-23.64,30.84,-2.22
2.3563,-7.9407,-1.5527,0.32009,-1.6218,-0.11118,-23.76,30.84,-1.98
2.4653,-7.9407,-1.5527,0.34819,-1.7651,-0.06017,-23.7,30.72,-1.62
2.2882,-7.9407,-1.2803,0.38393,-1.8323,0.06353,-23.64,30.72,-1.14
2.1929,-8.0632,-1.185,0.39401,-1.7349,0.15577,-23.7,30.54,-0.96
2.3291,-8.0769,-1.0624,0.4047,-1.5846,0.23732,-23.7,30.6,-0.9
2.3972,-8.3493,-1.076,0.42119,-1.4587,0.3036,-23.52,30.6,-0.78
2.6015,-8.7306,-1.2258,0.44196,-1.4071,0.34147,-23.46,30.54,-0.66
2.6968,-8.7851,-1.1986,0.44471,-1.3744,0.36011,-23.34,30.54,-0.6
2.6423,-8.8532,-1.2122,0.44776,-1.3616,0.34819,-23.16,30.48,-0.48
2.6015,-8.7715,-1.3348,0.42547,-1.3253,0.26359,-23.04,30.54,-0.3
2.5606,-8.6762,-1.3757,0.40348,-1.3011,0.22571,-23.04,30.66,-0.24
2.4108,-8.54,-1.4438,0.33201,-1.1912,0.039095,-22.92,30.72,-0.12
2.2474,-8.5808,-1.5119,0.24679,-1.0669,-0.10415,-22.68,30.78,-0.12
2.1793,-8.6081,-1.4982,0.17685,-0.87232,-0.26084,-22.62,30.84,0.06
2.2201,-9.0984,-1.2258,0.11026,-0.62705,-0.3934,-22.62,30.66,0.06
2.3018,-9.4798,-1.1713,0.02138,-0.28436,-0.54153,-22.44,30.6,0.06
2.3427,-9.8611,-1.2531,-0.0018326,-0.084605,-0.60628,-22.38,30.6,0.06
2.3563,-10.283,-1.1986,-0.0088575,0.099571,-0.64263,-22.32,30.54,0.12
2.5742,-10.801,-1.0896,0.026267,0.26267,-0.65515,-22.38,30.54,0.18
2.833,-11.605,-1.0079,0.10201,0.37202,-0.61117,-22.62,30.42,0.12
3.337,-12.626,-0.83084,0.19242,0.4273,-0.51526,-22.8,30.24,-0.18
3.4596,-12.967,-0.89894,0.343,0.37049,-0.36713,-22.92,30.0,-0.42
3.5685,-13.266,-0.88532,0.38393,0.31979,-0.32895,-22.92,29.7,-0.72
3.7728,-12.803,-1.1305,0.48228,0.085521,-0.29016,-23.16,29.22,-1.2
3.8273,-12.313,-1.3212,0.53115,-0.22083,-0.31643,-23.34,28.86,-1.62
3.8818,-11.605,-1.7025,0.54672,-0.68203,-0.40714,-23.64,28.5,-1.86
3.4459,-10.12,-1.757,0.4948,-1.1921,-0.54489,-23.88,28.08,-2.34
3.1872,-9.7658,-1.6072,0.37232,-1.7462,-0.76541,-24.12,27.78,-2.52
2.6423,-9.6704,-0.99429,0.28497,-1.9083,-0.90622,-24.9,27.3,-3.12
2.4108,-9.902,-0.72188,0.17135,-1.8812,-0.9557,-25.32,27.0,-3.3
2.2201,-9.8066,-0.70826,0.040317,-1.693,-0.95203,-25.68,26.7,-3.42
2.1248,-9.616,-0.54481,-0.065668,-1.4233,-0.89889,-26.46,26.1,-3.42
2.2201,-9.8066,-0.54481,-0.11545,-1.1426,-0.81337,-26.94,25.8,-3.42
2.3563,-9.9292,-0.35413,-0.18051,-0.83078,-0.59132,-27.3,25.5,-3.42
2.6015,-9.902,-0.31327,-0.18051,-0.83078,-0.59132,-27.72,25.44,-3.12
2.6015,-9.902,-0.31327,-0.18051,-0.83078,-0.59132,-27.72,25.44,-3.12
2.8467,-9.1801,-0.095342,-0.17623,-0.62766,-0.09163,-28.56,24.78,-2.94
2.8467,-8.6898,0.054481,-0.14997,-0.64752,0.01741,-29.28,24.48,-2.76
2.8603,-8.4855,0.14982,-0.11332,-0.67928,0.094073,-29.82,24.3,-2.52
2.7649,-8.1858,0.12258,-0.067501,-0.72174,0.12523,-30.3,24.18,-2.58
2.7377,-7.6683,0.10896,-0.021686,-0.77152,0.1179,-31.38,23.88,-2.16
2.9011,-7.4503,-0.054481,0.0281,-0.83078,0.080023,-31.68,23.76,-1.92
2.6968,-7.355,-0.040861,0.10446,-0.94623,-0.013134,-32.1,23.64,-1.92
2.547,-7.2869,-0.068102,0.1405,-1.0146,-0.070555,-32.52,23.52,-1.86
2.438,-7.4095,-0.068102,0.17043,-1.0437,-0.11851,-33.06,23.4,-1.86
2.4517,-7.6002,-0.027241,0.17959,-1.0421,-0.15058,-33.36,23.7,-1.8
2.3291,-8.1586,-0.17706,0.19609,-1.0134,-0.15577,-33.96,23.52,-1.86
2.3836,-8.3765,-0.35413,0.18143,-0.97464,-0.13683,-34.14,23.64,-1.74
2.3972,-8.5808,-0.28603,0.15852,-0.86499,-0.061087,-34.38,23.7,-1.68
2.4108,-9.4798,-0.23155,0.14325,-0.74678,0.034514,-34.92,23.52,-1.38
2.4517,-10.256,-0.16344,0.12065,-0.57757,0.17623,-35.1,23.52,-1.14
2.4789,-11.06,-0.12258,0.089186,-0.34911,0.32651,-35.04,23.58,-0.96
2.5334,-12.286,-0.068102,0.020159,0.10843,0.5507,-34.98,23.64,-0.9
2.4517,-12.326,-0.1362,-0.057727,0.45632,0.63438,-35.04,23.64,-0.78
2.5198,-12.476,-0.21793,-0.082467,0.62339,0.64568,-34.8,23.76,-0.66
2.6151,-12.803,-0.14982,-0.087965,1.0406,0.62033,-34.62,23.76,-0.6
2.8467,-13.811,0.054481,-0.055894,1.2446,0.56719,-34.5,24.06,-0.54
3.1054,-14.397,-0.10896,-0.0024435,1.3522,0.56933,-34.38,24.0,-0.48
3.4187,-14.029,-1.0215,0.029016,1.3796,0.57757,-34.08,24.3,-0.48
3.5413,-13.13,-1.58,0.044899,1.274,0.60353,-34.02,24.42,-0.54
3.514,-12.286,-2.0431,0.081856,1.033,0.59559,-33.9,24.6,-0.6
3.514,-12.286,-2.0431,0.054672,0.551,0.48319,-33.9,24.6,-0.6
2.5061,-8.8805,-2.5879,0.009163,0.28466,0.33903,-33.3,24.96,-0.84
1.9341,-7.8998,-2.6696,-0.028711,0.13164,0.15241,-33.0,25.14,-0.96
1.3484,-7.5184,-2.5061,-0.088881,0.091935,-0.1292,-32.64,25.32,-1.26
1.1577,-7.7772,-2.5061,-0.12065,0.13408,-0.20586,-32.28,25.32,-1.14
1.0896,-7.8181,-2.3018,-0.19914,0.29719,-0.31429,-31.92,25.44,-1.26
0.96704,-7.7636,-2.4108,-0.29291,0.6353,-0.3937,-31.56,25.5,-1.38
1.0624,-7.8589,-2.0839,-0.33139,0.89156,-0.38973,-30.96,25.5,-1.74
1.185,-7.7636,-2.0567,-0.35125,1.1017,-0.35247,-30.6,25.56,-1.8
1.4165,-7.464,-2.1929,-0.33017,1.2633,-0.2645,-29.94,25.38,-2.16
1.6481,-7.3822,-2.2882,-0.30513,1.2758,-0.23427,-29.58,25.26,-2.28
1.7706,-7.2596,-2.2065,-0.2584,1.2452,-0.15913,-29.22,25.2,-2.58
2.0022,-6.9736,-2.3699,-0.16188,1.0568,-0.0076358,-28.74,24.84,-2.94
2.1248,-6.8647,-2.3836,-0.08827,0.82467,0.1014,-28.56,24.84,-3.3
2.1112,-6.851,-2.2474,-0.036652,0.55344,0.19028,-28.14,24.72,-3.66
1.9477,-6.9464,-2.0839,0.0036652,0.32681,0.30971,-27.72,24.72,-4.32
1.9341,-7.1779,-1.9886,0.068417,0.14783,0.35736,-27.66,24.78,-4.74
1.866,-7.4367,-1.9886,0.083994,0.11851,0.42455,-27.54,24.78,-5.1
1.9886,-7.9951,-1.9068,0.11118,0.12156,0.48961,-27.42,24.78,-5.64
2.1248,-8.5536,-1.8932,0.14111,0.16249,0.58643,-27.24,24.9,-5.88
2.3155,-8.9622,-1.9068,0.17165,0.19212,0.69608,-27.06,24.96,-6.24
2.4244,-9.5206,-1.8387,0.20525,0.24862,0.87018,-26.7,25.44,-6.78
2.4653,-9.6568,-1.8796,0.24435,0.30513,0.96425,-26.52,25.74,-7.14
2.4789,-9.8339,-1.8796,0.24526,0.3372,1.0061,-26.28,25.74,-7.38
2.6423,-9.9156,-2.0294,0.2532,0.38668,1.0782,-25.86,26.34,-7.86
2.6968,-9.8611,-2.0022,0.26145,0.38912,1.0803,-25.62,26.64,-8.1
2.6832,-9.9292,-2.1929,0.26634,0.34972,1.0333,-25.38,26.94,-8.28
2.7104,-10.474,-2.152,0.25901,0.31154,0.92454,-24.84,27.42,-8.7
2.8058,-11.073,-2.0975,0.2697,0.30207,0.81795,-24.24,27.66,-9.12
3.0646,-12.449,-1.8387,0.27397,0.31154,0.76358,-24.0,28.02,-9.48
3.4868,-14.424,-1.8932,0.25962,0.35247,0.60934,-23.22,28.56,-10.14
3.7728,-15.786,-1.7706,0.26206,0.29566,0.46273,-22.74,28.8,-10.38
3.4459,-15.282,-1.6344,0.17104,0.26634,0.2529,-22.44,29.1,-10.68
2.6968,-11.264,-2.0158,0.075747,0.27978,-0.033598,-21.48,29.4,-11.28
2.7513,-9.4934,-2.2201,0.067501,0.091324,-0.51068,-21.12,29.52,-11.58
2.7241,-8.4991,-2.4517,0.06017,-0.071166,-0.66645,-20.82,29.76,-11.82
2.942,-7.8589,-2.8467,0.064752,-0.5003,-0.94104,-20.4,29.82,-12.36
2.9011,-8.2403,-2.8058,-0.017715,-1.2159,-1.124,-20.22,29.88,-12.6
2.7922,-8.54,-2.3427,-0.13378,-1.5418,-1.1518,-20.22,29.76,-12.6
2.1248,-9.3163,-1.5119,-0.26389,-1.6582,-1.0831,-20.28,29.46,-12.9
1.9205,-9.7658,-1.0488,-0.4835,-1.4539,-0.96181,-20.52,29.4,-12.72
1.3484,-9.902,-0.64016,-0.64935,-1.0406,-0.87079,-20.58,29.16,-12.48
1.0624,-9.8339,-0.24517,-0.71105,-0.77061,-0.84055,-20.94,28.98,-12.24
1.1169,-9.1529,0.12258,-0.83047,0.1909,-0.71074,-21.72,28.32,-11.82
1.3484,-8.9349,0.24517,-0.78618,0.73548,-0.64813,-22.2,28.08,-11.52
1.5527,-8.6625,0.28603,-0.69608,1.091,-0.57879,-22.8,28.02,-11.28
1.9886,-7.5593,0.027241,-0.48778,1.2074,-0.48442,-23.94,27.6,-10.8
2.152,-7.3686,-0.01362,-0.32345,0.96303,-0.42058,-24.48,27.36,-10.62
2.6696,-7.3686,-0.36775,-0.16127,0.47922,-0.36774,-25.5,27.06,-10.44
2.7513,-7.4912,-0.31327,-0.043982,-0.15638,-0.29932,-26.1,26.82,-10.26
2.6151,-7.8045,-0.095342,0.066279,-0.80359,-0.23182,-26.52,26.64,-10.32
1.8387,-8.7306,0.50395,0.12248,-1.2199,-0.17257,-27.42,26.7,-10.26
1.6208,-9.1529,0.54481,0.12584,-1.2792,-0.069639,-27.78,26.46,-10.38
1.1169,-10.283,0.70826,0.11087,-1.1784,-0.030238,-28.26,26.34,-10.56
1.1577,-10.706,0.77636,0.055589,-0.62278,0.089492,-29.04,26.22,-10.62
1.1713,-10.869,0.64016,0.0036652,-0.15302,0.18601,-29.34,26.28,-10.8
1.3484,-10.774,0.25879,-0.043066,0.21564,0.24923,-29.46,26.28,-10.92
1.9477,-11.114,-0.12258,-0.039401,0.41966,0.29749,-30.0,26.16,-11.1
2.3291,-12.245,0.01362,0.0051924,0.50183,0.40073,-29.94,26.04,-11.1
2.5606,-13.389,0.14982,0.009163,0.52321,0.46701,-29.64,26.1,-10.8
2.5334,-12.858,-0.24517,0.018631,0.60659,0.59529,-29.64,26.1,-10.68
2.5879,-12.313,-0.64016,0.040012,0.56322,0.57941,-29.52,26.22,-10.68
2.547,-10.488,-1.5527,0.094684,0.39004,0.47678,-29.34,26.28,-10.74
2.2746,-9.507,-1.8251,0.1292,0.15669,0.31734,-28.98,26.28,-10.68
1.5936,-8.5263,-2.2065,0.20403,-0.10965,0.040317,-28.2,26.58,-10.38
1.5391,-8.7306,-2.4108,0.21136,-0.24099,-0.09896,-27.9,26.58,-10.44
1.3076,-8.7306,-2.3018,0.1854,-0.34361,-0.19731,-27.36,26.82,-10.32
1.2395,-8.54,-2.2201,0.14355,-0.34239,-0.2248,-26.76,27.0,-10.32
0.92618,-8.6489,-2.152,0.11668,-0.22327,-0.19395,-25.8,27.12,-10.02
0.95342,-8.7034,-2.0567,0.067806,0.022297,-0.13744,-25.38,27.18,-10.08
0.81722,-8.6081,-2.2201,0.0039706,0.51282,-0.036652,-24.72,27.3,-10.14
0.91256,-8.3493,-2.3563,-0.020159,0.81245,0.014966,-24.42,27.36,-10.26
1.076,-8.1177,-2.4789,-0.01741,0.99846,0.062003,-24.0,27.48,-10.26
1.471,-7.6955,-2.5061,-0.012523,1.0476,0.12706,-23.22,27.42,-10.26
1.8524,-7.3686,-2.5061,0.000916,0.93829,0.18112,-22.86,27.54,-10.38
2.0567,-7.2324,-2.5061,0.01405,0.7199,0.22144,-22.56,27.48,-10.5
2.1248,-7.1643,-2.4108,0.026267,0.43524,0.25198,-22.32,27.54,-10.98
2.0294,-7.3958,-2.2474,0.025045,0.13286,0.29963,-21.96,27.6,-11.16
1.9613,-7.7091,-2.1929,0.000916,0.062919,0.33139,-21.84,27.54,-11.46
1.9341,-8.4582,-2.1248,-0.016493,0.060476,0.35186,-21.6,27.6,-11.94
1.9341,-8.8668,-1.9341,-0.083078,0.17562,0.43005,-21.48,27.48,-12.24
2.0294,-9.2891,-1.8796,-0.12584,0.36652,0.48655,-21.18,27.66,-12.36
2.152,-9.9701,-1.6072,-0.1686,0.62797,0.51679,-20.88,27.9,-12.72
2.2882,-10.038,-1.6889,-0.18692,0.98746,0.5174,-20.76,28.08,-12.96
2.4517,-9.9292,-1.6072,-0.17379,1.0644,0.49999,-20.64,28.26,-13.26
2.6151,-9.9565,-1.6617,-0.086437,1.1597,0.43005,-19.98,28.62,-13.74
2.8875,-10.188,-1.866,-0.021686,1.1084,0.40256,-19.74,28.68,-13.86
3.0101,-10.42,-1.9341,0.054062,0.97861,0.38637,-19.32,28.86,-13.92
3.4868,-12.177,-1.7843,0.16249,0.78527,0.40103,-18.6,28.92,-14.04
3.6775,-12.858,-1.6344,0.24312,0.54062,0.48655,-18.18,28.98,-14.34
3.623,-13.402,-1.7843,0.27947,0.42455,0.51954,-17.82,29.16,-14.58
3.5413,-13.348,-1.8796,0.27703,0.31215,0.48228,-17.04,29.52,-15.0
3.4187,-12.735,-1.7706,0.24862,0.21441,0.36835,-16.68,29.76,-15.18
3.228,-11.509,-1.757,0.20036,0.13958,0.19303,-16.38,29.82,-15.48
2.9556,-8.7579,-1.7025,0.1686,0.04215,-0.011912,-15.6,30.06,-15.9
3.051,-8.3357,-1.8524,0.15882,-0.30177,-0.33323,-15.24,30.12,-16.02
3.2553,-8.3765,-1.9613,0.15424,-0.46914,-0.41478,-14.82,30.18,-16.08
3.1872,-9.0031,-1.6344,0.10812,-0.93279,-0.57849,-14.7,30.24,-16.32
2.8603,-9.2618,-1.2531,0.0082467,-1.0763,-0.63102,-14.34,30.42,-16.38
2.6423,-9.1529,-1.0896,-0.073609,-1.0965,-0.66493,-14.46,30.48,-16.44
2.4789,-9.1256,-0.96704,-0.17257,-1.0363,-0.70158,-14.46,30.48,-16.5
2.2746,-8.7715,-0.64016,-0.26786,-0.89644,-0.74037,-15.06,30.54,-16.44
2.2474,-8.5672,-0.47671,-0.35552,-0.68234,-0.76786,-15.24,30.48,-16.38
2.2201,-8.1177,-0.29965,-0.43555,-0.3427,-0.83841,-15.48,30.54,-16.26
2.2746,-7.4776,-0.054481,-0.4554,-0.17104,-0.87995,-16.02,30.36,-15.72
2.3427,-7.1507,0.027241,-0.44135,-0.057116,-0.90561,-16.38,30.3,-15.54
2.2474,-6.96,0.01362,-0.40103,-0.017104,-0.92363,-16.92,30.24,-15.24
2.3972,-6.7148,0.081722,-0.35583,-0.059254,-0.91752,-18.42,30.06,-14.76
2.4517,-6.7148,0.12258,-0.24984,-0.16799,-0.88575,-19.26,29.88,-14.64
2.5061,-6.8374,0.054481,-0.16127,-0.31582,-0.8207,-20.16,29.82,-14.34
2.5742,-7.7364,0.14982,-0.098044,-0.45998,-0.7196,-21.96,29.58,-14.1
2.6015,-8.2131,0.21793,-0.047342,-0.58613,-0.59773,-22.8,29.58,-13.98
2.5606,-8.7715,0.29965,-0.000611,-0.62461,-0.42486,-23.76,29.58,-14.04
2.5198,-9.9156,0.31327,0.055894,-0.51129,-0.15088,-25.14,29.52,-14.16
2.5198,-10.297,0.27241,0.087048,-0.36835,0.0064141,-25.92,29.46,-14.16
2.547,-11.019,0.36775,0.11209,-0.22388,0.13378,-26.7,29.4,-14.34
2.6968,-12.054,0.12258,0.15058,-0.089186,0.23488,-28.32,29.46,-14.46
2.8603,-12.49,-0.10896,0.14966,-0.0085521,0.32009,-29.1,29.46,-14.64
3.0101,-13.089,-0.34051,0.12767,-0.016493,0.40928,-29.76,29.16,-14.82
3.2144,-14.438,-0.1362,0.1179,-0.071471,0.48747,-30.54,29.22,-15.06
3.0237,-14.887,0.28603,0.13042,0.019853,0.67531,-30.84,29.34,-15.06
2.833,-14.601,0.40861,0.12706,0.12401,0.73426,-31.02,29.28,-15.18
2.833,-12.068,-1.0215,0.1127,0.40317,0.8207,-31.08,29.34,-15.18
2.8603,-10.569,-1.9886,0.11301,0.34514,0.80268,-30.9,29.16,-15.18
2.833,-9.5479,-2.547,0.069944,0.08094,0.6747,-30.66,29.16,-15.06
2.0294,-7.4095,-2.5061,0.053756,-0.22144,0.47678,-30.18,29.22,-14.7
1.7162,-7.5184,-2.152,-0.036957,-0.37293,0.18143,-29.7,29.28,-14.46
1.3484,-7.927,-1.4301,-0.082772,-0.32406,0.090713,-29.34,29.34,-14.16
1.2258,-8.1858,-0.83084,-0.24954,0.055894,-0.025351,-28.14,29.4,-13.8
1.2939,-8.1995,-0.70826,-0.31246,0.41722,-0.018326,-27.54,29.52,-13.56
1.7979,-8.1041,-0.81722,-0.37263,0.78741,0.069639,-26.28,30.0,-13.14
1.9886,-7.9679,-0.78998,-0.37751,1.113,0.16982,-25.68,30.12,-12.84
2.3018,-7.8589,-0.88532,-0.31185,1.438,0.30452,-25.14,30.18,-12.78
2.7649,-7.6683,-1.0215,-0.29077,1.4908,0.35094,-23.82,30.66,-12.42
2.9284,-7.3822,-0.95342,-0.18937,1.4288,0.46151,-23.22,30.96,-12.66
3.0782,-7.0281,-0.83084,-0.090713,1.2336,0.51252,-22.68,31.32,-12.66
3.1327,-6.9328,-0.78998,0.022602,0.95509,0.55558,-22.14,31.5,-12.66
3.3097,-7.0281,-0.85808,0.12248,0.64171,0.59315,-21.06,31.98,-13.02
3.4187,-7.3414,-1.3212,0.24832,0.13317,0.65332,-20.04,32.34,-13.62
3.4596,-8.1995,-1.5391,0.31062,-0.22388,0.6634,-19.74,32.52,-13.92
3.3778,-8.8532,-1.8524,0.33689,-0.54184,0.66279,-19.32,32.82,-14.34
3.3097,-9.0712,-1.8932,0.35369,-0.78435,0.62675,-18.9,33.06,-14.64
2.9829,-9.6023,-1.9613,0.37782,-0.87751,0.56444,-18.24,33.42,-15.3
2.5606,-10.42,-1.9068,0.37996,-0.81306,0.46762,-17.88,33.54,-15.6
2.3836,-10.937,-1.9886,0.32406,-0.58857,0.37751,-17.04,33.78,-16.08
2.2337,-10.733,-2.1384,0.24251,-0.097433,0.16493,-16.74,33.84,-16.44
2.3563,-10.978,-2.152,0.20831,0.17349,0.029627,-16.5,33.9,-16.5
3.1327,-12.708,-2.0839,0.19303,0.27519,-0.069639,-16.08,34.02,-17.04
3.6366,-13.988,-2.2474,0.13836,0.20464,-0.1011,-15.78,34.08,-17.22
3.8954,-13.988,-2.2474,0.057116,0.022297,-0.089797,-15.6,34.02,-17.46
3.9227,-13.076,-1.7706,-0.0045815,-0.34758,-0.14936,-15.54,34.2,-17.88
3.7728,-12.476,-1.5663,-0.054978,-0.58582,-0.24679,-15.42,34.2,-18.06
3.3506,-11.346,-1.4574,-0.08094,-0.68692,-0.30757,-15.48,34.2,-18.0
2.9965,-9.0031,-1.362,-0.1405,-0.96333,-0.54245,-15.42,34.2,-18.18
3.0646,-8.717,-1.1713,-0.12767,-1.2004,-0.67562,-15.6,34.2,-18.24
3.1463,-9.0439,-0.89894,-0.1179,-1.4584,-0.74373,-15.78,34.2,-18.12
2.9965,-9.5206,-0.46309,-0.17685,-1.7382,-0.70738,-16.26,34.2,-18.3
2.942,-9.4117,-0.28603,-0.24129,-1.7785,-0.61087,-16.68,34.26,-18.12
2.7377,-9.0984,-0.040861,-0.2926,-1.6897,-0.51038,-17.1,34.32,-17.94
2.4789,-8.7987,0.095342,-0.35675,-1.5006,-0.40378,-18.18,34.26,-17.52
2.3563,-8.4719,0.25879,-0.40867,-1.2394,-0.32223,-19.02,34.26,-17.22
2.3155,-8.0905,0.34051,-0.44379,-0.96181,-0.29749,-19.68,34.5,-16.86
2.3836,-7.4503,0.49033,-0.43891,-0.7309,-0.28772,-21.18,34.62,-16.08
2.4244,-7.246,0.44947,-0.3882,-0.56413,-0.32651,-21.84,34.62,-15.66
2.4789,-7.0553,0.42223,-0.3488,-0.5678,-0.36682,-22.68,34.8,-15.3
2.5334,-6.9055,0.50395,-0.32376,-0.59407,-0.39248,-24.54,34.92,-14.52
2.5334,-7.0145,0.50395,-0.23946,-0.68295,-0.4612,-25.38,34.86,-14.22
2.5061,-7.3141,0.44947,-0.16982,-0.7422,-0.5006,-26.28,34.92,-13.98
2.4789,-8.4174,0.43585,-0.11454,-0.75686,-0.50427,-28.08,35.28,-13.32
2.4244,-8.7851,0.49033,-0.054672,-0.68997,-0.46365,-28.8,35.46,-13.2
2.3836,-9.5479,0.43585,-0.048258,-0.57208,-0.39309,-29.58,35.52,-13.26
2.2882,-10.515,0.46309,-0.043371,-0.49541,-0.35705,-30.9,35.46,-13.02
2.1656,-11.087,0.40861,-0.053756,-0.21197,-0.23213,-31.5,35.52,-12.96
2.2065,-11.414,0.17706,-0.065668,-0.018631,-0.15577,-32.04,35.58,-13.02
2.3291,-12.34,-0.61292,-0.1127,0.11942,-0.078496,-33.0,35.58,-13.02
2.4108,-13.225,-0.50395,-0.14722,0.1576,0.041233,-33.6,35.58,-13.2
2.3699,-13.716,-0.1362,-0.094684,0.26542,0.17685,-34.02,35.52,-13.32
2.1929,-14.247,0.19068,-0.083994,0.38271,0.25198,-34.44,35.46,-13.38
2.5198,-13.443,-0.83084,-0.055589,0.76816,0.4215,-35.04,35.34,-13.26
2.7513,-11.795,-1.7706,-0.024129,0.85216,0.48197,-35.22,35.16,-13.32
2.6015,-10.488,-2.5742,0.080329,0.56444,0.45173,-35.28,34.74,-12.96
2.2474,-8.7851,-3.1463,0.14569,0.21502,0.343,-35.16,34.62,-12.72
2.0567,-8.322,-3.1599,0.18815,-0.12798,0.21411,-35.1,34.5,-12.36
1.7979,-8.2131,-2.9148,0.19761,-0.26695,0.14966,-35.04,34.44,-12.24
1.2667,-8.1177,-2.5198,0.13531,-0.45815,0.022602,-34.38,34.44,-11.7
0.99429,-7.8317,-2.4517,0.072388,-0.40012,-0.0058032,-34.14,34.38,-11.16
0.7355,-7.4503,-2.261,0.0085521,-0.18845,-0.030543,-33.84,34.26,-10.68
0.47671,-6.6876,-2.1112,-0.076053,0.16921,0.0064141,-32.82,34.14,-9.9
0.62654,-6.4833,-2.1384,-0.15241,0.71074,0.043371,-32.22,34.08,-9.48
1.076,-6.1836,-2.1248,-0.16646,0.83444,0.063835,-31.74,34.02,-9.18
1.58,-6.0747,-1.9068,-0.15638,1.0125,0.15088,-30.48,34.2,-8.76
2.0839,-6.1836,-1.866,-0.11545,0.95967,0.22816,-30.06,34.2,-8.64
2.3972,-6.3198,-1.9068,-0.064752,0.80115,0.31979,-29.46,34.32,-8.46
2.6696,-6.9055,-1.9886,-0.016799,0.55619,0.40653,-28.56,34.44,-8.46
2.7104,-7.2188,-1.9068,0.048258,0.18021,0.49938,-28.08,34.5,-8.52
2.6287,-7.5865,-1.8932,0.077885,0.026878,0.54489,-27.66,34.74,-8.52
2.5742,-8.4991,-1.8932,0.1014,-0.035125,0.57605,-26.94,35.34,-8.88
2.5606,-9.112,-1.9068,0.13103,-0.037874,0.58338,-26.52,35.52,-9.24
2.5334,-9.7385,-1.8387,0.1573,-0.000611,0.61545,-26.28,35.76,-9.54
2.5879,-10.787,-1.9068,0.1799,0.15455,0.68539,-25.5,36.3,-10.32
2.6696,-11.128,-1.9886,0.18998,0.30543,0.69822,-25.14,36.6,-10.74
2.7241,-11.319,-2.0431,0.19426,0.44135,0.69394,-24.72,36.84,-11.1
2.7377,-10.896,-2.0022,0.18448,0.57208,0.65088,-24.0,37.32,-11.94
2.8194,-10.542,-2.0567,0.21166,0.62797,0.55283,-23.58,37.74,-12.18
2.9965,-11.373,-2.0567,0.27886,0.57116,0.41966,-23.28,38.04,-12.66
3.514,-13.525,-1.8932,0.32284,0.46059,0.3259,-22.68,38.46,-13.5
3.732,-14.288,-1.9477,0.31765,0.20586,0.24251,-22.26,38.7,-13.98
3.8954,-14.002,-2.1384,0.28588,-0.076358,0.19945,-21.84,38.88,-14.22
3.6366,-12.217,-2.0839,0.27367,-0.22052,0.1518,-21.3,38.88,-14.88
3.2825,-11.182,-1.9341,0.22419,-0.52382,-0.080634,-21.06,39.0,-15.3
2.9692,-9.9973,-1.9068,0.15241,-0.65607,-0.28955,-20.7,39.12,-15.6
2.9284,-8.5808,-1.975,0.079107,-0.86499,-0.51374,-20.58,39.24,-15.96
2.9148,-8.5672,-1.9205,0.0027489,-1.2388,-0.76205,-20.7,39.36,-16.08
2.9829,-8.9894,-1.5255,-0.072082,-1.4508,-0.82986,-20.82,39.42,-16.2
2.7922,-9.3299,-0.95342,-0.16096,-1.5403,-0.83353,-21.36,39.54,-16.14
2.4653,-9.4389,-0.7355,-0.24374,-1.4792,-0.79351,-21.72,39.54,-16.14
2.1793,-9.4798,-0.65378,-0.33628,-1.2459,-0.71868,-22.2,39.6,-15.9
2.0294,-9.1256,-0.50395,-0.42791,-0.87384,-0.65179,-23.28,39.6,-15.48
2.0975,-8.6489,-0.42223,-0.51191,-0.22022,-0.57605,-24.12,39.72,-15.12
2.152,-8.2812,-0.27241,-0.54764,0.091019,-0.57085,-24.96,39.66,-14.76
2.3972,-7.4503,-0.095342,-0.51649,0.26756,-0.59162,-26.7,39.84,-13.98
2.5061,-7.246,-0.027241,-0.45723,0.31551,-0.62094,-27.48,39.78,-13.62
2.6151,-7.0962,-0.095342,-0.37385,0.23182,-0.65576,-28.56,39.78,-13.2
2.7104,-7.1643,-0.21793,-0.28466,0.055894,-0.67531,-30.48,39.96,-12.66
2.8058,-7.246,-0.32689,-0.16554,-0.3146,-0.64966,-31.5,39.84,-12.6
2.8603,-7.4095,-0.21793,-0.13622,-0.44746,-0.63469,-33.36,39.96,-12.18
2.7377,-8.1313,-0.081722,-0.042455,-0.7761,-0.55344,-34.38,39.96,-12.06
2.656,-8.7306,-0.10896,-0.0094684,-0.8827,-0.46609,-35.34,39.9,-12.12
2.4789,-9.9292,-0.068102,-0.025656,-0.88484,-0.35369,-37.14,40.02,-12.3
2.3563,-10.215,-0.068102,-0.037874,-0.79046,-0.27031,-38.16,39.96,-12.36
2.2474,-10.515,-0.01362,-0.094073,-0.44502,-0.11515,-39.0,40.02,-12.36
2.2882,-11.387,-0.10896,-0.1182,-0.16188,-0.026878,-40.5,39.9,-12.66
2.2201,-11.836,-0.40861,-0.15577,0.10721,0.053756,-41.28,40.02,-12.72
2.2474,-11.904,-0.44947,-0.21197,0.34239,0.10782,-42.12,39.9,-12.66
2.547,-13.307,-0.50395,-0.21166,0.49511,0.18723,-43.26,39.84,-12.66
2.7377,-14.288,-0.054481,-0.16799,0.65851,0.34575,-43.86,39.72,-12.72
2.833,-14.124,-0.57205,-0.14966,0.90713,0.54398,-44.58,39.6,-12.48
2.9692,-12.435,-1.3212,-0.1573,1.0476,0.74526,-44.76,39.6,-12.48
3.0782,-11.237,-2.2201,-0.10324,0.85491,0.77916,-44.94,39.72,-12.3
3.051,-9.0712,-2.8875,-0.041539,0.44227,0.68692,-45.06,39.66,-12.06
2.3836,-7.4776,-2.8875,-0.013134,0.002138,0.50488,-44.76,39.48,-11.4
1.8796,-7.7364,-2.656,-0.010385,-0.26328,0.32009,-44.52,39.42,-11.04
1.4165,-8.3084,-1.8251,-0.059865,-0.29016,0.16524,-44.1,39.24,-10.74
1.1577,-8.1586,-1.2531,-0.18357,0.068111,-0.0018326,-42.96,39.24,-9.9
1.1986,-8.0905,-0.99429,-0.24618,0.48228,-0.022297,-42.3,39.24,-9.48
1.2531,-8.036,-1.185,-0.29444,0.93279,0.038485,-41.64,39.48,-9.18
1.6617,-7.464,-1.1986,-0.28069,1.296,0.096822,-40.32,39.66,-8.4
1.9341,-7.246,-1.2803,-0.22633,1.5406,0.1854,-39.6,39.72,-7.98
2.3018,-7.1643,-1.6481,-0.16829,1.6307,0.28161,-38.04,40.02,-7.62
2.9284,-6.96,-1.7162,-0.059559,1.4138,0.44746,-37.44,40.08,-7.5
3.1872,-6.7693,-1.6617,0.029016,1.058,0.55222,-36.72,40.08,-7.32
3.0918,-6.5786,-1.5936,0.10721,0.63133,0.63163,-35.88,40.26,-7.32
2.7649,-6.8919,-1.5255,0.15974,0.2755,0.66126,-34.62,40.74,-7.5
2.5334,-7.2188,-1.4029,0.18815,0.048564,0.67134,-33.9,40.86,-7.68
2.3427,-7.5593,-1.3212,0.19823,-0.011301,0.65912,-33.36,41.22,-7.92
2.152,-7.7091,-1.3348,0.19303,0.10537,0.61575,-32.88,41.34,-8.4
2.2474,-8.4719,-1.5255,0.19914,0.18265,0.60292,-31.98,41.7,-9.06
2.3427,-8.9894,-1.7434,0.18845,0.37629,0.5846,-31.44,41.88,-9.54
2.4108,-9.1937,-1.8932,0.16585,0.48472,0.63408,-31.02,42.12,-9.84
2.656,-9.6432,-1.9613,0.13408,0.551,0.6857,-30.0,42.42,-10.74
2.6696,-9.6568,-1.9886,0.12584,0.59559,0.72724,-29.58,42.78,-11.22
2.6423,-9.507,-2.0158,0.13103,0.58185,0.72724,-28.98,42.96,-11.58
2.7377,-9.398,-2.2882,0.13622,0.55405,0.71349,-28.5,43.32,-11.88
2.9556,-9.7658,-2.547,0.14722,0.43646,0.66432,-27.54,43.62,-12.66
3.0373,-10.338,-2.547,0.16005,0.33842,0.63958,-27.06,43.8,-13.08
3.0646,-11.046,-2.3155,0.16829,0.29291,0.62492,-26.52,44.04,-13.32
3.3506,-13.416,-1.6344,0.17959,0.34789,0.60842,-25.68,44.46,-14.1
3.6094,-14.465,-1.6344,0.1631,0.4835,0.55803,-25.26,44.76,-14.28
3.8001,-15.514,-1.3757,0.17135,0.50183,0.5174,-24.78,45.06,-14.7
3.6503,-14.587,-1.4029,0.14905,0.58215,0.40684,-23.88,45.36,-15.48
3.5549,-13.035,-1.7298,0.14569,0.64599,0.11545,-23.34,45.54,-15.9
3.623,-11.196,-2.0294,0.19945,0.42455,-0.1182,-22.8,45.78,-16.26
3.9499,-8.4719,-2.3427,0.24129,-0.037568,-0.32773,-22.02,45.9,-16.8
4.2223,-8.1586,-2.2746,0.3146,-0.68875,-0.60109,-21.84,46.02,-17.1
4.3313,-8.5127,-2.0431,0.34728,-1.4294,-0.66096,-21.72,46.08,-17.34
3.9908,-8.7715,-1.4165,0.31154,-2.4135,-0.78985,-21.84,46.26,-17.4
3.5413,-8.8668,-1.2395,0.25473,-2.8356,-0.86071,-22.02,46.2,-17.46
3.2553,-8.8941,-1.1032,0.15944,-3.0494,-0.89889,-22.32,46.26,-17.4
2.3291,-9.0031,-0.7355,0.047953,-2.9966,-0.88759,-23.1,46.02,-16.98
1.9886,-9.0167,-0.58567,-0.07025,-2.7034,-0.88973,-23.76,45.66,-16.56
1.8251,-8.7306,-0.40861,-0.25137,-1.9627,-0.82558,-25.62,45.3,-15.3
1.8387,-8.3493,-0.36775,-0.34728,-1.4255,-0.77488,-26.64,44.94,-14.64
1.9341,-8.1995,-0.28603,-0.4102,-0.96272,-0.71624,-27.78,44.7,-13.98
2.152,-7.6002,0.040861,-0.43738,-0.58826,-0.67226,-30.3,43.98,-12.3
2.3155,-7.1643,0.12258,-0.42058,-0.36591,-0.63255,-31.5,43.68,-11.28
2.6423,-6.4833,0.28603,-0.36591,-0.29505,-0.60231,-34.02,42.84,-9.42
2.8058,-6.2517,0.32689,-0.24648,-0.47342,-0.57085,-35.34,42.6,-8.46
2.8603,-6.3198,0.38137,-0.13164,-0.74739,-0.56047,-36.6,42.12,-7.56
2.9284,-7.1234,0.57205,-0.023824,-1.0522,-0.52657,-39.36,41.52,-5.94
2.8739,-7.8317,0.64016,0.060476,-1.3274,-0.4499,-40.56,41.1,-5.22
2.9148,-8.2948,0.6674,0.12584,-1.5082,-0.33323,-41.7,40.74,-4.5
2.8058,-9.8339,0.70826,0.18234,-1.5287,-0.075136,-43.74,40.2,-3.3
2.7922,-10.719,0.74912,0.18662,-1.31,0.082772,-44.52,39.9,-2.76
2.7786,-11.305,0.76274,0.16646,-1.0938,0.20281,-45.48,39.66,-2.16
2.7241,-13.021,1.0896,0.14447,-0.81856,0.28222,-46.86,39.06,-1.08
2.8603,-13.607,0.99429,0.11881,-0.49388,0.3598,-47.58,38.82,-0.6
3.0101,-14.002,0.89894,0.10324,-0.21166,0.40348,-48.24,38.7,-0.12
3.3097,-14.247,0.57205,0.11301,-0.035125,0.41081,-49.2,38.22,0.6
3.1327,-13.92,0.38137,0.11393,0.10965,0.35797,-49.44,38.04,1.02
3.0918,-13.688,0.29965,0.14508,0.12706,0.32742,-49.62,37.92,1.5
3.2553,-13.484,0.20431,0.27611,0.24862,0.32834,-49.68,37.44,2.28
3.4459,-12.0,-1.185,0.29688,0.2474,0.3766,-49.8,37.32,2.7
3.5004,-10.215,-2.3836,0.29505,-0.018021,0.39431,-49.8,37.2,3.0
3.4732,-7.6138,-3.3506,0.30207,-0.52412,0.35736,-49.5,36.9,3.6
3.3778,-7.0145,-3.3642,0.28863,-1.3919,0.12798,-49.44,36.78,4.08
3.0237,-7.2733,-2.9965,0.23518,-1.7926,-0.084605,-49.14,36.66,4.38
2.1112,-8.2131,-2.3018,0.18723,-1.8967,-0.18295,-48.54,36.48,5.34
1.5255,-8.3493,-2.0567,-0.045815,-1.7639,-0.48747,-48.24,36.3,5.82
1.1305,-8.4174,-1.9477,-0.22938,-1.3613,-0.66462,-47.76,35.94,6.3
0.96704,-8.3765,-1.9886,-0.40745,-0.77549,-0.78741,-46.86,35.4,7.92
1.2258,-8.0632,-2.0022,-0.55375,0.083994,-0.94165,-46.5,35.04,8.58
1.5936,-7.8589,-1.9613,-0.56047,0.44074,-0.9838,-45.96,34.62,9.42
2.0294,-7.6546,-1.9613,-0.5455,0.52046,-0.99876,-45.66,34.2,10.14
2.6015,-7.3141,-1.7979,-0.4444,0.43219,-0.9951,-44.82,33.18,11.7
2.9556,-7.0962,-1.6753,-0.3372,0.14264,-0.95387,-44.46,32.46,12.42
3.0237,-6.8102,-1.4438,-0.22144,-0.28191,-0.90194,-44.16,31.86,13.26
3.051,-6.6467,-1.0896,-0.061697,-0.95692,-0.78679,-43.68,30.48,14.4
2.8058,-6.6604,-0.81722,0.035736,-1.3137,-0.70066,-43.32,29.88,15.18
2.8058,-6.7285,-0.8036,0.12065,-1.5818,-0.59193,-43.08,29.1,15.84
2.5334,-7.246,-0.62654,0.18326,-1.7312,-0.47067,-42.6,27.78,16.8
2.4789,-7.6138,-0.58567,0.21716,-1.7712,-0.34147,-42.48,27.12,17.22
2.4517,-7.9679,-0.54481,0.22907,-1.6918,-0.23152,-42.36,26.58,17.7
2.2882,-8.4582,-0.39499,0.22602,-1.5125,-0.1295,-42.12,25.5,18.3
2.1793,-8.5944,-0.35413,0.20678,-1.0889,-0.057116,-42.0,25.02,18.6
2.0839,-8.5808,-0.44947,0.21472,-0.75381,-0.058032,-41.76,24.6,19.08
2.2746,-8.431,-0.39499,0.23915,-0.4667,-0.075747,-41.04,23.88,19.92
2.4517,-8.2131,-0.40861,0.28802,-0.27947,-0.10904,-40.74,23.82,20.46
2.547,-8.2131,-0.42223,0.38454,-0.19853,-0.13042,-40.44,23.64,20.82
2.8194,-8.2539,-0.74912,0.48136,-0.2587,-0.13653,-39.54,23.28,21.78
2.8467,-8.322,-0.85808,0.62492,-0.40042,-0.10782,-39.18,22.98,22.02
2.8875,-8.4582,-1.0624,0.70555,-0.53726,-0.050091,-38.76,22.86,22.26
2.6832,-8.7987,-1.3893,0.74281,-0.61178,0.044288,-37.68,22.68,22.86
2.5742,-9.0848,-1.58,0.73793,-0.61056,0.15424,-37.32,22.56,23.04
2.5198,-9.1937,-1.7298,0.73518,-0.54764,0.27947,-37.02,22.5,23.22
2.6287,-9.3844,-1.9068,0.72021,-0.44013,0.41539,-35.94,22.5,23.4
2.656,-9.4389,-2.0567,0.68875,-0.27733,0.64232,-35.52,22.56,23.46
2.7377,-9.4934,-2.1384,0.64874,-0.21869,0.78679,-35.04,22.62,23.4
2.7922,-9.6841,-2.4517,0.63622,-0.19151,0.83291,-34.38,22.8,23.22
2.9284,-9.8611,-2.3291,0.59437,-0.1576,0.94562,-34.02,22.92,22.98
3.1054,-10.174,-2.3836,0.59376,-0.15974,0.99174,-33.54,23.16,22.86
3.6775,-11.713,-2.4108,0.59407,-0.20831,1.0214,-32.52,23.88,22.38
3.9635,-12.217,-2.6287,0.57146,-0.42761,1.0638,-31.98,24.36,22.14
3.9499,-12.122,-2.4789,0.5342,-0.6127,1.0376,-31.5,24.84,22.02
3.9227,-11.509,-2.2201,0.50183,-0.80023,0.9557,-30.6,25.8,21.48
3.8409,-10.665,-1.9613,0.44471,-0.98655,0.80726,-30.0,26.22,21.3
3.7047,-9.8475,-1.757,0.41172,-1.1961,0.59804,-29.22,26.64,21.12
3.5958,-8.9622,-1.4574,0.39218,-1.4169,0.38454,-28.02,27.48,20.58
3.5277,-8.717,-1.3212,0.3882,-1.7862,0.13103,-27.48,27.78,20.4
3.5413,-8.8668,-0.92618,0.40836,-1.9038,0.089797,-26.28,28.56,20.22
3.9635,-9.7658,-0.85808,0.44807,-2.2694,0.10018,-25.44,28.98,20.16
3.9635,-9.9701,-0.78998,0.45754,-2.5241,0.20617,-24.72,29.28,20.16
3.9363,-10.161,-0.61292,0.43768,-2.7828,0.3204,-23.16,29.88,20.16
3.8546,-10.065,-0.47671,0.40164,-2.9725,0.4273,-22.26,30.12,20.46
3.732,-10.161,-0.27241,0.25229,-3.0116,0.5171,-21.36,30.3,20.64
3.4732,-9.9565,0.054481,0.12737,-2.8976,0.52137,-19.32,30.54,20.88
3.2553,-9.5887,0.24517,-0.037874,-2.7074,0.49602,-18.24,30.84,21.0
3.0782,-9.4253,0.35413,-0.1854,-2.4261,0.40775,-17.16,31.08,21.12
2.7922,-9.1937,0.31327,-0.32803,-2.0589,0.30727,-15.12,31.44,21.36
2.7513,-9.0575,0.44947,-0.45112,-1.6655,0.19028,-13.98,31.68,21.72
2.9692,-9.1393,0.64016,-0.54398,-1.3127,0.094684,-12.84,31.98,21.9
3.3097,-9.1529,0.76274,-0.62308,-0.92424,0.016188,-10.56,32.16,22.32
3.5549,-9.1256,0.83084,-0.65607,-0.79871,-0.0039706,-9.48,32.22,22.56
3.732,-9.0167,0.69464,-0.67989,-0.80879,-0.019853,-8.4,32.16,22.86
4.0589,-8.7034,0.68102,-0.69333,-0.94928,-0.03543,-6.54,32.1,23.28
4.1133,-8.8396,0.70826,-0.69639,-1.1658,-0.081551,-5.7,32.04,23.34
3.9227,-9.1937,0.8717,-0.69516,-1.3534,-0.14661,-4.2,31.8,23.64
3.8001,-9.3436,0.89894,-0.71044,-1.5,-0.27061,-3.66,31.5,23.88
3.5413,-9.6704,1.0488,-0.71135,-1.4557,-0.37904,-2.64,30.84,24.24
3.2553,-9.9973,1.1577,-0.72632,-1.3033,-0.49602,-1.44,30.42,24.9
3.228,-10.27,1.2258,-0.72662,-1.0602,-0.61025,-0.84,29.94,25.02
3.1327,-10.896,1.3076,-0.71044,-0.77549,-0.73823,-0.3,29.58,25.08
2.942,-11.373,1.2803,-0.68722,-0.45082,-0.88728,-0.3,29.28,25.14
2.7649,-11.768,1.1713,-0.65943,-0.10415,-1.0476,-0.3,28.86,25.08
2.547,-12.163,1.1032,-0.62033,0.24435,-1.2239,-0.36,28.5,25.2
2.4789,-12.299,1.0624,-0.5397,0.79443,-1.4902,-0.72,28.5,25.26
1.9613,-12.136,1.0896,-0.45265,1.1924,-1.6558,-1.08,28.38,25.26
1.8387,-12.217,0.88532,-0.30574,1.555,-1.7278,-1.56,28.38,25.32
2.6832,-12.762,-0.25879,-0.19578,1.6756,-1.6295,-3.12,28.26,25.26
3.4459,-11.618,-1.2939,-0.15669,1.4975,-1.3867,-4.86,28.14,25.02
3.5277,-10.624,-1.4846,-0.04948,0.95967,-1.0739,-5.7,27.96,24.96
2.9284,-7.9134,-1.7434,0.14233,-0.012523,-0.6298,-7.62,27.6,24.9
2.6832,-7.0553,-1.8387,0.28588,-0.57666,-0.45907,-9.24,27.48,24.96
2.1929,-5.6388,-2.5606,0.44318,-1.0608,-0.34911,-9.84,27.24,24.9
2.0839,-5.993,-3.0918,0.58063,-1.4896,-0.31704,-10.98,26.94,25.32
2.152,-6.6467,-3.1872,0.66004,-1.8894,-0.33475,-11.22,26.58,25.5
2.2201,-8.2539,-2.6696,0.66462,-2.1548,-0.31185,-11.82,26.52,25.8
2.2746,-9.2482,-2.0703,0.56322,-2.2944,-0.2529,-11.76,26.46,26.1
2.0158,-10.093,-1.4438,0.47525,-2.1777,-0.19792,-10.74,26.34,26.46
1.7843,-10.188,-1.1032,0.35461,-1.8234,-0.1463,-9.66,26.58,26.94
1.6481,-9.9701,-1.1169,0.22694,-1.2553,-0.10812,-8.88,26.76,27.12
1.9341,-9.1256,-1.0215,0.13622,-0.70433,-0.10721,-7.08,27.06,27.48
2.3836,-8.8668,-1.1305,0.10446,-0.20983,-0.12737,-5.46,27.6,27.54
2.6423,-8.8668,-1.2258,0.10293,-0.15333,-0.11209,-4.68,27.84,27.24
3.1463,-8.7987,-1.185,0.13011,-0.27947,-0.091935,-3.6,28.56,27.0
3.4187,-8.9894,-1.0215,0.16554,-0.54398,-0.065973,-2.34,28.92,26.64
3.4187,-9.0439,-0.83084,0.21472,-0.85735,-0.039706,-1.74,29.22,26.46
3.2961,-9.221,-0.78998,0.27275,-1.1289,0.0082467,-0.6,29.52,25.8
3.2416,-9.4389,-0.78998,0.34819,-1.3143,0.06353,0.36,29.88,24.96
3.1599,-9.2074,-1.0351,0.40867,-1.4267,0.15608,0.9,30.06,24.72
2.9965,-8.8532,-1.2803,0.44379,-1.493,0.14661,1.74,30.54,24.06
2.8194,-8.4991,-1.6481,0.46853,-1.5528,0.13042,2.58,31.08,23.22
2.8058,-8.4991,-1.6481,0.48472,-1.6249,0.090103,2.94,31.32,22.92
2.6832,-8.3084,-1.8387,0.48045,-1.6643,0.039401,3.96,31.92,22.32
2.5742,-8.4719,-1.9613,0.46242,-1.6616,-0.018937,4.98,32.34,21.72
2.4517,-8.6489,-1.9613,0.39859,-1.5501,-0.078802,5.46,32.52,21.3
2.1656,-8.5127,-1.9477,0.33689,-1.3601,-0.12523,6.18,33.12,20.58
1.9886,-8.4855,-1.8524,0.28711,-1.0928,-0.17318,6.96,33.6,20.04
2.0294,-8.5263,-2.0158,0.24618,-0.80115,-0.21747,7.74,34.08,19.44
2.0839,-8.5127,-2.0158,0.21105,-0.55619,-0.23152,8.04,34.38,18.66
2.2746,-8.717,-2.0294,0.22113,-0.40928,-0.23824,8.64,34.5,18.54
2.4108,-8.9758,-2.0294,0.25229,-0.32895,-0.18051,8.94,34.98,17.82
2.5334,-9.1529,-2.0431,0.3094,-0.32803,-0.11484,9.3,35.22,17.34
2.5334,-9.2482,-2.0431,0.36927,-0.34056,-0.030238,9.48,35.4,16.92
2.547,-9.4798,-1.975,0.43585,-0.36072,0.060781,9.78,35.7,16.38
2.5742,-10.106,-1.8932,0.49847,-0.34239,0.15455,10.2,36.06,15.96
2.656,-10.515,-1.8115,0.54398,-0.30207,0.25045,10.38,36.18,15.72
2.656,-11.25,-1.4846,0.56536,-0.21961,0.3427,10.38,36.18,15.18
2.6696,-11.727,-1.2122,0.58338,-0.01069,0.44685,10.44,36.54,14.58
2.7649,-12.054,-1.1169,0.57849,0.19364,0.48014,10.56,36.72,14.4
2.8058,-12.0,-1.0215,0.56474,0.41997,0.49388,11.04,36.96,13.74
2.7922,-11.359,-1.0488,0.54886,0.59468,0.4664,11.28,37.14,13.2
3.0918,-11.605,-0.99429,0.55986,0.71563,0.38485,11.64,37.26,12.54
3.4868,-12.095,-1.0488,0.52931,0.62003,0.35033,11.64,37.2,12.42
3.9227,-12.503,-1.1032,0.45662,0.38057,0.32834,11.58,37.44,11.64
4.127,-12.558,-0.95342,0.36835,0.037874,0.30513,11.64,37.62,10.98
4.0589,-12.258,-0.47671,0.25504,-0.29383,0.21747,11.88,37.92,10.62
3.5685,-11.332,0.054481,0.14936,-0.54306,0.041233,12.18,38.16,10.38
3.2961,-10.978,0.19068,0.062614,-0.66584,-0.17807,12.18,38.28,10.08
3.0646,-10.433,0.25879,-0.011912,-0.71319,-0.416,12.06,38.4,9.84
2.9556,-10.229,0.20431,-0.10843,-0.74648,-0.73609,12.18,38.4,9.48
3.0646,-10.215,0.10896,-0.16218,-0.7813,-0.88239,11.94,38.64,9.36
3.2553,-10.106,0.23155,-0.22205,-0.84971,-0.98838,11.88,38.76,9.12
3.228,-9.8884,0.50395,-0.29108,-0.94959,-1.0568,11.82,38.88,8.88
3.051,-9.4798,0.76274,-0.35094,-1.0372,-1.1029,11.22,39.06,8.58
2.7786,-9.1937,0.98067,-0.40745,-1.0574,-1.135,10.44,39.12,8.58
2.4789,-8.7715,1.1577,-0.48564,-0.89156,-1.1634,9.42,39.3,8.4
2.4108,-8.2676,1.076,-0.5006,-0.69608,-1.1661,8.46,39.24,8.34
2.3836,-8.1313,1.1169,-0.50519,-0.48869,-1.1573,7.98,39.36,8.34
2.438,-7.4776,1.076,-0.47922,-0.30574,-1.1328,6.42,39.66,8.1
2.438,-7.0145,0.96704,-0.44013,-0.15791,-1.1035,5.16,40.08,8.04
2.4517,-6.7829,0.89894,-0.36255,-0.092546,-1.073,4.5,40.14,7.98
2.4789,-6.4697,0.84446,-0.25809,-0.11332,-1.0143,3.12,40.44,8.04
2.4653,-6.3607,0.8036,-0.15974,-0.19273,-0.96211,2.04,40.62,7.8
2.5742,-6.4969,0.54481,-0.047342,-0.28772,-0.87965,1.38,40.68,7.62
2.656,-6.7693,0.62654,0.061087,-0.40745,-0.75656,0.42,41.04,7.5
2.7104,-7.0553,0.54481,0.15913,-0.52321,-0.59254,-0.3,41.1,7.14
2.9692,-7.4503,0.44947,0.26053,-0.61667,-0.39645,-1.14,41.4,6.78
3.2416,-8.1313,0.28603,0.37996,-0.73365,-0.094684,-1.62,41.46,6.36
3.4459,-8.7715,0.16344,0.44746,-0.75411,0.091324,-2.22,41.52,5.88
3.6639,-9.0712,-0.054481,0.48106,-0.69486,0.24832,-2.28,41.58,5.82
3.8818,-9.6296,-0.46309,0.50335,-0.56505,0.35125,-2.52,41.7,5.22
4.2223,-10.243,-0.47671,0.50916,-0.43677,0.44593,-2.58,41.82,4.92
4.3858,-10.447,-0.57205,0.50732,-0.35369,0.50732,-2.52,41.94,4.68
4.6037,-10.787,-0.84446,0.53359,-0.35766,0.5736,-2.4,41.88,4.2
4.7671,-11.645,-1.4574,0.50855,-0.42974,0.62064,-2.28,42.12,3.6
4.7944,-11.877,-1.6617,0.44135,-0.51801,0.65057,-2.04,42.0,3.24
4.7399,-12.708,-1.3212,0.41661,-0.58582,0.66768,-1.92,42.18,2.76
4.4947,-13.893,-0.65378,0.42699,-0.50335,0.70952,-1.68,42.42,2.22
4.3177,-14.996,-0.58567,0.41203,-0.21228,0.79412,-1.68,42.42,1.44
4.4811,-14.778,-1.7843,0.31307,0.28253,0.96242,-1.8,42.54,0.9
4.413,-13.797,-2.2065,0.1631,0.4612,1.0253,-1.74,42.48,0.78
4.3313,-11.536,-2.5606,0.058643,0.44318,0.96822,-1.86,42.24,0.54
4.0316,-9.1529,-2.6832,-0.084605,0.36316,0.80634,-1.86,42.06,0.36
3.6503,-7.641,-2.4517,-0.19212,0.23427,0.56169,-1.74,41.58,0.54
3.6911,-7.8317,-2.152,-0.27031,0.031765,0.26023,-1.62,41.4,0.78
3.2553,-9.0712,-1.8115,-0.43585,-0.1576,-0.092241,-1.14,40.8,1.08
2.942,-9.221,-1.4982,-0.58551,-0.069944,-0.26237,-0.54,40.08,1.38
2.6015,-9.221,-0.99429,-0.68234,0.16066,-0.36835,0.48,39.54,2.16
2.7377,-9.1937,-0.77636,-0.74495,0.45693,-0.40867,1.02,39.12,2.52
2.7786,-8.9622,-0.51757,-0.75503,0.75198,-0.4328,2.22,38.58,3.0
2.942,-8.2267,-0.65378,-0.72388,0.94165,-0.41569,3.24,38.1,3.42
3.0918,-7.355,-0.76274,-0.65912,0.95692,-0.38332,3.66,37.8,3.48
3.1191,-6.96,-0.8036,-0.55619,0.81062,-0.33475,4.02,37.74,3.72
3.1735,-6.2381,-0.85808,-0.38729,0.41264,-0.23457,4.8,37.5,4.2
3.1191,-5.9793,-0.76274,-0.26328,0.094073,-0.14966,5.1,37.44,4.32
3.0101,-5.8704,-0.78998,-0.15088,-0.19945,-0.044899,5.4,37.44,4.44
2.8058,-6.0883,-0.77636,-0.040623,-0.41814,0.068722,5.7,37.5,4.5
2.7377,-6.4288,-0.84446,0.0562,-0.56413,0.17959,6.0,37.44,4.44
2.7649,-6.7693,-0.84446,0.14111,-0.66737,0.30024,6.24,37.32,4.5
2.6968,-7.3414,-0.84446,0.2645,-0.76908,0.47464,6.6,37.56,4.2
2.833,-7.8589,-0.92618,0.33781,-0.79871,0.57757,6.84,37.44,4.08
2.833,-8.2131,-0.85808,0.41356,-0.77427,0.66615,7.02,37.44,3.96
2.8875,-8.7987,-0.96704,0.51557,-0.70402,0.73762,7.56,37.56,3.42
2.9284,-8.8941,-1.1169,0.57024,-0.63347,0.74006,7.98,37.68,3.06
2.833,-8.8124,-1.1986,0.59193,-0.59895,0.72632,8.58,37.56,2.7
2.942,-9.0712,-1.3212,0.6744,-0.54947,0.65057,8.94,37.8,2.16
3.1872,-9.7249,-1.6344,0.70616,-0.58765,0.59804,10.14,37.68,1.08
3.3234,-10.542,-1.58,0.7251,-0.65301,0.54489,10.62,37.62,0.72
3.514,-11.822,-1.2803,0.74526,-0.70463,0.51343,11.82,37.38,-0.18
3.8546,-14.029,-1.3212,0.68142,-0.64416,0.54672,12.3,37.2,-0.72
3.8682,-13.961,-1.4438,0.57116,-0.56474,0.52993,12.84,37.14,-1.5
3.7047,-13.389,-1.4029,0.42852,-0.48411,0.4218,13.32,36.96,-2.16
3.3506,-11.155,-1.2803,0.34178,-0.40653,0.21716,14.28,36.72,-3.54
3.3506,-9.9973,-1.185,0.24648,-0.43616,-0.032376,14.7,36.66,-4.32
3.5685,-9.3163,-1.2939,0.18845,-0.74678,-0.39523,15.72,36.54,-5.52
3.514,-9.4934,-1.2667,0.13347,-1.004,-0.57605,16.02,36.36,-6.12
3.4459,-9.6023,-1.076,0.056505,-1.1759,-0.69578,16.26,36.3,-6.84
2.9284,-9.3436,-0.62654,-0.0082467,-1.2043,-0.78099,16.32,35.94,-8.04
2.7377,-9.3844,-0.44947,-0.068417,-1.0782,-0.81856,16.14,35.94,-8.88
2.656,-9.3163,-0.23155,-0.13806,-0.84971,-0.83322,16.02,35.82,-9.54
2.7377,-8.8532,-0.095342,-0.17654,-0.63958,-0.81886,15.72,36.0,-11.04
2.8058,-8.6217,-0.28603,-0.18509,-0.43738,-0.72143,15.3,36.18,-11.88
2.833,-8.4174,-0.12258,-0.18448,-0.40775,-0.68356,14.88,36.36,-12.54
2.9284,-8.036,-0.027241,-0.17562,-0.39554,-0.58521,13.62,36.78,-14.04
2.9284,-8.036,-0.027241,-0.17196,-0.42883,-0.54428,13.62,36.78,-14.04
2.6423,-6.9872,0.12258,-0.13683,-0.46701,-0.51618,12.12,37.14,-15.6
2.6287,-6.96,0.20431,-0.083078,-0.49877,-0.5174,11.16,37.32,-16.5
0.96704,-7.4095,1.4438,-0.68814,1.3326,-0.34789,9.06,37.98,-18.18
1.6344,-7.0281,1.0896,-0.39645,1.4951,-0.36744,7.92,38.34,-18.96
2.152,-6.96,0.85808,0.03207,1.4197,-0.41111,6.84,38.64,-19.74
3.2825,-8.4446,0.31327,0.050396,1.0568,-0.354,4.92,39.36,-21.54
3.3915,-8.5536,0.16344,0.15455,0.49083,-0.34208,3.96,39.72,-22.44
4.0725,-9.8475,0.61292,0.31948,-0.14325,-0.219,3.06,40.02,-23.28
2.8739,-10.488,0.61292,0.28802,-0.99907,-0.18906,1.32,40.38,-25.26
2.4517,-10.733,0.62654,0.38118,-1.2526,-0.28069,0.48,40.5,-26.1
2.4517,-10.855,0.69464,0.50916,-1.4319,-0.15302,-0.42,40.62,-26.88
2.0158,-12.149,0.38137,0.46242,-1.4474,0.042455,-2.34,40.98,-28.38
1.1986,-12.898,0.19068,0.095906,-0.60812,0.21044,-3.18,41.04,-29.1
1.0624,-13.307,0.40861,0.10171,0.02138,0.23854,-4.02,41.16,-29.7
1.7025,-14.764,1.3212,0.11209,0.83566,0.40989,-5.58,40.92,-30.9
1.5119,-14.942,1.5119,0.076969,1.2999,0.62705,-6.3,40.86,-31.38
1.2939,-14.519,1.3757,0.067806,1.5565,0.6973,-7.02,40.68,-31.8
0.88532,-12.544,1.2531,0.073304,2.5198,0.88239,-7.8,40.26,-32.1
0.98067,-11.278,1.0624,0.10476,2.8454,0.85765,-8.1,39.9,-32.04
1.757,-8.0769,-0.47671,0.12767,2.6802,0.77061,-8.04,39.6,-31.74
2.0158,-7.8317,-0.74912,0.13989,2.1008,0.69639,-7.62,39.24,-31.32
2.3699,-8.3765,-0.23155,0.26878,0.90622,0.56749,-7.02,39.0,-30.9
1.58,-8.2539,0.54481,0.10751,-0.082772,0.60903,-5.04,38.58,-30.12
1.3757,-8.3357,1.0079,0.081551,-0.039706,0.61789,-3.78,38.4,-29.58
1.7843,-8.7987,1.185,-0.026878,0.24862,0.64874,-2.34,38.34,-29.04
1.9341,-8.3765,1.4301,0.009163,0.59651,0.76725,0.72,38.34,-28.02
2.2882,-8.0496,1.0896,0.035125,0.77763,0.85155,2.46,38.34,-27.54
3.2825,-7.7636,0.54481,0.099571,0.64904,0.90103,6.06,38.4,-26.82
3.623,-7.5729,0.32689,0.15455,0.39798,0.97708,7.74,38.64,-26.46
3.8682,-7.4503,0.34051,0.19609,0.043982,1.0342,9.36,38.88,-26.4
3.909,-7.246,-0.054481,0.24282,-0.26725,1.0812,12.36,39.24,-26.16
3.8273,-7.2188,-0.35413,0.26664,-0.48839,1.1121,13.62,39.48,-26.16
3.5277,-7.1371,-0.49033,0.26267,-0.56994,1.0785,15.66,39.96,-26.34
3.4187,-7.3141,-0.49033,0.2416,-0.44502,1.0012,16.44,40.14,-26.46
3.2553,-7.4912,-0.55843,0.18998,-0.26298,0.88392,17.34,40.08,-26.58
3.3642,-8.322,-0.88532,0.11209,-0.040928,0.73487,18.06,40.14,-26.88
3.4459,-9.3572,-1.1986,0.0058032,0.18815,0.57544,19.08,39.96,-27.24
3.3778,-9.902,-1.0896,-0.11881,0.44807,0.39095,19.68,39.96,-27.42
3.2825,-10.569,-0.84446,-0.25443,0.73945,0.17501,20.4,39.6,-27.96
2.942,-10.515,-0.64016,-0.42333,1.2233,-0.21747,20.7,39.54,-28.08
2.8603,-10.351,-0.57205,-0.47586,1.4801,-0.48655,21.06,39.48,-28.26
2.9692,-10.052,-0.76274,-0.46517,1.5553,-0.60323,21.54,39.12,-28.32
2.9692,-10.161,-0.64016,-0.38973,1.5098,-0.83872,21.72,39.12,-28.38
3.0101,-10.597,-0.31327,-0.29535,1.2098,-0.89125,21.84,39.06,-28.32
2.9556,-12.803,0.24517,-0.20036,0.84269,-0.91202,21.78,39.24,-28.26
2.9284,-14.152,0.72188,-0.1011,0.34941,-0.81459,21.6,39.36,-28.32
2.8058,-15.309,0.96704,-0.082772,0.17501,-0.61056,21.3,39.54,-28.44
2.0294,-13.961,1.9477,-0.067501,0.11484,-0.51099,20.7,40.08,-28.26
1.4438,-12.258,1.8524,0.025045,-0.03207,-0.49755,20.04,40.26,-28.26
1.3484,-10.569,1.3757,0.17043,-0.18692,-0.47861,19.44,40.44,-28.14
1.4301,-7.9679,-0.12258,0.2865,-0.56108,-0.43402,18.06,41.28,-27.84
1.3212,-7.6138,-0.42223,0.41692,-1.4468,-0.36285,17.34,41.58,-27.84
0.88532,-7.8181,0.19068,0.43219,-1.894,-0.30482,15.24,42.3,-27.96
0.77636,-8.2948,0.81722,0.3989,-2.0495,-0.26176,14.04,42.78,-27.96
0.7355,-8.5808,1.3757,0.35186,-1.9456,-0.21686,12.9,43.26,-28.02
0.88532,-8.8941,1.8387,0.26359,-1.624,-0.15485,10.38,44.04,-28.14
1.0215,-8.9622,1.9068,0.19914,-1.1942,-0.11698,9.12,44.34,-28.02
1.4574,-9.0167,1.9613,0.13622,-0.78893,-0.12828,7.8,44.7,-27.9
1.3893,-8.5672,1.8796,0.12217,-0.76144,-0.13286,5.04,45.12,-27.66
1.2803,-8.2539,1.6481,0.11209,-0.72693,-0.12981,3.6,45.18,-27.42
1.471,-8.1041,1.6481,0.17746,-0.832,-0.091019,2.28,45.48,-27.12
1.3757,-7.8181,0.99429,0.21075,-0.95875,0.0033598,-0.48,45.66,-26.7
1.0079,-7.6002,0.6674,0.25595,-1.2462,0.13836,-1.8,45.48,-26.34
0.89894,-7.5321,0.35413,0.31246,-1.6136,0.35797,-3.3,45.42,-25.92
0.6674,-8.0769,0.29965,0.33323,-1.638,0.41661,-5.52,45.18,-24.96
0.99429,-8.6217,0.47671,0.28497,-1.3299,0.41203,-6.48,44.88,-24.36
1.2531,-8.7987,0.70826,0.24007,-0.94623,0.40195,-7.5,44.7,-23.82
2.0839,-9.1937,1.1169,0.17532,-0.59376,0.40012,-9.36,44.34,-22.56
2.4108,-9.6432,1.1713,0.1179,-0.37629,0.3937,-10.14,44.16,-21.96
2.5061,-10.188,1.4438,0.036041,-0.29077,0.39645,-10.8,43.92,-21.36
2.1656,-10.569,1.6344,-0.052534,-0.21411,0.39462,-11.82,43.68,-20.1
2.1929,-10.896,1.6753,-0.12217,-0.12126,0.38607,-12.06,43.68,-19.5
2.2882,-11.114,1.5119,-0.16921,-0.028405,0.37202,-12.3,43.68,-18.9
2.3018,-11.291,1.3212,-0.21228,0.041233,0.34025,-12.18,43.92,-17.64
2.3836,-12.122,1.2258,-0.27031,0.1011,0.28161,-12.12,43.98,-17.16
2.4517,-14.547,2.0839,-0.29138,0.17013,0.26389,-11.4,44.22,-15.9
2.4653,-15.105,2.2882,-0.35797,0.40317,0.27397,-11.28,44.52,-15.36
2.4517,-15.119,2.0431,-0.35216,0.49205,0.28161,-10.86,44.76,-14.82
2.5061,-13.866,1.6072,-0.35369,0.64538,0.26237,-10.38,45.0,-14.34
2.1248,-10.61,0.054481,-0.30146,0.58093,0.074831,-9.24,45.24,-13.44
1.866,-9.0848,-0.50395,-0.27794,0.30024,-0.12767,-8.46,45.42,-13.08
1.3076,-7.4503,-0.92618,-0.22205,-0.20281,-0.49205,-7.2,46.2,-12.06
0.8717,-7.5457,-0.89894,-0.22358,-0.4667,-0.68386,-6.6,46.44,-11.46
0.6674,-7.9543,-0.84446,-0.29535,-0.55314,-0.78771,-5.88,46.62,-10.98
0.57205,-8.0905,-0.76274,-0.38729,-0.45998,-0.80329,-5.28,46.8,-10.44
0.17706,-8.0224,-0.50395,-0.51007,-0.14508,-0.77397,-4.56,47.28,-9.48
0.081722,-7.8726,-0.25879,-0.60598,0.37996,-0.74006,-4.02,47.58,-9.0
0.38137,-7.5593,-0.44947,-0.67623,0.79871,-0.70158,-3.3,47.94,-8.04
0.74912,-7.5321,-0.54481,-0.6579,1.0641,-0.60292,-3.06,48.06,-7.5
0.91256,-7.4503,-0.64016,-0.64171,1.087,-0.55986,-3.0,48.36,-6.9
0.89894,-7.3686,-0.65378,-0.58429,1.0589,-0.4725,-2.94,48.42,-6.3
1.471,-7.069,-0.6674,-0.46578,0.86804,-0.31001,-3.0,48.66,-5.34
1.7298,-7.069,-0.70826,-0.3711,0.6408,-0.1909,-3.18,48.78,-4.86
1.8932,-7.1098,-0.7355,-0.27061,0.38546,-0.078496,-3.36,48.84,-4.44
1.8932,-7.3686,-0.65378,-0.11729,0.048869,0.0562,-3.6,48.9,-3.72
1.7843,-7.6683,-0.64016,-0.022297,-0.1408,0.14203,-3.66,48.96,-3.24
1.8387,-7.8998,-0.70826,0.051313,-0.27947,0.21441,-3.6,49.14,-2.88
2.1656,-8.9622,-0.91256,0.1069,-0.37415,0.27214,-4.08,49.14,-2.16
2.3972,-9.7658,-1.076,0.15455,-0.41814,0.30513,-4.2,49.32,-1.74
2.4517,-10.093,-1.1713,0.17623,-0.43524,0.34422,-4.44,49.44,-1.38
2.6015,-10.025,-1.185,0.18998,-0.35888,0.4328,-4.38,49.56,-1.08
2.5742,-9.9292,-1.1713,0.19548,-0.31887,0.46914,-4.2,49.68,-1.14
2.7513,-10.202,-1.1032,0.20861,-0.29688,0.45968,-4.02,49.74,-1.14
2.7786,-10.379,-1.2531,0.21441,-0.11973,0.36774,-3.48,49.98,-0.96
2.9965,-10.91,-1.185,0.19975,0.022907,0.30971,-3.18,50.1,-0.84
3.2689,-11.918,-1.0896,0.22877,0.15699,0.28253,-2.4,50.28,-0.78
3.9635,-14.301,-0.70826,0.24954,0.32467,0.30268,-2.22,50.46,-0.84
4.127,-15.023,0.095342,0.19792,0.45662,0.32284,-1.92,50.58,-0.96
4.0589,-14.451,0.12258,0.1573,0.51374,0.32773,-1.74,50.7,-1.02
3.7592,-11.155,0.054481,0.062919,0.52626,0.10507,-0.78,51.18,-1.2
3.6094,-9.616,-0.19068,0.054062,0.40592,-0.16096,-0.48,51.18,-1.5
3.5004,-8.7306,-0.40861,0.03879,0.15485,-0.42822,-0.12,51.36,-1.56
3.5685,-9.2482,0.01362,0.06017,-0.33903,-0.68478,0.54,51.6,-1.5
3.5685,-9.2482,0.01362,0.042761,-0.33903,-0.68478,0.54,51.6,-1.5
3.1735,-9.1937,0.61292,-0.095295,-0.67867,-0.7199,0.9,51.9,-1.26
2.9148,-8.9758,0.70826,-0.093462,-0.70402,-0.65699,0.9,52.02,-1.2
2.656,-8.6625,0.89894,-0.11026,-0.45968,-0.66798,0.84,52.08,-1.14
2.9148,-7.8726,0.72188,-0.15516,-0.14386,-0.65973,0.42,52.2,-0.9
3.0918,-7.8045,0.61292,-0.11912,-0.2248,-0.55314,0.36,52.26,-0.6
3.2008,-7.5184,-0.027241,-0.034819,-0.46487,-0.46242,-0.12,52.26,-0.12
3.1872,-7.2733,-0.1362,0.0058032,-0.58429,-0.39615,-0.42,52.32,0.12
3.1872,-7.1779,-0.14982,0.034514,-0.69608,-0.34453,-0.78,52.2,0.36
2.9965,-6.9191,-0.095342,0.050396,-0.81428,-0.34514,-1.62,52.32,0.9
2.8875,-6.9328,0.1362,0.097433,-0.90378,-0.36957,-2.16,52.44,1.08
2.6151,-7.0009,0.12258,0.11301,-0.94195,-0.40867,-2.76,52.56,1.2
2.5742,-7.2733,-0.14982,0.10629,-0.89339,-0.4383,-4.08,52.86,1.14
2.547,-7.6002,-0.25879,0.1066,-0.86376,-0.5003,-4.8,53.04,1.14
2.4517,-7.8453,-0.34051,0.094379,-0.80298,-0.49419,-5.46,53.28,0.9
2.8467,-8.8668,-0.28603,0.069944,-0.80451,-0.48197,-6.78,54.0,0.3
2.942,-9.398,-0.28603,0.045509,-0.90988,-0.41417,-7.5,54.36,-0.06
3.0237,-10.447,-0.43585,-0.000916,-0.98349,-0.30971,-8.04,54.72,-0.54
3.0373,-11.822,-0.28603,-0.077274,-0.98533,-0.17959,-9.18,55.56,-1.56
2.833,-12.735,-0.027241,-0.1686,-0.84819,-0.063835,-9.72,55.74,-2.04
2.833,-13.157,0.068102,-0.3317,-0.36469,0.11332,-10.2,56.34,-2.7
2.942,-13.879,0.054481,-0.45082,0.02474,0.21747,-11.16,57.06,-3.78
3.2144,-14.056,0.12258,-0.54428,0.37538,0.29993,-11.46,57.36,-4.2
3.514,-14.478,0.39499,-0.562,0.64507,0.34636,-11.76,57.54,-4.62
3.5685,-14.192,0.6674,-0.57269,1.0186,0.4215,-12.0,58.08,-5.22
3.3915,-12.939,0.55843,-0.55192,1.1066,0.41447,-12.0,58.2,-5.52
3.3506,-11.754,0.027241,-0.54275,1.226,0.3656,-12.0,58.26,-5.4
3.0237,-7.9679,-0.78998,-0.45112,1.1622,0.16066,-12.12,58.2,-4.98
2.9965,-7.0553,-1.1986,-0.36499,0.92913,0.014355,-11.94,58.08,-4.68
3.0646,-6.7966,-1.2803,-0.28222,0.59132,-0.096211,-11.88,57.9,-4.2
2.9284,-7.1915,-0.89894,-0.26084,0.14019,-0.20006,-11.58,57.42,-3.06
2.6968,-7.0417,-0.54481,-0.27245,0.051313,-0.20372,-11.46,57.18,-2.28
2.5742,-6.96,-0.39499,-0.29138,0.0058032,-0.21258,-11.16,56.82,-1.38
2.438,-7.5729,-0.20431,-0.27978,0.23213,-0.16157,-10.38,56.04,0.18
2.3563,-7.7091,-0.14982,-0.31093,0.54184,-0.080634,-9.96,55.5,0.96
2.2474,-7.6138,-0.31327,-0.31307,0.86407,-0.016188,-9.42,55.26,1.86
2.5198,-7.2596,-0.55843,-0.27703,1.208,0.045509,-8.34,54.42,3.36
2.5742,-7.1643,-0.74912,-0.25351,1.3683,0.080329,-7.8,54.06,4.2
2.6287,-7.069,-0.69464,-0.23671,1.5354,0.12614,-7.14,53.88,4.8
3.0101,-6.96,-0.78998,-0.23121,1.744,0.17837,-5.88,53.4,5.88
3.4868,-6.8647,-0.89894,-0.18387,1.5898,0.26023,-5.46,53.22,6.36
3.7728,-6.8783,-0.99429,-0.092241,1.3598,0.34758,-4.86,53.1,6.66
4.1814,-6.96,-0.7355,0.022907,0.83444,0.53237,-3.6,52.8,7.26
4.4811,-7.2733,-0.78998,0.16524,0.10079,0.60567,-2.94,52.74,7.26
4.304,-7.5457,-0.74912,0.21411,-0.18082,0.65607,-2.4,52.74,7.26
3.7728,-8.7034,-0.70826,0.35613,-0.70005,0.77488,-1.32,52.8,7.26
3.6503,-9.3436,-0.76274,0.38271,-0.65607,0.77061,-0.84,52.98,7.08
3.623,-9.6841,-0.89894,0.35461,-0.41783,0.76114,-0.36,53.16,6.96
3.8954,-9.8884,-1.0488,0.31887,-0.13164,0.73273,0.48,53.52,6.42
4.0589,-9.8748,-1.0215,0.25351,0.012523,0.69578,0.9,53.64,6.12
4.2495,-9.9292,-1.1577,0.24068,0.07086,0.59926,1.32,53.7,5.88
4.1406,-9.9701,-1.2667,0.2022,0.13897,0.51435,2.64,53.76,5.22
4.2087,-9.9156,-1.3212,0.16738,0.16738,0.42913,3.3,53.7,4.92
4.3858,-10.529,-1.1577,0.17685,0.18326,0.354,3.96,53.76,4.62
5.0259,-13.511,-0.7355,0.20311,0.22907,0.33475,4.98,53.94,3.78
5.1213,-14.056,-0.74912,0.16554,0.16066,0.31857,5.46,53.94,3.3
5.1485,-14.043,-0.5993,0.14416,0.074526,0.3094,5.94,53.94,3.06
4.8352,-12.898,-0.027241,0.15394,-0.18692,0.19334,6.66,54.0,2.52
4.2904,-11.768,-0.12258,0.12584,-0.24435,0.029016,7.08,54.06,2.28
3.7047,-9.5615,-0.24517,0.146,-0.20097,-0.12614,8.04,54.0,1.92
3.7047,-8.7987,-0.32689,0.11026,-0.067806,-0.21808,8.4,53.88,1.68
4.0452,-8.0905,-0.29965,0.11393,-0.20617,-0.24312,8.76,53.88,1.32
4.6854,-8.2267,-0.068102,0.11393,-0.37507,-0.24496,8.76,53.88,1.2
4.6173,-8.6217,0.19068,0.10843,-0.86621,-0.25534,8.76,53.94,1.14
4.1133,-8.7306,0.6674,0.1179,-1.7758,-0.22083,8.82,53.88,1.02
3.337,-8.9349,1.0624,0.086437,-1.7327,-0.3543,8.46,53.64,1.2
3.1872,-8.7306,0.99429,0.015882,-1.4218,-0.40959,8.34,53.58,1.2
3.2144,-8.4719,0.84446,0.025045,-1.2333,-0.62644,7.98,53.4,1.38
3.1872,-8.3084,0.6674,0.028405,-1.2095,-0.69425,7.62,53.4,1.44
3.2008,-8.0632,0.61292,0.034819,-1.2089,-0.80604,7.44,53.1,1.44
3.1872,-7.8862,0.57205,0.062614,-1.2593,-0.98655,7.08,52.86,1.44
3.0918,-7.5729,0.61292,0.090713,-1.3848,-1.0751,5.7,52.62,1.32
3.0237,-7.4231,0.54481,0.1182,-1.5302,-1.1338,5.04,52.44,1.38
2.6696,-7.3005,0.46309,0.12034,-1.5922,-1.1564,3.48,52.44,1.32
2.5606,-7.5048,0.54481,0.12248,-1.5779,-1.1487,2.58,52.38,1.14
2.5742,-7.7091,0.55843,0.1127,-1.5018,-1.0745,1.68,52.44,0.84
2.4653,-7.7908,0.47671,0.091019,-1.306,-0.86285,-0.12,52.74,0.12
2.4925,-7.9407,0.43585,0.063225,-1.1671,-0.70769,-1.02,52.86,-0.48
2.5334,-8.3357,0.43585,0.057727,-1.0116,-0.53267,-1.92,53.1,-0.84
2.6287,-9.0303,0.47671,0.03146,-0.80359,-0.22999,-3.84,53.58,-1.8
2.7649,-9.3436,0.28603,0.02474,-0.6805,-0.031154,-4.62,53.7,-2.34
2.8058,-9.6977,0.28603,0.011301,-0.56047,0.16249,-5.46,54.06,-3.06
2.9692,-10.556,0.21793,0.017104,-0.43371,0.33628,-6.66,54.6,-4.02
2.9829,-11.019,0.14982,0.024129,-0.29016,0.48808,-7.2,54.66,-4.44
3.1872,-11.577,0.14982,0.036041,-0.18845,0.61514,-7.68,54.72,-4.98
3.5685,-13.334,-0.040861,0.039401,-0.1686,0.72876,-7.98,54.84,-5.94
3.6775,-13.988,0.12258,0.050702,-0.16585,0.90622,-8.04,54.78,-6.24
3.8001,-14.764,0.28603,0.053756,-0.053756,1.0159,-7.92,54.78,-6.48
3.8273,-14.301,-0.027241,0.062003,0.099571,1.1151,-7.8,54.42,-6.78
3.7456,-12.898,-0.61292,0.046426,0.21533,1.1567,-7.56,54.24,-6.72
3.6366,-11.673,-1.1441,0.076664,0.19792,1.135,-7.32,53.88,-6.84
3.4732,-9.3572,-1.8932,0.074526,0.0082467,0.96975,-6.42,53.28,-6.66
3.2553,-8.7443,-1.9477,0.046731,-0.14264,0.76511,-5.88,52.86,-6.42
3.0237,-8.2676,-1.975,0.032376,-0.22083,0.65424,-5.28,52.38,-5.94
2.9556,-8.7034,-1.8796,-0.043066,-0.34819,0.32895,-3.78,51.54,-5.4
2.8058,-8.6489,-1.8387,-0.14325,-0.32956,0.13775,-2.88,51.18,-4.92
2.4789,-8.2812,-1.471,-0.24465,-0.22174,-0.018937,-1.86,50.88,-4.44
2.2474,-7.5321,-1.1032,-0.3711,0.1069,-0.22877,0.06,49.98,-3.72
2.1656,-7.2869,-1.1169,-0.44196,0.37599,-0.33598,1.08,49.68,-3.36
2.152,-7.2188,-1.0624,-0.4612,0.49694,-0.37599,2.04,49.08,-2.88
2.4925,-7.0826,-1.0351,-0.49327,0.70066,-0.40073,4.08,48.66,-2.1
2.5606,-6.8919,-0.99429,-0.47983,0.84055,-0.35033,5.04,48.36,-1.68
2.5742,-6.7829,-0.96704,-0.44807,0.82375,-0.28314,6.0,48.12,-1.14
2.5879,-6.5241,-0.8717,-0.40623,0.74617,-0.20617,7.68,47.76,-0.42
2.6015,-6.4424,-0.85808,-0.31643,0.62033,-0.060476,8.46,47.7,-0.24
2.5606,-6.565,-0.92618,-0.26114,0.6521,0.05681,9.12,47.76,0.06
2.5742,-6.8102,-0.96704,-0.22358,0.76419,0.1463,10.2,47.46,0.6
3.0646,-7.3277,-1.0896,-0.14966,0.60781,0.25381,10.56,47.4,0.78
3.1054,-7.8181,-1.3484,-0.091019,0.39615,0.37904,10.8,47.34,1.02
2.6968,-9.1529,-1.2258,-0.07086,0.24862,0.50305,11.22,47.16,1.5
2.4517,-9.7385,-0.9398,-0.10018,0.5058,0.60079,11.52,47.16,1.68
2.4789,-9.7385,-0.8036,-0.11087,0.83383,0.60689,11.76,47.1,1.8
2.4925,-9.5615,-1.7025,-0.075442,1.1799,0.57849,12.12,46.92,2.1
2.833,-9.4389,-2.3155,-0.058032,1.3152,0.55711,12.42,46.98,2.1
3.4187,-9.616,-2.3836,-0.010385,1.16,0.56413,12.6,46.86,2.16
3.7456,-9.9973,-2.6151,0.071471,0.67623,0.55955,13.26,46.56,2.22
3.6639,-10.065,-2.7513,0.12217,0.21136,0.72937,13.68,46.38,2.34
3.5413,-10.542,-2.6696,0.15363,0.16096,0.77794,13.98,46.14,2.28
4.0044,-12.626,-2.0703,0.19517,0.16249,0.91416,14.58,45.96,2.28
4.3449,-13.484,-1.6072,0.2303,0.11087,1.0049,15.06,45.96,2.16
4.6173,-13.947,-1.471,0.25015,-0.081856,1.0605,15.54,45.84,2.1
4.9306,-13.797,-1.2531,0.28405,-0.45448,1.0821,16.62,45.6,1.86
4.8488,-13.198,-1.3212,0.31857,-0.86896,0.94592,16.98,45.42,1.8
4.1814,-11.414,-1.5663,0.32345,-1.2199,0.71471,17.52,45.24,1.74
3.2144,-8.826,-1.9341,0.3091,-1.2889,0.56597,18.78,44.82,1.2
3.0373,-7.8317,-2.0294,0.22022,-1.3522,0.10904,19.2,44.52,1.08
3.3506,-8.1722,-1.9613,0.14661,-1.4319,-0.19884,19.74,44.28,0.78
3.6503,-8.5127,-1.185,0.031765,-1.5751,-0.41539,20.52,43.8,0.24
3.4459,-8.5808,-0.81722,-0.082467,-1.6976,-0.58551,20.82,43.56,-0.24
3.1191,-9.1665,-0.25879,-0.21777,-1.6057,-0.74892,21.42,43.14,-1.14
2.7922,-9.507,-0.068102,-0.28222,-1.5018,-0.77916,21.54,43.02,-1.56
2.6151,-9.4798,-0.027241,-0.37599,-1.2104,-0.8207,21.54,42.66,-1.92
2.5742,-9.3436,0.054481,-0.47006,-0.63866,-0.87048,21.48,42.42,-2.4
2.7241,-8.3765,0.19068,-0.47647,-0.30421,-0.89644,20.88,42.12,-3.06
2.8603,-7.8998,0.14982,-0.42699,-0.056505,-0.94104,20.58,42.18,-3.42
2.9965,-7.1915,0.20431,-0.35583,-0.08094,-0.978,19.38,42.18,-4.08
3.0373,-6.9191,0.16344,-0.26389,-0.24435,-1.0006,18.78,42.12,-4.2
3.0646,-6.7285,0.23155,-0.20953,-0.35491,-1.0104,18.12,42.06,-4.38
3.0918,-6.3743,0.28603,-0.072388,-0.76847,-1.0085,17.22,42.12,-4.56
2.9965,-6.5105,0.28603,0.030238,-1.0476,-0.97922,15.6,42.42,-5.1
2.9692,-6.9328,0.28603,0.10965,-1.2776,-0.85704,14.7,42.6,-5.28
2.8467,-7.3958,0.38137,0.17257,-1.4361,-0.7984,12.9,42.78,-5.82
2.8875,-7.7636,0.39499,0.21564,-1.5128,-0.67256,12.06,42.96,-6.12
2.8194,-8.3357,0.40861,0.2584,-1.5562,-0.45845,11.16,43.14,-6.48
2.9284,-9.3436,0.32689,0.26298,-1.5348,-0.31796,9.54,43.56,-7.2
2.942,-9.9156,0.32689,0.26053,-1.4652,-0.19303,8.88,43.62,-7.44
2.9556,-10.787,0.29965,0.25107,-1.3399,-0.10079,8.22,43.62,-7.68
2.8058,-11.877,0.28603,0.21808,-1.0067,0.009163,6.9,43.8,-8.52
2.7377,-12.776,0.12258,0.20586,-0.84727,0.036652,6.54,43.98,-9.06
2.7649,-13.13,-0.027241,0.18173,-0.48381,0.079107,6.12,44.22,-9.66
2.9011,-13.852,-0.20431,0.15669,0.018021,0.074526,5.7,44.46,-10.86
3.0646,-14.152,-0.054481,0.15363,0.27733,0.10079,5.28,44.4,-11.22
3.4459,-14.71,-0.054481,0.24465,0.51985,0.22999,4.8,44.76,-11.88
3.8682,-14.261,-0.7355,0.26237,0.55375,0.29474,4.68,44.94,-12.18
3.8954,-13.171,-1.6072,0.29413,0.43341,0.42333,4.56,45.0,-12.48
3.7728,-12.272,-2.4108,0.31124,0.30788,0.44013,4.44,45.12,-12.78
3.228,-9.3299,-3.0646,0.28833,-0.20433,0.31276,4.08,45.12,-13.44
2.9692,-8.431,-3.2008,0.27092,-0.5507,0.15485,3.84,45.18,-13.92
2.7649,-8.4855,-3.3097,0.2248,-0.84269,-0.041539,3.66,45.18,-14.28
2.3291,-9.1937,-2.8194,0.067501,-1.0333,-0.28283,3.06,45.18,-14.88
2.1248,-9.1529,-2.3836,-0.025656,-1.0214,-0.33659,2.58,45.12,-14.82
1.8796,-8.9622,-2.2201,-0.22907,-0.76908,-0.47617,2.04,45.06,-14.82
1.4301,-8.4719,-1.866,-0.3769,-0.39095,-0.50946,1.02,44.82,-14.52
1.4846,-8.1586,-1.866,-0.49266,0.025656,-0.52534,0.72,44.76,-14.22
1.6208,-7.8317,-1.9613,-0.56322,0.40378,-0.51801,0.3,44.52,-14.04
2.1248,-7.1779,-2.0839,-0.5901,0.64599,-0.48197,-0.3,43.8,-13.44
2.3291,-6.7012,-2.0703,-0.57727,0.68295,-0.44349,-0.48,43.56,-12.96
2.5334,-6.4152,-2.0567,-0.54978,0.5846,-0.38973,-0.66,43.26,-12.54
2.5742,-5.7886,-1.866,-0.48625,0.27703,-0.32681,-0.96,43.02,-11.34
2.5334,-5.6661,-1.8387,-0.44899,0.050396,-0.30116,-0.96,42.78,-10.68
2.4108,-5.6661,-1.6481,-0.3937,-0.16096,-0.27794,-0.96,42.66,-10.26
2.3836,-5.884,-1.6072,-0.35125,-0.37751,-0.22266,-0.78,42.42,-9.06
2.3427,-6.3879,-1.3757,-0.30482,-0.42791,-0.1854,-0.66,42.3,-8.58
2.2882,-6.7148,-1.3757,-0.30085,-0.4218,-0.15913,-0.48,42.24,-8.22
2.3018,-7.6683,-1.1441,-0.2755,-0.34056,-0.090713,-0.06,42.36,-7.5
2.3427,-8.2812,-1.0624,-0.25137,-0.2248,-0.020464,-0.06,42.6,-7.32
2.3427,-8.8668,-1.0624,-0.22449,-0.052534,0.044593,0.18,42.72,-6.96
2.4925,-9.3163,-1.0896,-0.18143,0.2306,0.15669,0.3,43.02,-6.54
2.4108,-9.1393,-1.185,-0.15638,0.39462,0.208,0.3,43.26,-6.48
2.4517,-8.8805,-1.2258,-0.1014,0.50152,0.25443,0.42,43.5,-6.3
2.6423,-8.4446,-1.5391,-0.022907,0.52779,0.30879,0.66,43.86,-6.24
2.7513,-8.3765,-1.6344,0.055894,0.48136,0.39065,0.9,44.1,-6.18
2.7513,-8.2403,-1.9613,0.12645,0.37843,0.4893,0.96,44.28,-6.06
2.7377,-8.145,-2.0839,0.18265,0.26939,0.60751,1.32,44.7,-6.06
2.7377,-8.1995,-2.0839,0.26267,0.15699,0.78588,1.62,44.88,-6.12
2.5879,-8.431,-1.975,0.31124,0.14997,0.90225,1.92,45.06,-6.0
2.5061,-8.9622,-2.152,0.32254,0.16829,0.95509,2.82,45.24,-6.06
2.7377,-9.3572,-2.2065,0.37629,0.30391,1.1301,3.36,45.18,-6.3
3.1054,-9.8203,-2.2201,0.38973,0.41142,1.2636,3.84,45.24,-6.54
3.6639,-10.474,-2.2201,0.41966,0.45662,1.4108,5.1,45.42,-6.96
3.6911,-10.46,-2.3563,0.4499,0.41203,1.5843,5.7,45.36,-7.2
3.6775,-10.311,-2.4925,0.45998,0.39034,1.6163,6.48,45.3,-7.62
3.5413,-10.161,-2.6015,0.46762,0.35888,1.6026,8.22,45.24,-8.22
3.6503,-10.433,-2.547,0.45082,0.39248,1.5345,8.94,45.36,-8.58
3.9227,-11.223,-2.2882,0.44196,0.42425,1.4496,10.02,45.36,-8.88
4.2904,-11.741,-2.0294,0.39034,0.45082,1.3589,12.12,45.0,-9.72
4.413,-11.686,-2.0431,0.32712,0.42241,1.1826,13.02,44.82,-10.08
4.5356,-11.427,-1.9886,0.30879,0.3934,1.0934,13.86,44.82,-10.56
4.6037,-10.665,-2.0158,0.21319,0.26542,0.78588,15.54,44.58,-11.22
4.4539,-9.6704,-1.975,0.1408,0.10782,0.51374,16.44,44.52,-11.22
4.3994,-8.6353,-1.9886,0.10721,-0.10476,0.20342,17.34,44.34,-11.46
4.0589,-7.355,-1.6753,0.1066,-0.38546,-0.096822,18.84,44.16,-11.82
3.8954,-7.3414,-1.4029,0.13989,-0.87659,-0.47953,19.5,44.1,-12.0
4.3585,-8.4582,-1.2667,0.1576,-1.0565,-0.57116,19.92,44.22,-12.06
4.699,-9.1256,-1.2803,0.15577,-1.6719,-0.69669,20.58,44.22,-12.48
4.8352,-9.4117,-1.0896,0.16005,-2.1478,-0.7086,20.82,44.04,-12.72
4.8216,-9.6704,-1.0624,0.16218,-2.5815,-0.72846,20.88,44.04,-12.9
4.3858,-10.433,-0.69464,0.12828,-2.8604,-0.77091,20.46,44.34,-13.2
4.0997,-10.815,-0.47671,0.041844,-2.996,-0.89247,20.1,44.52,-13.56
3.8409,-10.964,0.027241,-0.12675,-2.9709,-1.0021,19.32,44.76,-14.1
3.6639,-10.815,0.21793,-0.2587,-2.8753,-1.1261,18.72,44.88,-14.4
3.5413,-10.651,0.21793,-0.36866,-2.7312,-1.2706,17.82,45.18,-14.88
3.1735,-10.624,0.40861,-0.47464,-2.5513,-1.4166,15.9,45.72,-15.66
3.051,-10.665,0.54481,-0.58246,-2.3427,-1.5675,14.7,45.9,-16.02
2.7649,-10.624,0.6674,-0.68814,-1.9603,-1.7272,12.18,46.44,-16.44
2.6968,-10.297,0.70826,-0.71166,-1.8137,-1.7639,10.68,46.74,-16.62
2.6015,-9.9429,0.83084,-0.72724,-1.3665,-1.835,8.88,47.16,-16.56
2.6423,-9.8203,0.68102,-0.70799,-1.1215,-1.8411,7.14,47.58,-16.5
2.9148,-9.616,0.54481,-0.67012,-0.94928,-1.7898,3.36,48.24,-16.26
3.1327,-9.4798,0.50395,-0.62461,-0.86468,-1.6887,1.5,48.66,-16.02
3.1872,-9.4117,0.47671,-0.54886,-0.8546,-1.4768,-2.52,49.02,-15.48
3.1599,-9.507,0.54481,-0.49205,-0.86193,-1.2874,-4.68,49.44,-15.12
3.1463,-9.3572,0.50395,-0.45112,-0.83169,-1.0934,-6.6,49.8,-14.88
2.9556,-9.221,0.55843,-0.40164,-0.7254,-0.92424,-8.46,50.1,-14.52
2.8058,-9.1256,0.40861,-0.31093,-0.58185,-0.76694,-12.06,50.7,-13.68
2.8058,-9.0984,0.24517,-0.2251,-0.42028,-0.62644,-13.74,50.94,-13.32
2.8058,-8.9486,-0.21793,-0.12034,-0.29535,-0.52901,-15.36,51.12,-12.9
2.833,-8.717,-0.47671,0.025656,-0.21014,-0.42089,-18.3,51.42,-12.54
2.9556,-8.6489,-0.53119,0.14569,-0.2419,-0.35339,-19.38,51.54,-12.24
3.051,-8.5263,-0.74912,0.27031,-0.3488,-0.28802,-20.46,51.54,-12.18
3.0918,-8.9349,-0.98067,0.38729,-0.52076,-0.20769,-22.32,51.78,-12.06
3.2008,-9.9837,-1.2258,0.52534,-0.71502,-0.10476,-23.22,51.78,-12.24
3.3642,-10.801,-1.5527,0.67317,-0.95814,0.16616,-24.36,52.08,-12.42
3.1599,-11.496,-1.6344,0.72907,-1.0354,0.36102,-24.84,52.02,-12.66
2.8603,-11.332,-1.7706,0.7703,-0.93187,0.53542,-25.44,52.14,-12.6
2.6696,-10.978,-1.9613,0.74556,-0.60292,0.67867,-25.98,52.26,-12.84
2.0431,-9.0712,-2.6151,0.65393,-0.18906,0.76175,-26.94,52.32,-13.2
1.9068,-7.9407,-2.9011,0.5455,0.16005,0.76847,-27.36,52.44,-13.32
1.9613,-7.1915,-3.0101,0.45571,0.35308,0.66798,-27.66,52.44,-13.62
2.5606,-7.4912,-2.8603,0.34361,0.31429,0.51679,-28.14,52.5,-13.92
2.8194,-7.8589,-2.6015,0.27306,0.13775,0.45418,-28.5,52.62,-14.22
2.8467,-8.5127,-2.2201,0.20525,0.002138,0.39981,-28.74,52.62,-14.4
2.942,-8.9349,-2.0294,0.12462,-0.036957,0.37721,-28.74,52.62,-14.46
2.8603,-9.7249,-1.8115,0.082772,0.033598,0.35949,-28.62,52.44,-14.34
2.8058,-10.12,-1.6889,0.059559,0.20097,0.34941,-28.74,52.26,-14.16
2.942,-10.215,-1.7434,0.038485,0.43768,0.34147,-28.44,52.32,-13.92
3.0101,-9.8748,-1.7025,0.0088575,0.7367,0.32376,-27.6,51.9,-13.74
3.0918,-9.3163,-1.6208,0.015882,0.78343,0.31521,-27.0,51.66,-13.44
3.2416,-8.826,-1.6344,0.068111,0.7251,0.2587,-26.34,51.6,-13.26
3.4732,-8.2267,-1.471,0.13317,0.52931,0.2248,-24.96,51.18,-13.08
3.6094,-8.0905,-1.4982,0.19487,0.2248,0.23243,-24.3,51.18,-12.9
3.732,-8.1177,-1.2939,0.28986,-0.28955,0.31704,-22.98,51.0,-12.72
3.4459,-8.4038,-1.3212,0.34697,-0.55986,0.40836,-22.02,50.82,-12.66
3.2689,-8.6762,-1.3757,0.39584,-0.66706,0.49633,-21.24,50.88,-12.48
3.2553,-8.6489,-1.5119,0.41783,-0.66584,0.57574,-20.46,50.7,-12.66
3.1327,-8.7987,-1.6753,0.44502,-0.60262,0.63347,-19.08,50.64,-13.02
3.228,-8.9077,-1.7025,0.4609,-0.53451,0.67837,-18.3,50.7,-13.32
3.337,-9.1937,-1.8251,0.46212,-0.49877,0.68386,-17.88,50.64,-13.68
3.4459,-9.1937,-1.8932,0.46853,-0.53145,0.67073,-16.92,50.7,-14.46
3.4459,-9.2074,-1.975,0.45326,-0.56841,0.63774,-16.44,50.82,-14.76
3.4187,-9.1256,-2.0839,0.41875,-0.59468,0.57696,-16.08,51.0,-14.94
3.2689,-9.1529,-2.1248,0.39767,-0.58002,0.50213,-15.72,51.06,-15.3
3.2553,-9.1256,-2.2337,0.33262,-0.53939,0.41753,-15.18,51.18,-15.78
3.2553,-9.2891,-2.2882,0.2755,-0.49358,0.30421,-14.88,51.3,-16.08
3.2825,-9.5479,-2.1248,0.19028,-0.44838,0.26512,-14.58,51.42,-16.62
3.337,-9.6704,-2.0567,0.078191,-0.34361,0.14966,-14.4,51.36,-16.86
3.2144,-9.5887,-2.1112,-0.000305,-0.22419,0.058032,-14.22,51.48,-16.86
3.1191,-9.4389,-1.9341,-0.068722,-0.086132,-0.062614,-14.28,51.84,-17.28
3.3506,-9.8748,-1.8251,-0.10293,0.03146,-0.17013,-14.22,51.96,-17.46
3.6911,-11.155,-1.6617,-0.10385,0.079107,-0.26267,-13.98,51.96,-17.58
4.2632,-12.735,-1.5119,-0.13683,0.017104,-0.25626,-14.16,52.02,-17.58
3.9499,-11.632,-1.4165,-0.1744,-0.01069,-0.24618,-14.34,52.02,-17.46
3.6639,-10.474,-1.4165,-0.20311,-0.047647,-0.30116,-14.46,51.96,-17.76
3.6094,-9.9973,-1.2803,-0.1576,-0.097128,-0.43371,-14.82,52.08,-17.76
3.6775,-9.221,-1.3212,-0.16982,-0.17807,-0.49999,-14.94,51.96,-17.76
3.6366,-8.5263,-1.1577,-0.1573,-0.35583,-0.54734,-15.24,51.78,-17.64
3.6366,-7.641,-0.96704,-0.12859,-0.59193,-0.5681,-15.84,51.48,-17.4
3.7047,-8.036,-0.69464,-0.057421,-0.98319,-0.56474,-16.26,51.36,-17.16
3.7592,-8.6081,-0.57205,-0.021686,-1.1258,-0.52595,-16.98,51.24,-16.98
4.127,-9.8066,-0.16344,0.063835,-1.566,-0.32681,-18.0,50.76,-16.5
4.2495,-9.9973,-0.19068,0.091935,-1.8857,-0.17746,-18.66,50.34,-16.2
4.2632,-10.011,-0.14982,0.12004,-2.277,0.018937,-20.16,50.1,-15.6
3.9227,-9.7658,0.28603,0.11301,-2.3952,0.073915,-20.7,49.8,-15.18
3.8682,-9.4253,0.47671,0.10782,-2.4166,0.085521,-21.3,49.56,-14.76
3.7047,-9.0575,0.57205,0.093462,-2.4267,0.064446,-22.14,49.38,-14.22
3.4187,-8.6625,0.61292,0.08094,-2.3906,-0.058032,-23.64,48.72,-13.02
3.3778,-8.8668,0.44947,0.071166,-2.3454,-0.1518,-24.24,48.42,-12.36
3.4596,-9.3027,0.23155,0.000916,-2.2403,-0.26695,-25.62,47.76,-11.1
3.5413,-9.4117,0.27241,-0.029932,-2.1451,-0.31796,-26.4,47.52,-10.32
3.5413,-9.5342,0.54481,-0.11973,-2.014,-0.39126,-27.06,47.22,-9.66
3.4732,-9.7385,0.77636,-0.14264,-1.9349,-0.41692,-27.6,46.74,-8.82
3.1327,-9.6432,0.85808,-0.19975,-1.6451,-0.50732,-28.86,46.14,-7.2
3.0646,-9.507,0.8717,-0.20586,-1.4273,-0.58826,-29.4,45.9,-6.3
3.0101,-9.2891,0.6674,-0.20036,-1.204,-0.67684,-30.3,45.0,-4.44
3.051,-9.1801,0.61292,-0.17379,-0.94012,-0.74403,-30.9,44.7,-3.6
3.1463,-8.9894,0.50395,-0.15241,-0.88178,-0.75869,-32.04,43.68,-2.1
3.2144,-9.0303,0.50395,-0.067806,-0.82864,-0.7419,-32.52,43.14,-1.26
3.3642,-9.3299,0.38137,-0.03543,-0.83047,-0.71624,-33.06,42.72,-0.48
3.2553,-10.038,0.42223,0.05681,-0.80604,-0.59865,-34.2,41.94,0.9
3.1191,-10.61,0.21793,0.13164,-0.69578,-0.46976,-34.74,41.58,1.5
3.1191,-10.815,0.081722,0.17379,-0.36652,-0.25626,-35.1,40.98,2.04
3.051,-10.733,-0.76274,0.17807,-0.24404,-0.20311,-36.12,39.84,2.94
3.2825,-10.351,-0.99429,0.20525,-0.050702,-0.12401,-36.54,39.36,3.24
3.337,-10.324,-1.4029,0.2364,0.048564,-0.083689,-36.9,38.88,3.6
3.3506,-10.161,-1.5391,0.24099,0.049175,-0.098655,-37.2,38.4,3.78
3.1463,-9.9292,-1.7979,0.23732,-0.019242,-0.13806,-38.22,37.5,3.96
3.2961,-10.869,-1.6889,0.28619,-0.15302,-0.18021,-38.7,37.02,4.02
3.2553,-11.618,-1.6344,0.23732,-0.15669,-0.1576,-39.3,36.3,3.96
3.051,-11.278,-1.9205,0.21197,-0.082467,-0.12767,-39.72,35.94,3.84
2.9148,-10.883,-2.1112,0.20067,-0.019242,-0.12004,-40.02,35.58,3.78
2.6015,-9.3027,-2.7513,0.11942,0.16554,-0.1295,-40.44,34.68,3.66
2.6832,-8.6217,-2.9692,0.0956,0.16524,-0.19578,-40.5,34.2,3.66
2.7104,-8.1313,-3.0782,0.067195,0.014661,-0.34208,-40.5,33.78,3.48
2.7104,-8.1313,-3.0782,0.030849,-0.47464,-0.45387,-40.5,33.78,3.48
2.7104,-8.1313,-3.0782,0.015882,-0.66187,-0.51588,-40.5,33.78,3.48
2.6968,-7.8998,-2.9556,-0.069944,-1.0681,-0.69975,-40.38,33.54,3.36
2.1656,-9.1393,-2.1384,-0.13195,-1.1322,-0.8039,-40.14,32.82,3.66
1.7706,-10.161,-1.8387,-0.20953,-1.0021,-0.86743,-39.9,31.68,3.96
1.5527,-10.474,-1.7434,-0.27855,-0.71349,-0.89675,-39.3,30.54,4.56
1.5119,-10.025,-1.7706,-0.34544,-0.31918,-0.90713,-38.52,29.4,5.4
1.6617,-9.616,-1.8251,-0.34056,0.17104,-0.85674,-38.22,28.8,5.76
2.1112,-8.8668,-1.8115,-0.27642,0.30421,-0.75625,-37.74,27.54,6.54
2.4108,-8.2131,-1.9341,-0.19639,0.28497,-0.63286,-37.62,26.58,7.14
2.5606,-7.7091,-2.0294,-0.1066,0.12309,-0.47892,-37.68,25.62,7.74
2.6015,-7.6002,-1.9613,0.0048869,-0.10873,-0.30757,-37.74,24.6,7.8
2.6696,-7.5729,-1.8932,0.10629,-0.36255,-0.12126,-37.92,24.0,7.74
2.438,-7.7636,-1.757,0.24435,-0.63438,0.16677,-38.16,23.46,7.62
2.3699,-7.8589,-1.7434,0.27611,-0.65485,0.26023,-38.16,23.34,7.5
2.3699,-8.1313,-1.7162,0.36163,-0.58582,0.50152,-38.22,23.04,7.44
2.3427,-8.5263,-1.7298,0.42944,-0.47189,0.63927,-38.16,22.74,7.2
2.4517,-8.431,-1.8115,0.46609,-0.35583,0.74128,-38.1,22.62,6.96
2.5198,-8.3493,-1.9205,0.55436,-0.26878,0.8714,-37.38,22.74,6.48
2.7786,-8.3765,-1.9068,0.59284,-0.27917,0.90316,-36.96,22.74,6.24
2.9148,-8.5808,-2.1656,0.65973,-0.33598,0.96883,-36.54,22.92,6.18
3.0101,-8.8668,-2.2474,0.73182,-0.48594,1.0547,-36.18,23.04,5.94
3.1054,-9.7522,-2.3427,0.77,-0.58002,1.1057,-35.28,23.4,5.82
3.1599,-10.488,-2.547,0.76205,-0.61025,1.1472,-34.68,23.52,5.64
3.228,-11.346,-2.3155,0.71868,-0.55436,1.1243,-33.42,23.94,5.4
3.2144,-12.272,-2.1248,0.69211,-0.41508,1.0473,-32.88,24.3,5.28
3.5004,-13.157,-1.8796,0.6411,-0.19639,0.93982,-32.22,24.54,5.1
3.6503,-13.797,-1.9886,0.54642,-0.030849,0.7929,-31.68,25.14,4.8
4.127,-13.934,-2.4517,0.47128,-0.036957,0.59315,-30.84,25.86,4.26
4.1951,-13.089,-2.4925,0.36255,-0.13011,0.35216,-30.3,26.04,4.02
3.9363,-10.256,-2.1929,0.26664,-0.3149,0.073609,-29.4,26.4,3.48
3.9227,-9.0575,-2.1929,0.13989,-0.69211,-0.30635,-28.98,26.58,3.06
3.8954,-8.6353,-2.0839,0.094379,-1.0773,-0.55039,-28.56,26.64,2.76
3.8409,-9.507,-1.8387,0.054062,-1.4337,-0.73579,-27.66,27.0,2.34
3.8273,-10.025,-1.58,-0.051618,-1.6952,-0.81795,-27.36,27.06,2.28
3.4459,-10.12,-1.362,-0.18967,-1.7755,-0.85735,-27.12,27.12,2.28
2.8875,-10.283,-0.65378,-0.3146,-1.6689,-0.89492,-27.0,26.94,2.16
2.8603,-10.283,-0.49033,-0.49205,-1.2721,-0.9502,-26.82,26.76,2.28
2.7377,-9.9837,-0.23155,-0.57482,-0.94257,-0.99327,-26.94,26.58,2.22
2.6696,-9.4389,0.027241,-0.60628,-0.63897,-1.0336,-26.7,26.04,2.52
2.7786,-9.0439,0.10896,-0.6295,-0.40042,-1.0516,-26.82,25.68,2.82
2.9011,-8.6353,0.1362,-0.63744,-0.2361,-1.0708,-26.94,25.5,3.18
2.9556,-7.8726,0.095342,-0.60842,-0.16616,-1.073,-27.36,25.2,3.66
2.942,-7.5593,0.17706,-0.53023,-0.20861,-1.0965,-27.66,24.84,3.84
2.9965,-7.4367,0.27241,-0.46884,-0.28772,-1.0907,-28.02,24.66,4.02
3.0237,-7.2869,0.40861,-0.39156,-0.39767,-1.0794,-28.2,24.24,4.2
2.9148,-7.2596,0.42223,-0.30055,-0.52565,-1.0379,-29.04,23.58,4.38
2.8467,-7.3277,0.47671,-0.20922,-0.61606,-0.99785,-29.46,23.46,4.44
2.7922,-7.7364,0.46309,-0.11118,-0.67226,-0.93493,-30.18,22.98,4.5
2.7649,-7.9815,0.42223,0.027184,-0.66309,-0.81886,-30.6,22.74,4.32
2.6832,-8.3357,0.31327,0.10507,-0.62369,-0.70983,-30.9,22.5,4.44
2.8058,-9.0031,0.095342,0.14172,-0.60964,-0.65515,-31.26,22.26,4.32
2.9011,-9.3163,0.01362,0.24129,-0.58399,-0.47525,-31.56,22.02,4.2
3.0101,-9.8339,-0.10896,0.28527,-0.58185,-0.34392,-31.8,21.84,4.02
2.9692,-10.447,-0.35413,0.30146,-0.59926,-0.20983,-31.98,21.54,4.02
2.9011,-10.76,-0.49033,0.34514,-0.58521,-0.054978,-32.04,21.42,3.9
2.833,-10.855,-0.61292,0.35216,-0.51404,0.03146,-31.8,21.36,4.02
2.8058,-11.605,-0.7355,0.35797,-0.45632,0.08491,-31.86,21.42,4.08
2.9556,-12.994,-0.50395,0.42211,-0.22694,0.29658,-31.68,21.48,4.26
2.9011,-14.002,-0.50395,0.44563,0.030849,0.45998,-31.68,21.42,4.2
2.8875,-14.438,-0.64016,0.46029,0.57421,0.75014,-31.44,21.66,4.14
3.0237,-13.77,-1.3757,0.43402,0.894,0.90011,-31.44,21.72,4.02
3.1872,-12.898,-1.8932,0.42516,0.9893,0.9615,-31.38,22.02,3.84
3.3234,-12.068,-2.4517,0.4273,1.004,1.0647,-31.44,22.14,3.54
3.228,-9.5887,-3.228,0.36896,0.71319,1.0821,-31.8,22.68,3.06
3.0373,-8.5944,-3.3506,0.31185,0.42883,0.98471,-31.86,22.92,2.76
2.9011,-8.1313,-3.3778,0.24801,0.12798,0.83566,-32.04,23.04,2.64
2.5061,-8.322,-2.8603,0.12981,-0.14997,0.51129,-32.46,23.7,2.7
2.152,-8.4582,-2.7377,-0.000611,-0.09163,0.32987,-32.76,23.94,2.7
1.9341,-8.3357,-2.5334,-0.13103,0.12675,0.15211,-32.7,24.24,2.64
1.7979,-8.1313,-2.1929,-0.25717,0.43463,0.029932,-32.7,24.54,3.0
2.1112,-8.1041,-2.0431,-0.34239,0.71044,-0.026878,-32.64,24.84,3.12
2.3836,-7.9134,-1.9886,-0.36896,0.90469,-0.022907,-32.52,24.9,3.48
2.3836,-7.9134,-1.9886,-0.36621,0.98807,0.029932,-32.52,24.9,3.48
2.9556,-7.246,-1.7434,-0.34422,0.93249,0.11087,-32.16,25.26,4.08
3.0237,-6.9736,-1.7025,-0.28436,0.66371,0.2584,-31.98,25.26,4.14
2.9556,-6.7148,-1.5119,-0.23335,0.44746,0.36163,-31.56,25.44,4.44
2.9284,-6.4424,-1.362,-0.16982,0.27825,0.45968,-31.08,25.44,4.8
2.833,-6.3879,-1.1986,-0.11332,0.1631,0.54306,-29.94,25.62,5.52
2.9011,-6.7148,-1.1441,-0.038485,0.086437,0.6298,-28.62,25.86,5.7
2.8058,-7.1234,-1.1441,-0.031154,0.091935,0.64507,-27.66,26.16,5.76
2.8739,-7.464,-1.1577,-0.0015272,0.10476,0.65149,-27.06,26.22,5.7
2.8603,-8.1177,-1.0624,0.019853,0.13592,0.624,-26.22,26.76,5.04
2.9011,-8.8805,-1.0351,0.03543,0.19487,0.58368,-25.32,27.18,4.5
2.9284,-9.3436,-1.1577,0.051313,0.29474,0.5452,-24.72,27.42,3.96
2.9011,-9.6432,-1.2803,0.072082,0.44074,0.51557,-24.3,27.9,3.84
3.0101,-9.7794,-1.3757,0.1292,0.64813,0.45845,-24.12,28.14,3.6
3.3506,-9.8748,-1.5391,0.18112,0.68692,0.43463,-23.88,28.62,3.3
3.5685,-9.8748,-1.7025,0.24893,0.60934,0.45051,-23.52,28.98,2.88
3.7047,-9.7658,-1.9477,0.31368,0.45143,0.47312,-22.98,29.04,2.34
3.8137,-9.793,-2.1112,0.37721,0.208,0.47189,-22.62,29.34,1.74
3.8001,-10.706,-2.0022,0.44104,-0.032987,0.46976,-22.32,29.58,1.5
3.9635,-11.836,-1.8932,0.48717,-0.21105,0.4777,-22.08,29.88,1.08
4.1542,-12.912,-2.0567,0.51343,-0.40103,0.49694,-21.54,30.18,0.66
4.5083,-13.593,-2.0431,0.53512,-0.59498,0.49297,-21.42,30.24,0.48
4.8488,-15.105,-2.0022,0.52901,-0.80726,0.48197,-20.82,30.6,0.3
4.6037,-14.424,-2.0839,0.4777,-1.0263,0.39676,-20.46,31.02,-0.12
4.127,-12.694,-2.2065,0.41325,-1.2373,0.20311,-20.46,31.32,-0.12
3.8818,-11.741,-2.0294,0.34392,-1.4346,-0.039095,-20.22,31.44,-0.12
3.5685,-9.4389,-2.0158,0.26389,-1.6658,-0.30452,-19.92,31.62,0.06
3.3234,-8.322,-1.866,0.15669,-2.0107,-0.65699,-19.68,31.92,0.06
3.3097,-8.2948,-1.7025,0.080329,-2.197,-0.8323,-19.5,32.1,0.06
3.1599,-8.431,-1.3484,-0.028405,-2.3445,-0.92913,-19.38,32.46,0.54
2.9965,-8.6489,-1.0215,-0.13225,-2.3845,-0.94348,-19.26,32.46,1.14
2.6696,-8.7306,-0.77636,-0.24801,-2.3091,-0.91752,-19.38,32.46,1.92
2.4108,-8.54,-0.58567,-0.4386,-1.9667,-0.78802,-19.74,32.4,2.76
2.2882,-8.3765,-0.44947,-0.50305,-1.7959,-0.74403,-19.86,32.52,3.3
2.1248,-8.0769,-0.21793,-0.68356,-1.1777,-0.63347,-20.28,32.58,4.44
2.1656,-7.8045,-0.040861,-0.78099,-0.74892,-0.59712,-20.82,32.46,5.76
2.2882,-7.6546,0.19068,-0.83322,-0.37202,-0.57513,-21.12,32.28,6.48
2.4517,-7.4912,0.39499,-0.84513,-0.081551,-0.55833,-21.96,32.04,7.98
2.6287,-7.4095,0.38137,-0.81337,0.093157,-0.5565,-22.68,31.74,9.12
2.8058,-7.4231,0.36775,-0.7199,0.19639,-0.55039,-23.4,31.8,10.02
2.942,-7.5048,0.35413,-0.63163,0.16432,-0.55436,-23.82,31.62,10.38
2.9965,-7.6546,0.40861,-0.53695,0.080634,-0.55192,-24.48,31.5,10.92
3.1599,-8.1313,0.47671,-0.41356,-0.058338,-0.55344,-25.02,31.26,11.34
3.228,-8.5127,0.39499,-0.28741,-0.24496,-0.52718,-25.5,31.08,11.58
3.2416,-8.717,0.46309,-0.089492,-0.55405,-0.46365,-25.8,30.9,11.76
3.2825,-9.4389,0.35413,-0.03146,-0.6521,-0.43433,-26.4,30.78,11.88
3.1054,-9.8611,0.23155,0.098655,-0.86987,-0.34972,-26.58,30.78,11.82
3.0646,-10.161,0.14982,0.14661,-0.92821,-0.30238,-26.76,30.84,11.82
2.9692,-10.569,-0.027241,0.16585,-0.93401,-0.24954,-26.82,30.78,11.82
2.9148,-11.141,-0.24517,0.1689,-0.91202,-0.20983,-26.76,30.66,11.88
2.7241,-11.223,-0.46309,0.16554,-0.82803,-0.17379,-26.64,30.66,12.06
2.7104,-11.25,-0.62654,0.096211,-0.63286,-0.13653,-26.7,30.6,12.24
2.6015,-12.313,-0.54481,0.1127,-0.4441,-0.086437,-26.64,30.54,12.42
2.6015,-13.266,-0.19068,0.11637,-0.11942,0.0045815,-26.46,30.6,12.54
2.5879,-13.607,-0.65378,0.1069,0.30788,0.12828,-26.16,30.6,12.66
2.6968,-13.375,-0.88532,0.081856,0.72876,0.27764,-26.1,30.66,12.78
2.8739,-11.918,-1.8932,0.063225,1.0293,0.40623,-25.98,30.6,12.78
2.9965,-10.719,-2.3836,0.09896,1.1249,0.49602,-26.04,30.48,12.9
2.9011,-10.038,-2.656,0.061087,0.94745,0.48075,-26.1,30.48,13.02
2.6423,-8.2676,-2.9965,0.036957,0.71319,0.38637,-26.16,30.48,13.2
2.4517,-7.8589,-2.9011,0.040317,0.45112,0.23549,-26.28,30.3,13.14
2.2474,-8.2131,-2.6423,0.020159,0.25045,0.082772,-26.34,30.48,13.38
2.152,-8.3493,-2.5742,-0.020464,0.12889,-0.048258,-26.34,30.42,13.44
1.9613,-8.4446,-2.2746,-0.075136,0.12828,-0.12828,-26.28,30.54,13.74
1.8251,-8.4855,-2.2746,-0.14844,0.34819,-0.13653,-26.04,30.6,14.04
1.8115,-8.3901,-2.2337,-0.18112,0.59804,-0.086437,-25.8,30.6,14.46
1.9205,-8.0224,-2.2337,-0.18448,0.82314,-0.018937,-25.56,30.66,14.58
2.1929,-7.7091,-2.2065,-0.14539,0.95295,0.060476,-24.78,30.6,14.88
2.547,-7.5048,-2.1384,-0.09499,0.98655,0.17868,-24.24,30.66,15.18
2.7513,-7.1507,-2.0839,-0.011606,0.88301,0.28711,-23.4,30.66,15.42
2.833,-6.8647,-2.0158,0.11209,0.58307,0.48533,-23.04,30.72,15.24
3.0646,-6.674,-1.8387,0.20953,0.30024,0.6014,-22.14,30.72,15.18
2.9829,-6.5241,-1.8387,0.2923,0.032376,0.70005,-21.72,30.66,15.06
2.9556,-6.4152,-1.6481,0.37904,-0.20739,0.76938,-21.18,30.9,14.64
2.833,-6.7012,-1.5255,0.44166,-0.37263,0.80298,-20.4,31.14,14.04
2.7922,-6.8783,-1.5527,0.48778,-0.48808,0.81581,-20.04,31.26,13.68
2.7513,-7.3822,-1.4438,0.50244,-0.51649,0.78802,-19.44,31.5,13.14
2.7241,-8.2812,-1.3484,0.50427,-0.43249,0.77397,-19.08,32.16,12.54
2.8058,-9.1256,-1.4846,0.489,-0.31062,0.7645,-18.3,32.76,11.94
2.9011,-9.4661,-1.6072,0.47525,-0.17959,0.74067,-18.0,33.06,11.52
2.9692,-10.188,-1.8932,0.43707,-0.054978,0.70341,-17.46,33.6,11.16
3.0646,-10.447,-1.9886,0.39248,0.042455,0.63347,-17.16,34.02,10.86
3.1463,-10.474,-1.9341,0.35216,0.11576,0.48381,-16.44,34.74,10.5
3.1872,-10.556,-2.0294,0.31887,0.12523,0.37996,-15.84,35.22,10.08
3.2144,-10.542,-2.0567,0.29688,0.061392,0.26237,-15.36,35.7,9.96
3.3642,-11.509,-2.0431,0.30055,-0.031154,0.1573,-14.7,36.0,9.78
3.909,-14.043,-1.9068,0.28253,-0.10507,0.08827,-14.16,36.48,9.48
4.0997,-14.737,-1.8932,0.21044,-0.11301,0.051313,-13.56,36.66,9.0
3.8546,-14.369,-1.7843,0.07025,-0.082161,0.0048869,-13.44,36.9,8.94
3.3778,-12.967,-1.5119,-0.024129,-0.0042761,-0.13622,-12.66,37.02,8.76
3.0782,-11.972,-1.6072,-0.092852,0.11026,-0.34239,-12.6,37.08,8.7
3.0646,-10.433,-1.757,-0.15088,0.22388,-0.52168,-12.3,37.26,8.64
3.3234,-8.7987,-1.9341,-0.20067,0.19364,-0.68967,-12.42,37.08,8.52
3.5004,-8.7034,-1.8251,-0.18723,-0.054367,-0.84208,-12.6,37.08,8.46
3.8137,-9.2618,-1.4165,-0.17562,-0.41722,-0.91905,-13.02,37.08,8.4
3.6366,-9.4117,-1.2531,-0.21105,-0.96883,-0.92088,-13.26,36.78,8.4
3.1599,-9.5887,-0.88532,-0.22205,-1.2303,-0.93065,-13.38,36.54,8.82
3.0782,-9.5751,-0.8717,-0.24954,-1.3408,-0.91874,-13.62,36.48,9.06
2.7377,-9.4117,-0.72188,-0.28711,-1.3024,-0.88545,-14.34,36.18,9.48
2.6015,-8.8941,-0.8036,-0.32284,-1.1774,-0.85185,-15.12,36.12,9.84
2.656,-8.6081,-0.70826,-0.36072,-1.007,-0.78557,-15.96,35.64,10.26
2.6423,-8.3765,-0.46309,-0.38362,-0.92729,-0.73548,-16.38,35.58,10.5
2.656,-8.0632,-0.38137,-0.39187,-0.87323,-0.68417,-17.1,35.34,11.28
2.4517,-7.7227,-0.31327,-0.39248,-0.82864,-0.62461,-17.76,35.04,11.82
2.4517,-7.6002,-0.25879,-0.38851,-0.76938,-0.56627,-18.24,35.22,12.18
2.3563,-7.3277,-0.24517,-0.38485,-0.70463,-0.52107,-19.26,35.22,12.6
2.3427,-7.1915,-0.14982,-0.35675,-0.54856,-0.46731,-20.52,35.22,12.78
2.261,-7.2188,-0.14982,-0.32895,-0.44868,-0.42974,-21.12,35.04,12.9
2.3291,-7.2596,-0.19068,-0.28405,-0.35308,-0.37354,-22.02,35.04,12.72
2.4789,-7.7364,-0.29965,-0.23518,-0.29871,-0.30299,-22.86,35.1,12.96
2.6423,-8.9213,-0.34051,-0.20372,-0.27519,-0.19517,-23.64,35.22,12.72
2.7377,-9.3163,-0.31327,-0.19181,-0.2529,-0.089797,-23.94,35.22,12.54
2.6423,-10.079,-0.28603,-0.20861,-0.18906,0.020769,-24.42,35.46,12.18
2.4925,-10.597,-0.28603,-0.24679,0.056505,0.15272,-24.72,35.58,11.7
2.4653,-10.828,-0.28603,-0.24862,0.30635,0.22327,-24.96,35.7,11.64
2.547,-11.346,-0.095342,-0.24374,0.5623,0.28253,-24.96,35.58,11.04
2.8603,-11.986,-0.24517,-0.2248,0.75564,0.33384,-24.96,35.7,10.86
3.2416,-13.198,-0.17706,-0.15882,0.85155,0.40775,-25.02,35.82,10.86
3.3234,-13.675,-0.24517,-0.10537,0.94073,0.53206,-25.02,35.88,10.56
3.3778,-13.334,-0.65378,-0.076969,1.0599,0.72601,-24.84,35.64,10.38
3.4051,-12.381,-1.1305,-0.055894,1.0745,0.79443,-24.84,35.76,10.38
3.337,-11.237,-1.4301,-0.020159,1.0055,0.77977,-24.84,35.82,10.44
2.9556,-9.0848,-2.0703,-0.0018326,0.8717,0.68661,-24.96,35.58,10.38
2.833,-7.9679,-2.4244,0.024129,0.67806,0.52626,-24.84,35.58,10.44
2.4789,-7.4367,-2.8058,0.050091,0.41508,0.32315,-24.6,35.22,10.8
2.4789,-7.7364,-2.656,0.043982,0.17196,0.12889,-24.48,35.1,10.92
2.2882,-7.9815,-2.5879,-0.036957,-0.0073304,-0.062003,-24.24,34.98,11.28
1.9886,-8.036,-2.0431,-0.10263,0.05681,-0.12217,-23.64,34.74,11.52
1.8932,-8.0088,-1.9341,-0.15455,0.2584,-0.11515,-23.34,34.74,11.52
1.7298,-7.6819,-2.0158,-0.23671,0.77488,-0.016188,-22.62,34.38,11.94
1.757,-7.2869,-2.1384,-0.23732,1.1075,0.063835,-22.2,34.2,11.94
1.8932,-7.1643,-2.2201,-0.23702,1.2443,0.1127,-21.84,34.26,12.18
2.547,-6.9191,-2.3427,-0.17226,1.4481,0.2865,-20.94,34.02,12.3
2.8467,-6.7693,-2.2882,-0.07758,1.3473,0.39431,-20.58,34.02,12.48
3.0782,-6.7285,-2.2474,0.026573,1.0739,0.52962,-20.28,34.14,12.48
3.4868,-7.1234,-2.4517,0.10934,0.45693,0.72968,-19.62,34.38,12.12
3.4187,-7.2596,-2.4108,0.22602,0.044899,0.85491,-19.26,34.44,11.7
3.1463,-7.4776,-2.3291,0.27214,-0.21808,0.96395,-19.02,34.62,11.4
2.9829,-7.9679,-2.1384,0.30574,-0.31093,1.0421,-18.42,34.86,10.8
2.9556,-8.7579,-2.0431,0.32101,-0.27672,1.1038,-18.3,35.1,10.44
2.9965,-9.1529,-2.1929,0.32865,-0.18082,1.1209,-17.94,35.34,10.02
2.9011,-9.3436,-2.261,0.27122,-0.016188,1.1069,-17.58,35.7,9.6
2.8875,-9.5887,-2.1656,0.20647,0.23213,0.96486,-16.98,36.36,8.7
3.0237,-9.5751,-2.1248,0.17196,0.32773,0.82986,-16.62,36.6,8.22
3.1599,-9.5206,-2.152,0.15211,0.33445,0.67776,-16.26,36.84,7.8
3.3506,-9.4117,-2.2065,0.1408,0.26053,0.53359,-15.48,37.44,6.84
3.514,-9.4525,-2.3291,0.15699,0.10232,0.39126,-15.0,37.68,6.54
3.6366,-9.8066,-2.2201,0.15913,-0.050091,0.32498,-14.22,38.1,6.0
3.6503,-10.106,-2.2201,0.17715,-0.22633,0.23457,-13.86,38.52,5.76
3.6503,-10.828,-2.1656,0.18082,-0.27978,0.1912,-13.38,38.64,5.52
3.9635,-13.157,-2.0294,0.19456,-0.28497,0.18631,-12.78,39.12,5.1
4.2495,-14.342,-2.0294,0.14966,-0.28161,0.19334,-12.24,39.36,5.04
4.3858,-14.642,-1.9341,0.10232,-0.32254,0.14142,-12.0,39.42,4.8
4.0316,-13.797,-1.5119,0.057727,-0.36377,0.0079412,-11.58,39.6,4.44
3.5958,-12.721,-1.4438,-0.036041,-0.25168,-0.37568,-11.4,39.66,4.38
3.2144,-10.542,-1.6617,-0.06353,-0.20983,-0.51649,-11.28,39.72,4.38
3.1872,-9.1801,-2.1248,-0.098349,-0.34636,-0.94806,-11.04,40.02,4.26
3.2144,-8.1722,-2.152,-0.0956,-0.58704,-1.1634,-11.16,39.96,4.38
3.4459,-8.3084,-2.1929,-0.11759,-0.87934,-1.3005,-11.16,39.78,4.26
3.8273,-9.4525,-1.6617,-0.16616,-1.2562,-1.3851,-11.46,39.54,4.32
3.6503,-9.5615,-1.4438,-0.2248,-1.7138,-1.3961,-11.64,39.3,4.5
3.3506,-9.8066,-1.2258,-0.30329,-1.792,-1.3818,-11.94,39.24,4.62
2.5742,-9.8339,-0.8036,-0.46029,-1.7129,-1.3375,-12.78,38.64,4.98
2.3018,-9.7385,-0.6674,-0.57635,-1.4181,-1.2941,-13.44,38.28,5.16
2.0975,-9.7385,-0.65378,-0.69486,-0.98533,-1.2611,-14.22,38.04,5.58
2.0567,-9.2482,-0.44947,-0.7813,-0.48686,-1.2379,-15.84,37.44,6.24
2.0839,-8.9894,-0.28603,-0.84788,-0.035736,-1.2162,-16.68,37.14,6.48
2.2201,-8.1995,-0.19068,-0.87415,0.4554,-1.2135,-18.78,36.36,6.9
2.2201,-7.6955,-0.21793,-0.8604,0.65301,-1.2379,-19.86,36.06,7.14
2.2882,-7.5729,-0.21793,-0.8152,0.74984,-1.2715,-20.88,35.82,7.02
2.3972,-6.8783,-0.21793,-0.72021,0.71777,-1.3179,-23.1,35.28,7.02
2.4108,-6.851,-0.38137,-0.61056,0.5736,-1.3693,-24.36,35.04,6.66
2.4108,-6.8783,-0.43585,-0.4441,0.25137,-1.3586,-26.58,34.32,6.12
2.5742,-7.355,-0.43585,-0.33445,0.0281,-1.284,-27.66,34.2,5.64
2.4789,-7.7091,-0.25879,-0.22877,-0.16157,-1.1041,-28.62,33.96,5.22
2.5606,-8.1177,-0.34051,-0.13928,-0.28283,-0.8094,-29.52,33.78,4.8
2.4789,-8.6353,-0.28603,-0.061392,-0.33048,-0.4499,-30.9,33.12,3.78
2.4653,-8.9077,-0.43585,0.000305,-0.29688,0.16982,-31.62,32.88,3.3
2.5742,-9.1256,-0.40861,0.092852,-0.074526,0.60384,-32.22,32.7,2.88
2.6832,-9.2618,-0.54481,0.14416,0.10232,0.97402,-32.7,32.4,2.34
2.8058,-9.8339,-0.25879,0.17959,0.17623,1.1374,-33.18,32.1,1.44
3.2008,-10.733,-0.29965,0.32559,0.35216,1.5415,-33.42,31.92,1.08
4.1542,-12.749,-0.10896,0.44013,0.45021,1.8268,-33.6,31.74,0.72
4.8625,-14.655,-0.29965,0.56383,0.52534,2.1011,-33.24,31.8,0.42
5.2302,-15.187,-0.83084,0.72296,0.57757,2.4093,-32.82,31.74,0.48
5.5571,-14.669,-1.6072,0.72724,0.56566,2.4584,-32.52,31.86,0.6
5.3937,-13.484,-2.2201,0.71288,0.29474,2.3234,-32.1,32.04,0.78
4.9714,-11.727,-2.6423,0.6802,0.060476,2.0259,-31.02,32.52,0.84
4.1542,-9.8611,-2.7649,0.58154,-0.027184,1.6173,-29.64,33.06,1.2
3.5685,-8.6489,-2.6015,0.51191,-0.0082467,1.1338,-27.9,33.66,1.74
3.2689,-8.4582,-2.5061,0.41844,0.084605,0.67226,-26.16,33.96,2.4
3.1191,-8.5808,-2.4108,0.31704,0.20739,0.31093,-24.24,34.56,2.64
2.9284,-8.2539,-2.3836,0.10812,0.52321,-0.013134,-22.44,34.74,2.88
2.7377,-7.7636,-2.3427,-0.0079412,0.76877,-0.10599,-20.58,35.1,3.24
2.6832,-7.4776,-2.1793,-0.12462,0.99938,-0.13073,-18.96,35.34,3.18
2.7241,-7.355,-2.0839,-0.19761,1.1945,-0.10629,-18.18,35.46,3.12
2.7786,-6.8374,-2.0158,-0.23182,1.3222,-0.059559,-16.98,35.7,2.88
2.9556,-6.5378,-2.0294,-0.24435,1.3619,-0.010996,-16.2,35.64,2.34
3.0918,-6.4833,-1.8115,-0.21044,1.2394,0.066584,-16.02,35.64,1.62
3.1463,-6.6059,-1.7706,-0.16218,1.091,0.12828,-15.66,35.52,0.96
3.2416,-6.8647,-1.7706,-0.11362,0.90255,0.19212,-15.66,35.52,0.66
3.4187,-7.2869,-1.7979,-0.067806,0.69761,0.25015,-15.66,35.76,0.12
3.1872,-7.6546,-1.866,-0.019853,0.48381,0.281,-15.48,35.94,-0.6
3.0782,-7.7908,-1.7706,0.0097738,0.37141,0.29322,-15.48,35.94,-0.96
3.0101,-8.0224,-1.6753,0.044593,0.31918,0.26909,-15.42,35.94,-1.5
3.0237,-8.3629,-1.757,0.09163,0.24893,0.22327,-15.48,35.94,-1.86
3.0101,-8.6762,-1.9341,0.13256,0.19975,0.20678,-15.36,36.18,-2.04
3.0918,-9.3436,-2.1929,0.14539,0.17074,0.18601,-15.24,36.48,-2.4
3.0918,-9.9701,-2.3836,0.14355,0.11209,0.1799,-15.0,36.54,-2.58
2.9965,-9.9701,-2.3427,0.10934,0.068111,0.197,-14.7,36.6,-2.88
3.0646,-9.8748,-2.2746,0.032987,0.041233,0.24038,-14.52,36.54,-3.12
3.0101,-10.052,-1.975,0.021075,-0.061697,0.14386,-14.34,36.48,-3.42
2.7786,-10.27,-1.8796,-0.030849,0.036041,0.097433,-14.22,36.48,-3.6
3.1191,-12.503,-1.757,-0.012523,0.21472,0.047342,-13.98,36.48,-3.72
3.4868,-13.661,-1.6889,0.027489,0.34544,0.04215,-13.8,36.42,-3.78
3.9908,-14.397,-1.7706,-0.0073304,0.31093,0.062003,-13.62,36.42,-4.08
4.127,-13.321,-1.9341,-0.084299,0.1518,0.15882,-13.26,36.48,-4.14
3.8682,-11.959,-1.8251,-0.076053,-0.13164,0.12065,-12.96,36.54,-4.62
3.5685,-11.182,-1.7706,-0.10049,-0.21228,-0.01741,-12.9,36.66,-4.86
3.1327,-9.3844,-1.7706,-0.12523,-0.35247,-0.21716,-12.78,36.84,-4.8
3.1463,-8.9486,-1.7706,-0.11942,-0.57238,-0.42852,-12.54,37.02,-4.86
3.4596,-9.6432,-1.6344,-0.12828,-0.82375,-0.57757,-12.3,36.96,-4.86
3.3642,-9.7522,-1.5255,-0.19303,-1.0617,-0.66065,-12.24,37.08,-4.86
2.942,-9.6977,-1.185,-0.30452,-1.1344,-0.70952,-12.48,37.14,-4.8
2.5334,-9.6704,-0.83084,-0.40409,-0.97464,-0.72846,-12.78,37.08,-4.68
2.4108,-9.4389,-0.72188,-0.49205,-0.72388,-0.75411,-12.9,37.14,-4.62
2.3155,-8.7987,-0.64016,-0.54062,-0.45112,-0.77061,-13.56,36.9,-4.14
2.4244,-8.2267,-0.57205,-0.56016,-0.21655,-0.77122,-14.28,36.9,-3.54
2.6015,-7.7772,-0.36775,-0.54978,-0.067195,-0.75808,-15.24,36.84,-3.3
2.6968,-7.3958,-0.40861,-0.51862,-0.0094684,-0.7141,-15.72,36.66,-3.0
2.7786,-7.2869,-0.44947,-0.47556,-0.073304,-0.62827,-16.8,36.6,-2.58
2.7513,-7.2052,-0.28603,-0.44349,-0.16799,-0.59437,-18.18,36.6,-2.46
2.5061,-6.8647,-0.14982,-0.4163,-0.24862,-0.57208,-19.32,36.6,-2.22
2.4925,-6.7557,-0.14982,-0.37904,-0.29108,-0.55619,-19.62,36.72,-2.16
2.4244,-6.7693,0.10896,-0.33262,-0.2926,-0.53267,-20.94,36.9,-2.22
2.4108,-7.1915,0.054481,-0.22938,-0.25595,-0.47098,-21.9,37.2,-2.52
2.4925,-7.6002,0.027241,-0.16921,-0.22724,-0.40195,-22.44,37.2,-2.52
2.4517,-8.2539,-0.027241,-0.11454,-0.18418,-0.31276,-23.4,37.68,-2.82
2.5606,-8.9622,-0.040861,-0.067195,-0.11179,-0.19548,-24.12,38.22,-3.18
2.5879,-9.2482,-0.040861,-0.022297,-0.018631,-0.059559,-24.36,38.34,-3.36
2.7377,-9.9837,0.040861,0.019242,0.058338,0.08491,-25.08,38.94,-3.72
2.6832,-10.637,0.068102,0.042455,0.11942,0.2361,-25.62,39.24,-4.08
2.8194,-11.21,-0.027241,0.14722,0.28191,0.45509,-25.68,39.66,-4.5
2.9556,-11.673,-0.14982,0.21991,0.41936,0.5736,-25.68,39.96,-4.62
3.3778,-12.708,-0.44947,0.24832,0.51588,0.71166,-25.68,40.38,-4.98
3.8001,-13.743,-0.24517,0.2813,0.55833,0.83811,-25.5,40.8,-5.52
3.8682,-14.451,-0.20431,0.34697,0.62705,0.97128,-25.02,40.8,-5.82
3.9635,-14.192,-0.88532,0.38149,0.73854,1.1515,-24.54,40.92,-6.24
4.0316,-13.416,-1.7025,0.34239,0.66218,1.1933,-24.36,41.16,-6.36
4.0861,-11.101,-2.6423,0.3146,0.37477,1.095,-23.88,40.98,-6.6
3.5004,-8.9758,-2.7377,0.30024,0.058032,0.89186,-23.22,41.04,-6.72
3.1872,-8.5672,-2.6832,0.25259,-0.18173,0.62064,-22.92,41.1,-6.6
2.4925,-8.6762,-2.3018,0.23274,-0.31062,0.31887,-22.2,40.86,-6.48
2.3427,-9.2618,-2.1112,0.16127,-0.31093,0.059254,-21.42,40.56,-6.12
1.9886,-9.1529,-1.8932,0.054978,-0.16066,-0.19578,-20.94,40.44,-5.7
1.866,-8.8941,-1.9068,-0.054062,0.053451,-0.28619,-20.34,40.08,-5.58
1.975,-8.5808,-1.8387,-0.12889,0.32315,-0.31704,-19.86,40.02,-5.16
2.0431,-7.8181,-2.0567,-0.18234,0.58551,-0.27764,-19.14,39.78,-4.74
2.2065,-7.3686,-2.1929,-0.1909,0.79229,-0.21289,-18.48,39.48,-4.44
2.3291,-7.069,-2.2201,-0.19212,0.89828,-0.11973,-18.0,39.48,-4.38
2.6423,-6.5105,-2.1929,-0.13439,0.86163,0.039095,-17.16,39.36,-4.08
2.6423,-6.5105,-2.1929,-0.13439,0.86163,0.039095,-17.16,39.36,-4.08
2.8603,-5.8295,-2.1656,-0.029016,0.41417,0.26176,-16.32,39.12,-4.26
2.9829,-6.1428,-1.9613,0.048869,0.12859,0.3488,-15.96,39.18,-4.5
2.9011,-6.6059,-1.9068,0.11057,-0.13958,0.43035,-15.6,39.42,-4.8
2.8603,-6.7693,-1.7843,0.15699,-0.35247,0.49938,-15.48,39.6,-4.86
2.8603,-7.355,-1.7298,0.18998,-0.49816,0.54398,-15.18,39.72,-5.34
2.7922,-7.9951,-1.6072,0.25107,-0.64141,0.56963,-14.94,39.84,-5.7
2.8058,-8.4446,-1.6344,0.27611,-0.71257,0.57635,-14.7,39.9,-5.88
2.8603,-9.2074,-1.8796,0.29871,-0.74892,0.59223,-14.34,40.02,-6.12
2.9965,-9.9429,-1.9613,0.29169,-0.75869,0.58887,-14.04,40.38,-6.48
3.0237,-10.46,-2.0431,0.26328,-0.74495,0.5901,-13.8,40.8,-6.84
2.942,-10.787,-2.0294,0.20495,-0.69303,0.56413,-13.44,40.92,-6.78
2.833,-10.815,-1.9341,0.11118,-0.4777,0.49816,-12.96,41.4,-6.9
2.6968,-10.733,-1.8796,0.030238,-0.27,0.41386,-12.42,41.76,-7.08
2.656,-10.474,-1.8796,-0.039401,-0.048869,0.2978,-12.06,42.24,-7.02
2.833,-11.441,-1.6889,-0.072388,0.14142,0.1628,-11.52,42.48,-7.2
3.1735,-12.34,-1.6072,-0.08094,0.25045,0.044288,-11.28,42.72,-7.2
3.732,-14.138,-1.5391,-0.11209,0.33109,-0.027794,-11.16,43.02,-7.2
4.0589,-14.764,-1.58,-0.16738,0.31276,-0.091324,-10.92,43.08,-7.14
4.0316,-14.097,-1.6617,-0.22724,0.22449,-0.14172,-10.8,43.14,-6.96
3.6366,-12.217,-1.4438,-0.24129,0.13531,-0.30879,-10.74,43.44,-6.96
3.1191,-9.9156,-1.4982,-0.21686,0.043066,-0.51954,-10.68,43.68,-6.84
2.9829,-8.3765,-1.7706,-0.21533,-0.11118,-0.72815,-11.16,43.74,-6.48
3.0101,-7.927,-1.7706,-0.16616,-0.39615,-0.92607,-11.28,43.62,-6.3
3.337,-8.322,-1.5936,-0.087048,-0.96395,-1.0718,-11.88,43.74,-5.94
3.337,-8.9486,-1.185,-0.098655,-1.2917,-1.0641,-12.72,43.74,-5.46
3.1872,-9.0848,-0.95342,-0.13378,-1.4829,-1.0091,-13.2,43.74,-5.04
2.9148,-9.3844,-0.7355,-0.17379,-1.5085,-0.91477,-14.28,43.56,-4.32
2.3155,-9.3027,-0.35413,-0.23579,-1.3781,-0.80573,-15.66,43.44,-3.66
2.2201,-9.0848,-0.34051,-0.28497,-1.1484,-0.71685,-16.44,43.26,-3.3
2.2882,-8.6081,-0.23155,-0.30268,-0.73182,-0.61117,-18.24,43.02,-2.46
2.3155,-8.4038,-0.24517,-0.27978,-0.49938,-0.54611,-19.2,42.84,-2.1
2.5742,-7.9679,-0.19068,-0.25015,-0.35216,-0.48961,-20.64,42.48,-1.32
2.6423,-7.6683,-0.25879,-0.20372,-0.30055,-0.44502,-21.48,42.42,-0.84
2.7377,-7.3822,-0.12258,-0.15058,-0.33628,-0.41753,-22.38,42.42,-0.48
2.7377,-7.069,-0.28603,-0.098349,-0.44838,-0.40623,-24.0,42.18,0.3
2.6696,-6.8647,-0.14982,-0.041844,-0.59223,-0.40592,-24.72,42.24,0.6
2.6696,-6.8919,-0.24517,0.042761,-0.81367,-0.40592,-25.44,42.12,0.66
