Ax,Ay,Az,Gx,Gy,Gz,Mx,My,Mz
4.3721,-10.556,0.9398,0.71716,-0.97494,1.1997,3.66,51.9,-9.3
3.4459,-8.7306,0.36775,0.65607,-0.88759,0.65943,4.56,51.72,-9.6
2.547,-8.3765,0.01362,0.41753,-0.72632,0.1689,4.92,51.42,-9.84
1.7025,-7.8589,0.054481,-0.081245,-0.46517,-0.34117,5.7,50.76,-10.32
-0.83084,-7.8317,0.65378,-0.49969,-0.11637,-0.54611,6.0,50.46,-10.32
-1.7706,-8.0632,1.0896,-0.87506,0.45173,-0.65576,6.24,50.28,-10.44
-2.0975,-8.4174,1.3076,-1.0907,1.08,-0.61636,6.24,49.98,-10.5
-1.6072,-8.826,1.7025,-1.0934,1.5901,-0.45998,6.3,49.62,-10.26
-0.85808,-8.5808,1.58,-0.96364,1.843,-0.24648,6.3,49.5,-10.08
-0.14982,-8.431,1.2258,-0.73701,1.8216,-0.097433,6.3,49.26,-9.84
0.72188,-8.2539,0.28603,-0.55864,1.5498,-0.057727,6.24,48.96,-9.3
0.89894,-8.4174,0.095342,-0.59193,1.3894,-0.077885,6.18,48.78,-8.94
1.1305,-8.7851,0.095342,-0.61239,1.3201,-0.097738,6.06,48.66,-8.52
1.1305,-8.322,-0.12258,-0.58918,1.1096,-0.12401,5.94,48.72,-7.44
1.1577,-7.9543,-0.081722,-0.44043,0.99113,-0.10079,5.94,48.78,-6.84
0.96704,-7.4503,-0.31327,-0.19975,0.83414,-0.013439,5.82,48.9,-6.12
1.1986,-7.1507,-0.65378,-0.11515,0.72876,0.058338,5.7,48.96,-5.34
1.1986,-7.1507,-0.65378,-0.076664,0.61575,0.10354,5.7,48.96,-5.34
1.3757,-7.1507,-0.91256,-0.081551,0.5678,0.11881,5.7,49.02,-4.8
1.3757,-7.1507,-0.91256,-0.13653,0.52534,0.16493,5.7,49.02,-4.8
1.471,-7.355,-1.2258,-0.15455,0.52198,0.2135,6.12,48.9,-3.54
2.0294,-7.6955,-1.185,-0.15791,0.49602,0.28711,6.42,48.9,-3.12
2.547,-7.9815,-1.1986,-0.12553,0.43005,0.30085,6.84,48.72,-2.16
2.8467,-8.2403,-1.1169,-0.1011,0.36652,0.31734,7.08,48.6,-1.86
3.0646,-8.6353,-1.0896,-0.071777,0.30971,0.32193,7.26,48.66,-1.62
3.4187,-9.1393,-0.99429,-0.013134,0.25565,0.35369,7.68,48.66,-1.14
3.6503,-9.6296,-0.8036,0.044593,0.23549,0.42394,7.8,48.72,-0.9
3.8682,-9.9565,-0.61292,0.1011,0.21655,0.53023,8.16,48.54,-0.66
4.3585,-10.447,-0.27241,0.2303,0.13836,0.68295,8.64,48.54,-0.36
4.7807,-10.529,-0.12258,0.38057,0.02474,0.7758,9.06,48.54,-0.3
5.203,-10.924,-0.068102,0.47128,-0.06017,0.80543,9.6,48.6,-0.3
6.2245,-11.754,-0.35413,0.75625,-0.43402,0.83689,10.14,48.48,-0.24
6.5922,-12.027,-0.50395,0.894,-0.75564,0.75228,10.44,48.54,-0.3
6.8919,-12.572,-0.44947,0.905,-1.1014,0.56597,10.8,48.48,-0.42
7.3005,-12.517,-0.35413,0.6295,-1.6548,0.065363,11.52,48.54,-1.02
7.1779,-11.618,-0.01362,0.34667,-2.0247,-0.39492,11.82,48.54,-1.26
6.5786,-10.924,0.49033,0.19151,-2.167,-0.66462,12.12,48.72,-1.56
5.8704,-10.706,0.7355,-0.1127,-2.3027,-1.42,12.48,48.72,-2.16
4.9306,-11.319,1.1713,-0.20769,-2.2116,-1.7538,12.3,48.78,-3.0
4.7263,-11.509,1.185,-0.22663,-2.1579,-1.9114,12.0,49.14,-3.54
4.3858,-11.754,1.4846,-0.26756,-2.1918,-1.9755,11.58,49.14,-4.02
4.127,-11.795,1.5119,-0.40164,-2.204,-2.0058,10.2,49.44,-5.28
3.7728,-11.577,1.4438,-0.53878,-2.0568,-2.0412,9.36,49.5,-5.82
3.4187,-11.264,1.5391,-0.67592,-1.7614,-2.1112,8.52,49.74,-6.36
3.2144,-11.005,1.5391,-0.79871,-1.3885,-2.1805,7.32,50.1,-6.84
2.8603,-10.447,1.4438,-0.89889,-0.9838,-2.2495,4.5,50.64,-7.62
2.8058,-10.065,1.4438,-0.97677,-0.60018,-2.2849,2.88,51.06,-7.8
2.6696,-9.2891,1.4438,-1.0458,-0.15302,-2.3201,-0.72,51.54,-8.04
2.6015,-9.0303,1.5391,-1.051,-0.05284,-2.3188,-2.76,51.54,-7.86
2.5198,-8.6625,1.6072,-1.0599,0.096517,-2.3124,-4.8,51.72,-7.62
2.4517,-8.431,1.6344,-0.98991,0.20281,-2.2431,-6.6,51.72,-7.38
2.3563,-7.8589,1.6753,-0.86101,0.19823,-2.149,-10.5,51.54,-6.54
2.3427,-7.4776,1.6889,-0.64935,0.076664,-1.9358,-12.36,51.54,-6.18
2.2474,-7.246,1.471,-0.39218,-0.16402,-1.8298,-14.22,51.12,-5.7
1.7843,-7.1234,1.2939,-0.097738,-0.4777,-1.5495,-17.64,50.4,-4.62
1.4846,-7.4095,1.1577,0.17685,-0.80146,-1.1829,-19.38,50.04,-4.08
1.3076,-7.641,0.85808,0.50213,-1.0794,-0.51007,-20.88,49.68,-3.48
0.76274,-9.2074,0.42223,0.62461,-1.0809,0.0094684,-23.76,48.72,-2.64
0.6674,-9.8748,0.35413,0.68845,-0.96486,0.57605,-24.96,48.06,-2.34
0.68102,-11.387,0.28603,0.67562,-0.73518,1.1878,-26.04,47.4,-1.98
1.4165,-13.021,0.38137,0.64232,-0.42516,1.8329,-27.48,46.86,-1.56
1.9205,-13.239,0.35413,0.64568,-0.10812,2.4053,-27.96,46.68,-1.38
2.1793,-13.471,0.35413,0.62094,0.35613,3.0168,-28.44,46.68,-1.38
2.8058,-14.22,0.62654,0.59132,0.6857,3.2635,-28.08,46.44,-1.5
3.732,-14.247,0.7355,0.6014,0.93707,3.4199,-27.72,46.56,-1.74
4.9987,-13.362,0.095342,0.72846,0.96272,3.4877,-26.28,47.22,-2.58
5.5843,-12.476,-0.49033,1.0253,0.59407,3.3017,-25.14,47.64,-3.12
5.7205,-11.863,-0.64016,1.1295,0.32498,2.9404,-23.76,47.94,-3.48
5.6797,-11.509,-0.81722,1.0678,0.17715,2.3882,-22.2,48.18,-4.14
4.5356,-10.774,-0.99429,0.77946,0.197,1.7397,-18.84,48.96,-4.92
3.909,-10.27,-1.0215,0.3598,0.49205,1.0834,-17.04,49.32,-5.34
3.1872,-9.3163,-0.99429,-0.059559,1.2565,0.40531,-15.3,49.62,-5.7
2.8058,-8.2267,-0.84446,-0.11454,1.4905,0.28833,-13.56,49.8,-6.3
2.9284,-7.5184,-0.91256,-0.10812,1.8937,0.20281,-10.2,49.8,-6.84
3.228,-6.9055,-0.85808,-0.034208,2.1173,0.26878,-8.46,49.86,-7.14
3.4732,-6.5514,-1.0351,-0.013439,1.9377,0.40134,-7.02,49.86,-7.44
3.3642,-5.6661,-1.0624,-0.093768,1.6316,0.48564,-4.26,49.74,-7.32
3.1735,-5.5843,-1.1169,-0.18021,1.2718,0.63347,-2.94,49.56,-7.08
3.0646,-5.7205,-1.076,-0.22877,1.2181,0.67989,-1.8,49.32,-6.84
3.2144,-6.0883,-1.0896,-0.21747,1.2223,0.75747,0.18,48.9,-6.36
3.6911,-7.1779,-0.95342,-0.20281,1.2669,0.82161,1.02,48.72,-6.0
3.8954,-7.641,-0.85808,-0.23915,1.2819,0.90897,1.68,48.36,-5.76
4.8897,-8.8941,-0.34051,-0.24251,1.2175,0.96547,3.24,47.94,-5.28
5.203,-9.1529,-0.25879,-0.097738,1.055,1.0275,4.02,47.94,-4.98
6.3743,-9.4117,-0.01362,0.0015272,0.95203,1.0369,4.62,47.76,-4.56
6.8102,-9.4661,0.081722,0.208,0.6744,0.99754,6.06,47.64,-3.9
7.1507,-9.9565,0.081722,0.54123,0.13897,0.77946,6.66,47.46,-3.6
7.3141,-10.924,-0.21793,0.7367,-0.20647,0.49511,7.5,47.28,-3.36
6.96,-11.359,-0.53119,0.88301,-0.43249,0.14508,8.76,46.92,-3.36
6.6059,-11.332,-0.89894,0.95814,-0.52107,-0.38179,9.3,46.8,-3.48
6.8102,-11.536,-1.4165,0.99724,-0.65454,-0.52809,9.78,46.74,-3.54
7.246,-13.062,-1.8387,0.87965,-1.2868,-0.79168,10.56,46.44,-3.84
7.2596,-13.92,-1.6072,0.74037,-1.587,-0.83078,10.74,46.38,-4.14
6.9328,-13.852,-1.2531,0.12126,-2.4358,-0.97372,10.86,46.38,-4.44
5.6933,-12.926,-0.054481,-0.28527,-2.6405,-1.2367,10.5,46.26,-4.98
4.7399,-12.572,0.39499,-0.56077,-2.3662,-1.6976,10.26,46.2,-5.34
4.2768,-12.34,0.55843,-0.73915,-1.9997,-1.9358,9.9,46.32,-5.7
3.9908,-12.286,0.62654,-0.78007,-1.6539,-2.0534,9.3,46.38,-6.12
3.8682,-12.149,0.8717,-0.87842,-1.4239,-2.0977,7.38,46.5,-6.72
3.6775,-11.605,0.92618,-0.94104,-1.35,-2.1252,6.12,46.68,-7.08
3.3506,-11.032,1.0215,-1.131,-1.1209,-2.2507,4.92,46.86,-7.26
2.6015,-9.6977,1.2122,-1.2291,-0.85582,-2.3485,3.24,46.86,-7.26
2.4925,-9.3436,1.2531,-1.332,-0.34544,-2.4884,1.74,46.92,-7.44
2.3836,-8.6625,1.3757,-1.35,-0.19609,-2.5201,1.74,46.98,-7.32
2.1929,-7.641,1.4438,-1.3106,0.12431,-2.5333,-3.54,46.74,-6.96
2.152,-7.246,1.5119,-1.2379,0.197,-2.4887,-5.22,46.56,-6.66
2.0839,-6.7966,1.6617,-1.1402,0.15058,-2.3827,-6.96,46.44,-6.24
1.7979,-6.3879,1.7434,-1.0131,0.017104,-2.204,-10.56,45.96,-5.22
1.5936,-6.279,1.866,-0.87079,-0.25168,-1.7889,-12.48,45.66,-4.62
1.3212,-6.3471,1.8932,-0.69822,-0.33628,-1.6054,-14.16,45.12,-4.14
1.0215,-6.8102,1.8796,-0.50152,-0.4667,-1.1814,-17.16,44.16,-3.18
1.0351,-7.5048,1.866,-0.18295,-0.59132,-0.43494,-18.42,43.56,-2.7
1.0624,-8.0769,1.7843,0.036957,-0.6408,0.11026,-19.5,43.08,-2.1
1.58,-11.496,1.6344,0.27733,-0.68234,0.67104,-21.48,41.88,-1.2
1.7706,-12.476,1.5936,0.51007,-0.72785,1.529,-22.32,41.4,-0.66
2.1656,-13.974,1.471,0.73487,-0.77946,1.8256,-22.86,40.98,-0.24
2.7513,-15.636,1.3757,1.0229,-0.83658,2.5925,-23.4,40.44,0.24
2.9011,-15.677,1.3757,1.0883,-0.8097,2.7712,-23.52,40.14,0.42
2.9556,-15.568,1.3348,1.2608,-0.52198,3.0577,-23.28,39.96,0.42
3.4459,-15.255,1.3757,1.3448,-0.20892,3.0873,-22.38,40.08,0.36
3.8273,-14.955,1.1713,1.5473,0.089797,2.9438,-21.54,40.08,0.12
5.1349,-12.803,0.38137,1.6417,0.07025,2.8344,-20.64,40.38,-0.3
5.1894,-11.959,-0.027241,1.814,-0.11729,2.4954,-18.66,41.04,-0.9
4.4811,-11.087,-0.39499,1.861,-0.27428,1.9422,-17.4,41.4,-1.32
3.9227,-10.733,-0.68102,1.4942,0.0027489,0.88881,-16.26,41.7,-2.04
2.3972,-10.188,-1.471,1.0263,0.57177,0.26909,-14.04,42.3,-3.06
1.8932,-9.4798,-1.8524,0.3934,1.6643,-0.16677,-12.96,42.36,-3.72
1.5391,-8.3493,-2.2065,0.24099,2.0055,-0.21075,-10.8,42.6,-4.86
0.88532,-8.5944,-3.3778,-0.079412,2.6429,-0.21961,-9.84,42.66,-5.28
1.9613,-7.4503,-3.2961,-0.82253,3.7156,-0.21228,-8.82,42.9,-5.7
3.2553,-4.8488,-2.2201,-1.1597,3.7895,0.13256,-7.08,42.96,-6.18
2.4789,-5.4618,-3.1327,-0.91263,3.4178,0.21289,-6.24,43.08,-6.42
4.6718,-3.2553,-1.8387,-0.76602,3.6893,0.65515,-5.52,43.08,-6.42
4.8625,-4.0316,-1.1986,-0.26512,0.82803,1.3112,-4.02,43.02,-6.12
4.2768,-4.018,-1.185,-0.14019,-0.29413,1.4661,-3.36,42.72,-5.88
3.514,-4.3721,-1.4165,-0.17318,-0.40836,1.5379,-2.82,42.72,-5.64
2.8603,-5.8976,-1.1713,-0.52809,0.20036,1.3934,-1.14,42.54,-5.04
3.228,-6.565,-0.8717,-0.57544,0.49847,1.2208,-0.24,42.66,-4.68
3.3234,-7.75,-0.77636,-0.51191,1.0122,1.1228,1.32,43.02,-3.9
4.2495,-10.746,-0.42223,-0.41264,1.3763,1.1518,2.1,43.08,-3.48
5.1485,-11.128,-0.36775,-0.33964,1.4386,1.1377,3.0,43.14,-3.06
5.5299,-11.155,-0.20431,-0.22174,1.3573,1.0012,3.78,43.14,-2.64
5.9249,-11.645,0.20431,-0.087048,1.1118,0.55955,5.4,43.2,-1.92
6.3198,-12.258,0.35413,0.095295,0.81948,0.27825,6.12,43.02,-1.56
6.8374,-13.675,0.12258,0.39584,0.34789,0.083994,6.72,42.84,-1.38
7.355,-14.288,-0.29965,0.72082,-0.28344,-0.035736,7.74,42.42,-1.14
7.246,-14.192,-0.50395,1.0266,-1.2162,-0.2923,8.34,42.48,-1.14
6.96,-14.233,-0.74912,1.0473,-1.4447,-0.42577,8.7,42.24,-1.14
6.1292,-13.212,-1.1032,0.86804,-1.8848,-0.91844,9.06,42.12,-1.26
5.7069,-12.313,-1.1577,0.62094,-1.9978,-1.2767,9.06,42.0,-1.5
5.1349,-11.673,-0.99429,0.29749,-2.0314,-1.6289,9.18,41.94,-1.68
4.2495,-11.918,-0.64016,-0.032376,-1.9303,-2.0699,8.76,41.7,-2.22
3.9771,-12.081,-0.35413,-0.37568,-1.8201,-2.1637,8.28,41.7,-2.52
3.8682,-12.081,-0.21793,-0.45601,-1.7721,-2.1686,7.68,41.58,-2.82
3.623,-11.959,0.12258,-0.61514,-1.6799,-2.0809,6.0,41.4,-3.66
3.2689,-11.523,0.38137,-0.72815,-1.6182,-2.0094,5.1,41.52,-3.96
2.9284,-11.019,0.47671,-0.85582,-1.4578,-1.9511,4.14,41.76,-4.32
2.6423,-9.9837,0.70826,-1.0259,-1.0531,-1.9209,1.86,41.94,-4.8
2.5198,-9.4117,0.83084,-1.1011,-0.69058,-1.9703,0.54,41.94,-4.98
2.4925,-9.1801,1.0351,-1.1267,-0.50549,-2.0128,-0.66,42.0,-5.1
2.4108,-8.3084,1.1577,-1.1432,-0.061392,-2.1286,-3.36,42.12,-5.1
2.4789,-7.7227,1.2531,-1.1176,0.099876,-2.1738,-4.62,42.12,-4.92
2.4517,-7.3005,1.3484,-1.0314,0.13164,-2.1805,-6.06,42.0,-4.8
2.3427,-6.7012,1.5527,-0.86773,0.009163,-2.1026,-8.7,41.82,-4.26
2.2882,-6.5241,1.5936,-0.74006,-0.14813,-1.9868,-9.84,41.7,-4.02
2.0839,-6.3471,1.6072,-0.57971,-0.3375,-1.8106,-11.04,41.46,-3.84
1.8932,-6.4833,1.6208,-0.38362,-0.52076,-1.5681,-12.12,41.28,-3.36
1.5936,-7.6546,1.5255,-0.19181,-0.68264,-1.2514,-14.22,40.8,-2.7
1.3484,-8.54,1.4029,-0.018937,-0.77458,-0.86834,-15.24,40.5,-2.22
1.1986,-10.42,1.3212,0.11423,-0.76328,-0.4047,-16.14,40.14,-1.86
1.0351,-12.517,1.2395,0.23915,-0.58674,0.41142,-17.52,39.36,-1.08
1.2531,-13.77,1.1441,0.30482,-0.38026,1.0431,-18.24,39.12,-0.72
1.2531,-13.77,1.1441,0.30482,-0.38026,1.0431,-18.24,39.12,-0.72
2.4108,-14.383,0.61292,0.63835,0.088881,2.3662,-19.32,38.34,-0.12
2.547,-14.288,0.51757,0.68509,0.16768,2.5305,-19.44,38.16,0.06
2.833,-14.383,0.50395,0.71319,0.34392,2.7434,-19.44,38.1,0.12
3.3778,-13.784,0.38137,0.70585,0.51191,2.8564,-18.96,38.1,0.06
3.8818,-12.926,0.040861,0.76938,0.59071,2.8708,-18.72,38.34,-0.12
4.4266,-11.182,-0.61292,1.0122,0.47983,2.7385,-17.7,38.52,-0.6
4.4266,-10.42,-1.1032,1.1432,0.36713,2.5094,-16.98,38.7,-0.9
4.3313,-10.147,-1.4574,1.1212,0.33414,2.1851,-16.14,39.0,-1.32
3.6094,-10.065,-1.6753,0.88209,0.416,1.8124,-14.28,39.54,-2.1
3.1872,-9.8475,-1.6889,0.47006,0.65332,1.4432,-13.2,39.6,-2.28
2.8603,-9.3436,-1.6208,0.074526,1.0528,1.1866,-12.24,39.72,-2.52
2.5742,-8.145,-1.1986,-0.25015,1.7404,1.0168,-10.02,40.08,-2.82
2.9011,-7.4776,-0.99429,-0.30604,2.1112,1.0296,-8.94,40.32,-2.88
3.0782,-6.8783,-0.88532,-0.28222,2.2969,1.0938,-7.86,40.56,-2.88
3.7865,-5.9112,-0.89894,-0.25381,2.27,1.1857,-5.52,40.38,-2.82
3.9635,-5.7614,-0.69464,-0.21747,1.8998,1.2993,-4.38,40.56,-2.88
4.1814,-5.6252,-0.64016,-0.21258,1.7342,1.3308,-3.24,40.56,-2.64
4.4675,-5.6388,-0.65378,-0.17593,1.4123,1.3677,-2.1,40.44,-2.52
4.5764,-5.8704,-0.76274,-0.039401,1.0247,1.3448,-1.14,40.38,-2.04
4.6309,-6.4833,-0.83084,0.078496,0.85674,1.2743,1.02,40.26,-1.8
4.6718,-7.1098,-0.99429,0.15638,0.7254,1.1845,1.98,40.2,-1.62
5.094,-9.4117,-1.3348,0.16646,0.5229,1.0314,3.84,40.26,-1.26
5.1894,-9.793,-1.2258,0.14905,0.47373,0.97189,4.68,40.26,-1.02
5.1213,-10.556,-0.88532,0.10049,0.44868,0.80879,5.58,40.08,-1.08
5.2847,-11.359,-0.55843,0.11576,0.53695,0.51435,7.14,39.96,-0.66
5.8431,-11.822,-0.31327,0.24404,0.55986,0.34147,7.86,39.84,-0.6
6.3743,-12.19,-0.21793,0.44318,0.42516,0.16432,8.46,39.84,-0.42
7.1507,-12.585,-0.43585,0.72876,-0.071166,-0.20372,9.48,39.66,-0.12
7.2052,-12.408,-0.55843,0.83536,-0.49755,-0.54092,9.96,39.54,-0.18
7.2188,-12.572,-0.76274,0.85582,-0.72265,-0.72052,10.2,39.48,-0.24
6.8374,-13.116,-1.185,0.73487,-1.3873,-1.2297,10.5,39.36,-0.42
6.4969,-13.13,-1.0215,0.50152,-1.8176,-1.507,10.44,39.24,-0.6
5.993,-12.817,-0.64016,0.19975,-2.1609,-1.7724,10.38,39.18,-0.6
4.985,-12.558,-0.081722,-0.18082,-2.4196,-2.1228,9.9,39.12,-1.14
4.699,-12.503,0.40861,-0.34208,-2.419,-2.2455,9.48,39.0,-1.32
4.2495,-12.435,0.47671,-0.48381,-2.2776,-2.3198,8.88,39.18,-1.44
3.5685,-12.217,0.83084,-0.59346,-2.0586,-2.4022,7.02,39.24,-2.04
3.2825,-11.605,0.83084,-0.7083,-1.7291,-2.4297,6.12,39.12,-2.34
3.0918,-11.101,0.92618,-0.80329,-1.3821,-2.4615,4.98,39.12,-2.7
2.8058,-10.243,0.88532,-0.8998,-1.0369,-2.5152,2.4,39.12,-3.18
2.6832,-9.7522,0.98067,-0.99113,-0.57757,-2.5458,1.14,39.06,-3.36
2.656,-9.2891,0.95342,-1.0305,-0.36469,-2.5473,-0.24,39.18,-3.54
2.4925,-8.1177,1.1169,-1.0369,-0.23885,-2.5339,-2.88,39.06,-3.48
2.438,-7.7227,1.2122,-1.0171,-0.19975,-2.4813,-4.26,39.06,-3.3
2.2882,-7.4367,1.3212,-0.9725,-0.23121,-2.4016,-5.7,39.18,-3.18
1.9613,-7.1915,1.5936,-0.88362,-0.34483,-2.1728,-8.4,38.88,-2.7
1.8251,-7.1234,1.6072,-0.78588,-0.44776,-1.9407,-9.72,38.7,-2.34
1.7706,-7.069,1.6617,-0.63041,-0.54275,-1.6606,-10.92,38.28,-2.04
1.4846,-7.4912,1.6208,-0.45998,-0.61636,-1.3528,-12.78,37.74,-1.32
1.1577,-8.4174,1.6344,-0.30971,-0.60873,-1.0232,-13.86,37.62,-0.78
1.0079,-9.3163,1.6617,-0.18479,-0.54,-0.61025,-14.7,37.2,-0.3
0.99429,-11.264,1.6072,-0.077274,-0.43371,0.13561,-16.08,36.54,0.42
1.0624,-12.204,1.6617,0.15547,-0.28375,0.7419,-16.68,36.24,0.9
1.3212,-13.116,1.7025,0.3375,-0.18387,1.383,-17.22,35.94,1.38
1.975,-14.383,1.3076,0.53573,-0.066584,1.9777,-17.88,35.58,1.86
2.2474,-14.41,1.1441,0.70188,0.054367,2.4722,-18.12,35.46,1.98
2.4789,-14.519,0.83084,0.8039,0.18357,2.8204,-18.12,35.34,2.22
2.8603,-14.56,0.5993,0.86743,0.32193,3.0568,-18.12,35.34,2.34
3.5822,-13.307,0.31327,0.97128,0.48564,3.1551,-17.34,35.46,2.28
3.9908,-12.286,-0.28603,1.0159,0.51313,3.1197,-16.8,35.76,2.1
4.1814,-11.618,-0.47671,1.0519,0.52046,2.9468,-16.26,36.0,1.8
4.3858,-11.019,-0.7355,0.95814,0.5003,2.4685,-14.94,36.24,0.96
4.3858,-10.883,-1.0624,0.8601,0.44807,2.1093,-14.16,36.66,0.66
4.1951,-10.706,-1.4029,0.73976,0.42394,1.8017,-12.36,37.2,-0.06
3.2553,-9.6296,-1.5936,0.44166,0.68661,1.4969,-11.46,37.56,-0.48
2.833,-8.6081,-1.4438,0.23824,1.062,1.3653,-10.44,37.86,-0.78
2.7513,-8.1995,-1.3893,0.16371,1.2669,1.3085,-9.36,38.04,-1.08
2.9284,-7.355,-1.2939,0.045815,1.7752,1.2339,-8.16,38.22,-1.14
3.3097,-6.7148,-1.3212,0.025045,1.9465,1.2547,-5.82,38.28,-1.44
3.6366,-6.3198,-1.3212,0.0058032,1.9719,1.2617,-4.74,38.34,-1.68
3.9227,-6.0202,-1.1577,-0.060476,1.8796,1.2926,-3.6,38.52,-1.86
4.0861,-6.0202,-1.2258,-0.17959,1.6441,1.2898,-1.56,38.34,-1.86
4.5083,-6.0611,-1.2803,-0.17501,1.4456,1.288,-0.48,38.34,-1.68
4.6854,-6.1564,-1.2258,-0.083689,1.2055,1.2746,0.6,38.34,-1.44
5.2438,-7.1507,-1.6481,0.015577,0.97433,1.2202,2.7,38.1,-1.02
5.598,-7.8589,-1.6344,0.07758,0.76877,1.1078,3.54,38.04,-0.9
5.8976,-8.7579,-1.5255,0.090408,0.66279,0.91447,4.68,38.04,-0.66
6.2381,-10.215,-0.92618,-0.065057,0.65393,0.47098,6.36,37.74,-0.54
6.3062,-10.924,-0.62654,-0.11118,0.67287,0.3149,7.08,37.68,-0.36
6.4833,-11.536,-0.35413,-0.10996,0.75198,0.045815,7.8,37.56,-0.42
6.7966,-11.836,-0.19068,0.096517,0.67623,-0.22907,8.28,37.44,-0.36
7.4231,-12.231,-0.12258,0.33445,0.38851,-0.40378,9.06,37.26,-0.06
7.4776,-12.258,-0.24517,0.66248,-0.36377,-0.65088,9.36,37.08,0.06
7.6002,-12.585,-0.65378,0.78802,-0.97372,-0.77366,9.72,36.96,0.12
7.6002,-12.912,-1.0488,0.78252,-1.5983,-0.90164,9.84,36.78,0.24
7.3958,-12.803,-1.0896,0.64324,-2.1634,-1.0907,9.72,36.66,0.18
6.2109,-12.476,-0.54481,0.33689,-2.5436,-1.3702,9.42,36.54,-0.12
5.3937,-12.435,-0.054481,-0.062308,-2.6157,-1.7113,9.18,36.6,-0.18
4.8761,-12.558,0.35413,-0.4102,-2.3671,-2.1493,8.34,36.78,-0.36
4.304,-12.79,0.96704,-0.66157,-2.1334,-2.3311,7.74,36.78,-0.42
4.0589,-12.776,1.2258,-0.71288,-1.916,-2.4261,7.02,36.78,-0.48
3.8273,-12.694,1.2395,-0.72204,-1.8057,-2.4523,6.24,36.9,-0.72
3.4732,-11.986,1.1577,-0.80146,-1.4798,-2.43,4.68,37.08,-0.9
3.228,-11.332,1.1577,-0.86865,-1.2474,-2.4196,3.84,37.14,-1.02
2.9148,-10.542,1.1986,-0.95509,-0.98991,-2.4587,2.94,37.14,-1.08
2.547,-9.4798,1.2395,-1.0565,-0.70463,-2.5097,0.84,37.08,-1.32
2.3427,-8.717,1.3757,-1.124,-0.43158,-2.5501,-0.12,37.14,-1.32
2.3972,-8.4038,1.4165,-1.1448,-0.14783,-2.5632,-1.08,37.14,-1.26
2.152,-7.5457,1.471,-1.0919,-0.065668,-2.5082,-3.24,37.32,-1.02
2.0158,-7.3686,1.6072,-0.99907,-0.076664,-2.368,-4.08,37.26,-0.66
1.8932,-7.1371,1.7162,-0.87842,-0.15699,-2.1783,-5.1,37.14,-0.42
1.5119,-6.9872,1.8115,-0.73212,-0.27367,-1.9218,-6.72,36.72,0.24
1.3348,-6.8374,1.866,-0.58093,-0.36835,-1.5974,-7.5,36.42,0.54
1.185,-6.7012,1.866,-0.28924,-0.46731,-1.0339,-8.22,36.12,1.08
1.1577,-7.355,1.757,-0.067806,-0.51007,-0.60109,-9.42,35.64,1.86
1.1713,-8.4582,1.5936,0.146,-0.57299,-0.11209,-9.84,35.4,2.4
1.3757,-10.025,1.3484,0.36744,-0.63041,0.416,-10.32,35.16,2.64
1.757,-11.618,0.83084,0.65943,-0.68295,1.2361,-10.8,35.04,3.54
2.0839,-13.021,0.57205,0.81551,-0.686,1.7327,-10.92,34.8,3.9
2.1793,-13.566,0.49033,0.8491,-0.65057,1.9655,-11.04,34.68,4.08
2.261,-14.369,0.54481,0.82314,-0.35064,2.4557,-10.98,34.38,4.32
2.3699,-14.478,0.68102,0.78924,0.032681,2.6389,-10.56,34.08,4.38
2.7377,-13.92,0.38137,0.85124,0.41203,2.7461,-10.14,34.14,4.32
3.5277,-12.381,-0.14982,1.1035,0.64019,2.7721,-9.18,34.32,4.14
3.7184,-11.891,-0.6674,1.2211,0.60109,2.6221,-8.58,34.62,3.9
3.6094,-11.686,-0.85808,1.1933,0.55405,2.3644,-7.86,34.86,3.6
3.4596,-11.605,-0.92618,1.0574,0.5962,2.0488,-7.2,35.04,3.18
2.8603,-11.25,-1.3484,0.84299,0.6915,1.7617,-5.82,35.4,2.22
2.7104,-11.101,-1.5119,0.62736,0.8323,1.602,-4.92,35.46,1.92
2.4108,-10.474,-1.3893,0.37507,1.1322,1.5498,-4.2,35.58,1.68
2.3427,-9.4525,-1.2803,0.31948,1.2639,1.5598,-2.82,35.76,0.9
2.3972,-8.9349,-1.5936,0.24954,1.5803,1.5892,-1.92,35.82,0.66
2.5198,-8.5672,-1.4301,0.0048869,2.3363,1.5849,-1.08,35.94,0.48
3.8682,-7.6138,-1.4438,0.20067,2.1118,1.6435,0.6,36.0,0.06
4.4402,-7.355,-1.3757,0.25962,1.8619,1.675,1.26,35.88,-0.06
4.5764,-6.9055,-1.6753,0.10232,1.5287,1.6564,2.94,35.76,-0.24
4.8352,-6.1428,-1.6072,0.0079412,1.2343,1.4795,3.78,35.52,-0.18
4.5356,-6.1155,-1.471,-0.12492,1.0831,1.2758,4.5,35.34,-0.12
4.3994,-6.1973,-1.3893,-0.18631,1.076,1.1704,5.28,35.22,0.06
4.3994,-6.8238,-1.2258,-0.24282,1.1628,0.89186,6.84,34.86,0.48
4.5083,-7.1371,-1.1169,-0.20769,1.2217,0.74098,7.56,34.74,0.72
4.6309,-7.7364,-1.0624,-0.18173,1.1628,0.59346,9.18,34.5,0.96
4.8352,-9.0984,-0.99429,-0.20678,1.0599,0.48961,9.9,34.26,1.08
4.7399,-9.7113,-0.6674,-0.26664,1.0256,0.38912,10.5,34.14,1.26
4.8352,-10.256,-0.35413,-0.27764,1.0544,0.28314,10.98,33.9,1.5
5.2575,-10.964,0.081722,-0.18143,1.0669,0.1573,11.82,33.66,2.04
5.6388,-11.509,0.38137,0.009163,0.97525,0.025045,12.18,33.42,2.28
6.3471,-12.231,0.49033,0.24862,0.70127,-0.09499,12.42,33.3,2.46
7.069,-12.286,0.35413,0.68325,-0.12401,-0.197,12.72,32.88,2.94
7.4231,-12.408,0.054481,0.88331,-0.89614,-0.28741,12.84,32.82,3.12
7.5457,-12.435,-0.12258,0.94043,-1.6606,-0.4554,12.96,32.76,3.42
7.0826,-12.027,-0.10896,0.85185,-2.3225,-0.70341,13.08,32.76,3.66
6.5378,-12.108,0.054481,0.60231,-2.7434,-1.0626,13.02,32.7,3.54
6.0747,-12.258,0.14982,0.27978,-2.9172,-1.4255,12.78,32.76,3.48
5.2847,-12.939,0.55843,-0.000611,-2.919,-1.7523,12.42,32.82,3.3
4.9306,-13.321,0.8717,-0.28588,-2.718,-2.1689,12.12,32.88,3.24
4.5356,-13.484,1.0488,-0.46762,-2.4499,-2.3915,11.88,32.76,2.94
3.9499,-13.375,1.2939,-0.65088,-2.0937,-2.5983,10.98,32.7,2.4
3.514,-13.076,1.2531,-0.81276,-1.6952,-2.7544,10.5,33.0,2.1
3.1327,-12.108,1.2803,-0.91966,-1.0657,-2.9221,9.54,33.36,1.56
2.7649,-11.155,1.4165,-0.98288,-0.67989,-2.9987,8.7,33.48,1.26
2.7922,-10.937,1.3893,-1.0189,-0.39248,-3.0449,8.1,33.54,1.02
2.6696,-10.624,1.5119,-1.0165,-0.24496,-3.0158,7.32,33.66,0.72
2.6287,-9.9292,1.6344,-0.98624,-0.23366,-2.9187,5.64,33.9,0.3
2.5742,-9.2482,1.5391,-0.90652,-0.34056,-2.7492,4.74,34.26,0.3
2.4789,-8.5263,1.7025,-0.7816,-0.52962,-2.5385,3.84,34.32,0.36
2.0158,-7.3005,1.7025,-0.65363,-0.70524,-2.2092,2.1,34.98,0.42
1.7298,-6.9055,1.7025,-0.47861,-0.81703,-2.0055,1.2,35.16,0.36
1.471,-6.4833,1.8796,-0.42944,-0.81948,-1.9032,0.36,35.58,0.54
1.3348,-6.3743,1.7706,-0.23946,-0.73365,-1.5989,-0.66,36.06,0.6
1.1169,-7.3005,1.5663,-0.095906,-0.66798,-1.3399,-2.46,36.3,1.08
0.85808,-7.9679,1.5391,0.051924,-0.61728,-0.99082,-3.36,36.48,1.2
0.55843,-9.4117,1.3893,0.19242,-0.56566,-0.19884,-4.92,36.6,1.68
0.49033,-10.597,1.2258,0.40775,-0.55314,0.52565,-5.64,36.78,1.86
0.5993,-11.223,1.1032,0.56658,-0.5174,1.3454,-6.24,36.9,2.04
1.1169,-12.286,0.76274,0.73151,-0.4215,2.1338,-6.6,36.96,2.04
2.1248,-13.471,0.49033,0.90255,-0.36408,2.7764,-7.2,37.2,2.22
2.5742,-13.648,0.24517,1.0299,-0.35522,3.2257,-7.38,37.26,2.1
3.2416,-14.301,0.054481,1.0989,-0.33445,3.4835,-7.32,37.26,2.04
3.8273,-14.478,-0.17706,1.1634,-0.23396,3.6221,-6.72,37.2,1.74
4.2223,-13.974,-0.28603,1.1777,-0.11606,3.551,-6.24,37.2,1.56
4.413,-13.362,-0.25879,1.1664,-0.048258,3.4459,-5.46,37.02,1.32
4.413,-12.354,-0.49033,1.0938,0.26878,2.8714,-4.62,36.96,0.84
4.5356,-11.891,-0.61292,0.98197,0.51191,2.3586,-3.72,36.84,0.36
4.3177,-11.387,-1.1577,0.80787,0.69303,1.8619,-1.86,36.78,-0.48
4.127,-11.155,-1.1577,0.45601,0.90836,1.4114,-0.72,36.78,-0.84
3.8954,-10.515,-1.1169,0.27489,1.0458,1.2675,0.24,36.6,-1.26
3.5958,-9.1529,-1.076,0.2138,1.1683,1.2028,2.28,36.3,-1.86
3.6366,-8.3629,-1.1986,0.25809,1.2645,1.2016,3.42,36.06,-2.22
3.8273,-7.7636,-1.4165,0.33262,1.3127,1.2413,4.32,35.82,-2.34
4.522,-7.355,-2.0567,0.37996,1.211,1.2523,6.42,35.16,-2.58
4.6445,-7.2188,-2.1929,0.32315,0.87781,1.1958,7.5,34.98,-2.64
4.6445,-7.0553,-2.2882,0.27336,0.78038,1.1432,8.22,34.74,-2.76
4.4675,-6.7557,-2.3836,0.043371,0.61545,0.90836,9.84,34.32,-2.58
4.3313,-6.5514,-2.2065,-0.12706,0.6411,0.68783,10.5,34.08,-2.52
4.2359,-6.4424,-2.1656,-0.27031,0.75533,0.46792,11.22,33.96,-2.28
3.9227,-6.1564,-1.7706,-0.34514,0.89858,0.27519,12.6,33.48,-1.98
3.909,-6.1564,-1.7025,-0.4047,1.007,0.037263,13.2,33.36,-1.86
3.8954,-6.2654,-1.3757,-0.4328,0.99205,-0.071471,14.4,33.12,-1.38
3.8546,-6.8783,-1.3893,-0.42608,0.91263,-0.13531,14.88,33.0,-1.14
3.8409,-7.246,-1.5255,-0.39828,0.77213,-0.14478,15.24,32.82,-0.84
3.9227,-7.8589,-1.2803,-0.34606,0.59254,-0.073304,15.78,32.82,-0.84
4.0452,-9.5342,-0.8036,-0.29841,0.37263,0.03879,16.26,32.88,-0.36
4.0725,-10.256,-0.72188,-0.21533,0.12462,0.17929,16.44,32.7,-0.36
4.3177,-11.482,-0.24517,-0.097738,0.050702,0.23366,16.74,32.64,0.48
4.5764,-12.217,0.10896,0.053145,0.0045815,0.2251,16.8,32.52,0.78
4.699,-12.149,0.28603,0.13347,-0.0094684,0.20525,16.8,32.52,1.02
4.7807,-11.863,0.20431,0.42852,-0.098655,0.10324,16.8,32.46,1.26
5.3256,-12.027,-0.19068,0.61545,-0.3149,0.031765,16.74,32.52,1.62
5.7886,-12.19,-0.47671,0.75259,-0.69028,-0.036652,16.74,32.46,1.68
5.9657,-12.299,-0.5993,0.74923,-1.139,-0.12828,16.8,32.22,1.98
5.8295,-12.149,-0.28603,0.58857,-1.5843,-0.28741,16.74,32.28,1.8
5.6661,-12.068,-0.095342,0.16432,-2.1716,-0.60048,16.92,32.34,1.62
5.8295,-11.836,0.76274,-0.021075,-2.5439,-0.75778,16.74,32.22,1.38
5.8567,-11.741,1.2803,-0.057421,-2.9764,-0.8659,16.68,32.16,0.9
5.7342,-11.931,1.7298,-0.04948,-3.394,-0.96822,16.26,32.34,-0.12
5.4073,-11.972,1.866,-0.08094,-3.6655,-1.1032,16.02,32.46,-0.72
5.0531,-12.04,1.8251,-0.26634,-3.6799,-1.3592,15.78,32.58,-1.38
4.7944,-11.972,1.8115,-0.354,-3.5778,-1.4597,15.42,32.94,-1.98
4.3858,-11.85,1.8387,-0.63927,-3.0586,-1.7559,14.82,33.24,-2.7
3.6775,-10.964,1.7979,-0.83047,-2.5568,-1.9291,13.44,33.84,-4.02
3.3506,-10.569,1.8387,-1.0339,-1.7798,-2.1328,12.48,34.32,-4.56
3.0646,-9.616,1.6889,-1.0779,-1.5531,-2.1677,10.44,35.34,-6.0
3.051,-9.0984,1.58,-1.1405,-1.0577,-2.1432,9.3,35.76,-6.48
3.051,-8.7443,1.7025,-1.1475,-0.91355,-2.0336,7.98,36.36,-6.9
3.0918,-8.1041,1.9341,-1.1176,-0.90988,-1.8689,5.28,37.44,-7.8
3.1599,-7.7772,1.9477,-1.0681,-1.025,-1.6793,3.84,38.04,-7.92
3.2553,-7.6274,2.0567,-0.97433,-1.223,-1.4719,2.4,38.76,-8.1
3.1872,-7.6546,2.3291,-0.78527,-1.5021,-1.1402,-0.72,39.54,-7.98
3.1599,-7.641,2.2882,-0.64935,-1.5913,-0.92638,-2.1,40.08,-7.8
3.1463,-7.6683,2.3155,-0.58949,-1.5965,-0.83169,-3.54,40.38,-7.56
3.2553,-7.8317,2.3291,-0.41111,-1.4939,-0.64996,-6.0,41.16,-6.78
3.2689,-8.036,2.2882,-0.33781,-1.3354,-0.62339,-7.08,41.52,-6.48
3.2825,-7.9951,1.8796,-0.27825,-1.1377,-0.63683,-7.98,41.7,-6.12
3.2825,-7.7636,1.5936,-0.14722,-0.88453,-0.74862,-9.9,42.24,-5.34
3.1599,-7.6683,1.4846,-0.076358,-0.74373,-0.81062,-10.8,42.48,-4.98
3.0918,-7.75,1.3893,0.000305,-0.6466,-0.84147,-11.64,42.54,-4.68
2.8058,-8.2812,0.92618,0.08094,-0.57696,-0.81001,-13.14,42.84,-3.66
2.7649,-8.6762,0.83084,0.17501,-0.49572,-0.74587,-13.74,42.78,-3.54
2.833,-9.9156,0.89894,0.27245,-0.41508,-0.64996,-14.28,42.84,-3.24
2.5061,-11.114,1.1986,0.33323,-0.27519,-0.5507,-15.3,42.96,-2.88
2.3836,-10.392,1.2939,0.416,0.0018326,-0.41111,-15.96,43.02,-2.88
2.4517,-9.0303,1.1577,0.91569,0.41875,-0.19884,-16.38,43.08,-2.88
2.7513,-7.9543,0.81722,1.5088,0.39554,-0.07086,-16.86,42.96,-3.0
3.8682,-7.9134,-0.32689,2.1237,-0.034819,0.14783,-17.64,42.72,-3.48
4.3858,-8.5944,-0.78998,2.5867,-0.8656,0.42608,-18.18,42.66,-3.72
4.7807,-9.507,-1.5119,2.9059,-2.387,0.88453,-18.78,42.42,-4.68
3.9227,-9.4117,-1.5391,2.8885,-3.1325,1.0815,-19.14,42.24,-5.16
3.1191,-9.3436,-1.6344,2.6964,-3.3454,1.1002,-19.26,42.12,-5.64
2.4789,-9.4389,-1.6072,2.5351,-3.2666,1.0531,-19.44,41.94,-6.24
1.9205,-9.4117,-1.6753,1.9838,-2.4364,0.86773,-19.92,41.52,-7.44
1.7843,-9.6704,-2.0703,1.766,-1.6451,0.7703,-20.04,41.28,-7.92
1.9886,-9.8339,-2.2337,1.6649,-0.49908,0.74953,-19.98,41.04,-8.58
2.9829,-10.351,-2.6015,1.6035,-0.22052,0.77091,-19.68,40.56,-9.72
3.3642,-10.324,-3.0373,1.4795,0.094684,0.84696,-19.56,40.2,-10.44
4.018,-10.093,-2.8194,1.3442,0.068417,0.956,-19.32,39.9,-10.92
5.094,-9.7522,-3.2825,1.3757,-0.46517,1.0825,-19.08,39.72,-11.28
5.9657,-9.6432,-3.6911,1.4117,-1.1808,1.1451,-18.48,39.06,-12.6
5.9249,-9.2346,-3.7728,1.336,-2.3039,1.1585,-18.18,38.82,-13.02
4.8352,-9.0575,-3.6775,1.2077,-2.4951,1.1054,-17.64,38.34,-13.98
4.0316,-8.826,-3.5413,0.83719,-2.5436,0.82345,-17.28,37.98,-14.4
3.0918,-8.9622,-3.4868,0.018631,-1.7755,0.17929,-16.98,37.8,-14.82
1.9886,-9.1529,-2.6696,-0.60995,-0.82253,-0.27428,-16.62,37.62,-15.72
2.152,-9.5615,-2.0703,-1.0925,0.14416,-0.58949,-16.56,37.38,-16.08
2.3836,-9.9565,-1.6208,-1.3934,0.81795,-0.70219,-16.56,37.2,-16.32
3.2825,-10.256,-0.68102,-1.5076,1.3069,-0.43616,-16.8,37.14,-16.68
4.0997,-10.038,-0.25879,-1.31,1.2025,-0.032681,-16.98,37.26,-16.62
4.6445,-9.8884,-0.25879,-1.1503,1.0095,0.1744,-17.22,37.32,-16.68
6.1836,-9.6704,0.57205,-0.55589,-0.10599,0.76114,-17.52,37.38,-16.8
6.674,-9.8475,0.74912,-0.14875,-1.0693,1.0357,-17.7,37.5,-16.62
7.0553,-10.065,1.0215,0.14691,-1.8879,1.1982,-17.88,37.62,-16.38
7.1915,-11.523,1.1169,0.41356,-2.5617,1.2285,-18.0,38.1,-15.9
7.2869,-11.795,1.1441,0.45112,-2.6191,1.076,-18.36,38.4,-15.66
7.2869,-10.869,0.99429,0.43371,-2.4483,0.79168,-18.54,38.7,-15.42
7.2052,-8.54,1.1169,0.33628,-2.1741,0.343,-18.54,39.06,-14.76
6.96,-7.641,1.3484,0.20189,-1.9939,-0.23549,-18.6,39.18,-14.52
6.9736,-7.9951,1.5255,0.087659,-2.0947,-0.72907,-18.9,39.36,-14.22
7.1098,-9.0848,1.8524,0.019242,-2.7574,-1.0415,-19.2,39.36,-13.68
7.0553,-9.793,1.9886,0.048869,-3.3326,-0.9954,-19.44,39.42,-13.5
7.069,-10.27,2.2065,0.10049,-3.7712,-0.89064,-19.74,39.36,-13.14
6.674,-11.182,2.6151,0.11851,-3.9694,-0.87965,-20.58,39.18,-12.18
6.4969,-11.605,2.5879,0.053451,-3.9129,-0.98899,-21.12,39.0,-11.7
6.3471,-11.945,2.5742,-0.13622,-3.6331,-1.1915,-21.78,38.76,-11.28
5.9385,-13.062,2.5879,-0.48808,-2.9373,-1.598,-23.4,37.92,-10.08
5.8704,-13.198,2.5334,-0.59834,-2.4627,-1.8586,-24.12,37.44,-9.42
5.5707,-12.926,2.4653,-0.63347,-2.054,-2.0681,-24.96,36.84,-8.58
4.9578,-11.863,2.2746,-0.64416,-1.6698,-2.2416,-26.94,35.64,-7.2
4.6037,-11.128,2.2201,-0.66981,-1.3473,-2.4022,-27.96,34.98,-6.48
4.3177,-10.46,2.152,-0.69669,-1.1414,-2.5241,-28.8,34.44,-5.76
3.9908,-9.6977,2.1929,-0.70066,-1.0589,-2.5595,-30.42,33.18,-4.44
3.7592,-9.4798,2.152,-0.6408,-1.106,-2.499,-31.32,32.34,-3.78
3.5685,-9.3299,2.2065,-0.60231,-1.138,-2.4575,-32.16,31.56,-3.3
2.9284,-8.8532,2.3155,-0.42669,-1.1674,-2.2923,-33.66,29.88,-2.4
2.7241,-8.8124,2.2337,-0.27733,-1.1023,-2.1603,-34.5,29.16,-1.98
2.6832,-8.8805,2.1248,-0.087354,-1.0159,-2.0113,-35.28,28.26,-1.5
2.6151,-8.8124,1.5527,0.11484,-0.97066,-1.8586,-36.66,26.52,-1.08
2.6696,-8.7987,1.3076,0.39981,-1.0146,-1.6689,-37.32,25.56,-0.9
2.5742,-8.6898,1.0488,0.54153,-1.0812,-1.5595,-37.8,24.72,-0.78
2.2882,-8.1586,0.40861,0.71288,-1.2101,-1.4019,-38.58,23.1,-0.36
1.866,-8.3493,0.040861,0.93859,-1.3506,-1.168,-38.94,22.2,-0.12
1.4301,-9.0848,-0.20431,1.1781,-1.4401,-0.83505,-39.24,21.24,0.06
0.44947,-10.202,-0.8717,1.4572,-1.3696,-0.073304,-40.08,19.8,0.48
0.14982,-10.746,-1.1169,1.5898,-1.1851,0.60812,-40.32,19.2,0.72
-0.01362,-11.196,-1.0215,1.6554,-0.85827,1.372,-40.62,18.54,0.84
-0.027241,-12.34,-0.92618,1.6799,-0.64324,1.7828,-40.86,18.06,0.96
1.0351,-13.961,-0.76274,1.7294,-0.000611,2.9147,-41.04,17.64,1.32
2.5061,-14.764,-0.96704,1.8326,0.22205,3.4874,-41.1,17.58,1.32
3.8954,-14.86,-1.7434,2.0284,0.18876,3.8326,-40.98,17.82,1.5
5.6388,-14.029,-2.152,2.3509,-0.32865,3.7354,-40.56,18.54,1.5
5.598,-13.784,-1.9886,2.2443,-0.60201,3.1741,-40.32,19.14,1.44
5.1894,-13.675,-1.7843,1.6799,-0.57452,2.2538,-40.08,19.92,1.2
3.9499,-13.498,-1.1169,0.82039,-0.23732,1.16,-39.84,20.64,0.96
2.7241,-12.735,-0.92618,0.098349,0.35033,0.2645,-39.24,22.5,0.42
2.2337,-11.359,-0.88532,-0.28894,1.2877,-0.41264,-38.94,23.52,0.18
1.8387,-9.0031,-1.0215,-0.21747,1.5663,-0.44593,-38.16,24.9,-0.54
1.9205,-7.8862,-1.185,0.28436,1.93,-0.17776,-37.74,25.8,-0.72
1.9613,-7.1098,-1.362,0.44807,1.8683,-0.070555,-37.44,26.52,-1.08
2.0294,-6.4833,-1.5119,0.61025,1.3027,0.16768,-37.02,27.18,-1.5
2.0431,-5.9657,-1.7979,0.51801,0.82161,0.27642,-36.18,28.26,-2.28
1.9613,-5.8704,-1.8524,0.35858,0.33689,0.37477,-35.7,28.62,-2.76
1.7298,-6.0338,-1.8387,0.21319,0.30452,0.39431,-35.16,29.16,-3.36
1.8387,-6.1428,-1.7843,0.10812,0.36285,0.40225,-34.86,29.22,-3.72
1.975,-6.2381,-1.7843,0.011301,0.55772,0.4102,-34.56,29.22,-4.02
2.5879,-6.7829,-1.6072,-0.10049,0.87232,0.37018,-34.08,29.34,-4.62
3.0782,-7.1779,-1.6072,-0.11729,0.95875,0.34544,-33.78,29.34,-5.04
4.0589,-8.2948,-1.6208,-0.11148,0.90805,0.33384,-33.0,29.4,-5.76
4.4539,-8.9077,-1.6344,-0.071166,0.58857,0.34758,-32.64,29.46,-6.18
4.7399,-9.5479,-1.58,-0.080329,0.44746,0.35003,-32.22,29.58,-6.72
4.7535,-10.065,-1.3212,-0.099266,0.18204,0.31215,-31.68,29.82,-7.08
4.5083,-10.311,-0.78998,-0.1631,0.014966,0.19548,-30.9,30.18,-7.44
4.5628,-10.365,-0.53119,-0.11393,0.055894,0.15852,-30.84,30.12,-7.74
4.7399,-10.351,-0.43585,0.030238,0.097433,0.13531,-30.66,30.18,-7.98
5.38,-10.964,-0.49033,0.23488,0.027184,0.090713,-30.12,30.3,-8.46
5.7069,-11.25,-0.55843,0.46151,-0.29352,-0.0045815,-29.88,30.36,-8.76
5.7886,-11.196,-0.62654,0.47159,-0.52779,-0.16157,-29.64,30.36,-9.06
5.8295,-12.081,-0.72188,0.38759,-0.77061,-0.34697,-29.34,30.3,-9.66
5.9385,-12.435,-0.6674,0.27764,-1.0699,-0.48808,-29.34,30.36,-9.78
5.9521,-12.313,-0.70826,0.16341,-1.4074,-0.55375,-29.4,30.36,-10.02
5.7342,-11.645,-0.35413,0.1014,-1.8818,-0.67104,-29.76,30.24,-10.32
5.7205,-11.918,-0.21793,-0.081551,-2.0192,-0.85094,-29.94,30.12,-10.44
5.8023,-12.286,0.14982,-0.27825,-2.0461,-1.0901,-30.3,29.88,-10.56
5.7614,-12.898,0.29965,-0.48442,-1.9994,-1.3656,-30.66,29.58,-10.74
5.3119,-12.994,0.8717,-0.70219,-1.8408,-1.664,-31.32,29.16,-10.8
4.7671,-12.544,1.0624,-0.88789,-1.5177,-1.9813,-31.92,28.86,-10.74
3.7728,-11.223,1.3348,-0.99846,-1.0669,-2.3085,-33.12,28.08,-10.5
3.4051,-10.637,1.3212,-1.0128,-0.33139,-2.7351,-33.9,27.66,-10.38
3.3642,-10.27,1.3076,-0.97464,0.024129,-2.9257,-34.5,27.18,-10.14
3.0237,-9.3844,1.1713,-0.91905,0.20464,-3.014,-36.12,26.04,-9.9
2.8875,-8.8532,1.2395,-0.85857,0.22205,-3.0122,-36.78,25.38,-9.84
2.6968,-8.2403,1.2803,-0.7761,0.083383,-2.9276,-37.44,24.6,-9.78
2.3155,-7.2188,1.3212,-0.61911,-0.30391,-2.6588,-38.64,22.74,-9.6
2.0975,-6.7693,1.3893,-0.4945,-0.56933,-2.3695,-39.18,21.84,-9.54
1.7706,-6.3879,1.362,-0.42638,-0.69242,-2.2248,-39.78,20.82,-9.6
1.4301,-6.1836,1.4029,-0.29383,-0.84483,-1.8995,-40.38,19.86,-9.48
0.81722,-6.2926,1.2803,-0.081856,-0.85888,-1.3897,-41.16,17.76,-9.42
0.76274,-6.5786,1.2667,0.046731,-0.75381,-1.0131,-41.4,16.68,-9.36
0.70826,-6.7966,0.89894,0.135,-0.61148,-0.58704,-41.82,15.6,-9.48
0.81722,-8.0905,0.88532,0.22907,-0.49999,-0.15882,-42.18,13.86,-9.42
0.78998,-8.9758,0.8036,0.36744,-0.34453,0.54642,-42.42,12.96,-9.24
0.89894,-10.174,0.6674,0.40867,-0.28161,0.81917,-42.36,12.24,-9.24
1.1986,-11.414,0.81722,0.53329,-0.13134,1.679,-42.36,11.52,-9.24
2.0431,-13.77,0.57205,0.63866,-0.069028,2.2657,-42.36,10.74,-9.12
2.5606,-14.928,0.46309,0.73579,-0.048564,2.777,-42.42,10.56,-9.06
2.833,-15.377,0.46309,0.78069,-0.021991,3.1368,-42.3,10.62,-8.82
3.3915,-15.704,0.46309,0.79596,0.088575,3.3576,-42.24,10.92,-8.64
3.732,-15.241,0.21793,0.84635,0.38423,3.4364,-42.06,11.34,-8.58
4.018,-14.424,-0.10896,0.95967,0.56963,3.343,-42.0,12.0,-8.7
4.6718,-12.667,-0.84446,1.098,0.66584,3.1209,-41.58,13.62,-8.94
4.8625,-11.713,-1.2531,1.1955,0.70921,2.7675,-41.34,14.64,-9.18
4.7944,-11.509,-1.6344,1.1405,0.72479,2.3082,-40.68,16.68,-9.48
4.3994,-11.509,-1.7162,0.70952,0.75931,1.5736,-40.32,17.88,-9.78
3.9635,-10.978,-1.7979,0.3149,0.88453,1.2019,-40.08,18.84,-9.66
3.732,-10.42,-1.7298,0.0281,1.15,0.94592,-39.6,19.92,-9.78
3.0237,-8.2812,-1.3893,-0.12675,1.474,0.78191,-38.76,21.78,-10.08
3.0237,-7.7636,-1.2531,-0.17929,1.8085,0.66829,-38.1,22.68,-10.26
3.1599,-7.4231,-1.1305,-0.2306,2.0733,0.6127,-37.62,23.58,-10.56
3.623,-6.9736,-1.0624,-0.29658,2.065,0.64416,-36.48,25.2,-11.28
3.8954,-6.3879,-0.96704,-0.33078,1.8497,0.67378,-35.82,25.92,-11.46
3.9771,-6.0611,-0.95342,-0.33628,1.6985,0.68142,-35.1,26.46,-11.64
3.8137,-5.2166,-0.83084,-0.32315,1.3341,0.64599,-33.66,27.78,-12.18
3.6094,-4.8488,-0.88532,-0.31215,1.233,0.57605,-32.88,28.2,-12.36
3.5822,-4.7944,-0.85808,-0.26939,1.1961,0.4893,-32.1,28.68,-12.6
3.732,-5.9249,-1.0215,-0.21961,1.1426,0.37935,-30.6,29.16,-13.08
3.7865,-6.5786,-0.99429,-0.21075,1.1124,0.34178,-29.76,29.52,-13.5
3.8273,-7.1507,-0.91256,-0.22663,1.1066,0.32406,-29.1,29.76,-13.8
4.018,-8.0224,-0.85808,-0.20036,1.0501,0.26909,-28.26,30.12,-14.1
4.413,-8.9486,-0.88532,-0.12004,0.96792,0.24251,-26.94,30.78,-14.76
4.4539,-9.2891,-0.8036,0.054062,0.78985,0.18815,-26.46,31.02,-15.06
4.6173,-10.42,-0.64016,0.10721,0.71593,0.17379,-25.2,31.5,-15.48
4.8625,-11.25,-0.6674,0.28008,0.46487,0.12217,-24.66,31.62,-15.84
5.0259,-11.863,-0.57205,0.42272,0.28283,0.10507,-24.36,31.74,-16.26
5.0531,-12.531,-0.55843,0.57482,0.11179,0.088881,-23.52,31.8,-16.74
5.1621,-12.503,-0.40861,0.68234,-0.045815,0.047647,-23.16,31.74,-17.04
5.4073,-12.64,-0.55843,0.78221,-0.28191,0.041539,-22.92,31.8,-17.28
6.2654,-12.871,-0.99429,0.92607,-0.92638,0.086743,-22.44,31.68,-17.94
6.674,-12.544,-1.1713,0.95142,-1.5235,0.08827,-22.26,31.56,-18.3
6.7829,-12.122,-1.1577,0.84788,-2.0944,-0.054672,-22.2,31.5,-18.54
6.4152,-11.387,-1.0215,0.55711,-2.4761,-0.38026,-22.32,31.38,-18.9
5.4481,-11.441,-0.39499,0.17074,-2.5736,-0.81276,-22.5,30.9,-19.38
5.1076,-11.754,-0.24517,-0.15821,-2.3815,-1.4074,-22.44,30.78,-19.5
4.6309,-12.081,0.27241,-0.39095,-2.251,-1.5638,-23.04,30.3,-19.38
4.2495,-12.136,0.42223,-0.56108,-1.9878,-1.8369,-23.58,30.06,-19.32
4.0861,-12.068,0.6674,-0.69211,-1.7098,-2.0491,-24.12,29.76,-19.02
3.6094,-11.754,0.85808,-0.85949,-1.2813,-2.2749,-25.5,29.22,-18.72
3.3097,-11.196,0.89894,-0.93676,-0.99388,-2.3961,-26.28,28.98,-18.48
3.1191,-10.665,0.98067,-0.98716,-0.70585,-2.489,-27.18,28.62,-18.36
2.9284,-9.793,1.1713,-1.0461,-0.33903,-2.5876,-29.1,27.84,-17.52
2.7922,-9.3163,1.2531,-1.0696,-0.19853,-2.5913,-30.06,27.48,-17.1
2.7513,-9.0439,1.2258,-1.0696,-0.16921,-2.5659,-31.14,26.94,-16.8
2.6696,-8.3765,1.362,-1.0372,-0.18509,-2.4844,-32.1,26.52,-16.38
2.4789,-7.7091,1.5119,-0.93585,-0.35125,-2.2736,-33.9,25.32,-15.54
2.1248,-7.1507,1.7298,-0.83261,-0.47678,-2.102,-35.58,24.12,-14.82
2.0567,-6.9328,1.6753,-0.67165,-0.58307,-1.8072,-36.42,23.34,-14.52
1.7025,-6.674,1.8251,-0.54,-0.57635,-1.591,-37.74,21.9,-14.04
1.4574,-7.0281,1.7298,-0.39492,-0.54398,-1.3427,-38.7,20.34,-13.26
1.362,-7.4912,1.7298,-0.23885,-0.49572,-1.0482,-39.6,18.78,-12.72
1.3076,-8.4174,1.6617,-0.10324,-0.44746,-0.69608,-40.32,17.52,-12.3
1.4301,-9.7249,1.58,0.029932,-0.39767,-0.2868,-40.56,16.44,-11.7
1.58,-11.128,1.5119,0.15516,-0.35827,0.16768,-41.04,15.6,-10.92
1.7298,-11.972,1.4438,0.35583,-0.31093,0.89095,-41.28,15.24,-10.56
1.9886,-12.967,1.1305,0.51679,-0.27428,1.3864,-41.7,14.7,-9.9
2.4108,-14.07,0.84446,0.67287,-0.24557,1.8787,-41.82,14.52,-9.3
2.8739,-14.724,0.50395,0.8265,-0.22449,2.3039,-42.0,14.7,-9.06
3.0101,-14.901,0.35413,0.90652,-0.16768,2.6166,-41.82,15.12,-9.12
3.0918,-14.928,0.16344,0.9276,-0.0076358,2.8393,-41.76,15.48,-9.12
3.2961,-14.288,-0.16344,0.92913,0.34941,2.8747,-41.52,16.5,-9.24
3.9227,-12.422,-0.57205,0.99143,0.5287,2.7642,-41.46,17.4,-9.12
4.127,-11.387,-0.98067,1.0299,0.58368,2.6808,-41.46,17.88,-9.12
4.2359,-11.21,-1.2531,1.1451,0.64782,2.2923,-41.22,18.48,-9.36
4.304,-11.223,-1.9477,1.0812,0.64355,2.0033,-40.5,20.1,-9.96
4.2768,-11.169,-2.0839,0.71563,0.64294,1.6002,-40.2,20.94,-10.32
3.5822,-9.8339,-2.2201,0.54978,0.67501,1.4826,-39.78,21.72,-10.68
3.2825,-8.8805,-2.0839,0.25015,0.8488,1.2578,-38.7,23.4,-11.4
3.1191,-7.9679,-2.1112,-0.021075,1.2617,1.0049,-38.1,24.18,-11.58
3.051,-7.2869,-1.8796,-0.08827,1.532,0.90775,-37.2,24.9,-11.76
3.1872,-6.96,-1.8932,-0.13195,1.6725,0.87965,-36.36,25.56,-12.0
3.8137,-6.2517,-1.9613,-0.18326,1.6518,0.89706,-34.86,26.94,-12.18
3.9227,-6.0747,-1.866,-0.31276,1.3748,0.90927,-33.72,27.54,-12.24
4.0316,-5.6116,-1.7434,-0.41508,1.1435,0.87659,-33.0,28.14,-12.42
3.9227,-5.3937,-1.4438,-0.45051,1.0489,0.84452,-31.98,28.5,-12.78
3.8137,-5.3528,-1.3484,-0.54672,0.96303,0.71654,-30.96,29.22,-13.14
3.6503,-5.884,-0.8717,-0.58338,1.0479,0.63163,-28.98,30.3,-13.44
3.6911,-6.2517,-0.72188,-0.58002,1.1713,0.54398,-28.02,30.78,-13.74
3.9227,-6.8919,-0.54481,-0.53451,1.2947,0.44532,-26.94,31.2,-13.86
4.3177,-8.0088,-0.28603,-0.49602,1.2947,0.41203,-26.04,31.62,-14.04
4.699,-8.7987,-0.20431,-0.37385,1.1814,0.33445,-24.36,32.28,-14.52
4.8488,-9.3299,-0.14982,-0.24709,0.98777,0.30635,-23.58,32.76,-14.88
5.0259,-9.7385,-0.027241,-0.062919,0.72143,0.29505,-22.92,33.18,-15.12
5.8976,-11.223,0.027241,0.17685,0.39615,0.30055,-21.66,33.72,-15.66
6.2109,-11.645,0.027241,0.60018,-0.22297,0.21136,-21.06,34.08,-16.02
6.7012,-12.136,-0.095342,0.84086,-0.63835,0.023213,-20.64,34.2,-16.2
6.6331,-13.675,-0.38137,0.95784,-0.94745,-0.22694,-19.68,34.5,-16.5
6.5922,-14.601,-0.57205,0.97738,-1.1139,-0.49358,-19.5,34.56,-16.68
6.8374,-14.942,-0.88532,0.93737,-1.2358,-0.72724,-19.26,34.56,-16.86
7.3822,-13.893,-1.0351,0.86712,-1.4395,-0.94409,-19.26,34.56,-17.28
7.1234,-12.667,-0.89894,0.62094,-1.817,-1.4716,-19.5,34.44,-17.52
6.3471,-11.768,-0.70826,0.35552,-1.8805,-1.9603,-19.74,34.14,-17.58
5.2847,-11.754,-0.39499,0.10507,-1.7712,-2.3576,-20.64,33.48,-17.4
5.2166,-12.0,-0.29965,-0.065363,-1.6628,-2.5858,-21.36,33.0,-17.34
5.3256,-12.149,-0.01362,-0.15974,-1.5818,-2.6258,-22.08,32.46,-17.22
5.6524,-12.204,0.095342,-0.20892,-1.6686,-2.62,-22.92,32.1,-17.04
6.1292,-12.027,0.64016,-0.36438,-1.9563,-2.6487,-25.44,30.9,-16.5
6.2245,-11.795,0.8036,-0.4441,-1.9887,-2.7019,-26.7,30.36,-16.38
6.0474,-11.482,0.85808,-0.76755,-1.8014,-2.9599,-28.02,29.64,-16.02
5.775,-10.937,0.96704,-0.978,-1.4719,-3.2083,-30.9,27.84,-15.06
5.4345,-10.501,1.0896,-1.1457,-1.1081,-3.4627,-32.28,26.88,-14.58
4.9033,-9.9292,1.2258,-1.2819,-0.74648,-3.6585,-33.48,25.92,-13.86
3.9908,-8.431,1.0488,-1.4041,-0.45693,-3.7577,-36.0,23.7,-12.48
3.6503,-7.8317,1.0079,-1.387,-0.29108,-3.5962,-37.08,22.5,-11.88
2.8875,-6.7693,0.92618,-1.2352,-0.31001,-3.3225,-38.22,21.3,-11.22
1.8115,-5.7069,0.99429,-1.033,-0.33781,-2.9651,-39.9,18.72,-10.08
1.1441,-5.0531,1.1032,-0.87018,-0.32987,-2.6014,-40.68,17.4,-9.48
0.69464,-4.6854,1.1305,-0.74739,-0.29016,-2.2077,-41.28,15.9,-8.94
0.24517,-4.3177,1.1441,-0.46853,-0.27855,-1.5632,-41.88,13.08,-7.92
0.16344,-4.5764,1.1577,-0.23854,-0.32345,-1.0522,-42.06,11.58,-7.32
0.16344,-5.2847,1.0896,0.029322,-0.38179,-0.45815,-42.18,10.14,-6.9
-0.054481,-5.7614,1.0488,0.2926,-0.42425,0.24007,-42.3,8.7,-6.6
0.14982,-8.0224,1.0624,0.56291,-0.4612,0.99999,-42.48,6.18,-5.58
0.39499,-9.6568,0.92618,0.80298,-0.53665,1.8283,-42.6,5.1,-5.16
0.70826,-11.741,0.70826,0.92332,-0.58918,2.6698,-42.42,4.26,-4.8
1.866,-15.949,0.40861,1.2251,-0.55925,3.9361,-42.54,3.06,-4.26
2.3836,-17.08,0.1362,1.47,-0.43677,4.6493,-42.48,2.82,-3.96
2.6423,-17.747,-0.027241,1.7174,-0.23152,5.149,-42.42,2.82,-3.78
3.8001,-19.477,-0.38137,1.9041,0.069944,5.4718,-42.36,3.66,-3.3
4.5492,-19.532,-0.62654,2.0101,0.34178,5.6108,-42.42,4.38,-3.24
5.2847,-19.082,-1.2531,2.0134,0.55467,5.5296,-42.42,5.46,-3.24
5.5707,-15.636,-1.2258,1.8445,0.75167,5.1429,-42.0,8.34,-3.6
5.3119,-13.648,-1.1169,1.467,1.0495,4.4779,-41.7,10.08,-3.78
5.2302,-13.089,-1.1169,0.96181,1.4511,3.561,-41.22,11.94,-4.08
5.2575,-12.34,-1.3348,0.33811,2.0516,2.2214,-39.72,15.96,-4.92
5.1757,-12.149,-1.2258,0.064141,2.401,1.6631,-39.06,17.82,-5.4
5.1894,-11.618,-0.74912,-0.27184,2.7184,1.1949,-37.2,21.96,-6.12
5.3392,-9.6977,-0.54481,-0.38118,2.6334,1.0055,-36.06,23.82,-6.66
5.1485,-8.5808,-0.47671,-0.38546,2.5397,0.93462,-34.98,25.5,-7.32
5.1621,-7.927,-0.65378,-0.33475,2.3634,0.86437,-33.78,27.18,-7.92
5.1213,-6.2381,-0.78998,-0.17898,2.0327,0.75961,-31.08,30.18,-9.06
4.9578,-5.598,-0.78998,-0.16005,1.8167,0.63591,-29.52,31.5,-9.48
4.8761,-5.2983,-0.7355,-0.19609,1.6499,0.46945,-28.14,32.58,-10.08
4.5356,-4.8761,-0.47671,-0.26786,1.4841,0.19792,-25.56,34.26,-10.92
4.4402,-4.8897,-0.40861,-0.25504,1.398,0.062003,-24.24,34.98,-11.22
4.4402,-4.9033,-0.36775,-0.22724,1.3393,0.0067195,-23.04,35.52,-11.64
4.5083,-5.5435,-0.57205,-0.055283,1.058,-0.054672,-21.3,36.54,-12.3
4.6718,-6.0883,-0.85808,0.10049,0.79077,-0.027489,-20.28,37.02,-12.6
4.7263,-6.6331,-1.185,0.30543,0.46181,0.019853,-19.56,37.26,-12.96
4.9578,-8.717,-1.866,0.47037,0.12401,0.1069,-18.18,37.62,-13.5
4.985,-9.9565,-1.9205,0.53634,-0.30116,0.13958,-17.64,37.86,-13.68
4.9714,-10.801,-1.9341,0.45968,-0.41905,0.12645,-17.04,37.92,-13.98
4.9033,-12.313,-1.58,0.39706,-0.41966,0.10293,-16.62,38.04,-14.34
5.0395,-13.348,-1.1713,0.31734,-0.20953,-0.049786,-16.38,38.16,-15.0
5.38,-13.362,-1.0215,0.40745,-0.029016,-0.19731,-16.26,38.22,-15.18
6.0066,-13.593,-1.0079,0.57269,0.024129,-0.38179,-16.02,38.04,-15.3
6.5514,-14.261,-0.85808,0.73182,-0.32376,-0.65363,-16.2,37.92,-16.02
6.9464,-14.533,-1.2258,0.75961,-0.84666,-0.77519,-16.44,37.68,-16.26
7.1779,-13.893,-1.4301,0.7309,-1.5113,-0.89583,-16.44,37.38,-16.56
6.5922,-12.204,-1.2531,0.5901,-2.1292,-1.1164,-16.92,36.78,-17.1
5.7614,-11.741,-1.0624,0.3149,-2.4694,-1.4462,-17.4,36.36,-17.46
4.6037,-12.395,-0.40861,-0.038485,-2.4795,-1.8204,-18.06,36.18,-17.7
4.304,-12.817,-0.1362,-0.46853,-2.2403,-2.2104,-19.62,35.46,-17.94
3.8954,-12.939,0.24517,-0.66157,-2.0351,-2.3402,-20.82,35.1,-17.82
3.6639,-12.994,0.36775,-0.82742,-1.7578,-2.3973,-22.08,34.68,-17.7
3.0646,-12.395,0.76274,-0.96761,-1.4099,-2.4086,-24.54,33.72,-17.52
2.833,-11.741,0.89894,-1.0834,-1.0382,-2.4114,-25.8,33.12,-17.4
2.6696,-11.06,0.9398,-1.153,-0.64385,-2.4294,-27.18,32.76,-17.28
2.5879,-9.8339,1.1169,-1.1762,-0.13073,-2.4813,-30.12,31.56,-16.92
2.6015,-9.3708,1.1577,-1.1698,-0.0051924,-2.4874,-31.62,31.02,-16.74
2.6423,-9.0712,1.2803,-1.1426,0.14997,-2.4841,-33.18,30.36,-16.62
2.6968,-7.8726,1.3212,-1.0965,0.077885,-2.441,-36.36,28.92,-16.26
2.6968,-7.3005,1.4029,-1.0195,-0.11057,-2.3491,-37.74,28.38,-16.14
2.5606,-6.8783,1.6072,-0.83872,-0.44318,-2.2061,-40.44,26.82,-15.78
2.0294,-6.0747,1.7298,-0.71685,-0.59162,-2.0754,-41.58,26.16,-15.66
1.6208,-5.7342,1.8796,-0.65882,-0.63286,-2.0046,-42.66,25.32,-15.6
1.4574,-5.6797,1.8932,-0.52718,-0.64874,-1.8173,-43.5,24.36,-15.6
0.89894,-5.6933,1.8796,-0.29291,-0.57666,-1.4178,-45.42,22.62,-15.24
0.7355,-5.8295,1.8932,-0.12584,-0.51282,-1.0666,-46.26,21.72,-15.06
0.69464,-5.9657,1.7706,0.13867,-0.43952,-0.37751,-47.82,19.86,-14.82
0.76274,-6.7285,1.6344,0.32437,-0.40745,0.11912,-48.48,19.02,-14.58
0.92618,-7.4912,1.5119,0.51588,-0.40439,0.64019,-48.96,18.12,-14.28
1.1577,-8.9349,1.4301,0.72632,-0.40225,1.1723,-49.56,17.4,-13.98
1.4574,-10.583,1.185,0.9447,-0.4328,1.7342,-49.86,16.74,-13.68
2.1929,-14.451,0.7355,1.1674,-0.51007,2.3616,-50.7,15.9,-13.32
2.833,-16.481,0.43585,1.3867,-0.60995,2.9899,-50.88,15.78,-13.2
3.337,-17.856,0.14982,1.5556,-0.6973,3.5274,-51.06,15.66,-13.08
3.4596,-18.469,0.16344,1.671,-0.63988,3.8634,-51.24,16.08,-12.9
3.6775,-18.769,0.040861,1.7229,-0.20159,4.0519,-51.12,16.56,-12.72
4.1133,-18.265,-0.43585,1.7315,-0.0033598,4.0503,-50.88,17.4,-12.78
5.1757,-15.445,-1.4301,1.8243,0.41386,3.8842,-49.98,19.62,-12.96
5.4481,-13.307,-1.8115,1.8528,0.49999,3.5378,-49.38,20.76,-13.08
5.3664,-10.91,-2.3291,1.7434,0.56536,2.9636,-47.76,23.46,-13.2
4.9442,-10.27,-2.438,1.2379,0.78282,1.7327,-46.92,25.14,-13.56
4.1814,-10.12,-2.6015,0.72846,1.0403,0.94837,-45.9,26.64,-13.62
3.9227,-10.174,-2.547,0.44776,1.2138,0.66737,-44.76,28.2,-13.86
3.2825,-9.2891,-2.1929,-0.26725,1.8076,0.16738,-42.18,30.96,-14.1
3.3097,-8.4991,-1.9341,-0.55283,2.1875,0.059254,-40.86,32.22,-14.22
3.4459,-7.6819,-1.6208,-0.67165,2.3699,0.069944,-39.42,33.36,-14.4
3.7592,-6.0066,-1.3076,-0.66493,2.2938,0.1686,-36.6,35.46,-14.82
3.7456,-5.203,-1.1032,-0.60231,2.1423,0.23885,-35.22,36.3,-15.18
3.8137,-4.7535,-1.076,-0.54214,1.9285,0.29566,-33.9,36.9,-15.54
3.909,-4.6309,-1.0079,-0.50305,1.6881,0.29505,-32.58,37.5,-15.66
3.732,-5.0668,-0.7355,-0.49419,1.5076,0.2697,-30.06,38.52,-16.08
3.8001,-5.3664,-0.50395,-0.45082,1.5085,0.17074,-28.74,39.0,-16.32
4.4402,-5.6661,-0.47671,-0.37996,1.5171,0.15882,-26.7,39.54,-16.74
4.7399,-6.0202,-0.64016,-0.11148,1.2022,0.11362,-25.62,39.96,-16.92
4.7671,-6.4288,-0.72188,-0.032681,0.9954,0.1124,-24.9,40.14,-17.28
4.5083,-8.6081,-0.89894,0.17043,0.37263,0.18143,-23.22,40.74,-17.88
4.6582,-9.9565,-1.185,0.25412,0.047647,0.23579,-22.68,41.04,-18.18
4.8897,-10.992,-1.2531,0.31337,-0.32132,0.36072,-22.08,41.4,-18.42
4.6445,-12.136,-1.076,0.32559,-0.52687,0.52382,-21.12,41.76,-18.9
4.6582,-12.463,-0.72188,0.34758,-0.35858,0.43891,-20.64,42.0,-19.2
4.9033,-12.572,-0.6674,0.37232,-0.27245,0.35155,-20.22,42.06,-19.32
5.6388,-12.476,-0.54481,0.51129,-0.20433,0.066279,-19.62,42.24,-19.86
6.1292,-12.803,-0.53119,0.59559,-0.37813,-0.083078,-19.44,42.42,-20.1
6.9191,-13.92,-0.70826,0.61972,-0.821,-0.25198,-19.44,42.3,-20.4
7.3141,-13.443,-0.70826,0.51526,-1.7174,-0.58674,-19.38,42.42,-21.12
6.6876,-12.231,-0.38137,0.44838,-1.9801,-0.74556,-19.62,42.24,-21.6
6.1155,-11.577,-0.27241,0.21014,-2.3027,-1.1643,-20.04,42.12,-21.9
4.8625,-11.073,0.20431,-0.20678,-2.2947,-1.8323,-21.48,42.18,-22.38
4.6445,-11.577,0.24517,-0.42241,-2.1658,-2.1826,-22.14,42.0,-22.56
4.3449,-12.054,0.38137,-0.57971,-2.0937,-2.3741,-23.16,41.82,-22.68
3.6639,-12.449,0.76274,-0.78618,-1.949,-2.4233,-25.8,41.52,-22.92
3.2553,-12.367,1.0488,-0.86315,-1.876,-2.4114,-27.36,41.28,-22.74
2.8739,-12.163,1.2667,-1.0504,-1.4655,-2.3375,-29.16,41.04,-22.74
2.3836,-11.346,1.3484,-1.1417,-1.0492,-2.2593,-32.94,40.32,-22.02
2.2474,-10.488,1.4165,-1.1808,-0.60231,-2.1707,-34.98,39.96,-21.6
2.2474,-9.4117,1.4982,-1.168,-0.23702,-2.0895,-37.08,39.66,-21.12
2.5198,-8.145,1.5119,-1.1139,-0.019853,-1.996,-41.4,38.7,-19.86
2.6151,-7.464,1.5527,-1.0458,0.05284,-1.9719,-43.62,38.16,-19.08
2.6832,-7.2324,1.58,-0.95692,-0.018631,-1.8995,-45.6,37.38,-18.3
2.6423,-6.9328,1.6753,-0.81153,-0.28741,-1.7657,-47.7,36.6,-17.64
2.3836,-6.6331,1.8932,-0.71716,-0.47586,-1.6561,-51.36,34.92,-16.14
2.0703,-6.5105,1.9886,-0.61911,-0.60995,-1.5033,-53.1,33.9,-15.36
1.8387,-6.4288,2.0703,-0.49786,-0.66035,-1.3256,-56.1,31.8,-13.92
1.5391,-6.3471,2.1929,-0.26389,-0.64019,-0.98135,-57.36,30.72,-13.26
1.471,-6.4833,2.2201,-0.072693,-0.61392,-0.697,-58.56,29.7,-12.3
1.471,-6.565,2.1929,0.023824,-0.60109,-0.53634,-59.64,28.56,-11.7
1.471,-7.1779,1.9477,0.32254,-0.58215,-0.012523,-61.38,26.28,-10.38
1.6208,-7.3141,1.866,0.55192,-0.5678,0.33384,-62.22,25.2,-9.78
1.9477,-7.8453,1.5391,0.87995,-0.57208,0.78313,-63.6,23.34,-8.58
1.8796,-9.0031,1.3212,0.99327,-0.57574,0.90683,-64.08,22.5,-7.98
2.0567,-10.42,1.0624,1.3317,-0.60964,1.3302,-64.44,21.96,-7.44
2.2882,-12.204,0.69464,1.4368,-0.64996,1.4972,-64.68,21.42,-6.96
2.4653,-14.22,0.12258,1.7795,-0.821,2.1557,-64.98,21.18,-6.54
3.0782,-18.224,-0.36775,1.934,-0.93493,2.6487,-65.28,21.12,-5.82
3.051,-19.191,-0.35413,1.8247,-0.76053,3.2211,-65.16,21.54,-5.34
3.2553,-19.504,-0.28603,1.7196,-0.57574,3.3399,-64.5,22.92,-4.92
3.5685,-18.319,-0.61292,1.5101,0.1237,3.4199,-63.96,23.88,-4.92
3.9635,-17.162,-0.96704,1.5314,0.31673,3.3824,-63.24,25.08,-5.04
4.9442,-13.103,-2.1112,1.8124,0.61392,3.0406,-61.68,27.84,-5.34
5.1894,-11.564,-2.5606,1.9539,0.5733,2.6417,-60.72,29.34,-5.58
5.094,-10.529,-2.8603,1.8662,0.45448,2.1362,-59.46,31.02,-5.88
4.0589,-9.3572,-2.9284,1.4453,0.32926,1.5666,-56.64,34.14,-6.6
3.3506,-8.9758,-2.6423,0.74312,0.31276,1.0809,-55.14,35.76,-7.08
2.8875,-8.7851,-2.3972,0.0073304,0.51893,0.7422,-53.58,37.32,-7.38
2.3155,-8.0496,-1.5119,-0.79229,1.2269,0.46181,-50.04,40.08,-8.04
2.3836,-7.4095,-0.8717,-1.065,1.8317,0.4105,-48.42,41.46,-8.34
2.9011,-6.7285,-0.35413,-1.1017,2.3271,0.38332,-46.68,42.6,-8.64
3.6503,-5.775,0.24517,-0.89583,2.7455,0.28069,-43.5,44.4,-9.48
4.127,-5.38,0.35413,-0.69272,2.7535,0.15424,-41.82,45.12,-9.78
4.4811,-5.2983,0.36775,-0.48564,2.5045,-0.016493,-40.38,45.84,-10.02
5.1213,-5.2847,-0.1362,-0.29749,2.0272,-0.1854,-37.68,46.92,-10.62
5.203,-5.4481,-0.40861,-0.13744,1.3818,-0.3204,-36.42,47.22,-10.74
4.985,-5.6388,-0.55843,-0.044899,0.72815,-0.41783,-35.28,47.52,-10.98
4.0725,-6.2654,-0.81722,0.023518,0.18479,-0.57208,-33.9,48.06,-11.58
3.8137,-6.6604,-0.95342,0.03543,0.13225,-0.62247,-33.36,48.18,-11.76
3.4187,-7.0009,-1.1441,0.029322,0.16616,-0.72235,-32.88,48.3,-11.88
3.2961,-7.9543,-1.1713,-0.03146,0.40867,-0.85765,-32.28,48.24,-12.36
3.3642,-8.2812,-1.1986,-0.076053,0.52473,-0.96425,-32.28,48.0,-12.6
3.3642,-8.7579,-1.1305,-0.12981,0.60079,-1.0214,-32.4,47.94,-12.9
3.3506,-9.793,-1.0624,-0.1631,0.56566,-1.0818,-32.7,47.52,-13.38
3.2825,-10.12,-0.76274,-0.12004,0.43494,-1.0934,-33.06,47.22,-13.5
3.3097,-10.351,-0.69464,-0.080634,0.32865,-1.0773,-33.48,46.86,-13.8
2.7377,-10.243,-1.1577,0.18784,-0.41569,-1.1277,-34.62,46.02,-14.16
1.8387,-10.365,-1.7162,0.44318,-1.0968,-1.066,-35.34,45.54,-14.4
0.027241,-10.542,-2.0158,0.56627,-1.5882,-0.87904,-36.24,45.0,-14.58
-2.547,-11.141,-1.3484,0.42608,-0.99082,-0.17807,-37.8,43.62,-14.46
-2.5061,-11.264,-1.185,0.30849,0.36682,0.3708,-38.64,43.14,-14.58
-1.5391,-11.155,-0.92618,0.24771,1.0327,0.59926,-39.36,42.54,-14.76
1.8387,-11.182,-0.7355,0.18723,2.0427,0.88545,-40.74,41.76,-14.82
3.1054,-11.441,-0.6674,0.29719,1.9887,1.0131,-41.28,41.28,-15.12
4.0044,-12.749,-0.42223,0.32193,1.562,1.1936,-41.64,40.86,-15.36
4.7263,-14.587,-0.068102,0.19059,0.71257,1.5721,-42.18,40.62,-16.02
5.2711,-14.247,0.28603,0.16005,0.030238,1.8335,-42.24,40.56,-16.38
5.5435,-13.634,0.28603,0.21655,-0.32437,1.923,-42.24,40.68,-16.56
5.7478,-12.177,0.14982,0.52565,-1.12,1.9102,-41.94,40.8,-16.86
5.5843,-10.351,0.01362,0.66432,-1.3955,1.6729,-41.22,41.16,-17.64
5.5435,-9.9837,0.01362,0.62614,-1.5314,1.2553,-40.68,41.4,-17.94
5.6661,-9.9156,0.01362,0.40806,-1.6927,0.75503,-39.6,42.36,-18.54
5.8023,-9.6704,0.095342,0.011606,-2.1399,0.17318,-39.12,42.72,-18.6
5.6661,-9.5206,0.24517,-0.14783,-2.5122,-0.071777,-38.7,43.08,-18.72
5.4754,-9.3436,0.40861,-0.24679,-2.7825,-0.26114,-38.28,43.38,-18.72
4.9442,-8.717,0.50395,-0.32223,-2.8793,-0.41081,-37.92,44.16,-18.42
4.8352,-9.221,0.51757,-0.43188,-2.8366,-0.5678,-37.86,44.46,-18.0
4.699,-9.9429,0.64016,-0.63958,-2.7064,-0.74128,-37.98,44.64,-17.16
4.6037,-10.202,0.70826,-1.0214,-2.4166,-0.94776,-38.94,44.88,-15.36
4.3449,-10.202,1.0488,-1.2404,-2.1008,-1.1252,-39.54,44.7,-14.34
4.127,-10.243,1.2122,-1.4612,-1.6313,-1.3451,-40.26,44.52,-13.08
3.9499,-10.215,1.4846,-1.6191,-1.069,-1.5797,-41.1,44.28,-11.76
3.9635,-10.12,1.7979,-1.7068,-0.53206,-1.8228,-43.02,43.38,-8.88
4.018,-10.134,1.9477,-1.7315,-0.13225,-2.1451,-44.1,42.78,-7.2
4.2359,-10.052,2.3972,-1.6893,0.10812,-2.2156,-46.02,41.04,-4.32
4.2632,-9.9429,2.6423,-1.6249,0.1857,-2.3384,-47.04,40.14,-2.76
4.304,-9.8475,2.6151,-1.5015,0.13103,-2.4239,-48.06,39.0,-1.44
3.9499,-9.4798,2.6968,-1.2401,-0.1295,-2.4471,-49.74,36.3,1.32
3.7456,-9.1665,2.656,-1.0281,-0.35827,-2.3766,-50.46,34.92,2.46
3.6094,-8.826,2.656,-0.81581,-0.60445,-2.2504,-51.0,33.42,3.54
3.4459,-8.5127,2.7649,-0.71227,-0.72876,-2.1716,-51.66,31.86,4.32
3.4459,-8.5127,2.7649,-0.51007,-0.96242,-2.0027,-51.66,31.86,4.32
3.4459,-8.5127,2.7649,-0.51007,-0.96242,-2.0027,-51.66,31.86,4.32
2.6287,-7.9951,2.7377,-0.0094684,-1.2236,-1.3561,-52.98,24.96,7.62
2.3427,-7.4503,2.5742,0.16035,-1.1414,-1.1182,-53.16,21.66,8.88
2.2882,-7.1643,2.3427,0.33445,-1.025,-0.87629,-52.98,20.16,9.18
2.3699,-7.0145,2.1384,0.50549,-0.92852,-0.67806,-52.92,18.72,9.6
2.9011,-6.9191,1.3484,0.69394,-0.92088,-0.48319,-52.26,16.2,10.44
3.1599,-7.1371,0.99429,0.93829,-1.0846,-0.27397,-51.96,15.12,10.86
3.3506,-7.7227,0.54481,1.3757,-1.6151,0.038179,-51.54,14.16,11.16
3.337,-8.8532,-0.14982,1.5904,-2.0018,0.2587,-50.76,13.02,12.18
3.1872,-9.2482,-0.50395,1.7199,-2.2926,0.50885,-50.4,12.54,12.66
2.6423,-10.093,-0.88532,1.7318,-2.3925,0.73487,-49.2,12.12,14.04
2.3155,-10.529,-1.1032,1.6197,-2.1185,1.0177,-48.48,12.18,14.82
2.1656,-10.692,-1.2531,1.5623,-1.916,1.0983,-47.88,12.36,15.36
2.2201,-11.032,-1.6889,1.4337,-1.1133,1.2831,-46.62,13.08,16.62
2.4517,-10.801,-1.8524,1.3241,-0.47556,1.3387,-45.96,13.62,17.16
2.9011,-9.4389,-1.975,1.2306,0.10232,1.3021,-45.36,14.16,17.82
3.7047,-7.75,-2.1248,1.2049,0.49358,1.0308,-44.16,15.6,18.9
4.127,-8.0496,-2.1793,1.1805,0.6295,0.73426,-43.68,16.26,19.44
4.413,-9.0439,-2.2882,1.1243,0.57055,0.59956,-43.2,17.1,19.86
4.5083,-9.793,-2.3563,0.87842,0.15088,0.41172,-42.66,17.88,20.28
4.6445,-10.134,-2.2882,0.73915,-0.24282,0.47128,-42.06,18.6,20.64
4.0725,-9.9973,-1.6344,0.67317,-0.57879,0.57941,-40.98,19.92,21.24
3.732,-9.6977,-1.5391,0.64507,-0.65699,0.65027,-40.5,20.58,21.48
3.4323,-8.6081,-1.1305,0.61178,-0.51588,0.65851,-39.96,21.12,21.48
3.6366,-8.1313,-1.1577,0.64324,-0.33201,0.65485,-39.06,22.14,21.42
4.0316,-7.9679,-1.1577,0.73029,-0.21961,0.69333,-38.46,22.62,21.48
4.522,-8.1858,-1.2803,0.9499,-0.43616,0.79932,-37.98,23.1,21.36
5.2983,-8.8668,-1.6072,1.0449,-0.87048,0.88301,-37.08,24.24,21.12
5.598,-9.3163,-1.8524,1.066,-1.7119,0.97983,-36.36,24.72,21.12
5.8704,-9.902,-1.9613,1.0479,-1.9871,0.97616,-34.86,25.56,20.94
5.6797,-10.12,-2.152,1.0354,-2.434,0.89675,-34.02,26.04,21.06
5.3119,-10.42,-2.0975,0.93462,-2.7031,0.57849,-33.24,26.64,21.18
4.4811,-10.637,-2.0567,0.6918,-2.5339,0.2642,-31.26,27.66,21.42
3.8818,-10.569,-1.9886,0.36408,-2.1612,-0.078802,-30.18,28.02,21.42
3.6503,-10.052,-1.9341,-0.13164,-1.4737,-0.55008,-28.26,28.92,21.6
3.2144,-9.6704,-1.7162,-0.39737,-1.084,-0.75625,-27.24,29.28,21.72
3.0646,-9.2482,-1.5391,-0.50152,-0.93279,-0.81581,-26.4,29.7,21.84
2.9692,-8.8668,-1.3893,-0.67745,-0.67989,-0.87537,-25.56,29.94,21.9
2.8603,-8.3493,-1.0896,-0.81673,-0.42669,-0.82711,-24.0,30.06,22.38
2.8603,-8.4446,-1.0624,-0.87873,-0.34178,-0.7419,-23.28,30.12,22.44
2.9011,-8.5808,-0.8036,-0.9279,-0.30268,-0.61209,-22.68,30.18,22.68
2.9692,-8.8124,-0.10896,-1.007,-0.22785,-0.41417,-21.66,30.0,23.22
3.0646,-8.7715,0.068102,-1.0201,-0.20495,-0.3488,-21.24,29.82,23.46
3.1191,-8.8124,0.44947,-1.0259,-0.15516,-0.19609,-21.0,29.4,23.58
3.4051,-8.7987,1.076,-0.93004,-0.083689,0.080634,-20.82,28.92,23.94
3.8137,-8.6217,1.5663,-0.77763,-0.069028,0.29719,-20.88,28.56,24.06
4.3449,-8.5536,2.0158,-0.57849,-0.12004,0.5397,-20.82,28.26,24.12
5.489,-9.5206,2.656,-0.20159,-0.31307,0.88026,-20.64,27.84,24.36
6.2245,-10.855,3.0101,0.072998,-0.56597,1.0721,-20.52,27.6,24.36
7.1371,-11.986,3.1599,0.34422,-0.89461,1.241,-20.52,27.48,24.6
8.1041,-11.782,2.9556,0.68631,-1.3766,1.3292,-20.34,27.3,24.48
9.4525,-9.398,2.4789,1.0617,-2.0861,1.2382,-19.74,27.36,24.54
9.8339,-8.431,2.4925,1.3314,-2.9691,0.91905,-19.38,27.42,24.48
9.5615,-8.7715,2.9148,1.3482,-3.861,0.35797,-18.78,27.72,24.36
8.322,-10.161,3.2008,0.95081,-4.9321,-0.53695,-17.22,28.26,24.06
7.5321,-10.924,3.4187,0.67928,-5.2867,-0.96333,-16.2,28.74,23.88
7.0962,-11.387,3.5277,0.53206,-5.3154,-1.2642,-14.88,29.04,23.76
5.6797,-11.795,3.5685,0.47831,-5.0063,-1.4933,-12.36,29.82,23.46
5.2438,-11.55,3.3778,0.44196,-4.4679,-1.6744,-11.04,30.18,23.16
5.0259,-11.455,2.8058,0.35491,-3.8225,-1.8653,-9.78,30.72,23.1
4.9306,-11.795,2.833,0.022907,-2.9712,-2.1686,-7.26,31.74,22.44
4.9033,-12.354,2.9965,-0.27642,-2.5788,-2.3372,-5.88,32.34,22.08
4.699,-12.572,3.2961,-0.41692,-2.4306,-2.3983,-4.74,32.94,21.9
4.4811,-12.408,3.4459,-0.65821,-2.0632,-2.4725,-3.84,33.6,21.54
3.9908,-11.673,3.5413,-0.64294,-1.8063,-2.4123,-2.04,34.56,20.76
3.8137,-11.427,3.5958,-0.54672,-1.4881,-2.2336,-1.56,34.74,20.46
3.8682,-10.801,3.514,-0.34453,-1.3894,-2.1194,-0.84,35.7,19.92
3.8818,-10.147,3.4187,-0.1857,-1.4047,-2.029,-0.72,36.06,19.74
3.8273,-9.8203,3.2008,-0.10507,-1.4419,-1.9963,-0.78,36.54,19.44
3.4323,-8.9213,2.8058,0.091324,-1.5565,-1.8836,-1.5,37.44,18.78
3.1599,-8.6217,2.6968,0.18479,-1.6002,-1.821,-1.92,37.92,18.6
2.9284,-8.2948,2.3563,0.28039,-1.5773,-1.6973,-3.0,38.52,18.24
2.4925,-7.9134,2.1793,0.38576,-1.5201,-1.5925,-3.6,38.88,18.06
2.438,-7.7636,1.9341,0.5229,-1.4633,-1.4991,-4.26,39.18,17.88
2.3155,-7.6138,1.6344,0.69089,-1.4175,-1.3931,-4.8,39.42,17.52
2.2201,-7.641,1.3757,0.8375,-1.3705,-1.263,-5.28,39.66,17.46
1.9068,-8.9758,0.65378,0.98074,-1.3363,-1.077,-6.36,40.2,17.22
1.6889,-9.5751,0.44947,1.127,-1.3286,-0.81612,-6.72,40.74,17.04
1.471,-10.719,0.081722,1.3137,-1.3045,-0.26786,-7.14,41.04,16.68
0.89894,-12.136,-0.24517,1.3576,-1.2663,-0.038485,-7.44,41.34,16.32
0.38137,-13.116,-0.21793,1.4157,-0.88698,0.78954,-8.04,41.94,15.54
0.24517,-14.165,-0.28603,1.434,-0.41569,1.4661,-8.1,42.36,15.12
0.64016,-14.792,-0.49033,1.4789,0.11332,2.2156,-8.16,42.78,14.58
2.5742,-13.675,-1.0351,1.5977,0.47953,2.8509,-7.86,43.62,13.32
3.228,-13.321,-1.2258,1.8243,0.52657,3.2489,-7.5,43.98,12.6
4.3449,-13.089,-1.4438,2.0736,0.14264,3.2773,-7.02,44.22,11.82
5.0531,-13.348,-1.0215,2.0131,-0.18448,2.9584,-5.64,44.82,10.2
5.0804,-13.743,-0.76274,1.7061,-0.44074,2.3802,-4.68,44.94,9.24
4.6309,-14.07,-0.35413,1.1417,-0.54214,1.6286,-3.84,45.24,8.34
2.8739,-13.253,0.068102,0.49144,-0.35277,0.84269,-1.86,45.36,6.3
2.2201,-12.64,0.1362,-0.21961,0.56108,-0.045204,-0.9,45.48,5.64
0.5993,-10.065,-0.027241,-0.33628,0.95142,-0.22052,-0.24,45.6,4.92
0.29965,-8.8668,-0.21793,-0.36652,1.7303,-0.33475,1.5,45.6,3.6
0.83084,-7.6002,-0.47671,-0.20586,2.387,-0.1689,2.22,45.48,3.36
1.7298,-7.0417,-0.92618,0.21197,2.4508,0.37385,2.82,45.24,3.18
3.2961,-6.0474,-1.5119,0.4331,1.8024,0.70585,4.02,44.76,2.88
3.7047,-6.3198,-2.3155,0.26878,0.70188,0.83841,4.5,44.52,2.94
4.304,-5.9793,-2.4244,0.12309,0.40653,0.75472,5.34,44.22,3.24
3.5277,-6.4288,-2.438,-0.022297,-0.10049,0.89003,5.76,44.16,3.66
4.0861,-6.1836,-1.6072,0.026267,-0.37843,0.84819,5.94,43.92,3.9
3.4596,-6.2654,-1.2531,0.17776,-0.80298,0.93768,6.18,43.8,4.2
2.5606,-7.3414,-1.4165,-0.096822,-0.33201,0.94531,6.9,43.56,4.74
2.8194,-7.1507,-1.2122,-0.30788,0.52626,0.58002,7.38,43.38,4.98
3.2144,-7.1507,-0.84446,-0.37904,0.68936,0.44654,7.86,43.14,5.16
3.7865,-7.4503,-0.74912,-0.45723,0.96181,0.24343,8.7,42.96,5.46
4.1678,-7.4503,-0.6674,-0.44074,1.0195,-0.012523,9.24,42.84,5.4
4.3721,-7.5321,-0.6674,-0.31979,0.75472,-0.15272,10.38,42.72,5.64
4.3585,-8.9622,-0.95342,-0.21716,0.45265,-0.24771,10.68,42.72,5.58
4.2768,-9.7658,-1.076,-0.14233,0.20556,-0.29322,11.04,42.66,5.58
3.8273,-11.06,-0.92618,-0.18723,0.012828,-0.36072,11.46,42.66,5.52
3.514,-11.618,-0.61292,-0.26817,0.073915,-0.41447,11.52,42.54,5.58
3.3506,-11.836,-0.31327,-0.30421,0.14783,-0.4328,11.58,42.72,5.64
3.5958,-11.809,0.23155,-0.23274,0.36255,-0.37507,11.58,42.78,6.0
4.0452,-11.536,0.32689,0.032681,0.24954,-0.21502,11.34,42.78,6.24
4.413,-11.06,0.21793,0.38912,-0.11729,0.0064141,11.1,42.9,6.42
4.7944,-10.774,-0.21793,0.87445,-0.88942,0.39095,10.92,43.08,6.54
5.2575,-11.032,-0.54481,0.98105,-1.1939,0.50977,11.04,43.2,6.66
5.884,-11.141,-0.92618,1.1255,-1.8977,0.72082,11.04,43.38,6.6
6.3743,-10.774,-1.0488,1.0843,-3.0705,0.84513,10.86,43.74,5.94
5.9521,-10.706,-0.6674,0.77183,-3.6124,0.70616,11.04,43.8,5.52
5.3937,-11.101,-0.068102,-0.033598,-3.7052,0.10201,11.16,44.04,4.5
4.7399,-11.918,0.25879,-0.52107,-3.3078,-0.41081,11.28,44.1,3.9
4.4266,-12.095,0.47671,-0.84696,-2.6405,-0.94073,11.28,44.22,3.12
4.1814,-12.095,0.58567,-1.0391,-1.8189,-1.4004,11.34,44.34,2.46
3.6503,-11.496,0.88532,-1.1506,-1.022,-1.8357,11.1,44.76,0.9
3.6775,-10.992,0.96704,-1.1924,-0.38546,-2.2019,10.92,45.0,0.36
3.7047,-10.746,1.0351,-1.1991,0.063835,-2.4896,10.56,45.3,-0.3
3.6503,-10.215,1.1032,-1.1912,0.40012,-2.7611,9.42,45.9,-1.56
3.514,-10.052,1.2803,-1.1704,0.41478,-2.8106,8.58,46.2,-2.04
3.4596,-9.8611,1.3757,-1.1536,0.31276,-2.8778,7.5,46.5,-2.46
3.2825,-9.4661,1.5255,-1.0718,-0.030543,-2.7962,6.48,46.92,-2.58
2.8739,-8.4174,1.6344,-0.96608,-0.3204,-2.6209,3.84,47.76,-2.64
2.6696,-7.7636,1.6753,-0.82345,-0.57299,-2.3961,2.34,48.3,-2.58
2.0975,-7.1234,1.9613,-0.65729,-0.76358,-2.1622,0.78,48.6,-2.28
1.8115,-6.851,2.0158,-0.42699,-0.81856,-1.8344,-2.82,49.32,-1.38
1.6072,-6.9736,1.9477,-0.27275,-0.76877,-1.6237,-4.68,49.38,-0.78
1.5936,-7.0009,1.8524,-0.098349,-0.68081,-1.4001,-6.36,49.68,-0.24
1.6344,-7.5457,1.5663,0.076969,-0.60506,-1.1668,-9.78,49.74,0.48
1.5936,-7.927,1.471,0.23732,-0.57177,-0.90897,-11.34,49.62,0.84
1.5391,-8.4038,1.2258,0.3769,-0.58704,-0.60018,-14.4,49.5,1.74
1.4574,-9.6704,1.0215,0.58338,-0.66462,-0.046731,-15.84,49.32,1.92
1.3893,-10.637,0.84446,0.73884,-0.71319,0.43066,-17.04,49.2,2.28
1.4029,-11.414,0.74912,0.91233,-0.73059,0.9838,-18.0,48.9,2.46
2.0294,-14.56,0.61292,1.0776,-0.72082,1.5565,-19.62,48.54,2.52
2.3427,-15.418,0.50395,1.2126,-0.65363,2.0864,-20.1,48.3,2.58
2.4789,-15.827,0.35413,1.2859,-0.52229,2.4798,-20.28,48.18,2.46
2.942,-16.344,0.16344,1.3454,-0.19181,2.7846,-19.98,48.18,1.92
3.5685,-16.031,-0.38137,1.416,0.020464,2.8488,-19.56,48.36,1.26
3.7728,-14.792,-0.5993,1.5171,0.17654,2.7938,-19.02,48.48,0.84
3.9227,-11.795,-1.3757,1.6136,0.30635,2.5305,-17.4,48.78,-0.18
3.5277,-11.645,-1.5527,1.6218,0.49022,2.1145,-16.38,48.84,-0.84
3.1599,-11.891,-1.7843,1.4068,0.76847,1.6301,-15.24,48.84,-1.56
2.9284,-11.877,-2.2201,0.77366,1.1866,1.1655,-12.84,48.96,-2.94
2.8875,-11.114,-2.3155,0.37568,1.3693,1.0965,-11.4,48.96,-3.48
2.8603,-10.338,-2.3563,0.10934,1.532,1.1167,-10.14,49.08,-4.26
2.7922,-8.1177,-2.0294,-0.026878,1.6863,1.1197,-7.2,49.14,-5.22
2.9148,-7.2596,-1.9886,-0.1127,1.8173,1.0773,-5.94,48.96,-5.7
2.9284,-6.6876,-1.8932,-0.19334,1.8922,1.0259,-4.74,48.9,-6.12
3.337,-6.3198,-1.9886,-0.30116,1.8375,1.0024,-2.1,48.3,-6.42
3.4732,-6.1564,-1.866,-0.3879,1.697,1.0235,-1.02,47.94,-6.48
3.5413,-5.9249,-1.9341,-0.48228,1.5531,1.0388,0.06,47.7,-6.42
3.6366,-5.884,-1.7979,-0.57208,1.4416,1.0137,2.4,47.16,-6.18
3.6366,-6.1836,-1.6481,-0.62339,1.4142,0.9444,3.36,46.98,-5.94
3.7047,-6.6331,-1.5119,-0.67745,1.4807,0.76511,5.34,46.56,-5.1
3.9499,-7.0962,-1.3484,-0.70066,1.5162,0.67959,6.18,46.38,-4.62
3.9363,-7.246,-1.0896,-0.77916,1.6099,0.36652,7.08,46.26,-4.32
4.018,-7.464,-0.9398,-0.78679,1.6322,0.25045,7.86,46.2,-3.6
4.1951,-7.8181,-0.58567,-0.74556,1.5947,-0.06353,9.12,45.9,-2.16
4.1542,-7.9679,-0.46309,-0.61667,1.4581,-0.21777,9.78,45.9,-1.56
4.3177,-8.0496,-0.47671,-0.42364,1.2269,-0.29383,10.32,45.84,-0.78
4.304,-8.4174,-0.72188,-0.15852,0.7028,-0.31215,11.04,45.84,0.6
4.1814,-8.5808,-0.83084,0.20647,0.36255,-0.27184,11.34,45.84,1.2
4.1406,-9.1665,-0.9398,0.40012,0.096517,-0.19884,11.64,45.72,1.8
3.9635,-10.474,-1.1986,0.56658,-0.10263,-0.11729,11.64,45.84,2.76
3.8409,-11.319,-1.0351,0.64477,-0.22541,0.0085521,11.64,45.84,3.18
3.8137,-12.122,-0.76274,0.6802,-0.27092,0.1857,11.58,45.9,3.54
4.3858,-12.572,-0.84446,0.71685,-0.31154,0.50121,11.76,46.02,3.9
4.9714,-12.885,-0.89894,0.87293,-0.57482,0.65393,11.64,46.02,4.02
5.6797,-12.926,-1.185,0.98166,-0.91813,0.71135,11.58,46.08,3.9
6.7285,-11.713,-1.3484,0.98777,-1.3372,0.57544,11.64,45.96,3.42
6.8102,-11.319,-1.0351,0.78282,-1.7019,0.19823,11.58,46.08,3.12
6.5786,-11.278,-0.76274,0.41111,-1.9468,-0.3766,11.7,46.2,2.64
5.8704,-12.122,-0.43585,-0.17776,-1.9835,-1.3564,11.58,46.5,1.44
5.3664,-12.503,-0.095342,-0.46365,-1.7932,-1.8607,11.46,46.68,0.96
4.8352,-12.817,0.27241,-0.57666,-1.6481,-2.0858,11.1,46.8,0.36
4.413,-12.83,0.58567,-0.81642,-1.1481,-2.6218,10.8,46.86,-0.12
3.7456,-12.435,0.85808,-0.88759,-0.82345,-2.8521,9.72,47.16,-1.14
3.4868,-12.095,0.92618,-0.9163,-0.54489,-2.9914,9.06,47.28,-1.44
3.3234,-11.536,1.185,-0.91324,-0.24496,-3.0552,6.96,47.52,-1.62
2.9011,-10.297,1.2939,-0.87598,-0.16035,-3.025,5.64,47.7,-1.74
2.6151,-9.7658,1.2667,-0.8323,-0.14844,-2.9407,4.2,47.82,-1.74
2.547,-9.221,1.4165,-0.75808,-0.20189,-2.7773,2.7,47.94,-1.8
2.1929,-8.0905,1.4574,-0.67104,-0.3146,-2.5375,-0.84,48.0,-1.62
2.0839,-7.5865,1.4982,-0.54825,-0.47098,-2.2623,-2.82,47.94,-1.56
2.0158,-7.3277,1.5391,-0.44196,-0.62278,-1.9673,-4.8,47.82,-1.14
1.7162,-7.4095,1.5527,-0.2587,-0.76175,-1.5238,-8.7,47.46,-0.48
1.5391,-7.4776,1.5255,-0.16616,-0.78618,-1.2135,-10.5,47.34,-0.06
1.5119,-7.641,1.4438,-0.060781,-0.76205,-0.88056,-12.24,47.16,0.3
1.7162,-8.6625,1.3212,0.048564,-0.75106,-0.55803,-15.36,46.62,1.26
1.8387,-9.2482,1.3212,0.14142,-0.76022,-0.25015,-16.86,46.2,1.56
1.8387,-9.8339,1.2667,0.21502,-0.76877,0.039095,-18.06,45.9,1.74
1.9886,-12.013,1.3076,0.28283,-0.74464,0.33628,-19.92,45.06,2.22
1.8932,-12.708,1.2531,0.354,-0.67592,0.61239,-20.7,44.64,2.34
1.866,-13.321,0.96704,0.45265,-0.50916,0.93554,-21.18,44.4,2.52
2.3155,-13.934,0.40861,0.64049,-0.26878,1.4435,-21.78,44.1,2.94
2.2337,-13.634,0.47671,0.64843,-0.11759,1.7575,-21.9,43.98,3.12
2.2746,-13.62,0.39499,0.54275,0.23182,2.0821,-21.54,43.74,3.0
2.8467,-12.735,0.040861,0.53084,0.44013,2.2077,-21.18,43.74,3.0
3.2144,-11.836,-0.24517,0.56322,0.50457,2.2538,-20.76,43.68,2.94
3.4051,-11.25,-0.46309,0.77122,0.55497,2.2504,-20.1,43.86,2.82
3.7184,-10.556,-0.72188,0.85338,0.50732,2.1487,-18.78,44.28,2.1
3.9771,-10.488,-1.0079,0.90164,0.39248,1.9694,-17.88,44.64,1.8
3.8546,-10.542,-1.3893,0.86468,0.15516,1.7211,-15.84,45.06,1.2
2.942,-10.256,-1.6344,0.63133,0.24496,1.5886,-14.94,45.18,0.72
2.3699,-9.6432,-1.5391,0.28558,0.60506,1.4615,-13.98,45.48,0.54
2.2474,-8.8668,-1.5391,0.12462,0.84696,1.3967,-12.9,45.78,0.12
2.3836,-8.2131,-1.471,-0.16677,1.529,1.2682,-11.7,45.9,-0.12
2.8603,-7.4095,-1.3893,-0.20769,1.8372,1.2608,-9.3,46.08,-0.72
3.1327,-7.246,-1.362,-0.25901,1.9881,1.2737,-8.16,46.2,-0.9
3.4459,-6.4152,-1.4438,-0.38026,2.0146,1.241,-5.88,46.26,-1.2
3.5004,-6.2517,-1.5119,-0.50457,1.9978,1.1787,-4.74,46.26,-1.38
3.4868,-6.2109,-1.2803,-0.6185,2.0265,1.0876,-3.6,46.14,-1.32
3.5685,-5.9249,-1.0896,-0.70524,2.0663,1.0226,-1.56,46.02,-0.9
3.8001,-6.1836,-1.0351,-0.71288,2.0513,0.97341,-0.48,45.96,-0.72
4.0044,-6.6059,-0.89894,-0.65637,1.9597,0.92088,0.54,45.9,-0.54
4.3177,-7.355,-0.5993,-0.54092,1.6948,0.85918,2.34,45.84,0.42
4.5083,-7.8862,-0.64016,-0.41936,1.4728,0.82039,3.24,45.72,0.84
4.6718,-8.54,-0.68102,-0.3427,1.3525,0.81917,4.08,45.6,1.26
4.9033,-9.0575,-0.76274,-0.068417,0.96822,0.81734,4.74,45.42,1.68
5.0123,-9.4389,-0.76274,0.09896,0.71471,0.79107,5.34,45.3,1.98
5.0259,-10.351,-0.55843,0.2248,0.51282,0.69089,6.72,45.12,2.82
5.094,-10.924,-0.40861,0.31032,0.35491,0.47709,7.26,45.0,3.24
5.3256,-12.054,-0.21793,0.40836,0.31551,0.40409,8.34,44.82,4.02
5.6797,-12.844,-0.19068,0.60231,0.14142,0.19028,8.64,44.64,4.38
5.8567,-12.762,-0.12258,0.697,-0.080023,0.043982,8.88,44.46,4.62
6.4833,-12.381,-0.27241,0.77672,-0.42455,-0.13622,9.66,44.34,4.98
6.6467,-11.741,-0.25879,0.80084,-0.90622,-0.36835,9.9,44.22,4.98
6.4833,-11.169,-0.081722,0.75625,-1.412,-0.65149,10.14,44.28,5.04
5.6252,-11.169,0.1362,0.59468,-1.8149,-0.96883,10.32,44.28,4.62
5.3119,-11.482,0.31327,0.33201,-2.1554,-1.3793,10.26,44.22,4.44
5.1485,-11.673,0.50395,0.23152,-2.2581,-1.5824,10.14,44.22,4.14
4.5492,-11.659,0.89894,0.12889,-2.252,-1.7422,9.6,44.22,3.6
4.1542,-11.359,0.99429,-0.0076358,-2.116,-1.9166,8.94,44.28,3.24
3.7047,-10.992,1.1577,-0.14355,-1.8735,-2.1084,8.34,44.4,2.94
3.2825,-10.501,1.0896,-0.34789,-1.4019,-2.4019,6.66,44.52,2.1
3.1735,-10.161,1.0896,-0.41997,-1.1032,-2.5446,5.7,44.58,1.68
3.0918,-9.9701,1.0488,-0.46395,-0.88423,-2.6295,4.74,44.64,1.32
2.9284,-9.5342,0.99429,-0.5174,-0.74403,-2.6402,2.22,44.7,0.6
2.7377,-9.2891,1.0215,-0.5736,-0.69394,-2.5947,0.96,44.7,0.36
2.5742,-9.1801,1.2531,-0.63499,-0.68539,-2.4954,-0.42,44.64,0.36
2.3018,-8.8805,1.3484,-0.6805,-0.74067,-2.2297,-3.36,44.58,-0.24
2.2201,-8.5808,1.3757,-0.67287,-0.76022,-2.1188,-4.8,44.52,-0.36
2.0567,-8.1586,1.4982,-0.6243,-0.76816,-1.8692,-6.36,44.4,-0.36
1.9205,-7.5048,1.7706,-0.47189,-0.71868,-1.4957,-9.36,44.16,-0.24
1.8251,-7.355,1.7434,-0.32162,-0.63163,-1.2782,-10.56,43.98,-0.24
1.7979,-7.3141,1.6753,-0.17868,-0.53756,-1.0733,-11.88,43.68,0.18
1.8796,-7.4367,1.6072,-0.054672,-0.48106,-0.74128,-14.22,42.96,0.6
1.9341,-7.9407,1.58,0.1069,-0.50641,-0.48167,-15.12,42.6,0.84
1.9477,-8.2676,1.58,0.21228,-0.57391,-0.18204,-16.08,42.24,1.14
2.0839,-8.7306,1.58,0.33567,-0.67592,0.146,-16.92,41.82,1.5
2.0294,-10.065,1.471,0.48075,-0.7419,0.48503,-18.3,41.04,1.92
2.1112,-11.223,1.2939,0.64416,-0.77213,0.81551,-18.9,40.68,2.1
2.4517,-13.607,0.89894,0.89828,-0.80695,1.3173,-19.5,40.02,2.58
2.5742,-14.492,0.57205,1.066,-0.85521,1.6484,-19.5,39.9,2.88
2.6015,-14.942,0.24517,1.1625,-0.8769,1.9697,-19.38,39.72,3.06
2.5061,-15.241,0.1362,1.153,-0.78679,2.2297,-19.26,39.6,3.06
2.261,-15.418,0.054481,1.0037,-0.5116,2.4221,-19.08,39.6,3.0
2.5061,-15.732,0.42223,0.8097,-0.099876,2.5736,-18.24,39.72,2.46
2.9556,-14.751,0.21793,0.78588,0.38423,2.7147,-17.46,39.96,2.28
3.6366,-12.0,-0.16344,0.86101,0.44776,2.7327,-16.8,40.26,1.98
3.7456,-10.815,-0.61292,1.0131,0.4441,2.6747,-14.88,40.74,1.2
3.7184,-9.8748,-0.91256,1.1102,0.3766,2.4902,-13.8,41.1,0.78
3.732,-9.902,-0.99429,0.98746,0.38515,2.0491,-12.6,41.4,0.24
3.3778,-10.134,-1.2667,0.71563,0.52473,1.7098,-10.08,41.82,-0.6
3.2144,-10.338,-1.0351,0.11606,0.94562,1.19,-8.76,42.12,-1.02
3.0918,-9.8339,-0.6674,-0.21472,1.2602,0.88606,-7.5,42.36,-1.44
3.1872,-9.3436,-0.40861,-0.31826,1.3919,0.76144,-6.18,42.54,-1.86
3.1327,-7.5048,-0.027241,-0.40806,1.6212,0.47617,-3.66,42.66,-2.4
3.2144,-6.8647,-0.040861,-0.32406,1.6683,0.37935,-2.22,42.78,-2.52
3.2553,-6.6467,-0.027241,-0.20189,1.5831,0.28039,-1.14,42.84,-2.58
3.1191,-6.1836,-0.027241,-0.14447,1.4404,0.15821,1.02,42.84,-2.28
3.0237,-6.0883,-0.081722,-0.15944,1.2309,0.09163,2.22,42.84,-2.16
2.7377,-5.8295,-0.12258,-0.1857,1.1426,0.048564,2.94,42.96,-1.98
2.3836,-5.775,-0.095342,-0.22022,1.1316,0.022602,4.44,42.9,-1.26
2.3427,-6.0066,-0.095342,-0.24038,1.2,0.026878,5.04,42.78,-0.72
2.3155,-5.993,-0.10896,-0.24648,1.3173,0.011301,5.58,42.84,-0.24
2.5742,-6.4833,-0.32689,-0.2361,1.4154,-0.04948,6.48,43.02,0.48
2.7377,-6.8919,-0.44947,-0.22877,1.5079,-0.10018,6.84,42.96,0.84
2.9829,-7.1915,-0.6674,-0.20556,1.4994,-0.14233,7.02,43.02,1.26
3.4323,-8.1177,-0.89894,-0.15241,1.3879,-0.18784,7.26,43.08,1.8
3.5413,-8.6625,-1.076,-0.10415,1.1799,-0.24709,7.44,43.02,2.22
3.5685,-9.1529,-1.1577,-0.012828,0.94654,-0.33323,7.5,43.08,2.7
3.4732,-9.5615,-1.3212,0.055283,0.73334,-0.40561,7.5,43.14,2.88
2.9965,-10.215,-1.4574,0.1518,0.54611,-0.47403,7.2,43.2,3.24
2.833,-10.161,-1.5119,0.21655,0.45326,-0.46517,7.2,43.08,3.42
2.4789,-10.052,-1.5663,0.23824,0.44166,-0.42669,6.9,43.02,3.6
2.3427,-10.665,-1.6889,0.29902,0.56383,-0.28833,6.36,43.2,3.66
2.4653,-11.06,-1.5391,0.26878,0.71685,-0.16463,6.0,43.26,3.78
2.8603,-10.964,-1.3212,0.21747,0.84544,-0.012523,5.76,43.26,4.02
3.0782,-10.093,-0.99429,0.22877,0.8488,0.20708,5.4,43.14,3.96
3.0782,-10.46,-0.64016,0.2529,0.77152,0.41936,5.1,43.08,4.08
3.2961,-11.087,-0.57205,0.27275,0.6127,0.75808,4.98,43.08,4.08
5.5162,-12.258,-0.42223,0.3488,0.16402,1.1619,4.5,43.08,4.08
6.7012,-12.027,-0.38137,0.52107,-0.62705,1.4878,4.56,42.96,3.84
7.4776,-11.686,-0.21793,0.65515,-1.5369,1.5543,4.62,42.9,3.72
8.1995,-11.332,0.27241,0.64507,-2.6151,1.1219,4.74,42.72,3.36
8.4719,-11.278,0.27241,0.47434,-3.0363,0.50091,4.92,42.72,3.12
8.3493,-11.509,0.12258,0.40103,-3.1548,0.14355,5.28,42.48,2.64
7.0826,-12.122,0.1362,0.014966,-3.0476,-1.0397,5.94,42.06,1.98
6.0611,-12.476,0.34051,-0.4328,-2.6017,-1.8024,6.12,41.88,1.5
5.2575,-12.599,0.50395,-0.89736,-2.0269,-2.4291,6.12,41.82,1.08
4.4539,-12.749,0.8036,-1.3741,-1.3638,-3.0769,5.82,41.46,0.3
4.018,-12.544,0.96704,-1.5272,-0.95692,-3.2718,5.64,41.34,-0.12
3.7865,-12.34,1.1032,-1.5834,-0.58093,-3.2877,5.22,41.4,-0.3
3.3506,-11.577,1.3893,-1.5565,-0.27886,-3.215,4.08,41.4,-0.72
3.1463,-10.992,1.4301,-1.5094,-0.083078,-3.0974,3.06,41.4,-0.72
3.0782,-10.433,1.58,-1.4603,0.020159,-2.9676,2.1,41.34,-0.66
2.9965,-9.5615,1.6344,-1.4099,0.065363,-2.7388,1.02,41.22,-0.54
2.9284,-9.0303,1.7434,-1.3595,0.043982,-2.5843,-1.32,41.28,-0.42
2.7649,-8.4582,1.975,-1.3085,0.0058032,-2.419,-2.7,41.28,-0.06
2.6287,-7.7364,2.0975,-1.1988,-0.050702,-2.2083,-5.58,41.34,0.6
2.5198,-7.5048,2.1929,-1.051,-0.14905,-1.9963,-6.96,41.16,1.14
2.4653,-7.355,2.2337,-0.85704,-0.2474,-1.759,-8.28,40.74,1.62
2.1248,-6.96,2.3836,-0.64813,-0.3766,-1.3686,-10.8,40.44,2.82
2.1112,-6.8783,2.3972,-0.31032,-0.44929,-1.1194,-11.94,40.14,3.18
1.9613,-7.0553,2.3836,-0.17898,-0.49572,-0.97647,-12.9,39.78,3.48
2.0703,-7.2052,2.3155,0.22297,-0.6973,-0.5171,-14.34,39.0,4.26
2.0022,-7.7227,2.0839,0.53298,-0.91324,-0.17593,-14.94,38.64,4.5
1.9886,-8.431,1.8932,0.87109,-1.1542,0.20708,-15.42,38.34,4.8
1.8932,-10.651,1.1441,1.1988,-1.3635,0.63774,-16.32,37.98,5.34
1.8932,-12.013,0.64016,1.6509,-1.573,1.3262,-16.62,37.68,5.4
2.0567,-12.708,0.42223,1.7764,-1.6209,1.5818,-16.86,37.56,5.34
2.3155,-13.579,-0.40861,2.0162,-1.6637,2.0754,-16.92,37.32,5.28
2.2474,-14.601,-1.1713,2.1545,-1.5812,2.6808,-16.44,37.32,5.16
1.9477,-15.459,-1.2531,2.0033,-1.2935,2.9273,-15.96,37.44,4.8
1.8387,-16.222,-1.2258,1.6609,-0.76877,3.0983,-15.3,37.5,4.5
2.3699,-15.337,-1.3076,1.0486,0.28039,3.2541,-13.92,37.98,3.54
2.6968,-14.07,-1.3484,0.7758,0.96975,3.2183,-13.02,38.16,3.12
3.1191,-13.116,-1.2258,0.64049,1.547,3.0351,-12.0,38.52,2.46
3.7456,-11.128,-0.91256,0.56077,1.9642,2.7367,-9.9,39.12,1.62
4.0316,-10.774,-0.83084,0.47281,2.1954,2.3677,-8.82,39.42,1.14
4.6037,-10.787,-0.88532,0.35949,2.1887,1.9926,-7.56,39.66,0.78
4.7671,-10.896,-0.96704,0.12553,1.9282,1.5898,-4.98,40.2,0.24
4.6718,-10.515,-0.78998,-0.021991,1.7119,1.3766,-3.6,40.38,0.06
4.5492,-10.093,-0.72188,-0.069944,1.617,1.2764,-2.28,40.56,0.06
4.0316,-8.3493,-0.65378,-0.12401,1.4416,1.0131,0.24,40.8,-0.06
3.8954,-7.6546,-0.76274,-0.0562,1.4157,0.88942,1.32,40.98,0.18
3.8682,-7.2596,-0.98067,0.029932,1.3818,0.7758,2.58,41.1,0.42
3.8001,-6.674,-1.4029,0.096211,1.2966,0.63958,4.74,41.22,1.2
3.8682,-6.5514,-1.58,0.069333,1.2278,0.54092,5.7,41.22,1.44
3.7865,-6.3198,-1.7162,0.041844,1.2062,0.489,6.66,41.28,1.92
3.6639,-6.0611,-1.8524,-0.13317,1.2077,0.32254,7.56,41.28,2.28
3.4459,-5.2575,-1.7706,-0.24221,1.2679,0.22052,9.06,41.16,2.94
3.514,-5.1213,-1.6344,-0.30543,1.3302,0.13958,9.6,41.1,3.24
3.514,-5.4754,-1.3212,-0.36194,1.368,0.048258,10.68,41.1,4.02
3.623,-6.0066,-1.185,-0.41814,1.3946,-0.029627,11.1,41.16,4.38
3.7047,-6.8783,-1.0488,-0.42058,1.3702,-0.064446,11.4,41.16,4.74
3.8818,-7.641,-0.92618,-0.40439,1.3467,-0.069333,11.64,41.28,5.1
4.2223,-8.3493,-0.88532,-0.23946,1.15,-0.06017,11.94,41.4,5.4
4.6718,-9.4798,-0.95342,-0.055894,0.90286,-0.019548,12.0,41.46,5.94
4.7944,-10.311,-1.0215,0.21777,0.44807,-0.0061087,12.0,41.52,6.24
4.8625,-11.25,-1.185,0.34544,0.22663,-0.03879,11.94,41.58,6.9
4.8216,-11.414,-1.1441,0.42455,0.11454,-0.13867,11.88,41.52,7.26
4.5764,-11.319,-1.0079,0.44593,0.11148,-0.22327,11.76,41.64,7.56
4.3858,-11.482,-0.81722,0.50671,0.16341,-0.45662,11.7,41.7,7.86
4.3585,-11.986,-0.61292,0.55008,0.063835,-0.42699,11.58,41.7,8.16
4.7399,-12.599,-0.50395,0.63102,-0.21136,-0.1857,11.4,41.7,8.34
6.2654,-12.994,-0.7355,0.8039,-0.71563,0.1799,11.34,41.52,8.28
6.8374,-12.204,-0.72188,1.0305,-1.8702,0.55039,11.22,41.58,8.16
6.8647,-11.782,-0.35413,0.94134,-2.5546,0.44166,11.28,41.58,7.86
6.7421,-11.645,-0.19068,0.67256,-2.9972,0.056505,11.22,41.46,7.56
6.6195,-12.177,0.095342,0.33109,-3.2339,-0.48411,11.4,41.22,6.48
6.3607,-12.354,0.20431,0.028711,-3.3054,-1.0354,11.58,41.22,5.94
4.9442,-12.667,0.76274,-0.26939,-3.1081,-1.5611,11.46,41.22,5.28
4.3721,-12.64,1.0215,-0.72113,-2.3109,-2.3243,11.04,41.16,4.08
3.909,-12.34,1.1169,-0.84971,-1.9868,-2.58,10.92,41.16,3.42
3.4323,-11.986,1.1032,-1.1014,-1.0229,-3.175,10.62,41.22,2.7
3.0237,-11.169,1.1305,-1.1863,-0.41569,-3.4233,9.54,41.58,1.44
2.8875,-10.46,1.2258,-1.1967,0.050702,-3.5788,8.7,41.82,0.6
2.7377,-9.9973,1.3484,-1.1744,0.3375,-3.6582,7.14,42.12,-0.6
2.5606,-9.8066,1.3893,-1.0782,0.43005,-3.6233,6.0,42.42,-1.14
2.5198,-9.4798,1.4574,-1.0122,0.30055,-3.4566,4.74,42.72,-1.32
2.4108,-9.3027,1.4438,-0.94379,0.072082,-3.1707,3.42,43.14,-1.62
2.0022,-8.4855,1.4846,-0.83658,-0.20708,-2.7993,0.54,44.04,-1.74
1.7025,-7.9407,1.5936,-0.73365,-0.47159,-2.3534,-1.14,44.46,-1.8
1.4846,-7.5321,1.6617,-0.60445,-0.63133,-1.9001,-2.64,44.82,-1.8
1.0624,-6.7421,1.8115,-0.4102,-0.61148,-1.2865,-5.94,45.42,-1.92
0.99429,-6.4152,1.9205,-0.28008,-0.48045,-0.92699,-7.56,45.66,-1.62
1.0215,-6.1155,1.9341,-0.12584,-0.31857,-0.5901,-9.06,45.9,-1.38
1.0624,-5.8704,1.9477,0.057727,-0.18082,-0.28222,-11.82,46.26,-0.96
1.2122,-6.0747,1.9341,0.26053,-0.12828,0.05284,-12.84,46.44,-0.6
1.4574,-6.6876,1.6753,0.49694,-0.19609,0.44471,-14.04,46.62,-0.36
1.8932,-7.3414,1.4438,0.76694,-0.38454,0.87506,-15.78,47.1,-0.06
2.0022,-8.7306,1.1986,1.1551,-0.7251,1.4713,-16.44,47.16,-0.06
2.0294,-9.793,1.0215,1.2837,-0.81489,1.6631,-16.74,47.4,-0.12
2.3563,-12.054,0.57205,1.6493,-1.0519,2.3268,-17.1,47.46,-0.3
3.228,-16.249,-0.54481,1.8998,-1.2364,2.7895,-16.86,47.64,-0.84
3.2961,-17.992,-0.74912,2.0647,-1.3564,3.3796,-16.62,47.82,-1.14
2.8875,-18.891,-0.70826,1.9517,-1.2443,3.5222,-15.9,48.06,-1.62
2.5742,-19.504,-0.6674,1.6402,-0.74312,3.7339,-14.16,48.42,-2.94
3.1191,-18.891,-1.0351,1.3143,-0.023518,3.8704,-13.2,48.48,-3.6
3.6639,-17.965,-1.3076,1.2685,0.82986,3.9615,-12.12,48.6,-4.2
5.2438,-14.124,-2.4517,1.3925,1.0299,3.8753,-9.18,48.42,-5.58
5.6116,-12.449,-2.6287,1.4022,1.0284,3.5919,-7.62,48.3,-6.24
5.38,-10.706,-2.6151,0.90378,0.8656,2.7492,-5.52,47.94,-6.9
4.7944,-10.283,-2.2065,0.59682,0.81886,2.4154,-3.54,47.46,-7.44
4.3858,-10.447,-1.9341,-0.43433,0.96517,1.6081,0.6,46.5,-8.34
4.1678,-10.447,-0.92618,-0.93249,1.2394,1.2898,4.62,45.36,-8.64
4.0861,-9.4389,-0.01362,-1.2324,1.6133,1.0947,8.46,44.4,-8.7
4.0861,-8.826,0.25879,-1.3751,2.0064,0.9447,10.02,43.86,-8.46
4.3313,-7.9134,0.70826,-1.314,2.3439,0.80481,13.14,42.9,-7.56
4.9714,-6.9328,0.65378,-0.82131,2.5372,0.58949,16.02,42.06,-6.72
5.6661,-6.0338,0.27241,-0.40073,2.2904,0.46976,18.36,41.52,-5.46
6.1292,-5.4073,-0.12258,-0.097738,1.7321,0.29169,19.8,41.34,-3.84
5.9249,-4.9987,-0.61292,0.038485,0.98655,0.062003,20.7,41.34,-2.58
5.1213,-4.9442,-0.8717,0.041233,0.30177,-0.19364,21.36,41.46,-1.32
4.522,-5.0531,-0.96704,-0.038485,-0.17868,-0.54245,21.78,41.52,-0.24
4.1814,-5.094,-1.0079,-0.0562,-0.21411,-0.65699,21.9,41.52,0.42
3.514,-5.4754,-0.85808,-0.10018,-0.048869,-0.94104,22.02,41.58,1.38
3.3915,-6.3743,-0.92618,-0.10385,0.135,-1.0336,21.96,41.7,1.98
3.5413,-6.7421,-1.0488,-0.059865,0.23702,-1.0443,21.72,41.82,2.22
3.8954,-7.3005,-1.2803,0.02474,0.17898,-1.0369,21.18,41.76,2.34
4.1542,-8.0632,-1.3893,0.10415,0.014355,-1.0354,20.7,41.88,2.28
4.0589,-8.9758,-1.2939,0.17226,-0.34483,-1.1478,20.04,42.18,2.22
3.9227,-9.5342,-1.2531,0.19273,-0.53726,-1.2401,19.68,42.24,2.1
3.6366,-10.978,-1.2667,0.26512,-0.6747,-1.2825,19.08,42.9,2.16
3.3506,-11.877,-1.2667,0.35491,-0.77885,-1.2312,18.06,43.56,1.68
3.2008,-12.108,-1.2803,0.45265,-0.83627,-1.1069,17.58,43.92,1.32
2.833,-12.49,-1.0896,0.52901,-0.83383,-0.93707,16.56,44.46,0.78
2.6287,-13.198,-0.83084,0.59712,-0.78007,-0.77916,15.78,45.24,0.18
2.4653,-13.375,-0.70826,0.68264,-0.53909,-0.51191,15.48,45.6,-0.06
2.8875,-13.28,-0.78998,0.78832,-0.43188,-0.20861,14.82,46.26,-0.72
3.228,-13.007,-0.89894,0.91721,-0.52534,0.11057,14.52,46.68,-1.26
4.0316,-12.095,-1.1577,1.0247,-0.7929,0.36469,13.86,47.28,-2.28
4.5356,-10.91,-1.2258,1.0318,-1.1918,0.49327,13.14,47.82,-3.36
4.522,-10.61,-1.0351,0.88209,-1.5996,0.47434,12.54,48.06,-4.5
4.413,-10.733,-0.46309,0.34239,-2.0064,0.31032,12.3,48.06,-5.88
4.3449,-11.114,0.027241,-0.066279,-2.1487,0.15852,12.3,48.06,-6.42
4.413,-11.101,0.61292,-0.36774,-2.1954,0.0088575,12.3,48.36,-7.62
4.522,-10.515,1.0488,-0.48197,-2.1423,-0.13439,11.88,48.42,-9.0
4.6854,-9.9973,1.185,-0.46945,-2.0406,-0.29688,11.7,48.48,-9.48
4.699,-9.9837,1.1713,-0.44166,-1.8775,-0.53206,11.1,48.72,-10.56
4.5764,-9.8339,1.0488,-0.45235,-1.5308,-0.94501,10.38,48.96,-11.22
4.5492,-9.6023,1.1441,-0.5681,-1.2901,-1.2031,9.6,49.38,-12.0
4.3858,-9.2482,1.1305,-0.63897,-1.1008,-1.4105,9.06,49.5,-12.18
4.0861,-8.54,1.1577,-0.68356,-0.95417,-1.5977,7.68,50.1,-12.6
3.7047,-8.0088,1.2395,-0.74251,-0.80146,-1.7419,6.18,50.7,-12.84
3.2008,-7.3414,1.4438,-0.78374,-0.65515,-1.8644,4.2,51.18,-12.78
3.0237,-6.9055,1.58,-0.75503,-0.48411,-1.9047,2.28,51.9,-12.6
2.942,-6.7012,1.5527,-0.6463,-0.48075,-1.8112,1.26,52.2,-12.54
2.9011,-6.3879,1.5936,-0.48442,-0.57757,-1.6396,-0.9,52.8,-12.24
2.833,-6.2654,1.6072,-0.31551,-0.7535,-1.3879,-2.04,53.1,-12.06
2.7649,-6.3743,1.7025,-0.14905,-0.97769,-1.0916,-4.32,53.46,-11.82
2.9284,-6.5241,1.7162,0.015577,-1.2217,-0.75472,-6.54,53.88,-11.76
2.9011,-6.851,1.5936,0.2419,-1.5507,-0.23915,-8.46,54.42,-11.34
3.0646,-7.1234,1.5119,0.31551,-1.624,0.041539,-9.42,54.48,-10.98
3.1191,-7.4776,1.3484,0.47312,-1.5824,0.25717,-11.16,54.96,-10.68
3.4051,-7.9951,0.96704,0.53603,-1.493,0.40959,-12.48,55.02,-10.32
3.5277,-8.1586,0.76274,0.57696,-1.3772,0.50244,-13.56,55.32,-10.26
3.7184,-8.5536,0.5993,0.60598,-1.2703,0.5507,-13.86,55.56,-10.2
3.9227,-8.9213,0.27241,0.63225,-1.1322,0.54642,-14.28,55.86,-10.44
3.8682,-9.5479,0.027241,0.61972,-1.0195,0.50671,-14.4,56.16,-10.68
3.8682,-9.9565,-0.28603,0.57635,-0.85552,0.43707,-14.58,56.34,-10.86
3.6366,-11.482,-0.38137,0.50305,-0.63438,0.35522,-14.58,56.4,-10.86
3.2553,-12.572,-0.32689,0.3598,-0.27733,0.2645,-14.58,56.64,-11.34
3.2416,-12.994,-0.24517,0.18204,0.19853,0.20983,-14.46,56.7,-11.82
3.6366,-12.245,-0.28603,0.10324,0.64813,0.20159,-14.46,56.94,-12.66
4.0997,-10.924,-0.47671,0.22999,0.86132,0.24099,-14.46,57.0,-12.84
4.9306,-7.2869,-1.2531,0.80543,0.47006,0.20525,-14.58,57.06,-13.32
5.0531,-6.2654,-1.9341,1.2456,-0.13164,0.058338,-14.82,56.88,-13.8
4.699,-7.3414,-2.6151,1.5036,-0.81886,-0.15241,-14.88,56.94,-14.46
3.8954,-9.0439,-2.8194,1.4768,-1.4059,-0.30696,-15.3,56.76,-15.18
3.1872,-9.6977,-2.7649,0.86773,-1.7718,-0.35155,-15.6,56.58,-15.78
1.7843,-10.392,-2.547,0.58551,-1.6875,-0.32681,-16.08,56.22,-16.62
0.81722,-9.7658,-1.8932,-0.13225,-0.89492,-0.15302,-16.62,55.8,-17.1
0.69464,-9.3163,-1.5936,-0.34697,-0.049175,0.0033598,-16.98,55.26,-17.4
1.1577,-8.1041,-1.1169,-0.39523,0.74984,0.22938,-17.22,55.08,-17.64
2.261,-7.0417,-0.68102,-0.25198,1.2804,0.48747,-17.46,54.66,-17.7
3.3506,-6.8374,-0.64016,-0.012217,1.4224,0.74953,-17.22,54.36,-17.94
4.2904,-7.0553,-0.83084,0.34941,0.83108,1.1897,-17.04,54.0,-18.0
4.9306,-7.4095,-0.95342,0.56505,-0.022297,1.5207,-16.74,54.06,-18.0
5.7069,-8.3765,-1.6072,0.77885,-1.066,1.8463,-15.72,54.18,-17.94
5.8023,-9.0984,-2.0431,0.97525,-2.0036,2.149,-15.18,54.24,-17.94
5.7478,-9.4661,-2.1112,1.1167,-2.6551,2.3298,-13.44,54.42,-18.3
5.2847,-10.202,-2.2065,1.1002,-2.9474,2.3161,-11.76,54.66,-18.78
4.7944,-10.12,-2.261,0.72388,-2.6279,1.9151,-10.2,54.84,-19.5
4.4811,-10.025,-2.2337,0.34758,-1.967,1.4126,-9.18,54.9,-19.98
4.4539,-9.5887,-2.0431,-0.020464,-1.1927,0.8265,-7.8,55.02,-20.94
4.9033,-9.3436,-1.7162,-0.25931,-0.57299,0.28344,-6.54,55.02,-21.54
5.094,-9.3436,-1.6072,-0.40653,-0.23915,-0.10537,-6.06,55.02,-21.78
5.38,-9.221,-1.1577,-0.48014,-0.1799,-0.31979,-5.22,55.02,-22.32
5.3528,-9.112,-0.69464,-0.50763,-0.48533,-0.40745,-4.8,54.96,-22.5
5.38,-9.1665,-0.38137,-0.4835,-0.81215,-0.37874,-4.86,54.84,-22.56
5.5571,-9.6432,0.081722,-0.43433,-1.1151,-0.31979,-5.28,55.2,-22.38
5.5843,-10.188,0.76274,-0.35522,-1.321,-0.29444,-5.52,55.26,-22.2
5.6116,-10.515,1.0624,-0.25565,-1.3778,-0.38271,-6.24,55.62,-21.78
5.8704,-11.523,1.4438,-0.14997,-1.3399,-0.43799,-6.66,55.86,-21.42
6.3198,-12.204,1.58,-0.047342,-1.2715,-0.57482,-7.86,55.98,-20.76
6.7012,-11.264,1.3484,0.18021,-1.3131,-0.79535,-9.12,56.16,-20.34
6.7285,-9.7658,1.1577,0.30788,-1.5391,-0.98899,-9.84,56.22,-20.04
6.2654,-8.0632,1.1713,0.34544,-1.8601,-1.2251,-11.7,56.4,-19.92
5.8159,-8.9622,1.4982,0.28253,-2.2318,-1.4517,-13.56,56.28,-19.56
5.7069,-9.6432,1.5936,0.16249,-2.5846,-1.5913,-15.84,55.92,-19.2
5.598,-11.101,1.8932,0.090103,-2.948,-1.5669,-17.04,55.74,-18.78
5.7069,-12.136,2.1248,0.095295,-3.4483,-1.2804,-19.98,54.96,-18.24
5.6388,-12.217,2.1929,0.098044,-3.5836,-1.0391,-21.36,54.54,-17.88
5.2847,-11.713,2.3836,0.045509,-3.4428,-0.96395,-24.42,53.58,-17.1
5.1213,-11.087,2.0975,-0.072998,-3.1194,-1.0742,-27.6,52.62,-16.02
5.0123,-10.828,2.0567,-0.23274,-2.6848,-1.2703,-29.1,51.42,-14.58
5.0123,-10.433,2.1112,-0.38332,-2.2434,-1.5113,-32.34,50.76,-13.8
4.8216,-10.188,2.3155,-0.53939,-1.8451,-1.7892,-35.28,49.38,-11.94
4.6037,-10.052,2.3291,-0.60109,-1.7272,-1.8934,-36.78,48.6,-11.16
4.304,-9.8748,2.5742,-0.60506,-1.6414,-1.9279,-38.1,47.82,-10.2
3.8682,-9.8339,2.7104,-0.56658,-1.5556,-1.9196,-40.74,46.02,-8.28
3.6911,-9.793,2.5879,-0.49663,-1.4786,-1.8436,-41.82,45.06,-7.32
3.4596,-9.7249,2.438,-0.38332,-1.3928,-1.7465,-44.1,43.14,-5.16
3.337,-9.6296,2.3155,-0.27184,-1.3051,-1.6383,-44.94,42.12,-4.2
3.2144,-9.5479,2.2065,-0.11026,-1.1949,-1.511,-45.72,41.04,-3.18
3.2961,-9.5615,1.9477,0.0039706,-1.1921,-1.4539,-46.5,39.84,-2.22
3.2144,-10.052,1.4982,0.12309,-1.2721,-1.3949,-47.82,37.56,-0.36
3.0237,-10.392,1.4165,0.19945,-1.3503,-1.3213,-48.24,36.24,0.54
2.6015,-11.005,1.2258,0.26573,-1.3851,-1.1817,-48.84,35.1,1.38
1.7434,-11.482,1.1032,0.34972,-1.3515,-0.98502,-49.5,32.58,2.76
1.2258,-11.482,1.0488,0.46365,-1.0412,-0.59956,-49.8,31.5,3.48
0.96704,-10.569,0.99429,0.59468,-0.68875,-0.29566,-49.98,30.3,4.14
1.0215,-9.0303,0.64016,0.83627,-0.41722,-0.041233,-50.34,28.14,5.34
1.2531,-8.0632,0.28603,1.3751,-0.40012,0.23488,-50.34,27.24,5.94
1.5119,-6.9464,-0.50395,1.5629,-0.50305,0.28344,-50.4,26.52,6.3
1.1169,-6.6331,-0.95342,1.8689,-0.79993,0.30971,-50.16,25.26,7.02
0.8717,-7.6683,-1.1986,2.036,-1.0773,0.29016,-50.28,24.78,7.26
0.7355,-8.5536,-1.3484,1.9529,-1.0681,0.39309,-50.22,24.54,7.68
0.70826,-10.733,-1.6753,1.7468,-0.93065,0.59987,-50.1,24.12,8.04
0.69464,-11.06,-1.5391,1.4462,-0.51526,1.0996,-50.1,24.36,8.1
1.7298,-10.188,-1.5936,1.4108,-0.35583,1.2749,-49.68,24.54,8.46
2.4789,-9.5479,-1.58,1.5217,0.0027489,1.6765,-49.56,24.9,8.64
2.9556,-9.2755,-1.7434,1.7126,0.03543,1.7541,-49.26,25.2,8.64
3.8137,-9.2482,-2.2201,1.901,-0.12553,1.7349,-48.48,26.28,8.52
4.0316,-9.6023,-2.4517,1.9929,-0.41325,1.6643,-47.88,27.0,8.4
3.9363,-9.9701,-3.051,1.9667,-0.72113,1.6243,-47.4,27.84,8.22
3.6503,-10.46,-3.0237,1.7193,-0.94134,1.598,-46.32,29.34,7.92
3.514,-10.828,-2.942,1.4612,-0.90469,1.5327,-45.72,30.18,7.68
3.3915,-10.828,-2.9692,1.3088,-0.81948,1.4697,-44.94,30.96,7.32
3.4732,-10.379,-2.6423,0.94959,-0.45479,1.2162,-43.32,32.64,6.48
3.7456,-10.079,-2.5061,0.78466,-0.22785,1.0473,-42.6,33.54,6.3
3.9363,-10.079,-2.3563,0.60506,-0.022602,0.7758,-40.8,35.04,5.64
4.2223,-10.447,-2.1248,0.52993,0.0085521,0.6805,-39.84,35.82,5.28
4.1951,-10.61,-1.9341,0.2248,0.10996,0.37171,-39.06,36.48,4.92
4.1678,-10.678,-1.7298,0.02474,0.20006,0.20617,-38.4,37.08,4.62
4.2087,-10.665,-1.5391,-0.098349,0.25168,0.089797,-37.74,37.62,4.2
4.3449,-10.937,-1.2803,-0.13928,0.23152,0.051618,-36.54,38.46,3.42
4.413,-11.237,-0.91256,-0.13683,0.15455,0.055894,-36.12,38.88,3.12
4.4402,-11.25,-0.70826,-0.13378,0.074526,0.080023,-35.58,39.18,2.88
4.4266,-11.509,-0.25879,-0.14539,-0.037263,0.075136,-34.56,39.42,2.58
4.4947,-11.877,-0.081722,-0.16371,-0.11148,0.057727,-34.2,39.54,2.46
4.6309,-11.972,0.081722,-0.21319,-0.24068,0.087659,-33.78,39.54,2.58
5.5843,-10.869,0.38137,-0.19975,-0.5287,0.15485,-33.12,39.3,2.46
5.9249,-10.474,0.50395,-0.10996,-1.0956,0.16585,-32.88,39.3,2.4
6.0202,-10.079,0.5993,-0.059559,-2.054,0.0024435,-32.46,39.12,2.34
5.7205,-10.556,0.64016,-0.097128,-2.2816,-0.091019,-31.92,38.64,2.7
5.6388,-11.591,0.85808,-0.22969,-2.5904,-0.29963,-31.5,38.34,2.94
5.6661,-12.313,1.2531,-0.44379,-2.7199,-0.51404,-31.08,38.16,3.24
5.6524,-12.64,1.4846,-0.81856,-2.7147,-0.90408,-30.66,37.86,3.6
5.1076,-12.49,2.0567,-1.0235,-2.4768,-1.2364,-29.76,37.02,4.44
4.7944,-12.544,2.0839,-1.1924,-1.7611,-1.85,-29.52,36.42,4.98
3.8682,-11.441,2.0567,-1.2058,-1.4322,-2.0748,-28.86,35.76,6.0
3.6775,-11.182,1.9341,-1.1768,-0.39859,-2.6964,-28.62,35.34,6.66
3.5958,-11.073,1.7979,-1.1609,-0.11545,-2.8708,-28.5,34.92,7.08
3.6639,-10.992,1.6617,-1.1264,0.36774,-3.2522,-28.32,34.38,7.74
3.514,-10.637,1.5936,-1.1261,0.4163,-3.3695,-28.26,33.42,8.46
3.4459,-10.406,1.6753,-1.113,0.24465,-3.3674,-28.32,32.82,8.88
3.0101,-9.7522,1.8251,-1.0797,0.15058,-3.3274,-28.74,31.56,9.48
2.7786,-9.2074,1.8796,-0.92118,-0.19028,-3.0751,-29.1,30.9,9.66
2.4789,-8.6762,1.975,-0.77061,-0.36285,-2.8317,-29.52,30.24,9.9
1.866,-7.75,1.9341,-0.58277,-0.45357,-2.5724,-30.6,28.92,10.14
1.5119,-7.1643,1.7979,-0.3766,-0.45357,-2.2776,-31.2,28.26,10.14
1.2531,-6.7693,1.58,-0.2025,-0.39156,-1.9728,-31.74,27.6,10.14
0.98067,-6.3743,1.3893,0.029322,-0.23854,-1.5113,-32.94,26.28,9.9
0.8717,-6.5105,1.3348,0.18387,-0.14936,-1.1368,-33.48,25.56,9.66
0.84446,-6.6467,1.2939,0.36988,-0.14569,-0.67898,-34.02,24.78,9.54
0.99429,-7.8998,0.8036,0.58704,-0.23121,-0.135,-35.04,23.7,9.48
1.1713,-8.8941,0.64016,0.82589,-0.40103,0.47495,-35.58,23.1,9.3
1.4438,-10.011,0.31327,1.0715,-0.61789,1.1249,-36.06,22.74,9.36
2.0567,-12.408,-0.24517,1.4004,-0.94104,2.0898,-36.78,22.5,9.24
2.3155,-13.702,-0.49033,1.5537,-1.0861,2.6881,-36.9,22.44,9.18
2.5606,-14.751,-0.83084,1.605,-1.1197,3.1533,-36.84,22.62,9.12
2.5879,-15.459,-1.0079,1.5522,-0.94501,3.467,-36.78,22.86,8.94
2.6696,-16.235,-0.98067,1.409,-0.49938,3.6279,-36.42,23.76,8.76
2.9284,-15.459,-1.0215,1.0745,0.43677,3.5629,-36.0,24.54,8.64
3.6366,-13.266,-0.98067,0.96242,0.74862,3.4551,-35.34,26.1,8.34
4.0589,-12.449,-0.9398,0.79535,1.2428,3.1237,-34.8,27.24,8.28
4.3449,-12.258,-1.0624,0.70616,1.5207,2.6961,-34.2,28.26,8.04
4.6037,-11.891,-1.3348,0.54764,1.6826,2.098,-32.7,30.18,7.62
4.7126,-11.659,-1.5391,0.41264,1.6725,1.8357,-31.92,31.2,7.5
4.7399,-11.223,-1.6072,0.2865,1.6124,1.6423,-31.14,31.98,7.26
4.3177,-9.6704,-1.4301,0.10018,1.522,1.3937,-29.34,33.54,7.08
4.1951,-9.1529,-1.2258,-0.027184,1.5583,1.2413,-28.62,34.26,7.02
4.0316,-8.5808,-1.2667,-0.085216,1.5934,1.1768,-27.96,34.92,6.96
4.0452,-7.8589,-1.1986,-0.20342,1.7315,1.0101,-26.34,36.0,6.66
4.0997,-7.4776,-1.1032,-0.25443,1.7419,0.92271,-25.68,36.36,6.42
4.2904,-7.2052,-1.1169,-0.29688,1.6561,0.86896,-25.2,36.6,6.3
4.4811,-6.7829,-0.99429,-0.31398,1.3974,0.77,-23.88,36.96,5.82
4.4811,-6.4833,-0.95342,-0.3317,1.2456,0.68325,-23.4,36.96,5.64
4.413,-6.1836,-0.85808,-0.32284,1.1591,0.55772,-22.74,36.96,5.52
4.2768,-5.8567,-0.74912,-0.29658,1.1005,0.42241,-21.96,37.2,5.22
4.2768,-6.0338,-0.84446,-0.23671,1.0574,0.29444,-21.54,37.32,4.92
4.2495,-6.2109,-0.84446,-0.17715,1.0107,0.1686,-21.12,37.56,4.74
4.413,-7.464,-1.0624,-0.10018,0.90164,-0.0073304,-20.64,37.92,4.02
4.4402,-8.036,-1.1986,-0.051313,0.76236,-0.10996,-20.28,38.04,3.72
4.5764,-8.6353,-1.2531,0.011301,0.60751,-0.17471,-19.98,38.1,3.42
4.3994,-9.0303,-1.2803,0.04612,0.44502,-0.23488,-19.86,38.34,3.12
4.2223,-9.5751,-1.0488,0.090713,0.33323,-0.29535,-19.74,38.4,2.88
4.2087,-10.065,-0.99429,0.14416,0.26848,-0.35491,-19.56,38.34,2.7
4.4947,-11.319,-0.78998,0.23243,0.17318,-0.37874,-19.56,38.4,2.58
4.699,-11.85,-0.7355,0.41386,0.043371,-0.34972,-19.38,38.34,2.52
4.7535,-12.149,-0.77636,0.46976,-0.045509,-0.32987,-19.56,38.34,2.4
4.9033,-12.258,-0.88532,0.54306,-0.36408,-0.24771,-19.62,38.28,2.16
5.3392,-12.122,-0.83084,0.54336,-0.70433,-0.17013,-19.44,38.4,1.98
5.7069,-11.782,-0.85808,0.54856,-1.1524,-0.12309,-19.44,38.34,1.74
6.2245,-11.169,-0.64016,0.51985,-1.6536,-0.1799,-19.2,38.22,1.44
6.2381,-11.128,-0.34051,0.26848,-2.2422,-0.51862,-19.44,38.1,1.26
6.0883,-11.237,-0.34051,0.14019,-2.3653,-0.69944,-19.5,38.1,1.08
5.7614,-11.536,0.27241,-0.10599,-2.4474,-1.1206,-19.5,38.16,0.78
4.7944,-12.258,0.84446,-0.42302,-2.1163,-1.7358,-19.74,38.28,0.78
4.4539,-12.422,0.96704,-0.55039,-1.6704,-2.0794,-19.98,38.34,0.72
4.2223,-12.381,1.1986,-0.60628,-1.2456,-2.3195,-20.28,38.28,0.96
3.8001,-11.605,1.0896,-0.63774,-0.70433,-2.5632,-21.12,38.64,0.9
3.5549,-10.91,1.0351,-0.65118,-0.55955,-2.6301,-21.66,38.88,0.96
3.4187,-10.283,0.99429,-0.67287,-0.2532,-2.7639,-22.26,38.94,1.02
3.0237,-9.398,1.0624,-0.697,-0.13378,-2.8207,-23.94,38.7,1.26
2.7649,-8.8396,1.1169,-0.70433,-0.079412,-2.835,-24.84,38.64,1.5
2.547,-8.3901,1.1169,-0.68906,-0.089186,-2.7437,-25.8,38.46,1.74
2.1793,-7.4912,1.2531,-0.57666,-0.22388,-2.4386,-28.08,38.16,2.1
2.0294,-7.2188,1.3757,-0.52962,-0.29474,-2.2871,-29.28,37.86,2.28
1.975,-7.0145,1.3212,-0.39645,-0.44685,-1.9807,-30.54,37.5,2.52
1.5936,-6.565,1.4438,-0.17562,-0.62522,-1.4551,-33.0,36.84,2.76
1.3484,-6.4152,1.3893,-0.048258,-0.65912,-1.1161,-34.26,36.3,2.88
1.2803,-6.5786,1.4438,0.085216,-0.63988,-0.76083,-35.34,36.12,2.88
1.3484,-7.0553,1.2395,0.27886,-0.54886,-0.20892,-37.38,35.16,2.82
1.5527,-7.7636,1.1305,0.41905,-0.55131,0.17715,-38.34,34.62,2.94
1.8387,-8.5944,0.88532,0.56658,-0.59437,0.56108,-39.0,34.32,2.82
2.0839,-9.5479,0.70826,0.70799,-0.65546,0.92363,-39.72,34.02,2.76
2.2882,-12.217,0.43585,0.81825,-0.71624,1.277,-40.92,33.78,2.7
2.4108,-13.225,0.12258,0.89706,-0.71807,1.6741,-41.4,33.72,2.76
2.5742,-13.947,-0.28603,0.94318,-0.66462,2.1032,-41.64,33.9,2.82
2.8467,-14.111,-0.38137,0.96547,-0.46578,2.6041,-41.52,34.26,2.76
2.833,-14.165,-0.38137,0.89583,-0.18143,2.7669,-41.34,34.68,2.64
2.8467,-14.397,-0.25879,0.821,0.014355,2.8014,-40.86,35.04,2.64
3.7728,-13.797,-0.054481,0.5623,0.63744,2.7831,-39.96,36.42,2.34
4.1951,-12.626,-0.24517,0.47892,0.86529,2.6756,-39.42,36.96,1.98
4.5764,-11.441,-0.47671,0.52137,0.91935,2.499,-38.7,37.68,1.74
4.9714,-11.155,-0.83084,0.63133,0.86712,2.2211,-37.08,39.24,1.32
4.8216,-10.801,-0.8717,0.61606,0.81398,1.6408,-36.24,39.84,1.5
4.6854,-10.692,-0.83084,0.40287,0.85643,1.211,-35.28,40.44,1.32
3.8954,-9.8611,-0.70826,0.12187,0.98899,0.82192,-33.36,41.46,1.02
3.5413,-9.1665,-0.72188,-0.11393,1.2123,0.50885,-32.4,42.06,0.9
3.2008,-8.4038,-0.51757,-0.24251,1.4981,0.3094,-31.32,42.54,0.78
2.9965,-7.0281,-0.31327,-0.25595,1.8809,0.17746,-29.7,43.2,0.54
3.1872,-6.6604,-0.50395,-0.22938,1.9346,0.1686,-29.1,43.32,0.6
3.2689,-6.3471,-0.47671,-0.22938,1.9123,0.19059,-28.44,43.38,0.42
3.228,-5.094,-0.51757,-0.30207,1.2611,0.54031,-27.0,43.38,0.18
3.228,-5.094,-0.51757,-0.30207,1.2611,0.54031,-27.0,43.38,0.18
3.228,-5.094,-0.51757,-0.30207,1.2611,0.54031,-27.0,43.38,0.18
3.228,-5.094,-0.51757,-0.30207,1.2611,0.54031,-27.0,43.38,0.18
3.3506,-5.6116,-0.49033,-0.19761,1.2043,0.71227,-24.96,43.14,0.06
3.7728,-6.0883,-0.43585,-0.13378,1.1793,0.72479,-23.58,43.14,0.06
4.2768,-7.0281,-0.42223,-0.086437,1.062,0.71654,-22.5,42.9,-0.18
4.9033,-8.5808,-0.57205,-0.016188,0.78832,0.67745,-21.3,42.9,-0.6
5.2166,-9.2891,-0.6674,0.061697,0.43127,0.62583,-20.52,43.14,-1.2
5.094,-9.8339,-0.8036,0.18234,0.064752,0.5058,-19.44,43.38,-1.62
4.9033,-10.42,-0.98067,0.39798,-0.27611,0.20708,-18.6,43.56,-1.8
4.6037,-10.869,-1.0896,0.49388,-0.33628,-0.036652,-18.12,43.68,-2.1
4.1406,-11.468,-1.2531,0.48655,-0.25412,-0.27184,-17.88,43.86,-2.58
3.7047,-12.04,-1.0896,0.39187,-0.064446,-0.51343,-17.82,44.16,-3.18
3.5822,-12.149,-1.076,0.26328,0.21747,-0.68142,-17.7,44.28,-3.12
3.5413,-12.204,-0.76274,0.17776,0.47525,-0.75961,-18.06,44.58,-3.36
3.8001,-12.286,-0.6674,0.20006,0.54336,-0.67012,-18.24,44.46,-3.78
4.1814,-12.245,-0.62654,0.26848,0.34025,-0.50366,-18.48,44.4,-4.02
4.7263,-11.509,-0.6674,0.33537,-0.0030543,-0.2865,-18.9,44.22,-4.62
4.985,-11.019,-0.69464,0.42699,-0.49969,-0.095906,-19.2,44.34,-4.68
5.1076,-10.529,-0.70826,0.47739,-1.0843,-0.018021,-19.44,44.58,-5.04
5.4754,-10.188,-0.35413,0.44379,-1.5611,-0.069333,-19.62,44.58,-5.16
5.5162,-10.556,-0.21793,0.21472,-1.9444,-0.22083,-19.62,44.64,-5.22
5.8976,-11.509,-0.081722,0.036041,-1.9914,-0.40867,-19.92,44.58,-5.22
6.674,-12.136,0.35413,-0.11148,-1.9752,-0.62644,-20.52,44.7,-5.52
7.1915,-12.258,0.88532,-0.31673,-1.7523,-0.9279,-20.94,44.64,-5.58
7.4503,-12.04,1.2531,-0.55375,-1.2679,-1.4004,-21.24,44.7,-5.58
7.6819,-11.564,1.7979,-0.79382,-0.22755,-2.463,-22.38,45.0,-5.34
7.9679,-11.536,2.1656,-0.8546,0.52809,-3.2663,-22.86,45.18,-5.16
8.4719,-11.605,2.5061,-0.84116,1.2895,-3.9437,-23.58,45.12,-5.16
9.6841,-11.727,3.6775,-0.71044,1.9984,-4.6013,-25.86,44.82,-5.22
10.665,-11.959,4.5901,-0.42425,2.5717,-5.2082,-27.06,44.46,-5.28
12.068,-12.108,5.884,0.022297,2.959,-5.7711,-28.5,43.92,-5.52
14.029,-11.645,8.4446,1.0424,3.5268,-6.6804,-31.8,42.24,-6.48
13.702,-10.964,9.6568,1.9722,3.7663,-7.2919,-33.66,40.86,-7.14
12.871,-9.8748,9.8203,2.8662,3.613,-7.5833,-35.28,39.24,-8.16
11.959,-9.4117,10.065,3.2425,3.4853,-7.5008,-37.08,37.26,-9.3
11.577,-8.5536,9.7658,3.9896,2.7553,-6.59,-39.72,32.04,-11.82
10.896,-7.7772,9.1801,4.4779,1.8344,-5.9379,-40.8,28.68,-13.32
9.7249,-7.4776,8.4991,4.886,0.82803,-5.4969,-41.7,25.14,-14.76
8.6353,-6.4833,8.0632,5.1081,0.28008,-4.9792,-42.72,17.04,-17.28
7.4095,-4.7944,7.2733,5.1365,0.34697,-4.7202,-42.9,12.84,-18.36
6.5786,-4.0316,6.3743,5.1554,0.48106,-4.569,-42.54,8.46,-19.26
2.6832,-3.0646,2.5061,5.1273,0.89522,-3.861,-40.8,-0.24,-20.22
2.1248,-2.6968,1.2395,4.7061,1.0366,-3.134,-39.42,-4.68,-20.28
2.3155,-1.4438,0.36775,3.9059,0.93585,-2.3127,-37.62,-8.88,-20.04
2.3836,0.89894,-1.1986,2.4771,0.3094,-1.3891,-33.84,-16.62,-18.84
1.7162,1.1032,-2.3155,2.0803,0.2251,-1.0131,-31.8,-19.98,-17.76
1.6344,0.83084,-2.9965,1.8955,0.27733,-0.79474,-29.52,-22.98,-16.38
2.0567,1.9613,-2.8058,0.78618,0.38149,-0.18662,-27.48,-25.56,-14.88
4.127,2.9556,-0.89894,-0.31612,0.19609,-0.19395,-23.76,-29.46,-11.58
4.4675,4.3858,0.85808,-1.1588,0.2642,-0.25748,-22.02,-30.96,-10.02
5.9657,5.7614,3.2416,-1.0058,0.33262,-0.36102,-18.78,-33.06,-7.32
7.0962,6.0611,3.8001,-0.5339,0.33842,-0.069333,-17.4,-33.72,-6.24
7.3277,6.0611,3.6911,-0.20983,0.1408,-0.033598,-16.32,-34.2,-5.16
7.5184,6.6195,2.2474,-0.22358,-0.52168,-0.085216,-14.64,-34.62,-3.66
6.8919,6.5922,2.0975,-0.25595,-0.77427,-0.091935,-14.04,-34.56,-3.18
6.674,6.6331,1.866,-0.31093,-0.60262,-0.14966,-13.68,-34.56,-2.82
5.9385,5.8159,0.36775,-0.32406,-0.5959,-0.19151,-12.84,-34.5,-2.52
5.5435,5.5162,0.068102,-0.34544,-0.68111,-0.18265,-12.54,-34.5,-2.52
5.2983,5.5026,0.01362,-0.46914,-0.78374,-0.18845,-12.3,-34.5,-2.82
5.1894,6.0611,0.8036,-0.58796,-0.63316,-0.27917,-12.0,-34.32,-3.18
5.3937,6.5378,1.2803,-0.60842,-0.56963,-0.36652,-11.88,-34.38,-3.36
5.2575,6.8919,1.757,-0.57605,-0.73182,-0.42058,-11.58,-34.44,-3.6
3.6366,7.3005,1.7025,-0.52137,-0.8717,-0.40928,-11.52,-34.2,-3.96
2.9148,7.1915,1.58,-0.6805,-0.85796,-0.34239,-11.4,-34.32,-4.02
2.2882,7.0826,1.7298,-0.67317,-0.6576,-0.37354,-11.16,-34.2,-4.26
3.2144,7.069,2.1112,-0.60323,-0.50121,-0.29169,-10.98,-34.32,-4.8
4.2359,7.3958,2.5606,-0.41569,-0.44899,-0.25656,-10.74,-34.26,-5.16
4.8352,7.3141,2.3291,-0.16066,-0.40317,-0.26573,-10.68,-34.08,-5.4
6.4152,6.6059,-0.62654,-0.069333,-0.34117,-0.39767,-10.38,-33.9,-6.06
6.4288,6.7966,-0.8717,-0.52504,-0.33567,-0.58063,-10.38,-33.78,-6.3
6.9328,7.2188,-0.7355,-0.63255,-0.38301,-0.69089,-10.26,-33.6,-6.48
6.6059,8.1586,0.054481,-0.65485,-0.52015,-0.70983,-10.02,-33.54,-6.72
5.0531,8.9758,1.7025,-0.72296,-0.63469,-0.77855,-9.78,-33.3,-7.56
4.6173,9.6841,2.5334,-0.66615,-0.36285,-0.81673,-9.6,-33.0,-7.8
4.3449,11.046,2.0839,-0.42913,-0.080329,-0.66157,-9.18,-32.94,-8.4
2.6968,10.76,1.2531,-0.30116,-0.19639,-0.47525,-9.06,-32.82,-8.82
2.2882,9.616,0.54481,-0.22113,-0.43371,-0.064141,-8.88,-32.7,-9.12
2.0022,8.6217,-0.20431,-0.23854,-0.73945,0.20342,-8.64,-32.52,-9.42
1.1441,6.9872,-0.27241,-0.87476,-2.0898,1.4056,-8.52,-32.34,-9.6
0.12258,4.7535,0.38137,-1.4933,-2.8066,2.2801,-8.7,-32.28,-10.14
-0.054481,4.2495,0.76274,-2.0876,-3.3949,3.1921,-9.06,-32.16,-10.32
0.12258,3.4051,1.2258,-2.6686,-3.5247,3.7342,-9.84,-31.8,-10.92
1.3076,2.2746,2.2201,-2.73,-3.5809,4.2736,-10.62,-31.44,-11.4
2.1248,1.6753,2.5606,-2.6939,-3.4951,4.5421,-11.58,-31.02,-12.0
4.8216,0.8036,3.7047,-2.263,-3.2617,5.2418,-14.1,-29.7,-12.78
5.2983,-0.70826,3.5413,-1.737,-3.0311,5.6829,-15.84,-28.8,-13.26
5.5435,-1.6072,3.4187,-1.1887,-2.8903,5.9981,-17.7,-27.84,-13.62
7.3822,-4.127,3.6366,-0.43677,-2.5519,6.2757,-21.9,-25.14,-14.1
8.9077,-5.2711,3.7047,0.011301,-2.4248,6.4633,-24.24,-23.46,-14.04
10.12,-5.775,3.1599,0.46426,-2.4141,6.6132,-26.7,-21.66,-14.04
10.311,-6.2926,2.6696,0.91263,-2.682,6.6371,-29.16,-19.62,-13.92
10.256,-7.246,1.8387,1.3882,-2.9572,6.4538,-33.72,-14.4,-13.32
10.529,-8.0905,1.471,1.9453,-3.0754,6.0625,-35.88,-11.7,-12.96
11.441,-9.1937,0.99429,2.5271,-3.2648,5.9489,-37.86,-8.7,-12.42
8.5536,-9.112,0.50395,3.0204,-3.3372,5.2198,-41.52,-2.52,-10.86
6.5922,-9.2755,0.47671,3.0488,-2.6909,4.43,-42.96,0.66,-9.72
5.7069,-10.733,0.21793,3.0171,-1.4059,3.857,-43.92,3.84,-8.58
6.4424,-13.579,-0.49033,3.0833,-0.076053,3.5867,-45.42,10.08,-6.42
6.8647,-14.628,-0.98067,3.2278,0.83414,3.4376,-45.6,13.32,-5.58
7.2188,-15.595,-1.2939,3.2861,1.4334,3.321,-45.66,16.32,-4.68
8.3629,-17.529,-2.0703,3.2296,1.4053,3.3045,-45.12,22.08,-3.84
8.7306,-18.197,-2.261,2.6762,0.74709,3.2089,-44.46,24.6,-3.54
8.6898,-18.21,-2.1248,2.0064,0.073304,3.0369,-43.5,27.0,-3.54
7.9134,-17.734,-1.9341,1.2132,-0.32345,2.7226,-42.54,28.98,-3.48
6.0338,-17.162,-1.2258,0.43463,-0.25107,2.204,-40.26,32.76,-3.72
5.4754,-16.903,-0.96704,-0.17746,0.21075,1.2321,-38.82,34.32,-3.96
5.2847,-16.276,-0.54481,-0.73304,1.2162,0.62583,-37.44,35.64,-4.32
5.4754,-15.473,-0.54481,-0.89156,1.5012,0.36163,-35.82,36.84,-4.68
6.0338,-12.612,0.32689,-0.9951,1.6545,-0.3262,-32.94,38.76,-5.58
5.8295,-10.91,-0.027241,-0.86987,1.1588,-0.68845,-31.62,39.42,-6.12
4.8216,-9.2482,-0.19068,-0.90408,0.45815,-1.0418,-30.3,39.96,-6.72
1.6481,-8.322,-0.35413,-1.262,0.12706,-1.3256,-28.14,40.56,-7.38
-0.054481,-8.0769,-0.43585,-1.5669,0.60537,-1.3589,-27.3,40.74,-7.62
-1.1577,-7.641,-0.40861,-1.6206,0.83139,-1.3118,-26.64,40.62,-7.68
-2.0703,-8.0632,-0.64016,-1.9569,2.7394,-1.0522,-25.68,40.5,-7.32
-0.85808,-7.1915,0.19068,-1.9664,3.4822,-1.0886,-25.38,40.38,-7.26
0.46309,-6.7285,0.43585,-1.6093,4.456,-0.99388,-25.14,40.2,-7.02
1.6072,-6.6467,0.095342,-1.1887,4.0827,-0.88789,-25.02,40.02,-7.14
2.8194,-6.9055,-0.65378,-1.0027,3.8231,-0.87323,-25.08,39.78,-7.2
2.9556,-7.3141,-1.185,-0.697,3.0397,-0.7813,-25.38,39.18,-7.32
2.8603,-6.9464,-1.2122,-0.30879,2.0947,-0.64385,-25.68,38.88,-7.38
2.8194,-6.8919,-1.1577,-0.3711,1.5275,-0.53665,-25.92,38.58,-7.68
3.6094,-6.5241,-1.9613,-0.44899,1.0165,-0.49572,-26.4,38.34,-7.92
3.5413,-6.2245,-0.53119,-0.97586,-1.8305,0.15547,-26.58,38.1,-8.16
2.0975,-5.8976,-0.081722,-0.81153,-2.3124,0.21258,-26.76,37.8,-8.52
0.96704,-6.3471,-0.081722,-0.45968,-2.6512,0.31093,-26.64,37.74,-8.52
0.70826,-6.6467,-0.19068,-0.31429,-2.0217,0.43921,-26.58,37.74,-8.64
0.84446,-7.3958,-0.49033,-0.25534,-1.1231,0.47037,-26.46,37.68,-8.76
1.3484,-7.7364,-0.28603,-0.1631,-0.21075,0.45937,-26.34,37.44,-8.82
2.1656,-8.54,-0.88532,-0.10996,0.50366,0.49327,-26.28,37.44,-8.64
3.8409,-9.6704,-0.99429,0.13592,1.0522,0.56383,-26.04,37.86,-8.16
4.3585,-10.215,-0.99429,0.35827,0.91935,0.73579,-25.86,37.86,-7.92
4.8352,-10.637,-0.8036,0.40348,0.83139,0.78863,-25.62,38.1,-7.86
5.4481,-11.319,-0.76274,0.32865,0.26237,0.80054,-25.2,38.34,-7.56
5.5435,-11.659,-1.0896,0.32865,-0.18906,0.7648,-25.02,38.34,-7.44
5.6116,-11.836,-1.2939,0.57574,-0.58429,0.76664,-24.36,38.7,-7.08
5.6388,-11.7,-1.4846,0.79199,-0.75381,0.74587,-23.88,39.0,-6.96
5.8704,-11.768,-1.8932,0.83475,-0.81276,0.71899,-23.64,39.24,-7.08
6.0747,-11.85,-2.0567,0.83994,-0.94592,0.63744,-23.22,39.42,-7.26
6.2109,-11.659,-2.0431,0.64752,-1.1961,0.34239,-22.5,39.78,-7.68
5.8567,-11.482,-1.7162,0.33231,-1.2165,-0.0085521,-22.08,40.14,-8.04
5.4618,-11.4,-1.2667,-0.044288,-1.0354,-0.4496,-21.72,40.26,-8.34
4.9306,-11.155,-0.31327,-0.36377,-0.52931,-1.0635,-21.3,40.38,-8.64
4.8352,-11.101,-0.31327,-0.54825,-0.3708,-1.2037,-21.12,40.44,-9.06
4.8625,-11.06,0.23155,-0.57452,-0.097433,-1.5207,-21.0,40.44,-9.36
4.808,-10.746,0.40861,-0.48045,-0.07422,-1.6854,-20.94,40.5,-9.42
4.7535,-9.7522,0.31327,-0.37385,-0.1576,-1.8164,-20.94,40.62,-9.66
4.5628,-9.2755,0.28603,-0.27519,-0.3091,-1.9337,-21.18,40.62,-9.84
4.0589,-8.6081,0.23155,-0.22877,-0.44624,-2.0354,-21.96,40.2,-10.08
3.6366,-8.1313,0.28603,-0.25381,-0.56108,-2.1606,-22.44,40.08,-10.08
3.4187,-7.927,0.31327,-0.27672,-0.58429,-2.1884,-23.1,40.14,-10.2
3.0237,-7.4776,0.24517,-0.27397,-0.59346,-2.1768,-23.64,39.96,-10.32
2.5879,-6.9055,0.28603,-0.27489,-0.58582,-2.0611,-25.38,39.66,-10.2
2.3836,-6.6059,0.38137,-0.24801,-0.56688,-1.9306,-26.16,39.36,-10.26
2.1384,-6.2517,0.38137,-0.20953,-0.54275,-1.7526,-27.12,39.12,-10.44
1.9341,-6.1564,0.39499,-0.10263,-0.5061,-1.4117,-28.8,38.58,-10.44
1.7979,-6.2654,0.53119,-0.012523,-0.50824,-1.127,-29.7,38.4,-10.38
1.7843,-6.3471,0.38137,0.040317,-0.51832,-0.94684,-30.72,38.1,-10.62
1.9205,-6.5786,0.35413,0.21197,-0.63897,-0.37904,-31.62,37.86,-10.68
2.1248,-7.8453,0.27241,0.32956,-0.75136,0.034514,-33.42,37.26,-11.1
2.2882,-9.4934,-0.081722,0.46456,-0.83108,0.62156,-34.2,37.08,-11.28
2.7241,-12.258,-0.35413,0.54153,-0.83566,1.003,-35.4,36.72,-11.58
2.9965,-13.498,-0.44947,0.53115,-0.83505,1.343,-36.0,36.66,-11.58
3.1327,-13.443,-0.61292,0.49908,-0.80909,1.5116,-36.42,36.48,-11.52
3.3097,-13.348,-0.68102,0.49022,-0.67134,1.8952,-36.6,36.6,-11.52
3.8546,-14.642,-0.95342,0.58521,-0.58613,2.0461,-36.9,36.96,-11.7
3.8682,-14.955,-0.8717,0.60903,-0.43433,2.0837,-36.66,37.32,-11.82
3.8001,-15.132,-0.78998,0.46731,-0.18204,2.0452,-36.6,37.8,-11.88
4.0861,-13.934,-0.83084,0.24679,0.13317,1.9532,-36.12,38.4,-12.0
4.3177,-12.572,-0.99429,0.1069,0.39706,1.7962,-35.58,38.94,-11.7
4.4266,-11.06,-0.99429,0.12095,0.56383,1.4371,-35.04,39.3,-11.64
4.0452,-9.3572,-1.0351,0.18051,0.56474,1.1286,-33.66,40.44,-11.46
3.514,-9.3299,-1.1305,0.10934,0.55619,0.67317,-32.88,40.8,-11.34
2.7241,-9.6296,-1.0215,-0.051618,0.61453,0.46151,-31.62,41.7,-11.04
2.1929,-9.398,-0.83084,-0.26542,0.80909,0.3543,-30.66,41.88,-10.86
1.7025,-8.7306,-0.58567,-0.42394,1.138,0.30665,-29.94,42.3,-10.62
1.3757,-7.4912,-0.21793,-0.51679,1.4768,0.30329,-28.68,42.54,-10.2
1.3757,-6.8919,-0.21793,-0.46517,1.7312,0.33934,-28.14,42.72,-9.9
1.7025,-6.3062,-0.44947,-0.26481,1.825,0.52473,-27.06,42.66,-9.24
2.3155,-6.0883,-0.49033,-0.11209,1.6842,0.70616,-26.28,42.6,-8.82
2.9556,-6.0747,-0.7355,-0.025962,1.4319,0.86193,-25.5,42.66,-8.7
3.228,-5.8704,-0.78998,-0.0036652,1.1109,0.92454,-25.02,42.6,-8.58
3.4323,-5.6388,-0.96704,-0.0051924,0.8543,0.90897,-23.7,42.72,-8.16
3.337,-5.6116,-0.96704,-0.030543,0.75625,0.85827,-23.22,42.84,-8.16
3.3915,-5.6797,-1.0896,-0.04215,0.76755,0.81428,-22.68,42.84,-7.98
3.909,-6.2926,-1.3076,-0.016188,0.8491,0.77458,-21.42,42.72,-7.92
4.127,-6.5378,-1.4301,0.002138,0.85949,0.75717,-20.94,42.84,-8.1
4.304,-6.9872,-1.6208,0.022907,0.86071,0.69242,-20.28,42.78,-8.46
4.522,-7.8453,-1.58,-0.036957,0.86957,0.51282,-19.08,42.9,-8.82
4.6173,-8.3493,-1.5119,-0.080023,0.8827,0.32559,-18.42,43.08,-8.94
4.7399,-9.221,-1.7706,-0.073609,0.86834,0.12095,-17.94,43.08,-9.18
4.6309,-10.093,-1.8387,-0.040928,0.83627,-0.10568,-16.74,43.32,-9.78
4.6582,-10.624,-1.7979,-0.0030543,0.72601,-0.19731,-16.26,43.5,-9.9
4.7126,-10.896,-1.7843,0.033903,0.63591,-0.23427,-15.66,43.56,-10.26
4.3449,-10.992,-1.7979,0.22633,0.3656,-0.26237,-14.94,43.44,-10.56
4.2495,-10.992,-1.7979,0.32284,0.25809,-0.25809,-14.58,43.5,-10.8
4.1406,-11.346,-1.6753,0.33201,0.20067,-0.26512,-14.22,43.68,-10.98
3.9635,-12.776,-1.5255,0.35216,0.16157,-0.20831,-13.92,44.1,-11.46
4.1814,-13.484,-1.4574,0.18662,0.16952,-0.098655,-13.68,44.04,-11.58
4.7671,-14.152,-1.4165,0.085521,0.053756,0.025351,-13.62,44.22,-11.64
5.1757,-13.961,-1.4438,0.057116,-0.048564,0.068111,-13.32,44.34,-11.88
5.6388,-10.529,-1.1577,0.062308,-0.45448,-0.0045815,-13.2,44.4,-12.0
5.4754,-9.4798,-0.99429,0.093157,-0.68447,-0.26481,-13.2,44.4,-12.24
5.1076,-9.2618,-0.6674,0.082772,-0.84055,-0.59315,-13.2,44.58,-12.36
4.9033,-9.4798,-0.46309,0.1069,-1.0855,-0.83017,-13.56,44.82,-12.48
4.9987,-9.4798,-0.27241,0.20495,-1.3879,-0.75992,-13.74,44.94,-12.42
5.0259,-9.4798,-0.21793,0.31368,-1.7694,-0.70585,-14.04,45.06,-12.6
4.7944,-9.4117,-0.027241,0.33475,-2.0574,-0.71532,-14.76,45.18,-12.36
4.4811,-9.398,-0.027241,0.25901,-2.1527,-0.72998,-15.24,45.3,-12.3
4.3858,-9.2346,-0.054481,0.16249,-2.0803,-0.77244,-15.78,45.48,-12.24
4.2904,-8.7579,-0.28603,-0.0033598,-1.8399,-0.94287,-17.16,45.72,-11.88
4.0861,-8.5127,-0.27241,-0.21564,-1.5769,-1.1319,-18.06,45.78,-11.64
3.8682,-8.3629,-0.16344,-0.47067,-1.248,-1.35,-19.08,45.9,-11.46
3.337,-8.1177,0.16344,-0.68906,-0.85338,-1.5745,-21.06,45.84,-10.98
3.1599,-8.1722,0.36775,-0.83872,-0.46792,-1.7474,-22.2,45.96,-10.62
3.228,-8.2131,0.36775,-0.90347,-0.15058,-1.8537,-23.52,46.08,-10.08
3.1191,-8.3493,0.6674,-0.9108,0.15302,-1.8839,-26.1,45.9,-9.36
3.1054,-8.2948,0.76274,-0.87812,0.23457,-1.8204,-27.36,45.84,-8.82
3.1191,-8.2131,0.95342,-0.81734,0.22816,-1.7278,-28.68,45.6,-8.34
3.0918,-8.1177,1.0079,-0.748,0.16463,-1.6014,-30.12,45.42,-7.98
2.8603,-8.1858,1.3757,-0.64721,0.091935,-1.4517,-32.82,44.58,-7.02
2.656,-8.0905,1.5391,-0.52229,0.026878,-1.2798,-34.14,44.22,-6.6
2.4653,-8.0088,1.6481,-0.28863,-0.011606,-0.93187,-36.42,43.32,-5.46
2.4108,-7.7636,1.5936,-0.095906,-0.040317,-0.6579,-37.62,42.78,-4.98
2.438,-7.5321,1.4982,0.1405,-0.11942,-0.35797,-38.64,42.06,-4.5
2.547,-7.5593,1.4165,0.405,-0.27642,-0.029016,-39.66,41.64,-4.02
2.7377,-8.1586,0.99429,0.67776,-0.5061,0.30696,-41.4,40.74,-3.36
2.9965,-8.7987,0.54481,0.90988,-0.76114,0.66706,-42.3,40.14,-3.3
3.3778,-9.9837,-0.095342,1.1335,-1.0085,0.98197,-43.44,39.3,-2.76
3.5958,-11.06,-0.51757,1.4355,-1.3589,1.3809,-44.04,38.88,-2.76
3.7728,-12.572,-0.8036,1.5146,-1.4737,1.5064,-44.34,38.76,-2.58
3.8546,-14.056,-1.1577,1.639,-1.6985,1.905,-44.52,38.7,-2.52
3.4732,-15.568,-1.4846,1.5107,-1.6105,2.1334,-44.46,38.94,-2.64
3.0646,-15.8,-1.4846,1.2266,-1.2077,2.277,-44.34,39.12,-2.64
2.9829,-15.704,-1.9068,0.93646,-0.54795,2.3488,-43.68,39.9,-2.82
3.909,-13.566,-2.3836,0.75656,0.44318,2.3488,-43.08,40.44,-2.94
4.6445,-11.782,-2.7922,0.80237,0.82039,2.2452,-42.54,41.22,-3.06
5.1485,-10.433,-3.1599,0.82009,0.89706,2.1426,-41.82,41.82,-3.3
5.6933,-9.7522,-3.3097,0.71441,0.76908,1.6484,-40.08,43.14,-3.66
5.5435,-9.8611,-3.2008,0.42455,0.52198,1.1982,-39.0,43.92,-3.78
4.8625,-9.9837,-2.5198,-0.3656,0.29383,0.5003,-36.78,45.0,-4.08
4.3313,-9.6296,-2.0431,-0.93249,0.38332,0.11087,-35.76,45.6,-4.02
3.8818,-9.1529,-1.4165,-1.3222,0.6521,-0.20281,-34.8,46.08,-4.02
3.2689,-7.8317,-0.8036,-1.4997,1.0647,-0.44807,-32.88,46.68,-3.72
3.3097,-7.0417,-0.50395,-1.46,1.4789,-0.5846,-32.16,46.92,-3.72
3.4459,-5.9657,-0.23155,-1.2721,1.7504,-0.60109,-31.26,47.16,-3.42
3.8682,-5.0804,-0.068102,-0.99724,1.7199,-0.56016,-30.12,47.16,-3.18
4.4675,-4.9578,-0.081722,-0.5284,1.3705,-0.48136,-29.64,47.1,-3.0
4.699,-4.985,-0.16344,-0.39095,1.1115,-0.45815,-29.4,46.92,-2.88
4.9033,-5.0259,-0.31327,-0.10354,0.11576,-0.43371,-29.16,46.8,-2.58
4.5356,-4.9033,-0.31327,-0.0097738,-0.52321,-0.45448,-28.86,46.44,-2.1
3.5549,-5.4754,-0.49033,0.026573,-0.93401,-0.50244,-28.98,45.78,-1.56
3.0918,-5.8295,-0.53119,0.043982,-1.0473,-0.5568,-29.1,45.6,-1.32
2.4108,-6.8374,-0.5993,0.066279,-0.78038,-0.52565,-29.52,45.18,-0.6
2.2746,-7.6002,-0.68102,0.065363,-0.63194,-0.48686,-29.7,45.06,-0.42
2.3427,-8.7579,-0.7355,-0.0064141,-0.19212,-0.34117,-30.06,44.58,-0.06
2.4108,-8.9622,-0.57205,-0.065973,0.07025,-0.22969,-30.36,44.34,0.24
2.7513,-8.9894,-0.62654,-0.095295,0.25259,-0.14264,-30.84,43.92,0.42
3.1463,-8.7987,-0.40861,-0.042455,0.31521,-0.080023,-31.44,43.56,0.72
3.4459,-8.6081,-0.50395,0.075747,0.23793,-0.017104,-31.74,43.14,0.9
3.6366,-8.6081,-0.7355,0.35277,-0.10201,0.14233,-31.92,43.32,0.96
3.5004,-8.4446,-1.1169,0.54917,-0.39584,0.2642,-32.16,43.14,1.26
3.4051,-8.4174,-1.4165,0.68356,-0.5849,0.37385,-32.46,43.14,1.14
3.3097,-8.1313,-1.7979,0.75503,-0.68325,0.46609,-32.64,43.08,1.08
3.3234,-8.0632,-1.8524,0.77427,-0.73548,0.5229,-32.76,43.26,1.14
3.5277,-8.3629,-2.1384,0.77458,-0.78191,0.57971,-32.7,43.44,0.9
3.8273,-8.9622,-2.3018,0.73457,-0.88239,0.69089,-32.76,43.56,0.6
4.127,-9.5342,-2.152,0.67501,-0.92332,0.77366,-32.46,43.86,0.54
4.2904,-10.174,-2.1384,0.58215,-0.93401,0.87293,-32.34,44.1,0.48
4.3994,-10.924,-1.8524,0.44593,-0.88575,0.9499,-32.34,44.28,0.54
4.699,-11.005,-1.3893,0.31429,-0.74709,1.0082,-31.92,44.58,0.24
4.8761,-11.073,-1.3212,0.22022,-0.49786,1.0757,-31.68,44.82,0.06
5.7205,-11.645,-1.076,0.19884,-0.46059,1.1044,-31.32,45.12,-0.18
6.3471,-11.278,-0.99429,0.18662,-0.55161,1.1231,-30.72,45.36,-0.06
6.9464,-10.624,-0.9398,0.17593,-0.81459,1.0751,-30.3,45.72,-0.06
7.3822,-9.6432,-0.74912,0.10904,-1.2101,0.88362,-29.88,46.08,-0.18
7.7364,-8.1722,-0.19068,0.0079412,-1.6799,0.55192,-28.98,46.5,-0.24
7.3822,-8.2403,0.40861,-0.15852,-2.3146,-0.10751,-28.56,46.92,0.24
6.8374,-9.7385,1.1577,-0.21166,-2.4648,-0.30329,-27.84,47.34,0.78
6.5786,-10.529,1.362,-0.29199,-2.7193,-0.72265,-27.6,47.52,0.96
6.4152,-11.128,1.471,-0.22358,-2.8347,-0.84238,-27.42,47.7,1.26
6.3335,-11.496,1.7025,-0.14264,-2.9401,-0.92729,-27.3,47.94,2.28
6.1019,-11.645,1.8251,-0.11973,-3.0436,-1.0595,-27.3,48.0,2.82
5.7069,-11.482,1.8932,-0.16096,-3.1075,-1.2309,-27.42,47.94,4.2
5.1894,-11.155,1.9613,-0.27642,-3.0983,-1.4065,-27.6,47.94,4.92
4.7944,-11.06,2.0839,-0.47983,-2.8729,-1.686,-27.72,47.7,5.76
4.5083,-11.06,2.0294,-0.54489,-2.7422,-1.7804,-28.2,47.52,6.66
4.0861,-11.087,2.1112,-0.73212,-2.2345,-1.9795,-28.68,47.04,7.74
3.6775,-11.155,2.3427,-0.83261,-1.8812,-2.0504,-29.82,46.14,9.78
3.4732,-11.141,2.438,-0.91019,-1.3909,-2.0412,-30.48,45.54,10.92
3.3234,-10.787,2.6015,-0.93187,-1.1481,-1.9838,-31.74,44.28,13.08
3.3506,-10.365,2.5742,-0.83017,-0.98288,-1.8967,-32.28,43.68,14.28
3.3642,-10.025,2.547,-0.76175,-0.93829,-1.8393,-32.94,42.9,15.48
3.3778,-9.8066,2.5061,-0.52076,-0.92485,-1.6564,-34.2,41.1,17.46
3.4732,-9.9156,2.4108,-0.40256,-0.96517,-1.5418,-34.92,40.26,18.48
3.5004,-10.188,2.2474,-0.30879,-1.0235,-1.4752,-35.7,39.42,19.44
3.1872,-10.311,2.0703,-0.25901,-1.0229,-1.4609,-36.9,37.32,21.3
3.051,-10.474,2.0294,-0.22907,-0.85124,-1.4911,-37.68,36.54,22.2
2.8875,-10.624,1.9886,-0.20556,-0.69028,-1.4817,-38.16,35.34,22.92
2.438,-11.141,2.0839,-0.13622,-0.49511,-1.3894,-38.88,33.6,24.36
2.2474,-11.237,1.975,-0.0054978,-0.30879,-1.1979,-39.24,32.82,25.02
2.0431,-11.101,1.7025,0.23549,-0.14813,-0.91233,-39.54,31.92,25.56
2.0975,-9.2482,1.2122,0.8042,-0.0030543,-0.34819,-40.08,30.36,26.52
2.6423,-7.5729,0.54481,1.332,-0.15516,-0.0073304,-40.44,29.46,26.82
3.2008,-5.8023,-0.19068,1.9181,-0.68845,0.17043,-40.68,28.86,27.0
3.7047,-4.6309,-1.185,2.4596,-1.4844,0.20097,-40.92,28.02,27.3
3.1327,-5.3528,-1.8251,2.8295,-2.3521,0.17226,-40.92,27.78,27.42
2.4925,-7.0553,-2.0294,2.9157,-2.9899,0.17959,-40.86,27.6,27.6
0.96704,-9.2891,-2.2746,2.4334,-3.2287,0.31704,-40.5,27.84,27.72
0.43585,-10.106,-2.3699,2.1625,-3.1166,0.37843,-40.02,28.08,27.78
0.14982,-10.488,-2.1929,1.5601,-2.6444,0.52473,-39.6,28.62,27.84
0.19068,-10.515,-2.0022,0.88056,-1.3888,0.79046,-39.12,28.98,27.96
1.2122,-9.3436,-1.7979,0.74312,-0.49511,0.96792,-37.62,30.18,27.96
2.547,-8.322,-1.6344,0.81123,0.18051,1.0971,-36.9,30.84,28.08
3.9908,-8.1177,-1.5119,0.97219,0.43707,1.135,-36.06,31.68,28.38
4.9033,-8.6762,-1.8932,1.2034,0.13256,1.1484,-34.08,33.3,28.38
5.4345,-9.0984,-2.0294,1.3262,-0.43707,1.2092,-32.88,34.2,28.38
5.6661,-9.3436,-2.1112,1.4148,-1.1845,1.3182,-31.68,35.22,28.38
5.8567,-9.8203,-2.5606,1.503,-1.9334,1.4083,-29.4,37.08,28.32
5.6933,-9.9973,-2.8058,1.5601,-2.4975,1.4517,-28.14,37.92,28.2
5.0804,-10.243,-3.0918,1.5834,-2.8045,1.405,-25.26,39.72,27.9
4.8625,-10.134,-3.2553,1.4041,-2.7385,1.186,-24.0,40.5,27.6
4.6309,-10.134,-3.4187,1.1496,-2.3921,0.93676,-22.62,41.28,27.18
4.3449,-10.188,-3.5277,0.78007,-1.9477,0.60384,-19.98,42.9,26.16
4.1406,-10.011,-3.3097,0.28253,-1.4902,0.18082,-18.6,43.68,25.68
3.9908,-9.8611,-3.0373,-0.24771,-1.0675,-0.27886,-17.16,44.34,25.2
3.7184,-9.9565,-2.3291,-0.8714,-0.47892,-0.83841,-14.82,45.78,24.36
3.6094,-9.902,-1.9068,-1.1267,-0.12798,-1.1161,-13.8,46.26,24.0
3.4187,-9.793,-1.4029,-1.2929,0.19517,-1.3124,-12.9,46.68,24.0
3.2553,-9.2755,-0.65378,-1.372,0.47678,-1.4374,-11.34,47.1,23.76
3.1191,-8.9894,-0.12258,-1.347,0.68631,-1.4789,-10.8,47.28,23.76
3.0237,-8.2948,0.17706,-1.2309,0.8097,-1.4016,-10.5,47.34,23.76
3.1191,-7.4503,0.54481,-0.99571,0.81398,-1.1903,-10.92,47.22,24.12
3.1191,-7.3686,0.70826,-0.49969,0.56077,-0.64568,-11.16,47.1,24.36
3.3097,-7.6683,0.81722,-0.1857,0.27428,-0.15241,-11.7,46.86,24.78
3.4868,-10.311,1.5391,0.009163,-0.0061087,0.42364,-13.02,46.26,25.68
4.5492,-11.496,1.4982,0.20617,-0.29535,1.0589,-13.68,45.84,25.98
6.3062,-10.951,1.1032,0.50977,-0.89522,1.6414,-14.46,45.66,26.16
8.7034,-8.2948,0.92618,0.91813,-1.9056,1.9456,-15.12,45.3,26.7
8.9758,-8.0496,1.1577,1.3018,-3.5522,1.7116,-15.24,45.12,27.0
8.6762,-8.5127,1.5119,1.212,-4.4242,1.2278,-15.18,44.94,27.0
8.1586,-9.7385,1.9205,1.0568,-4.7342,0.94806,-14.88,44.88,27.12
7.6546,-11.673,1.9068,0.46609,-5.0955,0.23091,-13.44,45.18,26.82
7.3686,-11.959,2.0158,0.19487,-4.9938,-0.14386,-12.48,45.36,26.7
6.8374,-12.095,2.1112,0.025351,-4.5653,-0.56902,-11.22,45.54,26.46
5.7069,-11.523,2.0567,-0.18784,-3.5128,-1.2758,-8.4,45.9,25.74
5.3937,-11.332,1.9341,-0.28588,-2.7779,-1.7113,-6.9,46.2,25.38
5.3528,-11.536,1.7706,-0.32834,-2.481,-1.8818,-5.46,46.32,24.72
5.1485,-11.795,1.7434,-0.45571,-1.9456,-2.263,-3.06,46.8,23.76
4.9578,-11.904,1.9613,-0.55955,-1.7517,-2.3867,-1.92,47.04,23.4
4.6037,-11.877,2.2474,-0.73976,-1.5663,-2.4587,-0.6,47.04,22.38
4.3585,-11.904,2.4108,-0.77824,-1.4404,-2.4703,-0.24,47.1,22.02
4.2495,-11.959,2.4653,-0.76786,-1.3754,-2.4658,-0.18,47.22,21.78
4.0997,-11.959,2.6423,-0.67623,-1.2254,-2.4175,-0.3,47.22,21.54
3.8682,-11.4,2.656,-0.44532,-0.98991,-2.3106,-1.5,46.62,21.24
3.8001,-10.801,2.7104,-0.26756,-0.86743,-2.2596,-2.28,46.32,21.18
3.8001,-10.801,2.7104,-0.11576,-0.80268,-2.2526,-2.28,46.32,21.18
