Ax,Ay,Az,Gx,Gy,Gz,Mx,My,Mz
3.9908,-13.974,0.068102,-0.043677,-0.47403,0.92149,-6.12,42.48,-0.48
3.9499,-14.601,-0.068102,-0.068722,-0.48106,0.96761,-6.36,42.66,-0.6
3.8137,-15.759,0.040861,-0.16371,-0.37232,1.0724,-6.48,42.72,-0.84
3.5277,-15.541,0.19068,-0.3824,0.095295,1.2004,-6.42,42.54,-1.08
3.6366,-14.165,-0.095342,-0.51313,0.46395,1.2639,-6.24,42.6,-1.02
4.1133,-11.972,-0.83084,-0.53787,0.63744,1.2376,-6.12,42.54,-0.96
4.1542,-10.065,-1.58,-0.52718,0.66065,0.90439,-5.28,42.42,-0.48
3.8137,-9.8066,-1.471,-0.52137,0.67684,0.61575,-4.86,42.3,-0.18
3.1599,-9.7113,-0.96704,-0.51954,0.73212,0.46976,-4.26,42.36,0.12
3.1872,-8.4719,-0.83084,-0.49266,0.96395,0.057116,-3.24,42.12,1.02
3.3915,-7.9679,-0.88532,-0.48106,1.0641,-0.09499,-2.7,41.94,1.68
3.5822,-7.6002,-1.0215,-0.45173,1.0626,-0.13836,-2.1,41.88,2.28
3.732,-6.6331,-1.1169,-0.38423,1.0122,-0.11881,-1.08,41.34,3.42
3.732,-5.993,-1.0215,-0.27184,0.90836,-0.1069,-0.66,40.98,3.9
3.6775,-5.5571,-1.1713,-0.20708,0.77061,-0.1347,-0.06,40.8,4.56
3.514,-4.699,-1.2531,-0.17654,0.67745,-0.20189,0.48,40.68,5.64
3.4187,-4.522,-1.2395,-0.15882,0.63897,-0.28619,0.72,40.44,6.12
3.3778,-4.4402,-1.185,-0.16616,0.62858,-0.36835,1.02,40.44,6.66
3.3642,-4.7399,-1.1441,-0.20097,0.63835,-0.45723,1.2,40.08,7.44
3.3506,-4.9442,-1.0351,-0.22449,0.64477,-0.49144,1.14,40.08,7.8
3.4187,-5.094,-1.0624,-0.25473,0.64263,-0.48717,1.14,39.9,8.1
3.514,-6.4016,-0.98067,-0.27794,0.63774,-0.42883,0.78,39.54,8.46
3.6366,-7.2052,-0.83084,-0.30085,0.63683,-0.33201,0.6,39.48,8.28
3.7592,-8.0905,-0.84446,-0.30085,0.64538,-0.19303,0.42,39.48,8.4
4.0997,-9.6841,-0.7355,-0.30177,0.65943,0.057421,-0.18,39.36,8.46
4.0997,-10.297,-0.7355,-0.2642,0.6747,0.24068,-0.42,39.3,8.4
4.2495,-10.665,-0.69464,-0.23427,0.68386,0.33781,-0.78,39.36,8.28
4.6037,-11.019,-0.74912,-0.098655,0.64294,0.6295,-1.08,39.24,8.34
4.7944,-11.25,-0.99429,0.014661,0.53848,0.83994,-1.14,39.24,8.28
5.1894,-11.931,-1.1577,0.1179,0.34514,1.0635,-1.26,39.24,8.22
5.8295,-14.097,-1.4301,0.17532,0.097128,1.2813,-1.02,39.36,8.34
6.1564,-15.255,-1.3212,0.14813,-0.24709,1.4416,-0.96,39.24,8.28
6.1292,-15.01,-1.1169,0.11637,-0.33109,1.3906,-0.78,39.24,8.34
5.6524,-13.716,-0.88532,0.082772,-0.42913,1.1487,-0.42,39.42,8.4
4.8625,-11.223,-0.61292,0.11515,-0.49083,0.7025,0.24,39.42,8.46
4.7263,-10.311,-0.50395,0.16738,-0.56352,0.37751,0.6,39.3,8.46
4.7944,-9.2755,-0.54481,0.22419,-0.64416,0.13439,1.14,39.3,8.58
4.9306,-8.6898,-0.34051,0.26267,-0.76328,-0.062003,2.28,39.36,8.52
4.5901,-8.6081,-0.081722,0.24862,-0.83261,-0.20556,2.7,39.24,8.52
4.304,-8.3765,0.095342,0.19761,-0.8039,-0.35461,3.3,39.3,8.46
3.7047,-7.3822,0.12258,0.16066,-0.65027,-0.54306,3.96,39.12,8.28
3.5004,-6.7966,0.17706,0.13714,-0.47983,-0.72265,4.26,39.12,8.28
3.3506,-6.1973,0.25879,0.12462,-0.37385,-0.87842,4.44,39.06,8.16
3.1463,-5.2166,0.46309,0.15485,-0.32803,-1.0663,4.62,39.0,7.92
3.228,-5.094,0.39499,0.17959,-0.36866,-1.1267,4.62,38.94,7.74
3.1735,-5.1621,0.34051,0.19212,-0.40348,-1.1417,4.44,38.82,7.56
3.1599,-5.5435,0.40861,0.19426,-0.50671,-1.1493,4.14,38.76,7.44
2.8875,-5.8295,0.53119,0.18448,-0.52443,-1.1188,3.36,38.52,7.08
2.7922,-6.4424,0.61292,0.1518,-0.49847,-1.0406,2.76,38.64,6.9
2.833,-7.5184,0.72188,0.065057,-0.36896,-0.85338,1.44,38.52,6.48
2.8467,-8.1995,0.70826,-0.0067195,-0.25381,-0.70677,0.96,38.58,6.24
2.9284,-8.6081,0.6674,-0.036041,-0.19517,-0.62156,0.18,38.52,6.0
3.1735,-10.215,0.64016,-0.10965,-0.041844,-0.30543,-0.96,38.4,5.58
3.337,-10.937,0.7355,-0.14478,0.024435,-0.081551,-1.56,38.28,5.28
3.514,-11.645,0.76274,-0.14386,0.024129,0.15272,-2.22,38.28,5.1
4.0044,-12.572,0.5993,-0.078496,-0.11362,0.44715,-3.3,38.22,4.5
4.2495,-12.939,0.47671,0.000916,-0.32956,0.59804,-3.84,38.28,4.32
4.3721,-13.266,0.20431,0.040012,-0.45326,0.66309,-4.14,38.22,4.08
4.1951,-15.159,0.19068,0.069944,-0.68631,0.80573,-4.5,38.1,3.72
4.0589,-15.895,0.28603,0.034208,-0.60598,0.88606,-4.62,38.1,3.54
3.8137,-15.609,0.20431,-0.058032,-0.37446,0.90744,-4.62,37.98,3.54
3.8137,-13.184,-0.58567,-0.15149,-0.10599,0.88423,-4.44,37.74,3.72
3.8818,-11.931,-0.83084,-0.22541,0.18876,0.63774,-4.14,37.68,3.72
3.623,-9.7249,-1.4029,-0.22571,0.25748,0.50855,-3.9,37.62,3.84
3.1463,-9.3163,-1.2531,-0.24526,0.38943,0.17746,-3.54,37.56,4.08
3.0782,-9.6023,-1.0896,-0.27397,0.52595,-0.024129,-3.18,37.44,4.32
3.2553,-9.0848,-1.076,-0.29169,0.65943,-0.19731,-2.76,37.26,4.44
3.2008,-8.6353,-1.076,-0.2926,0.70158,-0.24435,-2.34,37.14,4.68
3.1872,-7.4095,-1.0351,-0.25381,0.6692,-0.18784,-1.56,36.78,5.4
3.1463,-6.9872,-1.0896,-0.22969,0.64141,-0.14294,-1.2,36.6,5.7
3.3097,-5.2711,-1.2531,-0.15577,0.53329,-0.054367,-0.78,36.42,5.94
3.3097,-5.2711,-1.2531,-0.14019,0.46029,-0.011301,-0.54,36.36,6.36
2.7513,-4.2768,-1.0215,-0.1179,0.21472,0.0012217,0.3,36.24,6.96
2.6423,-4.0997,-0.89894,-0.1182,0.2416,-0.05284,0.6,36.24,7.2
2.6696,-3.9363,-0.83084,-0.12187,0.25473,-0.07758,0.66,36.18,7.5
2.8467,-4.3721,-0.31327,-0.14416,0.26725,-0.11179,0.84,36.18,7.86
2.7786,-5.3119,-0.12258,-0.15669,0.30513,-0.12126,1.08,36.12,8.1
2.8194,-5.9249,0.027241,-0.17379,0.41569,-0.07422,1.08,36.12,8.22
3.1327,-7.3005,0.17706,-0.14325,0.478,-0.047037,1.14,36.24,8.52
3.337,-7.7364,0.095342,-0.082772,0.46976,-0.000611,1.02,36.36,8.46
3.7592,-8.8941,-0.20431,-0.0012217,0.40134,0.087659,0.9,36.36,8.52
4.1406,-10.052,-0.53119,0.083383,0.2642,0.21991,0.96,36.3,8.64
4.3313,-10.392,-0.8036,0.16005,0.15241,0.35827,0.96,36.24,8.58
4.6309,-10.515,-1.2803,0.23366,0.0054978,0.52534,0.84,36.3,8.7
4.6037,-10.597,-1.4301,0.25137,-0.047037,0.62156,0.84,36.36,8.64
4.5901,-10.951,-1.58,0.24251,-0.013744,0.73151,0.78,36.24,8.58
4.7944,-12.258,-1.6344,0.16921,0.10079,0.88453,0.84,36.24,8.52
4.9169,-12.967,-1.6072,0.076358,0.17165,1.0372,1.08,36.12,8.46
5.4209,-14.124,-1.757,-0.031154,0.17532,1.1982,1.32,36.24,8.34
6.2517,-14.982,-1.2258,-0.15821,0.13225,1.2666,1.86,36.18,8.16
6.0883,-13.729,-1.0079,-0.20647,-0.011606,1.1454,2.04,36.18,8.16
5.7205,-11.686,-0.89894,-0.18295,-0.13622,0.90988,2.46,36.06,8.22
5.2847,-10.215,-0.81722,-0.035125,-0.54153,0.47342,3.42,36.0,8.1
5.2983,-9.8339,-0.6674,0.076053,-0.87262,0.1909,3.9,36.0,7.92
5.4073,-9.6432,-0.47671,0.11698,-0.99876,0.059254,4.38,36.0,7.8
4.9714,-9.2074,-0.027241,0.1573,-1.2098,-0.31398,5.28,35.94,7.68
4.2768,-9.0167,0.19068,0.13073,-1.1759,-0.57849,5.64,36.0,7.56
3.7592,-8.5672,0.17706,0.083994,-0.9841,-0.85704,6.12,36.0,7.44
3.4323,-7.8998,0.42223,0.026573,-0.56413,-1.2104,6.66,35.94,7.5
3.3506,-7.464,0.51757,0.0033598,-0.37904,-1.3845,6.66,35.88,7.38
3.2144,-7.0553,0.64016,0.014355,-0.25504,-1.5379,6.6,35.82,7.26
3.051,-6.2245,0.78998,0.040623,-0.19395,-1.6377,6.42,35.7,7.14
3.0782,-6.1292,0.8036,0.072388,-0.21289,-1.6967,6.24,35.7,6.9
2.9011,-6.2517,0.98067,0.1066,-0.25045,-1.7031,5.82,35.88,6.72
2.5879,-6.0611,1.1169,0.14875,-0.26878,-1.6924,4.38,35.94,6.18
2.4925,-6.1155,1.1713,0.20006,-0.27855,-1.5934,3.54,36.0,5.88
2.547,-6.4697,1.0624,0.21777,-0.2923,-1.4557,2.76,36.06,5.46
2.5742,-7.6138,1.076,0.21197,-0.28527,-1.277,1.08,36.06,4.68
2.6423,-8.1177,0.99429,0.18631,-0.23824,-1.0672,0.12,36.06,4.38
2.656,-8.6898,0.89894,0.17135,-0.17685,-0.8152,-0.96,36.12,3.96
3.0237,-10.297,0.77636,0.15547,-0.14539,-0.38729,-2.64,36.12,2.82
3.2825,-10.964,0.68102,0.13592,-0.208,-0.081551,-3.36,36.24,2.64
3.3642,-11.387,0.39499,0.12614,-0.25779,0.066279,-4.08,36.36,2.34
3.4868,-12.354,0.31327,0.10904,-0.33506,0.38087,-5.04,36.24,1.92
3.8001,-14.056,0.12258,0.0030543,-0.33384,0.82192,-6.0,36.36,1.38
3.7592,-14.914,0.17706,-0.10079,-0.25229,1.0858,-6.48,36.18,1.02
3.6775,-15.05,0.31327,-0.23396,-0.053756,1.328,-6.72,36.12,0.84
3.9908,-13.852,-0.068102,-0.39126,0.26817,1.6154,-6.9,35.88,0.42
4.3585,-12.667,-0.57205,-0.40745,0.32406,1.6722,-6.9,35.64,0.6
4.4947,-11.605,-1.2258,-0.40836,0.35919,1.6591,-6.72,35.58,0.84
4.2904,-10.515,-1.6072,-0.38362,0.34025,1.4044,-6.06,35.34,1.2
3.9908,-10.147,-1.4982,-0.38149,0.3372,1.1423,-5.52,35.22,1.56
3.8001,-9.793,-1.2122,-0.416,0.37171,0.87415,-5.16,35.04,2.16
3.8273,-8.9894,-0.95342,-0.45662,0.49205,0.61361,-3.9,34.68,2.82
3.6366,-8.2948,-1.0896,-0.49908,0.75198,0.28955,-3.06,34.44,3.24
3.5958,-7.8998,-1.1577,-0.50824,0.83902,0.20739,-2.4,34.5,3.72
3.5958,-7.2188,-1.0624,-0.47098,0.978,0.018326,-1.86,34.32,4.2
3.6911,-5.4073,-0.8036,-0.40623,0.9389,-0.053451,-0.54,34.32,5.4
3.4732,-4.6173,-0.64016,-0.31826,0.80359,-0.086437,-0.12,34.32,5.94
3.4323,-3.9363,-0.50395,-0.23396,0.59651,-0.12981,1.02,34.38,7.26
3.2825,-3.7728,-0.54481,-0.16127,0.40897,-0.1741,1.5,34.5,7.74
3.2553,-3.9635,-0.58567,-0.10599,0.27031,-0.19212,1.8,34.44,8.16
3.1463,-4.699,-0.61292,-0.12462,0.2532,-0.146,2.22,34.38,8.88
3.1599,-5.1213,-0.62654,-0.1518,0.30299,-0.09896,2.4,34.38,9.06
3.3506,-6.0883,-0.65378,-0.1909,0.36866,0.019242,2.64,34.5,9.54
3.7047,-7.4776,-0.50395,-0.22785,0.4273,0.10782,2.64,34.5,9.78
3.8546,-8.5263,-0.7355,-0.21961,0.4499,0.18601,2.64,34.5,9.96
3.9227,-9.0303,-0.81722,-0.18662,0.45754,0.28466,2.64,34.56,10.08
4.5083,-10.678,-1.1441,-0.15424,0.43402,0.3937,2.58,34.62,10.32
4.7671,-11.155,-1.2803,-0.082772,0.37415,0.48961,2.58,34.62,10.32
4.8352,-11.237,-1.3348,-0.020159,0.27672,0.56841,2.76,34.5,10.44
4.8625,-11.073,-1.4165,0.061697,0.17807,0.6692,2.88,34.38,10.38
4.9033,-11.087,-1.5119,0.1628,0.031765,0.74067,2.88,34.38,10.44
4.9714,-11.4,-1.5391,0.19548,-0.009163,0.7813,3.12,34.5,10.44
5.1621,-12.83,-1.7298,0.18754,-0.10476,0.95417,3.54,34.5,10.5
5.6116,-14.029,-1.8115,0.12645,-0.13958,1.1002,3.96,34.5,10.44
6.2245,-15.037,-1.5936,0.014661,-0.13439,1.1643,4.26,34.56,10.32
5.8023,-12.871,-1.2122,-0.098655,-0.13073,0.8885,4.74,34.32,10.2
5.3937,-10.801,-1.1169,-0.075136,-0.20036,0.57788,4.98,34.2,10.2
5.1894,-10.202,-1.076,-0.036957,-0.29566,0.42211,5.4,34.02,10.26
5.1349,-9.1937,-1.0351,0.093768,-0.69303,-0.012523,6.06,33.96,10.32
5.38,-8.9349,-1.0215,0.16677,-0.93921,-0.26664,6.48,33.84,10.26
5.2166,-9.0848,-0.88532,0.18509,-1.1194,-0.48717,6.78,33.84,10.26
4.0316,-8.6217,-0.28603,0.13347,-1.091,-0.87904,7.32,33.78,10.2
3.6775,-8.0496,-0.14982,0.076053,-0.90439,-1.1206,7.62,33.72,10.14
3.6094,-7.355,-0.17706,0.050091,-0.80298,-1.2254,7.86,33.54,9.9
3.4732,-7.0417,-0.027241,0.0045815,-0.56047,-1.4587,7.8,33.6,9.72
3.2961,-6.5922,0.10896,-0.0042761,-0.44318,-1.5513,7.74,33.54,9.72
3.1735,-5.9657,0.31327,0.0042761,-0.37354,-1.6026,7.14,33.48,9.78
3.1872,-6.1019,0.54481,0.0073304,-0.35186,-1.6319,6.72,33.54,9.84
3.0373,-5.8976,0.7355,0.009163,-0.36194,-1.6383,6.3,33.6,9.84
2.6423,-5.7069,0.85808,0.019853,-0.36072,-1.6136,5.04,33.72,9.36
2.6832,-5.9657,0.78998,0.041844,-0.34453,-1.5626,4.38,33.78,9.06
2.7104,-6.1836,0.8036,0.07086,-0.35888,-1.409,3.66,33.66,8.7
2.7786,-6.9872,0.8036,0.080329,-0.35705,-1.2749,2.22,33.6,8.1
2.833,-7.5184,0.83084,0.093462,-0.32376,-1.1112,1.26,33.66,7.74
3.1054,-9.3708,0.55843,0.1014,-0.28039,-0.89309,0.48,33.72,7.62
3.3506,-10.61,0.55843,0.10751,-0.25992,-0.6353,-1.14,33.78,7.02
3.4732,-11.686,0.43585,0.10782,-0.25717,-0.26634,-1.74,33.72,6.9
3.7047,-12.735,0.27241,0.11942,-0.24496,-0.020464,-2.28,33.6,6.6
4.1406,-14.478,0.12258,0.10507,-0.25443,0.21166,-3.24,33.42,5.94
4.2495,-14.805,-0.12258,0.084299,-0.29841,0.37751,-3.66,33.36,5.58
4.0861,-15.84,-0.16344,0.046426,-0.35675,0.51618,-3.9,33.36,5.28
3.8137,-16.045,-0.14982,-0.06017,-0.24038,0.73243,-4.14,33.24,5.1
3.6094,-15.391,-0.31327,-0.12645,-0.018937,0.83291,-4.08,33.12,4.98
3.6094,-14.833,-0.57205,-0.1686,0.24618,0.90622,-3.96,33.12,4.98
3.9363,-11.25,-1.3212,-0.17868,0.41905,0.88973,-3.78,33.18,5.04
3.7184,-10.12,-1.6889,-0.16952,0.48472,0.75839,-3.6,33.06,5.1
3.3642,-8.8668,-1.8796,-0.19059,0.49297,0.58093,-3.42,32.94,5.1
3.1872,-8.6353,-1.6072,-0.20861,0.51099,0.5339,-3.0,32.82,5.16
3.3778,-8.3357,-1.4846,-0.25045,0.57024,0.44471,-2.82,32.76,5.4
3.4323,-7.8317,-1.58,-0.31582,0.67531,0.38393,-2.7,32.76,5.64
3.3097,-7.1507,-1.5663,-0.34056,0.72113,0.41478,-2.28,32.58,6.36
3.4596,-6.674,-1.3484,-0.34606,0.7367,0.4331,-1.8,32.4,6.6
3.6775,-5.5843,-1.2258,-0.29199,0.65088,0.48197,-1.2,32.1,7.26
3.6911,-5.1213,-1.3757,-0.25076,0.5342,0.51252,-0.9,32.16,7.68
3.5685,-4.7671,-1.4165,-0.23946,0.49022,0.5006,-0.66,32.28,8.04
3.3097,-4.5764,-1.2939,-0.28405,0.51221,0.4441,-0.48,32.28,8.4
3.2825,-4.1814,-0.92618,-0.32162,0.62186,0.42944,-0.24,32.16,9.12
3.5277,-4.1542,-0.95342,-0.343,0.63835,0.44379,0.3,32.1,9.54
3.7728,-4.2904,-0.83084,-0.35827,0.54062,0.49266,0.6,32.04,9.84
3.8682,-5.3256,-0.89894,-0.36255,0.42028,0.56688,1.26,32.1,10.56
3.8818,-6.0202,-0.89894,-0.35613,0.39401,0.67745,1.62,32.04,10.74
4.0044,-7.0009,-0.89894,-0.35003,0.40714,0.73029,2.1,32.1,11.04
4.2223,-8.0496,-0.89894,-0.34636,0.41386,0.91416,2.4,32.16,11.28
4.7671,-10.243,-1.0896,-0.32559,0.39645,1.0235,2.94,32.28,11.7
4.9306,-11.291,-1.2395,-0.25443,0.42486,1.1558,3.36,32.46,11.82
5.094,-12.068,-1.1032,-0.20861,0.44288,1.1781,3.96,32.28,12.06
5.2983,-12.013,-1.0488,-0.090408,0.45448,1.2147,4.38,32.1,12.3
5.5026,-12.217,-1.2258,0.051313,0.3427,1.2565,4.74,32.04,12.42
6.674,-14.165,-1.8387,0.21655,0.051618,1.2969,5.7,32.04,12.78
7.2733,-15.241,-2.0294,0.21319,-0.021686,1.2144,6.12,31.98,12.96
7.5729,-15.377,-1.8115,0.16646,0.044288,0.92546,6.6,31.98,13.02
7.0417,-12.681,-1.1577,0.11301,0.10934,0.13195,7.56,31.74,13.02
6.5378,-11.319,-1.0624,0.16738,-0.083078,-0.41875,7.92,31.68,13.14
6.2517,-10.542,-1.3212,0.25565,-0.36774,-0.89309,8.22,31.5,13.14
6.1019,-9.793,-1.2122,0.33262,-0.66706,-1.2248,9.0,31.44,13.14
5.8023,-9.4117,-0.8036,0.35491,-0.89828,-1.4343,9.3,31.38,13.02
5.094,-9.1937,-0.25879,0.31337,-1.0058,-1.5843,9.42,31.2,13.02
4.2087,-8.6762,0.12258,0.20006,-1.0043,-1.795,9.42,31.26,12.84
3.8409,-7.9951,0.14982,0.13042,-0.92577,-1.8952,9.24,31.26,12.72
3.6775,-7.6683,0.14982,0.093768,-0.86804,-1.9355,9.06,31.2,12.48
3.1872,-6.851,0.42223,0.010079,-0.67042,-2.0021,8.28,30.96,12.12
3.0237,-6.4833,0.40861,-0.0076358,-0.5452,-2.0134,7.74,30.9,11.82
2.8058,-6.2926,0.61292,0.0054978,-0.42852,-2.0067,7.14,30.96,11.64
2.6968,-5.8976,0.76274,0.023518,-0.3708,-1.9905,5.64,31.02,11.4
2.6015,-5.6661,0.85808,0.068722,-0.39706,-1.9526,4.92,31.02,11.16
2.5742,-5.6661,0.95342,0.11454,-0.47709,-1.8689,4.02,31.14,10.92
2.5742,-6.0066,0.89894,0.15944,-0.56994,-1.6399,3.24,31.26,10.74
2.4925,-6.851,0.92618,0.16463,-0.58979,-1.4511,1.62,31.32,10.26
2.4653,-7.5321,0.83084,0.17196,-0.54214,-1.2165,0.96,31.26,9.9
2.7104,-9.4661,0.85808,0.16096,-0.4328,-0.81856,-0.36,31.26,9.6
2.7786,-10.474,0.83084,0.15272,-0.37324,-0.54703,-1.08,31.2,9.36
2.942,-11.523,0.70826,0.15149,-0.34392,-0.26848,-1.56,31.14,9.42
3.1735,-12.258,0.6674,0.15852,-0.35033,0.0012217,-2.04,31.2,9.18
3.3642,-13.089,0.21793,0.14783,-0.33323,0.2645,-2.7,31.26,9.0
3.4051,-13.661,0.095342,0.093462,-0.27886,0.55955,-3.0,31.2,8.94
3.4732,-15.323,0.34051,0.0024435,-0.18112,0.91447,-3.06,31.2,8.94
3.5413,-15.554,0.47671,-0.20495,0.17715,1.5058,-3.42,31.08,8.76
3.8273,-14.901,0.23155,-0.35033,0.5229,1.8524,-3.18,30.84,8.82
4.018,-14.015,-0.040861,-0.41997,0.76236,2.0342,-3.18,30.72,8.88
4.2632,-10.964,-1.4165,-0.41386,0.8604,2.0085,-2.94,30.84,8.94
4.2904,-10.038,-1.8932,-0.33872,0.80054,1.8732,-2.7,30.9,9.06
4.5356,-9.3844,-1.975,-0.25259,0.65363,1.7578,-2.4,31.02,9.24
4.8216,-9.1937,-1.9477,-0.20342,0.55344,1.6808,-1.8,31.08,9.78
4.8897,-8.8668,-1.9477,-0.14478,0.42638,1.5693,-1.38,31.08,10.14
4.7944,-8.4719,-1.9341,-0.13011,0.38759,1.5437,-0.84,31.02,10.38
4.5492,-7.4367,-1.8115,-0.079718,0.29627,1.4542,0.12,31.08,10.86
4.5628,-6.4288,-2.152,-0.048258,0.25443,1.3757,0.84,31.14,11.22
4.4811,-5.5707,-2.1248,-0.064141,0.22724,1.2819,2.4,31.26,12.06
4.3313,-5.1894,-1.9886,-0.14813,0.28405,1.1793,3.18,31.32,12.36
4.0316,-4.9578,-1.7298,-0.24312,0.38973,1.029,3.9,31.5,12.6
3.8818,-4.7671,-1.5391,-0.32376,0.5287,0.88698,4.68,31.5,12.96
4.0589,-4.8352,-1.185,-0.37904,0.6463,0.75656,6.24,31.26,13.74
4.1542,-4.8625,-1.1169,-0.41722,0.69883,0.59682,6.9,31.26,14.04
4.2359,-5.7069,-1.2258,-0.416,0.70799,0.47281,8.22,31.2,14.58
4.413,-6.6059,-1.185,-0.38546,0.63072,0.34392,8.88,31.08,14.64
4.5356,-7.641,-1.1713,-0.34575,0.55558,0.29658,9.42,31.08,14.7
4.808,-8.9349,-1.1169,-0.30421,0.47067,0.28588,9.96,31.02,14.76
4.9033,-10.774,-0.96704,-0.2645,0.4105,0.29291,10.68,31.08,15.3
4.9306,-11.223,-1.0079,-0.17043,0.35949,0.25626,11.04,30.96,15.48
5.094,-11.21,-1.1577,0.014966,0.22205,0.208,11.22,30.72,15.84
5.1076,-10.924,-1.2395,0.15577,0.073304,0.19059,11.4,30.6,16.02
5.203,-11.101,-1.4029,0.28008,-0.078496,0.16554,11.52,30.48,16.08
5.2302,-11.387,-1.4029,0.34636,-0.15455,0.14997,11.7,30.48,16.26
5.5435,-12.79,-1.6753,0.41539,-0.33475,0.12187,11.64,30.24,16.44
5.6388,-13.675,-1.6344,0.38546,-0.38393,0.073915,11.76,30.12,16.32
5.5435,-13.866,-1.4029,0.28955,-0.32956,-0.072388,11.82,29.94,16.38
4.9442,-11.577,-0.95342,0.21655,-0.17593,-0.49388,11.82,29.94,16.26
4.6854,-10.964,-0.81722,0.23946,-0.21625,-0.77519,11.82,29.88,16.2
4.5628,-10.733,-0.61292,0.28008,-0.36744,-1.0449,11.82,29.94,16.14
4.4266,-10.665,-0.46309,0.32529,-0.551,-1.2468,11.88,29.88,15.9
4.3858,-10.515,-0.40861,0.35797,-0.7086,-1.3766,11.64,29.88,15.78
4.1542,-10.351,-0.095342,0.34453,-0.76755,-1.5012,11.34,29.94,15.42
3.4459,-9.8066,0.23155,0.32284,-0.72388,-1.5754,11.04,30.0,15.12
3.228,-8.8396,0.35413,0.29932,-0.67042,-1.6524,10.74,30.18,15.12
3.0646,-8.4038,0.39499,0.28741,-0.62003,-1.6921,10.32,30.12,14.82
2.8467,-7.069,0.64016,0.30971,-0.60842,-1.7003,9.48,30.36,14.16
2.7104,-6.4288,0.61292,0.34117,-0.6298,-1.6729,8.82,30.54,13.92
2.6696,-5.9112,0.54481,0.38087,-0.67378,-1.6347,8.22,30.78,13.68
2.547,-5.3937,0.64016,0.41478,-0.72876,-1.4945,6.96,31.26,12.9
2.5061,-5.2166,0.7355,0.45693,-0.81551,-1.3604,6.3,31.62,12.54
2.438,-5.094,0.76274,0.47189,-0.83291,-1.2022,5.64,31.8,12.12
2.2337,-5.203,0.91256,0.46181,-0.82161,-1.0229,4.38,32.16,11.1
2.1793,-5.2575,0.83084,0.44624,-0.79077,-0.82222,3.66,32.34,10.56
2.2201,-5.4209,0.8036,0.43433,-0.76328,-0.60751,3.18,32.7,10.02
2.3836,-5.6252,0.8717,0.40561,-0.77458,-0.21564,2.22,33.12,9.12
2.6832,-6.3607,0.5993,0.38118,-0.82742,0.092241,1.8,33.24,8.46
2.9692,-6.96,0.50395,0.37385,-0.90194,0.41875,1.44,33.72,7.98
3.4187,-7.927,0.35413,0.34056,-1.014,0.77672,1.26,33.96,7.44
4.0861,-9.7522,0.24517,0.30818,-1.1661,1.1176,1.14,34.5,6.9
4.522,-11.305,-0.01362,0.27764,-1.328,1.4117,1.14,34.68,6.36
4.7944,-12.313,-0.21793,0.22999,-1.4426,1.6753,1.14,34.92,6.24
5.2711,-14.724,-0.54481,0.16585,-1.5217,2.0229,1.74,35.04,5.7
5.4073,-15.813,-0.55843,0.094073,-1.438,2.2101,2.22,35.1,5.52
5.3528,-16.44,-0.58567,0.033292,-1.2688,2.3714,2.7,35.22,5.28
5.4481,-16.957,-0.8036,-0.0027489,-1.011,2.5229,3.96,35.22,5.1
5.8159,-15.963,-1.0351,-0.0036652,-0.80176,2.6078,4.68,35.1,4.86
6.3607,-14.342,-1.3212,0.063835,-0.8097,2.5287,5.4,35.1,4.8
6.3743,-10.27,-1.8796,0.19395,-1.1506,1.9383,7.14,34.8,4.8
5.7614,-8.5672,-1.8251,0.25687,-1.5256,1.3405,8.16,34.38,4.86
4.9033,-7.8317,-1.3484,0.2532,-1.8369,0.74098,9.0,34.14,4.8
3.5685,-8.2131,-0.50395,0.21564,-1.8812,0.16493,10.62,33.54,4.62
3.0918,-8.5944,-0.21793,0.10568,-1.5614,-0.29596,11.58,33.3,4.68
3.0646,-8.8396,-0.14982,-0.055894,-1.0354,-0.66218,12.42,32.82,4.56
3.0782,-8.9622,-0.36775,-0.27886,-0.19028,-1.0037,13.74,32.34,4.5
3.3234,-9.0848,-0.31327,-0.35216,0.24557,-1.1414,14.28,32.22,4.5
3.5277,-9.112,-0.24517,-0.3653,0.53512,-1.2159,14.64,31.98,4.44
4.0316,-8.1995,-0.081722,-0.27428,0.64263,-1.2529,15.18,31.98,4.56
4.1814,-7.5048,-0.027241,-0.1127,0.5681,-1.2547,15.3,31.92,4.8
4.1678,-6.9872,0.095342,0.088575,0.20861,-1.292,15.42,31.98,4.74
3.8954,-6.3743,0.10896,0.29658,-0.29169,-1.3381,15.12,32.34,4.68
3.6503,-6.17,0.068102,0.4612,-0.76297,-1.4071,14.76,32.58,4.74
3.4323,-6.0883,-0.027241,0.57941,-1.0785,-1.4868,14.34,32.76,4.68
2.9965,-6.0883,-0.027241,0.65943,-1.2767,-1.6301,13.26,33.06,4.62
2.7241,-6.0883,0.01362,0.6576,-1.2358,-1.7049,12.42,33.36,4.56
2.547,-6.1836,0.027241,0.62919,-1.0971,-1.7752,11.7,33.72,4.5
2.547,-6.3743,0.12258,0.56261,-0.84574,-1.7324,10.08,34.14,4.26
2.5061,-6.5105,0.17706,0.50702,-0.68081,-1.6567,9.18,34.38,4.08
2.5061,-6.7966,0.16344,0.4722,-0.58704,-1.5959,8.34,34.68,3.9
2.5742,-7.3277,0.35413,0.39767,-0.31796,-1.3283,6.48,34.98,3.12
2.6151,-7.3822,0.40861,0.3656,-0.1686,-1.0904,5.52,35.16,2.76
2.833,-7.355,0.31327,0.35186,-0.095295,-0.80817,4.44,35.22,2.4
3.3915,-7.7091,0.27241,0.3598,-0.10629,-0.49724,2.52,35.4,1.56
3.5958,-7.7636,-0.054481,0.37446,-0.20006,-0.045204,1.68,35.4,1.14
3.7184,-7.641,-0.14982,0.40561,-0.33414,0.21502,0.9,35.64,0.84
3.9363,-7.0826,-0.40861,0.47983,-0.53756,0.45907,-0.18,35.76,0.06
4.2904,-7.0281,-0.70826,0.54795,-0.83383,0.65699,-0.66,35.7,-0.3
4.5083,-7.4231,-0.96704,0.59376,-1.1512,0.81459,-1.14,35.82,-0.54
4.6582,-8.431,-1.1169,0.59529,-1.4398,0.98135,-1.68,35.82,-1.14
4.7944,-9.5206,-1.0215,0.53206,-1.4642,1.055,-1.92,35.82,-1.44
4.8352,-10.065,-0.99429,0.48686,-1.3986,1.0886,-1.92,35.82,-1.74
4.7807,-10.338,-0.85808,0.33078,-0.99143,1.0583,-2.04,35.88,-1.92
4.6037,-9.7385,-0.78998,0.28833,-0.63958,0.99754,-1.56,35.94,-2.4
5.1757,-10.542,-0.76274,0.28191,-0.43371,1.0336,-1.14,35.94,-2.64
5.8704,-10.924,-0.8036,0.2755,-0.39248,1.0947,-0.66,36.0,-2.7
6.279,-11.128,-0.34051,0.29444,-0.6463,1.1756,0.3,36.3,-3.18
6.7012,-11.891,-0.34051,0.29383,-0.77672,1.23,0.78,36.3,-3.36
6.8374,-12.0,0.040861,0.27275,-1.0828,1.2443,1.32,36.48,-3.66
6.4833,-12.136,0.44947,0.26786,-1.5128,1.0611,2.34,36.66,-3.9
6.4016,-11.931,0.8717,0.25992,-1.7587,0.89003,3.0,36.6,-4.38
6.0883,-10.624,1.2258,0.30207,-2.1399,0.49847,3.96,36.78,-5.04
5.5026,-9.9973,1.1713,0.36682,-2.3075,0.27245,4.32,36.96,-5.4
5.2847,-9.4253,1.1441,0.44166,-2.4374,0.047953,4.8,37.02,-5.46
5.0668,-9.0303,1.0896,0.51007,-2.5513,-0.15241,5.28,37.14,-5.76
4.8216,-8.7443,1.2258,0.55344,-2.6017,-0.3204,5.58,37.32,-6.3
4.6718,-8.6353,1.2258,0.55344,-2.6325,-0.46976,5.64,37.32,-6.66
4.5492,-8.6898,1.2803,0.50732,-2.656,-0.59193,5.64,37.38,-7.02
4.2087,-8.7987,1.4029,0.35858,-2.5837,-0.73365,5.4,37.38,-7.68
3.8273,-9.0575,1.4438,0.22358,-2.4028,-0.79962,5.04,37.38,-8.1
3.7456,-9.1665,1.5119,0.15211,-2.2651,-0.83078,4.56,37.44,-8.46
3.4732,-9.3844,1.6344,-0.081856,-1.7269,-0.90836,4.02,37.56,-8.88
3.3097,-9.7385,1.7979,-0.20678,-1.3421,-0.97555,2.7,37.62,-9.42
3.3097,-9.6841,1.8524,-0.29077,-0.99327,-1.0647,1.92,37.68,-9.6
3.2825,-9.6977,2.0022,-0.38026,-0.64507,-1.1661,0.48,37.74,-9.84
3.4323,-9.9429,2.1112,-0.38362,-0.57482,-1.1802,-0.54,37.68,-10.2
3.3097,-10.065,2.2065,-0.38118,-0.47342,-1.1903,-1.68,37.62,-10.32
3.3506,-10.161,2.1656,-0.34819,-0.36805,-1.1768,-2.7,37.56,-10.44
3.2961,-9.7658,2.0839,-0.29016,-0.34453,-1.1692,-4.8,37.62,-10.5
3.337,-9.6568,1.9477,-0.20983,-0.37354,-1.1145,-5.88,37.62,-10.5
3.4323,-9.5479,1.8251,-0.063225,-0.55528,-1.0363,-6.96,37.68,-10.5
3.5413,-8.9758,1.3348,0.035736,-0.70494,-0.97464,-8.94,37.62,-10.44
3.5413,-8.7034,1.1032,0.135,-0.84574,-0.91691,-9.84,37.56,-10.38
3.4459,-8.4446,0.8717,0.17746,-0.90072,-0.89797,-10.74,37.32,-10.26
3.514,-8.4446,0.44947,0.26359,-0.99357,-0.83872,-12.42,37.02,-10.02
3.3642,-9.9565,0.5993,0.28802,-0.98655,-0.72724,-13.38,36.78,-10.02
3.5004,-11.237,0.57205,0.2642,-0.86071,-0.4777,-14.04,36.54,-9.9
3.3778,-10.706,0.12258,0.2697,-0.42364,-0.21411,-15.84,36.06,-9.78
3.5277,-10.065,-0.28603,0.25717,-0.053451,0.058948,-16.38,35.76,-9.72
3.8001,-9.8475,-0.40861,0.24832,0.2025,0.37507,-16.86,35.46,-9.66
4.5083,-7.7091,-0.8717,0.27581,0.23885,0.58002,-17.94,34.98,-9.48
4.808,-6.674,-1.185,0.35766,0.066279,0.72815,-18.36,34.68,-9.3
5.2575,-6.2245,-1.5119,0.4664,-0.31062,0.83475,-18.6,34.44,-9.18
5.4754,-6.4152,-1.5255,0.58765,-0.88056,0.81031,-19.02,33.84,-9.3
5.1213,-6.6331,-1.5391,0.75656,-1.5076,0.5287,-19.02,33.72,-9.18
4.7807,-6.9872,-1.362,0.83444,-1.6609,0.30055,-19.08,33.48,-9.18
4.5492,-7.5457,-1.185,0.88759,-1.6197,0.084605,-19.02,33.36,-9.12
4.4811,-8.8941,-1.1441,0.90683,-1.4517,-0.058032,-18.96,33.12,-9.06
4.5764,-9.1937,-1.076,0.92485,-1.2987,-0.15241,-18.96,33.06,-9.12
4.8216,-9.0848,-0.92618,0.95326,-1.2859,-0.20067,-18.54,32.88,-9.12
4.699,-8.8941,-0.83084,0.98533,-1.4056,-0.22266,-18.48,32.64,-9.06
4.6037,-8.7034,-0.85808,1.0003,-1.4954,-0.23182,-18.36,32.52,-9.18
4.4811,-8.7306,-0.89894,0.99846,-1.5626,-0.22113,-18.24,32.4,-9.36
4.304,-8.717,-0.65378,0.97464,-1.5754,-0.20647,-18.12,31.98,-9.6
4.2768,-8.9622,-0.70826,0.91966,-1.5427,-0.17623,-18.3,31.68,-9.66
4.2768,-9.0031,-0.69464,0.85307,-1.4667,-0.13439,-18.48,31.38,-9.66
4.3585,-8.7443,-0.6674,0.79779,-1.4056,-0.079107,-18.66,30.66,-9.72
4.4402,-8.5944,-0.68102,0.72418,-1.4313,-0.0015272,-18.84,30.54,-9.84
4.3721,-8.6217,-0.6674,0.68234,-1.4694,0.02474,-19.08,30.18,-9.96
4.1951,-8.8668,-0.61292,0.65027,-1.4551,0.025351,-19.5,29.64,-10.08
4.1814,-8.8668,-0.65378,0.61942,-1.3943,-0.014966,-19.74,29.28,-10.14
4.0997,-8.7987,-0.6674,0.58643,-1.3476,-0.044899,-20.04,28.68,-10.26
4.0316,-8.7034,-0.61292,0.54092,-1.2795,-0.10446,-20.22,28.5,-10.38
3.9908,-8.7987,-0.70826,0.51343,-1.2016,-0.14233,-20.28,28.14,-10.5
3.8682,-8.8532,-0.64016,0.47922,-1.109,-0.16432,-20.58,27.6,-10.44
3.9635,-8.8668,-0.6674,0.44532,-1.0226,-0.18631,-20.7,27.3,-10.38
3.9363,-8.9077,-0.70826,0.41478,-0.93951,-0.18265,-20.76,27.06,-10.32
3.8682,-9.6704,-0.5993,0.40409,-0.8546,-0.16218,-21.36,26.7,-10.44
3.9499,-10.433,-0.51757,0.3879,-0.75717,-0.10354,-21.54,26.64,-10.44
4.0861,-11.482,-0.42223,0.34789,-0.57146,0.1066,-21.78,26.34,-10.44
4.5764,-13.239,-0.31327,0.31215,-0.47006,0.34422,-21.84,26.04,-10.62
4.8625,-14.192,-0.28603,0.28986,-0.38118,0.61025,-21.9,25.92,-10.86
5.3119,-14.833,-0.31327,0.27978,-0.30116,0.87781,-21.84,25.8,-10.8
5.9385,-13.784,-0.40861,0.30635,-0.49572,1.0669,-21.78,25.5,-10.86
6.2245,-11.836,-0.47671,0.40745,-0.68692,1.055,-21.54,25.44,-10.86
6.1836,-10.937,-0.54481,0.58765,-1.485,0.80023,-21.54,25.56,-10.98
5.8295,-9.8748,-0.29965,0.69242,-2.1154,0.51924,-21.36,25.68,-11.04
4.9306,-9.0712,0.10896,0.74342,-2.5302,0.18479,-21.06,25.68,-11.34
4.5628,-8.7851,0.31327,0.72846,-2.642,-0.14111,-21.0,25.68,-11.46
3.7047,-8.2131,0.38137,0.63713,-2.368,-0.58674,-20.58,25.92,-11.34
3.514,-8.1586,0.53119,0.54092,-2.0604,-0.81917,-20.52,25.86,-11.28
3.5413,-8.2131,0.6674,0.4499,-1.7892,-1.0079,-20.46,25.86,-11.22
3.4323,-8.3493,0.85808,0.41356,-1.6881,-1.0886,-20.46,25.86,-11.1
3.2553,-8.4991,1.1441,0.32101,-1.4441,-1.2685,-20.82,25.56,-10.8
3.2553,-8.2403,1.2667,0.29444,-1.3063,-1.3595,-21.24,25.44,-10.86
3.0918,-7.7636,1.4301,0.30849,-1.1826,-1.4227,-22.2,24.96,-10.68
3.1463,-7.6683,1.3893,0.33475,-1.1845,-1.4142,-22.92,24.72,-10.62
3.0646,-8.0905,1.4165,0.3882,-1.1787,-1.3586,-23.46,24.24,-10.56
3.051,-8.3629,1.3893,0.42699,-1.1723,-1.3127,-24.12,23.82,-10.5
3.0646,-8.3357,1.3757,0.45693,-1.1533,-1.2642,-24.9,23.34,-10.44
2.9692,-8.54,1.2939,0.47586,-1.0928,-1.1961,-26.52,22.38,-10.68
2.9011,-8.5808,1.2531,0.4777,-1.015,-1.1338,-27.24,21.84,-10.8
2.8058,-8.7579,1.3212,0.4383,-0.85521,-1.0745,-28.02,21.06,-10.98
2.6287,-8.4855,1.2258,0.40745,-0.69639,-1.0101,-29.58,20.28,-11.16
2.5879,-8.2812,1.0624,0.37049,-0.51465,-0.91996,-30.36,19.8,-11.46
2.6015,-8.2267,1.0624,0.35766,-0.36774,-0.81428,-30.96,19.32,-11.76
2.6151,-8.431,0.92618,0.35064,-0.27611,-0.66768,-31.74,18.18,-12.36
2.7649,-8.7851,0.85808,0.36469,-0.22602,-0.49786,-32.1,17.82,-12.54
2.9148,-9.0712,0.44947,0.37385,-0.20922,-0.18631,-32.64,16.98,-13.02
3.337,-10.079,0.17706,0.37232,-0.21747,-0.065668,-33.0,16.5,-13.14
3.4868,-10.746,-0.054481,0.35033,-0.26084,0.19578,-33.12,16.14,-13.38
3.6366,-11.264,0.01362,0.26512,-0.30116,0.55528,-33.36,15.78,-13.68
3.6911,-13.348,0.095342,0.16341,-0.26267,0.81612,-33.36,15.24,-13.74
3.8001,-14.737,0.14982,0.023518,-0.14233,1.23,-33.42,15.24,-13.98
3.7728,-15.895,0.34051,-0.1912,0.1912,1.4829,-33.3,14.88,-14.28
4.0997,-15.541,0.12258,-0.2978,0.45387,1.7312,-33.36,14.82,-14.46
4.2495,-14.833,0.027241,-0.34422,0.65332,1.8958,-33.24,14.82,-14.58
4.7263,-12.027,-1.3348,-0.33628,0.76297,1.876,-33.24,15.12,-14.52
4.6037,-10.842,-1.7979,-0.32712,0.76847,1.6466,-33.24,15.42,-14.52
4.3177,-10.311,-1.58,-0.34453,0.71777,1.3558,-33.06,15.72,-14.52
3.8546,-10.161,-1.3484,-0.36499,0.71441,1.0678,-32.88,16.26,-14.34
3.9635,-9.5615,-1.3212,-0.38485,0.80756,0.81092,-32.58,16.62,-14.16
4.0316,-8.8941,-1.5119,-0.40409,0.91324,0.61758,-32.28,17.04,-13.98
3.9363,-7.927,-1.6072,-0.4163,0.97372,0.49877,-31.5,18.0,-13.8
3.8137,-7.3822,-1.6753,-0.40042,0.99571,0.46853,-31.08,18.48,-13.56
3.8273,-6.4833,-1.4301,-0.37629,1.0095,0.46762,-30.6,18.78,-13.44
3.9499,-5.3528,-1.2531,-0.34728,0.98807,0.48472,-29.52,19.74,-13.44
3.732,-4.7263,-1.2667,-0.3146,0.87415,0.48075,-28.92,20.1,-13.32
3.8409,-4.4811,-1.2258,-0.28253,0.6243,0.42974,-28.32,20.58,-13.26
3.8137,-4.3585,-1.1441,-0.27397,0.45968,0.39248,-26.94,21.36,-13.08
3.7456,-4.6854,-1.0896,-0.27947,0.34972,0.36224,-26.22,21.78,-12.96
3.6366,-4.9033,-1.0488,-0.30482,0.33506,0.32376,-25.62,22.08,-13.02
3.7047,-5.9657,-1.076,-0.35033,0.39798,0.29047,-24.12,22.68,-13.26
3.732,-6.3198,-0.99429,-0.40225,0.51588,0.23121,-23.52,22.98,-13.38
3.8546,-6.9328,-1.0215,-0.41356,0.54489,0.2025,-23.1,23.22,-13.56
4.1133,-8.6217,-1.0488,-0.42547,0.60018,0.17776,-22.14,23.58,-13.74
4.1814,-9.4253,-1.0215,-0.40836,0.62644,0.19548,-21.9,23.82,-13.92
4.3585,-10.215,-0.96704,-0.35522,0.63866,0.2364,-21.42,23.94,-13.98
4.6309,-10.719,-0.99429,-0.19426,0.59071,0.28558,-20.52,24.24,-14.16
4.8625,-10.924,-1.1032,-0.040317,0.47464,0.35827,-20.1,24.42,-14.22
4.9987,-11.114,-1.1305,0.12584,0.25015,0.46059,-19.68,24.48,-14.16
5.598,-12.476,-1.6617,0.25259,-0.036957,0.61514,-19.32,24.78,-14.4
5.9521,-13.607,-1.757,0.32345,-0.37446,0.76633,-19.08,24.84,-14.52
6.1836,-14.329,-1.8251,0.33231,-0.65637,0.83078,-18.84,24.96,-14.7
6.0883,-13.797,-1.5936,0.28924,-0.82803,0.68203,-18.54,25.26,-14.88
5.5299,-12.027,-1.3212,0.25076,-0.94715,0.31704,-18.12,25.5,-15.0
5.2302,-11.25,-1.2803,0.25626,-1.0586,-0.0012217,-17.82,25.62,-15.12
5.0123,-10.188,-1.471,0.2755,-1.2159,-0.33964,-17.46,25.86,-15.3
4.9033,-9.6568,-1.362,0.27947,-1.3512,-0.64019,-17.34,25.92,-15.36
4.4402,-9.221,-0.96704,0.24893,-1.3958,-0.89247,-17.34,25.98,-15.36
3.8273,-8.826,-0.40861,0.16616,-1.2199,-1.149,-17.58,26.1,-15.54
3.5685,-8.4719,-0.43585,0.038485,-1.0101,-1.2926,-17.64,25.98,-15.66
3.2825,-8.0632,-0.27241,-0.055589,-0.78221,-1.3824,-18.0,25.86,-15.6
3.0918,-8.1177,0.14982,-0.1405,-0.53573,-1.4624,-18.6,25.68,-15.48
2.9965,-7.6819,0.40861,-0.197,-0.31429,-1.5403,-19.08,25.56,-15.36
2.8875,-7.3141,0.61292,-0.22388,-0.16768,-1.5867,-19.68,25.26,-15.18
2.7786,-6.6059,0.9398,-0.20433,-0.10904,-1.6173,-20.94,24.9,-15.18
2.7241,-6.4152,0.92618,-0.095906,-0.16493,-1.6234,-21.6,24.66,-15.3
2.7377,-6.5786,1.0079,-0.05284,-0.21258,-1.6225,-22.26,24.3,-15.48
2.6151,-7.0281,1.0488,0.094073,-0.43463,-1.5983,-23.4,23.88,-15.72
2.6423,-7.5729,1.1577,0.17165,-0.55405,-1.54,-23.94,23.4,-16.02
2.5061,-8.8124,1.0215,0.20617,-0.59773,-1.3995,-24.84,22.5,-16.32
2.5742,-10.474,1.0215,0.21166,-0.50121,-1.1863,-25.98,21.78,-16.44
2.5742,-11.182,0.85808,0.21197,-0.35247,-0.93676,-26.7,21.06,-17.04
2.8467,-11.536,0.53119,0.2022,-0.20128,-0.5003,-27.06,20.22,-17.64
2.9965,-11.795,-0.12258,0.19853,-0.21441,-0.24007,-27.36,19.5,-18.12
3.0918,-12.926,-1.0215,0.11698,-0.27642,0.047953,-27.72,18.78,-18.24
2.8739,-14.451,-0.96704,-0.051618,-0.25626,0.36377,-28.02,18.3,-18.24
2.9148,-14.724,-0.68102,-0.24709,-0.053145,0.69578,-28.2,17.94,-18.18
3.3097,-13.498,-0.58567,-0.44654,0.30207,0.95692,-28.38,18.0,-18.12
3.4459,-12.286,-1.6072,-0.58857,0.80451,1.1493,-28.56,18.0,-18.3
3.6775,-11.931,-2.2201,-0.58551,0.94257,1.1579,-28.38,18.06,-18.36
3.7865,-11.278,-3.1327,-0.5397,0.9389,1.0907,-28.56,18.06,-18.18
3.8001,-10.774,-3.1054,-0.45968,0.82375,1.0201,-28.56,18.18,-18.06
3.9363,-10.065,-2.942,-0.41508,0.69242,0.99266,-28.56,18.42,-17.88
3.7865,-8.3084,-2.5061,-0.40012,0.53603,0.99602,-28.5,18.66,-17.64
3.7865,-8.3084,-2.5061,-0.40439,0.51679,1.0088,-28.5,18.66,-17.64
3.5413,-7.1779,-2.2474,-0.40775,0.53054,1.0644,-28.26,18.9,-17.46
3.5413,-7.1779,-2.2474,-0.3937,0.55864,1.1506,-28.26,18.9,-17.46
3.732,-5.2575,-1.7979,-0.38729,0.54825,1.2101,-27.84,19.32,-17.16
3.8273,-4.4266,-1.6072,-0.38301,0.49755,1.2144,-26.7,19.98,-16.2
3.6775,-4.1406,-1.5119,-0.39401,0.40103,1.1377,-25.5,21.12,-15.24
3.3915,-4.2087,-1.5119,-0.4383,0.36774,0.97128,-24.12,22.08,-14.28
3.3097,-4.4947,-1.1986,-0.49816,0.45907,0.87506,-23.46,22.62,-13.8
3.3778,-4.808,-0.85808,-0.55467,0.60353,0.78282,-22.14,23.7,-12.9
3.4732,-5.3528,-0.72188,-0.60079,0.76114,0.7083,-20.58,24.84,-12.12
3.6639,-6.1973,-0.64016,-0.62156,0.86651,0.66187,-19.02,25.8,-11.34
3.8954,-7.0962,-0.49033,-0.62247,0.92302,0.6576,-17.64,26.88,-10.98
4.1542,-8.2267,-0.57205,-0.56963,0.94104,0.67745,-16.86,27.72,-10.92
4.4539,-9.616,-0.57205,-0.41356,0.94012,0.78557,-16.08,28.32,-11.16
4.5492,-10.161,-0.61292,-0.25717,0.894,0.86224,-15.6,28.56,-11.28
5.0259,-10.733,-1.1169,-0.055894,0.79077,0.90958,-14.76,29.1,-11.22
5.3119,-10.937,-1.2803,0.1631,0.57574,0.95753,-14.28,29.28,-11.34
5.4618,-11.032,-1.3893,0.40012,0.25015,0.96944,-13.74,29.46,-11.46
6.1564,-12.408,-2.1248,0.68906,-0.34086,0.91324,-12.96,29.94,-11.76
6.4424,-13.443,-2.4244,0.73273,-0.55008,0.88881,-12.54,30.12,-11.88
6.7148,-14.969,-2.5334,0.76114,-0.89889,0.7477,-12.18,30.18,-12.0
6.0474,-13.893,-2.2337,0.67226,-1.0397,0.27214,-11.22,30.3,-12.3
5.4073,-12.272,-2.0839,0.61881,-0.97158,-0.13347,-10.86,30.3,-12.42
5.1076,-11.945,-2.0431,0.58185,-0.93798,-0.50793,-10.56,30.42,-12.48
4.7671,-11.754,-1.9068,0.54489,-0.91935,-0.9108,-9.96,30.48,-12.66
4.6037,-10.896,-1.5119,0.43738,-0.83047,-1.4368,-9.78,30.36,-12.72
4.4947,-10.556,-1.362,0.37874,-0.80146,-1.6799,-9.9,30.12,-12.9
4.018,-10.025,-0.89894,0.32437,-0.75869,-1.8845,-9.96,29.88,-13.2
3.228,-8.8396,-0.39499,0.28833,-0.67104,-2.047,-10.98,29.34,-13.5
3.1054,-8.1995,-0.34051,0.26756,-0.5568,-2.1194,-11.58,29.04,-13.5
3.0918,-8.1041,-0.027241,0.24496,-0.45509,-2.1197,-12.3,28.68,-13.56
2.7786,-7.355,0.23155,0.23091,-0.33078,-2.1163,-13.86,27.84,-13.74
2.6015,-6.6876,0.57205,0.24038,-0.31093,-2.0947,-14.76,27.42,-13.86
2.5334,-6.3198,0.61292,0.30299,-0.35919,-1.9587,-15.78,26.94,-14.1
2.3699,-5.9657,0.61292,0.34483,-0.48381,-1.8228,-18.0,25.86,-14.7
2.2474,-5.9112,0.61292,0.3882,-0.62033,-1.6509,-19.14,25.14,-15.12
2.0839,-5.9793,0.6674,0.42638,-0.74434,-1.4737,-20.22,24.54,-15.48
1.9886,-6.6059,0.6674,0.44746,-0.84758,-1.1716,-22.32,23.7,-16.02
1.8932,-7.5865,0.7355,0.41997,-0.84269,-0.92027,-23.28,23.28,-16.32
1.7162,-8.9894,0.70826,0.36194,-0.76205,-0.62186,-24.06,22.8,-16.56
1.8387,-10.379,0.8036,0.26114,-0.61636,-0.32223,-24.84,22.32,-16.8
1.8524,-11.754,0.5993,0.17318,-0.46181,-0.057727,-25.98,21.42,-17.28
1.9341,-12.299,0.54481,0.058032,-0.21625,0.40134,-26.46,21.0,-17.64
2.2474,-13.92,0.31327,-0.095295,-0.14936,0.56872,-27.18,20.22,-17.94
2.3291,-14.71,0.54481,-0.3653,0.12095,1.1252,-27.36,19.98,-17.94
2.5061,-14.955,0.6674,-0.53939,0.39828,1.4856,-27.6,19.74,-18.0
3.1735,-14.07,0.17706,-0.63866,0.6576,1.7666,-27.78,19.5,-17.76
3.514,-13.389,-0.34051,-0.6521,0.82222,1.9502,-27.9,19.56,-17.64
3.8001,-12.354,-1.4165,-0.58307,0.86193,1.9572,-27.9,19.56,-17.28
3.9499,-11.768,-1.6072,-0.39279,0.65149,1.7871,-27.84,19.74,-16.8
4.0316,-11.387,-1.6344,-0.26756,0.44104,1.6335,-27.84,19.8,-16.44
4.0861,-10.746,-1.5663,-0.19364,0.29474,1.4896,-27.72,20.04,-15.96
3.9227,-9.3844,-1.5527,-0.13653,0.25137,1.3457,-27.12,20.76,-15.0
3.6503,-8.4855,-1.6344,-0.11545,0.30513,1.2272,-26.52,21.18,-14.52
3.6094,-7.246,-1.6889,-0.088881,0.40561,1.1478,-26.04,21.72,-13.92
3.8137,-6.1973,-1.6344,-0.062003,0.41936,1.0458,-24.84,22.68,-12.84
3.8682,-5.6388,-1.58,-0.069333,0.3262,0.99876,-24.12,23.28,-12.48
3.6775,-5.3119,-1.6344,-0.085216,0.27611,0.97647,-23.34,23.88,-11.94
3.1191,-4.5083,-1.3348,-0.17898,0.32254,0.83811,-21.78,25.08,-11.1
2.9965,-4.3177,-1.2122,-0.25168,0.54123,0.72693,-20.88,25.68,-10.68
3.1191,-4.2495,-1.0624,-0.33262,0.73304,0.64568,-20.16,26.16,-10.44
3.4732,-4.9442,-0.8036,-0.42486,0.87537,0.55803,-18.6,27.06,-9.96
3.7047,-5.6524,-0.61292,-0.47556,0.90836,0.52901,-17.58,27.72,-9.6
3.9227,-6.3471,-0.57205,-0.4948,0.91996,0.5226,-16.86,28.14,-9.42
4.018,-7.6683,-0.55843,-0.51893,0.94104,0.50183,-15.42,29.16,-9.3
4.127,-9.3163,-0.62654,-0.50274,1.0027,0.51435,-15.06,29.58,-9.36
4.4947,-10.256,-0.64016,-0.45265,1.0705,0.53145,-14.34,29.82,-9.36
4.9578,-10.978,-0.91256,-0.34025,1.0928,0.51435,-13.2,30.6,-9.36
5.1485,-11.101,-1.0624,-0.16707,0.99693,0.48655,-12.78,30.78,-9.42
5.3528,-11.032,-1.2803,0.04948,0.78252,0.44257,-12.36,31.08,-9.6
5.8295,-11.278,-1.6889,0.41264,0.24068,0.37599,-11.52,31.5,-9.78
6.2517,-12.354,-1.9613,0.60445,-0.25565,0.32742,-11.16,31.56,-9.78
6.6059,-13.511,-2.1656,0.70585,-0.76144,0.26786,-10.92,31.8,-9.78
6.5378,-14.261,-2.1656,0.65699,-1.2407,0.021075,-10.2,31.86,-10.02
6.3335,-13.961,-1.9613,0.59315,-1.3127,-0.14264,-10.02,31.92,-10.14
5.4618,-13.321,-1.6753,0.49663,-1.3131,-0.51374,-9.72,31.86,-10.38
4.2495,-12.503,-1.185,0.34758,-1.1093,-1.0938,-9.54,31.62,-10.62
3.9635,-12.027,-1.076,0.26817,-0.92393,-1.4725,-9.48,31.5,-10.68
4.018,-11.373,-1.0215,0.19853,-0.76297,-1.7529,-9.78,31.44,-10.74
3.8954,-11.073,-0.61292,0.074831,-0.60262,-1.9648,-10.56,31.02,-10.98
3.5549,-10.27,-0.25879,0.018326,-0.48839,-2.0766,-11.1,30.9,-11.04
3.2961,-9.221,-0.027241,-0.000611,-0.44929,-2.1075,-11.76,30.54,-10.98
2.9965,-7.927,0.19068,-0.0073304,-0.36896,-2.1191,-13.56,30.0,-11.28
2.8058,-7.4503,0.27241,0.016188,-0.33628,-2.1057,-14.46,29.76,-11.52
2.6015,-6.8647,0.53119,0.053756,-0.34789,-2.0895,-15.54,29.34,-11.82
2.1656,-5.8704,0.44947,0.10201,-0.37935,-2.0204,-18.06,28.86,-12.42
1.975,-5.8023,0.50395,0.15669,-0.48747,-1.9032,-19.14,28.32,-12.9
1.7979,-6.0066,0.44947,0.17379,-0.52657,-1.8314,-20.46,27.9,-13.32
1.5119,-6.7148,0.46309,0.17226,-0.60353,-1.5421,-22.62,26.88,-13.86
1.3212,-7.4912,0.54481,0.13317,-0.63011,-1.2782,-23.7,26.46,-14.28
1.2395,-8.9486,0.6674,0.067195,-0.58032,-0.98319,-24.78,25.98,-14.58
1.1577,-10.774,0.70826,-0.071777,-0.36682,-0.45998,-26.58,24.96,-15.24
1.2122,-11.768,0.64016,-0.17746,-0.18265,-0.11729,-27.54,24.54,-15.48
1.2939,-12.04,0.72188,-0.21777,-0.080329,0.060476,-28.08,24.0,-15.9
1.9341,-12.476,0.50395,-0.37385,0.15424,0.57391,-29.16,22.98,-16.26
2.2474,-13.157,0.35413,-0.48961,0.22113,0.92424,-29.7,22.68,-16.44
2.3836,-14.043,0.51757,-0.62156,0.35583,1.2917,-29.88,22.26,-16.44
2.833,-13.729,0.58567,-0.73426,0.71135,1.7162,-30.18,21.72,-16.32
3.1054,-13.116,0.38137,-0.80573,0.94348,1.9059,-30.3,21.72,-16.14
3.4459,-12.381,-0.054481,-0.75075,1.0721,1.9868,-30.48,21.78,-15.96
3.8954,-11.387,-0.84446,-0.63041,1.0702,1.9792,-30.6,22.02,-15.54
4.0589,-11.019,-1.185,-0.47617,0.93829,1.9166,-30.48,22.32,-15.18
4.3994,-10.665,-1.3348,-0.33292,0.75106,1.854,-30.24,22.68,-14.82
4.5764,-9.9292,-1.2803,-0.22358,0.54336,1.7471,-29.52,23.58,-14.04
4.5356,-9.5751,-1.2803,-0.13775,0.39767,1.6942,-28.86,24.12,-13.38
4.413,-8.5808,-1.4165,-0.09499,0.4105,1.6283,-28.26,24.84,-12.96
4.2495,-6.6604,-1.7979,-0.07086,0.48533,1.5547,-26.46,26.4,-11.88
4.3449,-5.8023,-1.866,-0.08094,0.57849,1.4603,-25.44,27.24,-11.28
4.2087,-5.0259,-1.8251,-0.1292,0.624,1.3222,-24.54,28.26,-10.86
3.8682,-4.1814,-1.4438,-0.17104,0.65546,1.1677,-22.2,29.94,-9.78
3.7728,-4.0452,-1.3348,-0.23976,0.74281,0.91721,-21.06,30.66,-9.18
3.8682,-4.0725,-1.2803,-0.25748,0.76602,0.82742,-19.86,31.44,-8.64
3.9771,-4.7671,-1.1577,-0.29077,0.81245,0.68264,-18.72,32.16,-8.22
4.0589,-5.2302,-1.0624,-0.35583,0.84666,0.47739,-16.44,33.6,-7.62
4.0316,-5.7886,-1.0215,-0.36927,0.8769,0.36408,-15.36,34.02,-7.44
3.9908,-6.2381,-0.99429,-0.36744,0.92302,0.29077,-14.46,34.5,-7.26
4.3313,-9.2482,-1.0215,-0.36682,1.08,0.25717,-12.72,35.58,-7.26
4.413,-10.27,-1.0624,-0.35339,1.146,0.25809,-12.06,36.06,-7.2
4.9987,-11.986,-1.1441,-0.28894,1.2315,0.23732,-11.4,36.48,-7.14
5.5162,-12.272,-1.3484,-0.059559,1.0928,0.13989,-10.32,36.9,-6.96
5.6388,-11.918,-1.6753,0.053145,0.95845,0.085827,-9.78,36.96,-7.08
5.7886,-12.544,-1.9341,0.43005,0.3317,0.017715,-9.3,37.02,-7.2
6.3335,-13.511,-2.152,0.65729,-0.45632,0.025351,-9.12,37.2,-7.26
6.4152,-13.702,-2.2882,0.70677,-0.87262,-0.014355,-8.94,37.32,-7.62
6.2245,-13.375,-2.0839,0.69578,-1.0043,-0.079412,-8.64,37.32,-7.86
5.3256,-11.931,-1.7298,0.59193,-1.2306,-0.46029,-8.46,37.26,-8.46
4.7535,-11.564,-1.4846,0.50457,-1.2495,-0.74251,-8.52,37.26,-8.7
4.2223,-11.482,-1.1986,0.40836,-1.1747,-1.036,-8.58,37.38,-9.06
3.732,-10.569,-0.8036,0.23305,-0.81459,-1.4887,-9.0,37.02,-9.6
3.5685,-10.243,-0.61292,0.16982,-0.58918,-1.7123,-9.42,36.84,-9.84
3.3915,-10.025,-0.36775,0.12523,-0.41508,-1.8827,-9.84,36.66,-10.2
3.1872,-9.5479,-0.21793,0.12614,-0.32101,-2.0351,-10.56,36.42,-10.56
3.1599,-7.7636,0.10896,0.16677,-0.32284,-2.1307,-12.24,35.88,-11.4
3.051,-7.0962,0.21793,0.23579,-0.3708,-2.1564,-13.32,35.58,-11.76
2.9829,-6.5786,0.42223,0.29077,-0.47006,-2.1496,-14.46,35.28,-12.24
2.547,-6.0066,0.55843,0.37935,-0.66432,-2.0989,-17.04,34.38,-13.14
2.438,-5.9793,0.70826,0.39187,-0.75472,-2.0116,-18.42,33.96,-13.62
2.2474,-6.0611,0.88532,0.39065,-0.79657,-1.8912,-19.92,33.3,-14.1
1.975,-6.2245,0.83084,0.34208,-0.77183,-1.7055,-22.86,32.28,-15.12
1.8932,-6.7557,0.9398,0.28344,-0.71105,-1.4771,-24.24,31.62,-15.54
1.7706,-7.4095,1.1169,0.20586,-0.59132,-1.223,-26.88,30.6,-16.5
1.866,-8.4446,1.2258,0.089492,-0.37935,-0.74495,-28.2,30.12,-17.04
1.9886,-9.4253,1.1986,0.059559,-0.3204,-0.54856,-29.4,29.58,-17.46
2.1929,-10.215,1.1032,0.030849,-0.23946,0.079718,-30.48,29.04,-18.0
2.7241,-11.673,0.8717,0.025351,-0.23915,0.52382,-31.38,28.68,-18.54
3.6094,-13.116,0.40861,0.04948,-0.28344,0.94959,-32.82,27.78,-19.32
3.623,-13.334,0.19068,0.067806,-0.34239,1.452,-33.3,27.36,-19.68
3.6775,-13.688,-0.23155,0.042455,-0.405,1.7208,-34.08,26.7,-20.22
3.4868,-14.846,-0.027241,-0.000305,-0.37721,1.8512,-34.32,26.58,-20.28
3.5413,-14.805,0.14982,-0.18601,-0.12095,2.153,-34.38,26.76,-20.34
3.5549,-14.506,0.068102,-0.31673,0.13195,2.2819,-34.26,26.7,-20.34
4.1814,-12.544,-0.35413,-0.38149,0.35186,2.3439,-34.08,27.12,-20.16
4.3585,-11.455,-0.84446,-0.37141,0.52626,2.2428,-33.72,27.6,-19.86
3.9908,-10.597,-1.2531,-0.30665,0.60537,2.0299,-32.94,28.38,-19.02
3.8001,-10.42,-0.99429,-0.25045,0.62156,1.7743,-32.4,28.86,-18.72
3.6775,-9.9701,-0.8036,-0.20708,0.75869,1.416,-31.68,29.46,-18.12
3.7728,-9.5342,-0.54481,-0.17318,0.89889,1.2379,-30.9,30.12,-17.4
4.2495,-8.431,-0.74912,-0.15088,0.97586,1.1167,-29.28,31.62,-16.2
4.3721,-7.6002,-0.98067,-0.091019,0.94104,1.0043,-28.44,32.46,-15.66
4.4266,-6.7693,-1.2258,-0.027489,0.8488,0.91141,-27.3,33.42,-15.06
4.3449,-5.0531,-1.2395,0.051313,0.61911,0.80084,-25.26,34.92,-13.98
4.0997,-4.3858,-1.1577,0.078802,0.45845,0.69944,-24.24,35.58,-13.44
3.8409,-4.0725,-1.185,0.08827,0.38057,0.56658,-23.22,36.42,-12.9
3.623,-3.9635,-1.2803,0.084299,0.36713,0.44654,-21.06,37.8,-12.18
3.8273,-4.3449,-1.2803,0.047342,0.36744,0.35369,-19.98,38.28,-12.0
3.909,-4.5492,-1.2939,-0.0012217,0.34544,0.25259,-18.96,38.88,-11.88
3.6911,-5.5026,-1.2258,-0.081245,0.3711,0.12706,-17.46,39.72,-12.0
3.6775,-6.3607,-1.2258,-0.13256,0.46334,0.054978,-16.86,40.08,-11.94
3.7456,-7.4095,-1.3212,-0.18265,0.58399,0.021075,-16.32,40.26,-12.18
3.9908,-8.7715,-1.4165,-0.20708,0.68539,0.034819,-15.84,40.56,-12.36
4.7126,-11.4,-1.2803,-0.19914,0.71868,0.061392,-15.24,40.92,-12.66
5.0259,-12.503,-1.4165,-0.10079,0.69669,0.045204,-15.12,40.92,-12.96
5.1621,-12.612,-1.471,0.028711,0.58582,-0.025656,-14.76,41.1,-13.2
5.3528,-12.721,-1.8387,0.19242,0.34361,-0.079107,-14.22,41.4,-13.68
5.6116,-13.797,-1.9068,0.31734,0.0064141,-0.071471,-14.16,41.34,-14.04
5.993,-14.71,-1.9205,0.35369,-0.3824,-0.055283,-14.22,41.22,-14.34
5.6116,-14.574,-1.5119,0.31001,-0.63683,-0.13989,-14.22,41.22,-15.06
5.1213,-13.934,-1.2395,0.23182,-0.74587,-0.53267,-14.4,41.04,-15.48
4.6309,-12.912,-0.95342,0.15699,-0.75808,-0.67714,-14.52,41.1,-15.6
3.732,-11.577,-0.50395,0.07758,-0.79565,-1.0727,-14.82,40.92,-16.32
3.623,-10.896,-0.42223,0.058338,-0.80084,-1.1884,-15.18,40.8,-16.5
3.5549,-10.474,-0.31327,-0.03207,-0.74739,-1.3775,-15.6,40.74,-16.68
3.3642,-9.902,0.39499,-0.089797,-0.71777,-1.3906,-16.62,40.2,-17.34
3.0918,-9.3844,0.72188,-0.1631,-0.64141,-1.3265,-17.4,40.14,-17.52
2.9556,-8.5944,0.85808,-0.17013,-0.62003,-1.2975,-19.26,39.6,-18.12
2.8467,-7.8453,0.96704,-0.18265,-0.55497,-1.2196,-20.4,39.36,-18.12
2.7786,-7.2869,1.0896,-0.093768,-0.54062,-1.1869,-21.54,39.06,-18.24
2.6151,-5.5026,1.1577,0.014661,-0.61942,-1.1548,-24.0,38.58,-18.48
2.5061,-4.9169,1.2122,0.14508,-0.79046,-1.106,-25.2,38.34,-18.54
2.6151,-4.4811,1.2258,0.28191,-1.0324,-1.0415,-26.46,37.98,-18.54
2.547,-4.127,1.0215,0.44899,-1.3705,-0.90439,-29.28,37.32,-18.72
2.4108,-4.1678,1.0624,0.52473,-1.5046,-0.79412,-30.66,37.02,-18.84
2.3155,-4.4539,1.1032,0.53329,-1.5449,-0.73518,-31.92,36.48,-18.9
2.2882,-5.3119,1.1441,0.53145,-1.5348,-0.5171,-34.44,35.52,-18.96
2.4108,-6.0611,1.1441,0.50793,-1.474,-0.34819,-35.58,35.22,-18.96
2.5879,-6.6195,0.99429,0.45509,-1.4053,-0.14722,-36.54,34.74,-18.9
3.0918,-8.4038,0.70826,0.38912,-1.3033,0.20678,-38.46,33.78,-18.6
3.4596,-9.6704,0.6674,0.30665,-1.2645,0.47922,-39.42,33.42,-18.54
3.5958,-10.392,0.40861,0.23702,-1.2529,0.72326,-40.2,33.0,-18.42
4.2495,-13.103,0.14982,0.16493,-1.2477,0.99296,-41.58,32.1,-18.0
4.413,-14.029,0.027241,0.10996,-1.215,1.1875,-42.24,31.68,-17.76
4.5083,-14.533,-0.095342,0.0562,-1.1597,1.295,-42.66,31.62,-17.52
4.3449,-15.759,-0.10896,0.0015272,-0.93707,1.4383,-43.38,31.26,-16.5
4.2087,-16.045,0.027241,-0.010996,-0.81398,1.4893,-43.5,31.26,-16.02
4.3177,-15.677,0.095342,0.011301,-0.54031,1.5522,-43.8,31.5,-15.6
4.8216,-14.478,-0.16344,0.17776,-0.4444,1.5763,-43.68,31.56,-15.18
5.489,-10.978,-1.0896,0.38607,-0.66645,1.4358,-43.56,32.1,-14.22
5.489,-9.5206,-1.1032,0.60689,-1.1139,1.0922,-43.5,32.46,-13.74
4.4811,-9.1937,-0.44947,0.73487,-1.6588,0.63897,-43.32,32.7,-13.08
3.7728,-9.4525,-0.14982,0.7477,-2.1127,-0.088575,-42.78,33.36,-11.94
3.3915,-9.4253,-0.068102,0.61545,-1.9426,-0.55894,-42.48,33.84,-11.28
3.1054,-9.221,-0.10896,0.41997,-1.5088,-0.90469,-42.3,34.08,-10.62
2.6423,-8.8941,-0.31327,0.20708,-0.93707,-1.1127,-41.82,34.32,-9.0
2.5742,-8.717,-0.31327,0.040317,-0.3091,-1.2343,-41.76,34.2,-8.28
2.8603,-8.431,-0.28603,-0.097433,0.31276,-1.2883,-41.58,34.02,-7.5
3.5685,-7.3141,-0.23155,-0.099266,0.39859,-1.2758,-41.4,33.54,-6.36
3.8546,-6.6195,-0.28603,-0.051007,0.3766,-1.2321,-41.4,33.18,-5.64
4.0589,-6.2381,-0.35413,0.11362,-0.036041,-1.1952,-41.58,32.82,-5.1
4.0452,-5.2847,-0.54481,0.24832,-0.47495,-1.1949,-42.06,31.38,-3.9
3.9227,-5.1894,-0.64016,0.37385,-0.92332,-1.2095,-42.3,30.6,-3.42
3.7592,-5.3392,-0.62654,0.45204,-1.2694,-1.2471,-42.54,29.88,-3.06
3.3915,-6.3471,-0.44947,0.4612,-1.5348,-1.2752,-43.32,28.14,-2.34
3.1191,-7.1507,-0.28603,0.38729,-1.4783,-1.2892,-43.68,27.18,-1.8
2.8467,-7.7636,-0.095342,0.27794,-1.2535,-1.2703,-43.98,26.4,-1.38
2.7241,-7.8181,0.095342,0.17807,-0.91874,-1.2349,-44.64,24.6,-0.78
2.7104,-7.8317,0.081722,0.10354,-0.58307,-1.1533,-44.88,23.7,-0.48
2.9284,-7.8998,0.10896,0.087659,-0.30757,-0.956,-45.18,22.8,-0.3
2.9284,-7.8998,0.10896,0.13531,-0.29169,-0.80054,-45.18,22.8,-0.3
3.2961,-7.641,0.095342,0.20372,-0.36194,-0.60231,-45.36,21.9,0.12
3.5822,-7.2596,-0.027241,0.30482,-0.49114,-0.40042,-45.54,19.8,0.78
3.7456,-7.1915,-0.081722,0.40439,-0.68447,-0.17746,-45.72,18.9,1.32
3.8818,-7.355,-0.16344,0.49266,-0.89858,0.048258,-45.78,17.34,2.28
3.9227,-7.2188,-0.14982,0.56291,-1.0864,0.27428,-45.6,16.56,2.82
3.909,-7.1643,-0.35413,0.60384,-1.2013,0.46609,-45.3,15.3,3.96
4.018,-7.2324,-0.43585,0.6127,-1.292,0.66248,-44.94,14.88,4.56
4.0589,-7.3822,-0.50395,0.613,-1.3069,0.68936,-44.52,14.28,5.22
4.2087,-7.8862,-0.57205,0.54825,-1.2697,0.7532,-43.68,13.62,6.0
4.4266,-9.2074,-0.64016,0.46517,-1.1515,0.76755,-42.54,13.2,6.9
4.3449,-10.12,-0.51757,0.38026,-0.91111,0.75992,-42.0,13.02,7.5
4.6037,-11.046,-0.32689,0.29688,-0.57024,0.76664,-41.22,13.2,8.4
4.8352,-10.256,-0.28603,0.22694,-0.040012,0.68539,-40.2,13.68,9.12
5.203,-10.719,-0.19068,0.23793,0.10751,0.67226,-39.3,14.04,9.66
5.7886,-11.155,-0.054481,0.24068,0.091019,0.69516,-38.64,15.0,10.14
5.8159,-10.665,0.21793,0.26725,-0.07025,0.62094,-37.98,15.3,10.32
5.7069,-10.311,0.61292,0.32193,-0.343,0.59407,-37.62,15.78,10.32
5.6797,-10.093,0.8717,0.38882,-0.65149,0.57757,-37.14,16.5,10.44
5.6388,-9.8339,0.91256,0.53878,-1.1985,0.52107,-36.66,17.46,10.62
5.8023,-9.8748,0.85808,0.64355,-1.5913,0.52657,-36.3,17.7,10.62
5.9657,-9.9565,0.8036,0.74006,-2.0046,0.51679,-35.76,18.42,10.92
5.8704,-9.9973,1.0079,0.82131,-2.4199,0.4893,-35.1,19.08,11.28
5.8295,-9.9701,1.0624,0.86407,-2.7935,0.4218,-34.62,19.44,11.52
5.3119,-9.8066,0.84446,0.87568,-3.0479,0.2923,-33.78,19.98,12.18
5.0123,-9.4389,0.81722,0.83047,-3.1466,0.13622,-32.64,20.7,12.96
4.7399,-9.0984,0.83084,0.75472,-3.1206,-0.036041,-32.16,21.06,13.5
4.2223,-8.8396,0.83084,0.57146,-2.9114,-0.29413,-31.14,21.84,14.64
4.0316,-8.7306,0.81722,0.42822,-2.6756,-0.46334,-30.54,22.08,15.24
3.8001,-8.7715,0.83084,0.27947,-2.3808,-0.60415,-29.28,22.32,16.2
3.5004,-9.112,0.95342,0.11668,-2.0546,-0.72815,-27.96,22.74,17.34
3.4187,-9.1937,1.0215,-0.023518,-1.7037,-0.81948,-27.3,22.92,17.94
3.3915,-9.398,1.3212,-0.23732,-1.2477,-0.89125,-26.04,23.1,19.02
3.4732,-9.6023,1.3893,-0.35064,-1.0369,-0.90469,-25.02,23.1,20.22
3.5822,-9.7658,1.3893,-0.43524,-0.8998,-0.89797,-24.48,22.98,20.76
3.8137,-9.9973,1.3757,-0.49908,-0.84299,-0.87323,-23.76,22.86,21.54
3.8273,-10.093,1.2531,-0.53909,-0.84208,-0.86193,-23.04,22.26,22.38
3.7865,-10.202,1.2939,-0.57757,-0.85094,-0.86865,-22.8,22.2,22.8
3.3778,-12.476,1.5119,-0.61789,-0.72204,-0.85399,-22.5,21.84,23.52
3.2689,-13.484,1.471,-0.64538,-0.081551,-0.78221,-22.38,21.48,23.94
3.228,-11.509,1.185,-0.50977,0.33017,-0.92485,-22.32,21.24,24.3
3.8818,-9.4525,0.5993,-0.29963,0.51191,-0.93676,-22.38,20.82,24.54
4.3994,-7.8453,0.054481,-0.054367,0.3146,-0.93432,-22.44,20.22,24.72
4.2495,-6.8238,-0.01362,0.33964,-0.34086,-1.0412,-22.74,19.86,24.78
4.0997,-6.6331,0.081722,0.46151,-0.58429,-1.0684,-22.8,19.74,25.02
3.9227,-6.9191,-0.068102,0.77122,-1.1894,-1.0779,-22.98,19.44,25.08
3.8137,-7.3005,-0.35413,0.894,-1.441,-1.0956,-23.04,19.32,25.2
3.6775,-8.036,-0.51757,0.95264,-1.532,-1.0809,-23.1,19.02,25.26
3.3097,-8.6898,-0.76274,0.97708,-1.4221,-1.0076,-23.34,18.78,25.5
3.2144,-8.8941,-0.85808,0.96272,-1.1524,-0.87812,-23.4,18.66,25.56
3.3915,-8.826,-0.98067,0.94012,-0.73609,-0.59987,-23.4,18.6,25.74
3.9499,-8.4446,-1.4438,0.91783,-0.60995,-0.3824,-23.28,18.6,25.98
4.0997,-7.9951,-1.7025,0.89706,-0.64568,-0.19395,-23.22,18.66,26.1
4.1542,-7.8862,-1.6344,0.90775,-0.76144,-0.036041,-23.04,18.72,26.28
4.2223,-8.0088,-1.7979,0.93585,-0.87537,0.090713,-22.68,18.96,26.46
4.4947,-7.9543,-2.1112,0.99235,-1.0531,0.21075,-22.32,19.38,26.82
4.699,-7.5321,-2.5061,1.0647,-1.2816,0.3656,-21.78,19.92,26.88
4.7399,-7.3141,-2.4789,1.1811,-1.6875,0.67256,-21.36,20.04,26.82
4.8352,-7.2188,-2.3563,1.2126,-1.9334,0.894,-20.58,20.82,26.94
4.7671,-7.4231,-1.9613,1.208,-2.1029,1.0977,-19.44,21.66,27.0
4.7126,-7.4776,-1.866,1.1374,-2.1783,1.2181,-18.66,22.08,27.18
4.4539,-7.5048,-1.7025,1.0406,-2.1386,1.2685,-17.22,23.22,27.3
4.4266,-7.464,-1.58,0.88453,-2.0171,1.2373,-15.54,24.24,27.18
4.0452,-7.2869,-1.2803,0.65637,-1.7058,1.1124,-13.56,25.44,27.24
3.9908,-7.1779,-1.1577,0.51832,-1.4423,0.97738,-12.6,25.86,27.12
3.9363,-6.8647,-0.95342,0.40959,-1.1716,0.81428,-10.5,26.82,26.76
3.8682,-6.96,-0.8036,0.34606,-0.92057,0.64263,-9.36,27.3,26.76
3.9499,-6.9736,-0.64016,0.33231,-0.73273,0.48197,-7.14,28.32,26.52
4.1814,-7.3277,-0.61292,0.31551,-0.61942,0.35308,-5.4,29.04,26.34
4.4675,-8.2267,-0.35413,0.3036,-0.54062,0.23671,-3.66,29.58,25.74
4.4811,-10.556,-0.054481,0.28222,-0.48228,0.19578,-2.1,30.06,25.44
4.7263,-11.918,0.095342,0.21228,-0.35522,0.21686,-1.5,30.3,25.2
5.0531,-13.784,0.5993,0.15882,-0.15088,0.19761,-0.48,30.66,25.08
4.9033,-12.422,0.85808,0.15394,0.047647,0.076053,0.54,30.96,24.6
4.9306,-11.645,0.8036,0.26176,0.09163,-0.078802,0.96,31.08,24.54
5.1894,-10.488,0.65378,0.45723,-0.19914,-0.23946,1.5,31.38,24.12
5.4073,-10.447,0.69464,0.7871,-1.2666,-0.30574,1.74,31.5,23.7
5.6661,-10.624,0.84446,0.95509,-2.0724,-0.32437,1.92,31.62,23.46
5.3392,-10.992,0.92618,1.0379,-2.6447,-0.36163,2.46,31.98,23.04
4.5356,-11.7,0.99429,1.0238,-2.8808,-0.45479,2.82,32.52,22.56
3.7592,-11.482,0.92618,0.87018,-2.6783,-0.73823,3.3,33.12,21.96
3.3506,-10.896,0.89894,0.80298,-2.4771,-0.84238,3.48,33.36,21.6
3.0782,-10.093,0.68102,0.60292,-1.8192,-1.1399,4.02,33.9,20.82
3.0101,-9.5751,0.61292,0.50885,-1.3876,-1.2813,4.2,34.26,20.4
3.051,-8.9486,0.61292,0.42241,-1.0864,-1.3897,4.5,34.92,19.74
3.3642,-8.54,0.8036,0.36682,-0.92974,-1.3946,4.74,35.4,18.96
3.5413,-8.7306,0.81722,0.33475,-0.93982,-1.3317,4.86,36.0,18.42
3.6094,-9.0575,0.76274,0.29749,-0.98807,-1.2431,4.8,36.06,18.0
3.3097,-9.0575,0.89894,0.2364,-0.9896,-1.1148,4.2,36.42,17.28
3.0237,-8.9894,0.83084,0.20189,-0.86896,-1.0278,3.96,36.6,16.98
2.8875,-8.5808,0.83084,0.18173,-0.70463,-0.95631,3.6,36.84,16.38
3.1327,-8.7715,0.83084,0.17501,-0.60018,-0.84605,2.64,37.14,15.66
3.1599,-8.8941,0.8036,0.16616,-0.5849,-0.69669,1.74,37.5,15.06
3.2553,-8.9349,0.77636,0.16096,-0.64507,-0.45662,1.26,37.56,14.58
3.1599,-8.9622,0.83084,0.16402,-0.61911,-0.27397,0.48,37.86,14.04
3.1872,-9.221,0.70826,0.17501,-0.58918,-0.098655,-0.42,38.1,13.38
3.3097,-9.5751,0.55843,0.18937,-0.55283,0.098655,-1.08,38.46,12.6
3.3778,-9.9292,0.35413,0.2135,-0.5568,0.2865,-1.14,38.64,12.36
3.8546,-10.869,0.095342,0.2251,-0.59284,0.49694,-1.56,39.0,11.82
3.909,-11.536,0.081722,0.2251,-0.66645,0.73731,-1.74,39.3,11.22
4.0861,-12.027,-0.12258,0.18265,-0.7196,0.91691,-1.56,39.42,10.98
4.3177,-14.492,-0.32689,0.098655,-0.72449,1.1374,-1.5,39.42,10.74
4.3177,-16.222,-0.040861,-0.029016,-0.5846,1.3479,-1.2,39.72,10.5
4.2359,-15.895,0.081722,-0.13989,-0.30543,1.4227,-0.66,39.72,10.32
4.5083,-14.846,-0.081722,-0.22083,0.0088575,1.4841,-0.12,39.78,10.32
4.7944,-12.326,-0.96704,-0.19212,0.14813,1.3045,0.54,39.84,10.08
4.7671,-9.7385,-1.9613,-0.074526,0.043677,0.96944,1.5,39.84,10.2
4.5628,-9.3844,-2.0567,0.13683,-0.20769,0.58063,1.98,39.72,10.26
3.9363,-9.6977,-1.7025,0.19914,-0.38362,0.24679,2.94,39.54,10.5
3.6775,-8.9758,-1.4438,0.20831,-0.37965,-0.086437,3.84,39.6,10.92
3.5685,-8.6353,-1.4029,0.17226,-0.23763,-0.31948,4.5,39.54,10.98
3.4732,-8.145,-1.362,0.12859,-0.065973,-0.41814,5.28,39.36,11.4
3.4187,-7.7364,-1.4165,0.032376,0.24862,-0.44471,5.58,39.24,11.76
3.4323,-7.1234,-1.471,-0.019242,0.39523,-0.43921,5.88,39.24,12.06
3.514,-6.0611,-1.3757,-0.025656,0.44196,-0.405,6.3,39.12,12.24
3.3915,-4.9442,-1.2395,-0.0082467,0.38026,-0.36988,6.48,39.0,12.42
3.228,-4.6037,-1.2531,0.0033598,0.25045,-0.38301,6.54,39.12,12.48
3.2008,-4.5628,-1.2531,0.027184,0.12889,-0.40806,6.48,39.12,12.6
3.1599,-4.6445,-1.2395,0.010385,0.0079412,-0.4105,6.06,39.12,12.6
3.1599,-5.1485,-1.2122,-0.0058032,-0.016493,-0.36896,5.4,39.12,12.54
3.1327,-5.993,-1.2395,-0.036957,-0.025656,-0.31643,5.16,39.36,12.48
3.1599,-6.4424,-1.2803,-0.091324,0.020769,-0.26389,4.8,39.36,12.42
3.2689,-7.6955,-1.362,-0.15027,0.090713,-0.17013,4.44,39.6,12.12
3.3778,-8.1586,-1.2667,-0.18357,0.16402,-0.054672,4.2,39.66,12.06
3.5685,-9.0031,-1.2122,-0.20403,0.21808,0.091324,3.84,39.72,12.0
3.7728,-9.3844,-1.2122,-0.17104,0.2251,0.25687,3.66,39.72,11.88
4.304,-9.8611,-1.2531,-0.074831,0.12126,0.56994,3.36,39.78,11.94
4.4811,-9.4798,-1.3757,0.03146,-0.042455,0.76022,3.24,39.78,12.06
4.5083,-9.3436,-1.4846,0.16157,-0.21502,0.95142,3.36,39.9,12.0
4.6718,-10.774,-1.7434,0.2532,-0.3543,1.1252,3.78,39.96,11.94
4.8216,-12.381,-1.7843,0.2868,-0.46914,1.2721,4.02,40.02,11.88
5.0123,-13.797,-1.6481,0.15211,-0.52443,1.4212,4.2,40.02,11.82
5.1213,-15.337,-0.81722,-0.018631,-0.34514,1.3207,4.92,40.14,11.58
4.8352,-14.029,-0.46309,-0.15669,-0.096517,1.0165,5.4,40.26,11.46
4.699,-13.076,-0.24517,-0.19181,0.096211,0.74098,5.88,40.32,11.46
4.3994,-11.087,-0.55843,-0.03879,0.050091,0.18082,6.84,40.5,11.46
4.4266,-9.7658,-0.81722,0.14813,-0.21472,-0.1799,7.26,40.5,11.46
4.5764,-9.1393,-0.70826,0.23549,-0.39492,-0.3094,7.74,40.56,11.28
4.5083,-8.9213,-0.24517,0.39431,-0.88301,-0.55833,8.16,40.62,11.16
3.8546,-8.4719,0.44947,0.42974,-1.0556,-0.67195,9.0,40.74,10.8
3.5413,-8.2948,0.36775,0.38362,-0.99785,-0.78649,9.36,40.68,10.68
3.0237,-7.2188,0.42223,0.35827,-0.93126,-0.81459,9.48,40.8,10.26
2.8467,-6.4969,0.49033,0.30849,-0.69516,-0.94348,9.48,40.8,10.14
2.7649,-5.9657,0.47671,0.29444,-0.54214,-1.0409,9.48,40.86,9.9
2.5742,-5.38,0.58567,0.31643,-0.44318,-1.1136,9.0,40.98,9.48
2.7241,-5.4754,0.51757,0.33781,-0.40439,-1.1625,8.52,40.92,9.24
2.7649,-5.5707,0.5993,0.34208,-0.41753,-1.1826,8.16,40.92,8.88
2.5742,-6.0338,0.57205,0.35858,-0.47922,-1.1096,6.84,41.16,8.16
2.6696,-6.7693,0.46309,0.34758,-0.49175,-1.0547,6.12,41.34,7.56
2.7649,-7.6683,0.38137,0.30849,-0.50305,-0.91172,5.16,41.52,7.14
2.9556,-9.6432,0.34051,0.2022,-0.47647,-0.58949,3.6,41.7,5.94
3.1599,-10.624,0.24517,0.13378,-0.37996,-0.36011,2.64,41.88,5.34
3.3915,-11.414,0.081722,0.069333,-0.29719,-0.12675,1.8,42.12,4.74
3.7456,-12.803,-0.1362,-0.075136,-0.25962,0.18998,0.42,42.3,3.54
3.8682,-13.348,-0.32689,-0.13317,-0.26573,0.25962,-0.3,42.24,2.94
3.6639,-14.111,-0.29965,-0.27611,-0.20372,0.34697,-1.08,42.12,2.34
3.3642,-16.086,0.23155,-0.54275,0.14661,0.62278,-2.1,42.24,1.62
3.6094,-15.568,0.28603,-0.71899,0.50396,0.71899,-2.58,42.36,1.32
3.909,-14.152,-0.1362,-0.79962,0.80115,0.70433,-3.18,42.3,1.26
3.8954,-11.904,-1.2667,-0.72418,0.97769,0.48014,-3.48,42.12,1.2
3.8137,-11.645,-1.4438,-0.62889,0.89186,0.20128,-3.6,42.18,1.26
3.2825,-11.359,-1.3212,-0.57727,0.82161,0.071166,-3.42,42.06,1.56
2.9284,-9.8884,-1.2395,-0.48106,0.60353,-0.27672,-3.12,41.76,2.52
3.1599,-8.9486,-1.58,-0.45112,0.52534,-0.39798,-2.88,41.7,3.0
3.4459,-7.7636,-1.8387,-0.43463,0.49877,-0.40378,-2.64,41.46,3.54
3.2825,-6.3471,-1.8115,-0.39462,0.53878,-0.28955,-2.34,41.22,4.98
3.2144,-5.1621,-1.7298,-0.35277,0.59498,-0.22938,-2.1,41.1,5.7
3.2008,-4.6173,-1.7843,-0.29719,0.53848,-0.18448,-1.92,41.1,6.54
3.1463,-3.6775,-1.58,-0.27978,0.41142,-0.15485,-1.68,40.74,7.92
3.0918,-3.6639,-1.5391,-0.29444,0.28191,-0.15241,-1.56,40.68,8.64
2.9284,-3.7728,-1.362,-0.34025,0.2587,-0.14294,-1.26,40.56,9.18
2.9556,-4.1542,-1.1577,-0.39798,0.37385,-0.046426,-1.14,40.5,10.02
3.0101,-4.413,-1.185,-0.50641,0.49022,0.053451,-1.02,40.32,10.56
3.1599,-4.9033,-1.0079,-0.54336,0.5849,0.16096,-1.08,40.32,11.04
3.3506,-5.8976,-0.99429,-0.56963,0.65393,0.29535,-1.02,40.38,11.58
3.5685,-6.6467,-1.0215,-0.55375,0.68539,0.44563,-0.96,40.38,12.0
3.8409,-7.4776,-0.91256,-0.51282,0.70769,0.60048,-1.02,40.44,12.18
4.0044,-8.145,-0.81722,-0.43768,0.69486,0.86376,-1.2,40.38,12.48
4.2087,-8.4719,-0.85808,-0.27367,0.62094,1.0623,-1.2,40.5,12.6
4.5356,-9.3163,-1.0215,-0.20433,0.5681,1.1753,-1.14,40.5,12.66
5.1213,-10.351,-1.4301,-0.045815,0.41386,1.3748,-0.9,40.56,12.78
5.38,-10.951,-1.6481,0.1909,0.065057,1.6078,-0.48,40.62,12.96
5.4754,-11.25,-1.8115,0.34056,-0.18448,1.6383,-0.3,40.74,13.02
5.4345,-11.536,-1.9886,0.43738,-0.40195,1.5727,0.66,40.92,13.14
5.8704,-14.07,-2.4789,0.41875,-0.6017,1.3836,1.14,40.92,13.08
6.2245,-15.704,-2.6287,0.37354,-0.61942,1.3097,1.92,41.04,13.02
6.3062,-16.317,-2.2882,0.27489,-0.49877,1.069,2.58,40.98,12.96
5.4345,-13.675,-1.866,0.13439,0.030543,0.47647,3.84,41.04,12.66
5.2166,-12.612,-1.7979,0.12553,0.28222,0.040317,4.56,41.04,12.54
4.9306,-11.768,-1.7706,0.1854,0.27153,-0.39676,5.28,41.1,12.42
4.9578,-9.9292,-1.9068,0.36927,-0.13134,-0.93432,6.54,41.16,12.3
5.203,-9.4117,-1.7979,0.41997,-0.33384,-1.0653,7.14,41.22,12.12
4.9578,-9.0167,-1.3484,0.47006,-0.70433,-1.2624,7.5,41.1,11.94
4.413,-8.54,-1.076,0.4328,-0.9728,-1.4804,7.8,41.22,11.76
3.8137,-7.9543,-0.85808,0.34911,-0.9166,-1.5776,8.16,41.34,11.58
3.2825,-7.1779,-0.84446,0.27397,-0.76938,-1.6377,8.46,41.22,11.34
2.9148,-5.6116,-0.61292,0.21136,-0.60476,-1.6661,7.74,40.92,10.98
2.8875,-5.1485,-0.54481,0.135,-0.45296,-1.6487,7.14,40.74,10.8
2.7922,-4.8488,-0.39499,0.097128,-0.41997,-1.5919,6.36,40.62,10.62
2.6287,-4.808,-0.20431,0.05284,-0.41172,-1.5003,4.5,40.5,10.2
2.547,-5.0259,-0.095342,-0.0018326,-0.37324,-1.3787,3.42,40.38,9.96
2.438,-5.1349,0.027241,-0.052534,-0.28894,-1.2446,2.22,40.26,9.84
2.5198,-6.0883,0.081722,-0.11118,-0.16127,-0.96761,-0.18,40.02,9.0
2.6015,-6.7148,0.12258,-0.16035,-0.099571,-0.73518,-1.14,39.96,8.46
2.6832,-7.2596,0.20431,-0.17318,-0.083078,-0.61606,-2.22,39.96,7.92
2.9011,-8.3357,0.21793,-0.22449,-0.016188,-0.21777,-4.56,40.02,6.96
3.2416,-9.0984,0.10896,-0.219,0.018631,0.077885,-5.7,39.9,6.48
3.5685,-10.174,0.040861,-0.18173,0.0048869,0.35003,-6.66,39.96,6.0
3.8954,-11.182,-0.081722,-0.11454,-0.065057,0.6127,-7.86,40.08,5.4
4.1542,-11.85,-0.31327,-0.016188,-0.26023,0.97738,-8.28,40.14,4.98
4.4402,-12.422,-0.54481,0.024129,-0.41722,1.1723,-8.58,40.14,4.62
4.6309,-13.988,-0.8036,0.015882,-0.5287,1.3256,-8.76,40.26,4.2
4.4266,-14.982,-0.65378,-0.079107,-0.49786,1.4288,-8.7,40.44,4.14
4.1951,-15.8,-0.44947,-0.21625,-0.24068,1.5244,-8.52,40.56,4.08
4.2495,-15.091,-0.14982,-0.36133,0.15333,1.5818,-7.68,40.68,4.44
4.5901,-13.811,-0.64016,-0.48594,0.65424,1.6298,-7.2,40.56,4.8
4.9169,-12.354,-1.2395,-0.48564,0.74495,1.5794,-6.72,40.56,5.34
5.0804,-10.76,-1.7706,-0.41875,0.7926,1.1558,-6.06,40.56,5.64
4.4811,-9.2482,-1.7979,-0.37996,0.70799,0.76205,-4.5,40.2,6.66
3.9908,-9.3163,-1.4029,-0.3543,0.6805,0.38637,-3.9,40.2,7.08
4.2223,-9.1529,-1.3348,-0.33231,0.76664,0.054062,-2.64,40.14,7.92
4.1542,-8.5944,-1.362,-0.30207,1.0012,-0.34728,-2.04,40.08,8.52
4.127,-8.2403,-1.3893,-0.28955,1.0678,-0.44074,-1.38,39.96,9.0
4.0316,-7.3005,-1.4438,-0.22694,1.1347,-0.58185,-0.9,39.9,9.48
3.9771,-5.8976,-1.3757,-0.093768,1.0061,-0.71257,-0.42,39.36,10.56
3.9635,-5.094,-1.362,-0.019242,0.78313,-0.73823,0.24,39.12,11.16
3.8273,-4.7671,-1.362,0.03207,0.53145,-0.74373,0.42,39.12,11.58
3.3506,-4.4811,-1.2803,0.048869,0.28588,-0.76236,0.54,38.94,12.06
3.2008,-4.4811,-1.1305,0.047953,0.26023,-0.75381,0.42,39.0,12.3
3.1191,-4.4266,-1.0215,0.033598,0.27061,-0.74495,0.24,38.88,12.6
3.1872,-4.6718,-1.0488,-0.0051924,0.34086,-0.65485,-0.36,38.76,12.96
3.2144,-5.0259,-1.0896,-0.030543,0.34667,-0.54428,-0.66,38.64,13.14
3.2825,-5.5435,-1.0624,-0.080023,0.34941,-0.41844,-1.02,38.58,13.26
3.337,-6.7012,-0.8717,-0.14875,0.3879,-0.15699,-2.04,38.46,13.32
3.514,-7.7364,-0.96704,-0.18051,0.4218,-0.048258,-2.64,38.52,13.38
3.9499,-8.8805,-0.89894,-0.26359,0.50457,0.33384,-3.06,38.46,13.32
4.4675,-10.202,-0.92618,-0.28375,0.57452,0.5678,-3.84,38.7,13.32
4.6309,-10.256,-0.88532,-0.24404,0.62736,0.74067,-4.08,38.7,13.08
4.7126,-10.406,-0.95342,-0.16066,0.66737,0.88056,-4.32,38.64,13.02
5.094,-10.924,-1.3348,0.031154,0.58551,1.0443,-4.86,38.76,13.14
5.4481,-11.986,-1.6753,0.091019,0.51007,1.1133,-4.92,38.64,13.08
6.0611,-13.321,-1.8115,0.14905,0.29596,1.2804,-4.8,38.7,13.08
6.6195,-14.955,-1.4301,0.14447,0.048869,1.4407,-4.44,38.88,13.08
6.3198,-14.029,-1.2122,0.10201,0.0018326,1.328,-4.26,38.88,13.08
5.9112,-12.803,-1.1169,0.074526,-0.0036652,1.1127,-3.78,39.06,13.02
5.2983,-10.964,-1.0896,0.11179,-0.15516,0.71868,-2.76,39.18,13.14
5.1894,-10.324,-1.2531,0.15944,-0.35491,0.48472,-2.22,39.18,13.32
5.3937,-9.9565,-1.2939,0.18876,-0.4609,0.38515,-1.62,39.18,13.32
5.094,-8.9349,-1.0215,0.23182,-0.69425,0.068722,-0.54,39.06,12.96
4.6173,-8.5944,-0.61292,0.2138,-0.73273,-0.12981,0.06,39.18,12.96
4.1542,-8.145,-0.6674,0.19028,-0.66187,-0.30604,0.54,39.12,12.96
4.1542,-8.145,-0.6674,0.11698,-0.5061,-0.52565,0.54,39.12,12.96
3.7728,-6.6331,-0.44947,0.088575,-0.42394,-0.61056,1.56,39.12,12.96
3.6094,-6.17,-0.35413,0.077885,-0.39462,-0.64782,2.04,39.0,12.84
3.2825,-5.2575,-0.21793,0.062919,-0.33506,-0.72907,2.52,38.88,12.78
3.3778,-5.0531,-0.14982,0.055589,-0.36866,-0.72632,2.7,38.64,12.66
3.4459,-5.2166,-0.01362,0.029932,-0.44166,-0.67776,2.58,38.34,12.6
3.4187,-6.1564,0.19068,-0.015577,-0.52962,-0.61331,2.28,38.1,12.48
3.1599,-6.5514,0.21793,-0.084605,-0.54703,-0.52901,1.62,38.16,12.24
3.1191,-6.9055,0.31327,-0.1967,-0.36835,-0.39523,1.32,38.04,12.36
3.0101,-7.6683,0.31327,-0.2755,-0.16524,-0.3091,0.6,37.86,12.42
3.1327,-8.1586,0.47671,-0.34911,0.039401,-0.22358,-0.42,37.8,11.94
3.3915,-8.6762,0.46309,-0.37965,0.18204,-0.13378,-1.26,37.98,11.82
3.9499,-10.447,0.39499,-0.41905,0.24129,0.022297,-2.04,38.1,11.64
4.1814,-11.931,0.54481,-0.40714,0.26909,0.20586,-2.58,38.1,11.34
4.3313,-12.408,0.44947,-0.3317,0.2474,0.23579,-3.06,38.22,11.22
4.413,-12.599,0.40861,-0.19517,0.12431,0.24526,-3.18,38.22,11.22
4.9306,-13.375,-0.054481,-0.027184,-0.18662,0.22174,-3.48,38.1,11.04
5.0259,-14.901,-0.39499,0.11698,-0.60659,0.13836,-3.84,38.34,10.68
4.5901,-16.29,-0.21793,0.1741,-0.91599,0.054978,-3.78,38.34,10.8
4.1678,-16.794,-0.040861,0.15455,-0.8937,0.011912,-3.66,38.28,10.86
3.8137,-14.628,-0.21793,0.072388,-0.61056,-0.10965,-3.78,38.04,10.68
3.5822,-12.599,-0.89894,0.0042761,-0.23274,-0.25229,-3.72,37.86,10.68
3.5685,-10.937,-1.3212,0.014966,0.16768,-0.54581,-3.66,37.8,10.74
3.6775,-9.7658,-1.975,0.054367,0.19914,-0.71105,-3.84,37.56,10.86
4.018,-9.4661,-1.9886,0.076664,0.079412,-0.81673,-4.02,37.44,11.04
3.9227,-8.5127,-1.9886,0.080329,-0.11423,-0.85216,-4.2,37.26,11.16
3.6775,-7.5457,-1.866,0.062308,-0.15974,-0.80481,-4.38,37.08,11.28
3.514,-6.9191,-1.9341,0.036652,-0.13806,-0.75289,-4.56,37.08,11.4
3.337,-6.4424,-1.9886,0.0036652,-0.070555,-0.68173,-4.74,37.08,11.7
3.1327,-4.9033,-1.975,-0.011606,-0.0051924,-0.62186,-4.86,36.9,12.12
3.1327,-4.3177,-1.9613,-0.019242,0.0067195,-0.56352,-5.1,36.78,12.18
3.2008,-3.732,-1.8796,-0.056505,-0.05284,-0.5006,-5.4,36.6,12.42
2.9556,-3.8682,-1.8115,-0.13042,-0.12492,-0.44899,-5.64,36.48,13.02
2.7786,-4.1133,-1.5936,-0.20617,-0.089492,-0.4105,-6.0,36.3,13.2
2.6423,-4.2223,-1.4438,-0.24557,-0.045509,-0.39859,-6.24,36.24,13.38
2.6696,-4.4811,-1.2531,-0.35949,0.10751,-0.29535,-6.54,36.06,13.74
2.8058,-5.0259,-1.1577,-0.42211,0.19884,-0.20189,-6.66,36.0,13.98
2.9284,-6.0747,-1.0215,-0.47312,0.27611,-0.10201,-6.9,35.88,14.1
3.337,-7.1098,-0.89894,-0.52382,0.41722,0.10385,-7.32,35.76,14.46
3.5549,-7.8045,-0.81722,-0.52779,0.49358,0.30971,-7.32,35.58,14.58
3.8409,-8.3357,-0.76274,-0.51465,0.57513,0.53634,-7.5,35.4,14.7
4.4811,-9.4253,-0.8036,-0.46426,0.60353,0.77458,-7.74,35.16,14.94
4.7807,-10.079,-0.91256,-0.37935,0.62369,1.0033,-7.74,35.22,15.12
5.0668,-10.256,-0.92618,-0.24954,0.60751,1.1771,-7.68,35.22,15.06
5.489,-10.774,-1.185,-0.090103,0.50671,1.2981,-7.62,35.28,15.24
5.5571,-11.645,-1.4301,0.12584,0.25901,1.4206,-7.38,35.4,15.3
5.9112,-12.844,-1.6072,0.19273,0.072998,1.4972,-7.08,35.34,15.36
6.4152,-14.342,-1.7298,0.18326,-0.092241,1.5479,-6.84,35.46,15.3
6.5786,-14.778,-1.2803,0.11973,-0.09163,1.4713,-6.0,35.52,15.3
6.1292,-13.675,-1.1577,0.025656,0.1179,1.1542,-5.4,35.58,15.42
5.5026,-11.727,-0.98067,-0.015272,0.17226,1.0321,-4.02,35.82,15.54
5.2711,-10.637,-1.0215,0.011912,0.2306,0.75503,-3.48,35.82,15.66
5.2166,-10.093,-1.185,0.15424,0.10629,0.40195,-2.82,35.88,15.66
5.5435,-8.4991,-0.95342,0.26909,-0.146,0.26909,-1.62,35.76,15.84
5.38,-8.1041,-0.7355,0.32773,-0.48747,0.15027,-1.08,35.82,15.78
5.0259,-7.641,-0.57205,0.37996,-0.78893,0.01405,-0.48,35.82,15.9
4.2223,-6.6331,-0.38137,0.39706,-0.94959,-0.23366,0.66,35.94,15.78
3.8001,-6.0883,-0.50395,0.38149,-0.88423,-0.39706,1.14,36.06,15.84
3.5685,-5.6797,-0.57205,0.35491,-0.74526,-0.55528,1.44,36.12,15.9
3.2825,-5.203,-0.43585,0.31948,-0.61697,-0.68661,2.1,36.0,15.9
3.1872,-5.1894,-0.24517,0.27367,-0.51374,-0.78924,2.1,36.06,15.72
3.1327,-5.4754,-0.12258,0.22602,-0.42852,-0.83169,2.1,36.12,15.54
3.1327,-5.993,-0.054481,0.17746,-0.35125,-0.83108,1.92,36.06,15.12
3.1327,-6.4016,-0.12258,0.12889,-0.29138,-0.76755,1.8,36.06,14.82
3.2144,-6.7966,-0.12258,0.1014,-0.2978,-0.6805,1.68,36.06,14.58
3.4459,-8.4719,-0.027241,0.073609,-0.31643,-0.55314,1.26,36.42,13.92
3.4187,-9.1937,0.068102,0.054978,-0.31429,-0.42272,0.9,36.54,13.68
3.4187,-9.902,0.068102,0.041233,-0.3149,-0.29535,0.66,36.84,13.26
3.6366,-11.346,0.040861,0.041539,-0.37049,-0.089186,0.24,36.84,12.72
3.909,-12.245,0.095342,0.034819,-0.42333,0.051618,-0.06,37.02,12.36
4.0589,-12.912,0.12258,0.029322,-0.44868,0.10568,-0.24,36.96,11.88
3.9363,-13.184,-0.095342,0.0085521,-0.47617,0.18937,-0.48,37.14,11.16
3.7047,-13.77,-0.14982,-0.048258,-0.43921,0.20708,-0.6,37.2,11.04
3.5822,-14.683,-0.10896,-0.15944,-0.28466,0.29596,-0.6,37.32,10.74
3.4187,-14.764,0.14982,-0.29535,0.016188,0.44807,-0.54,37.38,10.44
3.5004,-13.389,0.081722,-0.39584,0.50519,0.47098,-0.54,37.44,10.44
3.6094,-11.673,-0.28603,-0.32773,0.66401,0.45845,-0.36,37.5,10.38
3.8001,-9.6023,-1.4438,-0.22755,0.60109,0.30971,-0.24,37.32,10.8
3.7184,-9.7522,-1.58,-0.12248,0.39615,0.12523,0.12,37.02,10.98
3.6094,-10.27,-1.5255,-0.062003,0.24648,-0.054367,0.24,36.9,11.22
3.3642,-9.9701,-1.2803,-0.078802,0.27489,-0.28069,0.36,36.78,11.94
3.2008,-9.1529,-1.3076,-0.12126,0.35949,-0.39065,0.54,36.42,12.3
2.9965,-8.5263,-1.4165,-0.13347,0.4105,-0.42486,0.72,36.42,12.84
2.8194,-7.4503,-1.6481,-0.14905,0.58338,-0.45204,1.14,36.36,13.5
3.0646,-6.5786,-1.6481,-0.13317,0.63316,-0.45143,1.2,36.3,13.92
3.0918,-5.5299,-1.5663,-0.11545,0.56016,-0.43524,1.32,36.12,14.28
2.9965,-4.9033,-1.6072,-0.13042,0.45357,-0.42638,1.2,36.18,15.12
2.8194,-4.699,-1.4574,-0.16707,0.3937,-0.43402,1.26,36.12,15.54
2.7104,-4.4947,-1.3484,-0.19487,0.40836,-0.42852,1.2,36.18,15.78
2.7649,-4.5083,-1.2531,-0.22938,0.42272,-0.37599,1.14,36.24,16.02
2.942,-4.9306,-1.1713,-0.26695,0.43219,-0.28986,0.96,36.48,16.2
3.0918,-5.5299,-1.185,-0.30788,0.42791,-0.17165,0.84,36.54,16.38
3.2553,-6.5378,-1.1986,-0.33292,0.42272,-0.043371,0.54,36.6,16.68
3.337,-7.0281,-1.185,-0.35003,0.43921,0.18998,0.36,36.66,16.68
3.4868,-7.641,-1.2122,-0.35827,0.4441,0.28375,0.36,36.72,16.8
3.8546,-8.7034,-1.2531,-0.34392,0.44043,0.56719,-0.66,36.72,17.22
4.0997,-9.5615,-1.2803,-0.31032,0.39981,0.78069,-0.78,36.72,17.28
4.0997,-10.052,-1.185,-0.27458,0.38912,0.9783,-0.9,36.66,17.52
4.4539,-10.447,-1.2258,-0.22113,0.38485,1.2837,-1.08,36.54,17.52
4.6445,-10.692,-1.2667,-0.097433,0.3711,1.4832,-0.9,36.6,17.58
4.6854,-10.801,-1.471,-0.043677,0.35583,1.5724,-0.84,36.66,17.7
5.1076,-11.795,-1.8387,0.045509,0.22755,1.7562,-0.54,36.78,17.94
5.5435,-13.212,-2.1248,0.052229,-0.16493,2.0406,-0.06,36.84,17.82
6.7285,-15.609,-1.9341,-0.016493,-0.40775,2.0843,1.02,36.78,18.06
6.6876,-14.669,-1.866,-0.10049,-0.50885,1.898,1.68,36.9,18.06
5.884,-12.081,-1.7298,-0.13683,-0.43127,1.3809,3.12,37.08,18.3
5.7069,-11.019,-1.7979,-0.12004,-0.42058,0.94012,4.02,37.02,18.3
5.5435,-10.351,-1.8524,-0.083689,-0.46456,0.70066,5.04,36.9,18.3
5.2575,-8.8532,-1.4165,-0.009163,-0.65424,0.081245,6.78,37.26,18.06
5.0395,-8.4991,-0.9398,0.0033598,-0.72449,-0.28191,7.68,37.38,17.88
4.6718,-8.1586,-0.39499,-0.019242,-0.67989,-0.58063,8.64,37.5,17.88
4.0452,-7.5184,-0.081722,-0.050702,-0.4777,-0.9053,10.14,37.5,17.58
3.9499,-7.3414,-0.054481,-0.069333,-0.3427,-1.0898,10.86,37.38,17.46
3.7865,-7.0553,0.01362,-0.075442,-0.27764,-1.1631,11.34,37.32,17.1
3.514,-6.279,0.32689,-0.084299,-0.11973,-1.3803,11.82,37.32,17.1
3.4187,-5.8567,0.47671,-0.04612,-0.075136,-1.5036,11.88,37.38,17.1
3.2961,-5.7614,0.54481,-0.0058032,-0.11209,-1.6008,11.88,37.44,16.98
3.2961,-6.2926,0.57205,0.075136,-0.29383,-1.678,11.46,37.62,16.26
3.2825,-6.7421,0.6674,0.11698,-0.4444,-1.6692,11.04,37.8,16.08
3.1872,-7.0553,0.7355,0.13531,-0.50305,-1.6533,10.26,37.92,15.84
2.8603,-8.3493,0.8036,0.15149,-0.53695,-1.5272,8.94,37.92,15.36
2.8467,-9.1937,0.78998,0.16157,-0.45723,-1.3967,8.16,38.16,15.12
3.0101,-9.9156,0.85808,0.18204,-0.36316,-1.2312,7.44,38.4,14.94
3.3915,-11.387,0.31327,0.20983,-0.31948,-0.93035,5.82,39.0,14.28
3.5685,-11.877,0.12258,0.24251,-0.37477,-0.69822,5.1,39.3,13.98
3.8682,-12.749,-0.12258,0.23976,-0.4893,-0.43921,4.38,39.54,13.74
4.0997,-13.184,-0.24517,0.20892,-0.64996,-0.21075,3.3,40.08,12.78
4.1133,-13.184,-0.72188,0.15302,-0.76511,-0.043371,2.76,40.32,12.36
4.0725,-13.607,-0.92618,0.044899,-0.85246,0.11912,2.4,40.5,11.94
3.5685,-14.07,-0.74912,-0.15974,-0.69211,0.42608,1.74,40.92,11.46
3.228,-13.443,-0.61292,-0.27672,-0.29108,0.62827,1.56,41.16,11.1
3.2144,-12.803,-0.61292,-0.31001,-0.07422,0.72876,1.62,41.28,10.98
4.0997,-9.9837,-1.5255,-0.30207,0.29566,0.88209,1.68,41.58,10.74
4.2632,-8.9622,-1.9477,-0.24282,0.2697,0.8323,1.86,41.64,10.68
4.3858,-8.6762,-2.2201,-0.18631,0.098655,0.71838,2.04,41.76,10.56
4.2904,-9.2482,-2.0567,-0.15852,-0.069639,0.56047,2.22,41.76,10.74
4.1814,-8.9349,-1.9477,-0.15547,-0.10263,0.23305,2.46,41.82,10.86
3.9227,-8.7715,-1.9613,-0.15516,-0.057727,0.12309,2.76,41.7,11.1
3.7184,-8.6217,-1.9886,-0.16066,0.21533,-0.073609,2.94,41.7,11.34
3.9227,-7.75,-2.0975,-0.12217,0.35888,-0.16371,3.06,41.58,11.82
3.909,-7.0962,-2.0567,-0.089797,0.38332,-0.19609,3.3,41.4,12.06
3.8546,-6.3743,-1.9613,-0.056505,0.32681,-0.21411,3.54,41.4,12.36
3.5004,-5.094,-1.7979,-0.042455,0.22174,-0.22633,3.6,41.28,12.84
3.4051,-4.7263,-1.6208,-0.048564,0.12339,-0.2474,3.6,41.4,13.14
3.3097,-4.4811,-1.6072,-0.079718,0.078496,-0.27031,3.78,41.46,13.26
3.1872,-4.1542,-1.3893,-0.10568,0.090408,-0.25504,3.84,41.52,13.5
3.1327,-4.2223,-1.2803,-0.13775,0.10812,-0.23427,3.9,41.52,13.68
3.1191,-4.5764,-1.1577,-0.14233,0.093462,-0.1686,3.9,41.34,14.04
3.3506,-5.2575,-1.2531,-0.15669,0.036957,-0.072693,3.96,41.4,14.1
3.5822,-5.9657,-1.3757,-0.12767,-0.083994,0.12065,3.72,41.46,14.04
3.7865,-6.96,-1.4846,-0.11179,-0.14905,0.29932,3.78,41.52,14.16
3.9227,-7.6546,-1.6072,-0.083689,-0.17898,0.4835,3.9,41.7,14.16
4.0861,-8.6217,-1.7298,-0.054062,-0.20097,0.67195,3.96,42.0,14.04
4.413,-9.3844,-1.7979,-0.0015272,-0.23335,0.85002,4.32,42.18,14.1
4.6718,-9.9565,-1.9886,0.055283,-0.3036,1.044,4.68,42.24,14.1
4.9306,-10.215,-2.2337,0.16982,-0.46487,1.2981,4.98,42.42,13.92
5.0531,-10.719,-2.4789,0.25259,-0.49266,1.4303,5.7,42.54,13.74
4.9033,-11.346,-2.4517,0.31337,-0.38729,1.5238,6.9,42.72,13.86
4.8625,-12.626,-2.5061,0.34483,-0.12553,1.5724,8.16,42.54,13.92
5.38,-13.838,-2.5198,0.33078,0.22144,1.6057,9.42,42.66,13.56
6.1564,-13.961,-2.1929,0.2981,0.38668,1.5821,10.74,42.54,13.44
6.4152,-13.321,-2.0294,0.24374,0.083689,1.372,11.46,42.48,13.38
6.6059,-11.196,-1.6481,0.2474,-0.41539,1.1438,13.02,42.48,13.02
6.4152,-10.283,-1.362,0.26114,-1.0153,0.83322,13.74,42.48,12.9
5.7478,-9.5751,-1.0215,0.27336,-1.5693,0.47739,14.52,42.42,12.72
4.9442,-9.0575,-0.78998,0.27917,-1.9013,0.065668,16.02,42.18,12.18
4.4811,-8.6762,-0.57205,0.22663,-1.9215,-0.57941,16.74,42.18,12.18
4.0316,-8.3493,-0.40861,0.13928,-1.6426,-0.78679,17.28,42.06,11.7
3.2553,-8.5808,-0.12258,0.016188,-1.1979,-1.1689,18.12,42.06,10.74
2.9556,-8.8532,0.21793,-0.1292,-0.65118,-1.5024,18.6,42.24,10.44
3.0237,-9.3299,0.43585,-0.30635,0.16524,-1.8925,18.78,42.36,10.14
3.1191,-9.5887,1.0624,-0.38362,0.58368,-2.0666,18.9,42.48,9.6
3.0918,-9.4253,1.0488,-0.39492,0.87445,-2.2046,18.72,42.54,9.3
3.0373,-9.1937,1.471,-0.35766,1.0247,-2.262,18.3,42.84,8.88
2.9556,-7.8862,1.5255,-0.24587,1.0748,-2.2547,16.98,43.26,8.4
3.1191,-7.1779,1.4438,-0.075442,0.97158,-2.16,16.08,43.5,8.22
3.2144,-6.7557,1.5119,0.24312,0.48503,-1.8482,15.12,43.74,8.04
3.6094,-5.5026,1.2803,0.46548,-0.049175,-1.5434,12.66,44.22,7.92
3.5685,-5.2983,1.2122,0.69119,-0.67042,-1.0684,11.34,44.58,7.68
3.4868,-5.4073,1.1305,0.93768,-1.4933,-0.75228,8.76,45.36,7.5
3.1735,-6.0883,1.3348,0.99113,-1.6875,-0.60384,7.44,45.66,7.32
3.0646,-6.7421,1.185,1.0556,-2.0604,-0.22938,5.94,45.96,7.08
3.1599,-7.3686,1.076,1.0128,-2.1499,-0.040317,4.8,46.14,6.96
3.4459,-8.1858,1.0079,0.90713,-2.1283,0.13225,2.7,46.74,6.18
3.6503,-8.54,0.83084,0.7086,-1.8256,0.32406,1.68,46.98,5.52
3.9227,-8.9349,0.5993,0.63713,-1.6869,0.38271,0.36,47.34,4.74
4.2632,-9.1256,0.28603,0.5229,-1.4389,0.45143,-0.06,47.52,4.14
4.4811,-9.221,0.12258,0.38576,-1.1903,0.43555,-0.24,47.7,3.66
4.6854,-9.3163,-0.054481,0.33048,-1.0299,0.44685,-0.6,47.94,3.06
4.8625,-9.2346,-0.095342,0.27611,-0.92271,0.43005,-0.72,48.36,1.68
4.8897,-9.398,-0.20431,0.22022,-0.89828,0.36744,-0.72,48.54,1.08
4.7944,-9.6704,-0.12258,0.17287,-0.93249,0.26145,-0.84,48.66,0.78
4.4947,-10.733,0.027241,0.088575,-0.8885,0.20433,-0.72,49.2,-0.12
4.6037,-13.13,0.27241,0.057116,-0.8094,0.24099,-0.48,49.26,-0.6
4.6037,-13.13,0.27241,-0.046426,-0.37354,0.27519,-0.48,49.26,-0.6
4.8897,-10.733,-0.23155,0.019548,-0.13806,0.22266,-0.18,49.56,-1.2
5.2166,-10.025,-0.51757,0.16768,-0.080329,0.30085,0.12,49.68,-1.26
5.7478,-8.6081,-1.0488,0.36285,-0.37354,0.27489,0.3,49.8,-1.32
5.8704,-6.8647,-1.3348,0.54,-0.92302,0.16249,0.6,49.86,-1.8
5.4073,-7.0281,-1.1713,0.65576,-1.6298,-0.055283,0.72,49.98,-1.8
4.9578,-7.2869,-0.92618,0.64538,-1.7886,-0.27397,0.84,50.1,-1.98
3.8273,-8.5672,-0.38137,0.59437,-1.6716,-0.46976,1.2,50.04,-2.16
3.732,-9.2891,-0.43585,0.51191,-1.3124,-0.57452,1.26,50.1,-2.28
3.7047,-9.5479,-0.40861,0.40989,-0.60353,-0.6072,1.2,50.22,-2.4
4.2359,-9.1801,-0.43585,0.40348,-0.44715,-0.58551,1.02,50.16,-2.94
4.6445,-8.4582,-0.44947,0.46884,-0.38515,-0.46578,0.78,50.1,-3.12
4.7671,-7.8453,-0.40861,0.57818,-0.62094,-0.37629,0.72,50.22,-3.3
4.8761,-7.4912,-0.46309,0.68814,-1.0235,-0.29077,0.54,50.1,-3.72
4.7944,-7.2188,-0.29965,0.78343,-1.4523,-0.22052,-0.12,49.98,-4.8
4.4402,-7.4095,-0.10896,0.83933,-1.8204,-0.096517,-0.48,50.04,-5.16
4.1814,-8.0224,-0.20431,0.85002,-1.8534,-0.058032,-1.26,50.04,-6.06
4.2904,-8.2812,-0.19068,0.81734,-1.8152,0.084299,-1.68,50.04,-6.54
4.3313,-8.4582,-0.17706,0.80481,-1.7871,0.13775,-2.16,49.86,-7.08
4.7263,-8.6081,-0.28603,0.75808,-1.7471,0.31154,-3.12,50.04,-7.98
4.8352,-8.6353,-0.38137,0.73945,-1.7908,0.38759,-3.6,50.16,-8.46
4.9714,-8.3901,-0.43585,0.7422,-1.9673,0.43494,-4.02,50.04,-9.42
5.0531,-8.2539,-0.53119,0.72907,-2.0947,0.39218,-4.32,50.04,-9.9
5.0668,-8.2131,-0.55843,0.71563,-2.1493,0.36102,-4.56,49.86,-10.44
5.0123,-8.4855,-0.7355,0.63591,-2.1887,0.19273,-5.04,49.86,-10.98
4.5764,-8.6489,-0.50395,0.53848,-2.0327,0.000305,-5.76,50.04,-11.58
4.0861,-8.7306,-0.21793,0.4331,-1.7208,-0.20708,-6.18,50.04,-11.88
3.7865,-8.8941,-0.054481,0.33811,-1.3161,-0.42364,-6.54,49.92,-12.24
3.9227,-8.7306,-0.14982,0.28405,-0.93493,-0.63347,-7.26,49.86,-12.84
4.0452,-8.6625,-0.17706,0.26206,-0.64324,-0.80909,-7.62,49.8,-13.2
4.0589,-8.54,-0.12258,0.29902,-0.50274,-0.93707,-8.1,49.68,-13.5
4.2087,-9.3436,0.027241,0.3937,-0.45693,-1.0247,-9.24,49.26,-14.04
4.3721,-10.256,0.25879,0.44807,-0.51526,-0.96272,-9.84,48.96,-14.28
4.4402,-10.583,0.31327,0.50457,-0.55711,-0.84819,-10.44,48.66,-14.46
4.4811,-10.992,0.49033,0.58429,-0.59895,-0.58704,-12.0,48.18,-14.88
4.5492,-11.278,0.51757,0.62461,-0.64294,-0.36499,-12.78,48.0,-15.06
4.6173,-10.665,0.47671,0.65485,-0.68875,-0.27245,-13.56,47.52,-15.42
4.699,-9.1529,0.54481,0.7929,-0.98655,-0.033903,-15.06,46.74,-15.78
4.8352,-8.3765,0.47671,0.88362,-1.3537,0.10629,-15.66,46.38,-16.02
4.8352,-8.0224,0.58567,0.99021,-1.8277,0.20739,-16.38,45.96,-16.32
4.9033,-8.4446,0.50395,1.0672,-2.5278,0.3766,-17.82,45.3,-16.86
4.9306,-8.7715,0.51757,1.0537,-2.7083,0.43952,-18.6,45.0,-16.92
4.8352,-8.9486,0.38137,1.0217,-2.963,0.54489,-19.32,44.7,-17.1
4.8625,-9.5887,0.35413,0.87323,-3.0397,0.63713,-20.04,44.46,-17.34
4.8897,-10.161,0.38137,0.72571,-2.8967,0.58704,-21.36,43.74,-17.28
4.5764,-10.215,0.54481,0.55894,-2.6371,0.46365,-22.02,43.38,-17.16
4.1814,-10.093,0.70826,0.4047,-2.2886,0.26664,-22.56,43.14,-17.04
4.0725,-9.8339,0.76274,0.2251,-1.7269,-0.12217,-23.7,42.42,-16.68
4.0589,-9.4934,0.8717,0.16066,-1.4633,-0.38729,-24.18,42.12,-16.26
4.0589,-9.3708,0.77636,0.12553,-1.2923,-0.60628,-24.72,41.76,-16.02
3.9227,-9.2482,1.0215,0.13225,-1.1753,-0.78069,-26.04,41.22,-15.24
3.9499,-9.2482,1.1169,0.14416,-1.0751,-0.9166,-26.52,40.98,-14.7
3.8001,-9.2891,1.1169,0.16493,-0.9108,-1.0241,-27.24,40.56,-14.16
3.7047,-9.2074,1.185,0.17959,-0.80879,-1.0559,-28.62,39.66,-13.26
3.6775,-9.3436,1.2803,0.18784,-0.73487,-1.0684,-29.16,39.18,-12.72
3.6639,-9.4389,1.2939,0.1912,-0.72021,-1.0779,-29.88,38.7,-12.3
3.7728,-9.6023,1.1441,0.20922,-0.80909,-1.0968,-31.26,37.68,-11.58
3.9227,-9.9429,0.95342,0.22358,-0.93493,-1.1023,-31.92,37.14,-11.28
3.7592,-10.025,0.61292,0.22938,-1.0256,-1.1567,-33.18,35.82,-10.68
3.5685,-10.597,0.28603,0.22388,-0.97311,-1.2062,-33.84,35.22,-10.44
3.5413,-11.686,0.24517,0.1854,-0.81795,-1.2193,-34.62,34.62,-10.26
3.5822,-12.095,0.14982,0.15577,-0.55436,-1.2703,-35.22,33.9,-9.84
3.2008,-10.774,-0.34051,0.16554,-0.23213,-1.3622,-36.72,32.16,-9.42
3.4459,-10.474,-0.7355,0.18234,0.067195,-1.3271,-37.5,31.38,-9.3
3.6911,-10.093,-1.1441,0.21961,0.2193,-1.2853,-37.98,30.36,-9.0
3.7047,-8.6081,-1.6344,0.2532,0.21014,-1.2095,-39.24,28.56,-8.76
3.5685,-7.8317,-1.7162,0.28405,0.14508,-1.1136,-39.84,27.84,-8.82
3.4868,-7.2733,-1.7434,0.32498,0.036346,-1.003,-40.32,26.88,-8.7
3.5958,-7.2052,-1.8251,0.36927,-0.12981,-0.86896,-41.04,25.08,-8.64
3.5685,-7.3005,-1.975,0.38698,-0.27275,-0.66401,-41.52,24.12,-8.52
3.6094,-7.4503,-2.0839,0.3653,-0.3708,-0.22388,-42.3,22.56,-8.76
3.7184,-7.4776,-2.1929,0.33139,-0.33353,0.15638,-42.48,21.72,-8.64
3.909,-7.2188,-2.0567,0.26878,-0.1912,0.55955,-42.78,20.94,-8.7
4.1406,-6.9872,-2.0294,0.2138,-0.073915,0.91019,-42.96,20.34,-8.82
4.6309,-6.7012,-1.975,0.16738,-0.054367,1.1787,-42.96,19.56,-8.88
4.8488,-6.7693,-1.8796,0.135,-0.10965,1.376,-42.96,19.2,-8.82
5.0123,-6.8919,-1.7843,0.12737,-0.21716,1.5482,-42.78,19.08,-8.88
5.3392,-7.2596,-1.8387,0.12462,-0.38576,1.7471,-42.54,18.84,-8.88
5.6388,-7.7091,-1.8387,0.12126,-0.42883,1.817,-42.3,18.78,-8.7
5.8295,-8.1722,-1.8387,0.12553,-0.48381,1.9239,-41.88,19.02,-8.64
6.0474,-8.5127,-1.7162,0.12217,-0.58338,2.0247,-41.16,19.92,-8.28
6.2381,-8.7443,-1.7706,0.13042,-0.68142,2.0461,-40.62,20.64,-8.04
6.3471,-9.0848,-1.8387,0.14233,-0.85888,1.9914,-39.3,21.96,-7.44
6.4833,-9.221,-2.0431,0.15272,-0.978,1.8928,-38.76,22.86,-7.14
6.4152,-8.826,-2.1112,0.1744,-1.0861,1.7242,-37.92,23.7,-6.9
6.3062,-8.6353,-1.9886,0.18448,-1.1289,1.6368,-37.2,24.54,-6.54
5.993,-8.7987,-2.1793,0.21472,-1.1961,1.3329,-35.64,26.22,-6.0
5.8704,-9.0303,-2.2065,0.21075,-1.1325,1.1258,-34.98,27.12,-5.76
5.8023,-9.2755,-2.1248,0.20097,-0.99876,0.89095,-34.32,27.96,-5.28
5.5299,-10.283,-1.9068,0.17929,-0.71624,0.562,-32.64,29.58,-4.5
5.4345,-10.828,-1.7434,0.18265,-0.47831,0.34606,-31.92,30.42,-4.08
5.4618,-11.673,-1.5119,0.21869,-0.28069,0.21655,-31.32,31.02,-3.78
5.9793,-13.648,-1.2122,0.27611,-0.22083,0.19487,-30.0,32.1,-3.0
6.6331,-14.696,-1.0896,0.37996,-0.3207,0.22449,-29.46,32.52,-2.82
7.0553,-14.846,-1.0488,0.48381,-0.59529,0.23671,-28.86,32.88,-2.58
6.9328,-12.313,-1.0896,0.62064,-1.3137,-0.0064141,-27.84,33.18,-2.16
6.4152,-10.61,-0.98067,0.77549,-1.6008,-0.18448,-27.48,33.36,-1.98
6.0202,-9.902,-0.92618,0.8769,-2.2312,-0.62339,-27.18,33.48,-1.86
4.3449,-9.9292,-0.38137,0.8995,-2.8387,-1.3149,-26.4,33.42,-1.32
3.6911,-10.161,-0.14982,0.79138,-2.766,-1.7425,-26.1,33.18,-1.08
3.1191,-10.065,0.01362,0.61514,-2.3616,-2.0846,-25.98,32.7,-0.96
2.5742,-10.025,0.42223,0.31643,-1.5543,-2.3955,-25.92,32.04,-0.24
2.5061,-10.011,0.78998,0.13195,-1.055,-2.5403,-25.86,31.56,0.12
2.3699,-9.7522,1.1577,0.0067195,-0.61209,-2.6319,-25.98,30.9,0.54
2.2065,-9.3163,1.4301,-0.024129,-0.44318,-2.6512,-26.34,30.36,0.72
2.3836,-8.2948,1.5119,-0.083078,-0.11332,-2.638,-27.12,28.74,1.2
2.4517,-7.8726,1.471,-0.064752,-0.050702,-2.572,-27.6,28.02,1.44
2.3836,-7.75,1.6481,-0.0097738,-0.082467,-2.4679,-28.26,27.3,1.74
2.2882,-7.4367,1.7706,0.074526,-0.17257,-2.3363,-29.22,25.56,1.92
2.2065,-7.246,1.7979,0.22235,-0.34086,-2.0647,-29.76,24.54,2.04
2.1929,-7.1507,1.7434,0.28558,-0.40225,-1.9535,-30.42,23.64,2.1
2.1248,-7.1915,1.7025,0.44685,-0.56108,-1.5672,-31.56,21.9,1.98
1.975,-6.9736,1.5936,0.56322,-0.62308,-1.2749,-32.1,21.24,1.86
1.9886,-7.0145,1.4301,0.66798,-0.64813,-0.96181,-32.88,19.68,1.5
2.1384,-7.0826,1.1577,0.79901,-0.64966,-0.4218,-33.36,18.96,1.14
2.3155,-7.0962,0.88532,0.86376,-0.68234,-0.057727,-33.72,18.54,0.84
2.4925,-7.1234,0.78998,0.89431,-0.75381,0.30727,-33.96,18.0,0.72
2.7649,-7.3141,0.54481,0.91233,-0.84116,0.63744,-34.02,17.7,0.66
3.0646,-7.7364,-0.068102,0.91355,-0.9279,0.92363,-34.02,17.28,0.12
3.228,-8.0905,-0.25879,0.89553,-1.029,1.2932,-33.96,17.04,0.12
3.623,-8.9077,-0.62654,0.84788,-1.0687,1.4007,-33.84,16.86,0.06
3.5549,-9.112,-0.47671,0.79474,-1.1451,1.5647,-33.66,17.34,0.06
3.623,-9.5479,-0.76274,0.68417,-1.3195,1.6554,-33.48,17.58,0.18
3.7456,-9.902,-1.0351,0.57482,-1.3857,1.6643,-33.36,18.06,0.42
4.5492,-12.136,-1.9341,0.43005,-1.3491,1.7013,-32.88,18.78,0.54
4.699,-13.511,-1.975,0.27031,-1.2379,1.8005,-32.58,19.32,0.66
4.8625,-16.304,-1.7025,0.097128,-1.0055,1.916,-32.28,19.86,0.84
4.8625,-17.243,-1.3484,-0.18754,-0.2642,2.0681,-31.56,21.18,1.5
4.6445,-17.366,-1.2122,-0.343,0.47067,2.1454,-31.08,21.84,1.74
4.6718,-17.203,-1.1169,-0.45296,1.1109,2.2251,-30.6,22.5,2.04
5.1621,-16.072,-1.4438,-0.49633,1.5281,2.2443,-29.82,23.58,2.88
5.6388,-14.002,-1.866,-0.47098,1.679,2.1487,-29.34,24.3,3.24
5.9112,-10.665,-1.9613,-0.42486,1.5308,1.89,-28.86,25.02,3.78
4.7944,-8.9486,-1.757,-0.40714,0.95784,1.3039,-27.66,26.1,4.62
4.2495,-8.4582,-1.6072,-0.44257,0.5733,0.86346,-27.18,26.58,4.92
4.0316,-8.6625,-1.58,-0.47525,0.56474,0.50213,-26.46,27.06,5.16
4.5083,-8.4855,-1.4574,-0.49511,0.80879,0.29138,-25.2,28.02,6.0
4.3858,-8.0632,-1.4301,-0.47586,1.0846,0.1686,-24.54,28.26,6.36
4.304,-7.6138,-1.3076,-0.36957,1.2627,-0.021991,-24.0,28.62,6.66
4.3721,-6.4833,-1.3212,-0.32284,1.2465,-0.10721,-22.8,29.22,7.02
4.3449,-5.8431,-1.4982,-0.19151,1.0189,-0.34911,-22.38,29.4,7.32
4.2087,-5.3392,-1.5119,-0.13317,0.7926,-0.52198,-21.96,29.7,7.44
3.8137,-4.9306,-1.3484,-0.086132,0.62308,-0.70005,-21.18,30.24,7.5
3.7047,-4.7944,-1.2803,-0.07758,0.56169,-0.84971,-20.94,30.24,7.32
3.4596,-4.8488,-1.2122,-0.081856,0.59132,-1.0076,-20.7,30.42,7.26
3.2689,-5.2438,-1.1577,-0.10996,0.6802,-1.065,-20.64,30.54,7.14
3.1463,-5.5843,-1.1032,-0.1405,0.79168,-1.0968,-20.76,30.54,7.08
3.0918,-5.884,-1.0624,-0.17623,0.88178,-1.1078,-21.06,30.36,6.78
3.1872,-6.3471,-0.92618,-0.20617,0.9557,-1.0919,-21.3,30.24,6.54
3.3506,-7.2324,-0.98067,-0.21961,0.98594,-1.0327,-21.78,30.12,5.76
3.4732,-7.6002,-1.0624,-0.21808,0.98227,-0.91141,-22.2,30.0,5.34
3.8001,-8.5263,-1.3484,-0.17868,0.91447,-0.75961,-23.04,29.34,4.8
3.9771,-8.9622,-1.4574,-0.092546,0.70311,-0.48533,-23.52,29.16,4.38
4.1133,-9.2891,-1.5391,-0.059254,0.63347,-0.38332,-23.94,28.8,3.96
4.1133,-9.4389,-1.7025,0.053451,0.47495,-0.074526,-24.42,28.44,3.66
4.3449,-10.025,-1.9886,0.12737,0.34208,0.14844,-25.14,28.02,3.24
4.2904,-10.215,-2.1248,0.17135,0.24221,0.50213,-25.56,27.72,2.76
4.6718,-10.188,-2.0839,0.23854,0.19914,0.56016,-26.04,27.12,2.04
4.7399,-10.61,-2.2065,0.28375,-0.019242,0.71257,-26.1,27.0,1.74
4.8761,-11.645,-2.2746,0.27336,-0.17685,1.0189,-26.22,27.06,1.56
5.6388,-13.988,-2.2746,0.17226,-0.45784,1.3308,-26.4,27.06,1.26
5.8976,-14.179,-2.1929,0.078802,-0.56872,1.4493,-26.34,27.24,1.26
5.5571,-13.144,-1.8524,-0.013744,-0.53023,1.39,-25.92,27.48,1.2
4.6173,-11.427,-1.5255,-0.069028,-0.24954,1.1047,-25.2,28.14,1.02
4.2904,-10.828,-1.3893,-0.048564,-0.19303,0.84513,-24.6,28.56,0.96
4.3177,-10.46,-1.4982,-0.029016,-0.28069,0.60323,-24.24,28.86,1.08
4.6037,-10.161,-1.1169,-0.013439,-0.3992,0.40103,-23.46,29.64,1.08
4.699,-9.6432,-0.8717,-0.039706,-0.43799,0.17746,-23.04,29.94,1.08
4.4402,-8.9486,-0.65378,-0.056505,-0.40959,-0.024435,-22.62,30.24,1.2
3.732,-7.2869,-0.51757,-0.054978,-0.32681,-0.34331,-21.84,31.14,1.5
3.5549,-6.5786,-0.50395,-0.030849,-0.3091,-0.53481,-21.42,31.38,1.56
3.5004,-6.2245,-0.47671,0.0012217,-0.33353,-0.61453,-21.12,31.5,1.86
3.3097,-5.2166,-0.29965,0.072082,-0.42577,-0.79382,-20.82,32.04,1.86
3.2553,-4.9578,-0.31327,0.11484,-0.49999,-0.86926,-20.82,32.22,2.04
3.2553,-4.7671,-0.14982,0.15394,-0.60018,-0.89644,-21.0,32.22,2.22
3.1191,-5.2302,-0.027241,0.1689,-0.72815,-0.85246,-21.66,32.46,2.34
3.1191,-5.4618,-0.027241,0.16127,-0.73884,-0.80115,-22.14,32.34,2.34
3.051,-5.6661,0.068102,0.15241,-0.73059,-0.76633,-22.56,32.4,2.34
2.9556,-6.0202,-0.027241,0.10354,-0.63499,-0.68325,-22.98,32.4,2.28
2.9284,-7.1779,0.1362,0.053756,-0.5284,-0.63072,-24.06,32.46,2.04
2.9284,-8.1313,0.095342,-0.0015272,-0.39187,-0.54123,-24.54,32.7,1.98
3.0237,-10.324,0.1362,-0.075136,-0.22297,-0.42028,-25.62,32.7,1.68
3.3506,-11.278,0.28603,-0.13317,0.035125,-0.17685,-26.16,32.82,1.32
3.732,-11.986,0.23155,-0.11362,0.13408,-0.039401,-26.46,33.06,1.08
3.909,-12.163,0.12258,-0.054672,0.10812,0.051618,-26.88,33.0,0.9
4.413,-13.225,-0.50395,0.036957,-0.034819,0.1518,-27.48,33.18,0.48
4.4811,-13.947,-0.70826,0.11301,-0.23763,0.19792,-27.84,33.24,0.12
4.2223,-15.35,-0.55843,0.15516,-0.36591,0.22358,-27.96,33.3,0.06
3.7456,-15.786,-0.46309,0.11179,-0.22113,0.2587,-28.2,33.54,-0.48
3.5277,-15.514,-0.38137,0.030849,0.08094,0.30055,-28.32,33.6,-0.72
3.623,-14.901,-0.49033,-0.0027489,0.23976,0.34422,-28.2,33.84,-0.78
4.3585,-11.836,-1.4165,-0.0281,0.59162,0.49541,-28.2,33.78,-1.02
4.5901,-10.12,-2.0158,0.0061087,0.60903,0.47525,-28.26,33.84,-1.2
4.5356,-8.8396,-2.438,0.043982,0.42119,0.20525,-28.26,34.02,-1.44
4.0725,-8.8124,-2.2882,0.018937,0.25107,-0.043066,-28.2,34.02,-1.5
3.732,-9.0575,-1.9886,-0.047647,0.14997,-0.29932,-28.32,33.96,-1.44
3.5685,-8.9349,-1.7706,-0.096211,0.15241,-0.41844,-28.26,34.08,-1.44
3.4187,-8.6625,-1.6072,-0.21105,0.28894,-0.6072,-28.2,33.96,-1.26
3.4051,-8.5127,-1.7298,-0.28741,0.4047,-0.61728,-28.26,33.9,-1.14
3.5685,-7.9134,-1.7979,-0.34086,0.46792,-0.61758,-28.26,33.84,-1.14
3.4596,-6.6604,-1.9205,-0.35644,0.49266,-0.58918,-28.5,33.6,-1.02
3.3915,-5.9657,-1.7979,-0.35919,0.48411,-0.55986,-28.5,33.6,-0.84
3.3097,-5.5435,-1.7025,-0.35705,0.45876,-0.55467,-28.68,33.3,-0.84
3.0237,-4.7671,-1.5936,-0.35797,0.42761,-0.56505,-28.86,33.18,-0.72
3.0101,-4.7671,-1.5936,-0.38485,0.39218,-0.5507,-28.98,32.88,-0.6
2.9556,-4.8352,-1.471,-0.42058,0.37996,-0.52412,-29.22,32.58,-0.54
2.8058,-4.9442,-1.185,-0.47525,0.42302,-0.46395,-29.58,32.22,-0.36
2.8467,-5.38,-1.185,-0.50885,0.45296,-0.37415,-29.76,32.04,-0.36
3.3097,-7.5048,-0.98067,-0.56933,0.49144,0.0082467,-30.54,31.62,-0.48
3.3097,-7.5048,-0.98067,-0.56933,0.49144,0.0082467,-30.54,31.62,-0.48
3.3915,-7.9679,-1.0215,-0.56963,0.50793,0.10843,-30.66,31.68,-0.42
3.5277,-8.6217,-0.98067,-0.58032,0.55833,0.32529,-30.9,31.62,-0.48
3.6503,-9.7249,-0.92618,-0.56444,0.65088,0.54489,-31.08,31.38,-0.66
3.8001,-10.025,-0.85808,-0.51099,0.77122,0.77427,-31.08,31.2,-0.78
4.1814,-10.27,-0.96704,-0.37018,0.8207,1.0938,-31.08,31.38,-0.9
4.6037,-10.61,-1.185,-0.2474,0.72571,1.3332,-31.02,31.44,-0.84
4.8625,-11.822,-1.3484,-0.12828,0.51526,1.5934,-30.66,31.62,-0.78
5.5299,-13.375,-1.5663,-0.041539,0.24099,1.8476,-30.06,32.22,-0.96
5.7205,-13.934,-1.6208,0.011912,-0.015882,2.0522,-29.58,32.46,-0.9
5.6933,-13.607,-1.5391,0.022602,-0.19242,2.1389,-29.16,32.88,-0.9
5.6388,-12.272,-1.5391,0.023518,-0.40287,1.9477,-27.66,33.6,-1.08
5.4618,-11.346,-1.5663,0.037263,-0.53573,1.7168,-26.88,33.96,-1.08
5.2847,-10.91,-1.5663,0.063225,-0.65973,1.3897,-26.1,34.32,-1.08
5.0531,-10.025,-1.5936,0.091019,-0.7535,1.062,-24.24,35.22,-0.9
4.9578,-9.5479,-1.5255,0.10446,-0.77061,0.55803,-23.46,35.64,-0.72
4.6445,-8.7306,-1.0624,0.099266,-0.69486,0.22938,-21.66,36.78,-0.48
4.2904,-7.9815,-0.89894,0.08491,-0.59468,-0.047037,-20.82,37.2,-0.48
4.1814,-7.641,-0.89894,0.072388,-0.51435,-0.26817,-20.1,37.5,-0.36
3.9908,-6.5922,-0.61292,0.069028,-0.46059,-0.44288,-18.72,38.34,-0.24
3.909,-6.3062,-0.47671,0.081245,-0.44563,-0.58368,-18.06,38.52,-0.24
3.7184,-5.9112,-0.43585,0.0956,-0.45173,-0.7532,-17.7,38.7,0.12
3.3778,-5.6661,-0.31327,0.091324,-0.44807,-0.8097,-17.34,38.88,0.3
3.2553,-5.6116,-0.24517,0.1124,-0.38362,-0.95845,-17.4,38.82,0.6
3.1599,-5.6116,-0.12258,0.12065,-0.33903,-1.011,-17.64,39.0,0.6
3.2144,-6.3198,0.095342,0.12798,-0.30604,-1.0305,-18.3,39.0,0.66
3.1599,-6.8919,0.19068,0.12034,-0.30482,-1.0095,-18.78,38.7,0.66
3.1191,-7.4503,0.32689,0.10934,-0.27703,-0.95509,-19.26,38.82,0.54
3.2008,-8.6081,0.40861,0.10873,-0.21838,-0.8262,-20.58,38.34,0.24
3.2961,-9.3436,0.31327,0.13531,-0.2022,-0.71777,-21.24,38.22,0.06
3.5277,-10.174,0.24517,0.15944,-0.21533,-0.66493,-22.02,38.16,-0.12
3.8818,-11.182,0.068102,0.29505,-0.39828,-0.54,-22.74,37.86,-0.36
4.2359,-12.258,-0.55843,0.3879,-0.63561,-0.52809,-24.36,37.5,-1.2
4.2904,-13.198,-0.89894,0.45082,-0.85094,-0.51679,-25.14,37.44,-1.68
4.0725,-14.86,-1.5663,0.44868,-1.0183,-0.54123,-26.28,37.38,-2.34
3.2008,-15.377,-1.6344,0.34056,-1.113,-0.55711,-26.82,37.2,-2.76
2.5061,-15.677,-1.4301,0.16341,-1.022,-0.38423,-27.36,36.84,-3.0
1.58,-14.22,-1.0896,-0.14569,-0.48167,-0.018326,-28.26,36.54,-3.48
1.866,-12.803,-1.1441,-0.26725,-0.058643,0.20769,-28.8,36.6,-3.66
2.2474,-11.387,-1.5391,-0.31918,0.16493,0.36988,-29.1,36.36,-3.78
2.4925,-10.351,-2.0567,-0.3091,0.11484,0.46151,-29.4,36.36,-4.08
2.4789,-9.8066,-2.3155,-0.29871,-0.053756,0.46609,-29.76,35.94,-4.14
2.2882,-10.188,-2.0158,-0.32254,-0.1744,0.39798,-29.82,35.7,-4.02
2.2474,-10.188,-1.4846,-0.46059,-0.065363,0.21777,-29.88,35.76,-3.78
1.9613,-8.9894,-0.99429,-0.52382,0.27672,0.10446,-29.82,35.4,-3.18
2.1656,-8.3901,-1.185,-0.54703,0.68997,0.024129,-29.76,35.34,-2.88
2.4789,-7.7636,-1.3893,-0.45937,0.97983,-0.093768,-29.82,35.1,-2.64
2.8058,-6.5922,-1.6344,-0.40103,0.95631,-0.12034,-29.76,34.86,-2.34
2.9829,-5.8159,-1.6072,-0.27367,0.66737,-0.13989,-29.52,34.8,-1.74
3.0237,-5.4481,-1.4574,-0.24862,0.4218,-0.15272,-29.34,34.8,-1.56
2.7786,-5.2575,-1.3484,-0.24099,0.29291,-0.16982,-29.1,34.62,-1.32
2.3972,-5.094,-1.185,-0.26878,0.3149,-0.18967,-28.5,34.38,-0.9
2.3155,-4.8761,-1.1577,-0.33384,0.47892,-0.17685,-28.32,34.2,-0.6
2.2337,-4.9714,-1.076,-0.35491,0.54489,-0.15516,-27.84,34.08,-0.24
2.2746,-5.2575,-0.89894,-0.41447,0.68814,-0.046426,-27.66,33.96,-0.24
2.3699,-5.5299,-0.76274,-0.42333,0.71746,0.011606,-27.54,33.84,-0.18
2.6015,-6.279,-0.8036,-0.43952,0.75381,0.22144,-27.42,33.84,-0.12
3.0373,-8.1722,-0.84446,-0.4273,0.7532,0.39523,-27.24,33.72,-0.24
3.3097,-9.1529,-0.70826,-0.35583,0.81001,0.65454,-27.12,33.72,-0.36
3.6775,-10.161,-0.96704,-0.32193,0.82833,0.72876,-26.64,33.84,-0.72
4.1951,-10.692,-0.96704,-0.16127,0.81245,0.94684,-26.52,33.84,-0.84
4.3858,-10.883,-1.1032,-0.022297,0.72204,1.0492,-26.28,33.84,-0.9
4.522,-10.692,-1.2667,0.14019,0.55528,1.1237,-25.98,34.02,-1.08
4.8761,-10.474,-1.7434,0.28986,0.36163,1.1857,-25.44,34.32,-1.5
5.1076,-10.869,-2.0703,0.43738,-0.015882,1.2376,-24.96,34.68,-1.74
5.5299,-12.572,-2.3155,0.44563,-0.13317,1.2425,-24.54,34.86,-1.92
5.5571,-13.266,-2.3427,0.38576,-0.31521,1.2031,-23.58,35.46,-2.16
5.4618,-13.443,-2.152,0.34392,-0.30177,1.1716,-22.92,35.7,-2.46
5.3256,-13.144,-2.0567,0.1799,-0.065973,0.9612,-22.26,35.94,-2.76
5.3392,-11.727,-1.9886,0.13073,0.062919,0.75992,-20.76,36.42,-3.3
5.4073,-11.359,-1.9886,0.14325,0.0024435,0.35675,-20.1,36.54,-3.48
5.5162,-10.052,-2.0839,0.15791,-0.081856,0.23702,-19.44,36.78,-3.72
5.3528,-9.2891,-1.8932,0.21289,-0.34514,-0.010079,-18.06,37.38,-3.96
5.0395,-8.7306,-1.6344,0.2529,-0.78893,-0.36469,-17.58,37.44,-4.26
4.808,-8.5808,-1.5255,0.24374,-0.91966,-0.5846,-17.1,37.62,-4.44
3.9771,-8.1586,-1.0624,0.17868,-0.86193,-0.8039,-16.32,37.68,-4.44
3.5958,-7.6274,-0.92618,0.12065,-0.58918,-1.1029,-16.2,37.56,-4.5
3.3097,-6.5514,-0.61292,0.07086,-0.49083,-1.1811,-15.84,37.2,-4.68
3.2008,-6.1292,-0.64016,0.034514,-0.34331,-1.3265,-15.9,37.02,-4.74
3.1599,-5.9793,-0.44947,0.017715,-0.24129,-1.4413,-16.2,36.66,-4.68
3.0918,-6.0611,-0.27241,0.017715,-0.22358,-1.4914,-17.16,35.94,-4.62
2.942,-5.9793,-0.1362,0.02138,-0.2306,-1.4896,-17.7,35.64,-4.56
2.9284,-6.4969,0.01362,0.030849,-0.26206,-1.4245,-19.02,34.92,-4.74
2.9284,-6.8919,0.19068,0.048258,-0.30391,-1.3231,-19.86,34.44,-5.04
2.9829,-7.1234,0.14982,0.072388,-0.33353,-1.2028,-20.76,33.9,-5.22
3.0782,-7.6138,0.19068,0.086132,-0.34911,-1.1225,-21.66,33.48,-5.46
3.1191,-8.2539,0.19068,0.14783,-0.43921,-0.8543,-23.46,32.7,-6.42
3.2144,-9.0848,0.095342,0.2022,-0.53909,-0.64966,-24.42,32.4,-6.9
3.3097,-9.8748,0.027241,0.25717,-0.64935,-0.42333,-25.2,32.16,-7.26
3.5413,-11.305,0.01362,0.34025,-0.78741,-0.073915,-26.82,31.86,-8.16
3.6775,-11.754,-0.10896,0.36316,-0.83841,0.034819,-27.42,31.62,-8.76
3.8682,-12.136,-0.39499,0.41233,-0.95509,0.21991,-27.9,31.5,-9.24
3.8546,-13.089,-0.74912,0.37507,-1.0568,0.42699,-28.56,31.26,-9.9
3.6366,-13.879,-0.92618,0.25443,-1.004,0.48564,-28.8,31.32,-10.2
3.3642,-14.724,-0.70826,-0.055283,-0.64202,0.62644,-28.98,31.26,-10.68
3.2144,-15.228,-0.43585,-0.29047,-0.24404,0.71532,-28.92,31.26,-10.86
3.0646,-14.451,-0.50395,-0.49724,0.21228,0.78343,-28.8,31.32,-10.8
2.9692,-13.116,-0.7355,-0.60201,0.60567,0.78252,-28.68,31.38,-10.8
2.9965,-11.182,-1.5663,-0.58002,0.81123,0.67348,-28.32,31.38,-10.32
3.0646,-9.9973,-1.7979,-0.50091,0.79871,0.47098,-28.02,31.44,-10.14
2.9692,-9.6432,-1.9477,-0.39951,0.61178,0.30055,-27.78,31.5,-9.96
2.8467,-9.4798,-1.58,-0.33567,0.44899,0.14966,-27.24,31.5,-9.36
2.9556,-9.112,-1.5527,-0.29413,0.36805,0.11515,-27.0,31.5,-9.0
2.9284,-8.6081,-1.4982,-0.29108,0.38149,0.11545,-26.7,31.5,-8.64
2.8603,-7.2324,-1.5936,-0.24954,0.47037,0.18051,-26.1,31.26,-8.04
2.9148,-6.4152,-1.866,-0.20892,0.50274,0.21747,-25.68,31.14,-7.74
3.0237,-5.7205,-1.9613,-0.15577,0.50977,0.23243,-25.38,31.02,-7.44
3.2689,-4.985,-1.9341,-0.14752,0.39065,0.22297,-24.78,31.2,-6.72
3.2825,-4.7671,-1.8932,-0.17959,0.3317,0.20097,-24.3,31.2,-6.36
3.2008,-4.5083,-1.7706,-0.19792,0.32284,0.16463,-23.94,31.26,-6.12
3.1463,-4.3449,-1.6617,-0.26909,0.37263,0.094684,-23.52,31.38,-5.82
3.0918,-4.5492,-1.5391,-0.31643,0.45173,0.064752,-22.68,31.32,-5.34
3.2008,-4.8761,-1.5119,-0.35491,0.52382,0.049175,-22.44,31.2,-5.22
3.3506,-5.1894,-1.2667,-0.39034,0.59682,0.045509,-21.9,31.2,-5.04
3.6366,-6.5105,-1.2531,-0.42272,0.65729,0.1014,-21.3,31.44,-4.74
3.7047,-7.246,-1.2803,-0.42699,0.69394,0.1744,-21.0,31.56,-4.5
3.8273,-8.0224,-1.2395,-0.42302,0.72418,0.28161,-20.64,31.74,-4.38
4.2223,-9.3436,-1.362,-0.39004,0.7251,0.39828,-20.04,32.28,-4.38
4.4539,-10.324,-1.4438,-0.33048,0.71532,0.51404,-19.86,32.46,-4.38
4.7944,-10.869,-1.6481,-0.24496,0.66248,0.61728,-19.38,32.4,-4.44
4.8625,-11.155,-1.8115,-0.13011,0.56994,0.68356,-18.84,32.7,-4.74
4.9987,-11.223,-1.8524,0.091935,0.3711,0.74862,-18.42,32.88,-4.86
4.9578,-11.223,-1.9477,0.21869,0.24068,0.74678,-18.0,32.88,-5.04
4.9714,-12.04,-2.1112,0.32132,0.14111,0.77274,-17.16,33.24,-5.22
5.1213,-12.599,-2.1793,0.37874,0.048869,0.82589,-16.68,33.36,-5.22
5.3119,-13.253,-2.0431,0.37751,-0.063225,0.91263,-16.32,33.54,-5.28
5.7478,-13.225,-1.8796,0.33139,-0.1909,0.96303,-15.3,33.9,-5.58
5.4754,-11.931,-1.7706,0.33628,-0.32467,0.80756,-14.82,33.96,-5.82
5.3392,-10.692,-1.7706,0.36224,-0.41753,0.70372,-14.34,34.26,-6.12
5.1894,-9.9565,-1.8115,0.47128,-0.91599,0.39828,-13.74,34.26,-6.24
5.0804,-8.9758,-1.9341,0.54,-1.3018,0.17043,-12.6,34.56,-6.48
4.9033,-8.6625,-1.866,0.53939,-1.5284,-0.070555,-12.18,34.68,-6.48
3.9499,-8.9622,-1.185,0.44593,-1.5296,-0.28466,-11.34,34.8,-6.54
3.3506,-8.6489,-0.8036,0.20892,-1.0989,-0.65637,-11.1,34.92,-6.6
3.0373,-8.2131,-0.55843,0.13531,-0.88514,-0.76328,-10.8,35.04,-6.66
3.0237,-7.1507,-0.28603,-0.02474,-0.27122,-0.98441,-10.38,35.04,-6.78
2.9829,-6.6876,0.027241,-0.059254,0.036041,-1.1099,-10.38,35.04,-6.84
2.7922,-6.4833,0.47671,-0.03146,0.24618,-1.2376,-10.38,34.92,-6.78
2.4789,-6.3198,1.076,0.1295,0.3653,-1.449,-10.8,34.5,-6.78
2.4244,-6.2245,1.0215,0.20006,0.33781,-1.5247,-11.16,34.32,-6.9
2.4653,-6.1836,1.0351,0.38332,0.12828,-1.6741,-11.64,34.08,-6.9
2.3155,-6.2245,1.1169,0.46548,-0.0097738,-1.664,-12.36,34.02,-6.96
2.1112,-6.2654,1.4165,0.52412,-0.092546,-1.5174,-13.8,33.6,-7.26
2.3155,-6.6059,1.4301,0.55161,-0.1576,-1.2828,-14.58,33.48,-7.44
2.5879,-7.5184,1.0624,0.52015,-0.24312,-0.79229,-16.26,32.88,-8.22
2.833,-8.3084,0.96704,0.47861,-0.31307,-0.41172,-17.04,32.64,-8.58
3.051,-9.6023,0.62654,0.44471,-0.3769,-0.046426,-17.94,32.46,-8.94
3.2961,-10.188,0.51757,0.41325,-0.42913,0.10629,-18.84,32.22,-9.48
3.3097,-11.536,0.16344,0.36927,-0.46059,0.47312,-20.52,31.98,-10.56
3.2553,-12.095,0.12258,0.34208,-0.38026,0.6072,-21.18,31.86,-11.22
3.4459,-13.702,-0.44947,0.20586,-0.25565,0.68661,-22.08,31.68,-12.24
3.732,-14.669,-0.31327,0.062919,-0.1686,0.84635,-22.38,31.68,-12.6
3.9499,-15.023,-0.27241,-0.11209,-0.092241,1.0525,-22.62,31.62,-12.96
4.127,-15.35,-0.054481,-0.29169,0.041844,1.3268,-22.68,31.56,-13.32
4.5764,-15.554,-0.14982,-0.43616,0.23549,1.6075,-22.56,31.62,-13.8
4.7263,-14.71,-0.50395,-0.5061,0.38668,1.7559,-22.26,31.68,-13.98
4.808,-13.375,-1.3484,-0.49205,0.41905,1.7422,-21.42,31.98,-13.74
4.5764,-10.733,-1.7706,-0.42089,0.34483,1.5253,-20.76,32.28,-13.62
3.909,-10.052,-1.9341,-0.35827,0.026267,0.89431,-20.1,32.46,-13.2
3.4323,-10.283,-1.757,-0.42364,-0.0054978,0.49572,-19.2,32.7,-12.72
2.6015,-10.488,-0.7355,-0.52473,0.32376,0.14844,-17.52,33.06,-11.94
2.5879,-9.7249,-0.54481,-0.64171,0.88026,-0.14203,-16.8,33.3,-11.46
2.9692,-8.1722,-0.78998,-0.68081,1.281,-0.27611,-16.02,33.54,-10.86
2.9692,-6.9055,-0.96704,-0.62736,1.4218,-0.37904,-14.52,34.2,-10.2
2.9829,-6.3335,-1.1713,-0.53603,1.3237,-0.46365,-13.86,34.38,-9.84
2.9556,-5.5707,-1.2803,-0.39095,0.86285,-0.5397,-13.14,34.56,-9.42
2.7649,-4.9033,-1.1032,-0.35461,0.58002,-0.55222,-12.24,34.98,-8.76
2.4517,-4.8352,-0.92618,-0.35675,0.45265,-0.56536,-11.94,35.1,-8.46
2.4244,-4.8488,-0.91256,-0.38698,0.46884,-0.60506,-11.64,35.52,-8.16
2.2201,-5.0531,-0.9398,-0.4554,0.62247,-0.5904,-11.52,35.52,-7.8
2.3427,-5.2166,-0.85808,-0.48075,0.68325,-0.57788,-11.58,35.64,-7.74
2.5606,-5.6116,-0.96704,-0.51404,0.79168,-0.5455,-11.82,35.64,-7.62
3.0373,-6.6195,-0.96704,-0.53878,0.8378,-0.43768,-12.12,35.82,-7.5
3.1872,-7.355,-0.89894,-0.53451,0.82558,-0.32009,-12.3,35.88,-7.5
3.2416,-7.9134,-0.92618,-0.51038,0.85888,-0.078496,-12.9,36.0,-7.2
3.6094,-9.0439,-0.99429,-0.48197,0.92393,0.0956,-13.02,35.94,-7.2
3.7728,-9.3436,-1.0896,-0.46853,0.96211,0.18509,-13.26,36.0,-7.08
3.8954,-9.4934,-1.076,-0.43799,1.0742,0.37538,-13.56,36.18,-7.08
3.9363,-9.6568,-0.84446,-0.33598,1.3277,0.64263,-13.44,36.3,-7.2
4.1814,-9.6977,-0.92618,-0.24618,1.4673,0.84635,-13.38,36.48,-7.14
4.6718,-10.188,-0.99429,-0.14722,1.398,1.0919,-13.26,36.42,-7.14
6.1836,-12.258,-1.2122,-0.044899,0.76389,1.5678,-12.9,37.02,-7.02
6.7148,-12.994,-1.3212,-0.024435,0.44196,1.7257,-12.42,37.26,-7.14
7.6002,-14.043,-1.3484,-0.011912,-0.24282,1.923,-12.06,37.5,-7.14
7.0009,-13.484,-1.3076,0.02474,-1.102,1.7178,-11.04,37.92,-7.2
6.1564,-12.64,-1.3484,0.068111,-1.4016,1.3418,-10.38,38.16,-7.14
5.3664,-11.686,-1.5527,0.13744,-1.4529,0.81306,-9.66,38.4,-7.14
4.4402,-10.134,-1.471,0.19853,-1.2178,-0.026267,-8.34,39.12,-7.08
4.2632,-9.9973,-1.1986,0.18265,-0.94195,-0.45754,-7.74,39.48,-6.96
4.3177,-9.8748,-0.96704,0.16677,-0.80176,-0.6353,-7.02,39.54,-6.84
4.2359,-9.1256,-0.53119,0.12126,-0.50671,-1.0055,-6.6,39.78,-6.78
3.9363,-8.1177,-0.16344,0.095906,-0.42119,-1.1249,-6.24,40.2,-6.72
3.7047,-7.4095,-0.027241,0.084299,-0.39767,-1.1973,-6.12,40.38,-6.54
3.4323,-6.1564,0.068102,0.10782,-0.40134,-1.2703,-6.06,40.5,-6.48
3.3097,-5.489,0.14982,0.16218,-0.48533,-1.3289,-6.78,40.56,-6.3
3.1327,-5.2575,0.23155,0.22877,-0.59529,-1.3387,-7.14,40.5,-6.18
3.0646,-5.1894,0.24517,0.25443,-0.66218,-1.3344,-7.74,40.5,-6.06
3.0101,-5.203,0.32689,0.32498,-0.83994,-1.3088,-9.78,40.32,-5.94
2.8739,-5.5162,0.47671,0.35308,-0.90408,-1.2575,-10.8,39.96,-6.06
2.7649,-6.4424,0.51757,0.32223,-0.94684,-1.106,-13.2,39.42,-6.18
2.7241,-6.9736,0.47671,0.27703,-0.91355,-0.97738,-14.4,39.18,-6.42
2.8058,-7.3141,0.35413,0.22113,-0.86101,-0.8262,-15.66,39.12,-6.72
2.8739,-7.6002,0.39499,0.20281,-0.83169,-0.73762,-16.92,38.88,-6.9
2.9556,-8.0224,0.27241,0.12462,-0.76877,-0.42883,-18.12,38.58,-7.08
3.0646,-9.0575,0.21793,0.081856,-0.71135,-0.21594,-20.34,38.28,-7.5
3.1735,-9.4798,0.21793,0.036041,-0.67073,0.0073304,-21.36,38.22,-7.74
3.8954,-11.536,-0.31327,-0.044899,-0.71899,0.25656,-22.2,38.04,-8.1
4.0044,-12.163,-0.25879,-0.21411,-0.69425,0.58063,-23.88,38.1,-8.52
4.1814,-12.286,-0.14982,-0.27642,-0.63255,0.66187,-24.48,38.04,-8.7
4.3858,-12.354,-0.29965,-0.40592,-0.3934,0.8717,-24.96,38.04,-8.82
4.7671,-12.708,-0.85808,-0.40256,-0.25901,1.0192,-25.74,38.46,-9.12
4.8488,-13.321,-0.99429,-0.33995,-0.24557,1.2193,-25.92,38.7,-9.12
5.4754,-13.961,-1.362,-0.20647,-0.31398,1.2926,-26.16,39.24,-8.94
5.8567,-13.471,-1.5119,-0.036652,-0.53634,1.4163,-26.16,39.3,-8.52
6.0883,-12.476,-1.4165,0.21472,-1.0589,1.4926,-25.92,39.54,-8.34
5.8023,-9.7113,-1.7025,0.33811,-1.3894,1.3271,-25.44,39.9,-7.62
5.3256,-8.7443,-1.6072,0.38454,-1.598,0.95417,-25.2,40.2,-7.38
4.6309,-8.2812,-1.2258,0.34819,-1.6564,0.48533,-24.84,40.38,-6.96
3.5413,-8.4719,-0.47671,0.22633,-1.4044,-0.1686,-24.12,40.74,-5.82
3.3642,-8.6489,-0.31327,0.11912,-1.0779,-0.53939,-23.82,40.92,-5.28
3.4323,-8.8396,-0.46309,0.032681,-0.71777,-0.82161,-23.64,41.1,-4.74
3.7592,-9.4389,0.068102,-0.010079,-0.41264,-0.99205,-23.34,41.16,-3.72
3.8001,-9.4798,0.25879,-0.0033598,-0.22327,-1.0934,-23.22,41.28,-3.18
3.8682,-9.3436,0.29965,0.062308,-0.14813,-1.157,-23.28,41.16,-2.64
4.018,-8.4174,0.32689,0.16218,-0.33842,-1.2162,-23.4,41.04,-1.62
4.0452,-7.9679,0.31327,0.37721,-0.60506,-1.2526,-23.7,40.74,-1.32
4.018,-7.2869,0.38137,0.45448,-0.7703,-1.2669,-24.06,40.44,-0.9
3.8954,-6.7421,0.14982,0.62827,-1.2611,-1.2926,-24.9,39.84,-0.36
3.6094,-6.7285,0.19068,0.71288,-1.471,-1.3134,-25.38,39.36,-0.06
3.4732,-6.6059,0.1362,0.74587,-1.5449,-1.3366,-26.1,39.0,0.06
3.1599,-6.5241,0.24517,0.73212,-1.5192,-1.3839,-27.78,38.04,0.36
3.0237,-6.5922,0.35413,0.69883,-1.4206,-1.3891,-28.62,37.32,0.42
2.9965,-6.674,0.32689,0.66096,-1.2813,-1.3867,-29.58,36.78,0.54
3.0237,-7.355,0.35413,0.63835,-1.1527,-1.3332,-31.32,35.64,0.84
3.1327,-7.7636,0.31327,0.61758,-1.0595,-1.2565,-32.22,34.92,0.96
3.2416,-8.1041,0.24517,0.62247,-0.99602,-1.153,-33.06,34.38,1.14
3.337,-8.4719,0.29965,0.65088,-0.98685,-0.94837,-34.74,32.82,1.38
3.4187,-8.5127,0.43585,0.72296,-1.0305,-0.7645,-35.58,32.22,1.62
3.5413,-8.4855,0.19068,0.74556,-1.0544,-0.66859,-36.3,31.5,1.86
3.6775,-8.4174,-0.095342,0.82833,-1.1716,-0.37141,-37.26,30.84,1.92
4.1542,-8.6489,-0.55843,0.86957,-1.3118,-0.17379,-38.58,29.82,2.34
4.3177,-8.7306,-0.83084,0.85307,-1.471,-0.007025,-39.24,29.16,2.64
4.1814,-8.5536,-0.96704,0.81215,-1.5699,0.092852,-40.32,28.32,3.3
4.1814,-8.5536,-0.96704,0.73212,-1.5317,0.12034,-40.32,28.32,3.3
3.8409,-8.3901,-1.0215,0.64568,-1.3222,0.10201,-40.68,27.9,3.78
3.3506,-8.0224,-0.89894,0.54764,-0.8491,0.073304,-41.04,27.06,4.62
3.6094,-8.2676,-0.99429,0.50824,-0.60751,0.14264,-41.22,26.76,5.16
4.2904,-8.1995,-0.96704,0.47464,-0.53023,0.24771,-41.46,26.28,5.82
4.3721,-8.0496,-1.0215,0.46517,-0.5733,0.4441,-41.46,26.34,6.18
4.3313,-7.9815,-0.89894,0.46029,-0.58429,0.50366,-41.52,26.28,6.6
4.2768,-7.8998,-0.92618,0.46395,-0.5904,0.57208,-41.4,26.28,7.32
4.0589,-7.927,-0.84446,0.45448,-0.5791,0.61789,-41.1,26.58,7.92
3.9635,-8.1586,-0.74912,0.44043,-0.51465,0.68539,-40.86,26.64,8.28
4.0725,-8.7034,-0.57205,0.43402,-0.45326,0.72601,-40.56,27.06,8.94
4.4266,-9.1256,-0.57205,0.42119,-0.45571,0.87384,-40.14,27.36,9.12
4.7944,-9.0167,-0.70826,0.37263,-0.53939,1.1075,-39.18,28.02,9.6
4.8352,-9.7385,-0.5993,0.37263,-0.57544,1.1839,-38.82,28.5,9.6
5.0395,-10.842,-0.50395,0.32437,-0.64874,1.4752,-38.52,29.1,9.66
5.3528,-11.414,-0.38137,0.29596,-0.74098,1.5745,-37.98,29.64,9.78
5.5026,-11.509,0.054481,0.29719,-0.84513,1.6338,-36.9,30.78,10.14
5.9112,-11.196,0.095342,0.35949,-1.0281,1.6631,-36.24,31.44,10.26
6.4288,-10.665,-0.095342,0.53756,-1.774,1.5663,-35.58,31.98,10.38
7.1234,-9.6432,-0.46309,0.61239,-2.1707,1.5049,-34.02,33.48,10.74
7.3822,-9.6432,-0.32689,0.74526,-3.0641,1.3668,-33.12,34.02,10.8
7.246,-9.8611,-0.19068,0.82436,-4.1872,1.0467,-32.34,34.8,11.22
6.2517,-10.447,0.34051,0.78069,-4.4779,0.72418,-30.12,36.6,12.06
5.6388,-10.597,0.61292,0.63927,-4.3643,0.36011,-29.16,37.14,12.6
4.8352,-10.597,1.1986,0.47281,-3.9505,-0.026267,-26.94,38.46,13.68
3.3915,-10.869,1.5663,0.19945,-3.0024,-0.55986,-25.8,39.0,14.28
3.1327,-10.924,1.7298,0.036346,-2.3637,-0.89278,-24.6,39.3,15.0
2.9556,-10.828,1.7706,-0.077885,-1.836,-1.1686,-23.7,39.6,15.66
2.9284,-10.161,1.5663,-0.13928,-1.445,-1.3992,-21.84,40.08,16.92
3.2144,-9.7249,1.5119,-0.16188,-1.2456,-1.627,-21.18,40.26,17.7
3.1463,-9.2482,1.975,-0.15302,-1.1078,-1.7724,-20.52,40.44,18.6
2.9011,-8.8532,2.2746,-0.13531,-0.93432,-1.8024,-19.68,40.38,19.98
2.7513,-8.6081,2.4653,-0.15394,-0.86712,-1.7648,-19.38,40.32,20.88
2.7377,-8.6762,2.5606,-0.20464,-0.83017,-1.6426,-19.32,40.08,21.54
2.6423,-8.7987,2.6151,-0.27214,-0.80756,-1.5119,-19.38,39.6,22.08
2.6423,-9.1529,2.5879,-0.34544,-0.73945,-1.3854,-19.92,38.64,23.28
2.6015,-9.2618,2.4108,-0.40103,-0.55619,-1.2046,-20.34,38.04,23.76
2.6423,-9.0031,1.9613,-0.41203,-0.47586,-1.153,-21.3,36.9,24.78
2.7649,-9.0439,1.8387,-0.37507,-0.35644,-1.0617,-21.96,36.42,25.26
2.833,-9.0712,1.8524,-0.24771,-0.35797,-0.94806,-22.62,35.88,25.56
3.051,-9.2482,1.6208,-0.15058,-0.44532,-0.90011,-23.82,34.62,26.22
3.0646,-9.6704,1.4574,-0.047342,-0.55741,-0.85032,-24.48,34.02,26.64
2.9011,-10.869,1.3757,0.023518,-0.56627,-0.58918,-25.56,32.88,27.12
2.9284,-12.599,1.185,0.047647,-0.36621,-0.405,-25.98,32.28,27.24
3.0782,-11.21,1.0351,0.097128,-0.13531,-0.27153,-26.58,31.74,27.36
3.3097,-10.42,0.8717,0.22205,-0.049175,0.0085521,-26.82,31.14,27.54
4.0589,-9.3163,0.19068,0.42119,-0.23457,0.23732,-27.18,30.78,27.78
4.3721,-7.641,-0.31327,0.66615,-0.68539,0.34331,-27.48,30.3,27.96
4.6037,-6.6195,-1.0215,0.99174,-1.419,0.39126,-27.78,29.82,28.02
4.3177,-7.069,-1.1577,1.1194,-1.8173,0.30207,-27.84,29.76,28.2
4.2087,-7.641,-1.1577,1.1371,-1.9465,0.2306,-27.84,29.7,28.38
3.8409,-8.2267,-1.1305,1.0861,-1.9044,-0.022907,-27.66,29.7,28.44
3.2825,-9.3436,-0.9398,0.97983,-1.5577,-0.14203,-27.0,29.82,28.62
3.2689,-9.7794,-0.84446,0.88148,-1.1325,-0.17807,-26.52,30.06,28.8
3.7047,-9.8066,-1.0624,0.77427,-0.74953,-0.1857,-25.92,30.3,28.86
4.2359,-8.9894,-1.2258,0.73059,-0.61575,-0.16249,-24.9,30.6,28.8
4.4811,-8.7034,-1.4438,0.74587,-0.78069,-0.12737,-24.48,30.9,28.86
4.5764,-8.7034,-1.6344,0.78313,-1.0522,-0.12187,-23.88,31.14,28.74
4.3585,-8.7851,-1.6072,0.80268,-1.263,-0.12248,-22.74,31.92,28.56
4.1542,-8.9486,-1.6072,0.8097,-1.3598,-0.13683,-22.02,32.4,28.38
4.0044,-9.112,-1.5663,0.77213,-1.3763,-0.15516,-21.36,32.7,28.38
3.9908,-9.2346,-1.6889,0.68936,-1.3494,-0.13653,-20.34,33.12,27.96
4.0589,-9.3163,-1.6617,0.65027,-1.3512,-0.10812,-19.8,33.42,27.78
3.9908,-9.3163,-1.5936,0.55986,-1.3366,-0.038179,-19.26,33.66,27.48
4.018,-9.3436,-1.4574,0.41325,-1.2709,0.10324,-18.3,34.14,27.12
4.0589,-9.1801,-1.3212,0.32681,-1.244,0.21411,-17.94,34.2,26.94
4.0725,-8.9758,-1.3757,0.26573,-1.2465,0.31612,-17.52,34.44,26.7
4.1542,-8.5808,-1.362,0.19181,-1.3277,0.44288,-16.62,34.92,26.4
4.1406,-8.322,-1.2803,0.17287,-1.3635,0.47617,-16.14,35.16,26.22
4.1678,-8.2539,-1.2258,0.14508,-1.4303,0.52748,-15.48,35.52,26.04
4.0316,-8.1995,-1.1577,0.087659,-1.4426,0.56444,-14.46,35.76,25.92
3.909,-8.3493,-0.96704,0.050702,-1.3683,0.57177,-13.92,35.94,25.98
3.909,-8.717,-0.85808,0.0030543,-1.2495,0.56444,-13.38,36.12,25.86
4.0316,-9.5479,-0.74912,-0.039706,-0.98777,0.56261,-11.88,36.42,26.04
4.0725,-10.025,-0.72188,-0.048258,-0.88698,0.58643,-11.22,36.54,25.86
4.2495,-10.529,-0.57205,-0.018021,-0.62919,0.67042,-10.5,36.6,25.86
4.3449,-10.896,-0.64016,0.025962,-0.56261,0.7645,-9.72,36.66,25.8
5.3119,-12.885,-0.72188,0.076664,-0.63591,0.91385,-8.28,36.96,25.62
5.9657,-14.07,-0.81722,0.12492,-0.81825,1.0153,-7.68,37.08,25.5
6.3743,-14.492,-0.70826,0.19151,-1.0519,0.98197,-6.18,37.26,25.5
6.0066,-12.217,-0.61292,0.29902,-1.4804,0.50977,-5.28,37.14,25.38
5.5162,-11.605,-0.40861,0.36927,-1.7816,0.038179,-4.5,37.14,25.38
4.9306,-11.305,-0.068102,0.39859,-1.9102,-0.20433,-3.6,37.14,25.32
4.0997,-10.924,0.040861,0.43035,-2.0418,-0.95723,-2.82,37.2,25.14
3.5822,-10.719,-0.054481,0.39065,-1.8222,-1.3659,-1.56,37.2,24.66
3.4868,-10.869,0.10896,0.32742,-1.2489,-1.8182,-1.02,37.08,24.36
3.1735,-10.815,0.50395,0.26878,-1.0559,-1.9377,-0.24,37.02,23.82
3.0646,-10.243,0.72188,0.22938,-0.68661,-2.1484,-0.06,37.02,23.64
3.1054,-9.8066,0.8036,0.27886,-0.4163,-2.3619,0.12,36.84,23.34
3.1191,-8.6081,0.91256,0.35766,-0.43982,-2.4493,0.12,36.42,22.62
3.0101,-8.1586,0.85808,0.43982,-0.53054,-2.47,-0.18,36.12,22.32
2.9284,-7.7908,0.8036,0.52748,-0.67256,-2.4847,-0.54,35.94,21.9
2.7649,-7.355,0.50395,0.60201,-0.79626,-2.4435,-1.62,35.58,21.0
2.7649,-6.8647,0.24517,0.6692,-0.84391,-2.277,-2.46,35.28,20.46
2.6423,-6.5105,0.12258,0.65851,-0.90042,-2.1585,-3.3,35.1,19.86
2.3563,-6.0883,0.25879,0.62186,-0.89858,-1.9823,-4.98,34.38,18.6
2.2882,-5.9521,0.44947,0.58796,-0.85094,-1.7627,-5.88,34.08,18.0
2.1929,-5.7069,0.32689,0.51557,-0.7367,-1.3549,-7.44,33.72,16.62
2.3291,-6.6059,0.10896,0.44746,-0.67042,-1.0067,-8.22,33.66,15.96
2.5606,-7.246,0.054481,0.37507,-0.6072,-0.68356,-8.88,33.48,15.3
2.5606,-7.4776,0.12258,0.31673,-0.52565,-0.35064,-9.48,33.24,14.7
3.0237,-9.2346,-0.095342,0.28283,-0.45235,0.01741,-10.56,33.06,13.86
3.3778,-10.052,-0.1362,0.27092,-0.41142,0.35827,-10.86,32.88,13.2
3.5958,-10.678,-0.29965,0.2865,-0.44563,0.6521,-11.1,32.76,12.72
3.9908,-11.605,-0.62654,0.33048,-0.61087,1.0379,-11.04,32.64,12.0
4.1542,-12.231,-0.88532,0.33139,-0.76114,1.2798,-10.8,32.64,11.7
4.2087,-12.83,-1.0079,0.32437,-0.832,1.3897,-10.68,32.58,11.46
4.0997,-15.895,-0.72188,0.208,-0.84819,1.7257,-10.2,32.82,11.04
3.909,-16.658,-0.49033,0.077274,-0.60995,1.8912,-9.84,33.06,10.86
3.8273,-16.385,-0.46309,-0.079107,-0.21472,2.0269,-9.3,33.12,10.74
4.3449,-13.648,-1.3893,-0.23243,0.36194,2.2132,-8.28,33.12,10.92
4.8625,-11.645,-2.4789,-0.23579,0.5565,2.1808,-7.68,33.12,10.8
5.0259,-10.992,-2.9284,-0.23152,0.58949,2.102,-6.96,33.24,10.8
4.985,-10.474,-3.0237,-0.22419,0.42822,1.69,-5.58,33.48,10.8
4.6854,-10.188,-2.7241,-0.22785,0.29077,1.3167,-4.86,33.66,10.92
4.3858,-9.5206,-2.438,-0.24771,0.24557,0.905,-4.08,33.72,11.04
3.7456,-8.3629,-2.152,-0.2416,0.43555,0.42852,-2.88,33.78,11.34
3.5958,-7.9134,-2.2882,-0.23763,0.55314,0.3317,-2.34,33.84,11.58
3.8137,-7.355,-2.2746,-0.23854,0.75228,0.20739,-1.62,33.78,11.76
4.0861,-6.1564,-2.1384,-0.2248,0.77916,0.1628,-0.3,33.66,12.42
3.9635,-5.7342,-2.0294,-0.23121,0.71257,0.18143,0.24,33.6,12.66
3.8137,-5.1894,-1.7843,-0.281,0.64843,0.16005,0.78,33.48,12.9
3.2825,-4.2495,-1.4438,-0.354,0.64202,0.089492,1.56,33.36,13.62
3.0918,-4.0861,-1.3076,-0.40745,0.69578,0.047647,1.92,33.48,14.04
3.051,-4.1814,-1.2939,-0.45051,0.78893,0.0073304,2.1,33.54,14.4
3.2144,-4.7399,-1.1169,-0.4612,0.87262,-0.017715,2.4,33.42,15.12
3.3097,-5.1485,-1.185,-0.48319,0.92424,-0.016493,2.64,33.36,15.48
3.4459,-5.775,-1.1169,-0.49602,0.93065,0.021686,2.76,33.42,15.72
3.8682,-7.6683,-1.2667,-0.48991,0.88789,0.14203,3.0,33.42,16.26
3.9771,-8.8941,-1.185,-0.46701,0.90591,0.26634,3.12,33.42,16.5
4.0589,-9.5751,-1.2531,-0.45112,0.91783,0.31979,3.12,33.54,16.68
4.413,-10.379,-1.3893,-0.33353,0.89889,0.47953,2.94,33.42,17.16
4.6037,-10.365,-1.5255,-0.19181,0.759,0.58032,2.88,33.24,17.46
4.9033,-10.134,-1.8251,-0.031765,0.50519,0.69608,2.82,33.24,17.64
4.9987,-9.7794,-2.0567,0.2416,0.080634,0.84055,2.88,33.0,18.06
5.0259,-9.7658,-2.1793,0.39645,-0.16432,0.87781,2.94,32.88,18.24
4.9033,-9.8475,-2.2337,0.49786,-0.3207,0.91355,3.0,32.82,18.54
4.9306,-10.896,-2.4925,0.54489,-0.37874,0.94898,3.42,32.64,18.48
5.1485,-12.245,-2.7513,0.52504,-0.3934,1.0113,3.66,32.64,18.54
5.6933,-13.348,-2.8467,0.42699,-0.3992,1.0467,3.9,32.52,18.54
5.9112,-13.116,-2.4925,0.3036,-0.31643,0.81978,4.56,32.52,18.54
5.5026,-11.945,-2.3018,0.20708,-0.25198,0.43738,4.8,32.46,18.54
5.203,-11.25,-2.1248,0.208,-0.24954,0.2474,5.28,32.46,18.42
4.9033,-10.256,-2.0158,0.30116,-0.48625,-0.35736,5.76,32.46,18.3
4.4811,-9.3027,-2.2201,0.35858,-0.69058,-0.69272,6.72,32.7,18.0
4.5083,-9.2482,-1.8387,0.3711,-0.79351,-0.91385,7.14,32.76,17.82
4.3721,-8.8805,-1.4301,0.32345,-0.79351,-1.0611,7.44,32.82,17.58
3.6366,-7.927,-0.88532,0.22571,-0.64721,-1.2263,7.92,33.0,16.92
3.3642,-7.5593,-0.8036,0.16066,-0.49297,-1.3213,8.04,33.0,16.74
3.2008,-7.355,-0.6674,0.12187,-0.4215,-1.3534,8.16,33.0,16.5
3.1872,-7.1915,-0.40861,0.051007,-0.208,-1.4908,8.16,33.06,16.32
2.9829,-6.456,-0.19068,0.020159,-0.083383,-1.5626,7.86,33.18,15.72
2.9011,-6.3062,-0.068102,0.020159,0.0036652,-1.6115,7.38,33.12,15.42
2.9148,-6.3198,0.068102,0.047953,0.042761,-1.6246,6.66,33.3,14.64
2.9284,-6.4152,0.054481,0.072693,0.0082467,-1.5818,6.06,33.24,14.4
2.9965,-7.2188,0.10896,0.084605,-0.044593,-1.5036,4.98,33.42,13.62
3.0237,-7.641,0.054481,0.092546,-0.086132,-1.4447,4.26,33.42,13.2
3.1191,-8.1177,0.040861,0.083689,-0.1689,-1.2257,2.94,33.54,12.3
3.1327,-8.9486,0.054481,0.078802,-0.20495,-1.0406,1.8,33.72,11.58
3.0646,-9.6977,0.040861,0.054672,-0.21625,-0.81551,0.66,34.02,10.38
3.0918,-10.12,-0.01362,0.0281,-0.19212,-0.4444,-0.48,34.08,9.36
3.1735,-10.038,-0.095342,0.022907,-0.17929,-0.16524,-1.2,34.38,8.88
3.5958,-9.9701,-0.31327,0.048869,-0.22999,0.13225,-1.8,34.44,8.4
3.8273,-10.324,-0.53119,0.081245,-0.33231,0.43249,-2.16,34.74,7.92
4.0589,-11.55,-0.65378,0.092241,-0.47831,0.72815,-2.22,34.74,7.62
4.0861,-12.381,-0.72188,0.062003,-0.59498,1.0018,-2.22,34.74,7.56
4.1951,-14.138,-0.62654,-0.030849,-0.63774,1.2361,-2.16,34.92,7.38
4.1133,-15.418,-0.31327,-0.27825,-0.43188,1.4471,-1.68,34.74,7.44
3.6639,-15.309,-0.19068,-0.48839,-0.023824,1.4777,-1.2,34.8,7.86
3.6366,-13.579,-0.17706,-0.64568,0.50824,1.489,-0.36,34.98,8.16
4.127,-11.523,-0.72188,-0.68478,0.94837,1.4655,0.36,34.74,8.52
4.6445,-9.793,-1.4165,-0.59162,1.124,1.3396,1.2,34.38,9.24
4.8352,-9.1529,-1.7025,-0.43952,1.0064,1.1515,1.5,34.32,9.54
4.6309,-8.9622,-1.7706,-0.29474,0.6689,0.91324,2.28,34.32,10.44
4.413,-8.7034,-1.7025,-0.12859,0.2529,0.51985,2.76,34.26,10.92
4.127,-8.322,-1.5119,-0.098655,0.19334,0.27947,3.06,34.2,11.4
3.8818,-7.9815,-1.5527,-0.099876,0.24343,0.10201,3.9,34.02,12.48
3.5822,-7.7364,-1.5936,-0.1292,0.48655,-0.087048,4.38,34.08,12.9
3.4868,-6.565,-1.6208,-0.16005,0.59407,-0.12004,4.92,33.84,13.62
3.5685,-5.8431,-1.6208,-0.16402,0.7535,-0.16066,5.22,33.66,13.92
3.6094,-5.38,-1.5663,-0.16554,0.79626,-0.19364,5.28,33.66,14.16
3.5822,-4.8897,-1.4982,-0.14019,0.68875,-0.21197,5.46,33.66,14.52
3.5277,-4.6309,-1.4165,-0.13286,0.58704,-0.18051,5.88,33.66,15.12
3.5004,-4.5901,-1.471,-0.13195,0.47586,-0.12523,6.06,33.72,15.36
3.4187,-5.0531,-1.4438,-0.13775,0.38179,-0.017715,6.36,33.66,15.9
3.4187,-5.5162,-1.5119,-0.15608,0.36194,0.065668,6.48,33.72,16.26
3.4868,-5.8295,-1.58,-0.17562,0.36285,0.11668,6.54,33.66,16.32
3.6639,-6.8919,-1.5936,-0.21533,0.35155,0.25534,6.54,33.78,16.68
3.8001,-7.5457,-1.5119,-0.21777,0.34789,0.3427,6.54,33.84,16.74
3.8954,-8.2267,-1.5391,-0.22388,0.34147,0.44502,6.36,33.9,16.86
4.2223,-9.221,-1.6344,-0.18204,0.2868,0.5959,6.36,34.08,17.22
4.3585,-9.5479,-1.7025,-0.11515,0.19792,0.69394,6.42,34.08,17.4
4.5356,-9.7385,-1.7979,-0.036346,0.061392,0.78466,6.6,34.08,17.52
4.8488,-10.12,-2.0975,0.045204,-0.10812,0.87109,6.9,34.32,17.82
4.7944,-10.188,-2.1248,0.13531,-0.23457,0.93157,7.14,34.26,17.94
4.8216,-10.188,-2.2065,0.21472,-0.32193,0.97189,7.44,34.26,18.0
4.9987,-10.351,-2.3972,0.29658,-0.4215,0.97066,8.04,34.2,17.88
5.1349,-11.509,-2.547,0.30788,-0.45571,0.95356,8.4,34.08,17.7
5.2302,-12.272,-2.4925,0.27917,-0.45143,0.94928,8.76,34.2,17.64
5.8023,-14.574,-2.3972,0.2025,-0.43402,0.92485,9.78,33.96,17.52
6.0066,-15.146,-2.2746,0.10079,-0.36866,0.85796,10.32,33.96,17.46
6.0202,-14.601,-2.0294,0.0076358,-0.32101,0.67226,10.74,33.84,17.22
5.775,-12.313,-1.866,-0.011301,-0.33567,0.18295,11.88,33.72,16.98
5.5162,-11.223,-1.7979,0.057116,-0.50152,-0.22724,12.3,33.66,16.86
4.9987,-10.311,-1.7025,0.13958,-0.71257,-0.63499,12.72,33.42,16.8
4.3858,-9.6568,-1.6208,0.20617,-0.89125,-0.97769,13.62,33.18,16.26
4.2223,-9.3844,-1.3076,0.2474,-0.92607,-1.2843,13.92,33.18,16.08
3.9771,-8.7034,-0.98067,0.24038,-0.86529,-1.5186,13.98,33.12,15.9
3.4732,-8.3084,-0.44947,0.20922,-0.73151,-1.7489,14.1,33.24,15.72
3.2008,-7.6683,-0.25879,0.18265,-0.64385,-1.8714,13.98,33.3,15.66
3.0646,-7.3686,-0.14982,0.16677,-0.58093,-1.9587,13.68,33.3,15.6
2.833,-6.3198,0.01362,0.17257,-0.53023,-2.007,12.72,33.66,15.24
2.6832,-5.993,0.068102,0.17013,-0.50213,-2.0036,12.0,33.72,15.0
2.547,-5.9249,0.21793,0.17257,-0.45571,-1.9758,11.4,33.9,14.82
2.5061,-6.5105,0.42223,0.16524,-0.41753,-1.9148,9.54,34.26,13.86
2.4517,-6.6059,0.54481,0.14508,-0.34544,-1.7287,8.52,34.56,13.44
2.3836,-6.7966,0.55843,0.14447,-0.31215,-1.5632,7.68,34.92,12.9
2.4244,-6.9328,0.53119,0.15669,-0.29932,-1.3488,6.6,35.16,12.42
