Ax,Ay,Az,Gx,Gy,Gz,Mx,My,Mz
3.4732,-8.5944,-0.53119,0.16768,-0.60415,-0.15211,23.94,38.04,2.64
3.5413,-7.7364,-0.32689,0.080023,-0.79474,-0.41294,23.76,38.04,2.34
3.5685,-7.6274,-0.31327,0.025351,-0.96975,-0.53817,23.64,38.22,2.1
3.8001,-9.0439,-0.081722,-0.087048,-1.1454,-0.67348,23.16,38.34,1.32
3.6094,-9.5479,0.42223,-0.27917,-1.2248,-0.82253,22.86,38.34,1.08
3.3234,-9.6023,0.98067,-0.48686,-1.1408,-0.94012,22.5,38.46,0.84
3.2416,-9.6841,1.3893,-0.67501,-0.82528,-1.0046,21.6,38.76,0.06
3.6094,-9.8748,1.6208,-0.71196,-0.64599,-1.0177,21.12,39.12,-0.48
4.3313,-10.188,1.7162,-0.7086,-0.58887,-1.0174,20.4,39.3,-0.96
4.7399,-9.9565,1.7298,-0.66187,-0.56352,-1.0519,19.08,39.9,-1.26
4.8216,-9.9429,1.6889,-0.62156,-0.55344,-1.1148,18.3,40.08,-1.44
4.8352,-10.351,1.7434,-0.60751,-0.43952,-1.2226,16.5,40.56,-1.8
4.5492,-10.42,1.6617,-0.57421,-0.36774,-1.299,15.48,41.04,-1.74
4.5083,-10.243,1.5391,-0.55314,-0.34972,-1.3329,14.46,41.34,-1.62
4.4811,-10.515,1.5255,-0.45784,-0.34453,-1.347,13.38,41.46,-1.68
4.3449,-11.373,1.185,-0.31093,-0.42302,-1.3372,12.3,41.82,-1.56
3.8546,-11.536,1.2531,-0.25381,-0.48686,-1.3665,10.08,42.48,-1.68
3.5004,-10.855,1.2122,-0.21075,-0.5171,-1.3601,8.82,42.78,-1.74
2.7513,-10.297,0.8036,-0.12859,-0.53909,-1.255,6.6,43.14,-1.5
2.2201,-10.025,0.76274,-0.078496,-0.50793,-1.1179,5.52,43.38,-1.44
1.7298,-9.2891,0.57205,-0.054062,-0.42455,-0.96731,4.44,43.62,-1.32
1.3757,-8.3901,0.50395,-0.042761,-0.31704,-0.76847,3.42,43.8,-1.08
0.92618,-7.6138,0.12258,-0.038485,-0.21625,-0.57024,1.38,43.92,-0.84
0.83084,-7.641,0.12258,-0.081245,-0.13989,-0.41905,0.42,43.98,-0.78
0.5993,-8.1313,0.14982,-0.19181,-0.071471,-0.27947,-0.42,44.28,-0.72
0.31327,-8.1177,0.24517,-0.44502,0.10782,-0.096517,-1.98,44.28,-0.84
0.1362,-8.5127,0.31327,-0.57055,0.33139,0.10843,-2.7,44.52,-0.72
0.20431,-8.8532,0.42223,-0.62003,0.45357,0.21136,-3.42,44.64,-0.72
0.53119,-8.9758,0.57205,-0.66309,0.82192,0.5058,-4.68,44.58,-0.42
0.76274,-8.7715,0.64016,-0.58277,0.97555,0.66462,-5.04,44.58,-0.24
1.2122,-8.1995,0.57205,-0.3598,1.1041,0.8042,-5.58,44.46,0.12
1.3484,-8.2812,0.40861,-0.17257,1.1286,0.88301,-5.94,44.4,0.36
1.5663,-8.5263,0.12258,-0.045204,1.1185,0.99846,-6.06,44.22,0.6
1.8251,-9.507,-0.16344,0.0281,1.0883,1.1625,-6.06,44.1,0.78
1.9886,-9.8066,-0.24517,0.039401,1.0699,1.3082,-6.06,44.04,0.9
2.0158,-9.6023,-0.095342,0.021991,1.1243,1.4991,-6.06,43.98,1.14
2.2474,-9.4798,-0.17706,0.029016,1.2764,1.8182,-5.64,43.8,1.56
2.7377,-9.8203,-0.38137,0.078496,1.3473,2.0375,-5.16,43.86,1.98
3.1735,-9.9565,-0.49033,0.14203,1.273,2.2214,-4.74,43.68,2.16
4.2087,-10.161,-0.77636,0.21838,1.0666,2.3699,-3.06,43.74,2.76
4.4402,-10.379,-0.85808,0.26939,0.7984,2.4438,-2.22,43.68,2.94
4.6037,-10.678,-0.95342,0.30635,0.57208,2.4661,-1.26,43.44,3.06
4.6037,-11.482,-1.1441,0.30788,0.45357,2.3735,0.96,43.26,3.3
4.6173,-11.809,-1.1305,0.24251,0.47892,2.2413,2.28,43.14,3.36
4.6445,-11.809,-1.1577,0.22785,0.52779,2.1606,3.66,43.02,3.48
4.6037,-11.387,-0.95342,0.20831,0.80665,1.8909,6.48,42.6,3.54
4.9987,-11.237,-0.95342,0.25107,0.97433,1.689,7.92,42.36,3.54
5.4618,-10.978,-0.96704,0.32345,1.0241,1.482,9.54,42.24,3.66
5.7205,-10.855,-1.0896,0.38973,0.92974,1.2785,12.72,41.58,3.72
6.5105,-10.188,-1.0488,0.46304,0.551,0.91691,14.1,41.34,3.66
6.6059,-9.902,-1.1032,0.51526,0.18173,0.61484,15.42,40.98,3.6
6.5105,-9.6704,-1.1305,0.54245,0.0030543,0.44868,16.62,40.62,3.42
5.993,-9.1801,-1.2258,0.53359,-0.47159,-0.067806,18.6,39.96,3.12
5.5162,-8.9622,-1.1577,0.5058,-0.70219,-0.37782,19.56,39.72,3.0
5.2575,-8.7306,-1.0351,0.43433,-0.85796,-0.65088,20.28,39.66,3.0
5.1485,-8.3765,-1.0079,0.31307,-1.1109,-0.956,21.42,39.18,2.52
5.0531,-8.8124,-0.62654,0.28008,-1.2086,-1.0397,21.9,39.06,2.22
5.0668,-9.1256,-0.35413,0.1518,-1.5021,-1.2807,22.14,39.12,2.16
4.985,-10.27,0.46309,0.025962,-1.6304,-1.4218,22.14,39.06,1.62
4.808,-10.569,0.68102,-0.11209,-1.7074,-1.514,21.96,39.06,1.26
4.6718,-10.746,0.70826,-0.20464,-1.7086,-1.6081,21.54,39.12,0.96
4.2223,-10.828,1.0624,-0.3427,-1.5311,-1.6964,20.34,39.36,0.24
3.9771,-10.447,1.185,-0.39187,-1.4154,-1.7168,19.8,39.6,-0.06
3.8546,-10.256,1.0351,-0.50824,-1.0009,-1.7767,18.78,39.72,-0.3
3.8546,-10.106,1.0624,-0.55528,-0.74984,-1.8457,16.98,40.56,-0.84
3.8818,-10.052,1.0488,-0.58887,-0.55925,-1.927,15.84,40.92,-1.08
3.909,-9.9837,1.0896,-0.60476,-0.4893,-2.0015,14.46,41.04,-1.44
3.7728,-10.597,0.98067,-0.5623,-0.55528,-2.0464,11.82,41.7,-1.86
3.7047,-11.509,0.92618,-0.5736,-0.64202,-2.0461,10.44,42.06,-2.1
3.5685,-12.0,0.89894,-0.58521,-0.69119,-2.0394,9.12,42.24,-2.28
3.0237,-13.225,1.1986,-0.6576,-0.77794,-1.9432,6.42,42.78,-2.46
2.7377,-13.757,1.2939,-0.71105,-0.77458,-1.8463,5.04,43.02,-2.4
2.2882,-14.07,1.5391,-0.78741,-0.67898,-1.7217,3.66,43.26,-2.34
0.95342,-13.539,1.6072,-0.84116,-0.49297,-1.4978,2.4,43.44,-2.22
0.27241,-12.803,1.6072,-0.86773,-0.1518,-1.3237,1.26,43.68,-2.22
-0.8036,-11.931,1.6208,-0.90683,0.2419,-1.0052,-1.26,43.86,-1.92
-1.1169,-11.305,1.7025,-0.91996,0.64385,-0.686,-2.46,43.74,-1.62
-1.185,-10.583,1.8251,-0.96639,1.1591,-0.22297,-3.48,43.56,-1.5
-0.92618,-8.7851,1.8524,-0.89553,1.346,0.062003,-5.28,43.44,-0.96
-0.44947,-7.7772,1.6072,-0.63561,1.347,0.47189,-5.94,43.14,-0.78
0.46309,-7.4231,0.96704,-0.5058,1.2654,0.59437,-7.2,42.84,-0.06
0.8036,-7.3822,0.8036,-0.27184,0.97891,0.83994,-7.68,42.84,0.18
0.99429,-7.7091,0.54481,-0.012828,0.48655,1.2071,-8.16,42.54,0.48
1.2122,-8.7851,0.19068,0.065973,0.30879,1.4584,-8.46,42.12,0.72
1.362,-9.2755,-0.081722,0.087965,0.2697,1.6893,-8.7,42.06,0.9
1.58,-9.0984,0.027241,0.029016,0.36316,1.8977,-8.7,41.94,0.9
1.6344,-8.1041,0.14982,-0.029322,0.7648,2.1283,-8.4,41.88,1.26
1.8932,-7.3414,0.19068,0.0051924,1.1032,2.2547,-8.1,41.88,1.38
2.2201,-7.1915,0.1362,0.086437,1.3763,2.343,-7.56,41.94,1.44
3.7865,-7.927,-0.081722,0.18112,1.4511,2.4264,-6.24,41.88,1.62
4.6037,-8.2676,-0.16344,0.23457,1.3222,2.4157,-5.34,41.76,1.8
5.1894,-8.1858,-0.43585,0.2419,1.0321,2.3683,-4.44,41.88,2.1
5.6661,-8.5808,-0.64016,0.27519,0.50396,2.2428,-2.46,42.06,2.28
6.0474,-9.7385,-0.91256,0.2868,0.35858,2.1948,-1.26,41.88,2.52
6.7012,-10.76,-1.0351,0.27947,0.14997,2.0611,-1.26,41.94,2.64
6.7966,-11.332,-0.98067,0.24557,0.13134,1.847,1.32,42.0,2.94
7.0962,-12.503,-0.6674,0.25687,0.36011,1.6832,4.08,41.76,3.12
7.4231,-12.83,-0.83084,0.28191,0.68356,1.4743,5.34,41.64,3.36
8.2131,-12.49,-1.0215,0.34667,0.93432,1.212,8.22,41.34,3.54
8.4855,-12.34,-1.2395,0.4948,0.93646,0.73365,9.66,41.04,3.66
8.7034,-12.122,-1.4574,0.53298,0.82284,0.57391,10.92,40.8,3.6
8.9894,-11.455,-1.6753,0.59682,0.11729,0.069333,13.26,40.62,3.42
8.7579,-11.577,-1.7162,0.56444,-0.50213,-0.24068,14.16,40.5,3.3
8.145,-11.564,-1.6753,0.45998,-1.0345,-0.57971,15.12,40.38,3.12
6.279,-10.42,-1.076,0.25198,-1.3127,-1.0675,16.44,39.9,2.82
5.5435,-10.052,-0.92618,0.1967,-1.2947,-1.2144,16.92,39.78,2.58
5.3664,-9.6977,-0.55843,0.096822,-1.1924,-1.4991,17.22,39.78,2.4
5.38,-9.7385,0.027241,0.032681,-1.0986,-1.8173,17.4,39.72,1.8
5.5026,-9.7385,0.36775,0.0061087,-1.1805,-1.9248,17.16,39.72,1.62
5.6388,-9.902,0.64016,-0.034514,-1.3891,-1.9813,16.86,39.66,1.2
5.4754,-9.9156,1.0215,-0.13683,-1.854,-2.0464,15.96,39.9,0.6
5.3256,-9.7385,1.1986,-0.26664,-2.0934,-2.0467,15.18,39.96,0.36
4.8352,-9.0303,1.4982,-0.39462,-2.1423,-2.0479,14.34,40.02,-0.06
3.8954,-8.0905,1.7434,-0.49144,-2.0085,-2.0452,12.3,40.14,-0.54
3.6775,-7.9134,1.6617,-0.55864,-1.7547,-2.0391,11.16,40.2,-0.84
3.3778,-7.8726,1.7298,-0.60231,-1.4484,-2.0232,9.78,40.38,-1.08
3.4323,-8.2812,1.6208,-0.66248,-1.0091,-1.9065,7.14,40.74,-1.74
3.6366,-8.7715,1.6889,-0.71227,-0.81092,-1.7828,5.76,40.86,-2.04
3.8273,-9.2891,1.7434,-0.73915,-0.75198,-1.7129,4.38,40.74,-2.34
3.8682,-10.093,1.8796,-0.79871,-0.70738,-1.6038,3.06,40.68,-2.7
3.6775,-10.515,2.0022,-0.8152,-0.71471,-1.4502,0.48,40.68,-3.0
3.3642,-11.496,1.9886,-0.77977,-0.71166,-1.3338,-0.78,40.74,-3.12
3.2144,-13.103,1.9341,-0.70983,-0.69669,-1.0629,-3.18,40.38,-3.24
2.942,-13.634,1.7298,-0.60079,-0.68111,-0.8546,-4.32,40.32,-3.24
2.7649,-13.511,1.7298,-0.54947,-0.66462,-0.7477,-5.34,40.2,-3.06
1.7162,-12.858,1.7025,-0.45571,-0.5678,-0.49327,-6.36,40.2,-2.82
0.96704,-12.558,1.6072,-0.37599,-0.16432,-0.11912,-7.32,39.96,-2.7
-0.29965,-11.496,1.4165,-0.39859,0.25137,0.18112,-8.7,39.66,-2.4
-0.36775,-10.637,1.2531,-0.42699,0.71807,0.6353,-9.3,39.48,-2.1
0.16344,-8.4174,1.0215,-0.43097,1.1118,0.78466,-10.26,39.12,-1.62
0.51757,-7.4776,0.89894,-0.26237,1.3182,1.1328,-10.62,39.24,-1.32
0.69464,-7.1507,0.76274,-0.17654,1.3085,1.2086,-10.92,39.24,-1.14
1.2122,-7.2188,0.25879,0.10996,1.124,1.4251,-11.4,39.18,-0.84
1.2258,-7.5457,0.054481,0.2416,0.93676,1.6283,-11.46,39.12,-0.66
1.1032,-7.9679,-0.36775,0.31918,0.81123,1.8418,-11.4,39.12,-0.6
1.3484,-9.4389,-0.43585,0.32834,0.7984,2.0974,-10.92,39.24,-0.72
1.6617,-9.7794,-0.49033,0.2981,0.86651,2.3298,-10.56,39.48,-0.78
2.0158,-9.5887,-0.39499,0.23305,1.0076,2.5217,-10.14,39.48,-0.96
2.6832,-8.7851,-0.55843,0.2193,1.2648,2.6698,-8.76,39.78,-1.02
3.0782,-8.3765,-0.77636,0.24465,1.3473,2.689,-8.04,39.9,-1.02
3.8137,-8.2539,-1.0215,0.32803,1.3473,2.6863,-7.2,40.02,-1.08
3.8137,-8.2539,-1.0215,0.34697,1.0305,2.5501,-7.2,40.02,-1.08
5.1213,-9.0167,-1.7025,0.32681,0.91599,2.4987,-4.44,40.14,-1.08
5.1213,-8.9486,-1.6344,0.25992,0.72815,2.3952,-3.0,40.08,-1.08
5.0259,-9.2755,-1.4982,0.219,0.63133,2.244,-1.44,39.96,-0.78
5.2711,-10.733,-1.58,0.18845,0.67714,2.1258,1.62,39.78,-0.78
5.6116,-11.155,-1.7025,0.13622,0.76328,1.9584,3.24,39.72,-0.54
6.1428,-11.686,-1.5936,0.14294,0.85491,1.7816,6.48,39.6,-0.18
6.5378,-12.503,-1.6072,0.22724,0.94837,1.4832,8.16,39.36,-0.12
7.0962,-13.293,-1.6753,0.24801,0.88362,1.2343,9.84,39.12,-0.12
7.5729,-13.688,-1.8387,0.2584,0.72601,0.8717,11.4,39.12,0.18
7.9951,-13.035,-1.5391,0.3204,0.57605,0.39584,14.46,38.52,0.54
8.1586,-12.572,-1.2803,0.44685,0.42669,-0.090408,15.78,38.22,0.66
8.5127,-12.231,-1.4574,0.55131,0.2193,-0.51068,17.04,38.04,0.66
8.6217,-11.836,-1.4029,0.55925,-0.35613,-0.9893,18.54,37.74,0.78
8.2812,-11.141,-1.2395,0.47556,-0.88392,-1.2682,19.08,37.56,0.66
7.5729,-10.542,-0.81722,0.40775,-1.3573,-1.5556,19.56,37.5,0.48
6.674,-11.087,-0.27241,0.35613,-1.6854,-1.8036,20.1,37.32,0.36
6.3198,-11.414,-0.01362,0.13958,-1.8625,-2.0076,20.1,37.2,0.06
5.9521,-10.883,0.40861,-0.031154,-1.9823,-2.1961,19.92,37.14,-0.18
5.0259,-10.447,0.96704,-0.19578,-1.9355,-2.4862,18.9,37.38,-0.78
4.5764,-10.311,1.3348,-0.31093,-1.8149,-2.6353,18.18,37.32,-1.08
4.4539,-10.229,1.4846,-0.41447,-1.6634,-2.7297,17.28,37.32,-1.5
4.0997,-9.9837,1.5255,-0.49175,-1.5412,-2.7532,14.88,37.62,-2.4
3.9635,-9.6432,1.6344,-0.56047,-1.4636,-2.7367,13.56,37.74,-2.76
3.5685,-8.7306,1.8932,-0.62461,-1.3842,-2.6844,12.06,37.86,-3.06
3.1872,-8.3765,1.9341,-0.68967,-1.2358,-2.5769,8.7,38.16,-3.84
3.0646,-7.9951,1.7162,-0.67837,-1.0776,-2.4755,6.96,38.22,-4.02
3.1872,-7.9679,1.7025,-0.67653,-1.0079,-2.4319,5.16,38.34,-4.44
3.0918,-7.9951,1.866,-0.66676,-0.89095,-2.3048,1.56,38.46,-4.8
2.9284,-7.9679,1.8524,-0.65271,-0.82284,-2.1756,-0.24,38.46,-4.86
2.8875,-8.5808,1.58,-0.56933,-0.74831,-1.9474,-3.66,38.4,-4.8
2.833,-10.052,1.5527,-0.49602,-0.73762,-1.7284,-5.46,38.22,-4.62
2.9011,-11.073,1.471,-0.43616,-0.7477,-1.4273,-6.96,38.1,-4.5
3.0237,-11.891,1.4438,-0.40836,-0.76419,-1.055,-8.4,37.86,-4.26
2.7241,-13.866,1.1713,-0.32987,-0.89858,-0.66279,-11.04,37.5,-3.72
1.9205,-14.097,1.0624,-0.35277,-0.88331,-0.21991,-12.18,37.26,-3.42
1.3484,-13.498,1.1577,-0.39248,-0.65363,0.15577,-13.2,36.84,-3.12
0.39499,-12.953,1.3212,-0.45326,-0.23946,0.53726,-14.7,36.3,-2.22
0.1362,-12.027,1.2939,-0.49663,0.56902,0.98258,-15.24,36.06,-1.8
0.19068,-11.019,1.3076,-0.48014,0.83841,1.0977,-15.78,35.88,-1.26
0.92618,-9.0303,1.185,-0.34758,1.3952,1.3824,-16.26,35.58,-0.36
1.7298,-7.6002,0.92618,-0.1744,1.5088,1.5635,-16.32,35.4,-0.12
2.1793,-7.1507,0.64016,0.036652,1.4032,1.7297,-16.26,35.28,0.18
2.4925,-8.0496,0.39499,0.30085,1.0253,1.9639,-15.78,35.34,0.6
3.0237,-8.7306,0.17706,0.44746,0.74464,2.0818,-15.48,35.46,0.72
3.1054,-8.8668,0.040861,0.54245,0.50152,2.1735,-15.06,35.64,0.78
2.9011,-8.8941,-0.027241,0.60812,0.38485,2.3005,-14.58,35.7,0.6
2.6696,-8.9077,-0.27241,0.6576,0.40561,2.4429,-13.14,36.18,0.48
2.7922,-8.8124,-0.5993,0.67562,0.53603,2.5992,-12.42,36.54,0.18
3.0237,-8.6625,-1.0351,0.66309,0.78496,2.781,-10.68,37.08,-0.36
4.127,-8.6081,-1.7025,0.58918,0.90439,2.8042,-9.72,37.38,-0.66
4.6037,-8.54,-1.7298,0.44104,1.0021,2.7303,-8.64,37.68,-0.78
4.7535,-8.4719,-1.4846,0.25565,1.1536,2.6212,-7.32,37.8,-1.02
4.7535,-8.4719,-1.4846,0.25565,1.1536,2.6212,-7.32,37.8,-1.02
5.203,-8.4582,-1.5527,0.041539,1.6228,2.3482,-4.62,38.1,-1.5
6.2654,-9.2074,-1.7434,0.047647,1.7336,2.1338,-1.44,38.28,-1.68
6.5105,-10.351,-1.5936,0.085827,1.5751,2.0128,1.68,38.4,-1.74
7.0962,-11.427,-1.4438,0.071166,1.383,1.8973,3.3,38.34,-1.62
7.641,-12.503,-1.2122,0.047953,1.1689,1.7226,6.66,38.1,-1.44
7.8045,-13.225,-1.2395,0.086132,0.93615,1.456,9.96,37.56,-1.14
7.8453,-13.307,-1.4029,0.17104,0.72265,1.1564,12.9,37.02,-1.02
7.9815,-12.735,-1.6208,0.29138,0.51465,0.81856,15.42,36.42,-0.48
8.0088,-12.572,-1.6344,0.5171,0.009163,0.3094,16.26,36.3,-0.48
8.2676,-12.912,-1.6753,0.57879,-0.45937,0.010385,17.76,35.88,-0.12
7.8862,-12.572,-1.6617,0.55008,-0.96303,-0.31154,18.78,35.64,-0.18
7.2324,-11.455,-1.4029,0.45601,-1.3705,-0.66798,19.74,35.28,-0.42
6.1973,-9.9565,-0.74912,0.35644,-1.5724,-1.0647,19.74,35.22,-0.78
5.2847,-9.6568,-0.14982,0.32834,-1.5125,-1.4539,19.62,35.28,-1.08
5.1485,-10.433,0.24517,0.27978,-1.2385,-1.9261,19.08,35.46,-1.44
5.2166,-10.774,0.31327,0.16829,-1.1683,-2.2086,18.84,35.46,-1.56
5.0395,-11.223,0.49033,0.058032,-1.1973,-2.4838,17.88,35.58,-2.1
4.7263,-11.645,0.78998,-0.092241,-1.2437,-2.6851,16.68,35.94,-2.64
4.1542,-12.04,1.1986,-0.28466,-1.2269,-2.7776,14.88,35.88,-3.06
3.5685,-11.482,1.4165,-0.50121,-1.1078,-2.7626,12.84,36.12,-3.24
3.5685,-10.978,1.4165,-0.65576,-0.94745,-2.7461,11.58,36.3,-3.42
3.5685,-9.7385,1.3757,-0.69425,-0.86132,-2.7089,9.18,36.48,-3.54
3.3506,-9.0439,1.4846,-0.62583,-0.93921,-2.6689,6.42,36.66,-3.72
3.1463,-8.9894,1.5391,-0.5681,-1.0146,-2.656,5.22,36.78,-3.78
2.7922,-8.6489,1.5391,-0.54214,-1.0516,-2.6001,2.28,36.9,-3.9
2.547,-8.2131,1.3893,-0.49052,-1.0452,-2.5119,-0.48,37.08,-3.9
2.4517,-7.9679,1.185,-0.416,-1.0565,-2.4114,-1.62,36.9,-3.84
2.3972,-8.0632,1.185,-0.35766,-1.0776,-2.262,-4.2,36.78,-3.72
2.3155,-8.4855,0.92618,-0.24984,-1.1383,-1.9523,-6.54,36.42,-3.36
1.975,-8.9622,0.8036,-0.20678,-1.1774,-1.6817,-8.52,36.12,-2.94
1.8932,-9.1256,0.76274,-0.17562,-1.1774,-1.3485,-9.54,35.94,-2.58
1.8387,-9.9156,0.6674,-0.16005,-1.113,-0.94684,-10.98,35.34,-2.04
1.7706,-11.032,0.74912,-0.16218,-0.99693,-0.4948,-12.24,34.86,-1.32
1.6889,-12.79,1.0351,-0.25595,-0.70311,0.21869,-13.26,34.2,-0.72
1.7434,-13.498,1.1305,-0.35949,-0.42241,0.65851,-13.74,33.84,-0.42
1.866,-13.797,1.4438,-0.46242,-0.11484,1.0525,-14.1,33.54,0.18
1.866,-13.007,1.6344,-0.48625,0.17349,1.3751,-14.16,33.24,0.54
1.9613,-11.414,1.7706,-0.43585,0.43616,1.6231,-14.16,33.06,1.14
2.2337,-9.0031,1.7298,-0.29138,0.64721,1.7694,-13.74,32.94,1.5
2.1656,-7.7364,1.6753,0.066584,0.79657,1.8686,-13.2,33.0,1.62
2.0975,-7.9679,1.5255,0.36774,0.85918,1.8949,-12.96,32.94,1.68
2.2882,-8.8805,1.0624,0.62919,0.93859,1.8931,-12.18,33.12,1.8
2.6015,-9.2891,0.47671,0.81612,0.99571,1.9337,-11.58,33.12,1.8
3.1872,-9.5206,-0.081722,0.92424,0.91966,2.047,-10.5,33.72,1.62
3.3234,-9.4934,-0.20431,0.90561,0.74739,2.1542,-9.66,34.2,1.32
3.3097,-9.5887,-0.25879,0.76969,0.58093,2.2846,-8.34,34.68,0.84
3.2144,-9.4117,-0.35413,0.70097,0.57024,2.3017,-7.56,34.86,0.78
2.9692,-8.6489,-0.55843,0.54825,0.70524,2.2691,-6.3,35.28,0.36
2.7377,-8.036,-0.7355,0.54306,0.95326,2.2119,-5.04,35.46,0.12
2.6696,-7.8998,-1.6344,0.51985,1.3763,2.1191,-4.26,35.58,-0.06
3.6366,-7.9134,-1.6208,0.50793,1.9096,2.0443,-2.58,36.0,-0.42
5.7614,-8.3765,-1.8932,0.66829,1.4532,1.9725,-0.78,36.24,-0.6
5.3392,-9.6432,-2.0975,0.59284,0.89492,2.0192,1.26,36.12,-0.72
5.4073,-10.188,-2.2201,0.4722,0.79901,1.8653,2.4,36.0,-0.78
6.1292,-11.101,-1.8932,0.26817,0.7364,1.711,4.56,35.82,-0.78
6.2517,-11.863,-1.7706,0.12981,0.72632,1.6029,5.64,35.82,-0.72
6.6604,-13.225,-1.7162,0.0562,0.86285,1.5079,7.62,35.58,-0.78
7.75,-14.083,-1.8251,-0.0027489,0.99113,1.3607,9.6,35.22,-0.9
8.2131,-13.539,-1.7434,0.029627,0.94531,1.1472,11.7,34.92,-0.9
8.1177,-12.967,-1.5391,0.12828,0.73365,0.61484,12.6,34.74,-0.78
7.8998,-11.387,-1.3484,0.18021,0.54367,0.13714,13.98,34.32,-0.66
7.7091,-10.637,-1.2939,0.24312,0.2755,-0.36591,15.3,33.84,-0.54
7.7636,-10.91,-1.3212,0.3207,-0.019242,-0.77946,16.08,33.72,-0.42
7.8726,-11.387,-1.3212,0.28253,-0.34606,-1.0831,16.44,33.66,-0.48
7.6002,-11.128,-0.76274,0.15547,-0.94592,-1.4148,16.86,33.42,-0.36
7.0962,-10.501,-0.32689,0.033292,-1.303,-1.6328,16.86,33.12,-0.36
6.279,-9.902,0.16344,-0.088575,-1.5531,-1.8784,16.44,33.18,-0.24
5.7478,-9.6977,0.44947,-0.20861,-1.6799,-2.1096,15.96,33.24,-0.24
5.2302,-10.106,0.88532,-0.3204,-1.6848,-2.2746,14.88,33.42,-0.54
4.985,-10.665,1.2395,-0.46242,-1.6487,-2.3717,13.62,33.72,-0.66
4.7399,-10.256,1.5527,-0.60812,-1.6225,-2.4364,11.7,33.9,-0.72
4.5764,-9.8066,1.7843,-0.77244,-1.6292,-2.4487,10.74,34.08,-0.66
3.8954,-8.8941,2.0975,-0.83475,-1.617,-2.4746,8.7,34.14,-0.9
3.1054,-8.1177,2.1112,-0.84727,-1.5305,-2.5537,6.54,34.26,-0.96
2.833,-7.9815,2.0294,-0.81062,-1.3531,-2.5998,5.7,34.2,-0.96
2.6696,-8.4446,1.9613,-0.74709,-1.1561,-2.58,3.72,34.32,-1.14
2.7104,-9.8066,1.9341,-0.71044,-0.97464,-2.4987,2.04,34.2,-1.14
2.5061,-10.065,1.9341,-0.74312,-0.76083,-2.3408,0.36,33.84,-0.9
2.4925,-10.692,1.9477,-0.73701,-0.64966,-2.1564,-0.6,33.66,-0.9
2.5198,-12.694,1.9341,-0.73182,-0.57605,-1.9117,-1.98,33.36,-0.6
2.656,-15.677,1.975,-0.75931,-0.54642,-1.6063,-3.06,33.0,-0.3
2.6832,-15.895,2.0294,-0.79718,-0.53084,-1.2926,-4.14,32.52,0.36
2.6287,-15.323,2.0839,-0.78343,-0.52779,-0.92638,-4.8,32.16,0.6
2.0839,-13.13,1.8932,-0.57879,-0.55894,-0.42669,-5.7,32.04,1.26
0.74912,-11.373,1.6617,-0.39279,-0.48228,-0.1799,-6.36,31.62,1.92
-0.69464,-9.4253,1.4029,-0.22602,-0.14447,-0.025351,-7.14,31.38,2.58
-1.0488,-8.5536,1.0896,-0.074831,0.3149,0.1967,-7.38,31.08,2.76
-1.0351,-7.3141,0.78998,0.074831,0.76511,0.46701,-7.5,31.14,3.18
-0.29965,-6.8238,0.57205,0.16341,1.0452,0.77305,-7.62,31.14,3.42
0.47671,-7.246,0.35413,0.22999,1.0605,1.3454,-7.56,31.26,3.6
1.2667,-7.7364,0.25879,0.22022,0.8885,1.7318,-7.38,31.44,3.66
2.0703,-8.6762,0.095342,0.2251,0.60689,2.073,-7.02,31.74,3.48
2.4108,-8.9486,0.28603,0.27703,0.36255,2.3033,-6.42,32.04,3.24
2.4925,-9.0303,0.24517,0.36591,0.23579,2.4795,-5.76,32.52,2.94
2.4517,-9.112,0.21793,0.45204,0.23518,2.6157,-5.4,32.64,2.88
2.3836,-8.9894,0.040861,0.56413,0.36988,2.6921,-4.26,32.94,2.58
2.6015,-8.9622,-0.36775,0.77061,0.76083,2.7807,-3.18,33.12,2.16
3.3915,-8.6489,-0.98067,0.87232,1.0024,2.7917,-2.16,33.48,1.98
3.8682,-8.2812,-1.2667,0.91324,1.0531,2.7678,-1.44,33.36,1.86
5.1894,-7.4776,-2.0431,0.89919,0.8772,2.6551,-0.78,33.36,1.8
5.6933,-7.4367,-2.4789,0.88423,0.49297,2.5326,0.72,33.42,1.8
6.5786,-8.4582,-2.4517,0.85949,0.027184,2.3692,2.34,33.42,1.74
6.3471,-10.256,-2.4653,0.72052,-0.45387,2.0571,4.2,33.18,1.68
6.3879,-10.746,-2.5198,0.50519,-0.40317,1.7981,5.28,32.88,1.74
6.5241,-11.305,-2.6696,0.3598,-0.1405,1.5889,7.38,32.64,1.68
7.1234,-13.021,-2.7377,0.32529,0.11393,1.4224,9.18,32.16,1.44
7.3686,-13.702,-2.6696,0.27886,0.3259,1.2074,10.14,31.92,1.44
7.8726,-14.288,-2.7104,0.22938,0.42486,0.99143,12.24,31.26,1.14
8.1177,-13.716,-2.6423,0.20403,0.35613,0.66401,14.04,31.02,0.84
8.1041,-12.994,-2.6968,0.20342,0.1405,0.35125,14.94,30.72,0.6
7.8726,-12.204,-2.3836,0.20769,-0.17685,0.026267,16.38,30.06,0.36
7.8862,-12.395,-2.3563,0.20525,-0.59407,-0.25412,17.4,29.64,0.24
7.6955,-12.721,-2.2474,0.15424,-1.1191,-0.48381,18.18,29.52,-0.06
7.2188,-12.149,-1.8932,0.023824,-1.6341,-0.72204,18.42,29.52,-0.12
6.3471,-11.319,-1.2531,-0.13683,-1.9569,-0.99418,18.6,29.4,-0.3
4.7535,-10.42,-0.25879,-0.38851,-1.6622,-1.4749,18.78,29.46,-0.48
4.3313,-10.038,0.21793,-0.55864,-1.0776,-1.817,18.54,29.52,-0.48
4.6037,-9.9429,0.62654,-0.65973,-0.54581,-2.0797,18.24,29.58,-0.6
5.5571,-9.9565,1.0896,-0.77091,-0.27978,-2.2437,17.46,29.88,-0.9
6.0202,-9.4661,1.58,-0.84941,-0.30879,-2.3369,17.04,30.0,-1.08
6.1836,-9.2618,1.6889,-0.82925,-0.65912,-2.3308,16.44,30.18,-1.2
6.17,-9.3572,2.0294,-0.76419,-1.4975,-2.1954,14.88,30.66,-1.56
5.8023,-9.3844,2.3563,-0.74281,-2.0278,-2.1197,14.04,31.08,-1.86
5.2166,-9.3436,2.6287,-0.73304,-2.3445,-2.0721,13.38,31.44,-1.92
3.9635,-8.6081,2.8194,-0.73029,-2.2941,-2.0498,11.52,31.98,-2.16
3.4732,-8.322,2.7922,-0.71319,-2.007,-2.073,10.56,32.16,-2.4
3.1735,-8.145,2.6287,-0.68692,-1.8283,-2.094,9.6,32.46,-2.58
2.9829,-7.8453,2.4244,-0.62614,-1.4496,-2.1182,8.82,32.76,-2.7
2.9284,-7.7091,2.3563,-0.5006,-1.0339,-2.084,7.8,33.06,-2.82
3.3506,-7.8317,2.0431,-0.43463,-0.94165,-2.025,6.18,33.54,-3.12
3.4459,-7.7227,1.9886,-0.36408,-0.98197,-1.8769,5.22,33.78,-3.06
3.3778,-7.6819,2.0567,-0.27855,-1.1188,-1.8204,4.5,34.02,-3.06
3.2144,-8.9077,1.7706,-0.11912,-1.3479,-1.5605,2.64,34.26,-3.12
3.1463,-9.5751,1.4029,-0.03879,-1.4694,-1.3463,1.8,34.38,-3.0
2.9692,-10.147,1.2531,0.018326,-1.5333,-1.0925,1.2,34.44,-2.88
2.8467,-10.42,1.2395,0.066584,-1.5033,-0.76267,0.54,34.38,-2.82
2.1384,-11.482,1.1169,0.10293,-1.1512,-0.25076,-1.02,34.5,-2.52
1.9205,-11.605,1.1169,0.12798,-0.71532,0.093768,-1.62,34.62,-2.34
1.7162,-11.645,0.92618,0.19609,-0.19151,0.45357,-2.22,34.8,-2.22
1.8115,-10.924,0.55843,0.3091,0.28894,0.81306,-3.18,34.92,-1.74
2.152,-9.9973,0.38137,0.47586,0.65912,1.1747,-3.66,34.86,-1.74
2.4789,-9.6023,0.28603,0.64294,0.84116,1.5397,-4.02,34.74,-1.5
3.2553,-9.0984,0.054481,0.78527,0.85674,1.8903,-4.08,34.8,-1.44
3.4868,-8.7851,-0.095342,1.0296,0.5846,2.2617,-4.08,34.74,-1.56
3.8409,-8.6217,-0.21793,1.1277,0.42699,2.3271,-3.96,34.92,-1.74
4.0044,-8.826,-0.6674,1.3735,-0.06017,2.3381,-3.12,35.16,-2.1
3.8954,-8.8941,-0.76274,1.5,-0.31979,2.2147,-2.58,35.28,-2.46
3.7184,-9.3572,-1.0215,1.6179,-0.52168,2.0168,-1.44,35.16,-3.36
3.4868,-10.106,-1.2531,1.7019,-0.65546,1.8335,-0.78,35.16,-3.96
3.3778,-10.924,-1.3484,1.726,-0.66248,1.6991,-0.06,35.1,-4.5
3.3097,-11.182,-1.9205,1.6649,-0.57513,1.6215,1.44,34.98,-5.58
3.3642,-10.815,-2.4925,1.5656,-0.37843,1.6041,2.22,34.92,-6.18
3.4732,-10.188,-2.8467,1.4728,-0.20861,1.6069,3.24,34.86,-6.84
3.5958,-9.1937,-3.8273,1.3415,-0.045204,1.6124,4.68,34.5,-7.98
3.3915,-8.1858,-4.699,1.1328,0.19242,1.5996,5.52,34.38,-8.46
5.8567,-7.927,-4.7399,0.86193,0.74128,1.4878,6.42,34.14,-8.88
6.4424,-7.1371,-4.699,0.73579,-0.2923,1.1848,8.1,33.3,-9.84
5.6933,-6.5922,-4.413,0.54306,-1.0153,1.1054,8.76,33.06,-10.08
5.094,-6.4288,-3.909,0.4948,-1.2846,0.91538,9.48,32.58,-10.38
4.1133,-6.5241,-3.4459,0.40195,-1.1988,0.67837,10.2,32.34,-10.74
3.1054,-7.3822,-2.833,0.2926,-1.0058,0.41172,11.82,31.56,-11.34
2.6968,-7.8317,-2.6015,-0.022907,-0.44318,0.13103,12.42,31.26,-11.64
2.6015,-8.036,-2.1248,-0.17501,0.035125,0.024129,13.86,30.54,-12.42
2.9556,-8.2676,-1.7979,-0.26084,0.43066,0.0033598,14.52,30.12,-12.66
3.2689,-8.4174,-1.6344,-0.33567,0.65515,-0.0015272,14.94,29.82,-12.78
3.7728,-8.6625,-0.92618,-0.38271,0.72235,0.000305,16.08,29.4,-13.14
4.3177,-9.6841,-0.39499,-0.3094,0.63988,0.08827,16.38,29.16,-13.38
4.9578,-11.605,-0.081722,-0.28955,0.42669,0.21655,16.98,28.74,-13.5
6.1564,-13.184,0.27241,-0.38393,-0.10232,0.20617,17.22,28.86,-13.56
6.1019,-12.408,0.54481,-0.36346,-0.45571,0.13592,17.4,28.62,-13.62
5.8976,-12.027,0.84446,-0.23305,-0.6918,0.083689,17.64,28.74,-13.68
5.598,-13.334,0.85808,-0.10446,-0.69272,-0.23824,17.7,28.68,-13.74
5.8295,-13.961,0.83084,-0.045204,-0.5452,-0.5287,17.64,28.56,-13.62
6.4833,-14.22,1.0896,-0.0024435,-0.29535,-0.88637,17.76,28.8,-13.56
6.6331,-13.321,1.0896,-0.053756,-0.22694,-1.1136,17.7,28.86,-13.32
6.5786,-12.217,1.185,-0.061087,-0.38087,-1.3784,17.46,29.1,-13.26
6.3198,-9.9565,1.185,0.0073304,-0.72968,-1.6069,17.22,29.28,-13.14
6.1155,-8.6762,1.0215,0.12645,-1.146,-1.7492,16.74,29.58,-13.08
6.1155,-9.2618,1.1169,0.20311,-1.4997,-1.7672,16.32,29.7,-13.14
6.1836,-10.174,1.5391,0.13806,-2.0287,-1.7425,15.18,30.3,-13.14
5.993,-10.351,2.1248,-0.014966,-2.2917,-1.7208,14.28,30.42,-13.26
5.5843,-9.8611,2.5061,-0.20586,-2.3964,-1.7486,13.44,30.84,-13.44
5.2575,-9.4661,2.547,-0.36438,-2.3301,-1.8253,12.3,30.9,-13.5
4.3177,-8.3357,2.6968,-0.44624,-2.0965,-1.8955,9.96,31.74,-13.68
4.127,-8.145,2.6696,-0.47006,-1.7889,-1.9603,8.82,32.28,-13.8
4.1814,-8.0905,2.4789,-0.47617,-1.3955,-2.0302,6.12,32.94,-13.92
4.2495,-8.6762,2.3836,-0.51252,-1.2196,-2.0485,4.62,33.18,-14.04
4.0316,-8.7987,2.6968,-0.63286,-1.0956,-2.0406,3.18,33.72,-14.1
3.8273,-8.7715,2.833,-0.69486,-1.0324,-2.0204,1.74,33.9,-14.22
3.6094,-8.7034,2.8603,-0.86163,-0.85857,-1.8818,0.06,34.2,-14.22
3.1872,-8.9077,2.9556,-0.87904,-0.7816,-1.7651,-3.06,34.86,-14.22
2.9965,-8.9486,3.0646,-0.84788,-0.69975,-1.5461,-4.56,35.04,-14.1
2.9556,-9.4117,2.6968,-0.6805,-0.70372,-1.3305,-7.32,35.46,-13.44
2.9965,-9.8203,2.4244,-0.55558,-0.77458,-1.0828,-8.52,35.64,-12.96
3.1054,-10.052,2.2746,-0.43066,-0.89919,-0.79871,-9.6,35.94,-12.72
3.1054,-10.392,2.0839,-0.33262,-1.029,-0.53817,-10.62,35.94,-12.48
2.9148,-10.106,1.7298,-0.23732,-1.1356,-0.30329,-12.78,36.12,-11.46
2.7377,-9.9837,1.5663,-0.094684,-1.1881,-0.082772,-13.98,36.18,-10.98
2.3427,-10.025,1.4574,0.146,-1.1335,0.18876,-15.6,36.24,-9.84
1.5391,-9.2482,1.2803,0.30421,-0.94195,0.35766,-16.2,36.0,-9.36
0.64016,-7.9407,1.1305,0.40959,-0.78985,0.47739,-16.86,36.06,-8.82
0.27241,-6.6059,0.8036,0.78221,-0.046426,0.72601,-17.76,36.0,-8.1
0.8717,-7.2733,0.54481,1.0586,0.3992,0.91813,-17.94,36.06,-7.68
1.58,-7.9407,0.24517,1.3024,0.59773,1.1075,-18.18,36.12,-7.5
2.8194,-9.4389,-0.14982,1.6105,0.39095,1.4859,-18.36,36.36,-7.62
3.5277,-10.215,-0.25879,1.7449,-0.031154,1.8375,-18.48,36.12,-7.92
3.909,-10.665,-0.27241,1.7837,-0.30116,2.0162,-18.6,36.12,-7.92
4.3177,-10.801,-0.31327,1.8369,-1.186,2.507,-18.06,36.36,-8.46
4.2087,-10.311,-0.49033,1.876,-1.6444,2.7238,-17.64,36.42,-8.88
4.0861,-9.9156,-0.70826,1.9667,-1.9218,2.7975,-17.04,36.48,-9.24
4.0452,-8.8532,-1.5663,2.1145,-1.9603,2.6478,-15.78,36.54,-10.5
4.127,-8.5808,-1.866,2.1631,-1.8066,2.4065,-15.06,36.6,-11.04
3.9635,-8.4038,-2.152,2.1518,-1.6625,2.2593,-14.16,36.48,-11.7
3.8001,-8.145,-2.261,1.9697,-1.0843,1.7126,-13.26,36.3,-12.3
4.1951,-8.6762,-2.4108,1.8146,-0.67348,1.2792,-11.28,36.42,-13.56
4.5356,-9.4389,-2.5061,1.5437,-0.30207,0.94409,-10.32,36.18,-14.28
4.808,-9.7794,-3.0646,1.2361,0.043982,0.73182,-9.36,36.06,-14.88
5.6388,-9.9429,-3.2416,0.98074,0.25992,0.62217,-7.5,35.76,-16.2
6.3743,-10.283,-3.2689,0.88056,0.056505,0.61972,-6.42,35.58,-16.92
7.0417,-10.542,-3.0646,0.81062,-0.13256,0.62492,-5.52,35.16,-17.58
7.8862,-11.101,-2.5879,0.58551,-0.95295,0.6182,-4.02,34.26,-18.9
8.0224,-11.645,-2.1384,0.41111,-1.5345,0.55894,-3.36,34.08,-19.38
7.8589,-12.068,-0.96704,0.20892,-2.0436,0.45418,-2.82,33.84,-19.92
7.4367,-13.443,-0.96704,-0.084605,-2.4746,0.2755,-2.34,33.12,-21.12
7.2869,-14.71,0.85808,-0.39431,-2.576,0.15333,-2.34,32.94,-21.6
7.1643,-15.282,1.4574,-0.75289,-2.5085,-0.022907,-2.52,32.76,-22.08
6.4833,-14.506,3.0646,-1.0947,-2.2862,-0.28619,-3.18,32.22,-22.74
6.0611,-12.98,3.6366,-1.3094,-2.0085,-0.62827,-3.78,32.04,-22.86
4.9578,-10.896,4.1814,-1.3686,-1.7184,-1.0146,-4.38,31.92,-22.92
4.7399,-10.801,4.2359,-1.2117,-1.1875,-1.6124,-5.58,31.74,-22.32
4.7399,-11.278,4.3177,-1.0299,-0.86773,-1.8836,-6.36,31.56,-21.96
4.8761,-11.7,4.2904,-0.85674,-0.62583,-2.0827,-7.38,31.56,-21.36
5.0804,-10.433,4.3177,-0.68661,-0.57574,-2.1918,-9.3,31.38,-20.46
5.094,-10.038,4.0997,-0.54062,-0.7199,-2.241,-10.32,31.14,-20.04
5.0531,-9.5615,3.8954,-0.43524,-0.94806,-2.2694,-11.46,30.9,-19.44
4.985,-8.826,3.732,-0.33414,-1.3002,-2.2709,-13.5,30.42,-18.42
4.9169,-8.6625,3.8137,-0.29688,-1.4606,-2.2486,-14.46,30.18,-17.94
4.9306,-8.4719,3.6775,-0.2813,-1.5324,-2.2428,-15.48,29.76,-17.46
4.8216,-8.2267,3.5958,-0.26817,-1.7046,-2.2089,-16.44,29.4,-16.98
4.6037,-8.0088,3.623,-0.28436,-1.7813,-2.1551,-18.24,28.62,-16.2
4.2904,-7.8317,3.5413,-0.2981,-1.8103,-2.0772,-18.96,28.2,-15.9
4.0589,-8.0905,3.1872,-0.28772,-1.7514,-1.9908,-20.82,27.24,-15.48
3.8001,-8.322,2.7104,-0.22144,-1.5928,-1.8222,-21.54,26.76,-15.24
3.6503,-8.8941,2.3018,-0.18418,-1.5244,-1.7556,-22.08,26.22,-15.06
3.5413,-9.6704,2.0294,-0.072082,-1.2843,-1.4459,-22.8,25.74,-14.94
3.732,-12.095,1.757,-0.044593,-1.12,-1.1744,-23.94,24.9,-14.58
3.9227,-13.28,1.6072,-0.06017,-1.0333,-0.82497,-24.36,24.54,-14.52
3.7047,-14.669,1.6617,-0.13408,-1.0006,-0.45937,-24.72,24.24,-14.28
2.6696,-14.288,1.7025,-0.2645,-0.89309,0.044899,-25.56,23.64,-13.44
1.4438,-13.28,1.6617,-0.24954,-0.63438,0.29352,-25.74,23.46,-13.08
0.89894,-12.435,1.471,-0.1182,-0.25015,0.5904,-25.98,23.28,-12.78
0.28603,-11.319,0.9398,0.14233,0.11423,0.85765,-26.1,23.16,-12.6
0.74912,-8.5127,-0.14982,0.53359,0.32926,1.0644,-26.1,22.86,-12.18
0.8036,-7.5593,-0.81722,1.0934,0.14233,1.3274,-26.04,22.98,-12.12
-0.29965,-7.3141,-1.2258,1.2202,-0.018021,1.3686,-25.74,23.04,-12.18
-0.29965,-7.3141,-1.2258,1.3253,-0.30818,1.4777,-25.74,23.04,-12.18
-0.29965,-7.3141,-1.2258,1.3253,-0.30818,1.4777,-25.74,23.04,-12.18
-1.2667,-10.447,-0.38137,1.0253,0.07086,1.711,-24.9,23.64,-12.42
-0.81722,-11.536,-0.23155,0.72693,0.44776,2.0006,-24.54,23.88,-12.72
0.96704,-12.122,-0.027241,0.47281,0.79168,2.2767,-23.82,24.54,-13.26
2.1929,-11.659,0.095342,0.35613,0.967,2.4572,-23.34,24.96,-13.68
2.7786,-11.128,0.095342,0.43158,0.97005,2.4911,-22.62,25.38,-13.98
4.2087,-9.4798,-0.46309,0.83872,0.53726,2.4019,-21.6,26.04,-14.76
4.3994,-9.1937,-0.89894,1.1878,0.034819,2.252,-20.76,26.28,-14.88
4.5083,-9.4798,-1.0624,1.4569,-0.44868,2.0501,-20.1,26.64,-15.18
4.6718,-10.093,-1.7162,1.566,-0.71777,1.8989,-18.54,27.24,-15.9
4.5764,-9.9156,-1.7979,1.4917,-0.82558,1.8176,-17.7,27.48,-16.14
4.2904,-9.3163,-1.975,1.3485,-0.78588,1.7944,-16.92,27.72,-16.44
4.304,-9.4389,-2.5334,1.1319,-0.56505,1.7468,-15.06,28.08,-17.04
4.6582,-10.161,-3.0918,0.99052,-0.41233,1.6777,-14.28,28.14,-17.34
5.0123,-10.529,-3.4051,0.78832,-0.27428,1.5455,-13.38,28.14,-17.52
5.993,-11.278,-3.4323,0.60262,-0.18082,1.4065,-11.58,28.14,-17.7
6.5241,-11.959,-3.2825,0.41325,-0.27122,1.0815,-10.68,28.2,-18.0
6.7557,-12.476,-3.2553,0.26573,-0.4612,0.7703,-9.84,28.26,-18.36
6.9055,-13.184,-3.0646,0.18448,-0.56352,0.58582,-9.0,28.32,-18.66
6.5105,-12.435,-2.3291,-0.042761,-0.8097,0.062308,-7.5,28.2,-19.5
6.1836,-12.217,-1.975,-0.091019,-0.91111,-0.24312,-6.84,28.02,-19.86
5.9521,-12.476,-1.6753,-0.15791,-0.99632,-0.54336,-6.42,27.84,-20.16
5.6797,-12.612,-1.0215,-0.31643,-1.0892,-0.95448,-5.58,27.66,-20.76
5.598,-12.286,-0.6674,-0.42791,-1.1212,-1.2205,-5.22,27.42,-20.82
5.4618,-11.918,-0.29965,-0.53573,-1.1237,-1.4963,-5.16,27.48,-21.0
4.9169,-11.223,0.81722,-0.63041,-1.087,-1.7886,-5.22,27.36,-21.0
4.5628,-11.25,1.1577,-0.70647,-1.0278,-2.0614,-5.4,27.36,-21.12
4.127,-11.319,1.7979,-0.81001,-0.95692,-2.4117,-5.94,27.18,-21.3
3.9363,-11.4,2.0839,-0.84544,-0.95723,-2.554,-6.48,26.88,-21.3
3.7047,-11.441,2.2337,-0.87079,-0.98502,-2.6093,-7.08,26.88,-21.3
3.4051,-11.128,2.3427,-0.87934,-1.0192,-2.5968,-7.68,26.88,-21.24
2.9692,-10.283,2.4789,-0.85949,-1.0501,-2.5146,-9.48,27.06,-21.42
2.9148,-9.7522,2.4517,-0.81886,-1.0336,-2.3973,-10.5,26.94,-21.48
2.7377,-9.4661,2.4925,-0.75747,-0.96456,-2.2981,-11.46,26.88,-21.48
2.6423,-9.1529,2.3427,-0.63408,-0.81856,-2.2153,-12.54,26.82,-21.3
2.6423,-9.1529,2.3427,-0.55803,-0.67684,-2.1622,-12.54,26.82,-21.3
2.4244,-8.2676,2.0567,-0.4612,-0.55405,-2.0681,-14.94,27.12,-21.6
2.4789,-8.5944,1.866,-0.354,-0.49663,-1.9377,-15.9,26.88,-21.72
2.6151,-9.0848,1.5663,-0.27061,-0.52779,-1.788,-17.88,26.82,-21.84
2.6832,-10.188,1.5391,-0.19151,-0.60476,-1.6069,-19.86,26.52,-21.96
2.7377,-11.06,1.3484,-0.13378,-0.74373,-1.288,-20.94,26.46,-21.96
2.9692,-13.321,1.3757,-0.15211,-0.87445,-1.1081,-22.62,26.16,-21.96
2.3836,-13.021,1.3893,-0.19487,-0.94867,-0.90866,-23.7,25.5,-21.72
0.95342,-11.863,1.471,-0.22571,-0.8769,-0.63133,-24.72,25.32,-21.3
0.32689,-10.964,1.3484,-0.21502,-0.60262,-0.40867,-25.5,24.96,-20.94
0.19068,-10.801,1.2939,-0.18082,-0.17654,-0.14019,-26.04,24.3,-20.22
0.40861,-10.501,1.1441,-0.049786,0.48503,0.24923,-26.64,24.06,-19.92
0.6674,-10.161,1.0488,0.040012,0.8207,0.45448,-26.76,23.82,-19.68
0.8717,-9.2891,0.89894,0.13378,1.003,0.58185,-27.36,23.88,-19.62
1.0351,-8.4582,0.83084,0.21044,1.1197,0.66065,-27.48,23.94,-19.86
1.2531,-7.9407,0.89894,0.29871,1.201,0.76389,-27.54,24.18,-19.74
1.4438,-7.5865,0.64016,0.4105,1.2278,0.90316,-27.66,24.36,-19.86
1.7434,-7.5729,0.28603,0.54245,1.189,1.0831,-27.6,24.6,-20.52
2.0294,-7.4367,0.095342,0.69578,1.0715,1.3167,-27.36,25.14,-21.42
2.3427,-7.4776,-0.17706,0.85888,0.80023,1.7404,-27.18,25.32,-22.08
2.4653,-7.5321,-0.40861,0.9447,0.59437,2.0394,-27.12,25.62,-22.5
2.833,-7.7636,-0.99429,0.99327,0.38882,2.3198,-26.7,26.04,-23.4
3.2553,-7.9815,-1.4165,1.0027,0.15119,2.5638,-26.28,26.16,-23.7
3.8954,-8.3493,-1.6753,0.95387,-0.040928,2.7901,-25.5,26.4,-24.18
4.3177,-8.8124,-1.7025,0.86896,-0.099266,2.9569,-25.02,26.46,-24.42
4.6037,-9.5342,-1.9886,0.57544,0.25534,3.0079,-24.6,26.52,-24.78
5.9385,-9.9429,-1.7979,0.50702,0.32803,2.8802,-23.1,26.88,-25.38
6.3743,-10.311,-2.0294,0.41997,0.31215,2.7639,-22.26,27.12,-25.62
6.6467,-11.114,-2.0839,0.39218,0.42638,2.5638,-21.18,27.24,-25.5
7.6138,-13.021,-2.3155,0.33445,0.50549,2.1906,-19.02,27.66,-25.62
8.1177,-13.797,-2.3155,0.24038,0.43341,1.9374,-17.76,27.78,-25.74
8.9894,-14.642,-2.0294,0.16921,0.34544,1.6127,-16.56,28.2,-26.04
8.6489,-14.397,-1.4982,0.11668,0.34147,1.4181,-15.06,28.44,-26.04
7.8862,-12.64,-1.1169,0.002138,0.46426,0.66737,-12.48,28.8,-26.1
7.6683,-11.346,-1.2258,0.069944,0.54275,0.099571,-11.16,29.04,-26.16
7.5729,-10.624,-1.3212,0.2364,0.55222,-0.41111,-9.9,29.34,-26.04
7.9679,-9.2755,-1.5119,0.39187,0.39248,-0.79901,-7.5,29.88,-26.58
8.1858,-8.8532,-1.2258,0.45326,-0.24771,-1.1564,-6.36,29.94,-26.7
8.1722,-8.54,-0.85808,0.42883,-0.54947,-1.2459,-5.7,30.18,-27.0
7.9679,-8.2539,-0.35413,0.22205,-1.4487,-1.4801,-4.56,30.3,-27.36
7.5457,-8.1313,0.21793,0.026267,-1.9355,-1.6228,-4.5,30.36,-27.6
7.355,-8.4855,0.81722,-0.16402,-2.1933,-1.7956,-4.5,30.36,-27.66
6.5378,-9.398,1.7162,-0.49205,-2.1334,-2.0614,-5.04,30.3,-28.08
6.1155,-9.9292,1.9886,-0.67042,-1.8967,-2.2834,-5.52,30.18,-28.02
5.9657,-10.147,2.2201,-0.74709,-1.7291,-2.4239,-6.54,30.18,-28.14
5.8704,-10.815,2.5334,-0.86896,-0.88606,-2.9474,-8.64,30.0,-28.26
6.0202,-11.346,2.5061,-0.89339,-0.23305,-3.1386,-9.96,29.88,-28.38
5.993,-11.496,2.438,-0.83536,0.20006,-3.1756,-11.16,29.82,-28.62
6.0066,-11.223,2.3018,-0.68234,0.33384,-3.1771,-14.04,29.7,-28.56
5.8431,-11.182,2.2746,-0.58338,0.1347,-3.1301,-15.54,29.64,-28.62
5.38,-11.427,2.0567,-0.47525,-0.12156,-3.0241,-17.1,29.4,-28.5
4.8352,-11.713,1.9613,-0.42272,-0.37324,-2.8448,-20.22,28.98,-28.5
4.3449,-12.081,1.7979,-0.33964,-0.62308,-2.5702,-21.6,28.56,-28.44
4.2087,-12.449,1.7025,-0.27428,-0.8827,-2.2132,-23.04,28.32,-28.44
3.8954,-13.225,1.4846,-0.24404,-1.1347,-1.8207,-25.74,27.48,-28.38
3.3506,-13.253,1.6072,-0.24771,-1.3372,-1.4306,-26.94,27.06,-28.2
2.4108,-12.681,1.6753,-0.28802,-1.405,-1.0666,-28.02,26.52,-28.14
0.40861,-10.42,1.5527,-0.32834,-1.109,-0.56444,-30.06,25.56,-27.6
-0.44947,-9.3844,1.4438,-0.30513,-0.72388,-0.22724,-31.02,25.08,-27.24
-1.1577,-8.2403,1.1169,-0.24954,-0.2587,0.091935,-33.12,24.06,-26.7
-1.1713,-7.7636,0.88532,-0.21472,0.18845,0.42333,-33.9,23.7,-26.22
-0.95342,-7.4367,0.99429,-0.20586,0.57757,0.79535,-34.74,23.46,-25.8
-0.16344,-7.0281,0.76274,-0.2303,0.87506,1.131,-36.06,23.1,-25.2
0.65378,-6.9872,0.62654,-0.22724,1.0024,1.4279,-36.48,23.04,-25.02
1.0488,-6.96,0.54481,-0.15577,0.9053,1.777,-36.6,23.1,-24.9
1.866,-7.2188,0.35413,-0.07025,0.69639,1.9841,-36.96,23.52,-24.54
2.0703,-7.4503,0.29965,0.013134,0.45937,2.1588,-36.96,23.94,-24.36
2.2474,-8.1177,0.21793,0.10079,0.28191,2.3243,-36.36,24.84,-24.48
2.3563,-8.4582,0.095342,0.17929,0.22144,2.6261,-36.0,25.56,-24.66
2.5061,-8.9349,0.12258,0.23885,0.36499,2.8729,-35.58,26.34,-24.72
3.7047,-10.025,0.095342,0.28222,0.64202,3.0546,-34.08,27.96,-25.26
4.7399,-10.338,0.095342,0.3262,0.95356,3.1212,-33.12,28.56,-25.38
5.8023,-10.256,-0.28603,0.3934,1.1219,3.0788,-32.16,29.34,-25.56
8.0632,-11.536,-0.31327,0.49755,0.92149,2.8118,-29.76,30.96,-25.98
8.5808,-12.108,-0.35413,0.48442,0.56413,2.5849,-28.26,31.62,-26.1
8.54,-12.081,-0.47671,0.46059,0.40409,2.4881,-26.88,32.46,-26.1
7.6683,-11.278,-0.64016,0.44746,0.29077,2.2275,-24.18,33.84,-26.16
7.7091,-11.319,-0.8036,0.47342,0.36774,2.1353,-24.18,33.84,-26.16
7.7091,-11.319,-0.8036,0.59651,0.60018,1.7449,-22.74,34.32,-26.28
7.7091,-11.319,-0.8036,0.58796,0.42913,1.5348,-22.74,34.32,-26.28
10.106,-12.34,-1.757,0.49786,0.16371,1.2709,-20.94,34.86,-26.28
10.134,-11.959,-1.8524,0.39309,-0.011301,0.92088,-19.14,35.16,-26.46
8.9213,-10.215,-1.9613,0.32803,0.023213,0.47037,-15.6,35.88,-26.46
8.2267,-9.5615,-2.0703,0.32987,0.25748,-0.0039706,-12.24,36.3,-26.76
8.3493,-8.7306,-2.261,0.32742,0.46853,-0.44043,-9.3,36.72,-27.06
8.5808,-7.8862,-2.1656,0.34544,0.4328,-0.83047,-6.84,36.66,-27.54
8.54,-7.7636,-1.7706,0.36072,0.11515,-1.1677,-5.16,36.6,-27.9
8.6081,-8.4855,-1.1577,0.28588,-0.6072,-1.5556,-3.9,36.36,-28.38
8.1722,-8.9758,-0.28603,0.13806,-1.1521,-1.7651,-3.24,36.24,-28.98
7.7091,-9.1393,0.1362,-0.016188,-1.6209,-1.9419,-3.42,36.24,-29.34
6.8919,-9.7385,0.7355,-0.16249,-1.8805,-2.0687,-4.44,36.3,-29.88
6.2245,-10.379,1.1169,-0.30391,-1.9175,-2.116,-6.0,36.24,-29.94
5.884,-10.964,1.362,-0.49999,-1.7746,-2.0779,-8.1,35.88,-30.18
5.7069,-10.869,1.58,-0.64171,-1.5971,-2.0366,-10.44,35.82,-30.12
5.2847,-10.46,1.9886,-0.76328,-1.3479,-2.0495,-13.08,35.76,-29.94
5.0395,-10.215,2.0567,-0.86285,-1.0446,-2.105,-14.46,35.7,-29.94
4.6037,-9.9156,2.1248,-0.89339,-0.72388,-2.1976,-17.28,35.76,-29.94
4.5083,-9.3572,2.0294,-0.87384,-0.38668,-2.3207,-20.28,35.46,-29.64
4.6037,-9.1529,1.866,-0.73823,-0.31398,-2.3619,-21.72,35.52,-29.58
4.5492,-8.9894,1.8387,-0.6185,-0.34697,-2.3534,-23.16,35.4,-29.28
4.3449,-8.5127,1.1577,-0.50366,-0.43219,-2.3439,-25.86,35.28,-29.04
4.1133,-8.6217,1.0079,-0.43707,-0.56261,-2.2862,-27.18,35.04,-29.1
3.8682,-8.7715,0.96704,-0.45509,-0.67134,-2.1466,-28.26,34.98,-28.86
3.623,-9.9156,0.35413,-0.47281,-0.7141,-1.8097,-30.6,34.5,-28.68
3.6503,-10.61,0.081722,-0.49999,-0.74495,-1.529,-31.74,34.2,-28.56
3.6366,-11.087,-0.040861,-0.51435,-0.77152,-1.3641,-32.82,33.72,-28.38
3.4732,-11.387,-0.095342,-0.57116,-0.79168,-1.0311,-33.84,33.42,-28.08
2.7649,-11.155,0.20431,-0.68081,-0.6524,-0.54672,-36.06,32.52,-27.24
2.5334,-10.815,0.40861,-0.69089,-0.45662,-0.24954,-37.02,32.1,-26.76
2.0839,-10.678,0.72188,-0.63988,-0.20128,0.018937,-37.92,31.74,-26.52
0.85808,-10.256,0.96704,-0.49602,0.31032,0.51465,-39.54,31.02,-25.68
0.58567,-10.052,0.8717,-0.42852,0.5171,0.69089,-40.14,30.78,-25.2
0.72188,-9.507,0.85808,-0.27978,0.90713,1.069,-40.62,30.42,-24.84
1.2531,-7.927,0.85808,-0.032987,1.2511,1.6047,-41.28,30.36,-24.24
1.8387,-7.2596,0.70826,0.18906,1.2388,1.9022,-41.46,30.36,-24.18
2.3972,-7.2869,0.28603,0.41997,1.0018,2.109,-41.46,30.66,-24.0
3.228,-8.2812,0.17706,0.62217,0.59223,2.2782,-41.22,31.32,-23.94
3.4868,-8.717,0.068102,0.75747,0.054672,2.4184,-40.74,31.92,-24.06
3.3915,-8.9077,0.054481,0.82742,-0.43952,2.5604,-40.26,32.46,-24.3
2.8603,-9.0984,0.054481,0.84025,-0.74067,2.7623,-38.7,33.78,-24.78
2.547,-9.0575,0.095342,0.82833,-0.54214,2.8491,-37.86,34.56,-25.14
2.438,-8.9077,0.10896,0.86071,0.22144,2.8903,-35.94,36.18,-25.62
2.9965,-8.6762,-0.34051,0.91019,0.78099,2.8482,-34.74,36.96,-25.98
3.8818,-8.7851,-0.8036,0.96853,1.1573,2.7593,-33.6,37.68,-26.28
5.0668,-9.1665,-1.0079,0.99143,1.1747,2.6563,-32.28,38.46,-26.58
6.6059,-9.7249,-1.6344,0.9502,0.85368,2.5207,-29.4,39.72,-27.24
6.96,-9.616,-1.7025,0.84971,0.39951,2.3497,-27.78,40.2,-27.54
6.9328,-9.7522,-1.9205,0.76725,0.06017,2.1713,-26.28,40.68,-27.72
6.8919,-11.25,-2.3155,0.74281,-0.081245,1.8922,-22.98,41.4,-28.38
7.0962,-12.408,-2.6968,0.63622,0.11301,1.6487,-21.48,41.76,-28.68
7.2188,-13.184,-2.9965,0.53206,0.38485,1.3845,-19.86,42.06,-28.92
7.5729,-14.192,-2.942,0.41905,0.67378,1.0925,-16.56,42.24,-29.34
7.7908,-14.574,-2.9284,0.25992,0.95631,0.76908,-14.82,42.24,-29.76
8.0224,-14.424,-2.7786,0.094073,1.1078,0.4105,-13.08,42.3,-30.12
8.1041,-12.653,-2.438,-0.02138,1.0754,-0.16585,-9.84,42.24,-30.78
7.9951,-12.04,-2.3427,0.015882,0.96425,-0.51649,-8.22,42.3,-31.14
8.0088,-11.564,-2.261,0.10201,0.77427,-0.82681,-6.84,42.24,-31.32
8.1313,-11.237,-2.3155,0.15394,0.624,-0.95356,-5.7,42.24,-31.5
9.0984,-10.311,-2.0294,0.21533,-0.15119,-1.3357,-4.02,42.3,-31.92
8.9622,-9.7385,-1.3484,0.16585,-0.83353,-1.6041,-3.36,42.06,-32.22
7.7364,-9.7249,-0.20431,0.044899,-1.4612,-1.8344,-2.88,42.06,-32.4
7.246,-9.5751,0.14982,-0.15913,-1.8671,-2.0702,-2.58,42.06,-32.46
6.6604,-9.5206,0.50395,-0.37018,-2.0559,-2.2611,-2.88,42.12,-32.52
5.9249,-9.5887,0.83084,-0.51099,-2.0776,-2.3674,-3.3,42.3,-32.64
5.1213,-9.6568,1.4029,-0.71685,-1.8121,-2.43,-5.1,42.48,-32.7
4.9442,-9.5887,1.6753,-0.83689,-1.5531,-2.4056,-6.48,42.66,-32.58
4.8625,-9.5342,2.0839,-1.0153,-1.2263,-2.3014,-9.6,42.9,-32.34
4.8352,-9.1256,2.3836,-1.1148,-1.0638,-2.2843,-11.52,43.08,-32.34
4.6173,-8.8941,2.438,-1.1695,-0.8937,-2.2801,-13.44,43.32,-32.28
4.4402,-8.7987,2.4244,-1.1817,-0.81245,-2.2895,-15.48,43.5,-32.22
4.0861,-8.6217,2.3972,-1.1191,-0.60567,-2.2856,-19.86,43.74,-31.62
3.8273,-8.7034,2.1793,-1.0177,-0.50244,-2.2455,-22.02,44.16,-31.08
3.6775,-8.6081,2.1929,-0.85888,-0.41966,-2.1393,-26.4,44.4,-30.24
3.3506,-8.5808,1.9886,-0.73182,-0.4105,-2.0091,-28.5,44.58,-29.76
3.2144,-9.0712,1.9613,-0.66065,-0.4163,-1.9462,-30.6,44.64,-29.22
3.2008,-9.398,1.7843,-0.50457,-0.47464,-1.7681,-32.76,44.76,-28.62
2.9284,-10.106,1.58,-0.29322,-0.62736,-1.423,-34.74,44.7,-28.02
2.8739,-10.351,1.6072,-0.16524,-0.74251,-1.1026,-36.72,44.76,-27.12
2.7513,-11.25,1.362,-0.02138,-0.85674,-0.72479,-40.32,44.34,-25.74
2.7377,-11.223,1.1305,0.13683,-1.0146,-0.16432,-42.18,44.22,-25.02
2.3427,-10.46,1.0215,0.18509,-1.0495,0.0039706,-43.86,44.04,-24.12
1.9477,-9.8884,0.96704,0.29199,-0.96975,0.41478,-46.86,43.56,-22.38
1.4846,-9.5887,0.88532,0.32803,-0.71227,0.61636,-48.18,43.32,-21.6
1.1577,-9.3163,0.89894,0.36652,-0.27611,0.81215,-49.38,43.26,-20.64
0.98067,-8.3357,0.76274,0.40561,0.26542,1.015,-51.48,42.9,-19.2
1.3076,-7.8862,0.6674,0.49816,0.92638,1.3363,-52.2,42.9,-18.66
1.757,-7.8589,0.40861,0.64996,1.0571,1.4554,-52.86,42.78,-18.36
2.6968,-8.5536,0.027241,0.78893,1.1564,1.6796,-53.22,43.02,-18.06
3.3506,-9.0439,-0.14982,1.0183,0.92668,1.9752,-53.16,43.26,-17.88
3.514,-9.2618,-0.34051,1.1365,0.63255,2.1258,-52.98,43.56,-18.24
3.5413,-9.5887,-0.70826,1.2275,0.34117,2.222,-51.84,44.46,-19.02
3.4732,-9.5887,-0.8036,1.2648,0.15058,2.3344,-50.88,44.88,-19.5
3.3506,-9.3844,-1.0896,1.2773,0.059865,2.368,-49.86,45.3,-20.16
3.5685,-9.5751,-1.6208,1.3002,0.086743,2.4951,-47.58,46.26,-21.84
3.7728,-9.5342,-1.8387,1.2792,0.12492,2.5265,-46.2,46.86,-22.68
3.5958,-9.4525,-2.2201,1.2333,0.27611,2.522,-44.76,47.28,-23.58
2.2882,-10.42,-4.1542,0.38943,1.3848,2.2367,-41.52,48.24,-25.32
3.2144,-9.5751,-4.1406,0.29535,3.233,1.679,-39.72,48.54,-26.22
8.717,-8.4038,-2.5606,0.44043,1.7593,1.7306,-35.94,49.26,-27.72
8.2131,-8.8668,-2.5061,0.48075,0.039095,1.9105,-33.96,49.38,-28.44
7.5184,-9.3163,-2.1248,0.54214,-0.58887,1.9587,-31.98,49.62,-29.28
6.3062,-10.093,-2.3155,0.44776,-1.189,1.8699,-30.0,49.74,-29.82
5.1757,-11.686,-2.5198,0.27306,-0.7645,1.5708,-26.28,49.98,-30.78
5.2302,-12.027,-2.5061,-0.083689,-0.2138,0.98655,-24.48,50.04,-31.14
4.7126,-12.299,-1.9613,-0.19823,0.0058032,0.83841,-20.76,50.34,-31.8
4.9578,-12.476,-1.6072,-0.45357,0.967,0.39706,-18.96,50.58,-32.04
5.6252,-12.313,-1.3484,-0.49816,1.2452,0.25443,-17.22,50.58,-32.34
6.2517,-12.177,-1.1577,-0.49511,1.5308,-0.12431,-15.66,50.82,-32.7
6.9328,-12.027,-0.61292,-0.38943,1.3873,-0.33903,-12.72,51.3,-33.12
7.1098,-12.095,-0.31327,-0.27855,1.1228,-0.51771,-11.52,51.6,-33.3
7.3277,-12.149,-0.054481,-0.20983,0.77244,-0.66737,-10.5,51.78,-33.24
7.4776,-11.264,-0.027241,-0.12859,0.32956,-0.81581,-8.94,52.38,-32.94
7.3141,-10.174,-0.10896,-0.044593,-0.20372,-1.0119,-8.4,52.74,-32.94
7.1234,-9.6432,0.081722,0.039095,-0.98502,-1.3549,-8.1,53.16,-32.82
5.993,-9.4798,0.38137,0.051618,-1.3451,-1.554,-8.04,54.0,-32.46
5.6933,-9.6023,0.39499,-0.011606,-1.5266,-1.821,-8.4,54.36,-32.34
5.2847,-9.7658,0.47671,-0.089186,-1.5653,-1.89,-8.88,54.78,-32.28
4.699,-10.283,0.85808,-0.24587,-1.4936,-2.0107,-10.98,55.2,-31.8
4.5628,-10.569,1.076,-0.37324,-1.3781,-2.0372,-12.48,55.44,-31.56
4.4675,-10.733,1.1577,-0.51191,-1.2456,-2.0113,-14.22,55.62,-31.2
4.3449,-10.161,1.4029,-0.63011,-1.1041,-1.9832,-18.18,55.92,-30.48
3.9908,-9.5615,1.6753,-0.70066,-0.93218,-1.9648,-20.52,56.1,-30.12
3.4459,-8.3493,1.7843,-0.71105,-0.72235,-1.9856,-25.56,56.1,-29.28
3.2144,-7.7772,1.6889,-0.6243,-0.34025,-2.0574,-28.2,56.04,-28.74
3.1463,-7.355,1.5663,-0.51221,-0.13897,-2.0858,-31.02,55.8,-28.02
3.1872,-7.2188,1.5936,-0.38698,-0.009163,-2.0708,-33.9,55.38,-27.3
3.0646,-6.674,1.7025,-0.2755,0.0061087,-2.0162,-39.66,54.12,-26.16
2.9011,-6.1155,1.5936,-0.15974,-0.034208,-1.97,-42.48,53.46,-25.44
2.942,-6.17,0.99429,-0.01405,-0.12156,-1.8854,-45.18,52.56,-24.6
2.9692,-6.9872,0.32689,0.20831,-0.36499,-1.6594,-50.28,50.4,-23.34
3.1463,-7.8589,0.32689,0.27519,-0.60048,-1.3986,-52.44,49.14,-22.62
3.3506,-8.3901,-0.20431,0.24221,-0.83597,-1.0495,-54.48,47.76,-21.9
3.1599,-10.188,-0.24517,0.13042,-1.0479,-0.59254,-58.56,44.82,-20.34
3.1872,-10.992,-0.42223,-0.055589,-1.1622,-0.11851,-60.24,43.2,-19.44
2.7513,-12.231,-0.23155,-0.29016,-1.1622,0.34117,-63.48,40.08,-17.7
2.3836,-12.653,0.10896,-0.64263,-0.85155,0.95417,-64.74,38.76,-16.8
1.9205,-12.953,0.51757,-0.82864,-0.41417,1.2596,-65.76,37.56,-15.9
1.7434,-12.803,0.85808,-0.89186,-0.13775,1.3806,-66.54,36.54,-15.06
1.7025,-12.231,1.5391,-0.86224,0.79779,1.7529,-67.74,35.16,-13.26
2.3155,-11.305,1.2803,-0.67256,1.2657,1.9951,-67.98,34.74,-12.54
2.9011,-9.8066,0.74912,-0.096822,1.4065,2.2339,-67.8,34.68,-11.34
3.7865,-8.322,0.38137,0.39828,1.0996,2.2452,-67.56,35.04,-11.1
4.018,-8.6625,0.36775,0.6298,0.85399,2.2147,-67.08,35.64,-10.86
4.1406,-9.5342,0.34051,1.1298,0.040317,2.0953,-66.48,36.48,-10.74
3.7728,-10.529,0.20431,1.2703,-0.37629,1.9899,-64.56,38.46,-10.86
3.4868,-10.46,-0.081722,1.3341,-0.60323,1.9416,-63.48,39.54,-11.22
2.8875,-10.106,-0.61292,1.3503,-0.62675,1.9731,-62.46,40.74,-11.4
2.7377,-9.7113,-0.78998,1.2712,-0.28741,2.054,-59.88,43.38,-12.54
2.6696,-9.3027,-1.0351,1.1964,0.076358,2.1136,-58.44,44.58,-12.96
2.9011,-8.9486,-1.076,1.109,0.46059,2.1802,-56.82,45.78,-13.74
3.8273,-8.4719,-1.5119,1.0211,0.74037,2.2226,-53.1,48.12,-15.18
4.3858,-8.431,-1.6208,0.89706,0.85368,2.2122,-51.12,49.02,-15.96
5.0531,-8.2131,-1.8387,0.77366,0.79718,2.1231,-49.08,50.1,-16.5
5.0668,-7.8317,-1.7162,0.56902,0.69211,1.886,-45.06,51.78,-17.76
4.9714,-7.4095,-1.7979,0.49266,0.6576,1.6481,-42.9,52.62,-18.36
5.0259,-7.2869,-1.8387,0.47342,0.67959,1.379,-40.56,53.28,-18.84
5.4345,-7.6683,-2.2474,0.47922,0.64416,1.1545,-36.24,54.48,-19.98
5.5707,-8.2131,-2.4653,0.46304,0.5681,0.96547,-34.02,54.84,-20.52
5.7069,-8.5808,-2.547,0.31826,0.41722,0.68203,-29.64,55.74,-21.9
5.6524,-9.0848,-2.3155,0.23579,0.30055,0.48717,-27.6,56.04,-22.5
5.6116,-9.6432,-2.0839,0.20769,0.24526,0.40592,-25.8,56.4,-23.16
5.7478,-10.338,-2.0567,0.12645,0.12767,0.27458,-24.18,56.76,-23.7
6.674,-12.354,-2.1248,0.0079412,-0.17379,0.15211,-21.36,57.18,-24.84
7.069,-14.206,-2.0431,-0.082161,-0.44013,0.053451,-20.16,57.48,-25.38
7.2869,-15.337,-1.7162,-0.19242,-0.65363,-0.11973,-19.32,57.6,-25.92
6.9464,-16.358,-0.8036,-0.45326,-0.81703,-0.54306,-18.06,57.66,-26.46
6.5105,-15.868,-0.43585,-0.54123,-0.80146,-0.72357,-17.94,57.66,-26.58
6.3198,-15.418,-0.32689,-0.68295,-0.70585,-1.12,-18.12,57.66,-26.58
5.8704,-12.844,-0.1362,-0.80665,-0.5959,-1.6955,-18.9,57.78,-26.22
5.5707,-11.591,0.21793,-0.77916,-0.60781,-2.0452,-19.68,57.78,-25.8
5.2847,-11.005,0.54481,-0.70066,-0.64294,-2.375,-20.64,57.54,-25.26
5.2847,-11.005,0.54481,-0.62675,-0.63408,-2.7287,-20.64,57.54,-25.26
4.9987,-11.06,1.3212,-0.61575,-0.64141,-2.8036,-23.7,56.7,-23.94
4.9033,-10.964,1.5527,-0.58246,-0.79138,-2.8662,-25.56,56.04,-23.22
4.8216,-11.019,1.7434,-0.61361,-0.9279,-2.7834,-27.54,55.08,-22.38
4.4402,-10.215,2.1248,-0.65485,-1.0629,-2.6423,-32.04,52.98,-20.34
4.1814,-9.3436,2.2474,-0.66401,-1.2077,-2.4581,-36.78,50.22,-18.24
3.8001,-8.4719,2.2746,-0.64202,-1.2923,-2.3048,-41.46,47.28,-16.02
3.2144,-7.75,2.0567,-0.58826,-1.2963,-2.2,-45.96,43.86,-13.8
2.7922,-6.9736,2.0294,-0.52046,-1.1475,-2.0507,-50.04,39.9,-11.52
2.6423,-5.9385,1.8387,-0.47678,-1.0012,-1.9789,-53.4,36.06,-9.54
2.5606,-5.2847,1.8796,-0.42364,-0.87965,-1.8955,-55.74,32.4,-7.8
2.5742,-5.0531,1.7843,-0.35919,-0.80879,-1.8201,-56.52,30.54,-7.02
2.6015,-4.699,1.7025,-0.28833,-0.75075,-1.719,-57.72,27.3,-5.46
2.7513,-4.018,1.471,-0.10843,-0.7813,-1.511,-58.44,24.18,-3.96
2.9556,-3.3915,1.1305,0.080023,-0.96303,-1.2892,-58.5,21.48,-2.58
3.3915,-4.5083,0.74912,0.26328,-1.2755,-0.92882,-58.56,18.9,-1.08
3.732,-6.5378,0.57205,0.34086,-1.66,-0.50641,-58.5,17.64,-0.48
3.9227,-7.4095,0.39499,0.27367,-1.9914,-0.11484,-58.2,16.5,-0.48
3.909,-7.7364,0.49033,0.12859,-2.1951,0.23854,-57.66,14.58,1.56
3.4051,-7.9543,0.57205,-0.094379,-2.1072,0.71777,-57.42,13.68,2.52
2.9148,-8.4582,0.61292,-0.24435,-1.7205,0.92607,-57.12,12.84,3.42
2.3563,-9.7113,0.7355,-0.33353,-1.1649,1.0354,-56.16,11.82,5.52
2.2882,-10.433,1.0079,-0.35216,-0.57299,1.1032,-55.74,11.4,6.42
2.3972,-11.319,1.2939,-0.33262,0.0094684,1.1857,-55.2,11.04,7.38
2.3291,-11.114,1.9613,-0.27917,0.59682,1.284,-54.18,10.62,9.12
2.3018,-10.447,1.9886,0.025656,1.3653,1.3992,-53.7,10.56,9.96
2.438,-9.8066,1.7979,0.42058,1.6909,1.522,-53.34,10.5,10.62
3.1599,-9.221,0.78998,0.8546,1.8112,1.6399,-52.32,10.86,11.4
4.4539,-8.7715,-0.1362,1.2828,1.5944,1.7718,-52.02,11.28,11.58
5.0668,-8.9077,-0.53119,1.5803,1.0021,1.8943,-51.72,11.88,11.82
5.3937,-10.147,-0.35413,1.7633,0.19639,1.9835,-50.94,13.14,11.52
5.2847,-10.597,-0.35413,1.7889,-0.91599,1.9468,-50.7,13.8,11.1
4.8352,-11.319,-0.84446,1.7584,-1.3182,1.8466,-50.34,14.52,10.8
4.5764,-11.373,-1.076,1.7446,-1.4197,1.7941,-49.98,15.36,10.2
3.732,-11.005,-2.0567,1.7746,-1.2486,1.6564,-49.32,17.16,9.36
3.514,-10.392,-2.5606,1.7843,-0.80268,1.5223,-48.9,18.12,8.94
3.7728,-9.0712,-3.3097,1.7459,-0.063835,1.2559,-48.06,20.22,8.16
4.522,-8.3493,-3.514,1.6799,0.18876,1.0873,-47.58,21.24,7.86
4.8761,-7.9679,-3.5277,1.6365,0.11332,0.92577,-46.92,22.32,7.5
5.1076,-7.8589,-3.623,1.6081,-0.013439,0.85277,-46.44,23.46,7.08
3.7184,-8.4038,-5.598,1.4661,-0.061087,0.58521,-44.94,25.26,6.6
1.9613,-9.6841,-6.4152,1.0302,1.8485,0.30085,-44.04,26.04,6.24
4.0316,-10.597,-5.0804,0.33659,2.8897,-0.1292,-43.38,26.7,6.0
11.087,-7.8589,-3.7047,0.42852,-0.1909,-0.079107,-41.76,27.9,5.28
10.229,-8.3629,-2.7649,0.76664,-2.952,0.66157,-41.22,28.38,4.98
8.4446,-9.1801,-1.9613,0.89309,-3.9789,0.83444,-40.5,28.62,4.62
5.2166,-9.793,-0.62654,0.89767,-4.5354,1.0079,-39.96,29.1,4.38
2.7922,-10.542,0.38137,0.67012,-3.8591,0.8656,-38.64,29.46,4.02
2.8875,-11.141,0.39499,0.37507,-3.0061,0.75198,-37.86,29.7,4.14
3.2961,-11.564,0.72188,-0.019242,-2.2278,0.70524,-37.14,29.82,4.32
4.0316,-12.149,1.185,-0.57146,-1.1469,0.59529,-35.64,29.88,4.68
5.7614,-13.539,1.4301,-0.78405,-0.66279,0.55619,-34.92,29.76,5.1
6.8647,-14.315,1.4846,-0.9444,-0.50824,0.4609,-34.2,29.64,5.4
9.4661,-13.906,1.5119,-0.95753,-0.75564,0.33384,-32.94,29.28,6.54
8.9622,-12.054,1.8932,-0.92057,-1.2776,0.010385,-32.28,29.22,7.14
7.4503,-10.42,2.547,-0.78466,-1.7999,-0.76328,-30.72,29.1,9.06
5.5571,-9.5615,2.6151,-0.68692,-1.7294,-1.2816,-29.82,28.92,10.08
5.7342,-10.147,2.4517,-0.63561,-1.4749,-1.5614,-28.98,28.92,11.04
6.3471,-10.597,2.3427,-0.63347,-1.3812,-1.6331,-28.14,28.62,11.76
7.1234,-10.992,2.7786,-0.70433,-1.4322,-1.6671,-27.06,28.14,13.2
7.0281,-10.406,3.1872,-0.8042,-1.6677,-1.6967,-26.58,27.78,13.68
6.0474,-9.0848,3.4187,-0.87537,-1.9355,-1.7843,-26.1,27.42,14.04
5.0259,-8.717,3.3097,-0.90897,-1.9184,-1.9697,-25.5,26.46,14.94
4.7944,-8.54,3.0918,-0.90133,-1.6765,-2.0754,-25.2,26.1,15.36
4.7944,-8.6353,3.051,-0.85552,-1.3848,-2.1588,-25.08,25.62,15.78
4.9169,-9.1801,2.9692,-0.81948,-1.1747,-2.1887,-24.78,24.6,16.68
4.8625,-9.2482,2.9965,-0.82131,-1.0931,-2.2098,-24.54,23.88,17.04
4.7671,-9.2891,3.0373,-0.8433,-1.0788,-2.1863,-24.48,23.34,17.16
4.3177,-9.0167,3.0782,-0.89614,-1.0434,-2.091,-24.72,22.38,17.94
4.1542,-8.8124,3.0101,-0.89522,-0.97586,-1.9997,-24.84,21.66,18.3
4.1133,-8.7443,2.9148,-0.87904,-0.93249,-1.9526,-24.72,21.06,18.72
3.909,-8.5127,2.9011,-0.76358,-0.80634,-1.8057,-24.66,19.68,19.32
3.6911,-8.6217,2.7786,-0.63102,-0.72388,-1.6698,-24.66,19.08,19.62
3.8001,-9.0575,2.6968,-0.49297,-0.62889,-1.4759,-24.78,18.42,19.92
3.6911,-9.507,2.4789,-0.35583,-0.55925,-1.2679,-24.72,17.22,20.94
3.7047,-8.9077,2.152,-0.19853,-0.55528,-1.0345,-24.78,16.68,21.24
3.6503,-8.7306,1.9613,0.014355,-0.60231,-0.76847,-24.72,16.2,21.6
3.228,-9.1256,1.5391,0.38576,-0.65821,-0.34392,-24.42,15.42,22.2
3.0782,-8.9622,1.2122,0.59254,-0.60934,-0.046731,-24.36,15.06,22.56
2.9556,-8.3493,0.70826,0.87659,-0.43738,0.39767,-24.06,14.46,23.1
3.1735,-6.5514,0.70826,1.0754,-0.3485,0.60781,-23.88,14.16,23.28
3.4732,-5.7342,-0.62654,1.3198,-0.39279,0.71563,-23.7,14.04,23.4
3.6503,-5.5299,-0.96704,1.5644,-0.58093,0.78649,-23.64,14.1,23.4
3.9908,-7.0145,-0.95342,1.7379,-0.86834,0.88362,-23.28,14.46,23.76
3.8546,-8.3629,-0.84446,1.8039,-1.2,0.96944,-23.04,14.76,23.76
3.514,-9.7658,-0.65378,1.788,-1.3347,1.0055,-22.62,15.12,23.88
3.2689,-10.297,-0.61292,1.5012,-1.5174,1.1713,-22.32,15.6,23.76
2.9692,-10.379,-0.61292,1.4111,-1.3723,1.2932,-21.78,16.26,23.4
2.7241,-10.106,-0.91256,1.4068,-1.2535,1.3387,-21.24,16.92,23.4
2.6423,-8.9622,-1.2258,1.5382,-0.72968,1.3885,-19.98,18.12,23.34
2.833,-8.5808,-1.471,1.6866,-0.40134,1.3476,-19.32,18.9,23.34
3.2008,-8.4446,-1.7706,1.8051,-0.22327,1.2779,-17.88,20.64,23.1
4.1542,-8.4446,-2.3836,1.8427,-0.27397,1.1997,-17.04,21.42,22.8
4.2904,-8.4719,-2.3699,1.7113,-0.69089,1.0993,-16.08,22.26,22.62
4.2768,-8.6625,-2.3836,1.6035,-0.97433,1.0464,-15.24,23.22,22.44
4.0997,-8.9758,-2.4653,1.4838,-1.1936,1.0327,-13.56,24.84,21.84
3.9908,-9.2482,-2.7649,1.3244,-1.314,1.0208,-12.54,25.62,21.48
4.0316,-9.3572,-3.2008,1.1817,-1.3592,1.0217,-11.4,26.28,21.24
3.909,-9.4117,-3.5004,0.94043,-1.2624,1.0043,-9.36,27.6,20.64
3.8001,-9.5342,-3.3778,0.81612,-1.0809,0.97433,-8.34,28.08,20.4
4.0316,-9.7658,-3.1599,0.72052,-0.88087,0.90897,-7.2,28.5,19.98
4.2904,-10.12,-3.0237,0.64721,-0.74678,0.84025,-6.3,29.1,19.44
5.3119,-11.264,-2.6423,0.53512,-0.73762,0.77733,-4.2,30.06,18.6
5.7614,-11.577,-2.2746,0.35736,-0.82161,0.70463,-3.12,30.36,18.0
6.1019,-11.441,-0.83084,0.20983,-0.90561,0.61484,-2.16,30.72,17.7
5.9112,-12.381,-0.21793,0.19487,-0.956,0.51282,-0.24,31.44,16.92
6.2517,-13.688,-0.16344,0.22174,-0.96456,0.42364,0.66,31.62,16.5
6.7285,-14.655,0.081722,-0.10507,-0.89675,0.27703,1.74,31.86,15.96
7.8998,-13.225,0.027241,-0.13989,-0.9893,0.12248,3.48,32.16,15.3
7.6546,-11.319,0.51757,-0.1631,-1.2651,-0.12492,4.32,32.28,14.88
6.8919,-10.052,1.185,-0.13531,-1.5598,-0.47067,4.98,32.64,14.64
5.884,-9.793,1.6481,-0.076358,-1.8879,-0.97097,6.3,33.12,14.1
6.1155,-10.529,1.3484,-0.088575,-2.0375,-1.1747,6.72,33.18,13.92
6.279,-11.046,1.1986,-0.12278,-2.1093,-1.2507,7.2,33.18,13.68
6.6876,-11.536,1.3484,-0.2697,-2.3378,-1.3292,7.98,33.6,13.02
6.2654,-11.319,1.6617,-0.43494,-2.4432,-1.3564,8.04,33.78,12.96
5.4345,-10.855,2.0703,-0.61789,-2.3616,-1.4459,8.34,33.9,12.66
4.0452,-9.221,1.9068,-0.80817,-1.8427,-1.6826,8.28,34.14,12.42
3.5549,-8.5127,1.6344,-0.8491,-1.3531,-1.8353,8.28,34.38,12.24
3.6094,-8.3493,1.5119,-0.83078,-0.8995,-1.9532,7.98,34.62,12.18
3.8409,-8.1858,1.3212,-0.81153,-0.5901,-2.0458,7.68,34.86,12.06
4.018,-8.0632,1.3348,-0.81123,-0.46701,-2.0669,6.6,35.58,11.82
3.9635,-8.1995,1.4438,-0.81551,-0.4725,-2.0617,6.12,35.76,11.58
3.7456,-8.4855,1.4029,-0.84635,-0.54734,-2.0275,4.68,36.06,11.34
3.5004,-8.6353,1.2939,-0.85185,-0.63316,-1.9535,4.14,36.3,11.22
3.3778,-8.8941,1.2122,-0.81673,-0.6802,-1.8262,3.3,36.66,11.16
3.1872,-10.161,0.70826,-0.72571,-0.64782,-1.5556,1.68,36.9,11.52
3.2144,-11.128,0.6674,-0.66829,-0.59926,-1.2972,0.9,36.9,11.64
3.1191,-12.0,0.61292,-0.61025,-0.47098,-0.81795,-0.66,37.2,11.82
3.1599,-13.729,0.6674,-0.58124,-0.35797,-0.45815,-1.56,37.26,12.06
2.9965,-14.152,0.8717,-0.56322,-0.21991,-0.10476,-2.28,37.08,12.3
2.8875,-14.029,1.0215,-0.52657,-0.13531,0.050702,-2.82,36.96,12.54
2.4789,-13.443,1.2122,-0.32406,0.16402,0.44624,-3.3,36.78,12.84
1.3484,-12.313,1.0079,-0.076664,0.39492,0.73487,-4.02,36.36,13.5
0.57205,-11.264,0.57205,0.18234,0.66615,1.0278,-4.44,36.24,13.8
-0.054481,-9.398,-0.16344,0.44104,0.93096,1.2737,-4.68,36.18,13.98
0.24517,-8.5808,-0.64016,0.8375,1.2089,1.5342,-5.1,36.06,14.4
1.0624,-8.54,-0.88532,0.98899,1.2031,1.6469,-4.92,35.82,14.58
1.2395,-8.6081,-0.96704,1.0302,1.1145,1.6958,-5.04,35.76,14.76
1.2531,-9.7385,-0.9398,1.0208,0.5849,1.763,-4.74,35.94,14.46
1.1169,-10.283,-0.81722,0.89553,0.28558,1.8121,-4.44,35.82,14.34
1.5663,-9.7113,-0.49033,0.65485,0.20556,1.8622,-4.2,35.88,14.28
1.9613,-8.6353,-0.38137,0.45418,0.30849,2.0455,-3.24,36.24,13.62
2.3972,-8.0088,-0.57205,0.48411,0.43158,2.1402,-2.76,36.42,13.38
2.7649,-7.7091,-0.68102,0.61697,0.52901,2.1603,-2.22,36.66,13.2
3.4051,-7.5593,-1.0079,0.79443,0.52718,2.1258,-0.9,37.08,12.66
3.732,-7.6002,-1.0351,0.94654,0.43158,2.0608,-0.3,37.2,12.48
4.0589,-8.145,-1.0215,1.0278,0.2529,1.9728,0.6,37.26,12.18
4.3721,-8.7987,-1.1577,1.0198,-0.043677,1.8625,2.46,37.38,11.82
4.4402,-9.6023,-1.3484,0.94623,-0.19853,1.7822,3.42,37.56,11.46
4.413,-9.9292,-1.362,0.82772,-0.24038,1.7281,4.74,37.62,11.1
4.6445,-11.427,-1.5119,0.77519,-0.17776,1.6759,6.9,37.5,10.56
4.985,-12.449,-1.8115,0.70219,-0.057727,1.5846,7.98,37.44,10.32
5.4209,-12.667,-1.9613,0.65637,0.065668,1.4478,9.12,37.5,9.96
5.8159,-12.762,-1.9886,0.59682,0.17349,1.1756,11.34,37.38,9.54
6.279,-12.612,-2.0567,0.55741,0.17349,0.89492,13.68,37.14,8.82
6.5786,-12.204,-2.1112,0.5061,0.13347,0.56077,15.96,36.66,8.1
6.8783,-12.395,-2.1793,0.47159,0.023518,0.23488,17.82,36.42,7.08
7.1507,-12.313,-2.4108,0.40714,-0.18692,-0.044899,19.2,36.06,6.12
7.3141,-11.659,-2.1793,0.28527,-0.47953,-0.30268,20.16,35.94,5.4
7.2596,-11.087,-1.9205,0.1741,-0.82711,-0.55864,20.52,35.76,5.28
6.7421,-10.147,-1.0079,-0.0036652,-1.19,-1.0394,21.24,35.58,4.86
6.2517,-9.8475,-0.47671,-0.10873,-1.3219,-1.3656,21.54,35.4,4.32
5.9521,-10.025,0.068102,-0.22419,-1.4129,-1.6921,21.36,35.22,3.96
5.4754,-10.542,0.76274,-0.36591,-1.4093,-1.9853,20.7,35.16,3.6
4.9578,-11.141,1.3212,-0.51191,-1.2972,-2.1915,19.86,35.22,3.42
4.6718,-11.387,1.58,-0.74067,-0.98502,-2.4132,19.32,35.28,3.36
4.5901,-11.237,1.7706,-0.88087,-0.72754,-2.5217,18.72,35.28,3.42
4.5083,-10.801,1.9886,-0.91874,-0.61514,-2.5501,18.12,35.28,3.18
4.4675,-10.106,2.4653,-1.0067,-0.37874,-2.5727,16.38,35.4,2.82
4.2904,-9.9565,2.6015,-1.04,-0.28314,-2.5989,15.42,35.64,2.64
4.0316,-9.8066,2.6423,-1.0162,-0.26298,-2.6341,14.28,35.7,2.1
3.9771,-9.5751,2.547,-0.91691,-0.354,-2.6276,12.06,35.94,1.92
3.8954,-9.5479,2.5061,-0.80665,-0.49388,-2.5748,11.04,36.06,1.68
3.7047,-9.3027,2.4517,-0.74342,-0.58429,-2.5357,9.9,36.24,1.32
3.4459,-9.112,2.3155,-0.53054,-0.8772,-2.3946,7.68,36.54,0.66
3.1872,-9.0031,2.0839,-0.40195,-1.0916,-2.2455,6.66,36.66,0.3
3.0373,-9.221,1.9341,-0.28008,-1.2801,-2.0733,5.7,36.84,-0.24
2.5198,-9.9973,1.5119,-0.17776,-1.42,-1.7342,3.54,37.08,-1.14
2.4653,-10.651,1.3484,-0.07422,-1.4429,-1.4319,2.64,37.14,-1.86
2.3699,-11.128,1.1441,-0.047953,-1.3439,-1.1054,1.62,37.26,-2.46
2.3699,-11.754,0.95342,-0.062003,-1.2226,-0.7761,-0.24,37.26,-3.3
2.3836,-11.536,0.74912,-0.096517,-1.1154,-0.47006,-1.02,37.32,-3.96
2.2474,-11.21,0.7355,-0.14875,-1.0168,-0.19212,-1.86,37.38,-4.32
1.7298,-10.447,0.89894,-0.20647,-0.75259,0.1518,-3.42,37.32,-5.46
1.3757,-10.12,0.85808,-0.18082,-0.4667,0.38393,-4.08,37.44,-5.88
1.2803,-10.025,0.6674,-0.14325,-0.29169,0.49572,-4.68,37.38,-6.3
1.2395,-8.5944,0.44947,0.042455,0.27428,0.83689,-5.88,37.44,-7.14
1.2531,-7.6819,0.46309,0.22113,0.61942,1.0379,-6.42,37.62,-7.38
1.3076,-7.5184,0.25879,0.40897,0.90011,1.2022,-6.9,37.62,-7.5
2.2474,-8.3765,-0.14982,0.58399,1.0498,1.3824,-7.32,37.74,-8.22
2.7104,-8.9894,-0.43585,0.82681,0.89828,1.69,-7.44,37.98,-8.34
3.0237,-9.2482,-0.61292,0.92729,0.61209,1.9126,-7.32,38.16,-8.7
3.2553,-9.3436,-0.89894,0.96792,0.31612,2.0809,-6.96,38.58,-9.42
3.1599,-9.1529,-1.1169,0.99082,0.12278,2.1945,-6.78,38.58,-9.66
2.9692,-8.8805,-1.3212,0.99388,0.065057,2.2663,-6.3,38.64,-9.9
2.5606,-8.54,-1.6344,1.0314,0.25901,2.3366,-5.04,39.12,-9.96
2.5742,-8.5536,-1.8387,0.9728,0.38576,2.4062,-4.38,39.24,-10.2
2.7786,-8.6217,-1.3484,0.93707,0.45754,2.4117,-3.66,39.36,-10.08
2.547,-8.4446,-1.2395,0.7364,0.8827,2.5113,-1.8,39.6,-10.14
2.9148,-8.6081,-1.0215,0.76938,1.1344,2.4777,-0.66,39.42,-10.08
4.6718,-9.5615,-1.0215,0.75564,1.1457,2.4648,2.1,39.48,-9.84
4.9578,-9.9429,-1.1032,0.69669,1.0327,2.4151,3.6,39.36,-9.6
5.38,-10.351,-1.2531,0.63622,0.84727,2.3301,4.98,39.12,-9.54
5.993,-11.605,-1.2939,0.57941,0.65393,2.2107,8.04,38.46,-8.88
6.2245,-12.231,-1.362,0.53603,0.62858,2.0611,9.54,38.1,-8.64
6.2517,-12.64,-1.362,0.48655,0.67989,1.8812,11.28,37.86,-8.46
6.4833,-12.939,-1.5391,0.46609,0.77427,1.6683,14.28,37.08,-8.1
6.7421,-12.967,-1.8387,0.45082,0.83658,1.4642,16.02,36.6,-7.86
7.4095,-13.144,-2.3972,0.46914,0.76205,1.1484,19.26,35.58,-7.8
8.2539,-13.307,-2.7377,0.45968,0.67256,1.0208,20.76,35.1,-7.86
8.4038,-13.157,-2.7377,0.32315,0.21808,0.57788,22.14,34.68,-7.86
8.4174,-12.83,-2.5879,0.13378,-0.24679,0.18662,23.34,34.32,-7.98
7.4095,-10.515,-1.4982,-0.069944,-0.68111,-0.27886,25.5,33.42,-8.28
6.9736,-10.283,-1.0488,-0.13958,-0.97128,-0.77091,26.22,33.06,-8.52
6.4424,-10.937,-0.85808,-0.21105,-1.2278,-1.3528,27.0,32.82,-8.88
6.3743,-11.414,-0.61292,-0.3149,-1.285,-1.5183,28.14,32.34,-9.6
6.0883,-11.346,0.19068,-0.5455,-1.4044,-1.8271,28.38,32.34,-10.2
5.4754,-11.441,0.58567,-0.68661,-1.4694,-2.0986,28.38,32.34,-10.74
5.1485,-11.645,0.7355,-0.94134,-1.2883,-2.4355,28.26,32.52,-11.46
4.5492,-11.673,1.3076,-1.0394,-0.99296,-2.6594,27.0,32.88,-13.44
4.5083,-11.509,1.6344,-1.076,-0.50732,-2.8405,25.98,33.24,-14.28
4.4402,-10.433,2.3972,-1.0721,-0.38637,-2.8482,24.66,33.66,-15.36
4.3177,-9.5887,2.4789,-1.0266,-0.26634,-2.8647,21.48,34.5,-17.22
4.2223,-8.9894,2.3155,-0.90836,-0.30146,-2.8317,19.5,34.98,-18.12
4.0316,-8.431,2.2882,-0.64568,-0.613,-2.7895,17.16,35.46,-19.26
4.0861,-7.9543,2.1793,-0.48319,-0.89339,-2.7031,11.64,36.48,-21.0
4.0044,-7.9407,2.152,-0.34789,-1.2666,-2.4942,8.7,36.6,-21.66
3.732,-7.9134,1.9886,-0.3372,-1.4291,-2.3558,2.1,36.96,-22.62
3.1599,-8.3084,1.9613,-0.3708,-1.5052,-2.2287,-1.26,37.02,-22.8
3.0373,-8.7851,1.8115,-0.39523,-1.5128,-2.1557,-4.56,36.9,-22.62
3.051,-9.1665,1.5663,-0.45845,-1.482,-1.8784,-7.86,36.72,-22.2
2.7104,-10.719,1.8387,-0.50946,-1.4264,-1.6353,-13.8,36.36,-20.4
2.6015,-10.869,1.7298,-0.55986,-1.3186,-1.3824,-16.56,36.0,-19.2
2.5061,-11.046,1.5119,-0.49847,-1.0873,-0.97891,-21.48,35.16,-16.5
2.438,-11.373,1.3212,-0.44899,-1.0156,-0.86285,-23.52,34.8,-15.12
2.1929,-11.591,1.4438,-0.30543,-0.82467,-0.51832,-25.38,34.38,-13.5
1.5255,-11.7,1.4165,-0.2303,-0.6408,-0.27642,-26.94,34.02,-11.64
0.99429,-11.645,1.471,-0.1854,-0.30849,0.029322,-28.08,33.54,-9.84
0.027241,-10.964,1.1986,-0.14325,0.19731,0.34544,-29.94,33.3,-6.42
0.31327,-10.42,1.0079,-0.012217,0.94654,0.86437,-30.36,33.3,-4.74
1.076,-9.1256,0.83084,0.062308,1.1332,1.0308,-30.66,33.24,-3.24
1.7025,-8.2403,0.38137,0.35888,1.3705,1.4404,-30.66,33.36,-1.08
2.3563,-8.4446,-0.19068,0.59498,1.3201,1.6438,-30.54,33.6,-0.3
2.9148,-8.7443,-0.74912,0.80084,1.0904,1.8207,-30.3,33.78,0.24
3.2553,-9.0167,-1.0351,0.94898,0.70891,1.992,-29.94,34.14,0.48
3.4596,-9.7385,-1.5119,0.97525,0.19884,2.2568,-29.04,34.74,0.3
3.2553,-9.6704,-1.4846,0.89431,0.11301,2.4389,-28.5,35.4,0.06
2.9284,-9.5751,-1.3212,0.84696,0.17226,2.5195,-28.02,35.94,-0.24
2.5334,-9.2482,-1.0624,0.6408,0.71166,2.6991,-26.88,36.96,-1.5
2.656,-9.1665,-1.1032,0.54764,1.186,2.7495,-26.16,37.5,-2.28
3.0918,-9.3163,-1.2803,0.52595,1.6176,2.7077,-25.2,38.1,-3.0
3.9635,-9.0439,-1.1441,0.45357,1.9783,2.5934,-23.16,39.36,-4.98
4.5356,-8.7034,-1.1577,0.44227,2.0177,2.5342,-21.84,40.02,-5.82
4.8625,-8.6353,-1.0624,0.40042,1.9361,2.4312,-20.34,40.62,-6.78
5.7069,-8.3629,-0.99429,0.37202,1.4255,2.2605,-17.4,41.4,-8.28
5.993,-8.4038,-1.1169,0.39156,0.9615,2.1606,-15.6,41.88,-9.18
6.3471,-8.9077,-1.4846,0.4383,0.45937,2.0528,-13.8,42.24,-10.08
6.4833,-10.215,-2.0158,0.49511,-0.12278,1.835,-10.14,43.08,-11.4
6.1836,-10.992,-1.9613,0.43646,-0.26267,1.6371,-8.22,43.2,-12.06
6.0474,-11.319,-1.9341,0.35339,-0.15394,1.4001,-6.3,43.38,-12.78
5.6661,-12.258,-1.6617,0.24832,0.10812,1.1438,-2.4,43.68,-14.22
5.8159,-12.708,-1.7434,0.14783,0.43249,0.86407,-0.6,43.8,-14.82
6.1155,-12.912,-1.757,0.029016,0.71838,0.57055,1.14,43.68,-15.42
6.96,-12.994,-1.6344,0.010996,0.91141,0.10537,4.26,43.62,-16.14
7.2869,-13.021,-1.5527,0.019548,0.78863,-0.22541,5.4,43.5,-16.56
7.5457,-12.926,-1.2531,0.024129,0.64019,-0.40775,6.48,43.56,-16.86
7.6274,-12.217,-1.2395,0.010996,-0.011912,-1.0043,7.56,43.62,-17.1
6.8919,-10.515,-0.98067,0.014355,-0.44043,-1.3662,8.52,43.74,-17.04
6.5514,-10.351,-0.76274,0.047953,-0.80848,-1.679,8.64,43.86,-16.98
6.3198,-11.319,-0.27241,0.043066,-1.1164,-1.9135,8.7,43.98,-16.86
6.2654,-12.272,0.31327,-0.16218,-1.4685,-2.237,7.92,44.4,-16.2
5.9249,-12.708,0.85808,-0.38423,-1.5889,-2.4569,7.38,44.46,-15.6
5.2847,-12.776,1.4438,-0.61117,-1.5449,-2.6909,6.54,44.82,-14.94
4.3994,-12.286,1.7979,-0.76236,-1.3118,-2.9117,4.26,44.88,-13.2
3.9908,-11.822,1.7298,-0.84147,-0.98074,-3.062,3.12,45.18,-12.42
3.732,-10.951,1.471,-0.82345,-0.66126,-3.1273,1.8,45.18,-11.52
3.7728,-9.8339,1.4574,-0.70524,-0.33017,-3.1157,-1.5,45.96,-9.66
3.4868,-9.1256,1.5663,-0.61667,-0.23091,-3.0439,-3.3,46.14,-8.58
3.3097,-8.7987,1.5936,-0.55344,-0.19426,-2.9425,-5.22,46.32,-7.56
2.9284,-8.1177,1.7162,-0.48655,-0.19548,-2.8213,-7.08,46.62,-6.96
2.6968,-7.3822,1.6208,-0.42364,-0.24893,-2.6747,-10.62,46.68,-4.98
2.6423,-6.9328,1.471,-0.31154,-0.40928,-2.3928,-12.3,46.68,-4.2
2.6696,-6.0611,1.3212,-0.25809,-0.48991,-2.2929,-15.36,46.68,-2.58
2.5742,-5.9385,1.2803,-0.13775,-0.66126,-2.0898,-16.98,46.62,-1.8
2.3155,-5.9112,1.2531,-0.034208,-0.81673,-1.8717,-18.36,46.38,-1.14
2.2337,-6.279,1.2667,0.072388,-0.92546,-1.5259,-20.82,46.2,0.12
2.3836,-6.5786,1.0896,0.13592,-0.96425,-1.252,-22.02,46.14,0.72
2.5606,-7.246,0.89894,0.18021,-1.0217,-0.93982,-23.1,45.96,1.26
2.942,-8.6762,0.39499,0.24343,-1.1096,-0.59468,-24.9,45.3,2.4
3.2825,-9.8066,0.12258,0.24221,-1.2184,-0.024129,-25.62,44.94,2.76
3.3778,-10.678,-0.054481,0.21136,-1.2129,0.17898,-26.22,44.64,3.36
3.4732,-11.482,-0.081722,0.083994,-1.0376,0.76816,-26.7,44.28,3.9
3.8682,-12.898,0.068102,-0.047037,-0.78221,1.1167,-27.3,43.98,4.86
3.8137,-13.511,0.23155,-0.18967,-0.39645,1.4343,-27.6,43.92,5.34
3.4187,-13.607,0.44947,-0.31368,0.1295,1.7129,-27.54,43.74,6.06
3.4596,-13.566,0.53119,-0.31368,1.0721,2.1845,-27.12,43.74,6.12
4.0861,-12.776,0.36775,-0.22297,1.6069,2.5036,-26.88,43.8,6.3
4.5356,-12.081,0.1362,-0.1408,1.7782,2.6423,-26.4,44.04,6.48
5.2302,-9.2618,-0.55843,0.16707,1.8729,2.8894,-25.2,44.64,6.48
5.3937,-8.6762,-0.89894,0.41905,1.5889,2.8961,-24.42,44.94,6.36
5.7614,-9.1256,-1.2531,0.63377,1.1066,2.8326,-22.56,46.02,5.94
5.9793,-9.8066,-1.185,0.7199,0.18906,2.6267,-21.42,46.56,5.64
5.6661,-10.174,-1.0215,0.65057,-0.35675,2.5271,-20.16,47.1,5.28
5.1485,-10.406,-0.7355,0.51557,-0.64263,2.4429,-18.84,47.7,5.1
4.1678,-9.9701,-0.6674,0.39034,-0.5846,2.3372,-16.08,48.78,4.44
3.4459,-9.4253,-0.68102,0.33537,-0.22785,2.2196,-14.58,49.26,4.2
2.8739,-8.2267,-0.62654,0.35339,0.36896,2.0415,-13.08,49.74,3.96
2.9556,-7.641,-0.7355,0.4722,1.3873,1.7342,-9.78,50.76,3.72
3.5549,-7.1779,-0.8036,0.53542,1.8375,1.5485,-8.22,51.06,3.66
3.9227,-6.9872,-0.91256,0.54398,1.9532,1.4679,-6.48,51.3,3.36
4.8761,-6.7012,-1.4438,0.54092,1.8158,1.2697,-3.36,51.72,3.18
5.2847,-6.5786,-1.5255,0.47953,1.3952,1.1921,-1.74,51.9,3.18
5.4481,-6.5241,-1.4846,0.38087,0.87995,1.1234,1.26,51.78,3.36
5.3392,-6.9328,-1.6481,0.28283,0.15944,1.0495,2.76,51.72,3.48
5.0531,-7.464,-1.7434,0.23763,-0.14875,0.98716,3.96,51.72,3.36
4.9169,-8.1858,-1.8932,0.21716,-0.23427,0.94592,5.28,51.78,3.24
4.8352,-8.8941,-1.8932,0.14142,-0.22663,0.80268,6.54,51.96,3.18
4.8625,-10.215,-1.7298,0.10049,-0.081856,0.6692,8.82,51.78,3.0
4.8488,-10.978,-1.471,0.062919,0.21869,0.4105,9.84,51.66,2.82
5.2983,-11.959,-1.2531,0.007025,0.39951,0.20067,11.34,51.48,2.34
6.1155,-12.612,-1.1441,0.027794,0.41356,-0.018326,12.18,51.42,2.1
6.3743,-13.035,-1.1032,0.055589,0.33934,-0.12156,12.72,51.3,1.98
7.1507,-14.56,-0.96704,0.135,-0.085216,-0.42089,13.86,51.12,1.92
7.1507,-14.764,-0.95342,0.14813,-0.41966,-0.65668,14.34,51.24,1.68
6.9872,-14.369,-0.89894,0.12675,-0.75198,-0.89217,14.64,51.3,1.62
6.4833,-12.108,-0.51757,0.084299,-1.0409,-1.1661,15.06,51.18,1.2
6.1564,-11.223,-0.24517,0.029932,-1.3967,-1.5882,15.3,51.18,1.14
5.9657,-11.291,-0.068102,-0.0073304,-1.5944,-1.8631,15.24,51.18,1.02
5.9657,-11.945,0.14982,-0.14264,-1.74,-2.1368,14.82,50.94,0.78
5.7614,-12.122,0.53119,-0.29932,-1.814,-2.3848,14.28,51.12,0.72
4.8625,-12.449,1.1713,-0.46792,-1.774,-2.6133,13.74,51.24,0.78
4.4266,-12.258,1.2395,-0.72326,-1.4774,-2.8262,11.94,51.48,0.66
4.2495,-11.414,1.2939,-0.78832,-1.3433,-2.8588,10.74,51.54,0.72
4.1814,-10.896,1.3212,-0.87018,-1.0834,-2.912,9.6,51.84,0.78
4.2768,-9.6296,1.3757,-0.88117,-0.8323,-2.9315,6.54,52.2,0.66
3.9499,-8.9622,1.4982,-0.86712,-0.71685,-2.9523,4.8,52.2,0.78
3.6775,-8.5127,1.6753,-0.821,-0.60689,-2.9563,3.12,52.2,0.78
3.2825,-7.8045,1.5391,-0.76664,-0.48717,-2.952,1.2,52.2,0.78
3.0646,-7.4367,1.471,-0.68417,-0.38026,-2.8103,-2.58,51.72,1.08
2.8603,-6.8374,1.5391,-0.61392,-0.35583,-2.6429,-4.56,51.42,1.32
2.7513,-6.6331,1.4165,-0.54123,-0.35186,-2.4404,-6.54,51.24,1.8
2.7241,-6.0611,1.3212,-0.45204,-0.39828,-2.2294,-10.56,50.52,2.7
2.6968,-5.9793,1.3212,-0.35094,-0.46517,-2.011,-12.54,50.1,3.24
2.547,-5.5162,1.362,-0.26603,-0.551,-1.8021,-15.72,48.9,4.2
2.3836,-5.6388,1.1441,-0.13592,-0.63255,-1.4685,-17.34,48.3,4.68
2.4517,-6.1155,0.8717,-0.041844,-0.61392,-1.2031,-18.84,47.64,5.16
2.6015,-6.6059,0.6674,0.01405,-0.60812,-0.8772,-19.98,46.92,5.58
3.1872,-7.7364,0.64016,0.054978,-0.60995,-0.46945,-22.26,45.42,6.42
3.4323,-8.6489,0.57205,0.065363,-0.63988,-0.0024435,-23.28,44.76,6.9
3.5822,-9.8611,0.47671,0.080329,-0.63133,0.49633,-24.06,44.16,7.56
3.6094,-11.114,0.43585,0.091019,-0.46212,1.2788,-25.14,43.2,8.4
3.623,-11.986,0.36775,0.12492,-0.21686,1.8341,-25.44,42.9,8.94
3.5549,-12.258,0.35413,0.13561,-0.054062,2.1014,-25.5,42.48,9.18
3.5277,-12.381,0.31327,0.2138,0.54672,2.8717,-25.32,42.12,9.36
3.8954,-12.19,0.23155,0.30849,0.97311,3.2932,-24.84,42.06,9.42
4.2223,-10.964,-0.25879,0.53237,1.3234,3.6985,-23.52,42.36,9.54
5.1213,-10.556,-0.61292,0.7532,1.3338,3.7519,-22.62,42.72,9.36
5.7069,-10.637,-1.0215,0.97372,1.1286,3.7238,-21.6,43.2,9.18
6.2517,-11.114,-1.471,1.0708,0.91996,3.6988,-20.52,43.68,9.0
6.6331,-11.632,-1.8115,1.2245,0.0042761,3.4868,-19.26,44.22,8.7
6.4833,-12.149,-1.9613,1.1707,-0.61667,3.2639,-15.96,45.66,7.8
5.8023,-11.673,-1.757,0.9053,-1.0266,2.8231,-14.22,46.32,7.2
4.1542,-10.801,-1.1441,0.81703,-0.96089,2.6441,-10.2,47.58,6.42
3.0646,-10.27,-1.1169,0.59193,-0.15241,2.084,-8.16,48.12,5.94
2.6832,-9.9973,-1.1032,0.49114,0.69761,1.6582,-6.18,48.48,5.4
2.7377,-8.8941,-1.362,0.46304,1.573,1.2782,-1.92,49.26,4.74
3.1054,-8.4038,-1.3212,0.48778,2.2636,0.98441,0.12,49.5,4.2
3.5004,-7.927,-1.1032,0.47647,2.6789,0.77519,1.98,49.68,3.78
4.4402,-7.1643,-1.3076,0.43433,2.7816,0.63316,5.7,49.86,3.42
4.7944,-6.7012,-1.3348,0.37721,2.5611,0.54336,7.32,49.68,3.3
4.985,-6.3198,-1.4846,0.27519,1.8204,0.53084,8.76,49.62,3.3
5.0259,-6.1292,-1.6344,0.23824,1.2034,0.57146,11.64,49.32,3.36
5.1894,-6.456,-1.7843,0.22358,0.58613,0.66615,12.78,49.2,3.48
5.2711,-7.1371,-1.9613,0.18082,0.0036652,0.75931,13.92,48.96,3.66
5.1485,-8.0224,-2.0975,0.093462,-0.56688,0.82375,15.54,48.84,3.72
4.9578,-8.8668,-1.9341,0.052534,-0.72326,0.80176,16.38,48.66,3.66
4.8761,-9.3436,-1.8387,-0.0012217,-0.69761,0.71532,17.04,48.78,3.72
4.7671,-10.774,-1.4574,-0.062308,-0.51954,0.58246,18.42,48.6,3.66
4.9442,-11.4,-1.4165,-0.11576,-0.27489,0.41356,18.9,48.48,3.72
5.4209,-12.095,-1.2531,-0.13225,-0.09499,0.21502,19.44,48.36,3.72
5.7342,-12.708,-1.2531,-0.059559,-0.11942,-0.12706,19.86,48.3,3.54
6.8919,-15.119,-1.1577,-0.050396,-0.31643,-0.40195,21.06,48.12,3.3
6.9328,-15.718,-0.85808,-0.03207,-0.59437,-0.67776,21.66,48.06,3.18
6.8102,-15.854,-0.72188,-0.054978,-0.85582,-0.9502,21.96,47.94,3.18
6.0883,-14.301,-0.50395,-0.11851,-1.0635,-1.215,22.38,47.7,2.88
5.7069,-12.762,-0.57205,-0.14508,-1.2468,-1.4581,22.56,47.76,2.82
5.2847,-11.359,-0.44947,-0.15272,-1.4218,-1.6878,22.5,47.58,2.76
4.5083,-10.488,0.1362,-0.15791,-1.6032,-1.9908,21.96,47.7,2.64
4.413,-10.801,0.28603,-0.25473,-1.6649,-2.12,21.48,47.58,2.52
4.3177,-10.842,0.42223,-0.32926,-1.6942,-2.1585,20.82,47.7,2.4
3.9227,-10.91,0.83084,-0.5226,-1.7843,-2.19,19.2,47.64,2.16
3.7047,-11.128,1.0351,-0.67134,-1.7376,-2.156,18.18,47.76,1.98
3.2144,-10.937,1.4846,-0.81428,-1.5498,-2.094,17.1,47.94,2.04
2.9284,-10.392,1.5663,-0.93035,-1.2474,-2.0116,14.46,47.94,1.92
2.6832,-9.4934,1.7706,-1.011,-0.70097,-1.909,13.26,48.0,1.8
2.6015,-9.0303,1.8524,-1.0171,-0.51221,-1.8821,12.06,48.18,1.8
2.5742,-8.322,2.0567,-0.97158,0.036957,-1.821,10.92,48.18,1.8
2.6832,-7.4367,2.0294,-0.88423,0.31857,-1.7709,8.16,47.94,1.68
2.7786,-6.6059,1.866,-0.75289,0.48136,-1.6536,7.02,47.94,1.56
3.1327,-5.8431,1.471,-0.58521,0.4383,-1.6023,4.74,47.7,1.56
3.2553,-5.4209,1.2803,-0.31582,0.083383,-1.4462,3.78,47.4,1.62
3.3915,-5.2302,1.185,-0.23305,-0.097433,-1.394,2.7,47.16,1.68
3.1191,-5.4754,1.1169,-0.076664,-0.68661,-1.1606,0.84,46.74,1.98
3.0918,-5.9793,0.96704,0.010079,-1.0003,-0.95203,0.06,46.38,2.1
3.0237,-7.0417,0.39499,0.092546,-1.262,-0.7025,-0.72,45.9,2.16
3.1191,-9.9837,0.39499,0.17471,-1.5033,-0.197,-1.32,45.72,2.4
3.1191,-9.9837,0.39499,0.17471,-1.5033,-0.197,-1.32,45.72,2.4
3.2553,-12.544,0.10896,0.082467,-1.4725,0.45021,-2.46,45.06,2.76
3.2416,-13.184,0.21793,-0.12462,-1.2782,0.72937,-2.94,44.7,2.76
2.4517,-13.307,0.77636,-0.32712,-0.87629,0.94898,-3.54,44.22,3.12
2.152,-12.967,1.1713,-0.45265,-0.33811,1.0812,-3.66,43.98,3.24
1.7706,-11.822,1.0624,-0.43677,0.29413,1.1588,-3.72,43.44,3.54
2.152,-11.305,0.6674,-0.24587,0.90988,1.2569,-3.6,43.2,3.6
2.8058,-10.27,0.10896,0.057116,1.3299,1.3717,-3.54,43.02,3.66
3.2144,-9.4934,-0.21793,0.60353,1.4038,1.5107,-3.12,42.96,3.72
3.8546,-8.6489,-0.89894,0.91141,1.1325,1.5473,-2.64,42.96,3.78
4.6445,-8.8668,-2.152,1.0739,0.70463,1.5229,-1.56,42.84,3.66
4.5083,-9.0848,-2.0022,1.0415,0.28527,1.4936,-0.96,42.9,3.6
3.3097,-8.9622,-1.7843,0.8039,-0.042455,1.3329,0.42,42.96,2.94
2.833,-8.9486,-1.5119,0.69364,0.0064141,1.2385,1.14,42.9,2.7
2.4653,-9.0575,-1.4165,0.55436,0.26389,1.208,1.86,42.96,2.64
1.866,-9.0575,-1.2531,0.39065,0.75136,1.2159,3.3,43.02,2.1
1.8932,-8.6762,-0.96704,0.27611,1.3375,1.3195,4.14,43.2,1.8
2.7241,-7.6274,-1.1986,0.2645,1.887,1.4639,5.7,43.26,1.26
3.8409,-7.3141,-1.7706,0.37599,2.3231,1.7217,6.48,43.32,1.26
4.6582,-7.355,-2.1112,0.47342,2.127,1.8543,7.38,43.44,1.2
5.1349,-7.355,-2.152,0.39737,1.5959,1.901,8.16,43.32,1.26
5.4073,-6.9328,-1.5936,0.25198,0.96181,1.9169,10.08,43.14,1.14
5.3119,-6.7557,-1.5391,0.13683,0.35705,1.9264,10.98,42.9,1.2
4.9987,-7.1779,-1.7843,0.12431,-0.097433,1.8592,12.06,42.66,1.26
4.7671,-7.8317,-1.866,0.12523,-0.41753,1.6286,14.04,42.24,1.56
4.6309,-8.5944,-2.0703,0.14813,-0.3766,1.4349,15.0,42.12,1.68
4.6854,-9.5206,-2.1929,0.18234,-0.30299,1.3311,16.2,41.88,1.74
4.8352,-11.06,-2.1929,0.20311,-0.022297,1.0009,18.24,41.28,1.92
5.0668,-11.7,-1.9341,0.15516,0.12065,0.74403,19.26,40.86,2.22
5.3119,-12.544,-1.6889,0.13317,0.15424,0.49419,21.36,39.96,2.46
5.5435,-12.994,-1.7979,0.11118,0.065973,0.16707,22.38,39.72,2.4
5.7069,-13.607,-1.866,0.11454,-0.028711,-0.018937,23.34,39.3,2.34
5.9112,-14.002,-1.8387,0.12553,-0.089492,-0.092241,24.24,39.0,2.22
6.3335,-14.914,-1.6072,0.14813,-0.32926,-0.35186,24.78,38.7,2.16
6.4697,-15.514,-0.91256,0.079718,-0.54886,-0.58154,25.74,38.28,1.92
6.1564,-14.805,-0.57205,-0.073609,-0.80146,-0.96333,26.1,38.1,1.62
6.1564,-13.007,-0.34051,-0.1014,-0.88117,-1.0962,26.64,37.74,1.38
5.9793,-11.564,-0.27241,-0.16402,-1.1173,-1.5192,26.76,37.56,1.32
5.7069,-10.052,-0.054481,-0.15974,-1.2281,-1.8152,26.52,37.26,1.14
5.1349,-9.0167,0.74912,-0.10812,-1.3021,-2.0641,25.98,37.26,0.84
4.9578,-9.3027,0.99429,-0.10843,-1.3421,-2.2425,25.56,37.2,0.48
4.9169,-9.6977,1.2939,-0.22846,-1.3793,-2.467,24.36,37.38,0.18
4.8216,-9.9156,1.7025,-0.29658,-1.4429,-2.5067,23.46,37.5,-0.3
4.5628,-10.093,1.866,-0.37629,-1.5311,-2.4887,22.56,37.92,-0.66
4.3994,-10.011,2.0022,-0.44838,-1.5773,-2.4248,21.54,38.1,-1.02
4.1814,-9.8611,2.2474,-0.51099,-1.5293,-2.3359,19.2,38.7,-1.56
3.4051,-9.1801,2.6423,-0.54611,-1.3576,-2.2458,17.88,39.06,-1.86
2.942,-8.4174,2.6287,-0.53909,-1.084,-2.1768,16.5,39.42,-2.16
2.6696,-7.5729,2.4108,-0.43005,-0.54581,-2.1328,13.74,40.2,-2.82
2.6832,-7.1234,2.261,-0.36713,-0.36927,-2.1133,12.3,40.56,-3.3
2.9556,-6.5105,2.0567,-0.16218,-0.0281,-2.0821,10.92,41.16,-3.54
3.1872,-5.993,1.9886,-0.019853,0.016799,-2.0589,9.48,41.46,-3.72
3.514,-5.1894,1.9205,0.10537,-0.052534,-2.0382,6.48,42.18,-4.44
3.4868,-5.0259,1.9613,0.21289,-0.17685,-2.007,4.74,42.6,-4.74
3.5958,-4.8488,2.1929,0.30604,-0.33139,-1.9276,1.92,43.08,-5.28
3.8682,-4.9987,2.2746,0.45418,-0.62553,-1.7315,0.48,43.14,-5.46
3.9908,-5.1621,2.3427,0.5568,-0.85613,-1.5247,-1.08,43.32,-5.58
3.9635,-5.8567,1.8387,0.6689,-1.0113,-1.2715,-3.66,43.38,-5.94
4.0589,-6.1564,1.4982,0.76908,-1.1087,-0.95845,-4.8,43.26,-6.06
4.1542,-6.3198,1.2395,0.79046,-1.1573,-0.60689,-6.0,43.2,-6.12
4.0316,-6.5378,0.76274,0.75259,-1.0886,-0.0956,-8.4,43.08,-6.42
3.9227,-6.9328,0.47671,0.68722,-0.92027,0.28527,-9.54,42.9,-6.48
3.7728,-7.4095,0.28603,0.66309,-0.80848,0.489,-10.44,42.66,-6.66
3.9908,-7.9679,-0.19068,0.5397,-0.47006,1.0815,-11.88,42.72,-7.14
4.127,-8.4719,-0.58567,0.47128,-0.29658,1.4786,-12.6,42.54,-7.32
4.0044,-9.1256,-0.6674,0.40012,-0.16188,1.8793,-12.84,42.6,-7.5
3.6911,-10.283,-0.32689,0.30268,0.059865,2.5165,-13.44,42.9,-7.98
3.7592,-10.733,-0.27241,0.24404,0.22235,2.8686,-13.5,43.14,-8.4
4.0861,-10.91,-0.34051,0.24221,0.26603,3.0079,-13.14,43.38,-8.7
4.304,-10.597,-0.36775,0.40012,0.19884,3.2666,-12.72,43.74,-9.06
4.4811,-10.188,-0.70826,0.59529,0.061392,3.3384,-11.46,44.46,-9.72
4.8625,-10.324,-1.3348,0.81459,-0.17837,3.3271,-10.5,44.76,-9.96
5.4618,-10.787,-1.6072,0.9499,-0.59468,3.2556,-9.6,45.06,-10.2
5.6388,-11.264,-1.3757,0.97097,-1.127,3.1111,-6.96,45.6,-10.74
5.3256,-11.564,-1.0215,0.90622,-1.5589,2.8873,-5.4,45.78,-11.16
4.7671,-11.836,-0.85808,0.82681,-1.7691,2.5849,-3.9,45.96,-11.52
3.7728,-11.659,-1.185,0.64782,-1.4969,2.0562,-0.66,46.26,-11.76
3.4187,-10.978,-1.4846,0.57513,-0.94928,1.671,0.96,46.08,-12.0
3.3506,-10.079,-1.7298,0.5681,-0.27581,1.277,2.82,45.9,-12.24
4.0316,-8.3493,-1.6753,0.6411,0.39676,0.75595,6.42,45.3,-12.6
4.3721,-7.9815,-1.7706,0.69394,0.48381,0.44838,7.98,45.0,-12.78
4.6309,-7.7636,-1.7843,0.69669,0.45051,0.3091,9.48,44.64,-13.02
4.7671,-7.5321,-1.866,0.613,0.079107,-0.042455,10.98,44.34,-13.38
4.6309,-6.9055,-1.7298,0.56291,-0.28986,-0.17776,13.56,43.8,-13.98
4.3177,-6.9872,-1.6889,0.5284,-0.64813,-0.23427,14.88,43.56,-14.34
3.732,-7.7772,-1.7843,0.47006,-0.90836,-0.2416,15.72,43.14,-14.7
3.5004,-8.322,-1.7434,0.39095,-1.0049,-0.19426,17.16,42.78,-15.48
3.3778,-8.54,-1.6753,0.20403,-0.8882,-0.11148,17.64,42.6,-15.78
3.5549,-8.5263,-1.5391,0.087965,-0.73457,-0.057421,18.18,42.54,-16.2
4.1814,-8.8124,-0.99429,0.036346,-0.64507,-0.000611,18.72,42.48,-17.04
4.5764,-9.4798,-0.81722,0.030238,-0.64385,0.018021,18.84,42.6,-17.46
4.8897,-10.188,-0.72188,-0.054978,-0.79077,0.0027489,18.72,42.78,-17.82
5.2847,-10.896,-0.61292,-0.10049,-0.86682,-0.022907,18.54,42.96,-18.0
5.6116,-11.564,0.16344,-0.19456,-1.0705,-0.13042,18.18,43.26,-18.54
5.5435,-12.531,0.44947,-0.21044,-1.113,-0.20464,17.88,43.44,-18.78
5.8023,-13.893,0.64016,-0.3094,-1.0372,-0.3149,17.58,43.74,-19.02
6.456,-14.764,1.2122,-0.39065,-0.92913,-0.44654,16.56,44.22,-19.44
6.6467,-14.519,1.3757,-0.45784,-0.89461,-0.70494,16.2,44.64,-19.62
6.3198,-11.863,1.8387,-0.47983,-0.92241,-0.83322,15.72,45.06,-19.56
5.8023,-9.902,2.1112,-0.43616,-1.0198,-1.1716,14.52,45.72,-19.62
5.1894,-9.3572,2.2746,-0.24954,-1.1787,-1.6237,13.8,45.96,-19.56
4.9987,-9.4253,2.438,-0.16341,-1.1955,-1.8405,13.02,46.38,-19.56
5.6661,-10.379,2.547,-0.094684,-1.2004,-1.9728,11.04,46.8,-19.44
5.9385,-10.515,2.438,-0.061087,-1.3558,-1.9288,9.84,47.22,-19.38
6.3879,-9.9973,2.6287,-0.050702,-1.4798,-1.8864,8.64,47.58,-19.26
6.0066,-9.3572,2.7649,-0.054062,-1.9792,-1.7843,5.64,48.06,-19.14
5.5707,-8.8532,2.8194,-0.096822,-2.2208,-1.8082,4.08,48.24,-18.9
5.094,-8.3765,2.8467,-0.14264,-2.2889,-1.8146,2.4,48.36,-18.72
4.7944,-7.8589,2.7649,-0.17074,-2.2278,-1.8124,-1.44,48.72,-18.42
4.3585,-7.9951,2.8467,-0.18967,-2.1325,-1.7862,-3.42,48.84,-18.24
4.0589,-8.145,2.9148,-0.24312,-1.9004,-1.7486,-7.68,48.9,-17.7
3.8682,-7.9134,2.9148,-0.29413,-1.7278,-1.6622,-9.6,48.84,-17.4
3.8137,-7.6683,2.8603,-0.33567,-1.6481,-1.602,-11.76,48.66,-17.16
3.7047,-7.6002,2.9011,-0.38362,-1.43,-1.405,-16.02,48.18,-16.32
3.8001,-7.8998,2.7786,-0.42272,-1.2953,-1.2587,-18.06,47.94,-15.9
3.6366,-8.1722,2.7786,-0.47709,-1.1127,-1.0223,-21.66,47.1,-14.94
3.337,-8.7715,2.7104,-0.48869,-0.94745,-0.82528,-23.52,46.68,-14.34
3.4187,-9.2891,2.5334,-0.48381,-0.77213,-0.6127,-25.26,46.32,-13.74
3.4323,-9.5751,2.3427,-0.46304,-0.59376,-0.41142,-27.0,45.9,-13.32
3.3506,-9.3436,1.975,-0.39584,-0.4383,-0.24435,-29.88,44.94,-11.94
2.9148,-9.8339,2.0975,-0.30024,-0.26573,-0.069333,-31.02,44.4,-11.52
2.8058,-10.542,2.152,-0.18998,-0.0033598,0.11057,-32.1,43.8,-10.86
2.7241,-9.9156,2.0022,0.02474,0.49297,0.32773,-34.02,42.72,-9.84
2.8603,-8.6353,1.6072,0.33567,0.75472,0.42608,-34.8,42.3,-9.24
2.942,-7.8045,1.3212,0.54489,0.82436,0.46945,-35.52,42.12,-9.06
3.7184,-8.2539,0.5993,1.2663,0.75533,0.45937,-36.42,41.7,-8.76
4.5083,-9.2074,-0.84446,1.6903,0.35949,0.46151,-36.78,41.4,-8.76
5.094,-10.515,-1.185,1.9514,-0.31551,0.51252,-37.02,41.16,-8.82
4.6854,-11.414,-1.2122,2.0275,-1.0339,0.58277,-37.38,40.74,-9.6
4.127,-11.387,-1.0488,1.9367,-1.5556,0.64568,-37.26,40.38,-9.9
3.5413,-10.964,-1.0624,1.7291,-1.8253,0.72815,-37.26,40.2,-10.32
2.2474,-9.3436,-1.5119,1.4135,-1.6112,0.90225,-37.26,39.78,-11.4
1.8251,-8.54,-2.0975,1.296,-1.0999,1.0232,-37.2,39.6,-11.82
1.7843,-8.0769,-2.7377,1.3158,-0.18387,1.1338,-37.02,39.54,-13.02
2.4653,-7.8998,-2.9284,1.3207,0.30696,1.1799,-36.96,39.42,-13.5
2.9965,-7.8317,-3.0101,1.2804,0.53665,1.2373,-36.72,39.24,-14.1
3.5413,-7.9679,-3.1872,1.1933,0.4722,1.3436,-36.48,38.94,-14.52
4.1542,-8.2131,-3.2144,1.0458,0.23976,1.3879,-35.88,38.94,-15.6
4.1814,-8.2948,-3.051,0.85216,-0.061392,1.4505,-35.52,38.82,-16.02
4.1542,-8.4174,-2.9556,0.68264,-0.30574,1.547,-35.04,38.82,-16.38
4.0316,-8.6353,-3.1599,0.51221,-0.50488,1.6872,-33.96,38.94,-17.04
4.304,-8.8396,-3.2825,0.46792,-0.53298,1.7284,-33.48,39.18,-17.4
4.6718,-9.3844,-3.2825,0.39492,-0.60934,1.7776,-32.82,39.42,-17.76
5.0395,-9.9701,-2.6423,0.23518,-0.73884,1.7404,-31.08,40.02,-18.18
5.094,-10.324,-2.2201,0.16249,-0.7758,1.6744,-30.18,40.26,-18.48
5.3119,-10.924,-1.9613,0.094684,-0.77061,1.5504,-29.4,40.38,-18.72
5.8295,-11.7,-1.2803,-0.1014,-0.69791,1.259,-27.54,41.28,-19.02
5.993,-11.536,-0.83084,-0.2303,-0.6182,1.0418,-26.82,41.76,-19.2
5.8159,-11.605,-0.054481,-0.2587,-0.56108,0.94043,-25.98,42.12,-19.26
5.7614,-12.231,0.19068,-0.22877,-0.32895,0.67409,-25.08,42.3,-19.14
6.8102,-13.866,0.10896,-0.36041,-0.19884,0.49327,-23.76,42.96,-19.02
7.6138,-13.988,-0.01362,-0.36285,-0.22297,0.31276,-23.22,43.26,-18.9
8.0088,-12.803,0.76274,-0.39218,-0.47739,0.057727,-22.74,43.44,-18.66
6.7966,-9.6704,1.4165,-0.36041,-1.0653,-0.45632,-21.9,43.62,-17.88
6.1564,-9.507,1.7025,-0.24832,-1.3644,-0.83169,-21.66,43.74,-17.4
5.8023,-10.202,1.7843,-0.21961,-1.5595,-1.1487,-21.6,43.62,-16.92
5.6116,-10.883,1.8115,-0.24404,-1.6335,-1.4074,-21.72,43.5,-16.56
5.4073,-11.577,1.7298,-0.26939,-1.6451,-1.5528,-22.02,43.26,-15.48
5.3256,-11.278,1.8524,-0.28069,-1.6386,-1.6695,-22.5,42.78,-15.06
4.8352,-10.12,2.0567,-0.27519,-1.657,-1.7633,-23.58,41.58,-14.04
4.5764,-9.4389,2.1929,-0.2865,-1.6872,-1.8647,-24.3,40.98,-13.38
4.3858,-9.0984,2.152,-0.33689,-1.6729,-2.021,-25.14,40.2,-12.78
4.0452,-8.5127,2.2337,-0.36835,-1.6035,-2.1069,-26.88,38.4,-11.4
3.7456,-8.3765,2.2337,-0.39676,-1.4707,-2.193,-28.02,37.26,-10.74
3.6366,-8.1177,2.1929,-0.41233,-1.2843,-2.2636,-28.98,36.3,-10.08
3.4187,-7.8998,1.8932,-0.3708,-0.9499,-2.3353,-30.96,33.96,-8.88
3.4187,-8.1858,1.6753,-0.32223,-0.71929,-2.3289,-31.98,32.52,-8.22
3.4187,-8.7034,1.5255,-0.31979,-0.51007,-2.2709,-32.76,31.26,-7.8
3.6366,-9.8066,1.3212,-0.35094,-0.34667,-2.1163,-34.56,28.38,-6.84
4.0861,-10.678,1.0488,-0.40745,-0.30146,-1.8928,-35.28,27.18,-6.48
4.4675,-11.931,0.98067,-0.49236,-0.41936,-1.5956,-35.76,25.68,-5.94
2.5879,-13.934,0.51757,-0.59712,-0.56016,-1.1942,-36.78,22.92,-5.28
1.8932,-15.023,0.70826,-0.81215,-0.50305,-0.57146,-37.14,21.66,-4.92
1.6344,-15.377,0.95342,-1.0137,-0.1124,-0.26542,-37.32,20.52,-4.8
0.96704,-14.764,1.6208,-1.1316,0.42302,0.07758,-37.5,18.42,-4.56
1.0624,-13.511,1.4301,-1.0559,0.86957,0.32803,-37.38,17.52,-4.5
1.2395,-11.4,0.44947,-0.51038,1.0095,0.61392,-37.08,16.08,-4.5
1.8796,-10.079,-0.040861,0.0097738,0.6524,0.76144,-36.84,15.48,-4.68
2.3563,-9.0439,-0.43585,0.4948,0.034208,0.83689,-36.54,15.18,-4.8
2.3018,-8.4446,-0.47671,0.6973,-0.31826,0.88087,-36.48,14.82,-4.92
1.471,-8.2948,-0.31327,1.0388,-1.1393,1.0473,-36.06,14.46,-5.1
0.8036,-8.54,-0.27241,1.1325,-1.2871,1.1295,-35.7,14.4,-5.1
0.20431,-9.0575,-0.36775,1.1625,-1.1811,1.2196,-35.28,14.52,-5.04
0.34051,-10.202,-0.49033,1.127,-0.89247,1.3063,-34.98,14.76,-5.1
0.95342,-10.188,-0.68102,0.97708,-0.36163,1.5085,-34.26,15.48,-5.16
1.6208,-9.8203,-0.77636,0.92974,-0.043677,1.6319,-33.9,15.84,-5.34
2.3427,-9.2891,-1.076,0.94898,0.18234,1.6973,-33.6,16.32,-5.16
3.2008,-7.9951,-1.2803,0.98777,0.30635,1.671,-32.76,17.46,-5.28
3.3506,-7.4776,-1.3757,1.0134,0.34025,1.5882,-32.22,18.12,-5.28
3.3778,-7.1507,-1.6072,1.0256,0.30055,1.471,-31.86,18.72,-5.16
4.0452,-7.3141,-2.1656,1.0522,0.22938,1.354,-31.32,19.8,-5.1
4.304,-7.5593,-2.5061,1.0583,0.03879,1.222,-30.72,20.46,-5.1
4.2768,-7.7364,-2.4517,0.95875,-0.081856,1.1374,-30.24,21.12,-4.98
4.018,-7.7364,-2.6696,0.83627,-0.11973,1.0773,-29.34,22.44,-5.1
4.0861,-8.0088,-2.8739,0.7645,-0.12309,1.0424,-28.92,22.8,-5.22
4.2495,-8.3901,-2.9692,0.70402,-0.15027,1.0214,-28.2,23.22,-5.4
4.8625,-9.8475,-3.6366,0.59895,-0.26023,1.0021,-27.0,23.94,-5.76
5.2438,-10.624,-3.8818,0.49694,-0.39615,0.96822,-26.46,24.36,-5.88
5.5435,-11.319,-3.7728,0.36621,-0.56536,0.89003,-25.86,24.72,-6.12
5.7342,-11.931,-3.3915,0.26695,-0.72388,0.75503,-25.32,25.02,-6.24
5.9249,-12.844,-2.4789,0.16493,-0.85491,0.58368,-24.42,25.26,-6.54
5.8976,-13.184,-2.2201,0.048258,-0.90866,0.35491,-24.0,25.44,-6.78
5.7478,-12.612,-1.5391,-0.10721,-0.81367,0.0082467,-22.8,25.8,-6.9
5.7342,-12.463,-1.3212,-0.086743,-0.70005,-0.18387,-22.5,25.92,-6.96
5.8704,-12.49,-1.2939,-0.047953,-0.66096,-0.27489,-22.08,25.86,-6.96
6.4152,-12.871,-1.1986,-0.069944,-0.67837,-0.5565,-21.84,26.04,-7.02
7.0145,-12.081,-0.89894,-0.16402,-0.85949,-0.78252,-21.12,26.16,-7.02
6.7285,-10.883,-0.17706,-0.21014,-1.2966,-1.1588,-21.24,26.16,-6.9
6.0747,-10.529,0.44947,-0.31307,-1.5666,-1.4166,-21.06,26.28,-6.6
5.6252,-10.243,0.72188,-0.45662,-1.7309,-1.6857,-21.06,26.1,-6.48
5.1485,-10.025,0.89894,-0.51099,-1.7666,-1.8109,-21.18,25.98,-6.24
4.2632,-10.025,1.362,-0.61972,-1.6634,-2.1017,-21.42,25.74,-5.64
3.7047,-10.379,1.5119,-0.69944,-1.409,-2.2275,-21.72,25.74,-5.52
3.4732,-10.215,1.6072,-0.77977,-0.93187,-2.343,-22.56,25.26,-5.04
3.6366,-9.5751,1.6753,-0.77855,-0.61881,-2.3256,-22.98,25.08,-4.68
3.7456,-9.221,1.8251,-0.72174,-0.41203,-2.2547,-23.52,24.84,-4.44
3.8273,-8.9622,1.8796,-0.68783,-0.34667,-2.2089,-24.0,24.54,-4.14
3.6094,-8.036,1.9068,-0.55497,-0.34086,-2.1017,-25.26,23.7,-3.48
3.6094,-7.6546,1.7979,-0.44715,-0.41997,-2.0556,-25.8,23.46,-3.18
3.5958,-7.3822,1.6344,-0.36377,-0.50519,-2.029,-26.46,23.16,-2.88
3.4051,-7.0553,1.4982,-0.26206,-0.56566,-1.9517,-27.78,22.44,-2.22
3.1327,-7.0281,1.4438,-0.24007,-0.54672,-1.9175,-28.38,21.96,-2.04
2.9284,-7.1779,1.362,-0.14722,-0.25595,-1.8634,-29.04,21.48,-1.8
2.6423,-7.3686,1.1032,-0.07025,0.094073,-1.8094,-30.18,20.46,-1.26
2.6287,-7.6002,1.0215,0.011606,0.45357,-1.7022,-30.72,19.86,-0.96
2.8875,-8.1858,0.91256,0.083383,0.70311,-1.5269,-31.32,19.44,-0.6
3.5822,-9.3299,0.5993,0.14813,0.67776,-1.1313,-32.46,18.42,-0.3
3.9499,-10.093,0.43585,0.16493,0.56291,-0.96517,-32.88,17.76,-0.12
4.2087,-10.869,0.39499,0.14752,0.24007,-0.59193,-33.36,17.22,0.06
4.0725,-11.155,0.35413,0.020769,-0.28955,-0.0048869,-33.96,16.2,0.48
3.7047,-10.992,0.25879,-0.050702,-0.53329,0.39401,-34.2,15.66,0.54
3.2008,-10.978,0.40861,-0.069333,-0.63622,0.77916,-34.44,15.18,0.9
2.3427,-11.032,0.50395,-0.052534,-0.44349,1.2895,-34.74,14.46,1.26
2.152,-11.087,0.54481,-0.0036652,-0.1069,1.6616,-34.92,14.4,1.44
2.1929,-10.842,0.44947,0.075136,0.2923,2.0003,-34.92,14.4,1.44
2.6832,-9.3708,0.027241,0.2306,0.61178,2.281,-35.04,14.64,1.5
3.3097,-8.8668,-0.69464,0.4725,0.73243,2.4874,-34.98,14.88,1.5
3.8954,-8.9349,-1.1169,0.68967,0.64232,2.6169,-34.8,15.12,1.38
4.6854,-9.4253,-1.7025,0.90133,0.16829,2.7382,-34.32,16.02,1.2
4.8352,-9.8611,-1.7025,0.93157,-0.30085,2.7327,-34.08,16.68,0.96
4.7671,-10.079,-1.5663,0.86804,-0.72418,2.6759,-33.84,17.52,0.84
4.1542,-10.215,-1.5255,0.77366,-0.98197,2.5873,-33.12,19.2,0.6
3.732,-10.011,-1.5936,0.63561,-0.99907,2.448,-32.82,20.04,0.54
3.1054,-9.5615,-1.7162,0.49938,-0.70555,2.2819,-32.28,21.06,0.42
2.2882,-8.3765,-1.58,0.41294,-0.12278,2.105,-31.08,23.04,0.18
2.2882,-7.927,-1.5527,0.3879,1.0318,1.8415,-30.36,24.0,0.18
2.7377,-7.5865,-1.4846,0.42822,1.6151,1.6991,-29.52,24.96,-0.06
3.4051,-7.5184,-1.4165,0.44654,1.872,1.5718,-28.62,25.8,-0.18
4.7807,-7.8045,-2.0703,0.38546,1.8063,1.4688,-27.0,27.48,-0.54
5.1213,-7.8181,-2.0703,0.27794,1.4676,1.3891,-26.1,28.32,-0.84
5.2438,-7.9134,-1.8796,0.15241,1.0684,1.3925,-25.14,28.98,-0.84
5.3664,-8.6625,-1.9068,0.016799,0.60628,1.4227,-23.1,30.3,-0.96
5.489,-9.112,-1.9886,-0.043677,0.40653,1.3589,-22.02,30.9,-0.9
5.6933,-9.4798,-2.2474,-0.069639,0.32742,1.2981,-20.94,31.44,-1.08
5.775,-9.9701,-2.2474,-0.10934,0.18143,1.0067,-18.9,32.46,-1.56
5.6252,-10.351,-2.0839,-0.10324,0.15547,0.75228,-17.94,32.88,-1.92
5.4209,-10.706,-1.7434,-0.10599,0.20983,0.43433,-17.16,33.18,-2.16
5.4754,-12.149,-1.5936,-0.027489,0.32865,-0.04215,-15.48,33.54,-2.52
5.8976,-13.348,-1.6072,0.0082467,0.36224,-0.31521,-14.94,33.66,-2.7
6.1564,-14.056,-1.5527,-0.056505,0.34697,-0.56505,-14.4,33.9,-3.18
6.3607,-15.159,-1.2531,-0.1179,0.2923,-0.80756,-13.92,34.2,-3.3
6.3607,-15.445,-0.64016,-0.15088,0.23335,-1.0614,-13.2,34.38,-3.48
5.9657,-14.41,-0.47671,-0.1686,0.20953,-1.3726,-12.96,34.44,-3.66
5.993,-11.863,-0.57205,-0.12981,0.18418,-1.7129,-12.84,34.44,-3.72
6.0747,-10.433,-0.5993,0.029322,0.0018326,-2.2358,-13.02,34.38,-3.72
5.9249,-9.3163,-0.47671,0.090408,-0.089797,-2.3998,-13.44,34.38,-3.54
5.4754,-8.9486,0.10896,0.25381,-0.37415,-2.7617,-14.52,33.9,-3.36
5.6116,-9.5342,0.40861,0.24221,-0.55161,-2.8976,-15.12,33.54,-3.42
5.6388,-9.6841,0.40861,0.16921,-0.7535,-3.011,-16.02,33.12,-3.36
5.6116,-10.256,0.83084,0.10965,-1.2165,-3.0348,-18.0,32.52,-3.18
5.1485,-10.665,1.1986,0.036041,-1.5061,-2.9645,-19.14,32.04,-3.06
4.8761,-10.828,1.2803,-0.0064141,-1.5913,-2.9092,-20.34,31.5,-2.82
3.9771,-10.61,1.7979,-0.1857,-1.5876,-2.6805,-22.92,30.42,-2.34
3.8409,-9.9973,1.7979,-0.2584,-1.3827,-2.5149,-24.24,29.82,-2.04
3.6775,-9.1529,1.8387,-0.25931,-1.138,-2.3506,-25.5,29.28,-1.62
3.1191,-7.641,1.5391,-0.15455,-0.69272,-2.2242,-28.14,27.78,-1.08
3.0782,-7.1915,1.471,-0.048564,-0.3824,-2.1759,-29.34,26.94,-1.02
3.1191,-6.4424,1.2667,0.0015272,-0.23946,-2.1536,-30.42,25.98,-0.84
3.3778,-5.9249,1.0624,0.13775,-0.0082467,-2.0152,-32.34,24.3,-0.24
3.5958,-5.6116,0.85808,0.20739,-0.042761,-1.8677,-33.12,23.46,0.18
3.8001,-5.3528,0.5993,0.26176,-0.20678,-1.6933,-33.84,22.62,0.48
3.7865,-5.2575,0.57205,0.34728,-0.55558,-1.3256,-35.16,20.94,1.14
3.6775,-5.4754,0.47671,0.36408,-0.75686,-1.0049,-35.58,20.34,1.5
3.7047,-5.8023,0.47671,0.3769,-0.8207,-0.84452,-36.0,19.56,1.98
3.9227,-6.6604,0.46309,0.37415,-0.94257,-0.28466,-36.3,18.72,2.4
4.1678,-7.7908,0.39499,0.33781,-0.98716,0.10843,-36.6,17.22,3.18
4.522,-9.0575,0.32689,0.32987,-0.98746,0.52473,-36.78,16.56,3.48
4.699,-10.351,0.23155,0.29291,-0.95753,0.97494,-36.96,16.14,3.9
5.1485,-11.441,0.21793,0.16035,-0.82192,1.5311,-36.78,15.42,4.8
5.0123,-11.427,0.32689,0.12126,-0.77458,1.689,-36.72,15.3,5.22
4.6309,-11.414,0.44947,0.010385,-0.56963,2.0919,-36.54,15.24,5.58
3.3915,-11.319,0.62654,-0.021075,-0.24312,2.2852,-36.18,15.48,6.24
3.1191,-11.182,0.49033,-0.013744,0.20372,2.4972,-35.88,15.72,6.48
3.1872,-10.774,0.31327,0.049786,0.66859,2.6918,-35.46,16.14,6.9
3.8137,-9.4389,-0.34051,0.24251,1.0638,2.8992,-34.68,17.28,7.32
4.127,-9.398,-0.5993,0.40989,1.0336,2.9471,-34.2,17.82,7.44
4.4402,-9.7522,-0.8036,0.48533,0.95753,2.9383,-33.6,18.66,7.44
4.699,-10.406,-1.1032,0.57116,0.58949,2.8402,-32.46,20.46,7.38
4.699,-10.665,-1.0624,0.54611,0.29322,2.7141,-31.8,21.48,7.08
4.5083,-10.692,-1.0215,0.489,0.057116,2.5522,-30.96,22.62,6.84
3.8954,-10.12,-1.1577,0.38454,-0.012828,2.3607,-29.64,24.9,6.42
3.5004,-9.6568,-1.2258,0.29841,0.084299,2.1383,-28.92,26.04,6.24
3.228,-9.1665,-1.2803,0.23518,0.39798,1.8882,-28.08,27.12,6.12
2.9556,-8.0224,-1.4438,0.25229,1.1671,1.5641,-26.7,29.1,5.7
3.2144,-7.6546,-1.7298,0.30482,1.6469,1.383,-25.8,30.0,5.52
3.8001,-7.4503,-1.8115,0.35003,1.8711,1.2068,-24.96,30.78,5.28
4.5628,-7.3005,-1.6344,0.3375,1.8237,1.0855,-23.16,32.22,4.74
4.7399,-7.2869,-1.6072,0.28283,1.5748,0.99602,-22.38,33.0,4.5
4.9306,-7.355,-1.5119,0.16432,0.97036,0.92485,-21.6,33.6,4.26
5.0259,-8.0632,-1.4165,0.11148,0.52626,0.90713,-19.92,34.68,3.72
4.6854,-8.8396,-1.5663,0.024129,0.20128,0.89767,-19.2,35.04,3.66
4.4539,-9.4798,-1.58,-0.026267,0.062919,0.86163,-17.88,35.4,3.18
4.3721,-11.073,-1.4846,-0.064446,0.12737,0.80207,-17.22,35.82,2.88
4.4947,-11.659,-1.2395,-0.091935,0.19945,0.75014,-16.5,35.94,2.64
4.6309,-11.959,-1.0488,-0.16066,0.50977,0.51221,-15.96,36.06,2.46
4.9987,-12.19,-0.70826,-0.16218,0.7025,0.28253,-14.58,36.42,2.04
5.1894,-12.04,-0.64016,-0.084605,0.79779,-0.0024435,-14.22,36.6,1.8
5.5707,-12.095,-0.85808,0.072388,0.76755,-0.26725,-13.8,36.72,1.44
6.3607,-13.035,-1.2395,0.27,0.59804,-0.67012,-13.2,36.84,1.14
6.5378,-13.416,-1.0624,0.42852,0.17196,-0.88606,-12.9,36.84,1.14
6.7285,-13.416,-0.89894,0.40714,-0.18204,-1.0791,-12.78,36.9,1.02
6.565,-11.863,-0.81722,0.3091,-0.56597,-1.2721,-12.72,36.84,0.9
6.0474,-10.324,-0.61292,0.23366,-0.9331,-1.4823,-12.66,36.72,0.84
5.6116,-9.9292,-0.38137,0.19426,-1.2269,-1.6643,-12.72,36.72,0.96
5.2847,-10.256,0.095342,0.055894,-1.4102,-1.9438,-13.32,36.3,0.9
5.094,-10.134,0.31327,-0.062003,-1.372,-2.1289,-13.8,36.18,1.02
4.9578,-10.011,0.47671,-0.10721,-1.321,-2.2141,-14.34,35.94,0.96
4.6445,-9.8748,0.83084,-0.20097,-1.0925,-2.4022,-15.0,35.52,1.02
4.4402,-10.065,1.3484,-0.26603,-0.89828,-2.4838,-16.5,34.98,1.2
4.5901,-9.9565,1.362,-0.32865,-0.71624,-2.5107,-17.4,34.5,1.38
4.6718,-9.6977,1.471,-0.37965,-0.60079,-2.4664,-18.18,33.96,1.62
4.6854,-8.8532,1.5663,-0.3937,-0.5733,-2.3943,-20.1,33.24,1.56
4.7671,-8.6353,1.471,-0.37415,-0.58918,-2.3494,-21.0,32.58,1.74
4.7944,-8.6353,1.3757,-0.30849,-0.63438,-2.3616,-21.96,31.98,1.8
4.522,-8.2676,1.3348,-0.23335,-0.75045,-2.3741,-23.64,31.02,1.98
4.3313,-8.0496,0.89894,-0.1854,-0.82925,-2.3185,-24.54,30.36,2.04
4.8897,-8.9894,-0.28603,-0.12645,-0.92546,-2.2852,-25.26,29.76,2.04
6.674,-12.286,-0.81722,-0.34575,-1.5766,-2.3301,-26.7,28.32,2.22
5.1757,-11.06,0.70826,-0.91416,-1.887,-2.6056,-27.24,27.54,2.58
4.2632,-9.902,1.1986,-1.1142,-1.7315,-2.7382,-27.96,26.88,2.82
3.337,-8.1858,-0.17706,-1.1915,-0.37721,-2.5678,-28.56,26.1,3.06
7.0281,-7.0281,-3.3642,-0.77641,-0.28588,-2.4056,-29.46,24.48,3.84
7.6955,-7.9543,-2.9965,-0.49327,-1.2028,-2.2382,-29.82,23.7,4.2
4.0044,-7.0962,-0.81722,-0.60231,-2.2208,-1.9114,-30.24,21.72,5.28
2.261,-5.6797,-0.24517,-0.80207,-1.9395,-1.482,-30.48,21.0,5.88
1.5255,-4.8625,-0.068102,-0.87934,-1.5757,-1.2168,-30.72,20.1,6.66
1.6344,-3.2825,0.19068,-0.91355,0.050702,-0.51862,-31.2,18.3,8.04
2.2474,-3.4732,0.39499,-0.73334,1.149,-0.18082,-31.38,17.46,8.76
4.6309,-4.5628,0.054481,-0.52198,2.0039,0.1854,-31.56,16.5,9.54
6.5241,-5.2302,0.35413,-0.4047,2.5094,0.80726,-31.86,15.06,10.62
8.4855,-6.7285,1.1169,-0.41997,2.0757,1.2532,-32.1,14.58,11.1
9.6841,-8.8668,1.4165,-0.48778,1.6912,1.5241,-32.22,14.04,11.22
8.2131,-10.256,1.6072,-0.81551,0.46517,2.357,-32.46,13.44,11.16
6.4424,-9.8339,1.5663,-0.85338,-0.025656,2.6649,-32.52,13.38,11.22
5.5843,-9.3436,1.2122,-0.6466,-0.26817,3.0131,-32.52,13.5,11.28
4.8897,-8.4446,0.47671,-0.0042761,-0.56261,3.3759,-32.46,13.92,10.98
4.4947,-8.036,0.27241,0.51313,-0.8042,3.4343,-32.22,14.34,10.92
4.1133,-7.8317,0.14982,0.76053,-0.89064,3.4263,-31.98,14.88,10.62
2.9284,-8.1858,-0.14982,1.3207,-0.86101,3.4239,-31.38,16.38,10.26
2.7377,-9.0575,-0.40861,1.5192,-0.70433,3.4444,-30.84,17.34,10.02
2.833,-9.8066,-0.64016,1.5907,-0.51862,3.4532,-30.3,18.48,9.66
3.5822,-10.542,-1.3348,1.5959,-0.17318,3.5977,-28.8,20.58,9.24
3.8818,-10.678,-1.5255,1.544,0.0054978,3.7089,-28.02,21.72,8.94
4.2223,-10.706,-1.7979,1.5171,0.065973,3.7244,-27.12,22.8,8.88
4.4947,-10.637,-1.8387,1.3699,0.25809,3.6521,-26.04,24.06,8.94
5.094,-10.379,-2.6423,1.2895,0.3375,3.4306,-23.46,26.4,8.58
5.3256,-9.8339,-2.833,1.1368,0.30421,3.0867,-22.26,27.6,8.34
5.5026,-9.2482,-3.051,0.98777,0.22022,2.6912,-20.88,28.98,8.16
5.3664,-8.1041,-3.1191,0.86376,0.13225,2.2678,-17.82,30.96,7.44
5.2302,-7.8589,-3.2553,0.8039,0.073304,1.8528,-16.32,31.98,7.14
5.094,-7.8862,-3.4459,0.7532,0.094684,1.3152,-14.88,32.7,6.72
4.9987,-8.8124,-3.6366,0.68264,0.16952,0.98991,-12.06,34.14,5.7
4.9169,-9.4389,-3.5004,0.56933,0.25595,0.67165,-10.62,34.74,5.34
4.9578,-10.297,-3.337,0.4554,0.3317,0.40653,-8.04,35.88,4.32
5.2575,-12.735,-3.3097,0.29871,0.3711,0.10201,-6.72,36.24,3.96
5.5026,-13.729,-3.337,0.10873,0.35369,-0.076358,-5.46,36.66,3.42
5.8159,-14.07,-3.2553,-0.16982,0.30879,-0.26603,-4.44,37.08,2.88
5.6797,-13.048,-2.7241,-0.30513,0.24526,-0.4835,-2.88,37.32,2.16
5.775,-12.967,-2.2337,-0.2529,0.15638,-0.75381,-2.16,37.32,1.8
5.8431,-13.525,-1.9341,-0.16799,0.000611,-1.1643,-1.5,37.2,1.08
6.0883,-14.547,-1.362,-0.23702,-0.10049,-1.4383,-1.38,37.14,0.72
6.2245,-13.988,-1.0215,-0.37202,-0.24679,-1.6787,-1.26,37.08,0.48
6.3743,-12.708,-0.85808,-0.42822,-0.46304,-1.898,-1.26,37.08,0.42
6.3607,-11.223,-0.16344,-0.3821,-0.78313,-2.1185,-1.62,36.96,0.42
6.2245,-11.21,0.19068,-0.37049,-1.1469,-2.295,-2.1,36.78,0.36
6.0611,-11.264,0.47671,-0.43249,-1.4285,-2.5296,-2.58,36.72,0.36
5.4073,-11.346,1.1441,-0.55986,-1.6683,-2.792,-3.66,36.48,0.54
5.4073,-11.346,1.1441,-0.63469,-1.6784,-2.8921,-3.66,36.48,0.54
5.4073,-11.346,1.1441,-0.74526,-1.536,-2.9496,-3.66,36.48,0.54
5.4073,-11.346,1.1441,-0.81795,-1.2917,-2.9511,-3.66,36.48,0.54
3.8273,-10.256,1.7979,-0.81825,-1.007,-2.897,-5.52,36.06,0.96
3.8001,-9.3844,1.6617,-0.73518,-0.73609,-2.8213,-6.6,35.76,1.14
3.5549,-8.0224,1.4574,-0.50916,-0.44379,-2.7672,-9.0,35.22,1.26
3.4732,-7.641,1.4574,-0.44318,-0.38729,-2.7764,-10.02,34.86,1.26
3.3506,-7.0281,1.5255,-0.33811,-0.32284,-2.803,-11.46,34.56,1.32
3.1191,-6.3471,1.1986,-0.2025,-0.33017,-2.8112,-14.04,33.96,1.38
3.2416,-6.2517,1.0624,-0.13256,-0.39615,-2.7596,-15.3,33.6,1.26
3.2008,-6.3062,0.99429,-0.063225,-0.51618,-2.6408,-16.62,33.06,1.2
3.2825,-6.9736,0.78998,0.0042761,-0.68203,-2.4474,-19.38,32.52,0.96
3.2961,-7.3686,0.70826,0.068111,-0.86315,-2.1612,-20.64,31.98,0.9
3.3234,-7.8589,0.57205,0.087965,-1.0415,-1.8298,-22.14,31.62,0.9
3.2416,-9.2346,0.7355,0.078802,-1.1661,-1.2135,-24.6,30.66,0.6
3.1735,-10.011,0.47671,0.062003,-1.1014,-0.73457,-25.5,30.36,0.54
3.1191,-10.597,0.40861,0.041233,-0.95997,-0.26206,-26.4,30.06,0.3
2.7922,-10.542,0.17706,-0.01405,-0.56566,0.41661,-28.14,29.64,0.36
2.5606,-10.515,0.32689,-0.020159,-0.17013,0.85704,-28.92,29.4,0.54
2.4244,-10.651,0.38137,-0.038485,0.29535,1.2801,-29.34,29.22,0.54
2.3291,-10.815,0.38137,-0.010385,0.75869,1.7495,-30.0,29.04,0.66
2.547,-10.883,0.47671,0.041844,1.1527,2.2523,-30.84,29.04,0.72
2.9011,-10.624,0.095342,0.12859,1.4352,2.7129,-31.08,29.1,0.66
3.5549,-10.025,-0.36775,0.25381,1.5571,3.0745,-30.96,29.4,0.54
4.2904,-9.398,-0.89894,0.48319,1.361,3.3802,-30.48,29.94,0.36
4.413,-9.8475,-1.0624,0.59101,1.0968,3.4767,-29.94,30.48,-0.42
4.3449,-10.27,-0.99429,0.65149,0.82711,3.5137,-29.22,31.08,-0.72
4.4266,-11.904,-1.3484,0.65637,0.5849,3.4581,-27.72,32.4,-1.56
4.4402,-12.286,-1.5119,0.59956,0.4105,3.4099,-26.82,33.12,-1.86
4.4402,-12.136,-1.58,0.489,0.3485,3.3369,-25.68,33.6,-2.28
4.0725,-11.482,-1.5391,0.33811,0.56016,3.1469,-23.4,35.04,-3.0
3.9227,-10.733,-1.6753,0.29322,0.75381,3.0555,-22.2,35.76,-3.24
3.9499,-10.188,-1.8932,0.24465,1.4765,2.6786,-20.82,36.36,-3.54
4.7399,-8.7306,-2.2337,0.28375,1.8512,2.3531,-17.88,37.56,-3.96
5.203,-8.2403,-2.4108,0.29016,1.916,2.0299,-16.26,38.28,-4.2
5.5435,-7.75,-2.3427,0.24618,1.7034,1.6924,-14.82,38.64,-4.2
5.6116,-7.1371,-2.0567,0.15302,1.1744,1.2428,-12.0,39.18,-4.08
5.3392,-7.1779,-1.8932,0.097433,0.85857,1.0458,-10.68,39.3,-3.9
5.1485,-7.5593,-1.8932,0.047953,0.64843,0.89797,-9.36,39.24,-3.84
4.9306,-8.2131,-1.9613,-0.054062,0.52534,0.80512,-8.04,39.36,-3.48
4.8352,-9.5751,-1.757,-0.13286,0.48045,0.75411,-5.58,39.18,-3.36
4.7807,-10.256,-1.4438,-0.18265,0.48258,0.69119,-4.38,39.24,-3.18
4.699,-10.828,-1.1305,-0.21808,0.56108,0.60873,-3.42,39.3,-3.0
4.7944,-11.496,-0.81722,-0.24404,0.68631,0.4612,-2.4,39.36,-3.0
5.6252,-12.286,-0.70826,-0.18479,0.67226,0.34392,-0.54,39.06,-2.88
6.1155,-12.408,-0.58567,-0.11729,0.57544,0.21594,0.24,39.0,-2.88
6.4833,-12.612,-0.70826,0.040012,0.38179,0.075747,0.96,38.82,-3.0
7.2188,-13.539,-0.8717,0.19273,0.093768,-0.12462,2.16,38.46,-3.0
7.4367,-13.539,-1.0079,0.28497,-0.24893,-0.61942,2.52,38.58,-2.88
7.2052,-13.212,-0.8717,0.3262,-0.60384,-0.80756,2.88,38.58,-2.88
6.2381,-11.686,-0.5993,0.29322,-0.99021,-1.4233,3.48,38.7,-3.0
5.7478,-10.501,-0.62654,0.25626,-1.1286,-1.8167,3.78,38.7,-3.18
5.5707,-10.27,-0.54481,0.23671,-1.1997,-2.1414,3.9,38.88,-3.24
5.4209,-10.61,-0.040861,0.15455,-1.2263,-2.4117,3.54,39.12,-3.48
5.2983,-10.706,0.32689,0.05681,-1.1735,-2.7211,3.3,39.36,-3.78
5.0259,-10.733,0.89894,-0.050702,-0.9896,-2.8213,2.16,39.72,-3.96
5.094,-10.569,1.2939,-0.085827,-0.92393,-2.8457,1.32,40.02,-4.32
5.1894,-10.392,1.362,-0.14508,-0.82131,-2.853,0.24,40.2,-4.44
5.5843,-9.5479,1.5663,-0.15791,-0.88239,-2.8057,-2.1,40.74,-5.1
5.5435,-8.8396,1.757,-0.14172,-1.0058,-2.7434,-3.6,40.92,-5.4
5.3528,-8.2948,1.8932,-0.1292,-1.1307,-2.7037,-5.28,41.04,-5.7
4.9714,-7.4776,2.0294,-0.10507,-1.2376,-2.6588,-8.88,41.28,-6.18
5.0531,-7.0553,1.7979,-0.073609,-1.2877,-2.631,-11.04,41.28,-6.36
4.6173,-6.6195,1.6617,-0.01741,-1.3638,-2.609,-15.24,41.4,-6.54
4.2223,-6.3743,1.6208,0.023518,-1.4288,-2.5797,-17.34,41.1,-6.48
3.6911,-6.279,1.5391,0.032987,-1.4151,-2.5385,-21.48,40.38,-6.24
3.3778,-6.4288,1.4301,0.041844,-1.3555,-2.4261,-25.56,39.36,-5.88
3.2144,-6.9055,1.3757,0.057421,-1.2449,-2.1301,-28.92,37.86,-5.28
3.1872,-7.3277,1.2258,0.074526,-1.1603,-1.8192,-32.46,36.36,-4.14
3.5004,-8.2131,1.0488,0.088575,-1.1368,-1.4389,-35.28,34.56,-3.18
3.8137,-9.3299,1.0624,0.091935,-1.1512,-0.98716,-37.8,32.82,-2.1
3.9499,-10.038,0.98067,0.083383,-1.1814,-0.46304,-38.82,31.92,-1.56
4.0861,-10.992,0.9398,0.029932,-1.2049,0.055894,-40.62,30.0,-0.42
4.0044,-11.005,0.85808,-0.046731,-1.1619,0.49205,-42.06,28.74,0.84
3.6503,-10.692,0.5993,-0.065363,-0.92974,1.0617,-43.02,27.66,1.98
3.0237,-10.542,0.7355,-0.0024435,-0.65301,1.3699,-43.68,27.12,3.0
2.6696,-10.801,0.74912,0.075442,-0.19823,1.7266,-43.92,26.88,3.54
2.3291,-11.795,0.57205,0.16982,0.3317,2.1383,-43.92,26.64,4.08
2.7649,-11.577,0.14982,0.3262,1.0379,2.719,-43.86,26.7,4.26
3.514,-10.161,-0.5993,0.38485,1.1814,2.8598,-43.02,27.48,4.8
3.9635,-9.6023,-1.1577,0.62614,1.252,3.0507,-42.48,27.9,4.92
4.127,-9.5342,-1.2122,0.75808,1.1255,3.0155,-41.82,28.68,4.74
4.4402,-10.392,-1.471,0.86682,0.91324,2.9089,-40.32,30.48,4.26
4.3449,-10.978,-1.5119,0.90408,0.60323,2.7257,-39.48,31.56,3.9
4.3721,-11.741,-1.7706,0.82345,0.21991,2.4343,-37.44,33.6,2.76
4.2904,-11.25,-1.9205,0.67837,0.1014,2.2315,-36.42,34.56,2.1
3.9227,-10.351,-2.0703,0.58857,0.11912,2.1286,-35.22,35.7,1.62
3.7047,-9.5342,-2.4789,0.43341,0.48197,1.7917,-33.96,36.72,1.02
3.0237,-7.5729,-2.9965,0.39492,0.8998,1.5693,-31.2,38.88,-0.24
2.9556,-6.8783,-3.0101,0.40684,1.3182,1.4038,-29.94,39.96,-0.9
3.1735,-6.5105,-3.0373,0.41447,1.6353,1.3103,-28.62,41.04,-1.38
4.3177,-6.5105,-2.5742,0.33537,1.7911,1.2312,-25.98,42.36,-2.58
4.6037,-6.2654,-2.4108,0.19151,1.5571,1.1719,-24.6,42.96,-3.06
4.4675,-6.0883,-2.1793,0.0054978,1.2764,1.1405,-23.28,43.38,-3.42
4.6445,-6.3062,-1.7434,-0.12706,0.90469,1.1472,-20.88,44.16,-4.08
4.699,-7.1779,-1.866,-0.1576,0.61606,1.2052,-19.62,44.28,-4.5
4.6445,-8.145,-1.7706,-0.19731,0.37904,1.237,-18.42,44.58,-4.74
4.8897,-9.8884,-1.7298,-0.22419,0.2697,1.2309,-15.78,45.12,-5.1
4.7807,-10.542,-1.5119,-0.33964,0.30635,1.1539,-14.64,45.18,-5.46
4.7944,-10.896,-1.2803,-0.38423,0.37935,1.0388,-13.38,45.3,-5.64
4.8352,-11.128,-0.76274,-0.33353,0.45509,0.86987,-11.28,45.48,-5.76
5.0395,-11.332,-0.88532,-0.2474,0.46242,0.69089,-10.38,45.54,-5.88
5.2847,-11.618,-1.1169,-0.14355,0.40714,0.49327,-9.48,45.66,-6.06
5.5299,-12.081,-1.185,0.10996,0.14997,0.17654,-7.74,46.14,-6.06
5.6116,-12.721,-1.185,0.24374,-0.064141,-0.0088575,-7.08,46.32,-5.94
5.5707,-13.484,-1.1032,0.34819,-0.27855,-0.16218,-6.54,46.5,-6.0
5.7886,-15.677,-0.98067,0.35094,-0.50335,-0.28772,-5.46,46.56,-5.94
5.7069,-15.609,-1.0896,0.23243,-0.73212,-0.45754,-4.98,46.68,-5.88
5.4754,-14.329,-1.0215,0.11179,-0.94348,-0.62339,-4.68,46.62,-5.76
4.8352,-11.101,-0.7355,0.05284,-1.2691,-0.90103,-4.74,46.38,-5.58
4.5764,-9.9156,-0.32689,0.04215,-1.4514,-1.1148,-5.1,46.56,-5.52
4.3858,-9.5615,-0.081722,0.050396,-1.5137,-1.2141,-5.58,46.5,-5.52
4.1542,-9.6432,0.54481,-0.021686,-1.5699,-1.4841,-5.94,46.5,-5.58
4.5628,-9.5887,1.4438,-0.16493,-1.5977,-1.6588,-7.26,46.26,-5.1
4.6582,-9.3299,1.8796,-0.25381,-1.6582,-1.7895,-8.16,46.02,-4.92
4.7944,-9.3027,2.1929,-0.29993,-1.7565,-1.8463,-9.24,45.78,-4.86
5.5571,-9.0848,2.9148,-0.34606,-2.0125,-1.898,-10.32,45.54,-4.8
5.8023,-8.4991,3.4459,-0.38026,-2.4639,-1.9325,-12.9,44.82,-4.14
5.3528,-8.0905,3.5004,-0.35949,-2.853,-1.9407,-14.22,44.46,-3.84
5.0259,-7.8317,3.4187,-0.16554,-2.901,-2.0143,-15.78,43.98,-3.24
4.2904,-7.5593,3.1191,-0.0042761,-2.5424,-2.091,-19.02,42.84,-2.34
4.0997,-7.4776,3.0101,0.12798,-1.77,-2.2254,-20.58,42.3,-1.62
4.2359,-7.1915,2.6423,0.19334,-1.5305,-2.2706,-23.64,40.8,-0.36
4.1951,-6.7421,2.3972,0.22358,-1.0562,-2.3732,-25.2,40.02,0.42
4.0861,-6.5922,2.3018,0.25015,-0.86926,-2.3943,-26.7,39.24,1.02
3.7728,-6.1836,2.0431,0.28894,-0.73182,-2.3677,-29.58,37.5,1.98
3.8954,-6.2381,2.0431,0.34544,-0.64843,-2.3057,-30.9,36.48,2.52
3.9635,-6.4833,2.0022,0.39951,-0.65576,-2.1948,-32.16,35.46,3.3
4.3449,-6.8919,2.0567,0.47189,-0.79748,-1.9508,-34.56,33.18,4.08
4.4811,-7.1915,2.0294,0.50641,-0.89217,-1.7376,-35.46,32.16,4.5
4.304,-7.4367,1.9886,0.51282,-0.9444,-1.6167,-36.48,31.14,4.86
4.413,-8.4446,1.6753,0.57879,-1.0528,-1.2721,-38.1,29.1,5.7
4.2087,-8.54,1.5119,0.57757,-1.0357,-1.0296,-38.88,28.2,6.24
4.0725,-8.7715,1.1577,0.57818,-0.93829,-0.74709,-39.54,27.24,6.66
4.127,-8.9349,0.70826,0.53084,-0.75045,-0.2697,-40.98,25.44,7.14
3.9908,-8.8941,0.51757,0.47098,-0.64813,0.08491,-41.4,24.48,7.26
3.9771,-9.1665,0.50395,0.4383,-0.59529,0.27733,-41.88,23.7,7.74
3.5958,-10.27,0.51757,0.28344,-0.42211,0.88881,-42.36,22.56,8.46
3.4187,-10.134,0.36775,0.17165,-0.22449,1.2679,-42.54,22.08,8.7
3.3642,-9.4934,0.068102,0.11545,0.033903,1.5831,-42.66,21.84,8.88
3.1463,-7.9134,-0.40861,0.22235,0.38759,1.8928,-42.78,21.84,9.54
3.2144,-7.4095,-0.5993,0.38943,0.53298,1.9792,-42.66,21.84,9.78
3.4187,-7.3414,-0.78998,0.48136,0.56902,2.0113,-42.66,22.02,10.02
3.9227,-8.2539,-0.99429,0.77763,0.43555,2.1139,-42.24,22.8,10.14
4.2904,-9.4525,-1.1577,0.90866,0.13317,2.2046,-42.06,23.16,9.96
4.6309,-10.569,-1.0896,0.97066,-0.29596,2.2898,-41.76,23.82,9.72
4.7399,-12.081,-0.8717,0.93982,-0.74648,2.3946,-40.86,25.38,9.54
4.6854,-12.0,-0.76274,0.8488,-1.1884,2.522,-40.32,26.4,9.66
4.5764,-11.223,-0.76274,0.81734,-1.3244,2.5229,-39.84,27.3,9.54
4.4811,-9.6023,-1.0624,0.83291,-1.3546,2.4221,-38.4,29.4,9.54
4.6309,-8.4719,-1.5391,0.85979,-1.3115,2.1939,-37.5,30.54,9.6
4.7126,-8.0905,-1.8387,0.8546,-1.2792,1.8842,-36.54,31.68,9.78
4.5628,-7.9134,-1.7298,0.84147,-1.3024,1.5479,-34.2,33.72,9.9
4.0725,-7.7227,-1.5119,0.77061,-1.2233,1.1084,-32.94,34.92,9.9
3.9908,-7.7091,-1.5936,0.7028,-1.1057,0.89339,-31.68,35.88,10.02
4.1133,-8.1858,-1.8932,0.60537,-1.0033,0.71166,-30.36,36.9,10.08
4.3177,-8.8668,-2.2474,0.4441,-0.91874,0.56077,-27.84,38.7,10.38
4.3313,-8.8668,-2.152,0.3091,-0.8323,0.43494,-26.52,39.48,10.68
4.3313,-8.9622,-1.9886,0.2303,-0.69547,0.27978,-23.88,40.68,11.22
4.699,-9.5887,-1.8387,0.17349,-0.65637,0.15852,-22.8,41.34,11.4
4.8625,-9.7522,-1.5119,0.10721,-0.67959,0.065973,-21.6,41.88,11.52
5.094,-10.147,-1.2667,0.078191,-0.75442,-0.015272,-20.7,42.18,11.58
5.5707,-10.828,-0.74912,0.019853,-0.85582,-0.070555,-19.08,42.9,11.82
5.7342,-11.005,-0.31327,-0.076969,-0.9444,-0.14386,-18.42,43.14,11.94
5.7069,-11.359,0.47671,-0.12706,-1.0299,-0.21441,-17.94,43.38,12.18
6.3471,-13.757,1.0215,-0.16371,-1.127,-0.21411,-17.22,43.44,12.66
7.3822,-15.704,0.96704,-0.27886,-1.2373,-0.2416,-16.92,43.56,12.9
7.9407,-15.609,1.0624,-0.41417,-1.4242,-0.32315,-16.8,43.5,13.26
7.0962,-12.122,2.4517,-0.53176,-1.8124,-0.62003,-16.5,43.44,13.98
6.0202,-10.869,2.942,-0.49938,-1.9575,-0.96853,-16.38,43.44,14.34
5.2575,-10.27,3.3097,-0.44807,-1.981,-1.3418,-16.44,43.5,14.88
5.1485,-11.305,3.3778,-0.36285,-1.912,-1.6148,-16.5,43.14,16.08
5.5843,-11.673,3.3097,-0.30574,-1.8479,-1.7691,-16.62,42.9,16.68
5.9249,-11.523,3.4596,-0.23366,-1.9135,-1.8677,-16.74,42.6,17.28
5.5026,-9.2891,3.5413,-0.14264,-2.0516,-1.9215,-17.16,41.76,18.54
4.7944,-8.2267,3.6094,-0.015272,-2.1405,-2.0317,-17.46,41.4,19.08
4.1678,-7.4367,3.337,0.081856,-2.0867,-2.1878,-17.76,41.04,19.74
3.8273,-7.2188,3.2825,0.16035,-1.9383,-2.3567,-18.54,40.08,20.94
3.8273,-7.8317,3.2825,0.18448,-1.7782,-2.3863,-18.96,39.54,21.54
3.7456,-8.145,3.2144,0.16096,-1.6457,-2.3967,-19.32,38.94,22.08
3.3097,-8.4991,3.4051,0.051618,-1.4658,-2.3763,-20.28,37.92,23.28
3.1054,-8.6081,3.2825,-0.000611,-1.3237,-2.3075,-20.88,37.26,23.76
3.0101,-8.6489,3.1872,-0.023824,-1.1539,-2.1942,-21.36,36.48,24.12
2.9965,-9.7658,2.7513,-0.019548,-0.91477,-1.9251,-22.56,35.16,24.6
2.9556,-9.9973,2.6015,-0.015577,-0.78741,-1.6881,-23.1,34.56,24.84
3.0237,-10.324,2.4517,-0.01741,-0.75045,-1.5681,-23.58,34.02,25.14
3.2825,-10.597,2.0294,-0.04612,-0.68386,-1.1545,-24.48,32.94,25.62
3.2144,-10.542,1.866,-0.067195,-0.7028,-0.88331,-24.9,32.22,25.86
3.0101,-10.27,1.6072,-0.069944,-0.74159,-0.6408,-25.38,31.56,26.04
2.6287,-10.678,1.4438,-0.022602,-0.75198,-0.26176,-25.8,30.24,26.58
2.4789,-10.828,1.3757,0.025962,-0.60873,0.010079,-26.04,29.82,26.7
2.2474,-9.4661,1.185,0.15944,-0.38149,0.25137,-26.34,29.46,26.82
2.1929,-7.7227,0.35413,0.45296,-0.18143,0.52015,-26.52,28.68,26.94
2.5061,-7.8317,-0.1362,0.78099,-0.081856,0.7141,-26.52,28.32,27.06
2.833,-8.3765,-0.39499,1.058,-0.087354,0.91813,-26.58,28.2,27.18
3.7047,-10.474,-1.0079,1.2843,-0.27855,1.2141,-26.28,28.08,27.18
4.0589,-10.992,-1.3076,1.4676,-0.84574,1.6127,-26.1,28.02,27.24
4.5083,-10.883,-1.6753,1.4459,-1.2868,1.814,-25.86,28.14,27.12
4.127,-9.398,-1.9613,1.3555,-1.6411,1.9511,-25.2,28.8,26.82
3.6094,-8.4855,-1.9886,1.2294,-1.777,2.0296,-24.6,29.34,26.88
3.0646,-7.75,-2.0158,1.0977,-1.6686,2.0342,-23.88,29.94,26.82
3.0373,-7.7636,-2.7922,1.0934,-1.427,1.8641,-22.38,31.5,26.28
3.0646,-7.8317,-3.1463,0.99785,-1.0409,1.6903,-21.42,32.1,26.16
3.0646,-7.8317,-3.1463,0.87842,-0.80787,1.481,-21.42,32.1,26.16
3.337,-7.641,-2.9556,0.82558,-0.64904,1.3589,-20.28,32.76,25.92
3.8001,-8.2812,-2.9011,0.81337,-0.63011,1.2795,-18.96,33.48,25.74
4.413,-9.6977,-3.2553,0.73029,-0.73823,1.2199,-16.08,35.28,25.2
4.7126,-10.27,-3.2008,0.52718,-0.85704,1.1961,-12.84,36.48,24.54
4.9578,-10.978,-2.7513,0.37385,-0.94684,1.1564,-9.66,37.92,24.0
5.0259,-11.427,-2.4244,0.34667,-0.90439,1.0864,-7.92,38.52,23.88
5.2166,-12.476,-1.8387,0.28527,-0.75472,0.93737,-4.56,39.3,23.46
5.2847,-13.225,-1.1986,0.19487,-0.55833,0.74434,-1.5,39.78,22.98
5.4073,-13.743,-0.8036,0.13378,-0.36163,0.52076,1.02,39.84,22.62
5.6388,-14.764,-0.44947,0.1179,-0.21319,0.33323,2.82,40.14,22.08
6.2654,-15.119,-0.27241,0.042455,-0.1179,0.12217,4.02,40.14,21.6
6.9055,-13.321,-0.28603,0.020159,-0.18723,-0.26267,4.8,40.26,21.3
7.0962,-10.515,-0.040861,0.10324,-0.48808,-0.57879,5.34,40.2,21.36
6.5105,-8.7306,0.72188,0.23518,-0.88698,-0.94959,5.34,40.02,20.94
6.2517,-8.8396,0.81722,0.34178,-1.2446,-1.2874,4.98,39.9,20.64
6.1292,-9.5479,1.0896,0.30971,-1.543,-1.6188,4.56,39.78,20.34
5.5707,-10.065,1.5936,0.17929,-1.7584,-1.8986,3.78,39.66,19.74
5.094,-10.692,1.7298,-0.072082,-1.8387,-2.1099,3.3,39.54,19.38
4.8897,-10.828,1.9068,-0.17501,-1.8033,-2.1545,3.0,39.24,19.2
4.6854,-10.665,2.1656,-0.39554,-1.5589,-2.2773,2.46,39.12,19.02
4.3858,-10.12,2.3427,-0.44166,-1.3308,-2.2724,1.38,38.82,18.66
4.018,-9.4798,2.4517,-0.41692,-1.0825,-2.2868,0.78,38.52,18.3
3.6775,-8.3765,2.2337,-0.32895,-0.80298,-2.3335,0.06,38.28,18.0
3.7047,-7.8045,2.0022,-0.084605,-0.46792,-2.4047,-1.5,37.8,17.22
3.8546,-7.9951,1.7843,0.080023,-0.3598,-2.3995,-2.22,37.5,16.98
3.8546,-8.431,1.7025,0.14355,-0.33506,-2.3973,-2.7,37.2,16.68
3.9771,-9.221,1.5119,0.25473,-0.42119,-2.284,-4.14,36.48,15.9
4.0589,-9.9565,1.4165,0.28405,-0.58093,-2.1371,-4.92,36.12,15.66
4.1814,-10.447,1.2803,0.30085,-0.84605,-1.9578,-5.76,35.82,15.48
4.127,-12.258,0.99429,0.30452,-1.3302,-1.6377,-7.38,35.16,14.82
3.9227,-12.667,0.9398,0.25717,-1.6127,-1.427,-8.1,34.86,14.58
3.4323,-12.585,0.89894,0.23091,-1.7159,-1.3277,-8.46,34.38,14.22
2.9829,-12.408,0.77636,0.15669,-1.7895,-0.97769,-9.06,33.96,14.04
2.2882,-11.768,0.49033,0.1124,-1.6741,-0.71929,-9.78,33.36,13.8
2.1112,-11.659,0.38137,0.059254,-1.303,-0.36988,-10.08,33.0,13.62
1.7162,-11.359,0.38137,0.040012,-1.124,-0.2584,-10.38,32.76,13.44
1.0896,-10.624,0.34051,-0.0048869,-0.66523,-0.037874,-10.38,32.34,13.2
0.92618,-9.902,0.17706,-0.046426,0.1967,0.30268,-10.62,32.22,13.14
1.0351,-8.9622,0.027241,-0.025656,0.75228,0.52595,-10.68,32.04,13.14
1.4438,-7.5729,-0.24517,0.051618,1.1698,0.73579,-10.5,32.04,13.02
2.0294,-7.4095,-0.58567,0.1628,1.372,1.04,-10.44,31.98,12.84
2.6423,-7.3958,-0.9398,0.23579,1.4074,1.1365,-10.08,31.92,12.84
2.9148,-7.3958,-1.2939,0.30024,1.2785,1.3335,-9.9,31.92,12.66
3.0237,-7.2596,-1.6481,0.37049,0.96639,1.5931,-9.9,31.98,12.6
2.9011,-6.9328,-1.7706,0.3656,0.78527,1.7813,-9.48,32.22,12.18
2.8739,-6.7693,-1.7025,0.36896,0.66554,1.9752,-9.54,32.34,11.88
2.9829,-6.7557,-1.7298,0.36011,0.59223,2.1811,-9.24,32.64,11.7
3.1327,-6.7012,-1.7298,0.33567,0.54642,2.4456,-8.94,32.82,11.58
3.4459,-6.7421,-1.7298,0.34178,0.51282,2.5846,-8.7,32.94,11.4
3.8409,-7.1098,-1.8115,0.35888,0.45662,2.6912,-8.34,33.12,11.1
4.3177,-8.0769,-1.6072,0.35522,0.38393,2.7669,-7.02,33.6,10.8
4.9033,-9.0848,-1.6072,0.30574,0.30146,2.8106,-5.34,33.84,10.62
5.2711,-9.4798,-1.6753,0.25198,0.22907,2.802,-4.44,34.14,10.56
5.8295,-10.637,-1.7843,0.23182,0.15547,2.7681,-2.52,34.5,10.44
6.1155,-11.55,-1.9205,0.20495,0.17807,2.6405,-0.42,34.8,10.44
6.3198,-12.04,-1.7025,0.17196,0.36438,2.4401,1.86,34.8,10.62
6.5241,-12.463,-1.4574,0.18509,0.63622,2.1728,4.44,34.68,10.8
6.7148,-13.035,-1.2258,0.20739,0.88453,1.8546,6.78,34.56,11.04
7.2869,-13.253,-1.076,0.22144,1.0626,1.4624,8.88,34.38,11.34
7.5729,-12.585,-0.96704,0.23457,1.15,1.0397,10.44,34.14,11.34
7.6819,-11.836,-1.0351,0.37751,1.0452,0.46884,11.64,33.84,11.58
7.927,-11.863,-1.1441,0.53603,0.78863,0.16035,12.24,33.48,11.58
8.5263,-12.381,-1.1713,0.64416,0.34972,-0.1182,13.32,33.3,11.4
8.7987,-12.653,-1.2667,0.66309,-0.27397,-0.37629,13.68,33.12,11.52
7.8998,-10.869,-1.0079,0.54153,-0.93462,-0.66432,14.34,33.0,11.34
7.1371,-9.8884,-0.6674,0.35888,-1.4841,-1.1692,14.52,32.94,11.34
5.8023,-8.6762,-0.34051,0.33689,-1.5235,-1.4945,14.64,32.94,10.86
5.0804,-8.6353,-0.28603,0.32101,-1.4032,-1.8268,14.58,33.0,10.5
5.2166,-9.1529,-0.040861,0.25717,-1.2648,-2.0885,14.34,32.94,10.32
5.1076,-9.4798,0.17706,0.17868,-1.1597,-2.2556,14.1,33.0,10.08
4.9987,-10.215,0.7355,0.11515,-1.0996,-2.3411,13.26,33.24,9.36
5.094,-10.488,0.84446,-0.000611,-1.0702,-2.3674,12.78,33.3,8.88
5.5026,-10.392,0.83084,-0.16585,-1.1759,-2.3396,12.3,33.42,8.4
5.4209,-9.7385,0.7355,-0.20036,-1.2477,-2.3234,11.7,33.84,7.98
4.9578,-8.8941,1.2258,-0.28527,-1.4108,-2.3292,10.2,34.02,7.26
4.6718,-8.6762,1.4846,-0.34514,-1.3659,-2.423,9.42,34.38,6.6
4.3177,-8.431,1.5391,-0.3937,-1.2187,-2.5247,8.64,34.62,6.42
3.8954,-8.431,1.4438,-0.36102,-0.96639,-2.6554,6.9,35.1,5.4
3.8409,-8.5808,1.2939,-0.3262,-0.81306,-2.656,6.06,35.4,5.1
3.7592,-8.826,1.2395,-0.3207,-0.71777,-2.5641,5.16,35.58,4.74
3.5413,-8.9894,1.2803,-0.29566,-0.63591,-2.3998,3.36,35.94,4.26
3.4732,-9.3572,1.3076,-0.27214,-0.58399,-2.1695,2.52,36.18,4.02
3.2553,-10.188,1.3484,-0.23335,-0.57452,-1.8589,1.68,36.24,3.96
3.1054,-11.645,1.1713,-0.21961,-0.58368,-1.2978,0.72,36.48,3.78
3.4732,-12.0,1.0624,-0.21594,-0.65424,-0.85582,-0.9,36.48,3.72
3.6503,-12.068,1.0351,-0.20678,-0.71777,-0.62156,-1.8,36.48,3.6
3.7047,-11.822,0.89894,-0.17807,-0.86193,-0.16188,-2.58,36.54,3.66
3.4732,-11.21,0.72188,-0.13867,-1.0974,0.29169,-3.18,36.6,3.72
2.9965,-11.7,1.2258,-0.13286,-1.1304,0.39279,-4.38,36.36,3.78
1.185,-11.141,1.076,-0.22571,-0.80481,0.67104,-4.86,36.24,3.84
1.1032,-10.065,0.8036,-0.2755,0.058948,1.0803,-5.16,36.24,3.96
1.2667,-8.6353,0.47671,-0.20647,0.61697,1.3726,-5.52,36.24,4.02
1.4438,-7.6274,0.14982,-0.13134,0.83933,1.4997,-5.64,36.18,4.02
2.2474,-7.2869,-0.38137,0.049786,1.2581,1.7623,-5.88,36.36,4.2
2.6832,-7.5865,-0.69464,0.1124,1.3189,1.8799,-5.7,36.42,4.26
2.9284,-7.8589,-0.76274,0.055283,1.2028,2.0433,-5.16,36.48,4.2
2.9692,-8.145,-0.7355,-0.025045,1.0721,2.1338,-4.86,36.54,4.08
2.9692,-8.1177,-0.64016,-0.069333,1.022,2.1954,-4.26,36.78,4.14
2.9556,-8.0632,-0.70826,-0.11515,0.98044,2.3332,-3.78,36.84,4.2
2.9556,-8.036,-0.88532,-0.076969,1.0531,2.5406,-3.06,36.96,4.14
3.4596,-8.0224,-1.3757,0.037568,1.1142,2.6072,-1.86,37.08,4.2
3.7184,-8.036,-1.6753,0.13317,1.1371,2.6258,-1.02,37.26,4.32
4.3858,-8.4038,-1.8251,0.18234,1.1032,2.616,-0.24,37.26,4.38
4.7399,-8.7715,-1.8115,0.13347,0.91111,2.5607,1.32,37.38,4.5
4.9306,-8.9894,-1.8932,0.053451,0.74006,2.4835,2.22,37.26,4.74
5.1485,-9.2618,-1.9341,0.0024435,0.56261,2.3757,3.3,37.02,4.86
5.4073,-10.134,-1.7843,-0.015272,0.4722,2.2596,5.22,36.54,5.16
5.6116,-11.441,-1.5255,-0.0018326,0.48533,2.1127,6.3,36.24,5.4
5.7886,-12.476,-1.2667,-0.022297,0.61697,1.9325,7.44,36.0,5.7
6.1564,-12.803,-0.99429,-0.16402,0.96822,1.5299,9.66,35.28,6.12
6.3743,-12.286,-0.83084,-0.11881,1.1707,1.2303,10.86,34.98,6.48
6.3879,-12.0,-0.5993,0.0064141,1.2599,0.91599,11.88,34.5,6.72
6.5786,-10.896,-0.70826,0.14539,1.2712,0.57849,14.04,33.66,7.32
6.5786,-10.896,-0.70826,0.14539,1.2712,0.57849,14.04,33.66,7.32
6.8238,-9.7113,-1.0079,0.47983,1.0595,-0.041233,15.72,32.88,8.04
7.1371,-10.379,-1.0896,0.60415,0.75869,-0.25931,17.22,32.28,8.64
7.2596,-11.032,-1.0488,0.64416,0.31887,-0.44624,17.58,31.92,8.88
7.5593,-11.577,-1.1169,0.52993,-0.47586,-0.68173,18.12,31.8,8.94
7.4095,-11.536,-0.7355,0.36163,-1.0003,-0.88239,18.66,31.56,9.24
