Ax,Ay,Az,Gx,Gy,Gz,Mx,My,Mz
2.9556,-9.5615,0.32689,-2.2147,0.74037,-3.5406,-1.8,30.0,-4.5
3.3778,-11.196,0.1362,-2.058,0.54764,-3.4401,-4.02,29.94,-3.3
3.5004,-12.095,0.054481,-1.5672,-0.03543,-2.8167,-8.04,29.04,-1.08
3.6366,-12.926,0.17706,-1.2636,-0.37904,-2.2135,-9.72,28.44,0.18
3.5413,-13.375,0.40861,-0.99693,-0.62675,-1.5974,-11.22,27.84,1.32
3.0646,-12.612,0.61292,-0.72846,-0.70708,-1.0687,-13.92,26.46,3.9
2.3972,-11.891,1.076,-0.33201,-0.75961,-0.4835,-15.12,25.62,4.92
0.99429,-11.632,1.7298,-0.21686,-0.71838,-0.29444,-16.38,24.78,6.0
-0.28603,-11.387,2.4517,0.21441,-0.35094,0.39492,-18.54,23.34,7.8
-0.69464,-12.054,2.547,0.63988,0.11851,0.98685,-19.44,22.56,8.52
-0.5993,-12.558,2.5198,1.0834,0.66432,1.7061,-19.92,21.84,9.12
2.4789,-13.157,1.0488,1.5965,0.9841,2.4725,-20.82,21.18,9.9
3.337,-12.98,0.50395,2.3301,0.2865,3.2712,-21.0,20.88,10.08
4.2495,-12.517,-0.62654,2.6405,-0.57055,3.5232,-20.88,20.88,9.96
3.8954,-12.667,-0.83084,2.7358,-0.95417,3.5849,-20.7,21.0,9.9
3.2008,-12.898,-1.0215,2.9306,-1.5336,3.583,-20.16,21.42,9.54
1.6344,-13.471,-1.4846,2.9343,-1.2593,3.5922,-18.9,22.5,8.4
1.2122,-13.539,-1.9341,2.8827,-0.46914,3.6713,-18.0,23.22,7.5
1.0624,-13.498,-2.6696,2.7663,1.1866,3.868,-16.08,24.6,5.7
2.2201,-13.225,-2.942,2.5702,2.0641,3.967,-15.06,25.26,4.68
3.0646,-12.476,-3.0237,2.2965,2.4105,3.9868,-13.68,25.8,3.6
3.5958,-12.013,-3.1191,2.0391,2.357,3.9474,-12.18,26.46,2.46
3.9227,-10.311,-3.1735,1.733,2.2064,3.8344,-8.52,27.48,0.18
4.0044,-9.7385,-3.0373,1.5812,2.032,3.6606,-6.6,27.96,-1.02
4.413,-9.4798,-3.0237,1.3998,1.7743,3.3115,-2.28,28.56,-3.42
4.7399,-10.011,-3.2825,1.3216,1.5837,3.0827,-0.06,28.62,-4.62
5.0259,-10.488,-3.8001,1.2547,1.3592,2.8866,2.1,28.68,-5.58
6.3607,-12.395,-4.4539,1.1924,1.0516,2.7303,6.42,27.96,-7.44
6.9872,-13.225,-4.9033,1.1145,0.60812,2.562,8.58,27.54,-8.34
7.5048,-13.28,-5.6524,0.92546,0.20495,2.2764,10.68,26.94,-9.0
7.7227,-11.55,-5.8976,0.65424,-0.039401,1.8237,14.88,25.74,-10.08
7.6683,-10.733,-5.6661,0.24435,-0.09896,0.70036,16.92,25.08,-10.68
6.96,-9.112,-4.9578,0.14325,-0.062003,0.24343,18.66,24.54,-11.1
5.9249,-9.2891,-4.5764,0.091935,-0.10782,-1.1063,21.72,23.46,-11.76
5.8976,-10.992,-4.9578,-0.090408,-0.20495,-1.8179,22.74,22.98,-12.06
5.9385,-12.503,-5.0395,-0.45601,-0.34239,-2.2605,24.36,21.96,-12.48
6.0202,-12.817,-4.8352,-0.74495,-0.57269,-2.5522,24.96,21.6,-12.72
5.8159,-13.116,-3.9908,-0.96975,-0.99449,-2.7626,25.2,21.36,-12.78
5.3528,-12.926,-3.2144,-1.1939,-1.4801,-2.9578,25.14,21.18,-12.96
4.9714,-12.953,-2.4244,-1.3638,-1.9377,-3.1237,24.84,21.3,-12.78
4.6854,-13.43,-2.0022,-1.5253,-2.4658,-3.2587,24.24,21.66,-12.6
4.304,-14.805,-2.0567,-1.6658,-2.6215,-3.2464,22.26,22.26,-12.54
3.8001,-16.086,-1.6889,-1.8549,-2.5485,-3.2153,21.06,22.74,-12.3
3.1599,-17.134,-1.5119,-2.3045,-1.9648,-3.0415,17.82,23.82,-11.64
2.6696,-16.126,-1.1441,-2.4667,-1.6756,-3.0103,16.08,24.24,-11.34
2.4653,-15.255,-0.98067,-2.7104,-1.0638,-2.963,14.28,24.72,-10.86
2.5334,-12.299,-0.62654,-2.9819,-0.27489,-3.0278,10.68,25.86,-9.66
2.4653,-11.005,-0.40861,-3.0158,0.050396,-3.1844,8.76,26.4,-9.06
2.9011,-10.542,-0.095342,-2.9407,0.17898,-3.361,7.02,26.88,-8.28
2.8603,-10.815,0.12258,-2.7953,0.12126,-3.6111,3.42,27.36,-6.42
2.7241,-10.91,0.25879,-2.6844,0.051007,-3.6432,1.8,27.48,-5.4
2.656,-11.032,0.21793,-2.6221,0.020769,-3.6337,0.06,27.48,-4.44
2.5061,-11.114,0.47671,-2.3839,0.04215,-3.4352,-3.06,27.3,-2.28
2.4244,-11.346,0.70826,-2.1802,0.12614,-3.1557,-4.56,27.06,-1.08
2.2065,-11.427,1.0896,-1.9652,0.26176,-2.7758,-5.88,26.64,0.12
2.3155,-11.25,1.185,-1.5568,0.44318,-2.0064,-8.04,25.62,2.52
2.6015,-10.842,1.2531,-1.1866,0.43738,-1.4181,-9.12,25.2,3.66
2.7786,-10.569,1.2258,-0.71685,0.27367,-0.83169,-10.26,24.6,4.62
2.9011,-9.8611,1.2395,-0.17685,-0.039401,-0.28283,-12.18,23.22,6.24
2.4517,-10.243,1.5527,0.35369,-0.36652,0.22022,-13.02,22.62,7.32
1.7298,-10.733,2.0703,0.78007,-0.46548,0.74617,-13.92,21.96,8.04
0.8717,-11.414,2.5198,1.4313,-0.18937,1.4978,-14.82,21.12,9.06
0.9398,-12.054,2.3836,1.9056,0.13103,2.0837,-15.24,20.7,9.42
1.8251,-13.253,1.6617,2.1212,0.26389,2.3925,-15.6,20.46,9.6
3.0646,-12.967,0.47671,2.682,0.15119,3.1921,-15.66,20.22,9.78
3.6094,-12.749,-0.39499,2.9569,-0.28314,3.5183,-15.42,20.28,9.42
3.0918,-13.225,-0.85808,3.1142,-0.69547,3.711,-14.76,21.0,8.28
2.6015,-13.593,-1.4165,3.134,-0.92088,3.7929,-14.22,21.42,7.56
2.3155,-13.797,-1.8387,3.0931,-0.70311,3.8185,-13.56,21.84,6.84
2.152,-13.729,-2.6696,3.0898,-0.15608,3.8656,-12.54,22.56,6.06
2.2201,-13.634,-3.4732,3.0733,0.4835,3.9297,-10.62,23.76,4.44
2.4108,-13.375,-3.6366,2.8818,1.0825,3.9184,-9.6,24.24,3.18
2.5742,-12.885,-3.8409,2.616,1.4975,3.8094,-8.52,24.78,2.1
3.2144,-11.155,-4.1133,2.1652,1.8292,3.5708,-5.76,25.62,-0.12
3.6094,-10.583,-3.8954,1.941,1.8882,3.3949,-4.26,25.92,-1.32
3.7047,-10.61,-3.7865,1.7257,1.8234,3.1814,-2.58,26.04,-2.46
4.2768,-10.093,-3.6775,1.4881,1.7174,2.9584,0.78,26.04,-4.86
4.7263,-10.433,-3.9227,1.3595,1.5162,2.7758,2.7,26.04,-5.88
5.1349,-11.06,-4.2904,1.2401,1.2517,2.5504,4.44,25.8,-6.72
5.993,-12.217,-4.7263,1.1274,0.93921,2.3448,7.92,25.02,-8.46
6.2245,-12.64,-5.2302,0.87904,0.50457,1.9719,9.72,24.48,-9.24
6.3743,-12.258,-5.3937,0.63041,0.3937,1.5852,11.34,23.82,-9.9
6.4152,-10.978,-5.38,0.39187,0.40164,1.0993,14.7,22.62,-11.34
6.2926,-10.161,-5.1213,0.14264,0.44838,0.46945,16.26,22.02,-11.88
6.0747,-9.507,-4.7535,-0.065057,0.49663,-0.25931,17.82,21.42,-12.36
5.8295,-10.787,-4.3585,-0.1347,0.44166,-0.97311,20.1,20.22,-13.14
5.7614,-11.795,-4.5764,-0.3824,0.14478,-1.8515,20.94,19.86,-13.44
5.6661,-12.367,-4.7944,-0.64263,-0.072693,-2.2089,21.6,19.5,-13.74
5.8704,-12.503,-4.4811,-0.7981,-0.43768,-2.4419,22.62,19.14,-13.92
6.0883,-13.28,-4.1133,-0.89553,-1.0794,-2.5986,22.62,18.9,-13.86
5.8295,-13.116,-3.7728,-1.1344,-1.8225,-2.7034,22.56,18.72,-13.8
4.9578,-13.539,-2.3155,-1.2825,-2.4413,-2.7675,22.14,18.96,-13.32
4.413,-14.22,-1.8932,-1.5522,-3.0177,-2.7758,21.36,19.26,-13.02
4.1406,-14.737,-1.8115,-1.7208,-3.0134,-2.7217,20.64,19.5,-12.84
3.5685,-15.745,-1.8115,-1.8314,-2.9044,-2.6759,19.68,19.74,-12.48
2.9965,-16.304,-1.4029,-2.2462,-2.1915,-2.4945,17.46,20.58,-11.76
2.6423,-14.587,-0.85808,-2.6392,-1.4945,-2.43,16.14,21.06,-11.52
2.3836,-12.612,-0.35413,-2.949,-0.82375,-2.5381,14.88,21.36,-11.16
2.3427,-10.188,0.27241,-3.1652,-0.063225,-2.9367,12.3,22.44,-10.08
2.2882,-9.8611,0.58567,-3.178,0.1066,-3.1047,10.8,22.98,-9.42
2.3972,-10.052,0.70826,-3.1631,0.36438,-3.4227,9.48,23.46,-8.82
2.7104,-10.243,0.92618,-3.0672,0.48045,-3.6594,6.9,24.12,-7.2
3.1599,-10.311,1.1169,-2.9273,0.22449,-3.6401,5.58,24.42,-6.3
3.1872,-10.215,1.0215,-2.7489,-0.15608,-3.4218,4.08,24.36,-5.46
2.5198,-10.256,0.76274,-2.3363,-0.39676,-2.875,1.8,24.72,-3.72
2.0975,-10.569,1.0896,-2.1793,-0.35216,-2.6637,0.78,24.9,-2.64
2.1248,-11.019,1.1986,-1.813,-0.15424,-2.1732,-0.3,24.78,-1.62
2.2201,-11.332,1.4982,-1.2578,0.095295,-1.3137,-1.2,24.72,-0.54
2.6015,-11.278,1.5391,-0.84941,0.13042,-0.74403,-2.88,24.48,1.86
2.5334,-10.924,1.7025,-0.32712,-0.0076358,-0.24343,-3.78,24.3,2.94
2.152,-11.06,1.9613,0.27336,-0.23885,0.15821,-5.16,23.76,4.68
1.3212,-11.536,2.2065,1.1316,-0.38118,0.81612,-5.7,23.52,5.34
0.85808,-12.367,2.2337,1.4032,-0.35583,1.0562,-6.18,23.4,6.0
1.1169,-12.898,2.0022,2.2162,-0.15058,1.8332,-6.72,23.34,6.48
2.3972,-13.988,1.1169,2.741,-0.10018,2.3405,-7.26,23.34,6.96
2.9011,-13.92,0.39499,3.156,-0.30116,2.7077,-7.26,23.46,6.96
3.0918,-13.321,-0.34051,3.3879,-0.66981,2.8912,-6.9,23.52,6.36
2.833,-13.089,-0.69464,3.4474,-1.1362,2.9505,-6.6,23.7,5.88
2.3155,-12.871,-1.2122,3.3656,-1.1521,2.8763,-6.18,24.06,5.22
1.2258,-12.585,-2.0567,3.2245,-0.87812,2.8072,-4.86,24.6,3.42
0.9398,-12.313,-2.6423,3.0345,-0.25381,2.7807,-4.26,24.9,2.22
1.1577,-12.258,-3.1327,2.8359,0.51435,2.8396,-3.48,25.26,1.14
1.8115,-11.795,-3.8546,2.6209,1.0953,2.8595,-2.22,25.32,-1.32
1.866,-11.087,-4.2495,2.2431,1.6127,2.7825,-1.44,25.44,-2.46
2.2201,-10.338,-4.3177,2.0021,1.7813,2.6731,-0.54,25.5,-3.54
2.6696,-9.1256,-4.6582,1.748,1.8268,2.5345,1.74,25.32,-5.82
2.6287,-9.0303,-4.2768,1.5339,1.7544,2.3372,2.88,25.02,-6.96
2.7377,-8.8805,-3.8954,1.3314,1.6952,2.1826,4.14,24.72,-8.04
3.8273,-10.365,-4.2223,1.2434,1.584,2.0687,6.6,24.12,-9.84
4.7671,-11.673,-4.6309,1.117,1.1875,2.0039,7.68,23.52,-10.62
5.094,-12.081,-4.8352,1.0785,0.68509,1.9716,8.88,22.92,-11.46
5.6116,-12.531,-5.2983,0.978,0.14722,1.952,10.02,22.44,-12.06
5.598,-11.972,-5.5843,0.76267,-0.29291,1.7483,12.54,21.18,-13.2
5.4618,-11.114,-5.6252,0.51068,-0.52351,1.4056,13.74,20.58,-13.62
5.3119,-10.529,-5.4754,0.23854,-0.61789,0.92729,15.06,20.16,-13.86
4.9987,-10.093,-4.8352,-0.14691,-0.53817,0.027794,17.52,19.08,-14.58
4.7944,-10.597,-4.6173,-0.36591,-0.3821,-0.57727,18.48,18.42,-14.94
4.7671,-12.177,-4.6445,-0.49786,-0.29108,-0.86743,19.14,18.0,-15.3
5.1894,-13.688,-4.5356,-0.86651,-0.1967,-1.5232,20.34,17.22,-15.96
5.2847,-13.974,-4.3585,-1.0867,-0.30849,-1.8579,20.64,17.04,-16.08
5.4481,-12.19,-3.6094,-1.3387,-0.5681,-2.1322,21.0,16.8,-16.14
5.5435,-11.863,-3.1599,-1.4813,-1.2517,-2.5134,21.0,16.8,-16.08
5.9657,-12.217,-2.0294,-1.6038,-1.8952,-2.7058,20.64,17.1,-15.9
5.5162,-12.503,-1.471,-1.7455,-2.4453,-2.8228,20.1,17.34,-15.9
4.7671,-12.967,-1.4165,-1.8854,-2.6188,-2.8225,19.26,17.4,-15.54
3.8273,-13.266,-1.4438,-2.1005,-2.3173,-2.6719,17.46,18.18,-15.18
3.909,-13.076,-1.3484,-2.3262,-1.7538,-2.4108,16.5,18.6,-15.06
4.1542,-12.449,-1.1441,-2.5666,-1.0024,-2.0513,15.42,19.14,-14.76
4.2223,-11.25,-0.69464,-2.6203,-0.81245,-1.9933,13.2,20.52,-14.22
3.9363,-10.488,-0.47671,-2.7694,-0.42455,-1.982,12.0,21.42,-13.68
3.6366,-9.6704,-0.27241,-2.9025,0.17471,-2.1796,10.98,22.02,-13.26
3.623,-8.6898,0.095342,-2.9031,0.51221,-2.3928,8.46,23.46,-12.36
3.9363,-8.5127,0.19068,-2.8081,0.70188,-2.594,7.32,24.0,-11.64
4.0589,-8.4719,0.43585,-2.6618,0.6521,-2.7987,6.06,24.72,-11.04
4.4675,-9.1529,0.92618,-2.4132,0.54123,-2.8225,3.48,25.86,-9.18
4.6445,-9.902,1.0079,-1.8674,0.03146,-2.7452,2.34,26.4,-8.28
4.7126,-10.665,0.96704,-1.4991,-0.30788,-2.4997,1.14,27.06,-7.5
4.699,-11.509,0.98067,-1.1161,-0.59712,-2.124,-1.2,27.72,-5.52
4.413,-11.618,0.98067,-0.70097,-0.8094,-1.6689,-2.4,28.14,-4.32
3.8682,-11.087,1.0896,-0.32529,-0.90225,-1.1991,-4.86,28.5,-2.22
3.2825,-9.9973,1.185,0.18082,-0.81031,-0.58704,-5.94,28.56,-1.14
3.0373,-9.4389,1.2258,0.54489,-0.73365,-0.28222,-7.2,28.44,-0.3
2.5198,-9.2346,1.1986,0.98533,-0.67806,0.025351,-9.42,28.32,1.5
2.3018,-9.7658,1.2531,1.4233,-0.64507,0.33934,-10.38,28.26,2.16
2.2474,-10.651,1.2531,1.8604,-0.66798,0.72479,-11.22,28.26,2.64
1.7298,-11.645,1.0079,2.2385,-0.77549,1.2608,-12.48,28.32,3.06
1.7843,-12.217,0.7355,2.7584,-0.91813,1.543,-12.96,28.14,2.94
1.9886,-12.735,0.24517,2.9935,-1.2819,1.6887,-13.38,28.08,3.0
1.58,-11.536,-0.34051,3.0562,-1.5351,1.7077,-13.44,28.26,2.4
0.84446,-10.706,-0.64016,3.142,-2.1667,1.6368,-13.32,28.44,1.86
0.19068,-10.351,-1.0624,3.1062,-2.2239,1.5907,-12.9,28.5,1.08
-0.6674,-10.351,-1.9068,2.9954,-1.9719,1.5501,-12.18,28.86,-0.6
-0.88532,-10.174,-2.2474,2.7113,-1.1463,1.5846,-11.7,29.22,-1.56
-0.54481,-10.12,-2.833,2.5565,-0.52473,1.6258,-11.1,29.28,-2.64
0.24517,-10.202,-3.7865,2.3867,-0.08491,1.6371,-9.78,29.52,-4.98
0.78998,-9.9565,-4.2087,2.2232,0.12339,1.6026,-9.24,29.64,-6.3
1.0215,-9.6432,-4.5901,2.0546,0.13103,1.5372,-8.7,29.46,-7.68
0.92618,-8.7715,-5.0259,1.8912,0.065057,1.4777,-7.56,29.16,-10.08
0.92618,-8.2539,-5.1894,1.6884,-0.026878,1.3974,-6.84,28.98,-11.16
1.0896,-8.2812,-5.3937,1.5672,-0.11148,1.3708,-5.28,28.44,-13.44
1.4438,-8.9077,-5.8704,1.4306,-0.20128,1.3833,-4.5,28.02,-14.52
1.9886,-9.3436,-5.9112,1.2581,-0.29902,1.4349,-3.66,27.54,-15.54
2.2474,-9.7385,-5.8976,1.102,-0.44746,1.4765,-3.0,27.06,-16.38
3.5822,-10.379,-6.0611,0.95509,-0.67714,1.4395,-1.38,25.98,-18.06
3.8409,-10.338,-6.3198,0.79199,-1.1496,1.2187,-0.6,25.32,-18.9
3.8001,-10.283,-6.3198,0.71838,-1.3103,1.1057,0.12,24.9,-19.44
3.1054,-9.4117,-5.8295,0.37782,-1.4902,0.68631,1.44,23.7,-20.7
2.6423,-8.6489,-5.7205,0.12492,-1.3295,0.3934,2.22,23.1,-21.12
2.3836,-7.8181,-5.598,-0.074831,-1.1405,0.097738,2.7,22.74,-21.54
2.6968,-7.355,-5.38,-0.22144,-1.0687,-0.13256,3.6,22.08,-22.62
2.8467,-7.6546,-5.2438,-0.4722,-1.1286,-0.26848,3.78,21.78,-23.04
3.3915,-8.8941,-5.094,-0.5342,-1.1741,-0.27336,3.9,21.3,-23.88
3.6366,-10.12,-4.9169,-0.77274,-1.2098,-0.17623,3.78,21.12,-24.12
4.0452,-11.659,-4.2495,-0.96028,-1.1014,-0.065668,3.54,21.0,-24.18
5.0668,-15.159,-3.6094,-1.1872,-0.84483,0.027489,2.94,20.94,-24.3
6.0611,-16.63,-3.3506,-1.5889,-0.54214,0.091935,2.64,21.12,-24.3
6.7693,-14.22,0.027241,-2.3298,-0.11576,-0.16127,1.62,21.54,-24.0
6.9872,-12.803,1.1169,-2.3983,0.04215,-0.68234,1.02,21.72,-23.58
6.8783,-12.068,1.58,-2.2257,-0.035736,-1.3152,0.36,22.26,-23.22
6.7421,-11.891,1.3757,-1.9352,-0.19639,-1.8735,-0.3,22.8,-22.74
6.565,-11.114,0.96704,-1.6499,-0.34086,-2.2584,-1.62,23.58,-21.6
6.6467,-11.032,1.471,-1.3992,-0.5455,-2.4312,-2.52,24.3,-20.94
6.7829,-10.787,1.9477,-1.2162,-1.2211,-2.3637,-4.2,25.44,-19.5
6.1973,-9.6704,1.9341,-1.1121,-1.7141,-2.2819,-5.16,26.1,-18.66
5.6388,-9.0848,1.7706,-1.0293,-1.8726,-2.2327,-6.24,26.52,-17.82
5.7614,-9.3299,2.1656,-0.85399,-1.97,-1.978,-7.32,27.06,-16.92
5.6797,-8.7851,2.0975,-0.7816,-1.9798,-1.8207,-9.78,28.08,-15.3
5.5026,-8.2812,1.9341,-0.66981,-1.9209,-1.7474,-11.04,28.26,-14.34
5.2847,-8.4582,1.4982,-0.58521,-1.6839,-1.6634,-13.74,28.86,-12.6
5.5026,-8.9758,1.3212,-0.57299,-1.5235,-1.5931,-15.0,29.16,-11.76
5.8704,-9.5342,1.2939,-0.57666,-1.4826,-1.5519,-16.2,29.22,-11.1
5.8295,-9.8339,1.2258,-0.56261,-1.4807,-1.474,-17.58,29.16,-10.38
5.4345,-9.9429,1.0624,-0.43494,-1.4707,-1.4581,-20.1,28.98,-8.7
4.9987,-9.5887,1.0351,-0.35277,-1.343,-1.5055,-21.36,28.62,-7.86
4.6718,-9.221,1.0624,-0.281,-1.1087,-1.5678,-22.62,28.32,-7.08
4.1542,-8.6353,0.69464,-0.12339,-0.73579,-1.6857,-25.02,27.48,-5.58
4.018,-8.5672,0.40861,0.03543,-0.57757,-1.7526,-26.22,27.24,-4.74
4.0589,-8.54,0.19068,0.22785,-0.60384,-1.7828,-27.3,26.76,-4.08
3.8273,-8.2948,-0.23155,0.40409,-0.78374,-1.7382,-29.34,25.56,-2.76
3.5822,-8.2812,-0.50395,0.6182,-1.0644,-1.6261,-30.3,24.96,-2.1
3.2008,-8.9213,-1.1032,0.83811,-1.4374,-1.4074,-31.2,24.18,-1.56
2.5742,-11.073,-1.0896,1.1219,-1.9673,-0.85338,-32.88,22.68,-0.6
1.6344,-12.844,-0.99429,1.1396,-1.912,-0.30391,-33.84,21.96,-0.18
1.1169,-12.626,-1.1713,1.04,-1.4603,0.16157,-34.56,21.36,0.42
0.72188,-9.3163,-1.7979,1.1066,-0.98869,0.42852,-35.52,20.28,1.2
1.3757,-9.3027,-2.0158,1.3369,-0.64141,0.55161,-35.88,19.92,1.5
2.1929,-10.365,-2.1929,1.5427,-0.67501,0.62186,-36.36,19.62,1.68
2.7377,-11.373,-2.7513,1.6677,-1.3751,0.75595,-37.02,18.96,1.92
2.4789,-11.032,-2.5879,1.649,-1.8042,0.95356,-37.14,18.54,2.04
1.9205,-10.76,-2.3699,1.6047,-1.8918,1.1341,-37.38,18.54,2.1
1.2939,-10.011,-2.1384,1.569,-1.6377,1.2825,-37.44,18.54,2.46
1.4165,-9.8611,-2.2882,1.547,-1.2465,1.3772,-37.26,18.84,2.52
2.1656,-9.6704,-2.6696,1.5495,-0.9728,1.4572,-37.14,19.08,2.58
3.0373,-9.3027,-3.0782,1.5675,-1.146,1.5571,-36.66,19.74,2.7
3.2961,-9.3844,-3.3097,1.5922,-1.5094,1.5773,-36.0,20.22,2.82
3.5277,-9.5615,-3.5004,1.5375,-1.8524,1.5461,-35.52,20.58,2.76
3.1191,-9.4389,-3.6639,1.4517,-2.043,1.4591,-34.56,21.36,2.82
2.8194,-9.4934,-3.732,1.3253,-2.0861,1.3314,-33.84,21.84,2.7
2.3972,-9.4253,-3.8954,1.1432,-1.9658,1.1695,-33.12,22.26,2.82
1.9613,-9.1529,-4.3313,0.82192,-1.4991,0.89706,-31.38,23.16,3.18
1.8387,-9.0303,-4.5083,0.61728,-1.124,0.70005,-30.54,23.7,3.24
1.7706,-9.1256,-4.4675,0.39004,-0.77885,0.50305,-29.64,24.0,3.24
1.6072,-8.7306,-4.5083,0.16585,-0.47464,0.31948,-27.96,24.72,3.36
1.6344,-8.717,-4.413,-0.0045815,-0.27,0.17776,-27.24,24.96,3.3
1.5936,-9.0575,-3.9635,-0.1573,-0.14203,0.071166,-26.4,25.26,3.42
1.7706,-9.5479,-3.8409,-0.25381,-0.07025,-0.0033598,-24.9,25.8,3.6
1.7298,-9.6296,-3.6366,-0.33139,-0.049786,-0.002138,-24.6,25.98,3.78
1.8932,-9.6977,-3.4732,-0.33017,-0.068417,0.0064141,-24.0,26.16,3.9
2.152,-9.8066,-3.1599,-0.27825,-0.26114,0.084605,-23.28,26.4,3.84
2.1248,-9.9701,-2.8603,-0.22419,-0.48869,0.12401,-22.98,26.52,3.96
2.0567,-10.651,-2.3836,-0.13836,-0.71502,0.16432,-22.5,26.58,4.02
2.0294,-11.073,-2.3155,-0.075136,-0.81428,0.26725,-22.56,26.52,3.84
1.9477,-11.877,-2.2201,-0.046426,-0.73273,0.30207,-22.32,26.46,3.78
2.3291,-11.305,-2.0839,-0.068417,-0.26542,0.33353,-22.08,26.46,3.78
2.5742,-10.774,-2.152,-0.069028,-0.11851,0.31582,-22.02,26.52,3.6
3.9635,-10.215,-2.1929,0.048258,-0.10385,0.13531,-21.9,26.4,3.48
4.5356,-10.542,-2.3563,0.14447,-0.44563,-0.0045815,-21.78,26.4,3.48
4.9987,-10.896,-2.4108,0.19181,-0.90836,-0.16066,-21.78,26.4,3.3
5.094,-10.624,-2.2065,0.12981,-1.2914,-0.31124,-21.42,25.98,2.94
5.0531,-10.406,-1.8932,-0.029016,-1.5482,-0.43616,-21.42,25.86,2.76
5.0531,-10.556,-1.8251,-0.19426,-1.6991,-0.6243,-21.48,25.86,2.82
5.2575,-11.25,-1.1305,-0.52595,-1.7645,-0.96425,-21.66,25.32,2.7
5.3119,-11.414,-0.98067,-0.90622,-1.7788,-1.3619,-21.84,25.38,2.7
5.3119,-11.673,-0.8717,-1.0162,-1.7596,-1.4856,-22.02,25.2,2.82
5.1485,-12.027,-0.38137,-1.3008,-1.5757,-1.7819,-22.8,24.72,2.94
4.9714,-12.136,-0.10896,-1.3696,-1.4957,-1.8662,-23.22,24.18,3.12
4.8625,-12.149,0.12258,-1.5217,-1.23,-2.073,-23.76,23.82,3.3
4.5628,-11.809,0.46309,-1.5605,-1.0324,-2.1973,-24.66,22.98,3.66
4.4402,-11.727,0.64016,-1.5461,-0.84299,-2.299,-25.44,22.38,3.96
4.413,-11.414,0.83084,-1.5021,-0.69058,-2.3695,-26.1,21.78,4.44
4.2359,-11.141,0.84446,-1.3619,-0.54764,-2.423,-27.72,20.76,4.98
4.2087,-10.896,0.83084,-1.2908,-0.53878,-2.4117,-28.44,19.86,5.34
4.2495,-10.692,0.61292,-1.1374,-0.58643,-2.3714,-29.34,18.9,5.7
4.304,-9.8339,0.40861,-0.89614,-0.85094,-2.2535,-31.2,17.34,6.48
4.2904,-9.5479,0.23155,-0.71929,-1.1509,-2.1741,-32.16,16.08,6.72
4.018,-9.507,0.081722,-0.57941,-1.4459,-2.1032,-33.0,15.0,7.08
3.4051,-9.6568,-0.027241,-0.4722,-1.7132,-2.0244,-34.44,12.9,7.8
2.8875,-9.9837,-0.027241,-0.43341,-1.6927,-1.9841,-35.16,11.94,8.16
2.6151,-10.379,0.10896,-0.40836,-1.5608,-1.9215,-35.76,10.8,8.58
0.91256,-11.577,0.76274,-0.39309,-1.3127,-1.8082,-36.96,8.34,9.48
-0.054481,-12.149,1.362,-0.38698,-0.93371,-1.6225,-37.32,7.14,9.66
-0.89894,-12.762,2.0567,-0.35247,-0.51649,-1.3106,-37.8,5.94,9.96
-2.2882,-13.607,2.9011,-0.27764,-0.0015272,-0.67378,-38.4,3.9,10.74
-2.7513,-13.552,3.1191,0.040928,0.32742,-0.082467,-38.64,2.88,11.04
-3.0646,-13.266,3.8137,0.46242,0.61056,0.60567,-38.82,1.98,11.28
-2.6287,-14.315,4.2495,1.025,0.748,1.285,-38.88,0.96,11.46
-1.5119,-16.317,2.8603,1.6044,0.71227,1.8219,-38.94,-0.18,12.0
1.0896,-15.119,1.9341,2.1701,0.39706,2.2058,-39.0,-0.42,12.0
1.471,-13.675,1.0488,2.6762,-0.12095,2.4044,-39.12,-0.48,12.06
1.5527,-12.64,-0.40861,3.2052,-0.99754,2.3763,-39.06,-0.24,11.94
1.1032,-13.035,-1.1441,3.3289,-1.3335,2.3497,-38.88,0.3,11.82
0.62654,-13.607,-1.7979,3.299,-1.2391,2.3595,-38.82,0.96,11.7
0.081722,-14.274,-2.8603,3.0971,-0.71257,2.4563,-38.82,2.94,11.34
0.027241,-14.083,-3.3778,2.7886,0.13561,2.5412,-38.76,3.96,11.16
0.54481,-12.721,-3.5822,2.4804,1.1203,2.5928,-38.52,5.22,11.04
1.076,-11.972,-3.8546,2.193,2.0,2.58,-37.86,7.92,10.5
1.866,-11.019,-4.1542,1.9392,2.6582,2.5256,-37.14,9.42,10.2
2.3427,-10.488,-4.2495,1.6203,3.0794,2.5271,-36.6,11.1,9.72
3.0237,-8.2948,-3.8137,1.1179,3.1695,2.3958,-34.86,14.16,8.4
3.2553,-7.4776,-3.5413,0.84208,3.0177,2.2807,-33.9,15.6,7.8
3.4732,-6.4424,-3.1872,0.65485,2.7807,2.1176,-31.8,18.3,6.12
3.5685,-6.1292,-3.0646,0.45387,2.3882,1.8393,-30.66,19.5,5.4
3.9227,-6.3879,-2.9284,0.46823,2.1032,1.6997,-29.46,20.64,4.44
4.2632,-7.1234,-3.0237,0.51618,1.7116,1.5748,-28.14,21.6,3.3
4.7263,-8.1995,-3.0101,0.60201,1.2089,1.4679,-26.82,22.56,2.4
5.7478,-11.223,-3.7592,0.71685,0.5904,1.416,-23.94,24.42,0.12
6.3743,-12.258,-4.5764,0.73731,-0.087048,1.3613,-22.5,25.02,-1.02
6.851,-11.972,-5.094,0.56322,-1.12,1.0431,-20.1,26.4,-3.12
6.3335,-11.128,-4.7126,0.47953,-1.3876,0.85277,-19.2,26.88,-4.2
5.7205,-10.61,-4.413,0.23305,-1.7291,0.27519,-18.0,27.24,-5.16
3.8682,-11.291,-3.8001,0.0039706,-1.7129,-0.79351,-16.44,27.78,-6.36
3.2825,-12.735,-4.2904,-0.21014,-1.3757,-1.4511,-15.84,28.02,-6.78
3.8273,-13.77,-4.1406,-0.63499,-0.79229,-1.9548,-15.36,28.14,-7.14
4.7671,-13.784,-3.8818,-1.0693,-0.5003,-2.3943,-15.0,28.08,-7.86
5.3528,-13.797,-3.5685,-1.1689,-0.62278,-2.4877,-15.12,27.9,-7.92
5.5843,-13.634,-3.1463,-1.3799,-1.1215,-2.624,-15.42,27.84,-7.74
5.5435,-13.321,-2.3427,-1.5571,-2.1209,-2.7269,-16.2,27.18,-7.68
5.4754,-14.22,-2.0839,-1.587,-2.7364,-2.7248,-16.98,26.82,-7.38
4.7944,-15.391,-1.6208,-1.8415,-3.0672,-2.7333,-18.0,26.46,-7.02
3.732,-17.121,-1.362,-2.1597,-2.8729,-2.7135,-20.34,25.26,-5.88
2.8875,-16.59,-1.2803,-2.5788,-2.2706,-2.6918,-21.6,24.66,-5.16
2.547,-15.609,-1.185,-2.7556,-1.8714,-2.6899,-23.1,23.82,-4.2
2.0567,-12.476,-0.8036,-3.0687,-0.58949,-2.7623,-25.98,22.2,-2.64
2.3563,-11.005,-0.61292,-3.2147,0.10446,-2.8854,-27.18,21.24,-2.04
2.7104,-9.6977,-0.19068,-3.2287,0.41478,-3.1011,-28.5,20.22,-1.2
3.5822,-10.12,0.61292,-2.8839,0.11759,-3.3921,-30.9,18.06,0.54
3.5685,-11.223,0.7355,-2.689,-0.3091,-3.4401,-31.98,16.8,1.38
3.5958,-11.959,0.68102,-2.5091,-0.74617,-3.3039,-33.0,15.48,2.04
3.337,-13.729,0.29965,-2.386,-0.94562,-2.9551,-34.8,12.72,3.72
3.0646,-13.988,0.53119,-2.3033,-0.80604,-2.4917,-35.46,11.22,4.44
2.2882,-13.675,2.0431,-2.1939,-0.50183,-2.0461,-35.94,9.66,5.34
0.31327,-12.939,4.699,-2.0708,-0.37385,-1.6365,-36.54,6.78,6.72
-0.31327,-12.313,5.203,-1.4505,-0.49419,-1.0452,-36.72,5.28,7.38
-1.8251,-10.869,4.7263,-1.1295,-0.51129,-0.80848,-36.78,4.02,7.62
-2.0022,-10.733,4.5356,0.016188,-0.3091,0.065668,-36.72,1.32,8.7
-1.4438,-11.904,4.699,0.79474,-0.098655,0.748,-36.9,0.12,9.24
-0.98067,-13.757,5.4073,1.284,0.10171,1.3546,-36.78,-1.8,9.9
-0.6674,-14.152,5.3528,1.6448,0.32376,1.7874,-36.66,-2.58,10.38
0.040861,-14.805,4.4675,2.0864,0.51679,2.0983,-36.66,-3.18,10.68
1.7025,-14.819,1.9886,2.5745,0.60781,2.3848,-36.48,-3.84,11.22
2.3427,-14.833,1.2258,2.9847,0.52443,2.7052,-36.42,-3.72,11.4
2.4789,-14.642,0.62654,3.2504,0.28314,3.145,-36.36,-3.3,11.4
2.3836,-14.165,-0.29965,3.3335,0.17593,3.2761,-36.12,-2.04,10.86
2.0022,-13.811,-0.89894,3.3814,0.18906,3.2837,-35.94,-1.2,10.56
1.8932,-13.443,-2.3155,3.3918,0.43341,3.2898,-35.76,1.08,9.6
2.0567,-13.212,-3.1327,3.3127,1.055,3.3066,-35.76,2.52,9.0
2.2882,-12.994,-3.8001,3.2327,1.2425,3.3023,-35.64,3.9,8.28
2.3563,-11.959,-3.9499,2.7132,1.8726,3.2577,-35.1,6.72,6.9
2.9284,-11.128,-3.9363,2.4022,1.9059,3.1557,-34.74,8.22,6.18
2.547,-10.392,-3.5958,2.0901,2.0418,3.109,-34.2,9.84,5.28
3.0646,-11.019,-3.1872,1.7315,2.2822,2.9355,-32.58,13.26,3.18
3.5004,-11.673,-3.0101,1.584,2.3421,2.8702,-31.56,14.76,2.04
3.8001,-12.108,-3.0918,1.3772,2.583,2.8332,-30.54,16.2,0.9
5.993,-14.383,-4.4402,1.3094,2.5644,2.8521,-28.26,18.78,-1.44
7.4231,-14.846,-5.1621,1.1939,2.1246,2.8109,-26.94,19.8,-2.64
8.322,-14.41,-5.5707,0.94623,1.4114,2.591,-25.5,20.88,-3.9
8.7443,-10.924,-5.489,0.46762,0.42669,1.69,-22.2,22.62,-6.06
8.2131,-9.0575,-5.3664,0.27672,-0.090103,0.75411,-20.4,23.4,-6.96
7.1234,-7.8862,-5.1894,0.20769,-0.39859,-0.28069,-18.72,23.94,-7.98
4.985,-9.4117,-5.2983,0.14752,-0.26542,-1.1793,-15.78,25.44,-9.9
4.699,-11.196,-5.6933,-0.197,0.10385,-1.8494,-14.46,25.86,-10.74
4.7399,-12.286,-5.7342,-0.64843,0.32254,-2.2849,-13.5,26.28,-11.52
5.0531,-13.021,-5.2575,-1.1512,0.27428,-2.6383,-11.88,26.7,-12.66
5.1076,-13.076,-4.5356,-1.4416,-0.020464,-2.7944,-11.46,26.64,-12.9
4.9442,-12.762,-4.1406,-1.5565,-0.19548,-2.872,-11.28,26.82,-13.2
4.7944,-13.184,-2.9284,-1.7031,-0.7816,-3.0723,-11.4,26.58,-13.14
4.7944,-14.152,-2.7241,-1.7291,-1.1829,-3.1435,-11.94,26.58,-12.9
4.9033,-15.255,-2.4108,-1.8005,-1.5369,-3.1469,-12.66,26.28,-12.6
4.6582,-16.031,-1.4438,-1.9755,-1.945,-3.1066,-14.76,25.68,-11.7
4.6037,-16.263,-1.4165,-2.029,-2.127,-3.0027,-16.26,25.14,-11.22
4.1678,-16.14,-1.2803,-2.2141,-2.0754,-2.9288,-17.82,24.78,-10.56
3.2416,-13.539,-0.91256,-2.3347,-1.8637,-2.8643,-20.82,23.58,-8.94
2.7649,-12.422,-0.70826,-2.427,-1.5721,-2.8845,-22.32,22.92,-8.04
2.5879,-11.128,-0.54481,-2.5641,-1.2428,-2.9441,-23.94,22.14,-6.78
2.4517,-10.27,-0.19068,-2.6151,-0.90011,-3.1011,-27.06,20.4,-4.38
2.4108,-10.338,0.027241,-2.6087,-0.7196,-3.1661,-28.5,19.56,-3.3
2.3563,-10.501,0.095342,-2.5925,-0.53726,-3.1719,-29.64,18.36,-1.98
2.2201,-11.087,0.24517,-2.5592,-0.33842,-3.1017,-32.1,15.78,0.42
2.2474,-11.346,0.50395,-2.4994,-0.095295,-2.9639,-33.06,14.22,1.74
2.0431,-11.809,0.77636,-2.3534,0.17196,-2.7431,-34.02,12.66,2.88
1.5391,-12.313,1.5527,-2.1927,0.4612,-2.4013,-35.64,9.42,4.92
1.2803,-12.572,1.9068,-1.8561,0.86987,-1.7339,-36.12,7.74,5.76
0.99429,-12.953,2.3836,-1.6988,0.86651,-1.47,-36.48,5.94,6.66
0.35413,-10.719,2.5742,-1.0892,0.22266,-0.67776,-36.96,2.28,7.98
-0.55843,-10.42,3.2825,-0.51985,-0.32956,0.13806,-37.32,-1.02,8.94
-0.9398,-10.855,3.5004,0.031154,-0.7254,0.96456,-37.38,-2.64,9.3
-1.2531,-12.354,3.4868,0.62156,-0.7816,1.5403,-37.32,-5.16,9.96
-0.6674,-13.402,3.2144,1.5516,-0.27947,2.1069,-37.26,-6.9,10.32
0.28603,-13.866,2.6968,2.2174,0.091935,2.4932,-37.32,-7.5,10.38
2.1793,-14.22,1.2531,2.8668,0.10843,2.8839,-37.32,-7.86,10.38
3.6094,-14.124,-0.40861,3.4364,-0.31612,3.2083,-37.2,-7.14,10.32
3.7865,-14.41,-1.5527,3.8097,-0.97861,3.4095,-37.08,-5.52,10.2
3.228,-14.369,-2.1793,3.9578,-1.5272,3.43,-36.78,-3.18,10.08
2.6968,-14.056,-2.2882,3.8265,-1.7776,3.3231,-36.6,-1.92,10.08
1.7298,-12.994,-2.3563,3.3567,-1.3436,2.9877,-35.94,1.2,9.84
0.85808,-11.931,-2.7922,3.0461,-0.50457,2.7324,-35.7,4.38,9.3
0.51757,-11.169,-3.2961,2.7571,0.61178,2.4413,-35.1,7.68,8.58
1.2531,-10.365,-3.6775,2.4694,1.6576,2.1967,-34.14,10.86,7.8
1.9886,-9.507,-3.8954,2.1609,2.419,2.0669,-32.88,13.98,6.72
2.7377,-9.2891,-3.6775,1.77,2.9795,1.9499,-31.5,16.44,5.58
3.2825,-9.2346,-3.3097,1.5278,2.9413,1.8995,-30.6,17.64,5.1
4.0997,-9.4117,-2.8739,1.3424,2.6246,1.8885,-29.16,19.74,3.36
4.2359,-9.9156,-2.8875,1.266,2.2135,1.9444,-28.26,20.7,2.4
4.6037,-11.182,-3.4459,1.2941,1.8656,2.0837,-26.52,22.26,0.36
5.4481,-13.13,-4.3858,1.3381,1.525,2.2275,-24.36,23.64,-1.74
6.1973,-13.988,-5.0668,1.3836,1.0745,2.3439,-23.28,24.24,-2.7
6.9055,-13.62,-5.9249,1.2853,0.46609,2.2944,-21.06,25.38,-4.8
6.6195,-11.768,-5.8023,0.83994,-0.33598,1.7477,-18.6,26.16,-7.02
6.4424,-10.91,-5.6661,0.6521,-0.71013,1.1209,-17.58,26.52,-7.92
5.8976,-9.7658,-6.2381,0.49022,-0.96333,0.35736,-15.42,27.24,-9.78
5.0804,-11.441,-6.6331,0.2981,-1.0403,-0.37141,-13.56,27.66,-11.16
4.5356,-12.926,-6.5786,-0.037874,-0.93279,-0.96211,-12.18,28.14,-12.24
4.4402,-13.062,-6.1836,-0.62094,-0.77366,-1.3851,-11.64,28.38,-12.54
4.2904,-12.83,-5.0531,-1.274,-0.70433,-1.8439,-11.28,28.38,-13.14
3.8954,-12.149,-4.3449,-1.6518,-0.64385,-2.0986,-11.28,28.56,-13.44
3.7047,-11.21,-3.5004,-1.9261,-0.5568,-2.3097,-11.52,28.5,-13.38
3.7456,-11.155,-2.8739,-2.0458,-0.55741,-2.4838,-12.0,28.44,-13.14
4.1133,-12.04,-2.261,-2.0965,-0.69822,-2.5693,-12.84,28.38,-12.72
4.5901,-13.797,-1.757,-2.1597,-1.1133,-2.5018,-14.64,27.84,-11.52
4.6854,-14.478,-1.6617,-2.2287,-1.4175,-2.3253,-15.96,27.6,-10.74
4.6582,-15.337,-1.0079,-2.3369,-1.5757,-2.1426,-19.02,26.82,-9.24
3.9499,-15.691,-0.95342,-2.3967,-1.5635,-1.9386,-20.46,26.46,-8.52
3.5958,-15.064,-0.74912,-2.5833,-1.1707,-1.8433,-23.58,25.62,-6.54
2.9829,-12.803,-0.42223,-2.7022,-0.65149,-1.9013,-26.46,24.48,-4.5
2.6968,-10.583,-0.17706,-2.8387,-0.096822,-2.0858,-29.28,23.16,-2.22
2.8875,-9.6704,0.027241,-2.9438,0.49388,-2.5888,-30.72,22.38,-1.08
3.1191,-8.9622,0.24517,-2.8692,0.56597,-2.9578,-33.48,20.52,0.72
3.2008,-9.221,0.58567,-2.7028,0.46029,-3.2898,-34.44,19.56,1.56
3.1599,-10.134,0.8036,-2.4835,0.27336,-3.5131,-36.78,17.52,2.94
3.1191,-11.618,0.47671,-2.2431,0.009163,-3.5699,-38.52,15.06,4.38
2.9692,-12.081,0.57205,-2.0296,-0.17287,-3.4236,-39.36,12.24,5.82
2.6151,-12.871,0.64016,-1.7908,-0.2135,-3.0543,-41.04,10.5,6.24
2.1929,-12.585,1.185,-1.4707,-0.039401,-2.2068,-42.54,7.32,7.14
1.9886,-12.027,1.2803,-1.1319,0.038179,-1.5754,-43.2,5.64,7.5
1.7706,-10.978,1.4029,-0.76175,-0.050091,-1.0037,-44.34,2.28,7.92
1.3212,-10.324,1.3893,-0.34392,-0.17868,-0.45357,-45.24,-0.66,8.4
1.185,-10.624,1.3757,0.10324,-0.2584,0.044899,-45.66,-2.16,8.4
0.96704,-10.869,1.4438,0.47556,-0.19823,0.50519,-46.32,-4.5,8.82
1.1577,-11.332,1.185,1.015,0.078802,1.1209,-46.62,-6.18,8.94
1.4165,-11.523,1.0215,1.3534,0.25748,1.4887,-46.8,-6.84,9.06
2.2882,-11.536,0.49033,1.6909,0.30757,1.8583,-46.68,-7.38,9.18
2.9965,-11.264,-0.43585,2.0192,0.18387,2.2113,-46.68,-7.2,9.42
3.1191,-11.114,-0.83084,2.324,-0.081245,2.4682,-46.56,-6.18,9.3
3.0646,-11.114,-1.0488,2.6719,-0.49663,2.6786,-46.44,-5.46,9.3
2.6151,-11.005,-1.2939,2.81,-0.69914,2.6887,-46.08,-3.42,9.36
2.2337,-10.992,-1.5391,2.8668,-0.75381,2.6673,-45.78,-0.78,9.72
2.1793,-10.869,-2.1384,2.8585,-0.7086,2.7012,-45.48,0.48,9.66
2.0703,-10.665,-3.0373,2.8634,-0.59895,2.7116,-44.76,3.72,9.42
2.1929,-10.188,-3.8409,2.7941,-0.37324,2.7312,-43.68,6.96,9.12
2.0703,-9.5751,-4.3313,2.6038,-0.24038,2.7639,-42.72,10.08,8.34
1.5527,-8.7306,-4.4947,2.5177,-0.21564,2.602,-42.24,11.64,8.1
1.3212,-8.54,-4.8216,2.4233,0.084605,2.4038,-40.56,14.7,7.68
1.7025,-9.1937,-4.9033,2.2694,0.4722,2.3066,-38.52,17.52,6.9
2.1112,-9.4661,-5.0395,2.0641,0.79382,2.2489,-37.5,18.84,6.3
2.5606,-10.896,-5.1621,1.8531,0.89309,2.175,-35.04,21.54,5.1
2.6696,-12.381,-5.2847,1.6347,0.98105,2.0989,-32.46,23.76,3.48
3.2961,-14.002,-5.8295,1.3262,1.3308,1.9514,-29.82,25.44,2.04
3.9771,-14.506,-6.3198,1.0791,1.5079,1.7596,-28.68,26.34,1.08
4.7671,-13.947,-6.4288,0.72968,1.5879,1.467,-25.86,28.08,-0.6
5.0259,-11.754,-5.9657,0.29841,1.5727,1.0629,-23.16,29.52,-2.34
4.9578,-10.106,-5.3392,-0.0039706,1.4361,0.52718,-20.94,30.72,-4.26
4.9033,-9.4389,-5.2847,-0.20159,1.164,-0.048258,-19.92,31.26,-4.98
4.985,-9.7522,-5.094,-0.44196,0.66523,-0.79382,-18.24,31.98,-6.36
4.7944,-10.924,-5.0395,-0.61178,0.33292,-1.1551,-17.16,32.4,-7.56
4.6309,-11.468,-4.9306,-0.79565,0.09896,-1.401,-16.74,32.58,-8.04
4.5901,-12.163,-4.4811,-0.94562,-0.10599,-1.5476,-16.44,33.12,-8.7
4.699,-12.258,-4.1542,-1.1136,-0.38271,-1.639,-16.62,33.18,-8.88
4.8897,-13.116,-3.4459,-1.2471,-0.72724,-1.7278,-17.64,32.82,-8.58
4.7399,-13.171,-3.2144,-1.5284,-1.2666,-1.8329,-18.12,32.82,-8.34
4.2495,-12.885,-2.833,-1.6985,-1.4493,-1.9145,-19.62,32.58,-7.56
3.4868,-12.762,-2.3563,-1.8741,-1.4105,-2.0101,-21.84,32.28,-6.72
3.1054,-12.735,-1.9613,-2.0485,-1.1478,-2.1185,-23.04,32.04,-6.12
2.8058,-12.517,-1.471,-2.2074,-0.76969,-2.2306,-25.68,31.62,-4.74
2.6832,-11.536,-1.0624,-2.3592,-0.36102,-2.3277,-28.5,30.96,-3.18
2.6151,-10.433,-0.92618,-2.4584,0.061392,-2.4181,-31.14,29.94,-1.38
2.6968,-9.5342,-0.64016,-2.4664,0.51435,-2.6249,-32.52,29.34,-0.66
2.8467,-8.6625,-0.38137,-2.3836,0.62553,-2.7975,-35.4,28.14,0.84
2.9556,-8.0905,0.054481,-2.2724,0.58215,-2.9664,-38.22,26.58,2.28
2.833,-7.8998,0.12258,-2.1331,0.42119,-3.1145,-41.1,24.48,3.78
2.7649,-7.9951,0.14982,-1.9526,0.21136,-3.2034,-42.36,23.22,4.5
2.5879,-8.3765,0.10896,-1.7541,0.015882,-3.1921,-44.88,20.46,5.76
2.547,-8.6081,0.081722,-1.4584,-0.19578,-2.9755,-46.08,18.9,6.36
2.3563,-9.1665,0.095342,-1.2599,-0.24587,-2.6863,-48.36,15.6,7.68
2.1929,-9.9292,0.38137,-1.0574,-0.2022,-2.2767,-50.52,12.0,8.88
2.1793,-10.283,0.36775,-0.821,-0.09896,-1.7709,-51.48,10.2,9.42
2.4108,-10.992,0.32689,-0.59315,0.045509,-1.2217,-53.04,6.54,10.44
2.6015,-10.869,0.12258,-0.19334,0.2251,-0.36316,-54.3,3.12,11.52
2.656,-10.515,0.081722,0.09499,0.22724,0.1347,-54.72,1.32,12.06
2.6696,-10.311,0.01362,0.4444,0.16066,0.54978,-55.44,-1.5,12.78
2.5606,-10.542,0.14982,0.76755,0.090713,0.94134,-55.86,-2.58,13.08
2.3836,-11.441,0.46309,1.1041,0.094073,1.3198,-56.28,-4.38,13.56
1.9205,-12.326,0.74912,1.4099,0.14875,1.7193,-56.22,-5.4,13.62
1.6753,-12.735,0.69464,1.7138,0.29841,2.1545,-56.04,-5.34,13.56
1.8387,-12.844,0.49033,2.1609,0.47159,2.8121,-55.98,-4.92,13.5
3.1599,-12.735,-0.7355,2.4624,0.21533,3.1747,-55.98,-3.66,13.2
3.9227,-13.021,-1.5119,2.7205,-0.49022,3.361,-55.86,-2.52,12.96
3.909,-13.293,-2.1112,2.8304,-1.3241,3.3934,-55.5,0.42,12.42
3.6503,-13.157,-2.1384,2.7694,-1.9816,3.3029,-55.32,2.1,12.0
2.7786,-12.735,-2.438,2.5968,-2.2248,3.1093,-54.78,4.02,11.64
1.2531,-11.523,-2.9965,2.2688,-1.4523,2.7516,-53.4,8.34,11.1
0.8717,-11.114,-3.2144,2.0195,-0.29108,2.4887,-52.62,10.56,10.8
0.77636,-10.134,-3.5413,1.773,0.96059,2.1866,-51.6,12.78,10.68
1.6072,-8.9077,-3.8954,1.5088,1.8989,1.8867,-50.58,14.94,10.44
2.5061,-7.5184,-4.0861,1.2471,2.3378,1.6554,-48.24,19.38,9.42
2.7786,-7.1507,-3.9635,0.90713,2.3112,1.3961,-47.1,21.48,8.76
3.1054,-6.6876,-3.4323,0.75228,2.0559,1.2706,-45.6,23.4,7.92
3.3915,-7.1643,-3.2416,0.65332,1.6857,1.1799,-42.42,27.24,6.24
3.5822,-7.8317,-3.228,0.63194,1.339,1.168,-40.74,28.8,5.28
3.9227,-8.9077,-3.2961,0.70799,1.0275,1.2135,-39.06,30.24,4.5
4.7263,-11.605,-4.0044,0.81276,0.48503,1.3955,-35.58,32.94,2.58
5.0531,-12.34,-4.3449,0.87476,0.10049,1.5116,-34.02,33.96,1.38
5.2166,-12.544,-4.7126,0.84727,-0.33598,1.5446,-32.64,34.92,0.24
5.5435,-12.381,-5.1076,0.79626,-0.56169,1.4942,-31.2,35.7,-1.02
5.5707,-11.904,-5.1757,0.49083,-1.1121,1.0351,-29.64,36.42,-2.16
4.7399,-10.161,-4.7399,0.23152,-1.2758,0.49022,-26.94,37.74,-4.5
4.0452,-10.46,-4.3585,0.014661,-1.1793,-0.18326,-25.86,38.28,-5.4
3.0646,-12.503,-4.3858,-0.18021,-0.83994,-0.83841,-25.02,38.82,-6.3
3.3506,-13.307,-4.2087,-0.49236,-0.2868,-1.3949,-23.76,39.72,-7.38
3.8273,-13.593,-4.2223,-0.75106,0.1631,-1.7263,-23.34,39.96,-7.74
4.2904,-13.62,-4.0589,-1.007,0.2025,-1.9453,-23.34,40.2,-7.86
5.4481,-12.626,-3.3234,-1.113,-0.34544,-1.974,-23.7,40.56,-8.1
5.4754,-11.741,-2.5742,-1.1567,-1.19,-1.9713,-24.18,40.62,-7.92
4.7126,-11.441,-1.5255,-1.1457,-2.0192,-1.9395,-25.74,40.38,-6.96
4.2359,-12.095,-1.0215,-1.1353,-2.6087,-1.7678,-26.76,40.08,-6.24
4.0316,-12.503,-1.0351,-1.2321,-2.5577,-1.5571,-27.9,39.78,-5.34
3.8954,-12.054,-1.0896,-1.3793,-2.252,-1.2911,-31.14,38.88,-2.94
4.0044,-11.359,-0.96704,-1.5107,-1.8827,-1.0489,-32.82,38.28,-1.62
4.0997,-10.706,-0.85808,-1.69,-1.5348,-0.91447,-34.38,37.68,-0.06
4.0997,-9.1529,-0.47671,-1.9939,-1.0082,-0.95784,-37.26,36.3,3.3
4.0725,-8.7034,-0.40861,-2.135,-0.69639,-1.1594,-38.64,35.46,4.92
4.0861,-7.9679,-0.14982,-2.1713,-0.56688,-1.2862,-39.9,34.56,6.9
4.522,-7.3141,0.21793,-2.1945,-0.43952,-1.7239,-41.94,32.4,10.86
5.2438,-7.3958,0.31327,-2.1594,-0.86224,-1.9984,-42.96,31.14,12.96
5.9793,-7.641,0.24517,-2.124,-1.7523,-2.1948,-43.68,29.64,15.0
4.7671,-8.3765,0.47671,-2.0458,-2.8213,-2.2529,-44.7,26.46,18.9
4.2087,-8.9349,0.70826,-2.0278,-2.959,-2.222,-44.94,24.66,21.0
3.8682,-9.1665,0.9398,-1.9847,-2.9612,-2.1347,-44.7,22.8,22.98
3.4051,-10.338,1.0624,-1.7416,-2.456,-1.9038,-43.56,18.66,26.58
3.4187,-10.869,0.9398,-1.4795,-1.8992,-1.649,-42.84,16.5,28.32
3.5549,-11.019,0.89894,-1.1597,-1.2889,-1.383,-41.94,14.34,29.88
4.3313,-11.455,0.72188,-0.41722,-0.71135,-0.99479,-40.08,9.72,32.94
4.6854,-11.427,0.44947,0.17685,-0.67012,-0.79535,-39.0,7.62,34.38
4.8897,-11.7,0.31327,0.8604,-0.92821,-0.60353,-37.92,5.58,35.4
4.5628,-11.523,-0.38137,1.4649,-1.3195,-0.42516,-35.28,2.04,37.32
3.4323,-11.509,-0.51757,1.9502,-1.6316,-0.3598,-33.84,0.78,38.16
2.1929,-11.863,-0.47671,2.314,-1.6374,-0.3656,-32.46,-0.48,38.94
0.19068,-11.972,-1.0896,2.6618,-0.9612,-0.33292,-29.58,-2.16,40.2
-0.43585,-12.354,-2.0567,2.8164,-0.17868,-0.18418,-28.08,-2.52,40.68
-1.1577,-13.048,-3.5822,2.6365,0.77763,0.10568,-26.94,-2.58,40.86
-0.70826,-11.032,-3.0237,2.189,1.6466,0.45296,-25.2,-1.92,41.16
-0.27241,-10.052,-2.7649,1.759,2.168,0.75136,-24.6,-1.08,41.04
0.31327,-9.5887,-2.9556,1.4722,2.2868,0.90866,-24.06,-0.24,40.86
1.1986,-8.9349,-3.909,1.2547,2.0864,0.9612,-23.52,2.16,40.08
1.3484,-8.7034,-4.127,1.0779,1.6057,1.0843,-23.46,3.42,39.48
1.5936,-8.1858,-4.2223,1.0369,1.212,1.1567,-23.76,6.3,38.22
1.5663,-7.7091,-4.2223,1.0214,0.78679,1.1857,-24.06,7.74,37.68
1.6753,-7.246,-4.3858,1.0644,0.33811,1.2312,-24.36,8.94,37.08
2.0158,-6.8783,-4.8897,1.1377,-0.19517,1.2932,-25.32,11.82,35.64
1.9341,-6.8374,-5.1076,1.1936,-0.82222,1.3644,-25.92,13.26,34.92
1.6344,-6.7829,-5.1757,1.1457,-1.2816,1.4499,-26.52,14.46,34.14
0.88532,-6.6331,-4.9578,1.0589,-1.4661,1.511,-27.18,16.86,33.12
0.78998,-7.0145,-4.699,0.8546,-1.3583,1.5537,-27.3,17.94,32.52
0.76274,-7.5593,-4.5083,0.6747,-1.1826,1.54,-27.06,18.84,32.16
0.70826,-8.1313,-4.4266,0.42944,-0.8039,1.5339,-26.7,19.92,31.8
0.99429,-9.0031,-4.4811,0.2529,-0.1741,1.5763,-25.5,21.66,31.32
2.1929,-10.433,-4.5356,0.039401,0.54306,1.5278,-23.94,23.22,31.32
2.9011,-10.774,-4.5764,-0.10049,0.78374,1.4658,-22.92,23.94,31.2
3.228,-10.637,-4.6854,-0.16341,0.83414,1.4248,-22.02,24.42,31.14
3.5413,-10.215,-4.4811,-0.33231,0.78557,1.2379,-21.3,24.96,31.08
3.732,-9.1256,-4.3994,-0.38271,0.61331,1.0241,-19.14,25.86,31.08
3.8001,-8.5127,-4.4266,-0.40317,0.37721,0.78282,-17.94,26.1,31.26
3.8682,-7.8998,-4.3449,-0.38851,-0.07086,0.41325,-16.02,26.64,31.2
3.8682,-7.7636,-4.2768,-0.39156,-0.39279,0.17959,-15.24,26.7,31.2
3.6639,-7.9543,-4.1678,-0.39737,-0.54428,0.082161,-14.52,26.82,31.14
3.7047,-7.8317,-3.8954,-0.38087,-0.8323,-0.16341,-13.56,26.58,31.14
4.0725,-8.3901,-3.7728,-0.34544,-1.0342,-0.2584,-13.2,26.46,31.14
4.413,-8.826,-3.5549,-0.31796,-1.281,-0.31215,-12.96,26.16,31.08
5.0668,-10.215,-2.942,-0.27733,-1.7269,-0.34514,-12.42,25.32,31.08
5.5571,-11.918,-2.9692,-0.16616,-1.8659,-0.33537,-12.0,25.02,31.14
6.279,-13.552,-3.5549,-0.1408,-2.1506,-0.26237,-11.58,24.66,31.14
7.0417,-12.939,-3.1735,-0.50824,-2.5623,-0.26786,-10.5,23.76,31.02
6.6331,-12.108,-1.8387,-0.75961,-2.6527,-0.49663,-9.78,23.4,31.02
6.0202,-11.536,-1.1032,-0.96272,-2.5586,-0.88117,-9.12,22.98,30.9
5.8295,-11.741,-1.2531,-1.0479,-2.4254,-1.5632,-7.44,21.9,30.78
6.0883,-12.068,-1.3348,-1.1964,-2.2651,-1.8479,-6.72,21.36,30.6
6.1836,-12.054,-0.96704,-1.3381,-2.0846,-2.0122,-5.94,20.82,30.54
6.4016,-11.931,-0.36775,-1.3967,-2.0623,-2.1386,-4.32,19.92,30.36
6.3607,-12.149,0.50395,-1.4172,-2.0858,-2.2535,-3.54,19.38,30.3
6.5514,-12.34,0.69464,-1.4899,-1.9795,-2.3598,-2.64,19.08,30.24
7.1507,-12.027,1.2939,-1.613,-1.7068,-2.4957,-0.84,18.24,29.88
7.3822,-11.632,1.5663,-1.5922,-1.6689,-2.6084,-0.18,17.76,29.76
7.3414,-11.509,1.8115,-1.5406,-1.653,-2.7205,0.42,17.34,29.7
7.1915,-11.278,2.2201,-1.4523,-1.613,-2.8366,1.44,16.68,29.7
7.1915,-11.373,2.2337,-1.3241,-1.5736,-2.912,1.86,16.44,29.46
7.0553,-11.414,2.1656,-1.1872,-1.5705,-2.9853,2.28,16.02,29.4
6.5922,-11.319,2.0567,-1.0409,-1.5653,-3.0485,2.7,15.6,29.34
6.2926,-11.278,1.9886,-0.82467,-1.4981,-3.0949,2.88,15.42,29.52
5.4073,-11.21,1.7298,-0.686,-1.3525,-3.1243,3.0,15.18,29.58
4.9714,-11.073,1.6072,-0.57788,-1.1426,-3.1438,3.12,15.0,29.7
4.5628,-10.801,1.4301,-0.43616,-0.87109,-3.1652,3.24,15.06,29.76
4.0044,-10.229,1.1986,-0.26756,-0.61514,-3.1505,2.94,14.94,29.94
3.6639,-9.9565,0.85808,-0.063225,-0.41386,-3.1032,2.76,15.06,29.94
2.9284,-9.221,0.53119,0.29719,-0.20006,-2.9202,2.04,15.36,30.12
2.2474,-8.717,0.28603,0.58338,-0.13011,-2.6899,1.68,15.48,30.24
1.58,-8.5672,-0.20431,0.95417,-0.20372,-2.3634,1.38,15.72,30.3
0.21793,-8.8396,-1.58,1.2953,-0.37568,-1.9648,0.12,16.26,30.48
-0.77636,-9.0303,-2.4789,1.5342,-0.58246,-1.3854,-0.48,16.44,30.36
-1.6617,-10.706,-2.0294,1.6225,-0.73915,-0.63011,-0.9,16.86,30.24
-1.3484,-12.612,-2.2746,1.6017,-0.41936,0.72785,-1.98,17.64,29.76
-0.50395,-12.354,-3.1327,1.5348,-0.29169,1.1661,-2.28,18.24,29.58
0.054481,-11.319,-3.9227,1.7388,-0.57055,1.905,-2.64,18.84,29.16
1.5391,-9.1393,-4.8352,2.1353,-1.2853,2.0042,-3.0,19.68,28.38
1.6617,-9.8611,-4.5083,2.5476,-2.2208,1.9584,-3.12,20.4,27.84
1.58,-11.659,-3.6775,2.8109,-3.2574,1.9645,-2.64,21.84,26.28
0.39499,-13.92,-3.3915,2.5632,-3.3094,2.0687,-1.92,22.5,25.44
-0.16344,-13.116,-3.0918,2.3827,-3.1176,2.1295,-1.14,23.28,24.48
-0.24517,-11.931,-3.051,2.1371,-2.3857,2.2321,-0.36,23.94,23.46
0.39499,-11.196,-3.5413,2.0623,-0.98807,2.3268,1.74,25.08,21.18
1.3212,-11.196,-3.5277,2.0586,-0.36133,2.354,2.88,25.56,19.98
2.4517,-10.992,-3.8273,2.0351,-0.18112,2.3726,3.96,26.04,19.02
3.7456,-10.46,-4.1814,1.9795,-0.49572,2.4288,6.9,26.82,16.62
4.0725,-10.597,-4.5492,1.96,-0.99388,2.4206,8.46,26.82,15.3
4.0316,-10.311,-4.6718,1.8146,-1.4456,2.2907,9.96,26.94,14.1
3.228,-9.5479,-4.8625,1.7202,-1.6545,2.1414,13.2,27.06,11.52
2.9829,-9.5206,-5.094,1.5769,-1.7486,1.9062,14.88,26.88,10.2
2.6832,-9.6977,-5.4481,1.3772,-1.6591,1.6093,16.38,26.7,9.0
1.8932,-9.902,-5.6797,0.96303,-1.2132,1.1463,19.2,25.86,6.66
1.6072,-9.7385,-5.6252,0.63744,-0.759,0.82864,20.46,25.5,5.4
1.5936,-9.6023,-5.5162,0.34575,-0.33842,0.52993,21.6,24.96,4.38
1.9613,-9.5615,-5.38,0.067501,-0.096822,0.24343,23.76,24.3,2.4
2.1112,-9.2891,-5.1485,-0.18723,0.035125,0.017104,24.78,24.0,1.5
2.3427,-9.2891,-4.7399,-0.33353,0.07025,-0.17715,25.86,23.7,0.54
3.1463,-9.9429,-3.9771,-0.44288,-0.12034,-0.44868,27.06,22.92,-1.02
3.6366,-10.76,-3.8409,-0.47312,-0.44043,-0.61484,27.72,22.74,-1.74
3.8001,-11.182,-3.6639,-0.5397,-0.80176,-0.77702,28.08,22.62,-2.4
4.0316,-12.381,-2.2474,-0.55405,-1.0986,-0.93982,28.5,22.5,-3.42
4.2632,-13.443,-1.7979,-0.51435,-1.2996,-1.0369,28.56,22.62,-3.84
4.6718,-14.397,-1.5527,-0.5507,-1.4578,-1.0657,28.44,22.56,-4.2
5.4754,-14.383,-2.0975,-0.6185,-1.6955,-1.0513,28.08,23.04,-4.62
5.5299,-13.539,-1.9613,-0.8262,-2.1408,-1.1298,27.84,23.22,-4.92
5.3392,-12.476,-1.4438,-0.89767,-2.2593,-1.1915,27.36,23.64,-5.1
4.808,-11.427,-1.0351,-1.3259,-2.3891,-1.5992,27.06,24.06,-5.34
4.1406,-11.455,-0.96704,-1.4297,-2.3359,-1.7113,26.46,24.42,-5.58
4.2223,-13.566,-0.23155,-1.6961,-2.0788,-1.9117,24.72,25.68,-6.0
4.3449,-14.342,0.19068,-1.9722,-1.5547,-2.0574,23.88,26.28,-6.18
4.3858,-14.587,0.38137,-2.3509,-1.2019,-2.1353,22.92,27.12,-6.3
4.0316,-13.77,0.39499,-2.5562,-0.76664,-2.251,21.66,28.02,-6.48
3.3642,-12.231,0.70826,-2.4783,-0.23824,-2.3735,19.2,29.76,-6.48
3.3097,-12.054,0.8036,-2.4532,0.28436,-2.5107,17.76,30.48,-6.24
3.3778,-11.7,0.92618,-2.3735,0.70005,-2.6078,16.32,31.2,-5.88
3.7047,-10.474,0.83084,-2.2513,0.89003,-2.6658,13.2,32.88,-5.16
3.9363,-10.147,0.85808,-2.0889,0.85338,-2.6863,11.52,33.48,-4.44
3.9635,-9.5206,0.68102,-1.7666,0.45784,-2.657,9.66,34.14,-3.6
3.9363,-8.7034,0.54481,-1.5238,0.075442,-2.627,6.06,35.4,-1.86
3.6366,-8.431,0.46309,-1.2944,-0.29658,-2.5623,4.2,35.82,-0.84
3.1735,-8.3084,0.21793,-1.0974,-0.53817,-2.5091,2.34,36.24,0.18
2.656,-8.2948,-0.19068,-0.95264,-0.60567,-2.4273,-1.44,36.66,2.28
2.4925,-8.1858,-0.27241,-0.76786,-0.52687,-2.3027,-3.24,36.84,3.48
2.1384,-8.1041,-0.34051,-0.70616,-0.44196,-2.2462,-5.1,36.9,4.62
1.7979,-8.0905,-0.36775,-0.48808,-0.13134,-2.0067,-8.7,36.42,6.6
1.5663,-7.8317,-0.46309,-0.30696,0.047647,-1.77,-10.38,36.24,7.44
1.4846,-7.8589,-0.68102,-0.076664,0.14294,-1.4606,-13.68,35.58,8.94
1.4982,-7.7908,-0.65378,0.19639,0.13561,-1.0748,-15.12,35.1,9.6
1.7298,-7.75,-0.78998,0.66798,-0.016493,-0.30238,-16.74,34.74,10.02
2.0567,-8.7034,-1.0896,0.85491,-0.094073,-0.027489,-19.32,33.84,10.56
2.2201,-9.398,-0.96704,1.2113,-0.27703,0.53237,-20.34,33.36,11.04
2.2474,-9.9292,-0.7355,1.6887,-0.45387,1.347,-21.3,33.12,11.16
2.2882,-11.605,-0.29965,2.0253,-0.40928,1.8305,-22.56,32.94,11.04
2.4925,-13.498,-0.095342,2.3558,-0.21197,2.3311,-22.86,32.76,10.86
3.4323,-16.344,-0.28603,2.5962,0.076969,2.8726,-23.04,32.76,9.78
4.3449,-16.208,-0.84446,2.9089,0.21533,3.5064,-22.74,33.0,9.06
5.0259,-15.636,-1.5936,3.1227,-0.13897,3.6508,-22.14,33.54,8.28
5.2575,-14.22,-2.4108,3.1985,-0.80909,3.4883,-20.46,34.5,6.24
4.699,-13.593,-2.3427,3.1585,-1.5699,3.0574,-19.32,34.98,5.04
3.6639,-13.307,-2.4789,3.0339,-2.1191,2.5119,-18.06,35.58,3.66
2.1384,-13.416,-2.9965,2.7746,-2.2174,2.073,-15.36,36.48,0.54
1.4982,-13.225,-3.3506,2.1851,-1.3152,1.697,-13.68,37.02,-1.08
0.29965,-12.095,-3.4732,2.0055,-0.74831,1.6185,-12.3,37.32,-2.88
0.16344,-10.12,-3.4051,1.6548,1.2285,1.3744,-9.42,37.62,-5.88
0.7355,-9.3436,-3.6366,1.4752,2.1939,1.2856,-7.74,37.68,-7.26
1.4846,-8.4719,-3.8273,1.2926,2.6667,1.2792,-6.12,37.74,-8.7
2.3563,-7.464,-3.4868,1.182,2.4584,1.3476,-2.82,37.56,-11.34
2.4789,-7.3141,-3.5004,1.0201,2.113,1.4007,-1.26,37.14,-12.3
2.547,-7.246,-3.3506,0.96975,1.7953,1.4505,0.3,36.66,-13.38
2.7649,-7.8862,-3.4051,0.99754,1.5403,1.5214,3.3,35.58,-14.94
3.0646,-8.7715,-3.6503,1.0464,1.3182,1.6215,4.86,34.92,-15.84
3.4459,-9.9292,-3.8954,1.0904,1.1353,1.733,6.36,34.26,-16.32
4.5492,-11.455,-4.9033,1.1047,0.86712,1.8518,9.42,33.0,-17.16
5.0259,-12.027,-5.5026,0.86376,0.21686,1.8799,10.92,32.16,-17.52
5.8567,-12.177,-6.1428,0.47525,-0.13806,1.6582,12.48,31.5,-17.7
5.598,-11.836,-5.1485,0.030238,-0.2416,1.1909,15.66,30.06,-18.42
5.0531,-11.414,-4.2495,-0.42364,-0.066279,0.45998,16.98,29.46,-18.78
4.4539,-11.414,-3.4459,-0.71868,0.36438,-0.39431,18.3,28.8,-19.14
4.4947,-13.539,-4.0589,-0.82436,0.82803,-1.2648,20.46,27.66,-19.32
4.8488,-13.757,-4.3177,-1.127,1.1371,-2.1787,21.24,27.3,-19.44
6.4697,-14.383,-3.8546,-1.1781,1.0305,-2.3353,21.9,27.06,-19.44
6.565,-13.879,-3.4459,-1.4416,0.039401,-2.5498,22.68,26.94,-19.26
5.7886,-12.272,-2.9148,-1.6994,-0.76725,-2.6356,22.62,27.06,-18.9
5.2575,-11.291,-2.0567,-1.7083,-1.3699,-2.7254,22.38,27.36,-18.72
3.8001,-11.06,-1.7162,-1.6991,-1.6622,-2.7749,21.3,28.26,-17.88
3.5685,-11.564,-1.58,-1.7663,-1.6304,-2.6814,20.34,28.8,-17.28
3.6775,-12.667,-1.4438,-1.7969,-1.482,-2.5055,17.88,30.06,-16.08
3.8137,-13.021,-1.2803,-1.8711,-1.3228,-2.284,16.5,30.9,-15.48
3.8273,-12.953,-1.1577,-1.9594,-1.2077,-2.0922,14.88,31.74,-14.64
3.6775,-12.272,-1.0488,-2.0776,-1.0809,-1.9984,13.08,32.64,-13.8
3.0646,-10.311,-0.81722,-2.2162,-0.85582,-2.0568,9.36,34.44,-11.88
3.0237,-9.3027,-0.62654,-2.3155,-0.6521,-2.3711,7.5,35.16,-10.86
2.8603,-9.0848,-0.24517,-2.3176,-0.63194,-2.5094,3.6,36.3,-8.7
2.5742,-9.3844,-0.24517,-2.3237,-0.55558,-2.8268,1.56,36.78,-7.56
2.2882,-9.5615,0.23155,-2.2801,-0.44257,-2.8973,-0.42,37.02,-6.36
2.1248,-9.8339,0.31327,-2.167,-0.28008,-2.8463,-2.28,37.14,-5.1
1.6889,-10.542,0.40861,-2.0522,-0.085521,-2.6634,-6.18,36.96,-2.46
1.6481,-10.883,0.51757,-1.7376,0.1686,-2.0714,-7.74,36.72,-1.08
2.0567,-12.0,1.0896,-1.6173,0.24099,-1.8265,-9.36,36.54,0.18
2.2201,-12.204,1.471,-1.3506,0.28375,-1.2978,-12.36,35.46,3.24
2.2065,-11.809,1.7979,-0.80451,0.064141,-0.50671,-13.68,34.74,4.62
2.1929,-11.305,1.8796,-0.30727,-0.20617,-0.036652,-14.88,34.02,5.88
2.0975,-11.414,1.7706,0.26542,-0.51618,0.37354,-17.04,32.46,8.04
1.5663,-11.959,1.9613,0.96731,-0.70738,0.94318,-18.06,31.86,8.94
0.57205,-12.054,2.3155,1.1435,-0.64202,1.1194,-19.5,30.6,10.56
0.39499,-12.108,2.2746,1.5992,-0.10263,1.5855,-19.92,30.0,11.22
0.74912,-12.449,2.1112,1.934,0.31765,1.9285,-20.16,29.7,11.64
2.0839,-12.612,0.89894,2.3088,0.44166,2.2614,-20.28,29.4,11.88
2.9011,-12.258,-0.01362,2.6114,0.27428,2.5617,-20.1,29.46,11.64
2.6832,-12.054,-0.6674,2.8213,-0.064141,2.7739,-19.86,29.76,11.22
2.3699,-12.149,-1.2122,2.9932,-0.37965,2.8787,-18.72,30.42,9.84
2.2882,-12.272,-1.7298,3.0116,-0.40164,2.8622,-17.82,31.26,9.0
2.1248,-12.19,-2.152,2.9654,-0.20586,2.781,-16.92,31.86,7.74
1.9477,-11.4,-3.3234,2.915,0.14875,2.7232,-14.76,32.94,5.34
2.0975,-11.359,-3.8409,2.8225,0.48808,2.6472,-13.68,33.48,4.02
2.261,-10.828,-4.2223,2.6246,0.68814,2.5271,-12.42,33.96,2.58
2.0839,-9.6704,-4.6037,2.24,1.0238,2.3592,-9.54,34.68,-0.42
2.2474,-9.3027,-4.3177,2.094,1.1448,2.2929,-7.92,35.1,-2.04
2.3563,-9.0848,-3.9908,1.74,1.3314,2.054,-6.24,35.28,-3.6
2.6423,-9.3572,-4.0316,1.4813,1.4862,1.9251,-2.46,35.16,-6.72
3.4187,-10.025,-4.2904,1.3674,1.591,1.8851,-0.6,34.92,-8.16
4.2087,-11.128,-4.7944,1.317,1.5064,1.9832,2.94,34.2,-10.62
5.775,-13.157,-5.5026,1.1814,0.82009,2.0693,4.8,33.72,-11.82
6.3743,-13.934,-5.9249,0.95753,0.16157,2.0491,6.6,33.06,-12.96
6.4424,-13.784,-6.4424,0.76908,-0.075747,1.9722,8.34,32.46,-13.74
5.2575,-11.032,-5.8704,0.057116,-0.12889,1.2743,11.82,31.38,-15.48
4.4947,-9.5479,-5.489,-0.2923,0.27061,0.41172,13.5,30.84,-16.08
3.9635,-9.2482,-5.2166,-0.4331,0.73151,-0.50977,15.18,30.18,-16.68
4.5901,-11.55,-5.4073,-0.76328,1.0904,-1.5794,17.52,29.22,-17.64
4.8216,-12.149,-5.3937,-0.93554,1.0846,-1.8134,18.42,28.74,-18.0
5.1213,-12.98,-5.0531,-1.2272,0.88728,-2.0995,19.08,28.44,-18.24
5.0123,-12.858,-4.0725,-1.6451,0.3207,-2.3509,19.98,28.32,-17.82
4.9033,-12.83,-3.5277,-1.7605,-0.1295,-2.4697,20.1,28.44,-17.52
4.3177,-12.463,-2.6151,-1.8882,-0.49847,-2.5998,19.68,28.62,-16.74
4.2768,-12.653,-2.2065,-1.9426,-0.87323,-2.6924,19.14,28.86,-16.14
4.1814,-13.253,-1.975,-1.9212,-1.054,-2.6872,18.48,29.16,-15.3
4.1406,-13.988,-1.7434,-1.9313,-1.1145,-2.6634,17.34,29.58,-14.64
3.9227,-14.002,-1.5936,-2.0317,-1.179,-2.4795,14.58,30.54,-12.84
3.5685,-12.967,-1.3757,-2.1237,-1.0974,-2.3515,13.08,31.02,-11.94
3.1599,-10.828,-1.1577,-2.1841,-0.93096,-2.2724,9.9,32.22,-9.9
2.7786,-9.398,-0.85808,-2.2559,-0.73609,-2.3323,8.28,32.76,-8.82
2.6696,-8.8396,-0.81722,-2.3097,-0.47067,-2.5779,6.48,33.18,-7.5
2.4925,-7.8045,-0.54481,-2.3259,-0.4215,-2.6991,4.8,33.54,-6.3
2.2882,-7.9679,-0.21793,-2.2688,-0.27581,-2.9798,1.02,33.72,-4.02
2.1929,-8.3493,-0.095342,-2.1887,-0.16127,-3.0638,-0.78,33.54,-2.76
2.1248,-9.0848,-0.095342,-2.0977,-0.036041,-3.0088,-2.52,33.42,-1.62
2.152,-10.556,0.027241,-1.8552,0.11209,-2.6667,-5.64,33.12,0.84
2.0975,-11.182,0.21793,-1.6628,0.18021,-2.2159,-7.32,32.58,2.04
2.1793,-11.85,0.28603,-1.4777,0.25412,-1.6649,-8.46,31.98,3.24
2.0158,-12.204,0.43585,-1.2132,0.31796,-1.0828,-9.78,31.26,4.56
1.5663,-12.204,0.57205,-0.96578,0.40959,-0.48442,-10.86,30.6,5.82
1.5391,-10.651,0.64016,-0.76053,0.47128,0.069028,-12.96,28.92,8.04
1.4438,-10.283,0.78998,-0.42241,0.46578,0.51313,-13.74,27.96,9.12
1.2803,-11.319,1.6481,-0.034208,0.45418,0.87995,-14.46,27.0,9.96
1.2531,-12.381,1.7843,0.39004,0.47403,1.1762,-15.66,25.74,11.52
1.362,-12.803,1.6617,0.83872,0.52382,1.4707,-16.02,25.2,12.12
1.5391,-12.49,1.2258,1.4844,0.34331,1.9493,-16.38,24.72,12.54
1.8251,-11.904,0.28603,1.956,-0.036346,2.2794,-16.5,24.24,13.08
2.1248,-12.177,-0.32689,2.3185,-0.75747,2.6579,-16.38,24.06,13.14
1.7979,-12.258,-0.70826,2.5452,-0.93768,2.7306,-15.54,24.24,12.72
1.2803,-12.245,-0.78998,2.6854,-1.0577,2.8149,-15.06,24.72,12.3
1.0488,-12.231,-1.1032,2.7709,-0.84391,2.8512,-14.34,25.08,11.58
1.4438,-12.095,-1.7025,2.8237,-0.28191,2.828,-12.96,26.34,9.96
2.0431,-11.795,-2.547,2.8793,0.047953,2.8091,-12.06,27.0,9.0
2.4517,-11.768,-3.2961,2.9065,0.26328,2.8198,-11.16,27.72,7.98
3.051,-10.964,-3.9227,2.8188,0.21411,2.7941,-9.36,29.16,5.58
2.9556,-10.474,-4.2495,2.7587,0.13958,2.7617,-7.92,29.64,4.32
2.8058,-10.052,-4.4266,2.5687,0.050396,2.6768,-6.48,30.12,3.06
2.0975,-9.1529,-3.9227,2.1551,0.33353,2.5177,-3.42,30.9,0.36
1.9341,-9.3572,-3.5822,1.872,0.71013,2.3625,-1.92,31.2,-1.14
1.866,-9.6704,-3.2825,1.5681,1.1664,2.2016,-0.3,31.32,-2.52
2.9965,-10.569,-3.0918,1.2098,1.8836,2.033,3.12,31.44,-5.28
3.6639,-11.523,-3.2144,1.062,2.1738,1.9426,4.68,31.26,-6.42
4.3177,-12.517,-3.3778,0.86529,2.3472,1.8686,6.3,31.14,-7.5
5.4481,-13.171,-3.5277,0.64355,2.3146,1.7373,9.84,30.36,-9.48
5.9249,-12.313,-3.2416,0.39981,2.1432,1.4618,11.52,29.94,-10.26
5.993,-11.564,-3.3097,0.22755,1.9361,1.0287,13.26,29.4,-10.86
5.9657,-10.501,-2.9829,0.12126,1.6411,0.055894,16.62,28.44,-11.88
5.993,-10.637,-2.9829,0.18876,1.2923,-0.61484,18.0,28.08,-12.24
6.1292,-11.182,-3.6366,0.19578,1.0516,-0.94195,19.08,27.6,-12.42
6.0066,-12.177,-4.2495,0.085521,0.24526,-1.5941,21.12,26.94,-12.54
5.9112,-12.762,-4.2495,-0.067806,-0.40073,-1.8521,22.02,26.58,-12.42
5.4481,-12.49,-3.8954,-0.34758,-0.99418,-2.0589,22.62,26.4,-12.36
5.8704,-10.951,-2.833,-0.59254,-1.5293,-2.2361,23.1,26.1,-11.94
6.456,-10.869,-2.4244,-0.71654,-2.923,-2.4108,23.16,26.04,-11.64
7.4776,-11.387,-1.7025,-0.70891,-3.539,-2.3915,23.04,26.04,-11.4
7.5865,-13.321,-2.8739,-0.67837,-5.3246,-1.9902,22.08,26.46,-10.92
6.5378,-12.939,-3.2144,-0.94623,-5.6746,-1.6035,21.06,26.58,-10.56
5.5843,-12.0,-2.7104,-1.2825,-4.9697,-1.1878,19.98,26.82,-10.38
5.4481,-11.496,-2.3563,-1.774,-3.5968,-1.0519,17.16,27.3,-10.2
5.1621,-11.7,-1.9068,-2.365,-3.2385,-1.4343,15.66,27.6,-10.14
4.2087,-11.536,-1.7843,-2.7981,-2.8695,-1.923,14.16,27.96,-10.02
1.8796,-12.286,-1.8524,-3.2385,-1.5989,-2.1081,11.46,28.56,-9.48
1.5936,-12.299,-1.0488,-3.6689,0.061697,-2.4068,9.84,28.86,-9.12
1.9613,-12.204,-0.46309,-3.8631,1.2413,-2.7223,8.58,29.04,-8.58
3.0782,-12.422,-0.14982,-3.9328,2.2144,-3.0946,6.06,29.16,-7.26
3.6503,-12.667,-0.21793,-3.769,2.3246,-3.3054,4.86,29.1,-6.48
3.9227,-13.253,-0.12258,-3.5213,2.105,-3.4468,3.72,28.92,-5.46
3.8001,-14.301,0.16344,-3.3552,1.9212,-3.4893,1.44,28.2,-3.3
3.3234,-14.764,0.16344,-2.8155,1.2715,-3.408,0.6,27.9,-2.34
2.7649,-14.86,-0.068102,-2.4679,0.94318,-3.2293,-0.24,27.3,-1.2
1.9477,-13.525,-0.19068,-2.0644,0.59682,-2.9209,-1.74,26.46,1.56
1.1713,-12.476,-0.19068,-1.4184,-0.038485,-2.1783,-2.4,25.86,2.94
0.62654,-10.338,-0.10896,-1.1759,-0.26053,-1.8925,-3.18,25.26,4.14
0.6674,-9.3299,-0.61292,-0.44135,-0.85888,-0.83078,-4.86,23.94,6.6
0.64016,-10.474,-0.54481,-0.0036652,-0.97738,-0.042761,-5.46,23.52,7.8
0.58567,-10.583,-0.31327,0.35125,-0.86468,0.72907,-6.36,22.86,8.76
0.6674,-10.134,0.095342,0.67623,-0.60934,1.3347,-7.56,21.96,10.38
0.96704,-10.174,-0.21793,1.0308,-0.31429,1.8418,-8.22,21.78,10.86
2.1112,-9.8339,-0.85808,1.3558,-0.092852,2.3213,-8.76,21.72,11.46
2.4789,-9.6704,-0.96704,1.653,-0.14264,2.7559,-8.88,21.72,11.76
2.6151,-9.8339,-1.1441,2.0223,-0.40195,3.2251,-8.94,21.96,11.88
2.3291,-10.161,-1.0624,2.1954,-0.45112,3.3756,-8.58,22.68,11.76
2.1929,-10.256,-1.185,2.299,-0.26542,3.4169,-8.1,23.04,11.4
2.4108,-10.624,-2.3155,2.3677,0.18998,3.3964,-6.9,23.88,10.5
2.8194,-10.474,-2.5742,2.263,1.0296,3.2684,-6.18,24.36,9.96
3.3506,-10.243,-2.4653,2.1887,1.2025,3.1951,-5.52,25.02,9.06
3.6366,-9.9156,-1.7706,1.9578,1.4731,2.9263,-3.84,26.34,7.44
3.7592,-9.7113,-1.8387,1.8274,1.642,2.7898,-3.06,26.82,6.42
4.5356,-9.1665,-2.2337,1.7245,1.6047,2.6829,-1.5,27.66,4.62
4.5356,-8.9894,-2.2882,1.7107,1.4404,2.7177,-0.6,28.02,3.78
4.1133,-9.4117,-2.1656,1.7138,1.4419,2.7599,0.24,28.38,3.12
3.9227,-9.9837,-1.9613,1.6466,1.657,2.89,2.16,28.92,1.5
4.2223,-10.883,-2.0294,1.5867,1.8812,2.9572,3.18,29.04,0.72
4.5628,-11.673,-2.2474,1.4462,2.0418,3.0165,4.26,29.04,0.12
6.2926,-14.165,-2.8739,1.2972,2.0769,3.0391,6.66,29.16,-1.14
7.1779,-14.778,-3.2008,1.0724,1.9563,2.8738,7.8,29.04,-1.56
8.5944,-12.926,-3.9908,0.70647,1.6622,2.437,10.38,28.62,-2.28
8.9894,-11.523,-4.2223,0.58826,1.4917,1.7126,11.7,28.26,-2.64
9.0303,-10.583,-4.3858,0.6353,1.1695,0.7813,13.08,27.84,-2.82
8.9486,-10.637,-5.7342,0.84544,0.56016,-0.15424,15.84,27.18,-2.94
8.8124,-12.027,-6.7966,0.87354,-0.20067,-0.8436,17.34,27.0,-3.12
7.927,-13.675,-7.3958,0.56749,-0.9725,-1.2052,19.68,26.22,-3.66
6.8919,-13.784,-7.1643,-0.039095,-1.8781,-1.4163,20.64,25.8,-3.9
6.0611,-13.239,-6.9872,-0.50702,-2.1179,-1.6374,21.42,25.56,-4.08
3.9499,-10.924,-5.6933,-0.89644,-2.0159,-1.9358,22.32,25.32,-4.68
3.4596,-11.032,-4.8897,-1.186,-1.686,-2.2477,22.62,25.08,-4.86
3.3506,-11.863,-4.3994,-1.4523,-1.3592,-2.4667,22.56,24.96,-4.92
3.7047,-13.716,-3.514,-1.6979,-1.1426,-2.6136,21.96,24.9,-5.22
3.8409,-14.192,-3.3097,-2.0284,-0.92454,-2.6111,21.24,25.14,-5.28
3.8682,-14.124,-2.9011,-2.2068,-0.83047,-2.5568,20.4,25.32,-5.34
3.3642,-12.572,-1.9886,-2.3418,-0.72693,-2.4994,18.42,26.04,-5.4
2.8467,-11.441,-1.3893,-2.4474,-0.52198,-2.5091,17.28,26.4,-5.46
2.5061,-9.8611,-1.2258,-2.5397,-0.22297,-2.6072,16.02,26.76,-5.4
2.6015,-8.6353,-0.83084,-2.5681,0.0094684,-2.7535,13.5,27.9,-4.98
2.6423,-8.4446,-0.69464,-2.4978,0.14294,-2.9899,12.24,28.44,-4.5
2.6832,-8.431,-0.44947,-2.3833,0.093462,-3.1017,10.92,28.98,-4.02
2.656,-8.3765,-0.24517,-2.3195,0.037263,-3.1432,8.16,29.82,-2.7
2.6968,-8.4446,-0.19068,-2.0892,-0.22541,-3.1319,6.54,30.24,-1.92
2.5334,-8.6217,0.054481,-1.9126,-0.40439,-2.9987,5.1,30.72,-1.26
1.6344,-9.616,1.0624,-1.6991,-0.53665,-2.7532,2.1,31.02,0.24
1.362,-10.147,1.2667,-1.2798,-0.51038,-2.0669,0.6,31.2,1.02
1.6344,-11.291,1.1441,-0.93982,-0.47922,-1.4597,-0.84,31.32,1.74
1.7025,-12.762,1.3484,-0.69364,-0.42608,-0.7816,-3.66,31.26,3.36
1.3484,-12.0,1.8115,-0.3882,-0.32559,-0.14355,-5.04,31.14,4.26
1.0896,-11.182,2.0158,0.052534,-0.28619,0.37751,-6.42,31.08,5.04
1.0488,-12.122,2.0839,0.56474,-0.37904,0.7981,-8.64,30.84,6.48
0.81722,-13.184,2.3018,1.2394,-0.49144,1.4102,-9.84,30.84,6.72
0.50395,-13.498,2.3427,1.6222,-0.30452,1.8268,-10.5,30.84,7.08
0.34051,-13.961,2.3155,1.8024,-0.11515,2.0449,-11.04,30.84,7.26
1.2803,-14.138,1.6617,2.3524,0.45662,2.6356,-11.58,30.96,7.5
2.5334,-14.192,0.58567,2.7135,0.52809,2.9606,-11.64,30.96,7.5
3.1191,-14.247,-0.91256,3.0223,0.26053,3.2147,-11.34,31.2,7.14
3.1191,-14.478,-1.7025,3.2574,-0.24801,3.4282,-10.14,31.68,6.0
2.8603,-14.369,-2.1656,3.211,-0.40348,3.4383,-9.24,31.86,5.28
2.5742,-14.138,-2.4108,3.0326,-0.29749,3.3668,-8.16,32.16,4.38
1.5255,-13.348,-3.1599,2.8066,0.16707,3.2672,-5.46,32.88,2.4
1.2258,-12.803,-3.4596,2.54,0.91905,3.1527,-4.02,33.12,1.32
1.3212,-12.354,-3.5685,2.2513,2.138,2.9679,-1.08,33.12,-0.84
2.3291,-11.06,-3.6503,1.9343,2.6618,2.8598,0.72,32.94,-1.8
2.6423,-10.311,-3.6775,1.529,2.9181,2.8176,2.4,32.82,-2.7
3.3097,-9.6432,-3.623,1.3433,2.8683,2.7834,4.26,32.58,-3.6
4.6309,-8.5944,-3.6094,1.2425,2.4343,2.7309,8.1,31.98,-5.52
5.1485,-8.6762,-4.3177,1.2431,1.6475,2.6707,10.08,31.44,-6.42
5.6933,-9.4798,-5.0395,1.2181,0.78588,2.6447,12.06,30.84,-7.2
5.8704,-10.379,-5.5571,1.153,-0.16799,2.5479,15.78,29.64,-8.28
6.3335,-10.978,-6.0338,1.0751,-0.79474,2.3973,17.64,28.92,-8.7
6.4969,-11.918,-6.4152,0.94745,-1.062,2.2526,19.44,28.08,-9.12
4.7944,-10.392,-6.6059,0.4441,-0.96792,1.5656,22.74,26.16,-9.96
4.3585,-9.6977,-6.5786,0.12828,-0.24648,0.85338,24.36,25.26,-10.44
4.5083,-9.507,-6.3198,-0.17135,0.3262,0.01405,26.04,24.42,-10.86
5.9249,-11.291,-5.4073,-0.39156,0.26664,-1.0492,28.62,22.98,-11.82
6.0883,-12.408,-5.2983,-0.65943,-0.23427,-1.5702,29.7,22.38,-12.06
5.8295,-13.525,-5.3119,-0.77244,-0.47067,-1.7529,30.48,21.72,-12.36
5.489,-13.511,-4.7944,-1.0247,-1.124,-2.1063,31.56,20.88,-12.84
5.7069,-13.92,-4.3721,-1.0647,-1.6774,-2.2232,31.8,20.82,-13.08
5.8295,-14.247,-3.732,-1.2065,-2.3524,-2.2608,31.8,20.82,-13.38
5.8295,-14.097,-2.3427,-1.3818,-3.0607,-2.2507,31.32,20.94,-13.98
5.5571,-14.288,-1.6344,-1.5715,-3.9037,-2.1695,30.96,21.12,-14.22
5.2438,-14.778,-1.185,-1.7306,-4.0225,-2.0104,30.12,21.54,-14.46
4.6037,-15.514,-0.8036,-1.9572,-3.7544,-1.7956,27.9,22.92,-15.06
4.5083,-14.506,-0.7355,-2.2703,-3.0394,-1.6017,26.58,23.82,-15.3
4.6309,-13.539,-0.31327,-2.5021,-2.0079,-1.5629,24.96,24.84,-15.72
5.1213,-13.389,0.6674,-2.6716,-0.91202,-1.6448,21.78,26.88,-16.26
5.4209,-13.021,1.0624,-3.0534,0.27336,-2.0672,20.04,27.9,-16.44
5.8023,-11.414,1.9341,-3.1481,0.57757,-2.4325,16.44,30.42,-16.74
5.8431,-10.951,2.1384,-3.1557,0.64507,-2.7981,14.58,31.56,-16.74
5.6797,-10.651,2.6968,-3.0809,0.58032,-3.1099,12.66,32.76,-16.44
5.3937,-10.515,3.0101,-2.9105,0.46304,-3.343,8.7,34.92,-15.42
5.1349,-10.869,2.8875,-2.613,0.33934,-3.5558,6.6,36.18,-14.7
4.7671,-11.918,3.0782,-2.3323,0.31093,-3.7492,4.44,37.44,-13.86
4.4539,-12.544,3.6094,-1.9316,0.41203,-3.8442,2.1,39.18,-11.76
4.4675,-12.926,3.5822,-1.7761,0.44502,-3.8106,-2.28,39.78,-10.5
4.6037,-13.116,3.3915,-1.1347,0.2416,-3.5577,-4.62,40.32,-9.36
4.6718,-13.144,2.5742,-0.66645,-0.13531,-3.262,-9.6,40.86,-6.36
4.304,-12.612,2.3155,-0.19884,-0.59162,-2.792,-12.18,40.92,-4.86
3.3642,-11.169,1.7298,0.45754,-1.1316,-1.9594,-17.28,40.56,-2.4
2.9284,-9.9429,1.2395,0.66035,-1.2245,-1.6897,-19.8,40.32,-1.2
2.7513,-9.4661,0.92618,1.0809,-1.3332,-1.2327,-22.26,39.96,-0.18
1.7843,-8.9077,0.23155,1.6661,-1.3173,-0.6634,-26.94,39.0,1.14
0.95342,-8.0905,-0.28603,1.9432,-1.1228,-0.30207,-28.98,38.46,1.62
0.14982,-7.2324,-0.64016,2.2394,-0.79412,0.061697,-30.84,37.68,2.1
0.39499,-7.464,-1.8387,2.722,-0.40623,0.68997,-34.2,36.54,2.22
1.1986,-8.2676,-2.3836,2.897,-0.44288,1.1252,-35.46,35.94,2.04
1.866,-8.826,-2.6151,3.018,-0.83719,1.4688,-36.54,35.7,1.68
2.3018,-9.2074,-3.1735,3.1081,-1.3848,1.6811,-37.68,35.16,0.54
2.1929,-9.3299,-3.2961,3.1634,-1.9456,1.7828,-37.98,35.04,-0.36
1.6753,-9.8339,-3.3097,3.1618,-2.3457,1.8036,-37.92,34.98,-1.14
0.65378,-10.637,-3.514,3.0714,-2.434,1.8457,-37.5,35.22,-3.36
0.24517,-10.91,-3.8273,2.8219,-1.8656,1.9374,-37.14,35.46,-4.38
0.28603,-11.128,-4.2495,2.7443,-1.5455,1.9734,-36.78,35.82,-5.58
1.3484,-10.406,-4.6173,2.5146,-0.63072,2.0033,-35.64,36.54,-7.98
2.0294,-9.8066,-4.9306,2.3741,-0.39737,1.9041,-34.92,37.02,-9.3
2.438,-9.2074,-5.1485,2.2083,-0.5229,1.7306,-34.2,37.26,-10.8
-1.6753,-9.902,-8.2539,2.0614,-0.7929,1.5385,-32.64,37.62,-13.44
-6.0883,-10.065,-10.12,0.83841,1.9254,1.3839,-31.92,37.8,-14.64
6.2926,-8.5263,-4.8488,0.13531,2.6921,1.1136,-30.06,37.92,-16.5
7.2869,-7.0962,-4.3449,0.48381,0.31032,1.3155,-28.92,38.1,-17.58
2.8603,-7.246,-5.0259,0.98991,-0.59468,1.6985,-27.72,38.28,-18.42
3.9363,-9.4661,-5.0804,0.88239,-0.72113,1.8298,-25.44,38.34,-20.1
3.7047,-8.8941,-5.1485,0.90866,-1.5351,1.8189,-24.12,38.4,-20.7
2.9556,-9.1393,-5.8023,1.0143,-1.9505,1.8265,-22.8,38.58,-21.54
2.9965,-9.0848,-6.456,0.98563,-1.9948,1.8271,-19.98,38.4,-22.8
3.0101,-8.9622,-6.6059,0.93035,-2.0501,1.7275,-18.72,38.34,-23.4
3.0373,-8.9213,-6.7693,0.6521,-2.1093,1.4426,-17.64,38.22,-23.94
2.8467,-8.54,-6.7285,0.35155,-2.1295,1.2165,-15.18,38.4,-24.6
2.9692,-8.8396,-6.4424,0.083689,-2.102,1.0308,-13.92,38.46,-25.14
3.5277,-10.992,-6.0611,-0.19884,-2.0204,0.89797,-11.94,38.82,-26.1
4.5492,-13.13,-5.6116,-0.53939,-1.7651,0.83689,-11.28,39.06,-26.46
5.38,-15.377,-6.4969,-0.60812,-1.6365,0.98044,-10.74,39.24,-26.7
7.246,-17.216,-6.6195,-1.43,-1.0748,1.0492,-9.78,39.66,-27.0
8.6081,-13.716,-4.127,-2.3909,-0.1799,0.78863,-9.42,40.08,-27.06
10.665,-11.986,-2.9556,-2.5412,-0.029932,0.088881,-9.12,40.5,-26.88
11.032,-13.866,-2.0839,-2.4007,-1.1603,-1.2901,-9.36,41.34,-25.98
10.433,-14.165,-1.3757,-2.6783,-1.3182,-1.9676,-9.54,41.88,-25.32
9.398,-13.906,-0.28603,-2.799,-1.211,-2.2327,-9.9,42.36,-24.48
7.8998,-13.416,0.70826,-2.9144,-0.77305,-2.7327,-11.04,43.5,-22.32
7.0826,-13.239,1.4301,-2.8915,-0.33964,-2.9939,-12.06,43.98,-20.82
6.8647,-13.171,1.9613,-2.7724,0.1292,-3.1765,-13.26,44.52,-19.2
7.0145,-12.749,2.7649,-2.4538,0.52443,-3.397,-15.96,45.0,-15.6
7.2733,-12.681,2.9692,-2.1521,0.3653,-3.5082,-17.52,45.0,-13.86
7.5048,-12.694,2.9965,-1.8198,-0.098044,-3.572,-19.2,45.0,-12.0
7.1234,-13.076,3.1599,-1.503,-0.70921,-3.6392,-23.34,44.28,-8.34
6.5922,-13.021,3.2825,-1.2233,-1.2107,-3.6899,-25.56,43.38,-6.48
5.8159,-12.776,3.0646,-0.96639,-1.4725,-3.7596,-28.02,42.48,-4.56
4.4811,-12.299,2.7649,-0.58949,-1.427,-3.8726,-32.58,39.9,-1.14
4.0997,-12.054,2.656,-0.36774,-1.2404,-3.9095,-34.86,38.28,0.42
3.6366,-11.359,2.3018,-0.24709,-1.1258,-3.9022,-37.02,36.48,1.98
3.1327,-10.515,1.6753,0.092852,-0.82161,-3.7666,-41.1,32.28,4.62
2.942,-9.9156,1.3757,0.31337,-0.68478,-3.5577,-42.96,29.94,5.58
2.0022,-8.6898,1.0488,0.54153,-0.57452,-3.244,-46.26,25.02,7.26
1.7025,-8.1858,0.81722,0.74984,-0.47953,-2.8601,-47.76,22.56,7.98
1.1169,-7.355,-0.24517,1.0165,-0.39279,-2.4364,-48.96,20.34,8.46
0.62654,-7.4503,-0.8036,1.3292,-0.36194,-1.9936,-50.88,15.6,9.6
-0.027241,-7.8998,-1.4438,1.6524,-0.43188,-1.5296,-51.6,13.38,9.96
-0.40861,-8.145,-2.0158,2.0302,-0.63072,-0.7086,-52.02,11.52,10.32
-1.2395,-9.8748,-1.9886,2.1295,-0.7758,-0.042455,-52.8,7.86,10.8
-1.4438,-11.931,-1.4438,2.1997,-0.66523,1.2089,-52.98,6.3,10.86
0.27241,-13.879,-2.5606,2.0733,-0.30268,1.6478,-53.16,4.08,11.22
1.4165,-12.299,-3.2825,2.2009,-0.33506,2.5158,-53.28,3.48,11.28
1.975,-11.509,-3.7047,2.4526,-0.65454,2.6563,-53.1,3.18,11.34
2.5879,-11.455,-4.0316,3.2706,-2.1826,2.7675,-52.92,3.18,11.28
2.4653,-13.852,-3.514,3.6719,-3.273,2.7877,-52.26,4.44,11.52
1.0488,-15.854,-3.2008,3.7541,-4.1887,2.8723,-51.54,5.22,11.64
-1.4438,-15.868,-2.9556,3.5473,-4.1407,2.8848,-50.28,7.74,12.24
-2.4108,-14.914,-3.1872,3.0824,-2.9456,2.861,-49.38,9.36,12.6
-2.6423,-13.988,-3.7728,2.864,-1.6887,2.7788,-48.48,11.04,12.84
-1.8115,-13.389,-4.3449,2.6722,-0.59437,2.6747,-46.5,14.88,13.44
-0.44947,-13.062,-4.8625,2.4389,0.067501,2.6304,-45.36,16.98,13.74
0.70826,-12.953,-5.5435,2.2339,0.27,2.6728,-43.92,19.08,13.92
2.0022,-12.667,-6.1564,1.9206,-0.07758,2.7489,-40.68,23.4,13.74
1.9613,-11.891,-6.2517,1.675,-0.29871,2.7129,-38.82,25.44,13.68
2.1248,-11.536,-6.2245,1.5492,-0.45112,2.6649,-36.84,27.3,13.44
2.4108,-11.346,-6.6059,1.405,-0.5339,2.5247,-32.58,30.84,12.9
2.438,-11.141,-6.8919,1.1524,-0.51313,2.3552,-30.54,32.34,12.42
2.6015,-10.474,-6.9872,0.82558,-0.40348,2.1396,-28.56,33.84,11.94
3.0918,-8.5808,-6.7693,0.45143,-0.38454,1.7006,-24.36,35.94,10.5
3.1735,-8.1722,-6.5378,0.26023,-0.50519,1.3662,-22.32,36.9,9.72
3.0782,-7.927,-5.8023,0.033292,-0.61331,1.0495,-20.1,37.68,9.06
3.1872,-7.9407,-5.3937,-0.21441,-0.70372,0.77549,-17.94,38.34,8.28
3.5413,-8.8124,-4.7671,-0.42913,-0.74251,0.5284,-14.28,39.36,6.9
3.8001,-9.3163,-4.3994,-0.66859,-0.70402,0.2923,-12.72,39.72,6.24
4.2768,-10.311,-3.2553,-0.9557,-0.54275,-0.12095,-11.4,39.9,5.76
5.1485,-12.49,-2.3699,-0.99571,-0.50641,-0.27306,-8.82,40.08,5.22
6.1973,-13.607,-2.4789,-1.2123,-0.60292,-0.77824,-7.86,39.9,5.28
6.9328,-14.124,-2.4517,-1.3369,-0.89431,-1.1884,-7.08,39.54,5.34
7.3822,-14.601,-2.547,-1.4587,-1.4035,-1.6283,-6.48,39.24,5.52
6.2654,-14.737,-1.9068,-1.7196,-1.9074,-2.1279,-6.06,38.88,5.88
6.2654,-14.737,-1.9068,-2.1451,-2.2226,-2.6924,-5.64,38.34,6.24
4.3585,-17.543,-1.0351,-2.5702,-2.0104,-2.9245,-5.76,37.08,7.56
4.127,-18.428,-0.74912,-2.9328,-1.5757,-3.0586,-6.0,36.24,8.46
4.0452,-18.769,-0.57205,-3.2794,-1.0192,-3.1973,-6.48,35.34,9.36
3.7728,-17.775,-0.31327,-3.5778,-0.35736,-3.3857,-7.56,33.3,11.1
3.8001,-16.862,0.027241,-3.6701,0.28253,-3.6267,-8.4,32.22,12.12
4.0725,-16.44,0.6674,-3.5968,0.71074,-3.9074,-10.02,30.06,14.1
4.1814,-16.562,0.58567,-3.4276,0.90164,-4.3921,-11.04,28.68,14.88
4.2223,-16.535,0.61292,-3.3005,0.82497,-4.652,-11.94,27.12,15.78
3.9363,-15.854,0.57205,-3.1979,0.71074,-4.8286,-14.4,24.12,17.22
3.732,-15.268,0.35413,-3.0528,0.57696,-4.9159,-15.6,22.5,18.18
3.5958,-14.764,-0.16344,-2.8766,0.4047,-4.9746,-16.68,20.88,18.84
3.1599,-14.71,-1.2395,-2.7147,0.22724,-5.0152,-19.14,17.58,20.04
2.8603,-14.506,-1.185,-2.6102,-0.0018326,-4.8414,-20.16,15.9,20.64
2.5061,-13.838,-0.89894,-2.6029,-0.01405,-4.7483,-21.42,14.22,20.94
1.4438,-12.027,-0.89894,-2.4187,0.021075,-4.3936,-23.82,10.56,21.6
1.0624,-10.937,-1.0896,-2.2126,0.13225,-4.072,-24.96,8.64,22.02
0.78998,-9.8066,-0.95342,-1.97,0.30055,-3.6514,-25.98,6.6,22.2
0.35413,-6.9328,-0.64016,-1.6503,0.47617,-2.9092,-28.02,2.4,22.56
0.31327,-5.6933,-0.58567,-0.98197,0.38882,-2.3384,-28.86,0.48,22.92
0.27241,-4.699,-0.61292,-0.41692,0.12278,-1.7291,-29.88,-1.44,22.98
0.081722,-4.0316,-0.54481,0.14447,-0.20097,-1.0467,-31.2,-5.04,23.28
-0.054481,-4.3858,-0.35413,0.69455,-0.43127,-0.2416,-31.68,-6.72,23.28
-0.14982,-4.8352,-0.027241,1.2599,-0.49908,0.68386,-32.1,-8.22,23.4
0.027241,-7.0145,0.040861,1.8665,-0.3879,1.6512,-32.76,-10.74,23.64
0.25879,-7.7091,0.081722,2.718,0.053756,3.1252,-33.0,-11.7,23.76
1.0351,-9.0984,0.28603,3.3039,0.36988,4.1252,-33.12,-12.48,23.88
4.5356,-13.988,-0.28603,3.904,0.51404,5.0821,-33.18,-12.72,23.88
7.4367,-17.148,-0.91256,4.4666,0.24526,5.8982,-33.18,-12.24,23.7
8.5127,-18.156,-1.4438,5.0537,-0.72326,6.255,-33.06,-11.16,23.58
7.75,-18.633,-2.0839,5.5262,-2.073,6.101,-32.28,-8.16,23.4
6.1836,-19.014,-2.1248,5.8741,-3.6426,5.1719,-31.68,-6.24,22.98
5.0259,-19.123,-2.1384,5.6297,-3.7553,4.4954,-30.84,-4.14,22.74
2.3836,-18.973,-2.5061,5.4019,-3.4627,4.1985,-29.7,-1.74,22.26
-0.19068,-18.088,-3.5004,4.503,-1.1774,3.5409,-27.24,3.54,21.12
-0.6674,-17.502,-3.7728,3.9065,1.0415,3.1796,-25.98,6.12,20.52
-0.01362,-16.739,-3.5004,3.3204,3.2031,2.9013,-24.6,8.58,19.98
2.656,-15.091,-3.0237,2.507,5.4785,2.7648,-21.66,13.74,18.36
4.0044,-14.152,-3.1872,2.2642,5.8991,2.7626,-20.1,16.14,17.46
4.9306,-13.457,-3.3097,1.7856,6.1456,2.7611,-18.36,18.42,16.5
6.8374,-11.564,-3.3642,1.1958,5.2421,2.7315,-15.3,22.2,14.34
7.3141,-10.569,-3.5413,0.92699,4.1062,2.6533,-13.62,23.7,13.14
7.4095,-9.7794,-3.8954,0.821,2.8986,2.5488,-12.18,24.96,12.18
7.5593,-9.3299,-5.0259,0.87445,1.2599,2.3589,-9.54,27.12,10.14
7.5457,-9.4661,-5.3119,0.92943,0.42425,2.1921,-8.4,27.96,9.18
7.3686,-10.065,-5.8295,0.89767,-0.17868,1.9288,-7.38,28.62,8.4
7.3686,-10.188,-6.0611,0.72174,-0.59834,1.5718,-6.42,29.1,7.44
7.1234,-9.4798,-6.2109,0.45937,-0.79901,1.087,-4.44,30.0,5.88
6.7421,-8.7987,-6.0474,0.1573,-0.81917,0.42944,-3.48,30.36,5.04
5.5843,-7.6274,-5.2302,-0.11057,-0.73731,-0.32101,-1.86,30.84,3.42
5.2575,-8.5672,-4.7944,-0.28741,-0.6408,-1.4389,-1.2,31.14,2.82
5.3528,-9.7385,-4.808,-0.43127,-0.68295,-2.0226,-0.6,31.14,2.34
5.7342,-12.558,-4.7671,-0.66004,-0.81031,-2.3717,0.3,31.44,1.74
6.3198,-14.124,-4.6445,-0.82803,-1.077,-2.5543,0.42,31.38,1.56
7.0553,-15.677,-4.4947,-1.0183,-1.6093,-2.6936,0.54,31.26,1.38
6.5922,-16.413,-3.4051,-1.3549,-2.5672,-2.8955,0.48,30.9,1.14
6.17,-16.086,-3.0237,-1.8714,-3.0555,-3.054,0.24,30.78,1.26
5.3528,-15.895,-1.5391,-2.1298,-3.2739,-3.1851,-0.18,30.72,1.32
3.8682,-18.673,-1.3757,-2.4432,-3.1102,-3.1954,-1.56,30.36,2.04
3.2144,-19.477,-1.2939,-2.8873,-2.4532,-3.1395,-2.46,30.06,2.4
3.4323,-19.532,-1.0624,-3.219,-1.5751,-3.0665,-3.72,29.88,2.76
3.5685,-19.395,-0.38137,-3.5076,-0.74556,-3.0378,-6.12,29.64,3.84
3.6366,-18.02,0.040861,-3.6771,0.28405,-3.0882,-7.32,29.52,4.5
3.6366,-16.276,0.35413,-3.6569,0.51252,-3.1545,-8.7,29.46,5.34
3.5958,-13.797,0.70826,-3.5647,0.9841,-3.4706,-11.28,29.22,7.2
3.6366,-12.286,1.0351,-3.3821,1.0226,-3.729,-12.54,28.86,8.28
3.9499,-11.7,1.0079,-3.1011,0.85399,-3.9789,-15.78,28.14,10.5
4.018,-11.822,0.92618,-2.7645,0.45968,-4.1908,-17.46,27.6,11.52
3.9499,-12.095,0.74912,-2.3592,-0.23427,-4.2486,-21.12,26.1,13.74
3.5685,-11.931,0.5993,-2.1365,-0.59987,-4.0968,-22.8,25.08,14.88
3.1599,-11.768,0.78998,-2.0149,-0.72907,-3.9743,-24.54,23.82,15.9
2.6423,-11.346,0.99429,-1.7587,-0.86804,-3.4822,-26.4,22.62,16.92
1.9341,-10.869,1.3484,-1.6008,-0.75045,-3.0907,-28.02,21.24,18.06
0.68102,-9.8748,1.7434,-1.2272,-0.36621,-2.3405,-31.14,17.64,20.4
0.64016,-9.9701,1.5391,-0.86315,-0.048258,-1.7287,-34.14,13.62,22.32
1.3212,-9.7658,1.2258,-0.46334,0.1292,-1.0773,-35.64,11.4,23.1
1.9341,-8.6081,0.89894,0.050396,0.057421,-0.43799,-38.1,7.2,24.42
1.975,-8.7034,1.0079,0.60353,-0.22113,0.1066,-39.72,3.6,25.62
1.6344,-9.5615,1.471,1.0983,-0.45082,0.59437,-40.74,0.54,26.46
1.1986,-10.215,1.1986,1.5488,-0.43646,1.0397,-41.58,-1.56,27.48
1.1169,-10.542,0.98067,2.0052,-0.16921,1.5287,-41.82,-2.34,27.78
1.6753,-11.509,0.43585,2.4874,0.13897,2.0928,-41.88,-3.24,28.02
2.6423,-12.163,-0.39499,3.2156,0.20067,2.9877,-41.82,-2.58,27.9
3.2689,-13.021,-1.2258,3.612,-0.15485,3.499,-41.64,-0.96,27.66
3.2144,-13.511,-1.8387,3.8793,-0.61728,3.8781,-40.98,1.74,27.36
2.833,-13.893,-2.1384,3.9902,-0.99174,4.1142,-40.08,4.92,26.46
2.2882,-14.192,-2.4789,3.9227,-1.1112,4.2663,-38.82,8.64,25.44
1.7979,-14.192,-2.9829,3.7632,-0.83475,4.3057,-37.92,10.74,24.84
0.99429,-14.342,-4.0861,3.6353,-0.25626,4.2556,-35.7,14.94,23.04
0.95342,-14.383,-4.3994,3.474,0.60964,4.2501,-34.5,17.1,22.26
1.4165,-14.492,-4.3313,3.2205,1.5217,4.298,-32.04,21.12,20.16
2.0567,-14.764,-4.4811,2.8534,2.2116,4.3316,-28.98,24.72,18.36
2.3972,-14.642,-4.6582,2.467,2.864,4.3109,-27.0,26.28,17.28
3.8954,-14.71,-4.7671,1.9126,3.5583,4.2122,-23.1,28.86,15.0
5.4754,-14.533,-4.7671,1.5592,3.5675,4.0326,-19.08,31.02,12.78
6.8374,-14.124,-4.699,1.2663,3.1053,3.7302,-16.92,31.8,11.7
7.7091,-13.825,-4.6445,1.029,2.4062,3.3121,-12.78,33.12,9.78
8.0088,-12.503,-4.4947,0.8323,1.795,2.7263,-8.88,33.6,8.04
8.2267,-12.354,-4.6854,0.7645,1.3262,2.04,-7.02,33.66,7.26
7.9951,-11.509,-4.7399,0.56627,0.73762,0.97983,-3.24,33.84,5.88
7.0417,-9.793,-4.413,0.39676,0.49938,0.32712,-0.06,33.96,4.86
6.5786,-9.0303,-4.3449,0.24832,0.41508,-0.24251,1.26,33.9,4.32
5.8431,-8.5536,-4.413,0.19151,0.41661,-0.7535,3.18,33.9,3.42
5.8023,-9.3436,-4.9578,0.11515,0.31857,-1.179,4.68,33.9,3.06
5.9385,-9.6023,-4.9306,-0.019853,0.069028,-1.5073,5.1,33.9,2.76
6.4152,-10.42,-4.9033,-0.16738,-0.35766,-1.7171,5.46,33.96,2.52
6.4424,-10.937,-4.7535,-0.44502,-1.2905,-1.9648,5.46,33.9,2.4
6.1019,-12.027,-4.413,-0.72296,-1.8857,-2.1353,5.1,34.32,2.22
5.4209,-12.503,-3.8546,-1.0272,-2.2694,-2.3271,4.8,34.5,2.16
4.9306,-13.389,-3.3097,-1.3106,-2.4694,-2.5351,3.48,34.68,2.1
4.3449,-15.105,-2.8058,-1.5595,-2.5021,-2.7364,2.04,35.1,2.46
3.9908,-15.718,-2.5742,-2.0433,-2.1341,-3.0,0.96,35.16,2.88
3.2961,-16.304,-2.261,-2.3668,-1.6304,-3.1533,-1.26,35.46,3.72
3.0101,-15.827,-1.8387,-2.6206,-1.1078,-3.3225,-4.08,35.82,4.44
2.8603,-15.023,-1.6344,-2.7929,-0.62614,-3.4853,-5.28,36.0,4.98
2.7649,-13.893,-1.3076,-2.8891,-0.18754,-3.6429,-8.4,36.0,6.18
2.6968,-12.476,-1.0215,-2.9254,0.1124,-3.7849,-11.64,35.64,7.8
2.8058,-11.795,-0.96704,-2.9037,0.27458,-3.9398,-15.3,34.8,9.42
2.833,-11.673,-0.78998,-2.7984,0.2416,-4.1068,-17.16,34.26,10.56
2.833,-11.577,-0.55843,-2.6866,0.10324,-4.0922,-21.06,32.64,12.48
2.6968,-11.482,-0.27241,-2.5479,-0.0067195,-3.9841,-24.78,30.66,14.22
2.6423,-11.482,-0.027241,-2.3503,-0.10507,-3.7623,-28.38,27.96,15.9
2.6287,-11.509,-0.10896,-2.1221,-0.20525,-3.426,-30.0,26.34,16.8
2.5742,-11.645,-0.027241,-1.8775,-0.30207,-2.9758,-33.3,22.68,18.66
2.2065,-11.55,0.31327,-1.6286,-0.31643,-2.4199,-36.18,18.96,19.92
1.8932,-11.632,0.92618,-1.2162,-0.1405,-1.536,-38.64,15.0,21.06
1.757,-11.591,1.0896,-0.8995,-0.031154,-0.98319,-39.72,12.9,21.6
1.8115,-11.182,1.2803,-0.51282,-0.036652,-0.48564,-41.52,9.3,22.2
1.4438,-11.101,1.4301,-0.023518,-0.21289,-0.023213,-42.66,6.18,22.44
1.185,-11.155,1.6344,0.42699,-0.39951,0.4444,-43.08,4.68,22.68
0.29965,-11.128,2.2474,0.86743,-0.46487,0.90439,-43.5,2.4,22.98
0.29965,-11.7,2.261,1.4841,-0.19884,1.6145,-43.86,1.02,22.92
0.85808,-12.258,1.5936,1.9413,0.10476,2.156,-43.74,0.36,22.98
1.6072,-12.299,1.1441,2.3851,0.19303,2.6609,-43.62,0.36,22.98
2.438,-11.877,0.24517,2.7651,-0.1014,3.0559,-43.26,1.26,22.86
2.5606,-11.713,-0.28603,3.0595,-0.48686,3.2892,-42.6,3.06,22.62
2.3427,-12.204,-0.88532,3.3075,-0.80481,3.4679,-41.64,5.52,22.26
2.261,-12.463,-1.1713,3.3833,-0.79596,3.4917,-41.04,6.9,22.02
2.3155,-13.28,-2.3836,3.4248,-0.56383,3.5342,-39.72,10.2,21.18
2.5198,-13.593,-3.1735,3.4468,-0.21991,3.6233,-38.88,11.88,20.88
2.7513,-13.893,-3.8954,3.4105,0.10018,3.718,-37.08,15.6,19.62
3.0646,-13.77,-4.2087,3.2452,0.35369,3.7235,-34.86,19.26,18.06
3.0646,-13.539,-4.3994,2.9587,0.5678,3.6539,-33.6,21.06,17.22
2.7649,-12.286,-5.0395,2.5992,0.91813,3.507,-30.6,24.6,15.48
2.8194,-11.741,-5.1621,2.0904,1.7031,3.1811,-27.36,27.72,13.5
3.0373,-11.387,-5.094,1.733,2.1567,2.8479,-25.62,30.0,11.46
3.8273,-11.101,-4.3858,1.4416,2.3033,2.5204,-21.84,31.14,10.38
4.7263,-11.319,-4.5492,1.1909,2.2602,2.2208,-18.12,33.06,8.34
5.7069,-11.659,-5.1349,0.98533,2.0919,1.9508,-14.64,34.32,6.3
6.2654,-11.809,-5.1757,0.74342,1.5336,1.5342,-11.22,35.1,4.5
6.4016,-11.536,-5.2438,0.59162,1.0638,1.2309,-9.54,35.34,3.72
6.1019,-10.351,-5.2575,0.39981,0.66248,0.85857,-6.54,35.88,2.16
5.5435,-8.8668,-4.9714,0.22297,0.41753,0.4215,-4.2,36.0,0.96
5.3664,-8.4855,-4.808,0.045204,0.29108,-0.062919,-3.24,36.06,0.48
5.0123,-9.112,-4.3858,-0.074526,0.21441,-0.57727,-1.44,35.76,-0.3
5.2983,-11.032,-4.6309,-0.32865,0.082772,-1.2321,-0.48,35.64,-1.02
5.6661,-11.877,-4.7126,-0.52321,-0.1405,-1.522,-0.12,35.52,-1.26
6.0611,-12.844,-4.5356,-0.71196,-0.47647,-1.7373,0.12,35.34,-1.5
6.0202,-13.579,-4.2223,-0.90133,-0.94226,-1.9554,0.12,35.34,-1.5
5.38,-13.579,-3.5277,-1.189,-1.3124,-2.2135,-0.66,35.4,-1.5
4.6037,-12.721,-2.5879,-1.4597,-1.5024,-2.4957,-1.68,35.34,-1.02
4.5492,-13.77,-2.2474,-1.6203,-1.6197,-2.8879,-3.42,35.22,-0.48
4.413,-14.478,-2.3291,-1.8124,-1.6722,-3.0665,-4.56,35.16,-0.12
4.0725,-15.772,-2.2065,-1.9865,-1.5644,-3.1475,-7.08,34.98,0.78
3.5958,-15.527,-1.6208,-2.1716,-1.4025,-3.1771,-10.14,34.56,1.86
3.4459,-15.146,-1.3893,-2.3531,-1.1432,-3.1499,-11.76,34.38,2.4
2.7922,-13.144,-1.076,-2.5055,-0.83139,-3.1426,-15.12,33.72,3.84
2.5742,-11.727,-1.1169,-2.5623,-0.5174,-3.1844,-18.42,32.58,5.34
2.4108,-10.61,-1.0896,-2.6307,-0.095295,-3.24,-19.86,31.86,6.06
2.5061,-9.5615,-0.72188,-2.606,0.062919,-3.3149,-23.04,30.24,7.56
2.5606,-9.1665,-0.39499,-2.5229,0.083383,-3.4037,-26.22,28.2,8.64
2.547,-9.1937,-0.12258,-2.3857,0.020159,-3.4157,-28.98,25.8,9.84
2.547,-9.2482,0.01362,-2.1982,-0.078191,-3.3204,-31.62,23.04,10.74
2.547,-9.1665,-0.068102,-2.0217,-0.18387,-3.1023,-32.58,21.66,11.22
2.4517,-9.2482,-0.027241,-1.7003,-0.30177,-2.5824,-34.38,18.66,11.94
2.3018,-9.4934,0.10896,-1.504,-0.32467,-2.1237,-36.18,15.3,12.42
2.1112,-9.4934,0.47671,-1.3143,-0.27611,-1.6304,-37.62,12.3,12.6
2.0158,-9.7658,0.85808,-1.0684,-0.18295,-1.1054,-39.06,9.6,12.48
2.2065,-10.12,0.8717,-0.72571,-0.085827,-0.54764,-39.54,8.22,12.48
2.8058,-10.869,0.7355,-0.33201,-0.083689,-0.018326,-40.26,6.0,12.72
2.9011,-10.896,0.89894,0.058948,-0.20617,0.42852,-40.8,4.08,12.54
2.5061,-11.332,1.362,0.67959,-0.34483,0.94928,-41.22,2.94,12.42
2.152,-11.768,1.6344,1.0198,-0.25931,1.2624,-41.4,2.58,12.3
1.8387,-11.959,1.8796,1.3366,-0.032681,1.5757,-41.64,2.16,12.0
2.0022,-12.204,1.8796,1.6973,0.18662,1.9526,-41.46,2.34,11.82
3.051,-13.157,0.92618,2.1289,0.24435,2.3601,-41.28,3.06,11.64
3.4051,-13.212,0.43585,2.5232,0.077274,2.7559,-41.1,3.6,11.58
3.7456,-13.198,-0.23155,2.8274,-0.32834,3.0644,-40.92,4.2,11.4
3.5413,-13.021,-1.0624,2.9758,-0.98471,3.2202,-40.26,6.12,11.1
2.7513,-12.858,-1.2531,2.9236,-1.1603,3.1267,-39.84,7.26,10.74
1.6889,-12.83,-2.0839,2.7791,-0.88514,2.9722,-38.88,9.72,10.14
1.3484,-12.817,-2.6696,2.594,-0.1237,2.8851,-38.22,11.28,9.9
1.4165,-12.286,-3.1054,2.4166,0.91996,2.8454,-36.66,14.22,9.48
2.0567,-12.095,-3.1327,2.1072,2.2126,2.7987,-35.88,15.6,9.06
2.833,-11.387,-3.337,1.8717,2.5974,2.762,-35.16,17.04,8.64
3.5004,-10.215,-3.5958,1.6704,2.6826,2.7581,-33.06,19.98,7.5
3.7865,-9.902,-3.732,1.4936,2.5452,2.7654,-31.92,21.3,7.02
4.1678,-9.4389,-3.6503,1.3564,2.2254,2.729,-30.6,22.68,6.42
4.3177,-9.4934,-3.2553,1.2214,1.8357,2.6973,-27.48,25.14,4.92
4.413,-9.5615,-3.4596,1.1167,1.46,2.6206,-25.86,26.22,4.2
4.5356,-9.9565,-3.732,1.098,1.128,2.5439,-24.18,27.06,3.48
5.5435,-11.509,-4.6445,1.1157,0.91538,2.4722,-20.88,28.56,2.1
6.1292,-12.34,-5.1894,1.0489,0.56963,2.3527,-19.02,29.16,1.32
6.3879,-11.931,-5.5707,0.68295,0.055589,1.9398,-15.54,30.06,-0.18
6.17,-10.787,-5.3119,0.39401,-0.047953,1.4306,-13.8,30.42,-1.02
5.8704,-9.6023,-5.1894,0.1689,0.036652,0.73518,-11.94,30.78,-1.86
5.3256,-8.6081,-4.8216,0.010996,0.21594,-0.064446,-8.64,31.32,-3.3
5.4073,-9.9292,-4.699,-0.081245,0.32315,-0.80848,-7.14,31.38,-3.84
5.6933,-12.762,-5.1213,-0.21625,0.25717,-1.3964,-5.82,31.56,-4.44
6.1292,-13.879,-5.0123,-0.48594,0.066584,-1.762,-4.14,31.8,-5.28
6.4424,-14.192,-4.6309,-0.8265,-0.56352,-2.0898,-3.6,31.74,-5.52
6.3062,-14.301,-4.3721,-1.0577,-1.1588,-2.2907,-3.18,31.74,-5.88
5.0395,-13.144,-3.2825,-1.2843,-1.6047,-2.5262,-3.18,31.74,-6.12
4.6037,-12.626,-2.9011,-1.4484,-1.8995,-2.7391,-3.36,31.74,-6.18
4.1678,-12.735,-2.5879,-1.5892,-2.0693,-2.8934,-3.96,31.68,-6.12
3.5277,-13.934,-2.2882,-1.8778,-2.0516,-2.9984,-5.76,31.38,-5.82
3.2553,-14.288,-2.0431,-2.0989,-1.8436,-2.9712,-7.02,31.2,-5.52
3.0646,-14.288,-1.866,-2.2083,-1.704,-2.9419,-8.46,31.08,-5.16
2.7513,-13.212,-1.5255,-2.4994,-1.2132,-2.8231,-11.4,30.72,-4.44
2.4653,-11.795,-1.2258,-2.6209,-0.84483,-2.788,-13.2,30.6,-4.08
2.4925,-11.114,-1.2395,-2.6866,-0.51679,-2.8127,-14.88,30.42,-3.66
2.4653,-10.229,-0.76274,-2.744,-0.2419,-2.9224,-18.48,29.76,-2.7
2.3427,-9.902,-0.57205,-2.7944,0.072693,-2.9917,-20.34,29.52,-2.1
2.4244,-9.7794,-0.35413,-2.7413,0.23274,-3.043,-22.2,29.16,-1.38
2.5061,-9.6977,-0.12258,-2.6395,0.33353,-3.0504,-25.74,28.2,-0.78
2.6015,-9.7249,-0.12258,-2.4502,0.35186,-2.9731,-27.66,27.66,0.84
2.6423,-10.052,0.23155,-2.2257,0.31857,-2.8106,-29.4,26.94,1.74
2.4108,-10.896,0.64016,-1.9868,0.28527,-2.5336,-32.82,25.38,3.24
2.3699,-11.06,0.83084,-1.5837,0.31185,-1.8699,-34.32,24.54,3.96
2.3427,-11.455,1.1032,-1.215,0.32345,-1.3326,-35.76,23.52,4.92
2.4925,-12.068,1.2258,-0.82956,0.22633,-0.81917,-38.76,21.42,6.9
2.3427,-11.06,1.4982,-0.3653,-0.019853,-0.33598,-40.08,20.34,7.92
2.0158,-10.624,1.6753,0.16952,-0.37935,0.1237,-41.28,19.38,8.88
1.185,-11.359,1.9886,0.68631,-0.68081,0.55558,-43.26,17.64,10.5
0.61292,-11.577,2.1384,1.3039,-0.70463,1.2007,-44.04,16.86,11.34
0.16344,-11.741,2.152,1.6533,-0.3934,1.6234,-44.82,16.08,11.94
0.72188,-12.258,1.6481,1.8335,-0.18326,1.8418,-45.72,15.12,13.02
1.5255,-12.286,1.1577,2.2996,0.26389,2.4392,-45.9,15.06,13.38
2.2882,-12.177,0.47671,2.565,0.19609,2.7544,-45.84,15.18,13.44
2.7241,-12.108,-0.35413,2.7831,-0.040317,2.9804,-45.36,16.02,13.32
2.7786,-12.408,-0.55843,3.0299,-0.30482,3.1163,-44.94,16.68,13.26
2.7241,-12.871,-0.95342,3.1014,-0.32926,3.1405,-44.28,17.76,12.72
2.6968,-13.675,-1.9341,3.1145,-0.25656,3.1463,-42.48,20.16,11.28
3.0101,-13.866,-2.9829,3.0809,-0.15302,3.1579,-41.4,21.42,10.38
3.0237,-13.716,-3.5549,2.9615,-0.052534,3.1689,-40.32,22.68,9.3
2.8739,-12.844,-4.1678,2.7535,0.03879,3.1062,-37.68,25.26,7.02
2.5061,-12.0,-4.2359,2.273,0.35186,2.8521,-36.36,26.46,5.82
2.1384,-11.005,-4.4811,2.1108,0.55405,2.7446,-34.98,27.78,4.56
1.5119,-9.5887,-4.6173,1.6304,1.4221,2.3821,-31.62,30.12,2.1
1.6753,-9.5342,-4.5083,1.347,2.0064,2.1585,-29.82,31.08,0.72
2.2746,-9.6432,-4.3313,1.0513,2.3653,2.0311,-27.96,31.92,-0.54
3.5413,-10.202,-4.2632,0.8042,2.4526,1.9413,-24.18,33.3,-3.0
4.1406,-10.637,-4.1133,0.56963,2.1732,1.9059,-22.26,33.72,-4.2
4.6309,-10.964,-4.2223,0.50916,1.7914,1.9145,-20.4,34.08,-5.04
5.1213,-11.182,-4.6173,0.48686,1.5644,1.9077,-18.42,34.2,-6.06
5.6933,-10.406,-5.0395,0.42486,0.81306,1.7312,-14.52,34.38,-7.32
5.8976,-10.079,-5.0531,0.34361,0.29535,1.4419,-12.54,34.32,-8.04
6.0066,-9.8066,-4.8761,0.19761,-0.18143,1.0009,-10.62,34.32,-8.46
5.6933,-10.406,-4.2223,0.0045815,-0.58063,0.12309,-7.14,34.38,-9.48
5.4209,-11.863,-4.4675,-0.13164,-0.60384,-0.52443,-5.58,34.26,-9.84
5.0804,-12.803,-4.7944,-0.42974,-0.44379,-1.088,-4.2,34.2,-10.32
5.6116,-12.871,-4.6037,-0.66554,-0.42058,-1.4523,-2.34,34.32,-10.74
5.9793,-13.157,-4.304,-0.86804,-0.69578,-1.7184,-1.8,34.32,-10.86
5.6797,-12.694,-3.8546,-1.1634,-1.0959,-1.9267,-1.32,34.5,-10.86
5.1894,-11.768,-3.0918,-1.372,-1.6438,-2.1958,-0.9,34.8,-10.56
5.1485,-12.245,-2.7649,-1.566,-1.9193,-2.2938,-0.96,35.04,-10.44
5.094,-12.858,-2.5198,-1.7529,-2.0537,-2.31,-1.44,35.34,-10.08
4.985,-14.192,-1.7979,-1.9487,-2.0534,-2.2892,-3.24,36.0,-9.18
4.7263,-14.519,-1.3484,-2.1701,-1.9035,-2.2987,-4.44,36.48,-8.52
4.2904,-14.329,-0.99429,-2.3879,-1.4893,-2.3671,-5.76,36.84,-7.68
3.7728,-13.334,-0.51757,-2.5885,-0.91874,-2.4862,-8.58,37.44,-5.7
3.7047,-12.79,-0.47671,-2.7767,-0.0064141,-2.8179,-10.08,37.68,-4.38
3.732,-11.754,-0.38137,-2.8222,0.44379,-3.113,-11.7,37.86,-3.0
3.909,-10.61,-0.12258,-2.8106,0.71899,-3.4325,-15.42,37.38,-1.56
4.3177,-10.025,0.12258,-2.7281,0.79321,-3.7226,-17.34,37.14,1.74
4.6582,-9.9701,0.28603,-2.5678,0.63102,-3.9572,-19.26,36.36,3.48
4.7944,-10.569,0.65378,-2.3228,0.2584,-4.1127,-23.16,34.68,7.14
4.5492,-10.937,0.92618,-1.8848,-0.32834,-4.0613,-25.26,33.42,8.94
4.413,-11.155,1.0215,-1.7349,-0.46884,-3.9557,-27.06,32.04,10.74
3.8682,-11.196,1.3348,-1.4368,-0.62583,-3.6093,-28.98,30.3,12.42
3.4596,-10.515,1.5255,-0.92607,-0.63438,-2.8442,-32.22,26.46,15.84
3.2961,-10.215,1.58,-0.51252,-0.54825,-2.2452,-33.72,24.36,17.34
3.4187,-9.8066,1.3212,-0.096211,-0.48106,-1.6292,-36.54,19.74,20.04
3.6775,-9.2482,1.2667,0.54581,-0.62033,-0.81031,-37.92,17.58,21.12
3.8954,-9.1256,1.3076,1.0321,-0.94134,-0.38454,-39.12,15.24,22.26
3.2553,-9.8066,0.64016,1.5214,-1.3216,0.020159,-40.5,11.4,24.0
2.2201,-10.025,0.40861,1.9068,-1.5366,0.3653,-40.86,9.6,24.66
1.4438,-9.9701,0.21793,2.2055,-1.5983,0.65454,-41.1,8.28,25.32
-0.36775,-10.025,0.29965,2.4215,-1.4749,0.9331,-41.34,6.36,26.76
-0.8717,-10.583,-0.10896,2.7495,-1.0476,1.4734,-41.04,5.7,27.3
0.054481,-11.373,-0.95342,2.9187,-0.95661,1.9248,-40.86,5.46,27.78
1.866,-11.06,-2.3427,3.0198,-1.3735,2.2822,-39.78,6.0,28.2
1.6344,-10.311,-2.2882,3.0271,-1.9352,2.4273,-39.06,6.72,28.26
0.91256,-9.8203,-2.1929,2.9508,-2.2898,2.3986,-38.1,7.74,28.38
-0.61292,-10.406,-2.1929,2.8191,-2.175,2.2642,-35.88,10.68,28.14
-0.96704,-10.937,-2.6287,2.481,-1.1493,2.1622,-34.56,12.42,28.02
-0.76274,-11.673,-3.6366,2.3179,-0.64507,2.1695,-33.18,14.28,27.66
-0.1362,-11.673,-3.8546,2.033,0.39431,2.2321,-30.72,18.18,26.94
0.39499,-11.577,-3.8682,1.6695,1.5259,2.2727,-29.52,20.1,26.46
2.3563,-10.706,-4.5083,1.4985,1.7886,2.2608,-27.24,23.52,25.14
2.8194,-10.406,-4.7399,1.3653,1.66,2.2275,-26.16,25.26,24.12
3.4051,-9.9701,-5.4073,1.2819,1.2318,2.1276,-23.94,28.5,22.38
3.4868,-9.3027,-5.598,1.1872,0.30757,1.9554,-22.74,29.94,21.66
3.2689,-9.1937,-5.4754,1.0797,-0.17013,1.8106,-21.3,31.26,20.94
2.8739,-9.1937,-5.2438,0.91538,-0.43524,1.6328,-19.92,32.4,20.1
2.0975,-8.9894,-5.1757,0.73701,-0.43249,1.456,-17.58,34.02,18.6
2.0703,-9.112,-5.3119,0.57208,-0.15882,1.3729,-16.56,34.68,17.94
2.3155,-9.6704,-5.1894,0.39645,0.17837,1.2507,-15.48,35.28,17.16
2.3836,-9.4389,-4.9033,0.077885,0.60781,1.0684,-13.44,36.0,15.9
2.5879,-9.2074,-4.8352,0.0018326,0.72785,1.0107,-12.48,36.36,15.3
2.8603,-9.0303,-4.9306,-0.20495,0.92363,0.8433,-11.52,36.9,14.82
3.2553,-7.8862,-4.8761,-0.27886,0.905,0.72876,-9.6,37.32,14.1
3.732,-7.1915,-4.6718,-0.26481,0.6802,0.60079,-8.52,37.5,13.8
4.699,-6.7966,-4.8625,-0.20006,0.18967,0.478,-6.6,37.68,13.38
4.985,-6.9736,-4.9306,-0.06689,-0.92577,0.33262,-5.82,37.74,13.14
5.094,-7.5048,-5.1213,-0.040928,-1.31,0.30391,-5.28,37.8,12.9
4.9987,-8.7579,-4.8625,-0.07758,-2.1371,0.18754,-4.2,37.92,12.96
5.1894,-10.61,-4.9169,-0.1463,-2.438,0.11057,-3.72,37.92,12.9
5.6933,-12.122,-4.9442,-0.31062,-2.6215,0.021686,-3.06,38.04,13.08
6.0611,-14.71,-4.9306,-0.59315,-2.605,-0.092241,-2.04,38.16,13.26
5.7069,-14.901,-3.8682,-1.4539,-1.8302,-0.58796,-1.68,38.1,13.44
5.1349,-14.083,-2.4789,-1.9215,-1.076,-1.2126,-1.26,37.98,13.74
4.8625,-12.708,-1.185,-2.0519,-0.75136,-1.5464,-0.72,37.74,14.82
5.2166,-12.953,-1.1577,-2.1661,-0.051313,-2.4242,-0.48,37.62,15.3
5.7342,-13.28,-0.74912,-2.1774,0.071471,-2.7513,-0.6,37.26,16.08
6.7557,-13.988,0.78998,-2.1521,-0.12737,-2.9306,-1.2,36.84,17.64
6.6331,-13.934,1.3212,-2.0623,-0.81184,-3.0479,-1.62,36.42,18.6
6.5378,-13.471,2.7104,-2.0067,-1.0608,-3.0662,-2.1,36.0,19.56
6.5378,-13.471,2.7104,-2.0067,-1.0608,-3.0662,-2.1,36.0,19.56
6.5378,-13.471,2.7104,-2.0067,-1.0608,-3.0662,-2.1,36.0,19.56
6.0883,-10.12,3.8954,-1.1432,-2.0226,-2.686,-6.6,32.28,25.14
6.1564,-9.8066,3.8954,-0.80604,-1.9181,-2.5418,-7.62,31.32,26.4
6.3743,-9.4117,3.8001,-0.53115,-1.8436,-2.4447,-8.58,30.42,27.54
7.2869,-9.2074,3.6775,-0.34819,-1.8598,-2.346,-10.68,28.56,29.58
7.6002,-9.221,3.3234,-0.20831,-2.0088,-2.2455,-11.4,27.66,30.48
7.5729,-9.398,3.1054,-0.051007,-2.1808,-2.2229,-12.06,26.82,31.26
7.3822,-9.902,2.8739,0.011606,-2.1615,-2.2458,-13.02,25.14,32.76
7.1915,-10.338,2.6151,0.058032,-2.0653,-2.3054,-13.14,24.36,33.48
6.7285,-10.869,2.2882,0.09499,-1.8967,-2.3873,-13.32,22.98,34.56
6.456,-10.869,1.9613,0.15211,-1.6787,-2.4636,-13.2,22.5,34.92
6.1155,-10.924,1.7025,0.27306,-1.3628,-2.5552,-13.02,22.02,35.22
5.4073,-10.719,1.1441,0.35552,-1.1823,-2.5934,-12.66,21.24,36.0
4.9306,-10.515,1.0215,0.47464,-1.0024,-2.6548,-12.54,20.82,36.24
4.5083,-10.202,0.81722,0.63102,-0.86407,-2.6759,-12.48,20.7,36.42
3.514,-9.6704,0.16344,0.96639,-0.78069,-2.6075,-12.42,20.4,36.66
2.9965,-9.6296,-0.28603,1.2456,-0.95051,-2.4425,-12.36,20.22,36.66
2.3427,-9.3436,-0.76274,1.5388,-1.3091,-2.1597,-12.48,20.1,36.78
1.0896,-9.2755,-2.2337,1.8097,-1.7843,-1.7651,-12.84,20.4,36.54
-0.16344,-10.733,-2.6287,1.9377,-2.2104,-1.2443,-13.14,20.52,36.36
-1.2939,-12.204,-2.5334,1.8723,-2.2797,-0.56474,-13.38,20.7,36.12
-2.4925,-13.702,-2.8739,1.5702,-1.4914,0.4609,-13.56,21.54,35.46
-2.261,-12.149,-3.5685,1.5137,-0.74159,0.79596,-13.62,21.96,35.1
-1.4982,-10.093,-4.0861,1.7443,-0.30116,1.0024,-13.62,22.44,34.62
0.7355,-10.229,-4.4811,2.0748,-0.57788,1.1301,-13.56,23.7,33.36
1.3348,-11.754,-4.2904,2.2917,-1.3845,1.3399,-13.38,24.54,32.7
1.2803,-12.572,-4.2904,2.2623,-2.1732,1.6222,-12.96,25.2,31.98
0.35413,-12.367,-3.7592,2.1377,-2.4764,2.1408,-11.76,26.94,30.42
0.27241,-12.286,-3.6094,1.9453,-2.0006,2.379,-10.86,28.08,29.52
0.47671,-11.891,-3.4323,1.8595,-1.4273,2.4538,-9.9,29.04,28.56
1.471,-11.155,-3.2553,1.8005,-1.0583,2.4618,-7.38,30.6,26.76
2.4108,-10.706,-3.5413,1.7813,-0.94073,2.4881,-6.06,31.44,25.8
2.7786,-10.297,-3.8954,1.766,-1.0592,2.4548,-4.56,32.04,24.9
3.3097,-10.025,-4.3585,1.7471,-1.3097,2.3928,-1.38,33.12,23.04
3.2144,-10.093,-4.5356,1.6643,-1.8518,2.189,0.54,33.6,22.14
2.9284,-10.093,-4.4675,1.5708,-1.9517,2.0831,2.52,34.08,21.24
1.866,-9.6977,-4.4811,1.2037,-1.7446,1.8011,6.48,34.62,19.02
1.6617,-9.5887,-4.5764,0.9499,-1.2923,1.5776,8.58,34.74,17.94
1.6344,-9.5342,-4.6309,0.68845,-0.77824,1.3418,10.56,34.86,16.86
2.2882,-9.6704,-4.8761,0.49877,-0.42333,1.1096,14.4,34.38,14.82
2.5061,-9.7385,-4.9033,0.2532,-0.30238,0.81215,16.14,34.02,13.74
2.6696,-9.6704,-4.7535,0.090408,-0.40836,0.64263,17.82,33.78,12.72
2.5606,-9.4798,-4.2359,-0.044593,-0.53695,0.49877,20.88,33.3,10.92
2.4789,-9.7794,-3.8818,-0.14203,-0.60476,0.34758,22.38,32.94,10.14
2.5061,-9.8339,-3.8001,-0.25473,-0.59346,0.20831,23.64,32.58,9.3
2.6832,-9.6841,-3.2961,-0.37629,-0.52748,0.080023,25.68,32.1,7.8
2.7649,-9.6023,-2.8194,-0.52443,-0.43799,-0.20128,26.28,31.8,7.02
3.0237,-9.5615,-2.3563,-0.57666,-0.39095,-0.40806,26.76,31.56,6.54
4.0452,-10.637,-1.5663,-0.50488,-0.36652,-0.60903,27.6,30.96,5.94
4.5764,-11.564,-1.7706,-0.40012,-0.40775,-0.73395,27.72,30.78,5.76
5.2847,-12.19,-1.9613,-0.37477,-0.54031,-0.78496,27.78,30.54,5.88
6.9055,-12.912,-2.0022,-0.34117,-0.84788,-0.83536,27.42,30.48,5.58
7.2869,-13.021,-1.9341,-0.55039,-1.6832,-1.0073,27.24,30.48,5.58
7.5184,-13.021,-1.3212,-0.67745,-2.003,-1.1231,26.88,30.42,5.58
7.0553,-13.321,-0.85808,-1.1319,-2.649,-1.5769,25.74,30.42,5.64
6.4288,-13.879,-0.31327,-1.4972,-2.5974,-1.9713,25.14,30.54,5.58
5.6933,-14.438,-0.027241,-1.8558,-2.1402,-2.3671,24.42,30.72,5.46
4.7399,-14.41,0.29965,-2.1787,-1.3882,-2.7632,22.56,30.96,5.46
4.699,-14.056,0.55843,-2.3204,-0.31643,-3.2788,21.48,31.14,5.58
4.6582,-13.307,0.64016,-2.3219,0.1292,-3.5329,18.96,31.2,5.7
4.7263,-12.858,0.89894,-2.2962,0.24984,-3.6362,17.52,31.26,5.88
4.808,-12.449,0.83084,-2.1423,0.20036,-3.8069,16.14,31.14,6.12
4.6445,-11.332,0.91256,-1.9902,-0.077274,-3.8588,12.72,30.96,6.6
4.5083,-10.964,0.92618,-1.7828,-0.46762,-3.8549,11.4,30.66,7.08
4.2087,-10.801,0.89894,-1.4142,-1.1182,-3.7333,7.98,30.06,7.92
3.9908,-10.924,0.95342,-1.1692,-1.5003,-3.5549,6.42,29.82,8.34
3.8137,-11.128,0.85808,-0.94134,-1.748,-3.3081,4.92,29.34,8.7
3.4459,-12.177,0.89894,-0.74617,-1.8418,-3.0052,1.74,28.26,9.72
3.3778,-12.967,0.92618,-0.59193,-1.8708,-2.6909,0.36,27.72,10.2
2.8058,-13.43,1.2531,-0.51099,-1.7813,-2.397,-0.96,27.06,10.62
0.78998,-13.253,2.2065,-0.42364,-1.4645,-2.08,-3.3,26.04,11.34
0.39499,-13.28,2.2746,-0.045204,-0.80359,-1.5773,-4.38,25.56,11.64
0.28603,-13.035,2.2746,0.10385,-0.64843,-1.4001,-5.34,25.2,11.88
0.49033,-12.231,2.1929,0.72052,-0.59498,-0.7981,-6.9,24.36,12.0
0.12258,-12.095,2.2882,1.1393,-0.81428,-0.35125,-7.5,23.94,11.88
-0.44947,-11.918,2.6832,1.4627,-0.84574,0.080329,-8.1,23.82,11.82
-1.866,-12.286,2.8467,1.7691,-0.47953,0.54092,-8.94,23.7,11.46
-1.58,-13.157,2.3836,2.3353,0.37507,1.4163,-9.3,23.58,11.1
-1.58,-14.329,1.1713,2.522,0.56047,1.7437,-9.42,23.76,10.68
1.9477,-13.743,-0.76274,2.9218,0.39034,2.6753,-9.66,24.24,9.72
1.5119,-13.021,-1.0896,3.0574,-0.011606,3.1124,-9.54,24.42,9.24
0.84446,-13.484,-1.5391,3.1389,-0.12492,3.3142,-9.3,25.38,7.74
0.69464,-13.757,-2.0975,3.0513,0.13225,3.4132,-8.82,25.56,6.9
0.84446,-13.484,-2.8875,2.828,0.93737,3.415,-7.8,26.28,4.8
1.1986,-13.007,-3.1872,2.6991,1.4978,3.379,-7.14,26.64,3.66
1.8932,-12.626,-3.623,2.5629,1.9025,3.3365,-6.36,26.88,2.64
2.2474,-12.449,-3.8546,2.3876,2.0458,3.2831,-5.64,27.24,1.5
2.8603,-11.482,-4.2359,2.197,2.0082,3.2022,-3.42,27.66,-0.6
2.9556,-10.746,-4.2768,1.9984,1.9099,3.1588,-2.1,27.84,-1.5
3.3097,-10.719,-4.2632,1.7813,1.7452,3.1105,1.02,27.84,-3.36
3.732,-10.978,-4.0589,1.5736,1.5488,3.0519,2.7,27.54,-4.08
4.0316,-10.992,-3.9908,1.3882,1.295,2.9914,4.44,27.18,-5.04
4.7944,-11.632,-5.0259,1.2679,1.0794,2.9587,7.74,26.64,-6.54
5.3528,-12.0,-5.4481,1.1066,0.90347,2.8427,9.54,26.04,-7.2
5.9249,-12.027,-5.598,0.87598,0.72143,2.624,11.34,25.62,-7.74
6.3471,-10.937,-5.38,0.39645,0.58399,1.9484,14.94,24.06,-8.7
6.456,-9.8066,-5.38,0.2364,0.58796,1.6163,16.68,23.52,-8.88
6.4697,-9.0848,-5.1213,-0.06017,0.65118,0.81245,18.42,22.98,-9.18
5.6524,-7.7908,-4.2223,-0.29932,0.76633,-0.52809,21.72,21.66,-9.48
5.6252,-9.0303,-4.1678,-0.27886,0.65973,-1.3069,22.68,21.12,-9.78
5.4481,-10.569,-4.4811,-0.4444,0.53573,-1.9071,23.76,20.58,-10.08
6.0883,-12.149,-4.6445,-0.67012,0.14722,-2.3225,25.08,19.74,-10.26
6.4969,-12.83,-4.5764,-0.86499,-0.4496,-2.4395,25.62,19.5,-10.38
6.6876,-13.934,-4.0452,-1.0983,-1.2187,-2.5336,25.92,19.38,-10.26
5.5571,-13.253,-2.8603,-1.3497,-1.8369,-2.6542,26.04,19.2,-10.08
4.7399,-13.007,-2.3836,-1.471,-2.1493,-2.8204,25.86,19.38,-9.96
4.413,-13.607,-2.2882,-1.6151,-2.2092,-2.981,25.38,19.5,-9.9
3.909,-14.451,-2.2337,-1.9667,-1.9844,-3.2327,23.64,20.4,-9.36
3.6094,-14.655,-1.9613,-2.2107,-1.6991,-3.3591,22.56,20.7,-9.36
3.3097,-14.724,-1.7843,-2.3411,-1.5339,-3.4212,21.18,21.18,-9.36
2.5606,-13.838,-1.5119,-2.7223,-0.81092,-3.5873,18.42,22.44,-9.06
2.5061,-12.912,-1.2939,-2.8588,-0.31032,-3.6643,17.1,23.16,-8.82
2.5061,-12.136,-1.1169,-2.8891,0.047037,-3.7458,15.6,23.88,-8.52
2.7377,-11.196,-0.6674,-2.7431,0.28375,-3.802,12.3,25.32,-7.86
2.8603,-11.128,-0.5993,-2.5717,0.24679,-3.7706,10.44,26.16,-7.44
3.0237,-11.128,-0.31327,-2.467,0.18021,-3.7229,8.64,26.7,-7.08
3.1872,-11.387,-0.10896,-2.1157,-0.1011,-3.4092,4.98,27.78,-5.88
3.1599,-11.605,0.095342,-1.8796,-0.31307,-3.0806,3.12,28.08,-5.16
2.9829,-11.591,0.16344,-1.6512,-0.49205,-2.6579,1.32,28.44,-4.38
2.5742,-11.482,0.58567,-1.2972,-0.61331,-1.9529,-2.22,28.92,-3.06
2.5742,-11.795,0.92618,-1.0052,-0.60353,-1.5079,-3.78,29.16,-2.1
2.6151,-12.258,1.0896,-0.67776,-0.6524,-1.1005,-5.34,29.4,-1.02
2.152,-12.803,1.5255,-0.40134,-0.73273,-0.73518,-8.22,29.4,0.84
1.4574,-12.517,1.8932,-0.096517,-0.75961,-0.37904,-9.48,29.28,1.74
0.64016,-12.776,2.261,0.2419,-0.67042,-0.0088575,-10.8,29.22,2.46
-1.0079,-12.354,3.2008,0.51221,-0.35064,0.39676,-12.72,28.8,3.78
-1.6072,-11.891,3.3097,0.95845,0.53237,1.0812,-13.62,28.56,4.5
-1.9205,-11.319,3.2825,1.3622,1.0941,1.6484,-14.16,28.38,5.04
-1.0896,-12.013,2.547,1.861,1.23,2.35,-15.06,28.26,5.64
0.64016,-13.076,1.2395,2.3686,0.95142,3.0879,-15.24,28.56,5.64
1.8524,-13.579,0.6674,2.8304,0.33659,3.7577,-15.24,28.68,5.4
2.4925,-14.124,-0.14982,3.1744,-0.29932,4.1948,-14.34,29.1,4.62
2.5742,-14.165,-0.36775,3.3616,-0.83597,4.3515,-13.8,29.28,4.02
2.5334,-14.124,-0.85808,3.3909,-0.81276,4.2205,-12.9,29.4,3.12
2.3836,-14.152,-2.5334,3.3692,-0.52534,4.0619,-10.8,30.0,1.02
2.4789,-14.22,-3.2553,3.2874,-0.051007,3.8845,-9.54,30.18,-0.24
2.6423,-14.152,-3.8682,3.0458,0.45296,3.7101,-8.34,30.18,-1.5
2.6423,-13.021,-3.6094,2.6512,0.89492,3.5183,-5.4,30.12,-4.02
2.5334,-12.544,-3.4732,2.0904,1.5989,3.237,-3.66,30.0,-5.46
2.6423,-11.754,-3.3506,1.9093,1.8882,3.1264,-1.92,29.76,-6.72
3.2008,-12.0,-3.3097,1.5131,2.6536,2.7819,1.98,28.98,-9.36
3.9227,-12.122,-3.2553,1.2324,2.9044,2.5812,4.02,28.26,-10.44
4.5492,-12.108,-3.2416,0.99113,2.8845,2.4273,6.18,27.54,-11.46
5.7069,-11.904,-3.5549,0.85063,2.6796,2.3085,10.14,25.74,-12.9
6.0611,-11.741,-3.8137,0.74739,2.3436,2.1087,12.18,25.02,-13.44
6.3335,-11.223,-3.9908,0.64416,1.7633,1.6536,15.78,23.28,-13.98
6.3607,-10.937,-4.1951,0.61606,1.547,1.4594,17.52,22.26,-14.16
6.2517,-10.12,-4.3585,0.46059,0.95631,0.7813,19.26,21.36,-14.1
6.1019,-9.5479,-4.4675,0.32132,0.64782,0.24312,20.94,20.46,-13.86
4.9714,-7.8589,-4.0725,0.21044,0.43219,-0.3094,23.88,18.96,-13.62
4.4402,-7.4367,-3.7728,0.10507,0.3598,-1.1069,25.08,18.36,-13.5
4.2495,-8.5808,-3.7728,0.041233,0.36194,-1.5128,27.12,17.4,-13.08
4.699,-10.052,-4.2632,-0.050702,0.1686,-1.8082,27.84,16.92,-12.66
5.1213,-10.746,-4.4947,-0.11973,-0.25595,-1.9364,28.44,16.68,-12.42
6.96,-13.43,-4.7807,-0.18021,-1.0156,-1.9673,28.86,16.62,-12.0
6.9328,-14.751,-4.413,-0.44074,-1.8317,-1.9936,28.86,16.74,-11.7
6.0883,-14.478,-3.7728,-0.83505,-2.3644,-2.1487,28.5,16.92,-11.4
5.6933,-14.342,-3.5277,-1.252,-2.5614,-2.6588,28.14,17.1,-11.34
4.7944,-14.724,-2.8058,-1.5718,-2.4056,-3.0681,27.66,17.46,-11.22
3.8682,-15.718,-2.0294,-1.9013,-2.0485,-3.3989,26.16,18.42,-11.28
3.5685,-16.344,-1.866,-2.2037,-1.631,-3.6261,24.96,19.26,-11.28
3.337,-16.181,-1.6072,-2.4816,-1.1884,-3.7803,23.64,19.92,-11.28
2.9556,-14.928,-1.3212,-2.6793,-0.74923,-3.8659,20.52,21.66,-11.22
2.8058,-13.62,-1.4574,-2.7519,-0.24496,-3.853,18.96,22.62,-11.04
2.833,-12.803,-1.2939,-2.7697,-0.076358,-3.8509,17.22,23.82,-10.98
2.6423,-10.501,-0.89894,-2.6783,0.000916,-3.7981,13.74,25.8,-10.26
2.6832,-9.9973,-0.46309,-2.5607,-0.009163,-3.7351,11.94,26.64,-9.84
2.7241,-9.7522,-0.29965,-2.4093,-0.14203,-3.6771,10.2,27.36,-9.24
2.7377,-9.8475,-0.027241,-2.2507,-0.33445,-3.5351,6.3,28.74,-8.04
2.4789,-9.9292,0.054481,-1.971,-0.65088,-3.1887,4.26,29.28,-7.08
2.5334,-10.052,0.10896,-1.8677,-0.73029,-3.0161,2.28,29.82,-6.06
2.2882,-10.515,0.55843,-1.5769,-0.71166,-2.3485,0.42,30.24,-5.04
2.152,-10.719,0.77636,-1.3928,-0.48289,-1.8243,-1.38,30.48,-3.72
2.152,-11.032,0.99429,-1.1555,-0.20159,-1.3228,-4.38,30.42,-1.2
2.3427,-10.869,1.1032,-0.85002,-0.023518,-0.8488,-5.52,30.36,0.06
2.7649,-10.896,1.1577,-0.45662,-0.073609,-0.17013,-6.78,30.06,1.26
3.0918,-11.223,1.1986,-0.012523,-0.37263,0.027489,-8.82,29.58,3.6
2.7377,-11.441,1.4982,0.37538,-0.77,0.38851,-9.78,29.22,4.68
2.0022,-11.509,2.0567,0.85888,-1.2223,0.88973,-10.56,28.8,5.58
0.12258,-11.605,2.9148,1.1646,-1.109,1.2245,-11.7,28.32,7.02
-0.50395,-11.809,3.0373,1.5119,-0.58887,1.6072,-11.82,28.14,7.68
0.068102,-12.844,2.0294,1.8977,0.065973,2.0931,-11.94,28.02,8.1
2.2201,-13.634,1.1169,2.4706,0.47281,2.853,-11.58,27.78,8.16
3.5277,-13.389,0.51757,2.7944,0.16035,3.2745,-11.28,27.9,7.98
3.7728,-13.416,0.28603,3.0048,-0.28375,3.5473,-10.8,28.14,7.5
3.3506,-13.702,-0.054481,3.1395,-0.56658,3.6411,-9.42,28.8,6.18
2.833,-14.07,-0.25879,3.2293,-0.50977,3.6133,-8.7,29.1,5.28
2.3155,-14.043,-1.1713,3.292,0.19639,3.5116,-6.84,29.76,3.06
2.5334,-14.029,-2.0431,3.3277,0.80726,3.4691,-5.88,30.0,2.04
2.7649,-14.015,-2.5606,3.3069,1.0547,3.4767,-4.8,30.06,0.54
3.4596,-13.443,-3.1872,3.0467,1.397,3.4984,-2.52,30.18,-2.16
3.5685,-12.735,-3.2553,2.7672,1.3943,3.4685,-1.08,30.24,-3.54
3.5685,-12.19,-3.4187,2.4942,1.3821,3.3717,0.48,29.94,-4.92
3.4868,-11.632,-3.5685,2.1383,1.5507,3.1301,3.84,29.4,-7.92
3.7047,-11.591,-3.9363,1.9291,1.7507,2.9068,5.7,28.92,-9.24
3.8546,-11.645,-4.127,1.6909,1.9151,2.6896,7.62,28.32,-10.56
4.9033,-11.891,-4.6718,1.4875,1.9209,2.4881,11.1,26.7,-12.9
5.3528,-11.891,-4.8352,1.2211,1.762,2.2385,12.96,25.92,-13.92
5.9385,-11.782,-5.0259,1.0104,1.4783,1.9429,14.64,24.96,-14.82
6.5786,-11.223,-5.5162,0.78038,1.1448,1.5818,18.18,22.74,-16.08
6.7557,-10.801,-5.6388,0.40134,0.65699,0.85765,19.92,21.66,-16.68
6.17,-8.9349,-5.3937,0.14569,0.37049,0.26084,23.22,19.92,-17.4
5.5707,-8.1858,-5.0123,-0.079412,0.23305,-0.36835,24.72,19.08,-17.7
4.9578,-8.3901,-4.8216,-0.2364,0.24954,-0.99602,25.98,18.12,-18.0
4.6854,-9.4798,-4.699,-0.45723,0.40623,-1.5372,26.82,17.52,-18.24
4.9442,-11.06,-4.4539,-0.66615,0.45143,-1.9728,28.2,16.38,-18.12
5.4618,-12.136,-4.5356,-0.84605,0.11301,-2.3894,28.68,16.08,-17.88
5.8704,-13.375,-4.1678,-0.91752,-0.13683,-2.4929,29.04,15.84,-17.76
6.1973,-15.364,-4.0997,-1.0837,-1.2123,-2.693,29.46,16.26,-17.28
5.4209,-14.669,-3.5004,-1.4453,-1.817,-2.8295,29.22,16.32,-16.86
4.4947,-13.893,-2.6287,-1.6167,-2.1829,-2.9172,28.5,17.1,-16.62
4.127,-14.383,-2.2882,-1.7355,-2.4086,-3.0158,27.84,17.76,-16.2
3.8954,-14.86,-2.0294,-1.8989,-2.4948,-3.058,25.98,19.02,-15.48
3.623,-15.214,-1.8796,-2.1838,-2.4957,-2.9801,24.78,19.86,-14.94
3.2144,-14.71,-1.6617,-2.3601,-2.3534,-2.8497,23.46,20.7,-14.52
3.0782,-14.165,-1.4165,-2.5198,-2.1044,-2.6961,21.96,21.66,-14.04
2.4517,-12.449,-0.89894,-2.6716,-1.7681,-2.5534,18.96,23.46,-13.02
2.4244,-11.768,-0.76274,-2.7935,-1.419,-2.4673,17.34,24.54,-12.48
2.5334,-11.332,-0.40861,-2.8888,-1.0996,-2.408,14.1,26.52,-11.1
2.8058,-11.264,-0.10896,-2.9505,-0.77702,-2.3576,12.48,27.06,-10.14
2.9284,-11.25,0.19068,-2.9138,-0.49297,-2.3265,10.98,27.66,-9.24
3.1872,-11.319,1.2122,-2.7019,-0.35155,-2.2862,8.16,28.62,-7.02
3.337,-11.25,1.471,-2.5143,-0.36866,-2.2171,6.84,28.98,-5.64
3.3097,-11.305,1.7843,-2.2599,-0.41539,-2.0553,5.52,29.28,-4.32
2.8058,-11.673,2.2201,-1.9184,-0.29383,-1.7312,3.6,29.46,-1.62
2.6151,-11.741,2.4653,-1.6396,-0.11332,-1.4792,2.76,29.52,-0.18
2.5198,-11.727,2.6696,-1.284,0.065973,-1.2272,2.04,29.52,1.26
2.3699,-11.741,2.9148,-0.8998,0.13561,-0.9557,0.72,29.28,4.26
1.8796,-11.25,3.1872,-0.57849,0.0956,-0.66676,0.06,29.22,5.7
0.77636,-11.032,3.2553,-0.17959,0.054672,-0.38057,-0.36,28.92,7.14
-1.5119,-11.223,4.1814,0.21441,0.16127,0.21564,-1.38,28.38,9.48
-3.5004,-10.501,4.8352,0.41508,0.33078,0.8262,-1.86,28.26,10.44
-3.8001,-10.202,4.4675,0.61361,0.47525,1.157,-2.28,28.2,11.22
-1.2531,-13.634,3.1735,1.532,1.007,2.2568,-2.88,28.08,12.36
0.7355,-15.65,2.5334,2.387,1.1124,3.0614,-3.0,28.08,12.54
2.2474,-16.331,1.8251,3.1023,0.89064,3.6362,-2.88,28.14,12.48
3.8546,-16.058,0.57205,3.5809,0.058032,3.8393,-2.7,28.5,12.0
3.4459,-15.541,0.21793,3.5775,-0.55192,3.5913,-2.22,28.74,11.4
2.6015,-14.955,-0.21793,3.5458,-0.70708,3.4111,-1.74,29.04,10.68
1.866,-14.792,-2.6423,3.4648,-0.38607,3.0064,-0.06,29.52,8.58
2.3155,-14.887,-3.623,3.5015,-0.079107,2.9584,0.72,29.82,7.44
3.0646,-14.805,-4.2223,3.4471,-0.14478,2.9932,1.56,29.94,5.82
1.7025,-13.797,-4.5764,3.1872,0.2193,2.9435,3.36,30.06,2.88
0.51757,-12.79,-4.7535,2.6053,1.0944,2.7797,4.62,30.06,1.26
0.25879,-12.258,-4.8625,2.1927,2.2764,2.6224,6.06,29.76,-0.48
2.1248,-11.632,-4.4811,1.8005,3.1142,2.4752,9.06,29.28,-3.72
3.3506,-11.468,-4.127,1.4823,3.2394,2.3607,10.62,28.98,-5.28
4.2223,-11.291,-4.1133,1.277,2.7898,2.2623,12.12,28.44,-6.6
4.7944,-11.101,-4.3994,1.1732,2.1909,2.2495,15.3,27.24,-9.0
5.0123,-11.087,-4.6445,1.1976,1.3546,2.251,16.92,26.58,-10.02
5.38,-11.373,-4.9578,1.2263,0.70891,2.1704,18.42,25.86,-10.92
5.7886,-11.482,-5.7478,1.1255,0.1069,1.9838,21.24,24.12,-12.48
5.6116,-11.019,-6.0611,0.84605,-0.1686,1.6884,22.74,23.1,-13.08
5.3937,-10.215,-5.8567,0.45937,-0.12431,1.2446,24.12,22.26,-13.44
4.9987,-8.7579,-5.0123,0.084605,0.048869,0.59193,27.06,20.52,-14.4
4.8625,-8.6625,-4.699,-0.30543,0.37232,-0.52901,28.2,19.56,-14.7
4.9987,-9.6432,-4.5356,-0.51557,0.43249,-1.2196,29.16,18.96,-14.76
5.4754,-11.468,-4.7126,-0.73273,0.35552,-1.7428,30.6,17.88,-14.7
5.993,-12.898,-4.3721,-0.91477,0.032681,-2.0898,31.14,17.52,-14.58
6.1836,-13.77,-4.1406,-1.0437,-0.50855,-2.3402,31.44,17.28,-14.64
5.6388,-13.375,-3.2144,-1.2804,-1.1109,-2.5565,31.62,17.16,-14.58
5.2711,-12.612,-2.8467,-1.5379,-1.9624,-2.7791,31.26,17.16,-14.46
5.0531,-12.449,-2.2474,-1.5586,-2.2336,-2.8249,30.78,17.34,-14.4
4.4811,-14.288,-1.7025,-1.7349,-2.7477,-2.8717,29.64,18.12,-13.56
4.0316,-14.996,-1.6344,-1.9438,-2.7987,-2.7935,28.68,18.72,-13.26
3.6366,-16.058,-1.1713,-2.1356,-2.5534,-2.6438,26.4,20.22,-12.42
3.7047,-16.603,-1.0488,-2.3103,-2.204,-2.4083,25.14,21.24,-11.94
3.6775,-16.453,-0.91256,-2.5207,-1.5824,-2.0754,23.82,22.32,-11.58
3.4732,-14.737,-0.83084,-2.7651,-1.1848,-1.9615,21.12,24.24,-10.62
3.2961,-13.348,-0.58567,-2.9407,-0.77488,-2.0207,19.68,25.26,-9.9
3.2144,-11.782,-0.32689,-3.0378,-0.42608,-2.2315,18.24,26.1,-9.24
3.4868,-10.379,0.24517,-3.0192,-0.24282,-2.5522,15.42,27.72,-7.56
3.6503,-10.42,0.61292,-2.9658,-0.27519,-2.8766,14.28,28.44,-6.6
3.7456,-10.161,1.1032,-2.7263,-0.57116,-3.2791,11.82,29.88,-4.62
3.6366,-10.338,1.185,-2.4612,-0.85796,-3.4172,10.62,30.36,-3.6
3.5004,-10.637,1.3212,-2.1457,-1.1347,-3.3726,9.48,30.72,-2.52
3.2553,-12.408,1.4165,-1.8595,-1.2972,-3.1325,7.08,31.44,-0.06
3.1599,-13.13,1.5391,-1.6441,-1.2868,-2.7058,5.94,31.56,1.26
3.0918,-13.375,1.7706,-1.3482,-1.1716,-2.171,4.86,31.62,2.58
2.3155,-12.558,2.6696,-0.89309,-0.95509,-1.3799,2.4,31.68,5.28
1.7162,-11.768,2.8467,-0.59987,-0.81153,-0.93249,1.2,31.62,6.54
1.1441,-11.169,3.0782,-0.27092,-0.61789,-0.54886,0.24,31.62,7.68
-0.43585,-10.42,3.4051,-0.096211,-0.46884,-0.35919,-0.9,31.68,8.76
-0.43585,-10.42,3.4051,0.34239,0.34025,0.29444,-1.98,31.68,9.78
-0.43585,-10.42,3.4051,0.64721,1.1176,0.79962,-1.98,31.68,9.78
-0.50395,-11.073,4.1406,1.2306,2.0858,1.6704,-2.88,31.62,10.68
2.3699,-12.667,2.8194,1.6432,2.2309,2.3647,-4.5,31.5,11.76
3.6911,-13.048,1.7434,1.8274,2.0739,2.759,-5.1,31.56,12.12
3.5277,-12.463,0.21793,2.5152,0.64416,3.6884,-5.46,31.62,12.12
2.4108,-12.258,-0.50395,3.0216,-0.42425,3.6383,-5.34,32.16,11.94
1.9205,-12.544,-1.3348,3.3036,-0.99602,3.3982,-4.92,32.28,11.52
1.185,-13.607,-3.1872,3.4416,-1.2391,3.2522,-3.12,32.64,10.02
0.76274,-13.988,-4.3858,3.4929,-1.2407,3.1496,-1.14,33.06,8.04
0.31327,-14.043,-5.2711,3.3127,-0.76633,3.0604,1.02,33.3,5.58
-0.32689,-13.348,-5.5435,2.9658,-0.01069,2.9838,3.42,33.6,2.52
-1.5663,-13.089,-6.2926,2.5259,1.0507,2.8292,5.34,33.78,-0.48
0.43585,-11.387,-5.2166,1.8989,2.7348,2.6906,7.44,33.42,-3.06
1.6344,-10.637,-5.094,1.5742,3.7162,2.441,9.42,33.0,-5.16
1.9613,-10.529,-4.7807,1.332,4.1496,2.3308,10.5,32.64,-6.0
2.8603,-10.706,-4.4402,1.2123,4.2477,2.277,11.52,32.34,-6.78
5.38,-11.182,-3.3915,0.69272,3.8921,2.2257,13.2,31.26,-7.62
6.0611,-11.427,-3.3506,0.36591,3.1356,2.3182,14.16,30.72,-8.1
6.1292,-11.618,-3.4459,0.13073,2.2956,2.3836,15.3,30.06,-8.1
5.7478,-10.896,-3.6094,0.082772,1.6667,2.306,17.4,28.8,-7.92
6.0202,-10.42,-3.623,0.29627,1.3054,1.9865,18.48,28.14,-7.68
6.5105,-10.025,-3.8137,0.3824,1.0977,1.5687,19.8,27.36,-7.32
7.3277,-9.3572,-3.732,0.39492,0.73701,1.0073,22.62,26.1,-6.06
7.4776,-9.4253,-3.6366,0.42364,0.25962,0.31734,24.06,25.32,-5.52
7.2324,-10.283,-3.8818,0.44654,-0.24771,-0.37385,25.2,24.72,-5.22
6.9328,-11.741,-4.0861,0.30238,-0.63163,-0.96395,27.24,23.58,-4.8
6.9464,-12.217,-3.9635,0.0039706,-1.1414,-1.5302,27.96,23.1,-4.56
6.7557,-13.253,-4.0316,-0.26939,-1.4022,-1.8155,28.62,22.86,-4.38
6.2381,-13.13,-3.8273,-0.59407,-1.4917,-2.1063,28.98,22.62,-4.38
5.6116,-12.149,-3.1599,-0.79504,-1.5098,-2.43,29.64,22.5,-3.9
5.2302,-12.204,-3.228,-1.0021,-1.5247,-2.7419,29.52,22.56,-3.9
4.413,-12.98,-3.0918,-1.2367,-1.3567,-3.0256,29.34,22.74,-4.02
3.8409,-13.498,-2.6423,-1.5641,-0.49419,-3.3463,28.32,23.46,-3.96
3.9635,-13.539,-2.3699,-1.9823,0.050702,-3.5723,27.6,24.0,-3.96
4.4402,-13.266,-2.0839,-2.1249,0.34239,-3.8365,26.52,24.6,-4.14
4.5083,-12.34,-1.5391,-2.1988,0.44685,-4.0729,24.0,26.22,-4.14
4.7263,-11.7,-1.4165,-2.1945,0.41356,-4.2391,22.5,27.24,-3.9
4.6718,-11.032,-1.2258,-2.095,0.19151,-4.4181,21.0,28.26,-3.42
4.6718,-10.624,-0.50395,-1.9126,-0.15547,-4.5503,17.16,30.18,-2.52
4.5901,-10.379,-0.31327,-1.7654,-0.36713,-4.5641,15.0,31.08,-1.74
4.4811,-10.283,-0.040861,-1.5647,-0.59376,-4.51,12.78,31.92,-0.96
3.9635,-9.9973,0.44947,-1.3503,-0.82222,-4.3286,7.98,33.66,0.48
3.6366,-9.8339,0.35413,-1.1286,-0.99174,-3.9596,5.34,34.32,1.26
3.4732,-9.7385,0.24517,-0.87415,-1.1225,-3.4053,2.7,34.8,2.28
3.623,-9.8339,0.34051,-0.42944,-1.3002,-2.2666,-2.46,35.58,4.2
3.7456,-10.052,0.40861,-0.12828,-1.3671,-1.398,-4.98,35.58,5.34
3.9635,-10.787,0.46309,-0.0051924,-1.3628,-0.9728,-7.38,35.64,6.36
4.0997,-11.278,1.0896,0.28558,-1.3241,0.067501,-11.94,35.58,8.16
3.9499,-10.924,1.3076,0.47037,-1.3689,0.51832,-14.04,35.4,9.06
3.5958,-10.488,1.3757,0.72052,-1.4221,0.79382,-15.96,35.16,9.78
2.8194,-10.869,0.7355,1.0684,-1.4291,0.92424,-19.14,34.8,11.22
2.0703,-11.032,1.1169,1.4887,-1.3112,0.97097,-20.28,34.56,11.58
0.58567,-11.496,1.7298,1.7236,-1.0037,1.1335,-21.18,34.5,12.0
0.54481,-13.743,0.31327,1.8482,-0.77702,1.2654,-22.38,34.38,12.42
1.866,-13.702,-0.83084,2.2037,-0.40592,1.8473,-22.38,34.68,12.54
2.4108,-12.449,-1.7979,2.445,-0.81001,2.2159,-22.44,34.92,12.24
1.866,-10.501,-2.2746,2.5305,-1.4013,2.3695,-21.3,35.58,11.4
1.471,-10.052,-2.4108,2.4438,-2.0391,2.3182,-20.58,36.24,10.74
0.21793,-9.398,-2.6015,2.3851,-2.0992,2.2452,-19.68,36.78,10.08
-1.3212,-8.9486,-2.8875,2.1218,-1.5715,2.0663,-17.22,37.8,8.28
-1.7434,-8.9622,-2.9284,1.8949,-0.66004,2.0287,-15.96,38.4,7.2
-1.4301,-9.0167,-3.3642,1.6295,0.41386,2.0375,-13.08,39.48,4.8
-0.83084,-9.0031,-3.5004,1.4697,1.3024,2.0339,-11.76,39.84,3.54
1.1577,-9.1393,-4.2632,1.3934,1.7477,2.0895,-10.56,40.08,2.28
2.2201,-9.221,-4.6854,1.3161,1.7627,2.2129,-7.92,40.68,-0.36
2.6151,-9.3436,-4.8352,1.2712,1.3732,2.3359,-6.54,40.68,-1.44
3.3506,-9.4798,-4.8216,1.1774,0.50335,2.4731,-5.1,40.5,-2.52
3.4051,-9.8475,-4.7944,1.1319,0.029016,2.4908,-1.62,40.32,-4.38
3.4187,-10.079,-4.9169,1.0901,-0.21594,2.4407,-0.12,40.02,-5.22
3.6503,-10.637,-5.4073,1.0214,-0.4163,2.263,3.18,39.06,-6.9
3.8682,-10.624,-5.7614,0.91385,-0.36194,2.1438,4.68,38.58,-7.68
3.8954,-10.515,-5.7205,0.72876,-0.22419,1.9313,6.18,38.04,-8.4
3.9499,-9.6704,-5.3937,0.55008,-0.074831,1.6283,9.3,36.6,-9.6
3.8954,-9.0031,-5.1485,0.40653,-0.0042761,1.281,10.74,36.0,-10.14
4.0997,-8.1995,-5.3119,0.28711,-0.0015272,0.97769,12.36,35.46,-10.62
4.7263,-7.4231,-5.9249,0.18906,-0.29658,0.59193,15.48,34.14,-11.58
5.094,-7.0281,-6.1292,0.15272,-0.50671,0.47983,17.1,33.6,-12.06
5.1076,-7.0553,-6.0883,0.024129,-1.288,0.16921,18.42,33.06,-12.48
4.699,-7.7364,-5.4618,-0.0956,-1.6878,-0.036346,20.46,32.22,-13.62
4.7263,-9.0303,-5.1349,-0.24007,-1.9297,-0.20159,21.12,31.92,-14.04
4.9987,-10.774,-5.1621,-0.39156,-2.036,-0.3259,21.78,31.44,-14.58
6.3062,-14.71,-5.4618,-0.62064,-2.157,-0.43219,22.56,31.14,-15.42
6.7285,-15.609,-5.2575,-1.0171,-2.1716,-0.562,22.8,30.96,-15.72
6.6331,-15.132,-4.6309,-1.5305,-2.0907,-0.86987,22.86,31.14,-16.02
5.6116,-12.667,-2.3699,-1.8298,-1.9245,-1.3155,22.38,31.56,-16.68
5.3119,-12.149,-2.1248,-1.9844,-1.8155,-1.8158,21.9,31.8,-16.92
5.2847,-12.667,-2.1384,-2.0217,-1.7703,-2.2003,21.06,32.16,-16.92
5.5435,-13.961,-1.4165,-2.0889,-1.7245,-2.3604,19.08,33.42,-16.8
5.598,-14.492,-0.50395,-2.3014,-1.5742,-2.3158,17.76,34.14,-16.68
5.598,-14.465,0.027241,-2.4319,-1.4203,-2.2611,16.14,34.98,-16.44
6.0474,-14.043,1.0624,-2.5033,-1.1536,-2.2193,12.78,36.6,-15.36
6.5241,-13.402,1.7706,-2.5516,-0.89125,-2.1936,10.86,37.44,-14.64
6.8919,-12.762,2.3155,-2.4829,-0.76602,-2.2651,8.82,38.46,-13.74
7.4776,-11.836,2.8194,-2.3173,-0.83414,-2.4056,4.56,40.2,-11.7
7.641,-11.918,3.1191,-1.9829,-1.1704,-2.6466,2.4,41.04,-10.38
7.7091,-11.931,3.6775,-1.7892,-1.4545,-2.7807,-0.06,41.64,-9.06
6.8647,-11.564,4.0589,-1.6808,-1.5605,-2.8537,-4.74,42.66,-5.88
6.5105,-11.605,4.127,-1.3082,-1.5715,-3.0574,-7.14,42.84,-4.26
5.884,-11.482,4.0725,-1.0513,-1.4038,-3.1933,-9.48,42.9,-2.64
4.8625,-11.387,3.4051,-0.76694,-1.135,-3.3573,-14.34,42.3,0.72
4.522,-11.373,3.0918,-0.27611,-0.58613,-3.5986,-16.74,41.64,2.34
3.8954,-11.673,2.6423,-0.12126,-0.40959,-3.6493,-18.96,40.86,3.96
2.0294,-11.346,2.438,0.23549,0.073915,-3.5546,-23.46,38.94,6.66
-0.10896,-10.447,2.1929,0.52229,0.27122,-3.2128,-25.5,37.8,7.92
-1.4438,-9.616,1.0215,0.93126,0.14142,-2.7135,-27.72,36.36,9.12
-1.3484,-9.0712,-0.99429,1.3158,-0.35094,-1.9374,-31.8,33.18,10.8
-1.4301,-8.3765,-1.757,1.6747,-1.7239,-0.32376,-33.84,31.74,11.22
-3.4459,-11.4,0.12258,1.7135,-2.0104,0.1405,-35.52,30.18,11.94
-4.6173,-13.089,0.12258,1.6612,-1.5149,1.2923,-38.52,27.66,12.72
-3.337,-11.346,-1.1032,1.8024,-0.72571,1.5828,-39.66,26.64,13.02
-0.27241,-9.5206,-3.6094,2.3405,-0.67898,1.6753,-41.34,25.2,12.96
0.95342,-10.283,-4.1133,2.8201,-1.5073,1.7037,-41.82,24.66,12.78
1.1441,-11.591,-3.7456,3.1741,-3.2245,1.8024,-42.18,24.48,12.54
-1.0624,-13.511,-2.3836,3.0061,-3.656,1.905,-42.06,24.78,12.12
-2.1793,-13.607,-2.3427,2.7125,-3.2431,2.051,-41.88,25.26,12.0
-2.6015,-13.375,-2.5606,2.4187,-2.1982,2.1753,-41.4,25.86,11.7
-1.7162,-12.735,-3.732,2.2694,-0.95478,2.2648,-39.72,27.66,11.1
-0.31327,-12.898,-4.0316,2.2132,-0.000916,2.3311,-38.7,28.8,10.92
1.757,-12.708,-4.4266,2.043,0.3711,2.4651,-36.0,31.2,10.26
3.0237,-12.367,-5.2166,1.9972,0.081245,2.507,-34.56,32.4,9.78
3.3915,-12.354,-5.5435,1.908,-0.4328,2.4786,-32.94,33.48,9.18
3.7184,-11.441,-6.2654,1.7993,-0.90011,2.3732,-29.88,35.7,7.68
3.7728,-10.978,-6.5786,1.6753,-1.2993,2.2202,-28.14,36.72,7.14
3.5685,-10.406,-6.8919,1.4936,-1.5583,1.9523,-26.4,37.8,6.48
3.4051,-9.2755,-7.0145,1.1802,-1.6521,1.4975,-22.8,39.3,4.86
3.4051,-8.54,-6.96,0.94379,-1.6961,1.1735,-21.06,40.02,4.2
3.5685,-8.1858,-6.8374,0.85185,-1.7788,1.0125,-19.08,40.56,3.36
3.2144,-7.641,-6.2926,0.55192,-2.0357,0.55619,-15.72,41.46,1.68
2.833,-7.1507,-5.9249,0.29444,-2.0119,0.31246,-14.16,41.76,0.84
2.9284,-7.069,-5.7614,0.11454,-1.8787,0.12523,-12.72,42.0,-0.06
4.0589,-7.7364,-5.8295,-0.040928,-1.9578,-0.071471,-10.26,42.24,-1.38
4.7944,-8.7306,-5.5707,-0.32009,-2.2245,-0.14233,-9.18,42.3,-1.86
4.7944,-9.3436,-5.2302,-0.58429,-2.3439,-0.22785,-8.28,42.36,-1.98
4.8761,-11.21,-4.0589,-0.88362,-2.1206,-0.36896,-6.72,42.48,-2.28
5.4754,-13.184,-4.2223,-1.018,-1.8497,-0.56963,-6.36,42.42,-2.28
6.1019,-14.669,-4.1951,-1.3842,-1.646,-0.77213,-6.06,42.24,-2.1
6.7148,-13.457,-1.3076,-1.8665,-1.4823,-1.004,-5.94,41.76,-1.5
6.7148,-13.457,-0.32689,-2.0443,-1.4499,-1.2443,-6.12,41.52,-0.96
7.3958,-15.704,-0.89894,-2.0663,-1.7318,-1.5788,-6.3,41.04,-0.36
7.246,-16.535,-1.076,-2.229,-1.7966,-1.7346,-6.6,40.68,0.72
7.0281,-15.868,-0.54481,-2.3017,-1.6218,-1.8463,-7.14,40.14,1.68
6.1292,-14.792,0.17706,-2.3008,-1.3488,-1.9584,-8.34,39.24,3.96
5.9657,-14.356,0.10896,-2.4047,-1.0437,-2.1408,-9.12,38.7,5.1
5.9249,-13.838,0.10896,-2.4981,-0.75472,-2.3506,-9.78,38.04,6.36
5.9521,-13.062,0.095342,-2.5482,-0.53909,-2.5635,-11.64,36.54,8.46
5.9521,-12.558,0.25879,-2.5757,-0.47739,-2.7886,-12.54,35.58,9.78
5.8567,-12.177,0.43585,-2.5357,-0.60903,-3.109,-13.62,34.62,10.98
5.3664,-12.367,0.76274,-2.4731,-0.72235,-3.2483,-15.72,32.52,12.9
5.1621,-12.626,0.76274,-2.3824,-0.77244,-3.3023,-16.74,31.26,14.1
4.9714,-13.184,0.61292,-2.2055,-0.68997,-3.2153,-18.9,28.5,15.96
4.6037,-13.443,0.68102,-2.1389,-0.50366,-3.0595,-20.04,27.18,16.8
4.3177,-12.926,0.8036,-2.1093,-0.38423,-2.97,-21.12,25.68,17.4
3.9908,-12.163,1.0215,-1.9728,-0.020464,-2.7932,-22.14,24.3,17.94
3.5822,-11.223,1.0896,-1.7837,0.22083,-2.7382,-24.12,21.18,18.96
3.1327,-10.883,1.1577,-1.5088,0.43555,-2.6643,-24.96,19.56,19.38
2.8194,-9.8884,0.96704,-1.1713,0.58704,-2.5097,-26.88,16.62,20.04
2.5742,-9.5206,0.96704,-0.75381,0.55436,-2.2791,-27.72,15.06,20.46
2.0975,-9.7522,0.96704,-0.2022,0.24221,-1.9209,-28.68,13.56,20.58
1.4029,-11.101,0.64016,0.65149,-0.46395,-1.1949,-30.18,10.62,20.88
0.28603,-11.577,1.1713,1.1225,-0.88942,-0.53939,-30.84,9.42,21.06
-1.7025,-11.918,2.3699,1.5779,-1.0696,0.16005,-31.38,8.58,21.12
-1.2803,-14.833,1.3757,2.1536,-0.88453,0.87904,-31.74,7.8,21.18
0.054481,-15.772,0.44947,2.7523,-0.56536,1.5773,-32.4,6.72,20.94
0.57205,-14.478,-0.55843,3.4468,-0.7816,2.229,-32.76,6.3,20.76
0.095342,-13.348,-1.2258,3.5922,-1.2324,2.3729,-32.52,6.54,20.4
-0.68102,-13.307,-1.4438,3.5381,-1.478,2.386,-32.22,7.74,19.92
-1.0896,-13.375,-1.7706,3.3952,-1.3531,2.3952,-31.8,8.46,19.68
-1.362,-13.307,-2.4789,3.1392,-0.86773,2.5064,-30.84,10.44,19.02
-0.85808,-12.912,-3.1054,2.8671,0.25748,2.7556,-29.4,12.78,18.54
-0.027241,-12.694,-3.2553,2.7324,1.0052,2.9172,-28.32,15.54,17.58
1.2258,-12.503,-3.4051,2.6066,1.481,3.0433,-27.0,17.94,16.56
2.5742,-12.435,-3.9363,2.4997,1.6035,3.1133,-25.68,20.28,15.36
3.5004,-12.381,-4.5356,2.4083,1.4392,3.1698,-24.36,22.5,14.22
3.8273,-11.795,-4.985,2.2856,1.1005,3.1634,-22.74,24.42,13.02
3.5822,-11.25,-5.0395,2.1194,0.79779,3.0855,-20.7,26.04,11.7
3.4596,-11.128,-5.0259,1.8097,0.71807,2.832,-19.8,26.58,10.98
3.3097,-10.869,-4.9169,1.5449,0.86285,2.5684,-17.7,28.02,9.6
3.6094,-11.019,-4.8625,1.3195,1.007,2.2813,-15.18,28.98,8.04
4.0316,-11.128,-5.1485,1.0592,1.1316,2.0003,-12.78,29.76,6.6
4.7263,-10.992,-5.1757,0.84452,1.1637,1.7263,-10.44,30.36,5.1
4.8488,-10.815,-5.0123,0.63774,1.0602,1.4258,-9.24,30.72,4.5
5.1076,-10.134,-4.9033,0.36713,0.72693,0.91569,-6.84,31.08,3.18
5.3392,-9.6977,-5.2166,0.22938,0.44502,0.58857,-4.68,31.32,2.1
5.2166,-9.3299,-5.0668,0.069944,0.1628,0.22969,-4.08,31.5,1.56
5.2166,-9.0848,-4.5356,-0.07025,-0.076053,-0.15149,-2.52,31.5,0.66
5.1894,-10.161,-4.5083,-0.13775,-0.31246,-0.54734,-1.56,31.44,0.24
5.6116,-11.877,-4.7535,-0.28802,-0.55619,-0.91294,-0.96,31.32,-0.3
6.1564,-13.375,-4.5901,-0.54184,-1.0085,-1.3008,-0.72,31.2,-0.6
6.5105,-14.928,-4.5083,-0.69242,-1.4413,-1.5195,-0.66,31.14,-0.54
5.8023,-15.01,-3.9499,-1.1124,-1.7572,-1.7795,-0.78,30.96,-0.54
4.8625,-12.803,-2.833,-1.5033,-1.8158,-2.0724,-1.26,30.72,-0.36
4.4811,-12.517,-2.5879,-1.7095,-1.7355,-2.4303,-1.8,30.66,-0.24
4.0997,-12.558,-2.2746,-1.9254,-1.4832,-2.7544,-2.94,30.3,0.12
4.1814,-13.457,-1.9341,-2.0876,-1.1539,-2.9932,-4.56,30.18,0.84
4.3721,-13.852,-1.6753,-2.2904,-0.83689,-3.1851,-5.46,30.0,1.26
4.699,-14.083,-1.1577,-2.4404,-0.77183,-3.2177,-7.68,29.64,1.92
4.4266,-13.225,-0.74912,-2.529,-0.73884,-3.1957,-10.2,29.16,2.88
4.2495,-12.912,-0.54481,-2.5452,-0.63041,-3.1371,-11.22,28.74,3.54
4.1133,-11.632,-0.21793,-2.5647,-0.46976,-3.0949,-13.68,28.08,4.98
4.0589,-10.964,-0.027241,-2.5137,-0.33659,-3.0641,-16.2,27.06,6.42
3.9227,-10.379,-0.027241,-2.4196,-0.28314,-3.098,-17.64,26.52,7.26
3.8273,-9.9429,0.23155,-2.3286,-0.32956,-3.1099,-20.1,25.08,9.06
3.6911,-9.6841,0.29965,-2.1951,-0.41203,-3.0867,-22.44,23.52,11.04
3.5822,-9.7522,0.42223,-2.0525,-0.48839,-3.0048,-23.52,22.38,12.06
3.514,-9.7385,0.47671,-1.8741,-0.55314,-2.8698,-25.32,20.34,13.86
3.3097,-9.6432,0.57205,-1.565,-0.624,-2.5476,-26.94,18.0,15.78
3.1735,-9.6704,0.58567,-1.3299,-0.64232,-2.2721,-27.54,16.68,16.8
2.7922,-9.9565,0.72188,-1.0608,-0.64294,-1.9316,-28.8,14.16,18.36
2.6015,-10.27,0.83084,-0.78343,-0.59926,-1.5281,-29.34,12.78,19.2
2.6423,-10.406,0.83084,-0.49999,-0.5226,-1.0999,-30.24,9.96,20.46
2.6968,-10.351,0.5993,-0.1573,-0.47495,-0.66157,-30.84,7.8,21.66
2.547,-10.243,0.68102,0.43188,-0.59162,-0.15699,-31.14,5.58,22.8
2.2065,-10.515,1.0488,0.83078,-0.70891,0.13775,-31.14,4.68,23.22
1.3893,-11.455,1.2939,1.1979,-0.76297,0.45998,-30.84,3.06,24.0
0.83084,-11.741,1.4029,1.4981,-0.60018,0.79504,-30.66,2.52,24.3
0.39499,-12.095,1.866,1.8726,-0.28924,1.1448,-30.3,2.04,24.96
1.2939,-14.424,1.2803,2.3246,0.027184,1.5699,-30.06,2.04,25.44
2.8603,-15.282,-0.24517,2.7544,0.14294,2.0855,-29.28,2.88,25.38
3.3097,-14.751,-0.68102,3.2526,-0.32529,2.7642,-28.98,3.54,25.44
3.2144,-13.77,-1.4165,3.4089,-0.97647,3.0003,-28.32,5.22,25.02
2.6832,-13.266,-1.58,3.4291,-1.474,2.9911,-27.72,6.12,24.6
0.77636,-12.34,-2.0567,3.3372,-1.4817,2.8439,-26.76,8.52,23.88
-0.21793,-12.081,-2.9284,3.1411,-0.99999,2.6976,-25.62,11.34,22.68
-0.61292,-11.659,-4.0044,2.8998,-0.1011,2.591,-24.66,14.28,21.24
-0.40861,-11.577,-4.0589,2.4865,1.4697,2.4978,-24.12,15.66,20.58
0.5993,-11.387,-3.9908,2.1582,2.1979,2.4926,-22.98,18.36,18.72
1.5391,-10.597,-3.8273,1.8427,2.6224,2.518,-21.96,20.64,16.8
2.0294,-10.188,-3.8954,1.5861,2.9004,2.6011,-21.48,21.72,15.96
2.7513,-10.161,-3.7865,1.4099,3.0446,2.6725,-19.8,23.76,14.16
3.7184,-10.774,-3.4323,1.2562,3.0244,2.7529,-18.12,25.32,12.42
4.2768,-10.801,-3.2689,1.011,2.6227,2.8112,-16.44,26.7,10.56
4.6854,-11.087,-3.5277,0.96303,2.2611,2.8747,-15.48,27.18,9.6
5.4073,-11.836,-4.1951,0.96456,1.8949,2.9318,-13.68,27.9,7.86
6.7693,-12.612,-5.1213,0.95692,1.3518,2.8885,-11.28,28.5,6.06
7.0962,-12.681,-5.2847,0.83841,0.76725,2.7037,-10.08,28.8,5.16
7.0962,-11.101,-4.9169,0.61606,0.25992,2.332,-7.5,29.34,3.78
6.7966,-9.6432,-4.6445,0.28894,-0.076969,1.3201,-5.1,29.82,2.34
6.456,-9.0575,-4.699,0.11362,-0.033903,0.46212,-4.08,30.0,1.86
5.1076,-8.2812,-4.2632,-0.034514,0.197,-0.36896,-2.16,30.24,0.66
4.5356,-8.8805,-3.8137,-0.14508,0.55558,-1.0996,-0.72,30.36,-0.24
4.6718,-10.515,-3.6503,-0.28863,0.82864,-1.6683,0.24,30.42,-0.96
4.7671,-10.937,-3.6775,-0.42822,0.94409,-2.0189,0.66,30.42,-1.14
6.1155,-12.204,-3.8682,-0.48442,0.78466,-2.1933,0.78,30.42,-1.2
7.641,-14.315,-3.9771,-0.37996,-0.47342,-2.2544,0.36,30.42,-1.08
7.9679,-15.405,-3.8546,-0.53084,-1.6674,-2.2794,0.36,30.3,-1.08
6.6467,-14.397,-2.5742,-0.82253,-2.5595,-2.376,-1.08,30.48,-0.6
5.4754,-14.846,-2.6015,-0.94501,-3.0204,-2.5626,-2.7,30.18,-0.06
4.0452,-15.35,-2.3427,-1.2795,-3.0024,-2.8158,-4.68,29.94,0.6
3.6094,-15.418,-2.2746,-1.6472,-2.5232,-3.058,-5.7,30.0,1.32
