Ax,Ay,Az,Gx,Gy,Gz,Mx,My,Mz
2.9148,-11.387,-0.054481,-0.10782,-0.16432,0.6185,21.06,38.22,-13.38
2.3836,-12.463,0.28603,-0.21197,-0.2361,0.62705,21.72,38.1,-13.38
2.3155,-12.967,0.53119,-0.32681,-0.1237,0.69914,22.02,37.86,-13.56
1.9886,-13.525,0.57205,-0.41478,0.0094684,0.82803,22.62,37.62,-13.44
1.4846,-13.77,0.76274,-0.44929,0.07758,0.96669,23.04,37.44,-13.2
1.5391,-13.825,0.70826,-0.41264,0.011301,1.1368,23.4,37.38,-12.96
1.8115,-13.879,0.69464,-0.27764,-0.32437,1.3601,23.76,37.38,-12.72
1.6481,-12.994,0.40861,-0.1744,-0.58093,1.3809,24.48,37.26,-12.54
1.0215,-11.536,0.054481,-0.11057,-0.7138,1.2223,25.14,37.2,-12.48
0.44947,-9.902,-0.25879,-0.099266,-0.66859,0.90744,25.44,37.02,-12.48
-0.12258,-7.4776,-0.50395,-0.20586,-0.49114,0.50488,25.92,36.9,-12.42
-1.0488,-6.4152,-0.19068,-0.40775,-0.2926,0.19303,26.34,36.84,-12.24
-1.2667,-7.2052,0.25879,-0.61606,-0.054978,-0.013744,26.58,36.96,-12.12
-1.3484,-7.5184,0.40861,-0.82284,0.4554,-0.21991,26.76,36.84,-11.82
-1.4438,-7.9815,0.57205,-0.82925,0.85185,-0.32834,27.06,36.96,-11.64
-1.2803,-8.5672,0.76274,-0.73029,1.2669,-0.41936,27.12,37.26,-11.34
-0.83084,-9.0712,0.83084,-0.59376,1.6319,-0.50824,27.06,37.38,-11.04
0.10896,-8.6217,0.49033,-0.45907,1.752,-0.58582,27.06,37.8,-10.5
0.8036,-8.3901,0.24517,-0.32956,1.5937,-0.65637,26.76,38.4,-9.72
1.076,-8.4174,-0.27241,-0.19578,1.1274,-0.76175,26.58,38.58,-9.18
1.8932,-8.2403,-0.77636,-0.12309,0.80543,-0.85277,26.04,39.12,-8.22
2.0567,-8.2131,-0.88532,-0.084299,0.59132,-0.95814,25.56,39.54,-7.14
2.3291,-8.5672,-1.2258,-0.07422,0.49419,-1.0498,25.32,39.72,-6.78
2.3836,-9.1665,-1.6072,-0.075442,0.51313,-1.1423,24.72,40.26,-5.82
2.547,-9.1801,-1.8796,-0.092546,0.56261,-1.1924,23.7,40.92,-5.04
2.5742,-8.7851,-1.9886,-0.15027,0.57879,-1.131,22.68,41.16,-4.38
2.4653,-8.5808,-1.9613,-0.18723,0.53451,-1.0091,21.48,41.58,-3.78
2.4108,-8.3493,-1.757,-0.19334,0.50519,-0.87384,21.06,41.7,-3.42
2.3427,-7.6819,-1.6481,-0.1405,0.49999,-0.73334,19.68,42.3,-3.18
2.3699,-7.0962,-1.5391,-0.03879,0.48655,-0.62614,18.54,42.78,-2.64
2.4517,-7.5457,-1.5119,0.061697,0.45082,-0.53359,17.46,43.02,-2.4
2.6423,-8.4582,-1.2531,0.17685,0.46853,-0.36469,16.32,43.2,-2.1
2.7241,-8.8396,-1.1441,0.2138,0.53726,-0.26114,15.78,43.44,-1.98
2.9965,-9.5751,-0.8717,0.22724,0.61667,-0.12126,14.94,43.5,-1.86
3.6366,-10.542,-0.62654,0.21472,0.58582,0.061392,14.4,43.68,-1.86
4.1542,-11.373,-0.24517,0.19945,0.46914,0.2923,13.74,43.74,-1.74
4.4947,-11.427,0.054481,0.15577,0.35766,0.49144,13.08,43.86,-1.68
4.6718,-10.842,0.35413,0.097128,0.24465,0.47342,12.72,43.68,-1.56
4.7535,-10.338,0.47671,0.065668,0.16005,0.29322,12.42,43.56,-1.56
4.7671,-10.093,0.54481,0.079718,0.015577,0.069639,11.94,43.62,-1.74
4.7399,-10.188,0.44947,0.11973,-0.23885,-0.15485,11.76,43.62,-1.74
4.7944,-10.61,0.57205,0.14233,-0.45448,-0.31643,11.52,43.56,-1.8
4.4947,-10.569,0.89894,0.12584,-0.62675,-0.44502,11.16,43.44,-1.86
3.9363,-10.079,0.76274,0.081856,-0.70097,-0.58613,10.86,43.44,-1.62
3.7047,-9.7249,0.70826,0.032681,-0.63011,-0.69944,10.68,43.38,-1.62
3.4323,-8.9077,0.65378,-0.017104,-0.46273,-0.84971,10.08,43.44,-1.5
3.3506,-8.826,0.50395,-0.047037,-0.40439,-0.90744,9.42,43.44,-1.5
3.1191,-8.6489,0.44947,-0.058338,-0.34086,-0.97677,9.0,43.32,-1.38
2.6968,-7.4503,0.10896,-0.033292,-0.25137,-1.0418,7.68,43.38,-1.26
2.7649,-7.1915,0.054481,0.011301,-0.208,-1.1325,7.14,43.44,-1.2
2.8603,-7.8317,0.027241,0.11209,-0.47861,-1.1949,5.7,43.56,-0.84
2.9965,-9.0575,0.1362,0.15272,-0.82589,-1.1044,4.98,43.62,-0.72
3.051,-10.542,0.40861,0.13622,-1.2236,-0.93371,4.08,43.68,-0.66
3.0101,-11.482,0.5993,0.12187,-1.5601,-0.66829,3.24,43.8,-0.6
2.1384,-12.544,1.0215,0.051007,-1.7052,-0.25962,1.56,44.04,-0.54
1.9341,-12.667,0.98067,0.0079412,-1.5281,-0.022297,0.78,44.22,-0.6
1.7298,-12.735,0.6674,-0.04612,-1.2883,0.197,-0.66,44.46,-0.36
1.471,-12.503,0.50395,-0.10415,-1.0003,0.42119,-1.32,44.64,-0.42
0.78998,-12.217,0.43585,-0.2138,-0.66248,0.75411,-1.74,44.76,-0.24
0.081722,-11.659,0.68102,-0.36072,-0.22571,1.146,-2.28,44.94,-0.24
0.28603,-11.346,0.76274,-0.53237,0.54459,1.6924,-2.28,45.06,0.12
0.99429,-10.774,0.78998,-0.55222,0.87995,1.9441,-2.34,45.18,0.3
2.0839,-8.9349,0.39499,-0.4386,0.97066,1.97,-1.74,45.3,0.78
2.6015,-7.8045,-0.36775,-0.24099,0.77152,1.806,-1.44,45.3,1.14
2.6968,-7.4503,-0.8036,-0.016799,0.36469,1.511,-0.78,45.3,1.5
2.5742,-7.5457,-0.78998,0.13744,0.018021,1.208,-0.78,45.3,2.04
2.4108,-8.6762,-1.0215,0.15455,-0.017715,0.8995,1.56,45.0,3.06
2.438,-8.9486,-1.0896,0.10812,0.090713,0.85307,2.46,45.0,3.48
2.4925,-9.0848,-1.2258,-0.047647,0.37721,0.81153,3.48,44.88,3.9
2.3699,-8.4855,-0.9398,-0.34606,0.97922,0.7758,5.52,44.7,4.8
2.3155,-7.9407,-0.85808,-0.50885,1.4502,0.7083,6.48,44.64,5.28
2.4653,-7.5457,-0.83084,-0.60598,1.8851,0.58918,8.46,44.58,6.24
3.1327,-7.0826,-0.81722,-0.62919,2.1493,0.39706,9.36,44.46,6.66
3.4732,-6.9872,-0.76274,-0.56688,2.0739,0.28924,10.44,44.34,7.14
3.8137,-7.0281,-0.8036,-0.51985,1.9575,0.22571,11.22,44.34,7.56
4.0316,-7.0009,-0.92618,-0.36072,1.3686,0.045815,11.82,44.28,8.16
4.3449,-7.355,-0.92618,-0.26664,0.92485,-0.022602,12.48,44.22,8.58
4.3177,-8.3493,-0.9398,-0.17287,0.56474,-0.030543,12.84,44.28,8.82
3.8954,-9.2074,-0.81722,-0.066584,0.41997,0.051924,13.8,44.28,9.36
3.8954,-9.4798,-0.65378,0.0061087,0.53512,0.13225,14.16,44.34,9.72
3.9635,-9.3572,-0.64016,0.1179,0.67776,0.17287,14.46,44.28,9.84
4.0861,-9.0439,-0.64016,0.24984,0.81062,0.21014,14.7,44.16,10.14
4.3313,-8.9758,-0.47671,0.40317,0.80695,0.24404,14.88,44.28,10.56
4.8897,-9.8475,-0.40861,0.53084,0.59956,0.36102,15.24,44.22,11.1
5.2847,-10.937,-0.040861,0.65699,0.24679,0.53145,15.3,44.16,11.4
5.7342,-11.482,-0.16344,0.80481,-0.39462,0.71532,15.6,44.1,11.4
5.775,-10.964,-0.40861,0.84483,-0.90622,0.62522,15.72,44.1,11.28
5.8023,-10.855,-0.36775,0.81948,-1.3402,0.40531,15.9,44.04,11.16
5.6524,-11.659,-0.027241,0.72601,-1.6958,0.12126,16.44,43.92,10.62
5.2575,-12.149,0.38137,0.58277,-1.9835,-0.21655,16.86,43.8,10.32
4.9306,-12.217,0.49033,0.38698,-2.1313,-0.58246,17.1,43.68,9.84
3.8546,-11.06,0.68102,0.18906,-2.0663,-0.95997,17.46,43.62,8.82
3.3506,-10.311,0.65378,-0.021991,-1.5992,-1.4398,17.52,43.62,8.28
3.1191,-9.5615,0.64016,-0.052534,-1.4163,-1.5751,17.46,43.56,7.68
2.9148,-8.8668,0.54481,-0.076358,-0.99418,-1.8784,17.64,43.44,6.78
2.8739,-8.1586,0.31327,-0.019853,-0.80481,-1.9826,17.4,43.38,5.34
3.5958,-7.5457,-0.054481,0.037263,-0.85949,-2.1096,17.22,43.5,4.44
3.8273,-8.6762,0.19068,0.037874,-1.4539,-2.2642,16.02,43.62,2.88
2.6015,-9.2891,0.47671,0.041539,-1.7675,-2.2568,15.3,43.68,2.16
1.471,-9.9429,1.1577,-0.015577,-2.5186,-2.0192,14.4,43.86,1.32
0.49033,-11.605,1.6072,-0.095295,-2.6056,-1.6869,12.12,44.22,-0.24
0.081722,-12.217,1.4165,-0.14203,-2.4025,-1.1839,10.92,44.34,-0.9
-1.185,-12.149,1.6344,-0.12065,-1.5589,-0.28375,8.4,44.82,-2.04
-1.8387,-12.612,1.7025,-0.11515,-0.72846,0.32345,7.2,45.12,-2.58
-0.76274,-13.198,1.5119,-0.12217,-0.31887,0.59498,6.3,45.36,-2.88
-0.34051,-13.089,1.3212,-0.15058,0.25198,1.0201,5.34,45.66,-3.3
0.28603,-12.0,1.0079,-0.24648,0.55894,1.3518,3.54,45.96,-3.96
0.8036,-11.264,1.0896,-0.27581,0.53542,1.4172,3.06,46.14,-4.26
0.89894,-9.5751,0.76274,-0.25504,0.39798,1.3082,2.52,46.2,-4.5
0.8036,-8.2812,0.20431,-0.12095,0.078191,1.0629,2.1,46.26,-4.74
0.8036,-8.0769,-0.24517,-0.0048869,-0.053145,0.93646,1.92,46.26,-4.68
0.92618,-8.2539,-0.54481,0.055589,-0.036346,0.8772,2.04,46.2,-4.62
1.362,-9.3436,-0.5993,0.080329,0.15852,0.87812,2.82,46.2,-4.44
1.6481,-9.7658,-0.54481,-0.000916,0.48442,0.91355,3.24,46.08,-4.26
1.975,-9.9565,-0.49033,-0.10232,0.87048,0.96395,3.84,45.96,-4.02
2.2882,-9.3844,-0.61292,-0.23732,1.4413,1.0229,4.92,45.54,-3.42
2.3836,-8.8941,-0.72188,-0.29199,1.7666,1.0531,5.52,45.36,-3.42
2.8875,-7.9679,-1.0215,-0.30849,1.9148,1.0507,6.24,45.12,-3.12
3.6366,-7.6819,-1.7162,-0.31185,1.8509,0.99357,7.62,44.88,-2.52
4.2904,-8.3901,-2.152,-0.35094,1.6008,0.90133,8.22,44.82,-2.16
4.5901,-8.7987,-2.4108,-0.38912,1.3467,0.77916,8.88,44.64,-1.86
4.8625,-8.6353,-2.833,-0.49511,1.0605,0.59773,10.26,44.4,-1.14
4.9578,-8.6762,-2.7649,-0.58338,0.92913,0.52748,11.1,44.4,-0.9
4.9169,-8.826,-2.6968,-0.63958,0.91752,0.42241,11.82,44.28,-0.6
4.3177,-8.4582,-2.3563,-0.6408,1.0928,0.3656,13.14,44.1,0.12
4.6037,-8.1177,-2.0022,-0.59987,1.2605,0.39859,13.68,44.1,0.36
5.1213,-7.8998,-1.7706,-0.5061,1.222,0.43249,14.28,44.04,0.66
5.5435,-8.1177,-1.2122,-0.36255,1.0406,0.48869,15.42,44.04,1.32
5.7342,-8.4719,-1.0079,-0.13103,0.80879,0.54,15.96,43.92,1.86
6.1564,-9.5479,-0.57205,-0.049175,0.65668,0.56322,16.38,43.86,2.16
6.674,-10.243,-0.14982,0.18967,0.092546,0.56627,17.1,43.68,2.82
6.7693,-9.6023,-0.32689,0.3146,-0.37721,0.43188,17.4,43.56,3.0
6.7285,-9.2755,-0.16344,0.38637,-0.93737,0.14691,17.82,43.5,3.42
6.3198,-10.025,0.19068,0.40348,-1.507,-0.2022,18.18,43.68,3.6
5.8431,-10.637,0.34051,0.33078,-2.1307,-0.70524,18.36,43.5,3.6
5.1213,-10.91,0.58567,0.24801,-2.2425,-0.98716,18.36,43.32,3.6
3.9227,-10.161,0.57205,0.14294,-2.0611,-1.2339,18.24,43.08,3.24
3.5277,-9.793,0.50395,0.07025,-1.6961,-1.4658,18.06,43.02,3.06
3.1872,-9.221,0.28603,0.018021,-1.2504,-1.7086,17.88,43.02,2.7
2.7922,-8.1586,-0.068102,0.030849,-0.64752,-2.0415,16.98,42.96,2.04
3.2144,-7.641,-0.38137,0.072693,-0.5849,-2.2061,16.2,43.02,1.56
3.4596,-7.6683,-0.61292,0.12034,-0.91477,-2.3085,15.48,43.08,1.08
3.5004,-7.8453,-0.65378,0.1686,-1.4667,-2.3527,14.7,43.38,0.6
3.3234,-7.8726,-0.8036,0.18204,-2.0467,-2.3149,13.62,43.26,0.12
2.6832,-8.8805,-0.77636,0.14355,-2.471,-2.1845,10.98,43.38,-0.9
2.0839,-10.855,-0.55843,0.054062,-2.6676,-1.8998,9.54,43.44,-1.38
1.5527,-13.893,-0.31327,-0.074831,-2.5837,-1.5204,6.48,43.44,-2.16
0.38137,-14.683,-0.1362,-0.25107,-1.9429,-0.86224,4.98,43.5,-2.46
-0.38137,-14.873,0.28603,-0.36835,-1.2,-0.31979,3.36,43.5,-2.76
-0.84446,-14.914,0.55843,-0.46609,-0.33934,0.15272,1.98,43.62,-3.0
-0.77636,-13.62,0.57205,-0.5284,0.41844,0.54092,-0.6,43.68,-3.06
-0.19068,-12.776,0.38137,-0.55986,0.94623,0.94501,-1.86,43.5,-3.06
0.64016,-12.258,0.40861,-0.53329,1.0858,1.0492,-3.72,43.68,-3.12
0.9398,-10.992,0.5993,-0.47586,1.0467,1.1616,-4.44,43.74,-3.18
1.0624,-10.106,0.68102,-0.40531,0.88392,1.2019,-4.86,43.68,-3.18
1.4846,-7.8726,0.14982,-0.19456,0.54642,1.2193,-5.52,43.74,-2.88
1.7298,-7.5729,-0.40861,0.012523,0.27642,1.1698,-5.46,43.74,-2.76
1.8251,-7.8998,-1.0215,0.29352,0.041233,1.0324,-5.1,43.62,-2.52
1.6753,-8.5672,-0.99429,0.40592,0.1573,0.94623,-4.74,43.62,-2.46
1.6889,-8.5127,-1.1032,0.41966,0.30757,0.90958,-4.5,43.56,-2.28
1.7434,-8.5536,-1.185,0.38423,0.68753,0.89064,-3.96,43.62,-2.1
1.866,-8.4991,-1.3212,0.26084,1.2932,0.97066,-3.42,43.68,-1.86
2.2882,-8.0496,-1.471,0.14325,1.6316,1.0864,-2.22,43.68,-1.8
2.5879,-7.7636,-1.362,0.030849,1.8677,1.2,-1.44,43.68,-1.8
2.942,-7.0281,-1.2395,-0.075442,1.9578,1.3127,0.12,43.44,-1.8
3.2144,-6.6331,-1.4165,-0.15608,1.861,1.4368,0.84,43.38,-1.68
3.4459,-6.5786,-1.5663,-0.15241,1.7767,1.4777,1.62,43.32,-1.5
4.3858,-6.7421,-2.2474,-0.073304,1.1991,1.5437,3.54,43.32,-1.44
4.699,-7.2869,-2.6423,-0.0076358,0.53206,1.5656,4.44,43.32,-1.38
4.699,-7.8998,-2.9965,0.053756,-0.16463,1.5617,5.4,43.38,-1.38
4.4402,-8.6762,-3.1054,0.12126,-0.87201,1.5727,7.32,43.32,-1.26
4.2223,-9.221,-3.2008,0.18662,-1.0281,1.5895,8.4,43.32,-1.32
4.1951,-10.038,-3.2553,0.21289,-0.9838,1.5626,9.36,43.38,-1.44
3.9635,-10.91,-2.9965,0.21014,-0.74128,1.4502,11.52,43.14,-1.56
4.1678,-10.774,-2.9965,0.19914,-0.41264,1.2471,12.6,43.02,-1.62
4.2632,-10.46,-2.9829,0.18326,-0.15211,1.0052,13.62,42.96,-1.68
4.8761,-10.474,-2.5879,0.14691,-0.047647,0.64782,15.6,42.84,-1.8
4.8897,-11.032,-2.2746,0.10171,-0.014966,0.41142,16.5,42.66,-1.86
4.8897,-11.931,-1.9613,0.0042761,0.14569,0.1909,17.28,42.48,-2.04
5.0531,-13.076,-1.1032,-0.12706,0.38423,-0.05284,18.6,42.24,-2.4
5.1485,-12.83,-0.42223,-0.24832,0.59498,-0.33384,19.2,42.18,-2.52
5.1213,-11.863,-0.31327,-0.33995,0.70158,-0.62156,19.68,41.88,-2.64
4.8488,-9.3299,-0.20431,-0.33659,0.62614,-1.0809,20.28,41.7,-2.82
4.7671,-8.6762,-0.20431,-0.18876,0.17135,-1.3491,20.52,41.58,-2.76
4.6854,-9.2618,-0.31327,-0.085216,-0.19273,-1.5663,20.58,41.46,-2.82
4.3994,-10.665,-0.17706,-0.014355,-0.44715,-1.7657,20.16,41.58,-2.64
4.0725,-10.637,-0.17706,-0.0036652,-0.55039,-1.9313,19.74,41.64,-2.64
3.8546,-10.597,0.095342,-0.045204,-0.59346,-2.0495,19.14,41.82,-2.58
3.5413,-9.9565,-0.16344,-0.10049,-0.62614,-2.179,17.64,41.94,-2.34
3.3506,-9.6296,-0.19068,-0.11912,-0.77122,-2.3699,16.74,42.06,-2.28
3.0918,-9.2618,-0.36775,-0.12798,-0.88239,-2.4483,15.72,42.06,-2.16
3.0373,-9.0303,-0.55843,-0.12675,-1.0348,-2.5055,13.32,42.12,-1.92
2.8739,-9.1393,-0.61292,-0.11484,-1.2132,-2.514,12.0,42.18,-1.74
2.6423,-9.6023,-0.68102,-0.12828,-1.4001,-2.4627,10.56,42.36,-1.68
2.3291,-10.392,-0.89894,-0.12614,-1.5327,-2.3808,7.56,42.48,-1.32
2.3563,-11.087,-1.0624,-0.10049,-1.6939,-2.1087,5.94,42.6,-1.26
2.3291,-12.408,-1.1986,-0.087354,-1.759,-1.8415,4.26,42.72,-1.2
1.866,-14.07,-1.2258,-0.10904,-1.7159,-1.4768,1.14,42.42,-1.2
1.6344,-14.696,-1.0896,-0.16463,-1.6469,-1.025,-0.48,42.3,-1.02
1.076,-14.628,-0.83084,-0.26878,-1.4099,-0.54856,-1.86,42.0,-0.78
-1.7979,-12.871,0.50395,-0.42394,-0.93921,0.0094684,-4.56,41.58,-0.6
-2.833,-12.013,0.57205,-0.64416,0.13042,0.71441,-5.58,41.34,-0.42
-2.8603,-11.455,0.44947,-0.67531,0.78557,1.1396,-6.6,41.28,-0.18
-1.9205,-10.964,0.42223,-0.6463,1.0562,1.2813,-7.44,41.1,-0.06
-0.83084,-9.0303,0.5993,-0.44654,1.3741,1.5296,-8.52,40.8,0.36
-0.65378,-8.0632,0.53119,-0.24068,1.2755,1.6102,-8.82,40.74,0.84
-0.27241,-7.5321,0.21793,0.018021,1.0504,1.6093,-9.0,40.56,1.14
0.43585,-8.036,-0.83084,0.39645,0.53756,1.6105,-8.76,40.38,1.5
0.76274,-8.54,-1.0079,0.49755,0.38851,1.6704,-8.4,40.26,1.98
1.2803,-8.9894,-1.1986,0.67104,0.27703,1.8619,-7.98,40.26,2.16
1.7298,-9.3163,-0.96704,0.66798,0.40989,2.0134,-7.32,40.2,2.22
1.9613,-9.2891,-0.98067,0.62186,0.71563,2.1011,-6.6,40.26,2.34
2.8875,-8.9213,-1.4029,0.56505,1.0287,2.1841,-4.74,40.5,2.52
4.1814,-9.2482,-1.7434,0.50396,1.3372,2.1179,-3.48,40.56,2.52
5.0531,-9.6432,-2.2474,0.44318,1.325,2.0583,-1.14,40.62,2.64
5.7205,-10.011,-2.3427,0.28161,1.1005,1.836,0.06,40.74,2.58
6.4152,-10.324,-2.2882,0.15852,1.0602,1.5751,1.26,40.92,2.34
6.5786,-10.556,-2.1929,0.059254,1.1298,1.3509,3.96,40.98,2.04
6.5514,-10.447,-2.3427,-0.021075,1.2862,1.1527,5.28,41.04,1.92
6.5786,-9.7794,-2.3018,-0.065973,1.4972,0.97525,6.54,40.98,2.04
6.7693,-8.6625,-2.0839,-0.043371,1.6729,0.65943,9.06,40.86,1.5
6.5786,-7.6002,-1.866,0.033292,1.6078,0.43494,10.14,40.8,1.56
6.4697,-7.0962,-1.8115,0.15577,1.4242,0.24893,11.1,40.74,1.5
6.2109,-6.0066,-1.6617,0.3094,1.0999,0.1069,12.24,40.74,1.44
5.9249,-5.0531,-1.5391,0.50335,0.64874,-0.010385,13.74,40.62,1.62
5.7614,-5.5162,-1.471,0.73823,-0.11148,-0.019548,14.22,40.44,1.68
6.2926,-7.641,-1.1305,0.84116,-0.70585,0.056505,15.12,40.32,1.68
6.6195,-8.6762,-0.85808,0.86224,-1.346,0.093157,15.48,40.32,1.86
6.7421,-9.6704,-0.65378,0.7926,-1.8613,0.020464,15.84,40.08,1.86
6.3471,-12.967,-0.39499,0.63469,-2.1002,-0.22785,15.96,39.72,1.74
5.8976,-13.866,0.054481,0.40561,-2.0562,-0.65515,15.9,39.48,1.62
4.413,-13.974,0.99429,0.11118,-1.7529,-1.1041,15.6,39.36,1.14
4.0316,-12.926,0.92618,-0.15944,-1.3073,-1.518,15.42,39.18,0.96
3.6094,-11.863,0.47671,-0.31521,-0.90591,-1.9047,15.18,39.06,0.72
3.4732,-11.019,0.28603,-0.24465,-0.57696,-2.4062,14.76,38.88,0.6
3.3778,-10.161,0.095342,-0.12248,-0.57635,-2.6695,14.1,38.7,0.48
3.0646,-8.5127,-0.095342,-0.037263,-0.64568,-2.8097,12.54,38.4,-0.18
3.1327,-8.3629,-0.095342,0.035736,-0.94745,-2.8118,11.82,38.34,-0.54
3.1872,-8.6489,-0.054481,0.037568,-1.8576,-2.6838,9.78,38.16,-1.08
2.9556,-8.9758,-0.28603,-0.022297,-2.3729,-2.5525,8.7,37.98,-1.38
2.7513,-9.2891,-0.35413,-0.090408,-2.6661,-2.3069,7.38,37.86,-1.56
1.9613,-10.896,-0.21793,-0.15547,-2.6695,-2.0033,4.74,37.56,-1.86
1.5527,-11.605,0.027241,-0.24374,-2.386,-1.6558,3.42,37.38,-2.04
1.2531,-12.258,0.19068,-0.34117,-1.9587,-1.2978,1.98,37.2,-2.04
0.76274,-12.967,0.57205,-0.44104,-1.179,-0.66493,-0.54,36.72,-1.92
0.76274,-12.926,0.44947,-0.46181,-0.64416,-0.16218,-1.8,36.54,-1.98
0.99429,-12.667,0.39499,-0.45723,-0.4218,0.11301,-2.88,36.36,-1.86
1.2395,-12.381,0.50395,-0.47098,0.01405,0.83933,-4.32,36.06,-1.74
0.9398,-12.313,0.76274,-0.44318,0.20067,1.2272,-4.98,35.88,-1.56
0.72188,-12.122,0.89894,-0.43371,0.36805,1.5327,-5.64,35.64,-1.38
0.76274,-11.891,1.2258,-0.39737,0.69914,1.8344,-5.94,35.28,-0.9
1.0215,-11.019,1.2939,-0.31551,0.96639,1.8946,-6.12,34.98,-0.66
1.3212,-9.6977,1.1169,-0.18845,1.1558,1.8344,-6.12,34.98,-0.42
2.0567,-8.2676,0.24517,0.012828,1.1365,1.6799,-5.28,34.8,0.24
2.2882,-8.2676,-0.24517,0.20495,0.91355,1.5061,-4.74,34.92,0.6
2.4789,-8.431,-0.5993,0.36866,0.46884,1.2883,-3.54,34.98,1.14
2.4108,-8.3493,-0.8036,0.45173,0.35858,1.2385,-2.82,35.04,1.2
2.3427,-8.3084,-0.99429,0.40012,0.40287,1.248,-2.16,34.98,1.44
2.7104,-8.3765,-1.4165,0.28711,0.52962,1.2831,-1.38,35.04,1.56
3.228,-7.9543,-1.7434,0.14325,0.79901,1.252,0.18,35.1,1.86
3.3778,-7.2869,-2.1112,-0.019548,1.1643,1.1961,1.08,35.16,1.86
3.8546,-7.0009,-2.2474,-0.18876,1.4667,1.1243,2.1,35.16,2.16
4.985,-7.2596,-2.4108,-0.34575,1.7871,0.84055,3.66,35.4,2.46
5.1621,-7.355,-2.5606,-0.43524,1.8476,0.74006,4.62,35.46,2.58
5.4209,-7.2869,-2.6968,-0.47525,1.879,0.66401,5.4,35.46,2.82
5.8704,-7.2869,-2.8194,-0.47892,1.5663,0.43188,6.24,35.46,2.88
6.456,-8.3629,-2.3155,-0.43768,1.2272,0.39859,7.62,35.4,3.12
6.4016,-8.7034,-2.1929,-0.38912,1.036,0.4331,8.28,35.34,3.24
6.4424,-9.6977,-1.6753,-0.29108,1.0669,0.45082,9.54,35.28,3.72
6.5105,-9.8066,-1.0896,-0.24832,1.1344,0.42455,10.2,35.34,3.96
6.4969,-9.6023,-0.92618,-0.060781,1.3201,0.31032,11.04,35.22,4.14
6.4424,-8.7579,-0.64016,0.1292,1.3479,0.2532,11.82,35.1,4.62
6.4424,-8.2676,-0.47671,0.36194,1.1918,0.22358,12.3,34.98,4.86
6.6331,-8.826,-0.28603,0.57941,0.8375,0.26237,12.78,34.86,5.04
6.7829,-9.2482,-0.12258,0.76144,0.35797,0.31796,13.08,34.68,5.1
6.7693,-9.3436,-0.10896,0.88759,-0.25931,0.32345,13.26,34.62,5.1
6.6604,-10.229,-0.095342,0.93646,-1.3173,0.20006,13.5,34.38,5.22
6.3062,-11.046,0.12258,0.85094,-1.9062,0.039706,13.5,34.32,4.8
5.9112,-11.346,0.28603,0.71349,-2.3133,-0.1741,13.5,34.32,4.86
5.094,-11.455,0.6674,0.50549,-2.4535,-0.42241,13.56,34.14,4.38
4.3313,-10.542,0.8036,0.30971,-2.3091,-0.69119,13.86,33.96,4.14
3.8682,-9.9156,0.70826,0.14447,-2.0131,-0.99632,13.8,33.78,3.9
3.2825,-8.9622,0.38137,0.072998,-1.6927,-1.2773,13.38,33.54,3.24
2.8739,-8.4446,0.31327,0.065973,-1.4169,-1.5229,13.32,33.3,2.94
2.8058,-8.0905,0.17706,0.074526,-1.091,-1.7856,13.02,33.3,2.7
2.9556,-8.0224,0.31327,0.085521,-1.0232,-1.8839,12.3,33.06,1.98
2.9556,-8.322,0.38137,0.089797,-1.1332,-1.8967,11.76,32.94,1.68
2.7241,-8.8805,0.43585,0.092852,-1.2749,-1.8079,10.92,32.88,0.72
2.7104,-9.4525,0.44947,0.090408,-1.339,-1.7101,10.44,32.94,0.42
2.7786,-9.9973,0.58567,0.063225,-1.4432,-1.4615,9.96,32.94,0.18
2.6423,-11.237,0.89894,0.054672,-1.4481,-1.098,8.88,33.0,-0.36
1.9613,-11.673,0.7355,0.082467,-1.2703,-0.84696,8.16,33.24,-0.84
1.4301,-12.04,0.29965,0.088881,-1.0336,-0.51129,7.2,33.54,-1.5
0.99429,-13.184,0.095342,0.092852,-0.71532,0.025351,6.72,33.6,-1.86
1.0215,-13.321,0.040861,0.08491,-0.66248,0.21961,6.42,33.72,-2.1
1.0624,-13.348,0.01362,-0.048564,-0.56474,0.76175,6.06,33.9,-2.46
0.83084,-12.79,0.36775,-0.15027,-0.49633,0.97128,5.58,33.9,-2.82
0.39499,-11.114,0.39499,-0.2416,-0.41539,1.0776,5.46,34.14,-2.88
0.46309,-9.507,-0.14982,-0.18173,-0.20311,1.0653,5.58,34.44,-3.24
1.185,-8.3765,-0.50395,-0.019242,-0.20128,1.0064,5.64,34.62,-3.18
1.362,-8.7034,-0.83084,0.074526,-0.25137,0.96975,5.76,34.56,-3.3
1.4029,-9.0848,-0.89894,0.21808,-0.35888,0.86254,6.0,34.62,-3.36
1.8932,-9.9973,-1.1305,0.24709,-0.33567,0.72326,6.6,34.56,-3.3
2.152,-10.324,-1.185,0.18173,-0.26878,0.66248,6.96,34.38,-3.36
2.0839,-9.3708,-1.2939,0.086132,-0.093462,0.65882,7.26,34.2,-3.42
1.9886,-8.6353,-1.3757,-0.06017,0.29932,0.78191,8.1,34.14,-3.12
2.152,-7.7364,-1.2803,-0.087048,0.44838,0.83475,8.4,34.08,-3.0
2.3155,-7.3414,-1.2803,-0.18112,0.73976,1.007,8.88,34.08,-2.76
2.547,-6.7829,-1.4165,-0.21319,0.82375,1.0757,9.78,34.14,-2.4
2.547,-6.4152,-1.3484,-0.23366,0.87965,1.0886,10.32,33.96,-2.34
2.6968,-6.0202,-1.4301,-0.27733,0.92241,1.1215,10.92,33.96,-1.98
3.0101,-6.456,-1.3757,-0.32315,0.80512,1.1301,11.94,33.9,-1.68
2.9965,-6.9328,-1.4029,-0.37232,0.79015,1.1182,12.48,33.96,-1.56
3.2008,-7.5457,-1.3076,-0.39065,0.82894,1.1133,13.08,33.9,-1.38
4.2359,-9.6977,-1.58,-0.4496,1.0534,1.0421,14.34,33.9,-0.9
5.094,-10.828,-1.7843,-0.46242,1.1915,0.89644,14.94,33.96,-0.72
5.6388,-11.278,-2.1384,-0.4441,1.2672,0.69761,16.08,33.96,-0.36
5.6524,-10.855,-2.1929,-0.39462,1.2743,0.38118,16.56,33.96,-0.24
5.7478,-9.4934,-2.4517,-0.24282,1.0705,0.22846,17.7,33.9,0.36
5.9249,-8.9758,-2.4244,-0.092546,0.75808,0.080634,18.24,34.02,0.72
5.8704,-8.7987,-2.4517,-0.025962,0.56139,0.025045,18.84,33.9,1.02
5.7205,-9.0167,-2.2474,0.14722,-0.0036652,-0.05681,19.44,34.08,1.26
5.5162,-10.065,-1.7979,0.19303,-0.25015,-0.019853,20.04,34.08,1.56
5.3664,-11.141,-1.3348,0.16066,-0.30879,0.068417,20.22,34.14,1.8
4.9578,-10.324,-0.91256,0.089492,-0.13867,0.043982,20.64,34.2,2.04
4.9578,-10.324,-0.91256,0.050702,-0.033598,0.0027489,20.64,34.2,2.04
4.9987,-8.3765,-0.54481,-0.0562,0.085827,-0.22724,20.82,34.38,2.4
5.0259,-8.3493,-0.35413,-0.056505,-0.12248,-0.41722,21.0,34.44,2.64
5.2302,-9.4389,0.40861,-0.051618,-0.51679,-0.57696,21.18,34.68,3.06
5.1894,-9.8066,0.5993,-0.033903,-1.011,-0.75014,21.12,34.68,3.18
4.8625,-10.093,0.91256,-0.027184,-1.3961,-0.95509,21.06,34.86,3.12
3.514,-10.161,1.0215,-0.034208,-1.4612,-1.1774,20.76,35.1,2.94
3.0646,-9.7249,1.1441,-0.039095,-1.2,-1.3916,20.52,35.4,2.82
2.7377,-9.0439,1.0351,-0.033292,-0.58032,-1.6124,20.1,35.4,2.7
2.6423,-7.7364,0.88532,0.020159,-0.25901,-1.6784,19.5,35.52,2.46
2.7649,-7.1507,0.68102,0.093157,-0.16432,-1.6585,19.32,35.46,2.28
2.9829,-6.1973,0.47671,0.19242,-0.219,-1.6429,18.36,35.88,2.04
2.9284,-5.9112,0.31327,0.35186,-0.60567,-1.5586,17.7,36.0,1.86
2.8603,-5.8431,0.28603,0.44257,-0.94134,-1.4545,17.1,36.24,1.8
2.7104,-6.0202,0.14982,0.51252,-1.2892,-1.3051,15.48,36.72,1.44
2.8058,-6.3471,0.21793,0.55497,-1.6539,-1.1493,14.64,36.84,1.08
2.7377,-7.0145,0.31327,0.54672,-1.9166,-0.96089,13.2,37.32,0.66
2.8467,-8.8941,0.47671,0.4609,-1.916,-0.68356,12.24,37.44,0.36
2.7241,-9.7658,0.49033,0.3934,-1.7239,-0.49388,11.4,37.62,0.18
2.6015,-10.474,0.50395,0.28619,-1.4245,-0.3146,10.44,37.62,-0.12
2.7241,-11.291,0.28603,0.18204,-1.0388,-0.14447,8.94,37.86,-0.6
3.0237,-11.319,0.28603,0.09896,-0.6634,0.028711,8.16,38.16,-0.72
3.2825,-11.373,-0.49033,0.052229,-0.3821,0.18295,7.38,38.46,-0.9
3.3915,-11.536,-0.72188,0.0094684,-0.10537,0.39706,6.36,38.58,-1.38
3.5004,-12.081,-0.61292,-0.024129,0.025656,0.56719,5.82,38.64,-1.8
3.5685,-12.517,-0.58567,-0.061087,0.22266,0.7532,5.4,38.7,-1.98
3.3097,-11.346,-0.54481,-0.08491,0.47281,0.84025,4.98,38.7,-2.22
3.1599,-9.6568,-0.62654,-0.034514,0.7419,0.8546,4.86,38.76,-2.34
3.2416,-7.641,-0.72188,0.076969,0.88026,0.78435,4.86,38.82,-2.4
3.5685,-5.1213,-1.471,0.45601,0.50519,0.69547,5.04,38.7,-2.28
3.8954,-5.4073,-1.6072,0.59987,0.17959,0.71929,5.16,38.52,-2.16
4.522,-6.9191,-1.7025,0.85094,-0.63866,0.80879,5.4,38.46,-1.98
4.6037,-8.6081,-1.7706,1.0934,-1.9166,0.87812,6.06,38.58,-1.92
4.3858,-9.7385,-1.7025,1.0831,-2.4975,0.7871,6.42,38.46,-2.04
3.9227,-10.052,-1.5119,0.92577,-2.7495,0.58002,6.72,38.58,-2.1
2.6151,-10.038,-0.9398,0.52229,-2.3787,0.24465,7.38,38.76,-2.52
1.8524,-9.8339,-0.69464,0.19823,-1.6212,0.11881,7.8,38.76,-2.52
1.7298,-9.4798,-0.76274,0.058948,-1.2101,0.10446,8.1,38.64,-2.82
2.3018,-9.6023,-0.65378,-0.23885,-0.19975,0.14111,8.7,38.82,-3.3
2.6696,-9.7249,-0.55843,-0.30543,0.28161,0.19334,8.88,38.82,-3.42
2.9011,-9.793,-0.50395,-0.28772,0.58918,0.25015,9.0,38.88,-3.72
3.6366,-9.1256,-0.01362,-0.14997,0.66218,0.38882,9.36,39.12,-4.38
3.909,-8.5808,-0.01362,-0.016799,0.36346,0.47647,9.66,39.36,-4.62
4.0861,-8.1041,-0.027241,0.11912,-0.12156,0.56139,9.72,39.42,-5.04
4.4266,-7.8045,-0.21793,0.24404,-0.74739,0.64141,9.78,39.48,-5.34
4.6445,-7.7091,-0.43585,0.3485,-1.4099,0.66859,9.84,39.66,-5.52
4.5901,-7.464,-0.54481,0.4273,-2.0024,0.66309,9.96,39.6,-5.58
4.522,-7.2733,-0.88532,0.46029,-2.5797,0.54367,9.96,39.6,-5.7
4.4266,-7.1371,-0.9398,0.40959,-2.7483,0.41172,10.08,39.66,-5.82
4.3177,-7.1507,-0.83084,0.31398,-2.7214,0.2697,10.02,39.78,-6.0
3.9227,-7.6002,-0.6674,0.17562,-2.4752,0.1405,10.02,39.9,-6.3
3.8682,-7.927,-0.50395,0.03543,-2.0296,0.067501,9.96,39.96,-6.6
3.9635,-8.322,-0.24517,-0.055589,-1.503,0.033903,9.84,39.96,-6.78
4.7399,-9.2346,0.28603,-0.1405,-0.84422,0.026878,9.54,39.9,-7.5
4.9578,-9.6841,0.51757,-0.13928,-0.60934,-0.045509,9.24,39.9,-7.92
5.0259,-10.256,0.74912,-0.11637,-0.51404,-0.11057,8.94,39.96,-8.22
5.8976,-13.947,1.9477,-0.086743,-0.52809,-0.091324,8.52,40.14,-9.0
6.0202,-14.819,2.547,-0.012217,-0.59743,-0.13867,8.4,40.08,-9.3
5.9112,-14.179,2.7104,0.097738,-0.71471,-0.28436,8.04,40.14,-9.66
5.4345,-11.196,2.0294,0.40439,-1.1567,-0.69272,7.14,40.26,-10.26
5.0668,-10.311,1.8932,0.62369,-1.7098,-1.0134,6.66,40.2,-10.56
4.9714,-10.311,2.0158,0.72265,-2.0748,-1.131,6.3,40.2,-10.86
4.9714,-11.223,2.3836,0.90866,-3.2083,-1.3186,5.76,40.2,-11.16
4.8897,-12.449,3.1191,0.9447,-3.8885,-1.3803,4.14,40.14,-11.82
4.0861,-12.286,3.1599,0.91355,-4.2669,-1.47,3.18,40.14,-12.12
3.1191,-11.536,2.8875,0.83872,-4.2632,-1.6005,2.16,39.96,-12.18
2.3972,-9.7522,2.4653,0.75106,-4.021,-1.7257,-0.12,39.66,-12.6
2.3427,-9.5751,2.152,0.64721,-3.4062,-1.8253,-1.26,39.3,-12.6
2.5061,-9.3844,2.0975,0.62156,-3.2254,-1.824,-2.64,38.82,-12.72
2.8739,-8.9213,2.1793,0.52168,-2.9676,-1.7706,-5.88,37.8,-12.96
3.1191,-9.2755,2.4517,0.43921,-3.0204,-1.6582,-7.5,37.2,-12.96
3.0373,-9.4253,2.656,0.33231,-3.1728,-1.5382,-9.12,36.54,-12.78
2.6423,-9.7658,2.9829,0.1518,-3.2132,-1.336,-12.24,35.34,-12.42
2.5334,-9.5751,2.9011,0.044899,-3.0415,-1.1897,-13.92,34.8,-12.12
2.438,-9.3708,2.9011,-0.034208,-2.7205,-1.054,-15.48,34.14,-11.76
2.2882,-9.3436,2.3836,-0.080023,-2.2886,-0.91569,-18.36,32.64,-10.8
2.4244,-9.5751,2.3018,-0.11332,-1.8619,-0.77091,-19.44,31.92,-10.38
2.5061,-9.6432,2.2474,-0.12004,-1.4203,-0.63958,-20.58,31.38,-9.96
2.4517,-9.9701,1.9341,-0.09896,-0.87048,-0.43249,-22.5,30.3,-9.06
2.6287,-10.501,1.7434,-0.058338,-0.61423,-0.27306,-23.28,29.82,-8.58
2.9829,-11.359,1.6208,0.036041,-0.53634,-0.12553,-23.88,29.58,-8.1
3.1599,-12.79,1.2258,0.13836,-0.52962,0.090103,-25.02,29.1,-7.08
3.5685,-13.797,0.8036,0.25931,-0.58613,0.34056,-25.38,28.86,-6.9
3.7184,-14.356,0.27241,0.40959,-0.75136,0.59284,-25.68,28.68,-6.72
3.2553,-15.159,-0.23155,0.63225,-1.0733,0.91569,-26.04,28.62,-6.42
3.0237,-15.187,-0.50395,0.73029,-1.1664,1.0495,-26.04,28.44,-6.18
2.6423,-14.547,-0.85808,0.77183,-1.1671,1.0721,-26.16,28.32,-6.12
1.5119,-11.346,-1.9886,0.77519,-1.0473,1.0501,-25.92,28.44,-5.88
0.8717,-9.4117,-2.3699,0.74556,-0.89553,0.91111,-25.92,28.5,-5.88
0.28603,-7.7636,-2.7649,0.73915,-0.73182,0.73793,-25.74,28.56,-5.94
0.081722,-6.2517,-3.5958,0.72754,-0.61972,0.59865,-25.2,28.68,-5.76
-0.095342,-6.4152,-3.6094,0.68081,-0.59254,0.5849,-24.96,28.86,-5.76
-0.027241,-7.9679,-3.1599,0.61331,-0.52321,0.58124,-24.78,28.92,-5.82
0.53119,-9.902,-2.3972,0.48869,-0.32406,0.64263,-23.88,29.04,-5.82
1.1577,-9.9429,-2.0839,0.18937,0.22144,0.72235,-23.52,29.1,-5.76
1.1577,-9.9429,-2.0839,0.13531,0.44043,0.7028,-23.52,29.1,-5.76
1.1577,-9.9429,-2.0839,0.12492,0.48991,0.67989,-23.52,29.1,-5.76
1.1577,-9.9429,-2.0839,0.15455,0.3992,0.63927,-23.52,29.1,-5.76
1.1577,-9.9429,-2.0839,0.15455,0.3992,0.63927,-23.52,29.1,-5.76
2.9556,-7.5321,-1.6481,0.18387,0.13011,0.60353,-23.16,29.16,-5.7
3.0237,-7.2733,-1.5255,0.18937,-0.053756,0.54581,-22.38,29.28,-5.82
3.1191,-7.2869,-1.6072,0.18784,-0.28558,0.48655,-20.52,29.7,-5.94
3.0101,-7.3141,-1.757,0.19028,-0.44532,0.41325,-19.68,29.94,-6.06
2.833,-7.3141,-1.866,0.15913,-0.40592,0.28161,-18.06,30.36,-6.42
2.9965,-7.7227,-1.9477,0.13775,-0.35919,0.14416,-16.44,30.66,-6.66
3.1327,-8.2539,-1.9341,0.094379,-0.3485,0.0058032,-14.94,31.14,-7.02
3.2553,-8.8805,-1.866,0.04948,-0.30238,-0.13683,-13.26,31.26,-7.32
3.2961,-9.5206,-1.7979,0.015577,-0.18815,-0.2642,-12.12,31.56,-7.74
3.2144,-9.5751,-1.6344,-0.0061087,-0.01069,-0.40103,-10.74,31.8,-8.04
3.2961,-9.507,-1.4301,0.026267,0.26634,-0.62247,-10.5,31.8,-8.16
3.5822,-9.2346,-1.2258,0.097738,0.37263,-0.73365,-10.08,31.62,-8.28
3.7865,-9.4117,-1.1169,0.18051,0.33689,-0.79015,-9.78,31.56,-8.64
4.1542,-11.359,-0.72188,0.2529,0.18692,-0.75136,-9.6,31.5,-9.06
4.3177,-12.544,-0.47671,0.28833,0.037568,-0.62583,-9.48,31.2,-9.24
4.413,-13.157,-0.095342,0.28344,-0.025045,-0.48106,-9.66,30.9,-9.66
4.3449,-12.04,0.12258,0.25351,0.035125,-0.31765,-9.48,30.54,-10.02
4.2904,-11.155,0.14982,0.28161,-0.012217,-0.31337,-9.6,30.48,-10.14
4.3858,-10.12,0.12258,0.33781,-0.23824,-0.35247,-9.72,30.42,-10.38
4.5764,-9.902,0.068102,0.45326,-0.66798,-0.41783,-9.84,30.0,-11.1
4.699,-10.161,-0.095342,0.56169,-1.2489,-0.48961,-10.08,29.46,-11.58
4.6582,-10.624,0.19068,0.60079,-1.8601,-0.59743,-10.26,28.98,-11.88
4.0044,-10.488,0.38137,0.52931,-2.412,-0.85888,-10.68,28.5,-12.12
3.2825,-10.243,0.49033,0.40042,-2.438,-1.0354,-11.34,27.96,-12.36
2.6423,-10.065,0.38137,0.25381,-2.219,-1.186,-12.18,27.42,-12.66
2.0567,-9.6704,0.40861,0.1066,-1.9163,-1.2846,-12.9,26.82,-12.66
1.6889,-9.1937,0.54481,0.0045815,-1.5614,-1.3515,-13.62,26.16,-12.6
1.2258,-9.0303,0.61292,-0.064141,-1.2281,-1.3106,-14.52,25.5,-12.48
0.96704,-8.8396,0.44947,-0.089492,-0.9783,-1.1912,-15.72,25.02,-12.3
0.6674,-9.0575,0.38137,-0.06689,-0.79932,-0.86651,-17.22,24.66,-12.3
0.40861,-9.6841,0.40861,-0.027794,-0.79443,-0.562,-18.24,24.24,-12.3
0.29965,-10.488,0.53119,-0.014966,-0.77,-0.23305,-19.38,23.88,-12.3
0.12258,-11.06,0.58567,-0.000916,-0.68264,0.085521,-19.98,23.76,-12.12
0.27241,-11.414,0.62654,-0.014661,-0.5565,0.36224,-20.7,23.58,-12.12
0.12258,-11.414,0.55843,-0.036652,-0.44715,0.59987,-21.24,23.58,-12.18
-0.068102,-11.387,0.24517,-0.049786,-0.44104,0.86254,-21.6,23.64,-12.0
-0.095342,-11.686,0.32689,-0.080023,-0.39279,0.97464,-21.78,23.94,-11.94
-0.20431,-11.645,0.27241,-0.13134,-0.21075,1.0168,-21.6,24.3,-11.58
-0.46309,-11.182,0.28603,-0.19975,0.11515,1.0266,-21.54,24.6,-11.7
-0.20431,-10.379,0.24517,-0.26756,0.53237,1.0058,-20.94,25.02,-11.4
0.31327,-9.5479,-0.14982,-0.28375,0.93279,0.93096,-20.64,25.5,-11.28
0.96704,-9.0167,-0.65378,-0.17868,1.1781,0.78221,-20.16,26.1,-11.1
1.0488,-9.0439,-0.83084,-0.040928,1.087,0.73426,-19.8,26.16,-11.04
1.5663,-9.398,-1.2803,0.093768,0.92302,0.6915,-19.68,26.82,-11.1
2.0839,-9.0575,-1.6889,0.18357,0.76236,0.65546,-19.08,27.3,-11.16
2.2065,-8.6353,-1.8932,0.20953,0.63805,0.61758,-18.3,27.6,-11.28
2.3155,-8.4582,-1.9341,0.1741,0.55008,0.59895,-17.94,27.78,-11.04
2.547,-8.0224,-1.9068,0.072388,0.5342,0.61239,-16.56,28.14,-10.98
2.5061,-7.8726,-1.8796,0.0027489,0.56902,0.65363,-16.02,28.2,-10.98
2.4789,-7.3958,-1.7979,-0.066279,0.66554,0.69211,-15.42,28.38,-10.86
2.4789,-7.3958,-1.7979,-0.13164,0.79748,0.72449,-15.42,28.38,-10.86
2.4789,-7.3958,-1.7979,-0.18509,0.92363,0.73426,-15.42,28.38,-10.86
2.9556,-6.7285,-1.58,-0.21686,1.0156,0.73121,-14.1,28.8,-11.16
3.228,-6.8374,-1.6208,-0.21075,1.0828,0.71532,-12.54,29.22,-11.16
3.8546,-7.5593,-1.58,-0.17746,1.033,0.68478,-11.22,29.7,-11.52
4.0452,-8.9758,-1.7706,-0.146,0.9108,0.63927,-10.02,30.3,-11.82
4.0861,-9.9429,-2.0158,-0.10568,0.78435,0.5962,-8.94,30.72,-12.18
4.2223,-10.229,-2.0567,-0.06689,0.71196,0.57666,-8.4,30.96,-12.36
4.5492,-10.256,-1.975,-0.038485,0.62278,0.60873,-7.2,31.38,-12.84
4.5492,-10.079,-1.9613,0.071166,0.44104,0.61423,-6.6,31.62,-13.08
4.5901,-9.7385,-2.0839,0.15821,0.33048,0.56963,-5.7,32.28,-13.92
4.6037,-9.4934,-1.975,0.25351,0.26664,0.46853,-5.04,32.64,-14.04
4.699,-9.8339,-1.8387,0.33384,0.21869,0.36041,-4.68,33.12,-14.34
4.9987,-10.733,-1.5663,0.36835,0.12675,0.27794,-3.84,33.12,-14.64
5.1213,-11.032,-1.3893,0.36469,0.015272,0.22999,-3.54,33.12,-14.7
5.1076,-11.25,-1.1577,0.32773,-0.091324,0.21441,-2.94,33.24,-14.94
5.1213,-10.651,-0.83084,0.22541,-0.21289,0.095906,-2.58,33.42,-15.24
5.2711,-10.079,-0.72188,0.17226,-0.33292,-0.10079,-2.64,33.36,-15.66
5.38,-10.093,-0.55843,0.12004,-0.54214,-0.33139,-2.4,33.36,-15.78
5.4618,-10.569,-0.40861,0.092241,-0.82742,-0.59254,-2.1,33.06,-16.08
5.3119,-11.278,-0.14982,0.059865,-1.1567,-0.8772,-2.58,32.76,-16.62
4.7671,-11.536,0.27241,0.01405,-1.4371,-1.1912,-3.6,32.76,-16.68
4.0997,-11.509,0.53119,-0.098044,-1.5085,-1.6503,-4.68,32.7,-16.98
3.5413,-11.25,0.54481,-0.17074,-1.3506,-1.9239,-6.12,32.4,-17.16
3.1599,-10.706,0.54481,-0.23335,-1.1057,-2.1267,-7.92,32.16,-17.34
2.9965,-10.065,0.31327,-0.26756,-0.85918,-2.2849,-9.66,31.74,-17.34
2.8467,-9.3163,0.14982,-0.27184,-0.68814,-2.4038,-11.82,31.44,-17.46
2.9011,-8.7579,0.01362,-0.24679,-0.66309,-2.4474,-14.4,30.84,-17.46
2.9965,-8.6489,-0.081722,-0.18204,-0.92454,-2.3934,-15.48,30.72,-17.58
3.0646,-9.0031,-0.28603,-0.12981,-1.2605,-2.2678,-17.46,30.18,-17.46
2.6696,-9.4661,-0.31327,-0.10476,-1.6664,-2.0565,-19.5,29.52,-17.58
2.0975,-10.243,-0.054481,-0.1066,-1.916,-1.7816,-21.3,28.92,-17.58
1.4574,-11.032,-0.027241,-0.1127,-2.047,-1.4239,-23.22,28.26,-17.1
1.1441,-10.815,-0.14982,-0.11881,-1.9908,-1.0803,-24.06,27.96,-16.74
0.12258,-10.365,-0.25879,-0.16005,-1.6787,-0.70005,-25.8,27.54,-16.32
0.027241,-10.719,-0.081722,-0.22388,-1.0455,-0.12339,-27.42,27.06,-15.9
0.081722,-10.951,-0.081722,-0.26084,-0.62369,0.24007,-28.2,26.88,-15.42
0.28603,-11.509,0.027241,-0.31796,-0.31857,0.55589,-29.46,26.52,-14.7
0.39499,-12.395,0.27241,-0.3711,-0.083078,0.80573,-30.24,26.28,-14.04
0.17706,-12.572,0.6674,-0.43097,0.20342,0.9838,-30.9,26.28,-12.96
0.16344,-12.027,0.68102,-0.49388,0.56169,1.0971,-31.08,26.34,-12.54
0.6674,-9.9156,0.40861,-0.46945,0.91813,1.109,-31.14,26.58,-12.18
1.1577,-8.826,-0.32689,-0.27947,1.1472,1.0357,-31.32,27.06,-11.82
1.4301,-8.6898,-0.6674,-0.0956,1.0189,0.95203,-31.2,27.06,-11.4
1.6753,-9.1256,-0.8036,0.080329,0.79779,0.89828,-30.78,27.6,-11.34
1.8387,-9.4798,-1.0079,0.20159,0.63622,0.91172,-30.0,28.32,-11.34
2.0294,-9.1937,-1.2667,0.25412,0.58368,0.9728,-29.28,28.92,-11.4
2.0294,-9.1937,-1.2667,0.2587,0.57452,1.0247,-29.28,28.92,-11.4
2.2882,-8.2948,-1.6072,0.25656,0.63958,1.248,-28.14,29.7,-11.4
2.4653,-7.927,-1.7843,0.25045,0.71441,1.3442,-27.18,30.36,-11.34
2.6151,-7.5184,-1.8524,0.21625,0.79962,1.4416,-26.34,30.84,-11.4
2.6423,-7.3958,-1.7979,0.17135,0.86468,1.5192,-25.74,30.96,-11.46
2.6015,-6.96,-1.7843,0.10324,0.95814,1.576,-24.42,31.68,-11.7
2.833,-6.4969,-1.7025,-0.018937,1.189,1.6069,-22.68,32.34,-11.7
3.0237,-6.5378,-1.7706,-0.068722,1.2795,1.5815,-22.02,32.82,-11.7
3.6094,-6.8647,-1.7706,-0.11087,1.2807,1.5064,-20.52,33.24,-12.06
3.8273,-7.2188,-1.6753,-0.1347,1.2562,1.4096,-18.6,33.84,-12.3
4.2087,-7.8726,-1.7025,-0.15485,1.2407,1.3051,-16.98,34.62,-12.6
4.3721,-8.5127,-1.7298,-0.16493,1.1973,1.2214,-15.96,34.86,-12.84
4.5901,-9.8611,-1.7298,-0.18723,1.2236,1.1252,-14.16,35.58,-13.2
4.8352,-11.114,-1.7162,-0.20067,1.325,1.0455,-12.36,36.3,-13.56
5.2302,-11.4,-1.58,-0.15608,1.4481,0.93982,-10.68,36.78,-13.86
5.7205,-11.196,-1.6072,-0.018326,1.321,0.84666,-10.02,37.08,-14.04
6.3607,-10.474,-2.0703,0.19273,0.85338,0.73487,-8.46,37.5,-14.4
6.1292,-10.501,-2.1929,0.44471,0.15821,0.5901,-7.2,38.04,-14.52
5.8976,-11.141,-2.0022,0.6634,-0.77122,0.39645,-6.12,38.34,-14.76
5.6252,-12.027,-1.7434,0.68936,-1.0244,0.31398,-5.64,38.46,-15.0
5.3119,-12.98,-1.4846,0.61911,-0.93004,0.24801,-4.86,38.82,-15.18
5.1894,-12.967,-1.3757,0.47373,-0.56077,0.1631,-4.5,38.88,-15.36
5.3528,-11.645,-1.1986,0.31307,-0.16035,-0.0076358,-3.84,38.94,-15.66
5.5843,-9.9565,-1.1577,0.21747,0.038485,-0.29719,-3.66,38.82,-15.96
5.5162,-9.221,-1.2258,0.15455,-0.061392,-0.63072,-3.54,38.7,-16.26
5.5299,-9.3436,-0.88532,0.13164,-0.45357,-0.94226,-3.54,38.7,-16.62
5.4481,-10.12,-0.6674,0.089797,-1.2226,-1.2767,-3.66,38.64,-16.98
5.094,-10.883,-0.49033,0.047953,-1.5727,-1.4548,-3.9,38.52,-17.04
4.2087,-10.896,-0.10896,-0.049175,-1.6539,-1.6209,-4.5,38.34,-17.34
3.8273,-10.515,-0.054481,-0.14966,-1.5052,-1.7565,-5.04,38.04,-17.4
3.5685,-10.025,-0.095342,-0.30543,-1.2187,-1.9667,-5.82,37.98,-17.46
3.1599,-9.4117,-0.14982,-0.37751,-1.0205,-2.0959,-6.66,37.8,-17.4
2.6151,-8.5944,-0.23155,-0.43127,-0.81673,-2.1915,-8.46,37.02,-17.46
2.6968,-7.9679,-0.21793,-0.46823,-0.67776,-2.2413,-9.66,36.72,-17.58
2.8058,-7.4503,-0.24517,-0.47098,-0.6524,-2.248,-12.0,36.18,-17.64
2.8058,-7.4503,-0.34051,-0.46884,-0.88087,-2.2077,-13.32,35.94,-17.46
2.7649,-8.4991,-0.42223,-0.42852,-1.1451,-2.1221,-16.2,35.16,-17.28
2.5606,-9.4525,-0.31327,-0.44257,-1.3867,-1.9532,-17.64,34.56,-17.28
2.2882,-10.597,-0.38137,-0.45968,-1.4645,-1.8515,-19.2,34.08,-16.98
1.9068,-11.891,-0.36775,-0.57391,-1.3815,-1.4548,-20.7,33.54,-17.04
1.3212,-13.62,-0.14982,-0.69516,-1.0443,-1.1784,-23.52,32.58,-16.68
0.92618,-13.934,-0.081722,-0.86529,-0.26206,-0.79107,-24.9,32.16,-16.56
0.88532,-13.484,-0.027241,-0.89003,0.029016,-0.63652,-25.98,31.68,-16.38
1.5391,-12.286,-0.31327,-0.85674,0.46853,-0.33109,-28.02,30.96,-16.32
1.8387,-11.836,-0.64016,-0.75106,0.57269,-0.022297,-28.98,30.6,-16.08
1.9886,-11.863,-0.76274,-0.49908,0.21625,0.48258,-29.64,30.24,-15.9
1.7979,-11.836,-0.61292,-0.37935,-0.035736,0.80237,-31.08,29.7,-15.48
1.4438,-11.509,-0.42223,-0.2529,-0.067806,1.2434,-31.56,29.52,-15.3
1.4846,-9.7658,-0.57205,-0.20495,0.010385,1.3439,-32.16,29.52,-14.76
1.5255,-8.0088,-1.2803,-0.05681,0.17196,1.4138,-32.34,29.46,-14.46
1.6072,-7.355,-1.7298,0.12034,0.2306,1.3781,-32.34,29.64,-14.22
1.6344,-7.2733,-2.0022,0.33842,0.077885,1.233,-32.22,29.88,-13.92
1.757,-8.322,-1.8932,0.3989,-0.020159,1.1417,-31.86,30.42,-13.44
1.7979,-8.9894,-1.6072,0.37049,-0.043066,1.1564,-31.5,30.72,-13.14
1.9341,-9.3844,-1.6072,0.30391,0.016188,1.1823,-31.14,31.02,-13.08
2.0567,-8.6898,-1.4982,0.19731,0.33628,1.2996,-30.78,31.56,-12.72
2.0839,-8.322,-1.5663,0.16829,0.60873,1.357,-30.24,32.04,-12.6
2.2337,-7.6546,-1.58,0.16768,0.85155,1.401,-29.58,32.58,-12.48
2.6423,-6.7693,-1.4846,0.18876,0.97341,1.4267,-28.2,33.6,-12.06
2.7786,-6.7012,-1.5391,0.21869,0.97158,1.4514,-27.36,34.2,-11.82
2.9011,-6.674,-1.5391,0.24679,0.87506,1.5064,-25.56,35.28,-11.64
3.2825,-6.8919,-1.6344,0.26481,0.78343,1.5226,-24.66,35.76,-11.64
3.3506,-7.0826,-1.8524,0.28222,0.68509,1.5098,-23.64,36.3,-11.58
3.4051,-7.2733,-1.9886,0.29535,0.64538,1.5046,-22.62,36.84,-11.76
3.9227,-9.0575,-2.2474,0.31001,0.57024,1.4673,-20.64,37.74,-11.88
3.909,-9.7385,-2.2065,0.31154,0.58399,1.456,-19.5,38.16,-12.12
3.9908,-10.665,-2.152,0.29322,0.73395,1.4371,-18.42,38.7,-12.48
4.3177,-10.964,-2.1793,0.25992,0.90408,1.423,-16.08,39.3,-12.96
4.3177,-10.719,-2.1248,0.27855,1.0968,1.3702,-14.94,39.72,-13.14
4.4675,-10.542,-2.0294,0.35094,1.3024,1.2788,-13.8,40.14,-13.38
5.0531,-10.542,-1.9886,0.44288,1.2236,1.212,-11.46,40.92,-14.16
5.5435,-11.591,-1.8387,0.51985,0.97128,1.1787,-10.26,40.98,-14.46
5.9249,-12.122,-1.5663,0.57513,0.65027,1.1393,-8.04,41.52,-15.12
5.993,-11.359,-1.3484,0.56047,0.15027,0.93462,-7.02,41.58,-15.42
6.0611,-11.073,-1.1577,0.48411,-0.15852,0.67409,-6.0,41.76,-15.9
5.9793,-11.005,-1.0351,0.37415,-0.42486,0.31154,-5.04,41.82,-16.2
5.489,-10.801,-0.54481,0.27061,-0.69547,-0.10782,-3.18,42.0,-16.86
5.2847,-10.896,-0.34051,0.17685,-0.96242,-0.50702,-2.58,42.0,-17.04
4.8761,-11.536,-0.12258,0.072693,-1.2682,-1.1078,-1.44,42.0,-17.7
4.4947,-11.21,-0.040861,0.051313,-1.3241,-1.5088,-1.02,42.06,-18.0
4.1814,-10.883,-0.040861,0.025962,-1.2883,-1.8662,-0.9,41.82,-18.36
3.514,-9.9292,0.1362,-0.007025,-1.1704,-2.124,-1.26,41.64,-18.78
3.4051,-9.4798,0.20431,-0.043677,-1.0653,-2.3265,-1.5,41.46,-18.96
3.2825,-9.0848,0.14982,-0.05681,-1.0531,-2.4923,-2.04,41.34,-19.08
2.942,-8.1313,-0.027241,-0.074526,-1.1768,-2.6447,-3.84,40.86,-19.56
2.8467,-7.8726,-0.040861,-0.093157,-1.2895,-2.6591,-4.74,40.68,-19.8
2.7786,-7.8045,0.027241,-0.10537,-1.3656,-2.6362,-6.0,40.32,-19.92
2.6287,-8.4855,-0.095342,-0.14691,-1.6179,-2.5235,-9.06,39.66,-20.22
2.4789,-8.826,-0.027241,-0.18967,-1.7055,-2.3509,-10.68,39.24,-20.34
2.3018,-9.6977,-0.10896,-0.2419,-1.6961,-2.1338,-12.42,38.76,-20.46
2.152,-11.523,-0.14982,-0.35339,-1.5446,-1.69,-16.32,37.92,-20.4
1.9341,-13.443,0.16344,-0.45845,-1.3491,-1.3323,-18.24,37.44,-20.34
1.7706,-14.124,0.44947,-0.56536,-1.0531,-0.94531,-20.04,37.08,-20.28
0.57205,-13.866,0.64016,-0.65332,-0.62247,-0.5736,-23.58,36.12,-20.34
0.054481,-12.994,0.65378,-0.69242,-0.30543,-0.23213,-25.26,35.76,-20.22
-0.27241,-12.476,0.43585,-0.65149,-0.097128,0.082467,-26.94,35.46,-20.1
-0.62654,-12.177,0.31327,-0.46731,-0.049786,0.57879,-29.46,35.1,-19.68
-0.69464,-12.503,0.65378,-0.36194,-0.030238,0.93432,-30.72,35.04,-19.5
-0.72188,-12.694,0.95342,-0.31276,0.027184,1.1102,-31.74,35.04,-19.2
-0.44947,-11.904,1.1305,-0.1573,0.23763,1.6393,-32.94,35.28,-18.72
-0.054481,-10.692,0.95342,-0.0051924,0.35919,1.8741,-33.48,35.58,-18.54
0.34051,-9.5615,0.42223,0.21136,0.34422,1.9801,-33.6,35.94,-18.12
0.99429,-8.6353,-0.44947,0.44257,0.015272,2.0165,-33.48,36.72,-17.7
1.6344,-9.221,-0.50395,0.72052,-0.27397,1.989,-33.06,37.2,-17.28
1.757,-9.6023,-0.64016,0.80787,-0.42302,1.9105,-32.58,37.74,-16.98
1.9477,-10.093,-0.96704,0.79718,-0.40867,1.8521,-31.38,39.06,-16.38
2.2201,-9.7249,-1.0488,0.72418,-0.24557,1.766,-30.72,39.66,-16.08
2.2746,-9.2074,-1.2258,0.60842,-0.0024435,1.6616,-29.76,40.14,-15.78
2.3155,-8.1722,-1.7298,0.49572,0.31032,1.5247,-27.78,41.16,-15.18
2.4517,-7.8045,-1.9886,0.32498,0.80451,1.3369,-26.64,41.64,-14.94
2.5879,-7.355,-2.0839,0.19945,1.0635,1.2346,-25.38,42.18,-14.76
2.833,-6.4424,-2.0022,0.077274,1.2007,1.1222,-22.92,43.14,-14.46
2.8467,-6.3607,-2.0567,-0.045204,1.2859,1.0024,-21.6,43.5,-14.4
3.0237,-6.4833,-2.0567,-0.13347,1.2923,0.90164,-20.34,43.92,-14.4
3.3234,-7.3414,-2.1929,-0.21991,1.299,0.76419,-17.94,44.82,-14.34
3.5958,-7.641,-2.3427,-0.29596,1.3277,0.56597,-16.74,45.12,-14.4
3.7728,-8.2131,-2.2882,-0.33231,1.3357,0.45235,-15.54,45.42,-14.34
4.4675,-10.12,-1.9886,-0.35919,1.368,0.40928,-13.2,46.08,-14.46
4.9169,-10.801,-1.9341,-0.32834,1.4615,0.35461,-12.06,46.26,-14.52
5.4481,-10.529,-1.7706,-0.24526,1.5159,0.25351,-11.04,46.56,-14.7
5.9657,-9.6841,-1.757,-0.13073,1.4019,0.14844,-9.18,47.16,-15.12
6.1836,-9.507,-1.7162,0.12798,0.94012,-0.029627,-8.46,47.4,-15.3
6.4424,-9.8066,-1.5119,0.30055,0.44563,-0.10324,-7.68,47.76,-15.48
6.8919,-11.754,-1.0351,0.36469,0.17837,-0.1182,-6.54,48.18,-15.78
6.7966,-11.822,-0.83084,0.48136,-0.5058,-0.23182,-6.18,48.42,-15.96
6.3471,-10.924,-0.8717,0.49419,-0.81825,-0.39981,-5.88,48.42,-16.2
5.9521,-10.283,-0.64016,0.45051,-1.051,-0.63469,-5.34,48.6,-16.56
5.9657,-10.774,-0.44947,0.39034,-1.434,-0.95081,-5.4,48.72,-16.92
5.8567,-11.496,-0.28603,0.27397,-1.5861,-1.0641,-5.58,48.78,-17.16
5.3937,-12.108,-0.28603,0.037874,-1.8668,-1.4245,-5.82,48.78,-17.46
4.2359,-11.891,0.47671,-0.16585,-1.7297,-1.6857,-6.9,48.84,-17.88
3.7184,-11.25,0.58567,-0.32467,-1.4175,-1.9652,-7.74,48.96,-18.06
3.3506,-10.597,0.64016,-0.43188,-1.0504,-2.2309,-8.76,48.9,-18.18
2.8194,-8.9894,0.49033,-0.43524,-0.57391,-2.5659,-11.34,48.48,-18.36
2.6832,-8.4038,0.40861,-0.37049,-0.39492,-2.6704,-12.9,48.18,-18.36
2.9284,-7.9679,0.36775,-0.25473,-0.42089,-2.7077,-14.58,47.94,-18.54
2.8603,-7.2596,0.49033,-0.14355,-0.61606,-2.7257,-18.72,47.16,-18.54
2.8467,-7.1507,0.70826,-0.047647,-0.95264,-2.6664,-20.82,46.74,-18.42
2.6968,-7.6002,0.74912,0.040317,-1.3363,-2.5409,-23.1,46.32,-18.36
2.6015,-8.6353,0.61292,0.087659,-1.7061,-2.2101,-28.14,45.06,-18.06
2.4244,-9.1665,0.51757,0.1295,-2.1344,-1.9306,-30.78,44.28,-17.82
2.0839,-9.9292,0.49033,0.10629,-2.164,-1.5947,-33.54,43.32,-17.28
1.6889,-12.258,0.50395,0.077274,-2.0174,-1.2101,-38.4,41.16,-16.2
1.471,-13.348,0.38137,0.068417,-1.7501,-0.75931,-40.98,40.02,-15.6
1.1986,-13.92,0.23155,0.058338,-1.3662,-0.21716,-43.2,38.82,-14.82
0.40861,-13.893,-0.14982,0.054672,-0.70005,0.6579,-47.34,36.6,-13.2
0.1362,-13.375,-0.40861,0.080023,-0.33995,1.1912,-49.2,35.64,-12.42
0.095342,-12.926,-0.44947,0.082467,-0.099266,1.6545,-50.82,34.68,-11.46
0.68102,-12.694,-0.35413,0.093157,0.039095,2.0369,-52.02,33.84,-10.44
1.0215,-12.721,-0.14982,0.11698,0.068111,2.3463,-53.76,32.76,-8.58
1.4165,-12.34,-0.095342,0.1909,0.027794,2.594,-54.3,32.4,-7.56
1.9205,-11.087,-0.69464,0.39981,-0.13164,2.6915,-54.72,32.28,-5.7
2.2337,-8.6489,-0.96704,0.50305,-0.25443,2.6533,-54.42,32.46,-4.98
2.1929,-8.322,-1.6481,0.85704,-0.72693,2.4062,-53.7,33.12,-4.38
2.2746,-9.1393,-1.975,1.0113,-0.99907,2.179,-52.98,33.66,-3.72
2.4108,-9.6432,-2.2201,1.0934,-1.2037,1.9407,-52.02,34.56,-3.18
2.5334,-10.134,-2.438,1.0076,-1.237,1.7266,-49.5,36.6,-2.22
2.3291,-9.902,-2.152,0.82681,-1.0568,1.536,-48.0,37.86,-1.68
1.757,-9.1529,-2.0567,0.45021,-0.29016,1.3509,-44.88,40.32,-0.96
1.5527,-8.3357,-2.261,0.21258,0.4273,1.2306,-43.26,41.46,-0.48
1.6617,-7.9134,-2.4244,0.037568,1.1246,1.0993,-41.64,42.66,-0.24
2.5061,-6.9872,-2.8194,-0.047342,1.5244,0.92638,-38.7,44.76,0.06
2.7377,-6.4833,-2.7104,-0.099571,1.6561,0.79474,-37.2,45.66,0.06
2.9556,-6.1564,-2.4925,-0.16707,1.4749,0.62766,-34.14,47.4,0.12
3.4051,-6.5786,-2.3427,-0.20739,1.1747,0.54336,-32.76,48.18,0.06
3.4459,-7.2869,-2.1112,-0.23732,1.0116,0.51343,-31.68,48.72,0.12
3.3778,-7.9407,-2.0839,-0.28039,0.76144,0.42425,-30.6,49.32,-0.12
2.9965,-9.6432,-2.0158,-0.32254,0.78282,0.30085,-28.74,50.28,-0.48
3.1599,-10.215,-1.9886,-0.31154,0.96883,0.27184,-28.02,50.7,-0.66
3.4187,-9.9156,-1.9886,-0.20159,1.2285,0.27611,-26.7,51.18,-1.14
4.018,-9.398,-2.0567,-0.057116,1.2,0.28375,-26.16,51.3,-1.62
4.2632,-9.0575,-2.0567,0.033903,1.1054,0.28008,-25.62,51.54,-2.1
4.3994,-8.717,-2.152,0.29566,0.61056,0.19151,-25.38,51.72,-2.4
4.5764,-8.4991,-2.152,0.44288,0.1686,0.10446,-24.54,51.96,-3.12
4.7126,-9.8339,-1.9613,0.50366,-0.27061,0.051618,-24.36,51.96,-3.54
4.7126,-10.869,-1.8251,0.47983,-0.5681,-0.026878,-24.24,52.08,-3.84
4.3858,-11.25,-1.4165,0.25656,-0.5678,-0.33475,-24.12,52.26,-4.38
4.2904,-11.645,-1.1032,0.15119,-0.46456,-0.49419,-24.24,52.08,-4.62
4.1678,-11.754,-0.84446,-0.17257,-0.11851,-1.0736,-24.36,51.9,-4.68
4.0589,-11.441,-0.054481,-0.3485,-0.065973,-1.4658,-24.96,51.42,-4.98
4.0861,-11.291,0.31327,-0.43707,-0.2022,-1.7782,-25.38,51.18,-5.04
4.127,-11.4,0.61292,-0.47006,-0.47647,-2.0146,-25.92,50.82,-5.1
3.8001,-11.673,0.99429,-0.4441,-0.7532,-2.3082,-27.36,49.74,-5.04
3.5685,-11.414,0.89894,-0.30727,-0.91477,-2.4471,-28.38,48.78,-4.8
2.9556,-10.379,0.98067,-0.18937,-0.78679,-2.5479,-29.34,48.06,-4.62
2.5742,-9.2346,1.0896,-0.053145,-0.56016,-2.5501,-31.8,45.9,-3.78
2.3836,-8.4719,0.74912,0.11637,-0.35216,-2.533,-33.0,44.58,-3.3
2.3563,-7.7772,0.54481,0.25809,-0.26634,-2.4572,-34.44,43.2,-2.76
2.4108,-6.7012,0.17706,0.44868,-0.38301,-2.248,-37.2,39.84,-1.8
2.3836,-6.3335,0.12258,0.53359,-0.62461,-2.0617,-38.46,38.34,-1.2
2.4108,-6.2109,0.095342,0.59132,-0.96608,-1.8421,-39.78,36.6,-0.78
2.5061,-6.2517,-0.14982,0.61575,-1.303,-1.5849,-42.54,32.82,0.24
2.6151,-6.3879,-0.24517,0.62827,-1.6802,-1.3295,-43.68,30.84,0.84
2.5606,-6.7693,-0.31327,0.5962,-1.9755,-1.0672,-44.76,28.86,1.38
2.7104,-7.9679,-0.34051,0.52351,-2.0794,-0.64294,-46.74,25.38,2.7
2.8194,-8.5944,-0.24517,0.43371,-1.9655,-0.35644,-47.46,23.82,3.42
2.9011,-9.0303,-0.31327,0.3992,-1.8473,-0.22113,-47.88,22.2,4.08
3.0646,-9.6841,-0.58567,0.2642,-1.3412,0.19853,-48.6,19.56,5.4
3.2416,-9.616,-0.6674,0.18479,-0.95753,0.44104,-48.9,18.6,6.12
3.6775,-9.8884,-0.91256,0.12859,-0.6243,0.67317,-49.08,16.74,7.68
4.1814,-10.297,-1.0896,0.087048,-0.39554,0.89675,-49.2,16.08,8.58
4.7807,-11.046,-1.1713,0.058948,-0.27825,1.0757,-49.26,15.36,9.24
5.1485,-12.313,-0.88532,0.01069,-0.22694,1.2856,-48.6,14.64,10.8
5.1485,-12.354,-0.7355,-0.071777,0.0033598,1.5522,-48.3,14.58,11.58
4.9033,-10.978,-0.46309,-0.080023,0.26298,1.6463,-47.58,14.7,12.96
4.9987,-8.6898,-0.83084,-0.023824,0.53237,1.6426,-46.32,15.06,14.1
4.8488,-5.9112,-1.2803,0.16646,0.59743,1.4722,-45.42,15.9,14.64
4.6718,-4.0861,-1.6344,0.44563,0.37324,1.248,-44.4,16.8,15.18
4.6718,-3.8682,-1.8796,0.81184,-0.46181,1.0165,-43.44,17.64,15.3
4.9987,-5.4209,-1.9341,0.95723,-1.2202,0.93432,-42.12,18.6,15.6
4.9714,-7.9815,-1.9886,0.98563,-1.9395,0.91447,-40.86,19.74,15.96
4.8897,-9.4661,-1.8115,0.8937,-2.441,0.86437,-40.26,20.28,16.08
4.0997,-10.692,-1.3076,0.67256,-2.5293,0.70708,-38.76,21.3,16.74
3.2008,-10.828,-0.98067,0.38393,-2.117,0.46181,-37.98,21.72,17.04
2.2474,-9.9429,-0.62654,-0.079412,-0.70921,0.051924,-36.78,22.56,17.82
2.5334,-9.1665,-0.69464,-0.28069,0.23702,-0.18357,-35.4,23.04,18.78
2.9829,-8.9349,-0.61292,-0.30574,0.72204,-0.42486,-34.92,23.4,18.96
3.3506,-8.7579,-0.54481,-0.23335,0.91111,-0.59834,-33.9,23.76,19.68
3.732,-8.7715,-0.31327,-0.096822,0.84574,-0.72998,-32.94,24.12,20.22
4.3858,-9.0167,-0.38137,0.065057,0.49816,-0.74678,-32.34,24.24,20.4
4.3994,-9.0575,-0.38137,0.22663,-0.064752,-0.71471,-32.16,24.12,20.52
4.3994,-9.0575,-0.38137,0.40561,-0.99602,-0.53176,-32.16,24.12,20.52
4.0316,-8.9486,-0.27241,0.45448,-1.4985,-0.38332,-31.8,23.76,20.58
3.8001,-9.0712,-0.24517,0.45968,-1.8164,-0.22633,-31.68,23.58,20.52
3.4459,-8.9622,-0.43585,0.4554,-1.9694,-0.10751,-31.56,23.4,20.46
3.2553,-8.826,-0.62654,0.44899,-2.022,-0.0036652,-31.32,23.16,20.4
3.5685,-8.717,-0.81722,0.42944,-2.0314,0.062003,-30.9,23.04,20.52
3.7456,-8.7715,-0.83084,0.38546,-1.9801,0.078496,-30.48,22.8,20.82
3.8409,-8.8124,-0.84446,0.2978,-1.8909,0.065363,-30.06,22.56,21.18
4.1542,-8.9894,-0.85808,0.21564,-1.8066,0.022297,-29.1,22.38,21.78
4.2223,-9.0031,-0.96704,0.14875,-1.7043,-0.061697,-28.5,22.32,22.08
4.2495,-8.7715,-0.8036,0.087354,-1.5873,-0.16493,-27.06,22.5,23.04
4.1814,-8.826,-0.85808,-0.0015272,-1.3085,-0.31398,-26.28,22.5,23.64
4.2087,-8.7715,-0.74912,-0.051618,-1.0681,-0.37141,-25.56,22.5,24.0
4.2904,-8.7034,-0.61292,-0.076358,-0.8543,-0.41569,-24.12,22.68,24.9
4.6037,-8.9758,-0.39499,-0.072998,-0.68783,-0.47831,-23.34,22.68,25.26
4.7126,-9.0303,-0.12258,-0.061392,-0.57757,-0.54672,-22.62,22.86,25.68
4.808,-10.624,0.49033,-0.042761,-0.54367,-0.55925,-21.42,22.92,26.04
5.0668,-12.122,0.96704,0.03207,-0.52382,-0.42669,-20.82,22.92,26.22
5.1894,-12.64,1.0215,0.11362,-0.48655,-0.31429,-20.46,22.98,26.52
5.38,-11.101,1.0896,0.25962,-0.51679,-0.27794,-19.26,23.16,26.76
5.4754,-10.365,0.98067,0.42425,-0.73212,-0.28039,-18.66,23.1,26.88
5.7205,-10.12,1.0624,0.59865,-1.2129,-0.35705,-18.3,23.16,26.82
5.6388,-11.278,1.4574,0.73945,-1.9001,-0.48655,-17.58,23.22,26.82
5.4754,-11.577,1.7162,0.86682,-2.8378,-0.59254,-17.1,23.28,26.76
5.094,-11.618,1.9613,0.89644,-3.215,-0.78649,-16.62,23.34,26.94
3.7592,-11.06,2.0294,0.91385,-3.2602,-0.97402,-15.48,23.58,27.06
3.3097,-10.379,1.8387,0.93676,-3.083,-1.1154,-14.88,23.7,27.24
2.8194,-9.3708,1.5391,0.9612,-2.8136,-1.204,-14.22,24.06,27.3
3.0237,-8.8941,1.1986,0.98013,-2.6114,-1.2223,-12.84,24.48,27.54
3.2825,-8.8941,1.2122,0.96792,-2.6121,-1.1985,-12.0,24.84,27.6
3.1735,-8.717,1.3076,0.91477,-2.7223,-1.1826,-11.16,25.08,27.48
2.9011,-8.2403,1.58,0.80726,-2.7654,-1.1527,-10.38,25.44,27.48
2.7377,-7.927,1.6753,0.7083,-2.7278,-1.113,-8.94,26.46,27.6
2.7104,-7.8045,1.6344,0.63958,-2.5446,-1.0702,-8.04,26.76,27.6
2.6968,-7.3958,1.58,0.60873,-2.2575,-1.0314,-6.36,27.66,27.66
3.1191,-7.1915,1.2803,0.63561,-1.836,-0.99754,-5.7,28.14,27.66
3.732,-7.6955,1.2531,0.65057,-1.6698,-0.95203,-4.92,28.56,27.48
4.0316,-7.9679,1.1986,0.65821,-1.5989,-0.92729,-4.32,28.98,27.36
4.4947,-8.5808,0.96704,0.63744,-1.587,-0.90439,-3.36,30.06,26.7
4.5083,-8.9077,0.92618,0.59926,-1.5821,-0.88667,-2.76,30.42,26.46
4.522,-9.0984,0.6674,0.53512,-1.5272,-0.85674,-1.86,31.38,26.04
4.5356,-9.4117,0.20431,0.50671,-1.4655,-0.81489,-1.5,31.86,25.86
4.4811,-9.9973,0.14982,0.50121,-1.3769,-0.75533,-1.08,32.22,25.56
4.413,-10.42,0.14982,0.48778,-1.3066,-0.70188,-0.72,32.64,25.2
4.3994,-10.637,0.027241,0.489,-1.0565,-0.49969,-0.42,33.0,24.78
4.3858,-10.569,-0.16344,0.51526,-0.91691,-0.31765,0.12,33.78,24.12
4.4402,-10.924,-0.28603,0.56139,-0.81367,-0.11912,0.42,34.26,23.64
4.7399,-12.04,-0.54481,0.68753,-0.75747,0.19059,0.96,35.04,22.86
5.1894,-12.953,-0.78998,0.71471,-0.78618,0.30146,1.26,35.64,22.56
5.5435,-13.239,-0.92618,0.76511,-0.94409,0.50549,1.56,36.0,22.08
4.4402,-13.198,-1.5255,0.85704,-1.4572,0.78985,2.1,36.96,21.18
3.2144,-13.144,-1.58,0.9053,-1.8045,1.0345,2.28,37.32,20.76
2.6287,-13.048,-1.6889,0.89461,-1.9083,1.2938,2.7,37.74,20.16
1.6072,-11.536,-2.8739,0.84116,-1.635,1.4591,3.54,38.4,18.9
0.6674,-10.106,-3.2144,0.80604,-1.4658,1.4557,3.84,38.88,18.36
0.10896,-9.1529,-3.2689,0.59559,-0.6918,1.317,4.44,39.24,17.94
-0.77636,-7.7636,-2.8603,0.40256,-0.037263,1.179,5.58,39.6,17.1
-0.47671,-8.0632,-2.4789,0.20006,0.44502,1.0318,6.18,39.78,16.68
-0.19068,-8.7987,-2.2337,0.014355,0.6973,0.86254,6.84,39.9,16.38
0.34051,-9.6023,-1.757,-0.23702,0.9053,0.68875,8.34,40.02,15.84
0.65378,-9.9973,-1.4438,-0.35736,1.0287,0.55558,9.0,39.9,15.66
0.92618,-10.202,-1.1169,-0.41753,1.1417,0.42852,9.66,39.9,15.6
1.9613,-10.025,-0.8036,-0.43127,1.2196,0.27245,10.98,39.72,15.72
2.8603,-9.507,-0.7355,-0.37477,1.1924,0.076358,11.52,39.66,15.78
3.2144,-9.0575,-0.84446,-0.27519,0.96211,-0.064141,11.94,39.48,16.08
3.0918,-8.3765,-1.1577,-0.089186,0.40439,-0.16921,12.72,39.36,16.56
3.1599,-8.1041,-1.3212,0.011606,0.058338,-0.19731,13.14,39.18,16.92
3.0646,-7.927,-1.3348,0.072693,-0.16463,-0.16402,13.32,39.0,17.22
2.8875,-7.4776,-1.4982,0.11118,-0.2923,-0.061087,13.62,39.06,17.7
2.9556,-7.6002,-1.7298,0.1237,-0.34728,0.03543,13.8,39.12,18.0
3.0782,-7.8998,-1.8796,0.13347,-0.39615,0.11118,13.86,39.06,18.24
3.228,-8.1858,-2.3836,0.11759,-0.42302,0.20922,13.74,39.18,18.54
3.3915,-8.2812,-2.3563,0.093157,-0.37293,0.24771,13.86,39.24,18.66
3.4051,-8.431,-2.3836,0.072388,-0.25504,0.27275,13.86,39.3,18.6
3.6094,-8.6353,-2.2201,0.064141,-0.091019,0.28558,13.86,39.3,18.24
3.6911,-8.8396,-1.9068,0.059254,0.11515,0.29902,13.92,39.3,18.18
3.9499,-9.3163,-1.6889,0.082467,0.31276,0.27092,14.04,39.48,18.06
4.4811,-9.8339,-1.4165,0.12767,0.46853,0.13042,14.52,39.54,18.0
4.5764,-9.793,-1.2939,0.21594,0.52504,0.018326,14.52,39.66,17.88
4.6718,-10.065,-1.1305,0.27,0.41508,-0.039706,14.58,39.84,17.7
5.0259,-10.733,-0.54481,0.30391,0.24068,-0.025045,15.0,39.84,17.4
5.1894,-10.392,-0.53119,0.35308,-0.016188,0.055283,15.06,39.84,17.1
5.3119,-9.7522,-0.55843,0.3879,-0.37568,0.099876,15.18,39.72,17.16
5.5162,-9.0575,-0.44947,0.42577,-0.832,0.044288,15.18,39.78,16.92
5.5299,-9.2891,-0.14982,0.4441,-1.3152,-0.10904,15.3,39.78,16.74
5.2847,-9.5751,-0.068102,0.43677,-1.7947,-0.3146,15.42,39.96,16.38
4.9578,-10.093,0.25879,0.3769,-2.1502,-0.50763,15.6,40.02,16.26
4.699,-10.529,0.29965,0.22205,-2.2706,-0.85765,15.66,40.08,16.02
3.9635,-10.052,0.38137,0.10079,-2.0565,-1.1029,15.6,39.96,15.3
3.6639,-9.6977,0.61292,-0.03207,-1.7419,-1.3274,15.42,40.02,14.88
3.4323,-9.1393,0.70826,-0.14478,-1.4948,-1.4887,15.54,39.9,14.22
3.0646,-8.7306,0.61292,-0.23885,-1.1026,-1.6952,15.42,39.78,13.8
2.9148,-8.0496,0.50395,-0.2248,-0.88545,-1.7959,15.12,39.9,13.5
2.833,-7.6546,0.44947,-0.17685,-0.76877,-1.8219,14.88,39.96,13.14
3.0237,-7.3141,0.34051,-0.10385,-0.77794,-1.8094,14.52,40.02,12.84
2.8875,-7.5729,0.27241,-0.0039706,-0.87659,-1.7138,13.74,40.32,11.76
2.7922,-8.3765,-0.054481,0.14447,-1.0623,-1.5082,13.2,40.44,11.28
2.7649,-8.826,-0.1362,0.19548,-1.138,-1.4047,12.6,40.56,10.8
2.4653,-9.8884,-0.44947,0.30207,-1.394,-1.0516,11.28,40.68,9.84
2.3699,-11.278,-0.55843,0.3207,-1.4694,-0.78374,10.56,40.8,9.42
2.3836,-11.931,-0.57205,0.28314,-1.441,-0.50335,9.9,40.92,9.12
2.0431,-13.402,-0.54481,0.21655,-1.3405,-0.21869,8.58,41.22,8.28
1.5391,-13.988,-0.61292,0.10385,-1.088,0.23976,7.86,41.34,7.74
0.64016,-13.634,-0.7355,0.058338,-0.9557,0.41661,6.54,41.58,6.66
0.54481,-13.225,-0.64016,-0.08491,-0.42119,0.87751,6.12,41.52,6.24
0.57205,-13.225,-0.57205,-0.16829,-0.057421,1.1371,5.82,41.58,5.88
0.19068,-13.157,0.20431,-0.22816,0.33139,1.3573,5.4,41.58,4.92
0.14982,-12.408,0.31327,-0.26542,0.77122,1.5485,5.34,41.58,4.62
0.55843,-10.76,0.19068,-0.16707,1.2263,1.6518,5.46,41.46,4.26
1.362,-7.0553,-0.72188,-0.071777,1.2605,1.6331,5.88,41.28,3.78
1.7025,-6.3335,-1.471,0.26542,0.90072,1.4862,6.18,41.22,3.72
1.9613,-6.6059,-1.8251,0.43982,0.41264,1.3338,6.6,41.1,3.6
1.9613,-7.8589,-1.9068,0.53939,0.17807,1.2223,7.14,41.04,3.48
1.9886,-9.0439,-1.3076,0.49236,-0.17013,1.1723,8.34,40.98,3.12
2.2201,-9.2482,-0.95342,0.24862,-0.054978,1.2034,8.94,40.98,3.06
2.5061,-8.7443,-0.83084,0.16005,0.058643,1.2153,10.62,40.92,3.0
2.6015,-7.8181,-1.3212,0.034208,0.35369,1.2254,11.52,40.86,2.88
2.6696,-7.3822,-1.5663,0.0027489,0.68845,1.1906,12.3,40.68,2.88
2.8058,-7.2188,-1.757,0.046731,1.0205,1.0999,13.2,40.68,2.82
3.4323,-7.1507,-1.6889,0.071166,1.1539,1.0437,15.0,40.38,2.88
3.7456,-7.3686,-1.9613,0.046426,1.1924,0.95295,15.78,40.32,2.88
4.2223,-8.1858,-2.2065,-0.03146,1.0818,0.87904,17.4,40.38,2.88
4.5901,-9.5342,-2.2065,-0.1295,1.011,0.77641,18.06,40.38,2.82
4.6173,-10.351,-1.9613,-0.1686,1.0321,0.71563,18.84,40.44,2.88
4.4402,-10.515,-1.6889,-0.28466,1.4395,0.51588,19.5,40.26,3.0
4.3177,-9.4117,-1.5527,-0.28039,1.8463,0.36744,20.76,40.02,3.36
4.7399,-8.7034,-1.6617,-0.076664,1.9676,0.18815,21.36,39.9,3.6
5.2166,-8.4446,-1.6889,0.021075,1.8182,0.15027,22.32,39.66,4.2
5.598,-9.0303,-1.1713,0.19028,1.3338,0.14783,22.62,39.72,4.44
5.8431,-10.011,-0.8036,0.31276,0.6915,0.23671,22.92,39.72,4.62
5.7342,-11.482,-0.12258,0.41111,-0.16493,0.38301,23.46,39.66,5.16
5.4618,-10.937,-0.01362,0.45021,-0.46029,0.37965,23.64,39.54,5.16
5.3119,-10.065,-0.23155,0.48167,-0.65851,0.24587,23.82,39.6,5.28
5.1757,-10.283,-0.25879,0.50091,-0.86865,-0.08094,24.18,39.48,5.16
5.2302,-11.087,-0.10896,0.478,-1.0702,-0.34972,24.48,39.42,5.1
5.2166,-11.618,-0.19068,0.41722,-1.2834,-0.6524,24.54,39.42,4.92
4.8761,-11.836,0.14982,0.3036,-1.4172,-0.95906,24.66,39.54,4.5
4.1542,-11.101,0.17706,0.18326,-1.4242,-1.2404,24.3,39.54,3.66
3.7184,-10.134,0.23155,0.087965,-1.3799,-1.4783,24.12,39.66,3.12
3.2961,-9.1937,0.21793,0.000916,-1.317,-1.7379,23.58,39.66,1.62
3.0101,-8.7715,0.24517,-0.023518,-1.2333,-1.8659,23.1,39.72,0.96
2.833,-8.322,0.14982,-0.033598,-1.1753,-1.9688,22.5,39.9,0.24
2.7649,-7.5321,0.1362,-0.049786,-1.1567,-2.0375,20.64,40.32,-1.38
2.7377,-7.3141,0.040861,-0.045815,-1.2364,-2.0815,19.62,40.62,-2.04
2.5879,-7.5593,0.081722,-0.07422,-1.3757,-2.0656,18.42,40.8,-2.82
2.547,-8.6353,0.12258,-0.10201,-1.5348,-1.9768,15.78,41.1,-4.2
1.975,-9.7658,0.027241,-0.15669,-1.6292,-1.8189,14.04,41.4,-4.92
1.5119,-10.351,0.19068,-0.27,-1.5214,-1.3109,12.42,41.64,-5.58
-0.095342,-12.231,0.57205,-0.37171,-1.1961,-0.80665,9.18,42.18,-6.48
-0.74912,-13.307,0.50395,-0.47373,-0.72326,-0.18112,7.56,42.36,-6.78
-0.69464,-13.607,0.47671,-0.54336,-0.01741,0.34789,6.0,42.42,-7.08
0.25879,-12.708,0.36775,-0.52443,0.84086,0.95845,2.94,42.96,-7.32
0.89894,-12.599,0.095342,-0.41539,0.84696,1.2202,1.5,43.02,-7.44
1.3076,-12.735,-0.081722,-0.26603,0.44288,1.3069,0.48,43.08,-7.44
1.3212,-13.457,-0.32689,-0.14905,-0.1237,1.3021,-1.02,43.38,-7.08
0.72188,-13.416,-0.027241,-0.079107,-0.64904,1.2956,-1.56,43.38,-6.9
-0.24517,-12.667,0.14982,-0.10629,-0.87568,1.2779,-2.04,43.56,-6.6
-0.7355,-10.243,-0.35413,-0.11515,-0.62522,1.3433,-2.4,44.04,-5.76
-0.9398,-9.0303,-0.99429,-0.041539,-0.21808,1.3748,-2.28,44.04,-5.34
-1.076,-8.1177,-1.3484,0.051007,0.2025,1.431,-2.04,44.22,-4.8
-0.21793,-8.3084,-1.4846,0.096517,0.56352,1.4789,-1.14,44.28,-4.08
0.28603,-8.6217,-1.471,0.10324,0.821,1.525,-0.54,44.52,-3.66
0.83084,-8.5263,-1.4165,0.067501,1.0553,1.5684,0.18,44.64,-3.36
1.9068,-8.54,-1.4029,0.027794,1.2242,1.6331,1.92,44.94,-2.52
2.5879,-8.4446,-1.5936,0.0061087,1.2459,1.6115,3.06,45.24,-2.22
3.0646,-8.036,-1.6344,0.01405,1.1215,1.5272,3.9,45.48,-1.8
3.5277,-7.2188,-1.3348,0.021686,0.9163,1.3967,5.94,45.54,-1.44
3.4732,-6.851,-1.2803,0.02474,0.72296,1.2639,6.96,45.78,-1.14
3.4732,-6.5786,-1.3212,0.065363,0.50244,1.15,8.16,45.78,-0.9
3.1872,-6.0611,-1.471,0.098349,0.34208,0.94379,10.44,45.78,-0.72
3.2008,-6.17,-1.4438,0.089797,0.38179,0.82467,11.64,45.84,-0.6
3.3097,-6.6059,-1.4301,0.076664,0.4612,0.70494,12.78,45.84,-0.42
3.3915,-7.9543,-1.58,0.061392,0.57727,0.57941,14.82,45.84,-0.12
3.4051,-9.3027,-1.8251,0.047037,0.74342,0.4331,15.9,45.84,-0.12
3.4051,-9.6023,-2.0294,0.045509,0.91477,0.28802,16.86,45.78,0.18
3.7456,-9.6432,-2.3427,0.052534,1.0599,0.18082,18.48,45.78,0.36
4.0316,-10.065,-2.2201,0.10385,1.011,0.16677,19.14,45.72,0.54
4.2495,-10.283,-2.1929,0.14416,0.93554,0.15882,19.92,45.6,0.72
4.413,-10.147,-2.0022,0.2251,0.69119,0.1518,20.46,45.66,0.78
4.413,-10.147,-2.0022,0.41966,0.21075,0.13408,20.46,45.66,0.78
4.5083,-10.229,-1.8796,0.55711,-0.080329,0.13011,21.0,45.54,0.9
4.5083,-10.229,-1.8796,0.66645,-0.46426,0.072082,21.0,45.54,0.9
4.5083,-10.229,-1.8796,0.67837,-0.62553,-0.034819,21.0,45.54,0.9
4.5083,-10.229,-1.8796,0.57421,-0.73243,-0.24038,21.0,45.54,0.9
5.2166,-12.095,-1.0896,0.42119,-0.80756,-0.57635,21.84,45.48,0.9
5.1076,-11.754,-0.78998,0.23732,-0.89644,-1.0006,22.38,45.3,1.14
4.6582,-12.054,-0.29965,0.054062,-0.97525,-1.4462,22.56,45.12,1.08
4.3858,-12.544,-0.12258,-0.11484,-0.98991,-1.8521,22.2,45.24,1.08
4.0589,-12.476,0.054481,-0.27519,-0.87232,-2.4639,21.48,45.12,1.02
3.5822,-11.891,0.027241,-0.32254,-0.71654,-2.784,20.16,45.12,1.08
3.3915,-11.032,0.21793,-0.32406,-0.58124,-3.0226,18.48,45.36,1.02
3.2008,-10.297,0.27241,-0.28802,-0.54886,-3.1438,16.02,45.54,0.9
3.0646,-9.6568,0.34051,-0.21228,-0.6127,-3.1988,13.08,45.78,0.84
2.9829,-8.7715,0.17706,-0.12523,-0.76816,-3.1979,10.02,45.96,0.9
2.9829,-8.4038,0.17706,-0.054062,-1.0296,-3.1148,8.4,46.08,0.96
2.8058,-7.8998,0.12258,0.037874,-1.5623,-2.9187,4.92,46.2,1.2
2.4108,-8.0088,0.054481,0.061697,-1.8494,-2.7153,1.74,46.62,1.44
1.9341,-8.0224,-0.1362,0.079718,-2.0204,-2.4352,-1.44,46.68,1.62
1.757,-8.0224,-0.24517,0.087659,-2.0776,-2.1053,-2.94,46.68,1.8
1.5255,-9.3163,-0.51757,0.083689,-2.0546,-1.7196,-5.82,46.5,1.74
1.3484,-10.283,-0.49033,0.056505,-1.9676,-1.2914,-6.9,46.5,1.98
1.0896,-11.795,-0.23155,0.010996,-1.741,-0.84758,-9.0,46.5,2.64
0.96704,-12.286,-0.054481,-0.093768,-1.1365,-0.15241,-9.84,46.44,2.82
0.89894,-12.531,0.027241,-0.13286,-0.66737,0.3036,-10.62,46.56,3.12
1.185,-12.967,0.027241,-0.12462,-0.26573,0.76022,-11.88,46.5,3.36
1.58,-13.334,0.027241,-0.098655,-0.018937,1.1719,-12.42,46.44,3.54
1.7162,-13.443,0.14982,-0.05284,0.26389,1.7321,-13.02,46.38,3.96
1.9477,-12.612,0.12258,-0.052229,0.37599,1.9004,-13.2,46.56,4.2
2.2882,-11.741,-0.054481,-0.0281,0.67776,2.2364,-13.14,46.62,4.5
2.4925,-10.406,-0.28603,0.0064141,0.80115,2.2877,-12.9,46.62,4.74
2.547,-8.6353,-0.76274,0.1124,0.85888,2.2202,-12.06,46.98,5.16
2.3427,-8.5944,-1.0351,0.25901,0.8543,2.1383,-11.4,47.16,5.4
2.6968,-8.7715,-1.8115,0.4102,0.7981,2.0763,-10.74,47.16,5.64
2.942,-8.9622,-1.7706,0.54428,0.59712,2.0269,-8.88,47.28,5.7
3.0101,-9.0712,-1.8524,0.55039,0.4664,2.0736,-7.86,47.34,5.88
2.942,-8.9622,-1.9205,0.48747,0.41356,2.1298,-6.78,47.4,5.88
2.9284,-8.9213,-2.0294,0.36621,0.45112,2.1664,-5.46,47.58,5.88
2.7513,-8.54,-1.975,0.24557,0.57177,2.1667,-4.14,47.7,6.0
2.5606,-7.641,-1.9205,0.12278,0.78618,2.1145,-0.78,47.94,6.06
2.6832,-7.2869,-1.9205,0.010079,1.1118,2.0183,2.52,47.94,6.06
3.1327,-7.2188,-1.8115,-0.13744,1.4926,1.8531,4.02,47.94,5.94
3.4323,-6.9191,-1.7298,-0.18387,1.5779,1.6881,6.96,47.88,6.18
3.514,-6.9328,-1.7162,-0.22633,1.5653,1.5238,8.46,47.94,6.12
3.9363,-7.3822,-1.6753,-0.22969,1.4752,1.3445,11.46,47.94,6.24
4.127,-8.4174,-1.6072,-0.23182,1.3241,1.1616,13.86,47.7,6.48
4.0589,-9.6432,-1.6889,-0.22999,1.2071,0.98716,16.14,47.58,6.96
3.9908,-10.665,-1.7706,-0.21869,1.2251,0.7364,17.88,47.4,7.5
4.0861,-11.032,-1.7706,-0.1967,1.3375,0.62522,19.08,47.1,8.1
4.413,-10.678,-1.757,-0.13622,1.4087,0.53237,20.16,46.8,8.76
4.7535,-10.256,-1.58,-0.020769,1.3039,0.44899,20.94,46.68,9.24
4.7671,-10.025,-1.4029,0.13225,1.0528,0.36621,21.54,46.26,9.78
4.9306,-10.379,-1.2395,0.30329,0.73334,0.30727,21.78,46.14,10.38
5.0804,-10.883,-1.2395,0.56139,0.16738,0.32345,22.02,46.14,10.5
5.5435,-11.863,-1.2531,0.67959,-0.20464,0.32467,22.56,46.02,10.92
5.6252,-11.346,-1.1577,0.72235,-0.54367,0.23457,22.92,45.78,11.04
5.5571,-9.9292,-0.78998,0.69852,-0.85185,0.044899,23.22,45.54,10.92
5.6797,-9.902,-0.72188,0.62553,-1.1576,-0.20159,23.4,45.6,10.62
5.8976,-10.746,-0.32689,0.51038,-1.5476,-0.50366,23.52,45.6,10.44
5.7342,-11.645,-0.01362,0.42058,-1.971,-0.89583,23.7,45.54,9.96
5.0259,-12.027,0.43585,0.21472,-2.2978,-1.5507,23.52,45.72,9.24
4.413,-12.04,0.64016,0.066584,-2.1948,-1.9923,23.52,45.78,8.88
3.7592,-11.727,0.68102,-0.048564,-1.9132,-2.3989,23.22,45.96,7.92
2.9556,-10.692,0.50395,-0.10843,-1.4704,-2.7932,22.26,46.14,7.26
2.6696,-9.8339,0.24517,-0.10171,-1.0128,-3.1285,20.76,46.26,6.6
2.6151,-8.9349,0.28603,-0.079412,-0.64782,-3.3793,18.9,46.38,6.0
2.6151,-8.6081,0.21793,-0.025656,-0.46212,-3.5326,17.88,46.62,5.64
2.7786,-8.2539,-0.14982,0.016799,-0.58429,-3.5168,15.24,46.62,4.92
3.0237,-8.3493,-0.28603,0.047953,-0.91202,-3.4157,12.18,46.68,4.38
3.0237,-9.1529,-0.31327,0.037263,-1.3796,-3.251,8.88,46.74,4.02
2.942,-9.5342,-0.19068,-0.011301,-1.8552,-2.9966,6.9,46.68,3.9
2.4653,-10.27,-0.27241,-0.098349,-2.193,-2.6484,3.54,46.5,3.54
2.0703,-10.937,-0.25879,-0.23488,-2.3579,-2.0082,0.36,46.44,2.94
1.8796,-11.264,-0.23155,-0.30055,-2.2165,-1.5522,-1.02,46.44,2.88
1.6753,-12.04,-0.38137,-0.33017,-1.9532,-1.1057,-3.9,46.2,2.64
1.3757,-12.149,-0.40861,-0.31215,-1.6206,-0.64049,-6.24,45.72,2.82
1.2531,-12.286,-0.24517,-0.26756,-1.2034,-0.15699,-8.04,45.54,3.18
1.3893,-12.367,-0.27241,-0.20525,-0.77702,0.34361,-8.76,45.36,3.36
1.6344,-12.558,0.027241,-0.086437,-0.39737,1.055,-9.72,44.94,3.78
1.6344,-12.708,0.19068,-0.047647,-0.19731,1.4988,-9.9,44.82,3.9
1.2258,-12.83,0.74912,-0.020159,0.067806,1.9175,-9.78,44.64,4.2
0.92618,-12.871,0.85808,0.0094684,0.4105,2.3518,-9.6,44.58,4.92
1.4301,-12.0,0.51757,0.065668,0.77702,2.6606,-8.94,44.4,5.28
2.4108,-10.188,-0.01362,0.17135,0.9896,2.7504,-7.62,44.34,5.64
2.6151,-9.5342,-0.38137,0.31093,0.92821,2.6899,-6.06,44.4,5.94
2.8467,-8.7306,-0.89894,0.52993,0.51343,2.4129,-5.22,44.46,6.06
2.7241,-9.2891,-1.0624,0.61942,0.22235,2.2321,-3.18,44.4,6.24
2.8058,-9.6704,-1.4301,0.65088,0.033903,2.0995,-0.72,44.58,6.42
2.9692,-9.6568,-1.7298,0.58704,-0.038179,2.022,0.48,44.76,6.48
2.8603,-9.0575,-1.6617,0.47586,-0.0051924,1.9902,3.12,44.82,6.66
2.4108,-8.4174,-1.6753,0.24374,0.42211,1.9306,5.7,45.0,6.84
2.3155,-7.9951,-1.6481,0.10568,0.94073,1.8946,7.02,45.06,6.84
2.1656,-7.2596,-1.6481,-0.026878,1.5495,1.8277,9.72,45.06,6.96
2.8603,-7.0553,-1.6208,-0.12156,2.0305,1.7675,12.24,45.06,7.08
3.3778,-6.7012,-1.471,-0.19334,2.2779,1.6567,14.76,44.88,7.2
3.623,-6.565,-1.4165,-0.22755,2.2801,1.5198,16.02,44.88,7.26
4.0725,-6.3743,-1.3484,-0.22816,1.9499,1.3076,17.94,44.76,7.68
4.2632,-6.4969,-1.4438,-0.17715,1.566,1.1295,19.8,44.4,8.16
4.3721,-6.7966,-1.6481,-0.098044,1.1069,0.94806,21.36,43.92,8.7
4.2904,-7.7091,-1.9341,-0.016493,0.65576,0.77213,22.02,43.68,9.0
4.2223,-8.8124,-1.9205,0.024129,0.35461,0.61331,23.16,43.08,9.6
4.1951,-10.351,-1.8251,0.041539,0.21777,0.47189,23.82,42.78,10.2
4.0044,-11.25,-1.7298,0.040623,0.2923,0.31979,24.72,42.36,10.86
3.7184,-11.427,-1.58,0.078496,0.72968,0.077885,24.9,42.0,11.04
4.127,-11.087,-1.5936,0.16524,0.98074,-0.042455,25.26,41.82,11.4
4.7263,-11.305,-1.6889,0.31765,0.94806,-0.16616,25.8,41.7,11.76
4.808,-11.673,-1.6617,0.48961,0.6747,-0.27,25.98,41.52,11.82
5.0531,-12.558,-1.5663,0.60842,0.30421,-0.31276,26.16,41.46,11.76
5.0123,-12.544,-1.2258,0.68203,-0.061392,-0.32895,26.16,41.52,11.82
4.8625,-11.741,-1.1986,0.65179,-0.40959,-0.35949,26.22,41.46,11.52
4.7399,-11.359,-1.2531,0.59376,-0.52565,-0.49877,26.16,41.52,11.28
4.6718,-10.787,-1.4438,0.551,-0.69516,-0.74526,25.74,41.4,10.86
4.5764,-10.542,-1.1577,0.48258,-0.94776,-1.0043,25.38,41.58,10.5
4.4811,-10.801,-0.8036,0.38485,-1.2679,-1.2431,25.14,41.46,10.02
4.0725,-11.605,-0.54481,0.2022,-1.6512,-1.5473,24.72,41.34,9.3
3.4323,-11.645,-0.54481,0.058948,-1.6041,-1.7526,24.3,41.28,8.94
2.8875,-10.665,-0.39499,-0.080023,-1.3195,-1.9789,23.46,41.22,8.16
2.7786,-9.7658,-0.24517,-0.16799,-1.0043,-2.1756,23.04,41.4,7.86
2.6287,-8.7715,-0.21793,-0.23793,-0.80207,-2.3002,21.72,41.46,7.26
2.6423,-7.8317,-0.12258,-0.24435,-0.75259,-2.3915,20.46,41.82,6.78
2.6015,-7.4503,-0.21793,-0.22358,-0.81917,-2.4315,19.8,41.94,6.66
2.6287,-6.8919,-0.29965,-0.14142,-1.069,-2.3738,18.36,42.18,6.3
2.7786,-7.1234,-0.29965,-0.096517,-1.3754,-2.3063,16.44,42.6,5.76
2.6423,-8.1995,-0.38137,-0.076358,-1.6842,-2.1829,14.22,42.96,5.34
2.6696,-8.9486,-0.28603,-0.11179,-1.9609,-1.9734,13.14,43.14,5.1
3.2825,-11.7,0.21793,-0.21258,-2.3414,-1.6955,11.04,43.62,4.86
2.7377,-13.28,0.77636,-0.29169,-2.9016,-1.222,9.12,43.98,4.44
1.7298,-13.443,0.76274,-0.30727,-2.8778,-0.94898,8.34,43.98,4.26
0.44947,-12.599,0.55843,-0.28466,-2.3692,-0.65729,6.84,44.28,3.9
0.19068,-12.299,0.50395,-0.22358,-1.5733,-0.34789,6.18,44.64,3.78
0.01362,-11.782,0.31327,-0.098655,-0.74403,0.05681,5.04,44.94,3.36
0.36775,-11.346,-0.095342,0.042761,-0.052229,0.5342,4.2,45.18,3.18
0.57205,-11.359,-0.16344,0.15913,0.42333,0.99785,3.96,45.36,3.18
1.2803,-11.536,0.040861,0.19914,0.78557,1.3384,3.78,45.6,3.12
1.5119,-11.25,0.34051,0.12187,1.1521,1.7462,4.08,45.84,3.12
1.6344,-10.46,0.28603,0.039095,1.2703,1.9535,4.5,45.9,3.12
1.9341,-9.4661,-0.19068,0.0027489,1.2956,2.0614,5.34,46.02,3.3
2.4789,-9.0303,-0.7355,0.041539,1.1634,2.0684,6.12,46.14,3.24
2.7922,-9.4525,-0.85808,0.14936,0.95081,1.981,6.78,46.08,3.36
2.8058,-9.8475,-0.91256,0.26542,0.69944,1.8583,8.34,45.84,3.54
2.8603,-9.6977,-1.2803,0.40164,0.40592,1.6356,9.9,45.66,3.6
2.8058,-9.6023,-1.5119,0.44776,0.32926,1.4737,10.86,45.6,3.78
2.8603,-9.0984,-1.8932,0.45173,0.28833,1.3522,12.72,45.24,4.02
2.8875,-8.54,-2.1248,0.40836,0.26878,1.2596,14.52,44.88,4.2
2.9011,-8.3493,-2.152,0.33078,0.26664,1.2046,15.48,44.64,4.32
2.7513,-7.6683,-2.2882,0.16524,0.33598,1.127,17.16,44.1,4.44
2.6015,-6.9328,-2.2474,0.037568,0.44135,1.0965,19.08,43.86,4.68
2.4653,-6.7966,-2.2746,-0.090103,0.59895,1.0296,20.04,43.74,4.86
2.6423,-6.9872,-2.4108,-0.18662,0.77733,0.98013,21.36,43.44,5.04
2.7241,-7.1915,-2.4517,-0.25412,0.93585,0.93401,22.02,43.14,5.04
3.3097,-8.54,-2.4108,-0.31887,1.0773,0.87568,23.28,42.78,5.22
3.514,-9.507,-2.2746,-0.35247,1.1707,0.79657,23.7,42.6,5.22
3.623,-9.9292,-2.1929,-0.3766,1.2385,0.70799,24.24,42.3,5.28
4.1542,-10.733,-1.866,-0.35247,1.3182,0.60476,25.08,41.94,5.4
4.3585,-10.787,-1.8796,-0.32559,1.3152,0.57757,25.56,41.58,5.7
4.5083,-10.256,-1.8524,-0.16829,1.2202,0.47189,25.86,41.52,5.88
4.6718,-9.1529,-1.6617,-0.013744,1.0547,0.39034,26.4,41.22,6.36
4.7671,-8.6898,-1.58,0.15424,0.78038,0.32009,26.52,41.04,6.66
4.7671,-8.6081,-1.5391,0.31582,0.40378,0.28222,26.82,40.8,6.9
4.9714,-10.351,-1.2667,0.46853,-0.18112,0.33506,27.36,40.62,7.32
4.9714,-10.351,-1.2667,0.51129,-0.46395,0.37018,27.36,40.62,7.32
4.9578,-9.221,-1.0351,0.47464,-0.70402,0.34636,28.02,40.5,7.68
5.0531,-9.4389,-0.96704,0.38973,-0.91263,0.25931,28.26,40.5,7.74
5.2847,-10.61,-0.65378,0.27611,-1.0712,0.0562,28.5,40.32,7.86
5.2711,-11.536,-0.29965,0.11057,-1.1597,-0.28405,28.8,40.14,7.8
4.6173,-11.087,0.50395,-0.14966,-1.117,-0.90622,29.1,40.32,7.74
4.3177,-10.569,0.7355,-0.26389,-1.0406,-1.3094,29.28,40.5,7.68
3.6911,-9.2755,0.76274,-0.2923,-0.99602,-1.7226,29.34,40.62,7.02
3.3642,-8.6081,0.83084,-0.23396,-0.92393,-2.2077,29.4,40.86,6.72
3.1599,-7.7364,0.81722,-0.056505,-0.8882,-2.4022,29.04,41.34,6.0
3.1191,-7.4231,0.85808,0.063835,-0.86254,-2.5097,28.56,41.58,5.58
3.0918,-7.0417,0.92618,0.11576,-0.87354,-2.5418,28.02,41.82,5.16
3.0237,-6.8919,0.98067,0.27458,-0.98991,-2.5501,27.24,42.12,4.74
2.9829,-6.9191,0.5993,0.3989,-1.1344,-2.4688,25.44,43.02,3.96
3.0237,-6.7012,0.64016,0.52931,-1.5748,-2.2987,24.3,43.44,3.42
3.2689,-7.2188,1.1169,0.54062,-1.7272,-2.2177,21.72,44.4,2.76
3.4187,-8.0224,1.2122,0.47037,-2.0116,-1.8775,20.34,44.94,2.22
3.5004,-8.7851,1.2258,0.38454,-2.0641,-1.638,19.02,45.48,1.74
3.623,-9.6432,0.96704,0.26114,-2.0195,-1.4282,15.84,46.32,0.66
3.6503,-9.8203,0.85808,0.15913,-1.9377,-1.2569,14.28,46.8,0.18
3.6094,-9.8339,0.91256,0.054367,-1.7746,-1.0889,11.16,47.58,-0.72
3.6366,-10.025,0.72188,-0.083689,-1.3173,-0.84971,9.54,48.06,-1.2
3.8818,-10.202,0.44947,-0.1182,-0.97066,-0.72052,8.04,48.6,-1.56
3.8954,-10.188,0.38137,-0.12339,-0.6747,-0.61545,6.72,48.9,-1.98
3.9363,-9.902,0.27241,-0.10476,-0.45082,-0.52962,5.4,49.26,-2.4
3.9908,-9.8203,0.1362,-0.073609,-0.32529,-0.3824,3.06,49.68,-3.12
4.2223,-10.324,0.095342,-0.025656,-0.29871,-0.17593,1.98,49.92,-3.36
4.3721,-10.746,-0.28603,0.024129,-0.31826,0.23946,0.24,50.52,-4.08
4.2495,-11.25,-0.19068,0.044288,-0.25626,0.53756,-0.42,50.76,-4.2
4.2359,-11.645,-0.19068,0.038179,-0.044288,0.85094,-1.08,50.88,-4.32
4.0861,-10.651,-0.40861,0.057421,0.21564,1.12,-2.16,51.36,-4.38
4.127,-9.6704,-0.78998,0.13775,0.40561,1.358,-2.52,51.54,-4.38
4.0861,-7.4912,-1.3757,0.24587,0.57757,1.5308,-2.64,51.72,-4.56
4.0997,-5.8976,-1.9341,0.44929,0.5003,1.5806,-2.7,51.84,-4.5
4.1542,-5.1621,-2.2474,0.57879,0.18021,1.5693,-2.46,51.72,-4.62
4.2359,-5.2575,-2.4789,0.63499,-0.036652,1.5562,-2.1,51.84,-4.62
4.4402,-6.0202,-2.833,0.77305,-0.8827,1.4914,-1.68,51.78,-4.74
4.6037,-8.0905,-2.833,0.76541,-1.4862,1.427,-0.42,51.72,-5.04
4.3585,-9.9973,-2.5879,0.69944,-1.938,1.296,0.3,51.66,-5.22
3.8409,-11.223,-2.152,0.42516,-1.8738,0.95203,2.1,51.54,-5.58
2.5742,-11.155,-1.7843,0.30085,-1.6347,0.82436,2.88,51.42,-5.82
2.2201,-10.569,-1.9477,0.057421,-0.96211,0.57605,3.72,51.36,-6.18
2.1793,-10.011,-1.866,-0.19945,0.18204,0.25779,4.68,51.36,-6.42
3.0918,-8.8668,-1.9205,-0.22571,0.50702,0.077274,6.54,51.24,-6.72
3.2553,-8.6898,-1.9613,-0.19578,0.55192,-0.010079,7.2,51.18,-7.02
3.5277,-8.6081,-1.7025,-0.15333,0.3992,-0.035736,8.76,51.3,-7.5
3.8682,-8.5127,-1.5391,-0.12614,0.062308,0.000305,9.3,51.42,-7.8
3.8001,-8.4446,-1.6072,-0.049175,-0.57116,0.1463,9.72,51.42,-8.1
3.6366,-8.2812,-1.6617,-0.0018326,-0.91721,0.25443,10.14,51.6,-8.22
3.2825,-8.0905,-1.9477,0.036957,-1.1127,0.3372,10.8,52.02,-8.7
3.1191,-8.0632,-2.1112,0.068111,-1.1964,0.38912,10.92,52.26,-8.76
3.0782,-8.0224,-2.0567,0.069333,-1.2004,0.38943,11.04,52.5,-8.94
3.1327,-7.9543,-2.0567,0.022602,-1.1249,0.38026,11.22,52.74,-9.24
3.2553,-7.9951,-2.0839,-0.048869,-1.0458,0.35888,11.22,52.92,-9.36
3.4187,-8.1177,-2.0975,-0.1066,-0.94287,0.32987,11.28,53.28,-9.48
3.7728,-8.1586,-1.9341,-0.17135,-0.82192,0.27458,11.28,53.58,-9.84
3.9227,-8.0632,-1.6889,-0.23121,-0.70005,0.2248,11.34,53.64,-9.96
4.0316,-7.9951,-1.6208,-0.32834,-0.55039,0.13164,11.34,53.7,-10.08
4.2495,-8.3357,-1.58,-0.35125,-0.489,0.09163,11.34,54.06,-10.26
4.6309,-8.2131,-1.6617,-0.42272,-0.24587,-0.009163,11.22,54.24,-10.26
4.9442,-8.145,-1.58,-0.44715,-0.071777,-0.089186,11.22,54.3,-10.32
5.5707,-8.1722,-1.3484,-0.43921,0.057727,-0.17746,11.1,54.66,-10.14
5.7886,-8.3493,-0.99429,-0.40989,0.13286,-0.30696,11.04,54.78,-10.2
5.8704,-9.0439,-0.6674,-0.34086,0.15547,-0.46762,10.92,54.72,-10.14
6.3471,-11.441,0.49033,-0.31368,0.16188,-0.478,10.74,55.32,-9.66
6.5105,-12.108,1.0624,-0.12309,0.20097,-0.49419,10.68,55.44,-9.54
6.7421,-11.959,1.2122,0.083994,0.18021,-0.5507,10.5,55.38,-9.48
6.7557,-10.283,1.5119,0.33842,-0.0036652,-0.70036,9.72,55.8,-9.3
6.6059,-9.4525,1.5119,0.60109,-0.46762,-0.90408,9.36,56.16,-9.18
6.456,-9.2346,1.5663,0.82681,-1.1735,-1.0916,8.88,56.4,-9.06
6.3062,-10.392,1.9613,1.0473,-2.3329,-1.2144,7.8,56.7,-9.18
6.1292,-11.332,2.3563,1.1069,-2.9905,-1.2239,7.08,56.76,-9.24
5.884,-11.836,2.547,1.1252,-3.426,-1.2294,6.12,56.94,-9.48
4.9306,-12.054,2.9692,1.1075,-3.5427,-1.2862,4.02,56.88,-10.2
4.4947,-11.727,2.7513,1.0547,-3.4129,-1.3787,2.82,56.82,-10.44
4.1542,-11.319,2.4653,1.0427,-3.2315,-1.4899,1.38,56.76,-10.86
3.8682,-10.42,1.9205,1.0311,-3.0937,-1.5873,-1.8,56.04,-11.88
3.8682,-10.324,1.7162,0.99876,-3.0195,-1.6536,-3.54,55.68,-12.24
3.7456,-10.379,1.6072,0.93279,-2.9853,-1.7165,-5.52,55.14,-12.48
3.7456,-10.311,1.7706,0.75503,-2.9184,-1.7397,-7.44,54.54,-12.9
3.3097,-10.311,1.5391,0.6127,-2.8149,-1.7617,-11.52,53.16,-13.26
2.9284,-10.229,1.4982,0.40256,-2.4755,-1.8002,-13.74,52.32,-13.56
2.547,-10.052,1.2667,0.27428,-2.1338,-1.8091,-18.3,50.52,-13.38
2.5334,-10.215,1.0896,0.17807,-1.7474,-1.7779,-20.4,49.5,-13.38
2.4925,-10.188,0.96704,0.12523,-1.368,-1.7443,-22.62,48.42,-13.2
2.4517,-9.2755,0.6674,0.08827,-1.0699,-1.6664,-26.76,46.02,-12.6
2.6015,-8.8668,0.55843,0.074831,-0.90378,-1.5455,-28.5,44.76,-12.3
2.6696,-8.826,0.44947,0.07422,-0.85307,-1.3986,-30.3,43.62,-11.88
2.5742,-9.9292,-0.1362,0.1011,-0.82925,-1.0867,-33.42,40.98,-11.1
2.8603,-10.447,-0.24517,0.15211,-0.82894,-0.83475,-34.8,39.72,-10.62
2.9148,-10.637,-0.35413,0.17043,-0.8604,-0.7141,-36.0,38.58,-10.26
2.8058,-11.482,-0.83084,0.25779,-0.8882,-0.34147,-38.16,36.36,-9.54
2.8467,-12.313,-0.8036,0.3036,-0.86865,-0.090713,-39.0,35.22,-9.06
2.6832,-11.686,-0.89894,0.36408,-0.78588,0.16218,-39.84,34.26,-8.58
2.3699,-9.6977,-1.7434,0.52107,-0.57666,0.51588,-41.04,32.46,-7.74
2.261,-8.4719,-2.438,0.63041,-0.58185,0.69669,-41.4,31.68,-7.44
2.2882,-7.3005,-2.9011,0.68295,-0.6295,0.76725,-41.58,30.9,-7.08
2.4789,-6.6467,-3.2553,0.80573,-0.96517,0.93493,-41.82,29.7,-6.3
2.5061,-7.246,-3.2553,0.86621,-1.2721,1.0177,-41.94,29.22,-6.12
2.5061,-8.0905,-3.2689,0.87781,-1.4972,1.0974,-41.88,28.86,-5.76
2.3427,-10.174,-2.7377,0.82467,-1.551,1.1976,-41.88,28.5,-5.04
2.2474,-10.61,-2.4789,0.78741,-1.4804,1.2263,-41.7,28.44,-4.56
2.2065,-10.665,-2.4517,0.70555,-1.2043,1.2767,-41.46,28.5,-4.08
2.4653,-9.6977,-2.6696,0.62125,-0.65576,1.295,-40.62,28.8,-3.36
2.7649,-9.0575,-2.6287,0.57574,-0.45112,1.2633,-40.26,29.04,-2.94
2.833,-8.5536,-2.4108,0.53817,-0.39951,1.2263,-39.66,29.28,-2.58
2.9692,-8.3765,-2.1793,0.47831,-0.43035,1.186,-38.34,29.88,-2.04
3.0918,-8.4446,-2.1929,0.45418,-0.43891,1.1973,-37.68,30.3,-1.68
3.1327,-8.322,-2.2201,0.4441,-0.47678,1.2117,-36.96,30.72,-1.32
3.1599,-7.9134,-2.1248,0.44685,-0.49786,1.2153,-36.3,31.02,-1.02
3.2008,-7.4776,-1.8932,0.46334,-0.50763,1.2321,-34.86,31.98,-0.42
3.3506,-7.4776,-1.8796,0.50152,-0.55986,1.2364,-34.08,32.34,-0.12
3.6775,-7.9407,-2.0431,0.57238,-0.78374,1.1741,-32.4,33.36,0.3
3.8273,-8.2131,-2.0839,0.59529,-0.99968,1.0562,-31.68,33.78,0.36
3.7456,-8.322,-2.0839,0.59346,-1.1164,0.89339,-30.78,34.14,0.42
3.7047,-8.717,-2.0975,0.54581,-1.1442,0.69639,-30.06,34.44,0.54
3.5413,-9.6023,-2.2474,0.47922,-1.0809,0.46517,-28.62,35.28,0.54
3.3234,-9.7113,-2.2882,0.40439,-0.89828,0.20433,-27.96,35.58,0.66
3.0918,-9.7385,-2.438,0.31826,-0.61942,-0.043371,-27.12,35.82,0.84
3.051,-10.065,-2.3699,0.22938,-0.1857,-0.33964,-26.64,36.0,0.9
3.3778,-10.447,-2.1929,0.19303,0.022907,-0.45112,-26.16,36.0,0.9
3.4868,-10.787,-2.1656,0.18326,0.1124,-0.54184,-25.8,36.12,0.84
3.6094,-11.959,-1.7706,0.16921,0.18937,-0.58338,-25.5,36.06,0.84
3.732,-13.675,-1.0896,0.15211,0.30452,-0.59987,-25.26,35.94,0.84
3.9771,-14.029,-0.70826,0.14325,0.49083,-0.5342,-25.02,35.82,0.66
4.3994,-13.225,-0.31327,0.14142,0.51252,-0.49786,-24.84,35.16,0.42
4.6037,-12.381,-0.095342,0.17379,0.36377,-0.53665,-24.9,34.68,0.24
4.7535,-11.291,0.040861,0.18479,0.2251,-0.58613,-24.9,34.14,0.06
4.7944,-10.202,0.42223,0.23305,-0.37782,-0.78649,-25.14,33.06,-0.12
4.8897,-10.351,0.6674,0.31062,-0.91294,-0.92424,-25.14,32.46,-0.36
5.094,-10.787,0.65378,0.40745,-1.5275,-1.055,-25.44,31.38,-0.96
5.0259,-11.536,0.8717,0.49236,-2.3836,-1.2749,-25.56,30.84,-1.08
4.7399,-11.918,1.185,0.47831,-2.7214,-1.4704,-25.8,30.18,-1.02
4.5083,-12.217,1.2258,0.44929,-2.7929,-1.5907,-25.86,29.46,-0.9
3.7865,-12.204,1.185,0.34575,-2.7318,-1.8634,-26.16,28.8,-0.9
2.7104,-10.815,1.0488,0.017104,-1.8473,-2.4703,-26.64,26.46,-0.3
2.5879,-10.297,1.0896,0.017104,-1.8473,-2.4703,-26.76,25.56,-0.3
2.547,-9.4117,0.8717,-0.023213,-1.4853,-2.6063,-26.82,24.9,0.42
2.5606,-9.0439,0.77636,-0.03146,-1.2401,-2.6402,-27.18,24.24,0.84
2.547,-8.1313,0.7355,0.01069,-1.1457,-2.5638,-27.54,22.5,1.86
2.6151,-7.6138,0.51757,0.062614,-1.2581,-2.4117,-27.78,21.78,2.34
2.7513,-7.6546,0.35413,0.10049,-1.4872,-2.2013,-28.02,20.52,3.3
2.7649,-7.7772,0.32689,0.14478,-1.7623,-1.9685,-28.14,19.8,3.96
2.5879,-8.0769,0.32689,0.16035,-1.985,-1.6942,-28.32,18.9,4.44
2.2065,-8.7851,0.28603,0.16249,-2.0382,-1.3885,-28.68,17.58,5.28
2.0567,-9.6841,0.28603,0.16463,-1.919,-1.0559,-28.62,17.1,5.82
1.866,-10.719,0.16344,0.16829,-1.3619,-0.48747,-28.62,16.8,6.36
2.0431,-11.496,-0.1362,0.18815,-0.89034,-0.13225,-28.38,16.14,7.44
2.2746,-11.754,-0.46309,0.21625,-0.4496,0.19303,-28.2,15.96,7.86
2.6015,-11.713,-0.8036,0.26206,-0.1631,0.46456,-27.9,15.48,8.82
2.656,-11.536,-1.1169,0.30727,-0.073304,0.7981,-27.6,15.48,9.12
2.7922,-11.496,-1.3076,0.31368,-0.18448,0.96517,-27.36,15.54,9.42
2.8058,-11.564,-1.3076,0.28924,-0.35766,1.106,-27.18,15.6,9.78
2.5742,-11.891,-1.2258,0.23396,-0.42486,1.2083,-26.82,15.9,10.62
2.3836,-12.245,-0.98067,0.14325,-0.281,1.3011,-26.58,16.14,10.92
2.3427,-12.013,-0.91256,0.045509,0.024129,1.4108,-26.34,16.44,11.04
2.3018,-9.5615,-1.4438,-0.011301,0.42516,1.3964,-25.68,17.28,11.52
2.4108,-8.2676,-1.8251,-0.0079412,0.93371,1.2153,-25.44,17.7,11.46
2.6151,-7.8181,-2.0567,0.04215,1.0489,1.0611,-25.2,18.06,11.52
2.7104,-7.8589,-2.1929,0.092241,0.9557,0.90164,-25.02,18.54,11.52
2.8875,-8.7306,-2.0839,0.10965,0.75381,0.76633,-25.02,19.56,11.22
2.7513,-8.7034,-1.9886,0.019548,0.61697,0.66676,-25.14,20.04,11.22
2.438,-8.4991,-1.7298,-0.018021,0.63774,0.67348,-25.2,20.46,10.98
2.3155,-7.927,-1.7025,-0.13714,0.84025,0.79138,-25.2,21.48,10.98
2.2882,-7.4776,-1.7706,-0.16157,0.9279,0.85491,-25.02,21.78,10.86
2.2882,-7.0009,-1.6617,-0.18387,1.1179,1.069,-24.96,22.08,10.8
2.438,-6.4697,-1.5391,-0.16646,1.241,1.2465,-25.02,22.74,10.5
2.7649,-6.2654,-1.5391,-0.13256,1.2898,1.4746,-25.02,23.22,10.38
3.0101,-6.3062,-1.5391,-0.11362,1.2822,1.5437,-24.96,23.88,10.08
3.4051,-6.4016,-1.4165,-0.086743,1.2236,1.7113,-24.84,24.18,10.02
3.909,-6.9736,-1.5119,-0.072693,1.0852,1.7236,-24.66,24.54,9.72
4.3858,-8.0088,-1.6208,-0.04948,0.94043,1.7178,-24.0,25.08,9.36
4.6582,-8.6762,-1.6753,-0.045509,0.85521,1.66,-23.64,25.5,8.94
5.1213,-10.147,-1.8387,-0.040928,0.83658,1.5962,-22.62,26.34,8.28
5.4481,-10.774,-1.7979,-0.051618,0.83902,1.5128,-22.2,26.76,7.86
5.5435,-11.196,-1.58,-0.058338,0.91905,1.3998,-21.72,27.24,7.44
5.598,-11.278,-1.5663,-0.019548,1.1133,1.2034,-21.3,27.72,7.02
5.8431,-10.61,-1.5936,0.052534,1.1976,1.0644,-20.04,28.8,6.12
5.8976,-10.025,-1.4165,0.1686,1.1579,0.92668,-19.56,29.34,5.88
6.0883,-10.406,-1.4438,0.30574,0.97891,0.84666,-19.02,29.82,5.58
6.5786,-12.231,-1.185,0.44196,0.72388,0.81489,-17.76,30.72,4.56
6.6331,-12.599,-1.076,0.53573,0.43982,0.78741,-17.22,31.32,4.14
6.5786,-12.286,-0.96704,0.59559,0.15638,0.72907,-16.68,31.74,3.84
6.5105,-11.7,-0.85808,0.60812,-0.22724,0.46823,-16.02,32.22,3.48
6.2654,-10.052,-0.91256,0.60781,-0.55039,0.1628,-15.3,32.7,2.94
6.0883,-9.6296,-0.7355,0.59346,-1.0037,-0.34575,-14.82,33.0,2.64
5.6933,-9.6841,-0.46309,0.54398,-1.7572,-0.68111,-14.28,33.48,2.16
5.489,-10.215,-0.21793,0.46273,-2.1683,-1.0061,-13.92,33.6,1.98
4.9578,-10.815,-0.14982,0.41081,-2.2739,-1.1719,-13.68,33.84,1.92
3.909,-10.515,-0.095342,0.2135,-2.0629,-1.6921,-13.5,33.9,1.68
3.2961,-9.9429,-0.027241,0.048869,-1.6854,-2.0128,-13.56,33.84,1.56
3.2553,-9.5479,-0.027241,-0.14264,-1.3253,-2.3805,-13.74,33.84,1.8
2.9011,-8.9758,0.054481,-0.23152,-1.2028,-2.5275,-13.86,33.72,1.86
2.7241,-8.6353,0.01362,-0.25229,-1.1484,-2.5748,-14.34,33.6,1.98
2.6968,-8.2948,0.12258,-0.28955,-1.1054,-2.6148,-14.82,33.42,2.16
2.7241,-7.9407,0.10896,-0.30452,-1.2514,-2.5693,-16.2,32.94,2.58
2.6151,-8.2812,0.12258,-0.31612,-1.4071,-2.4575,-16.86,32.64,2.76
2.5334,-8.54,0.20431,-0.3372,-1.5907,-2.1591,-18.36,32.04,3.54
2.0567,-9.8475,0.25879,-0.34972,-1.6054,-2.0149,-19.14,31.74,4.08
1.9205,-11.686,0.42223,-0.42058,-1.4212,-1.503,-20.1,31.38,4.44
1.7298,-12.871,0.70826,-0.47831,-1.113,-1.1136,-20.94,30.96,4.8
1.58,-13.266,0.8036,-0.51618,-0.62369,-0.75045,-21.66,30.72,5.16
1.5391,-13.838,0.55843,-0.49969,-0.072693,-0.40225,-23.1,30.06,6.0
1.7298,-13.443,0.55843,-0.3934,0.2306,-0.11668,-23.76,29.82,6.48
1.185,-12.435,0.43585,-0.1799,0.18173,0.30513,-24.84,29.28,7.38
0.85808,-12.626,0.21793,-0.051007,-0.13928,0.61178,-25.08,29.16,7.74
0.68102,-12.898,0.23155,0.025962,-0.43433,0.85765,-25.44,28.92,8.1
0.14982,-13.021,0.35413,0.04612,-0.64232,1.0782,-25.68,28.8,8.94
-0.1362,-12.326,0.44947,-0.01405,-0.67195,1.3479,-25.8,28.86,9.54
-0.054481,-11.06,0.28603,-0.072388,-0.45662,1.5342,-25.74,28.98,9.9
0.46309,-8.826,-0.47671,-0.062919,-0.054978,1.5626,-25.5,29.22,10.26
0.55843,-8.3765,-0.69464,-0.002138,0.15241,1.4591,-25.32,29.4,10.56
0.6674,-8.0905,-0.9398,0.027184,0.23793,1.3912,-25.08,29.7,10.92
0.89894,-8.4719,-1.1169,0.086743,0.48778,1.2104,-24.54,30.06,11.7
1.1169,-8.5536,-1.2531,0.08094,0.73121,1.1619,-24.3,30.36,11.88
1.5391,-8.5263,-1.3212,0.041233,1.0385,1.1774,-24.12,30.66,11.94
2.152,-8.3084,-1.362,-0.037568,1.4093,1.3595,-23.28,31.26,12.0
2.5879,-7.9543,-1.471,-0.076664,1.5372,1.5259,-22.98,31.56,12.18
2.7377,-7.6955,-1.5663,-0.078802,1.4893,1.6362,-22.5,31.86,12.3
3.1191,-6.7966,-1.4574,-0.082467,1.3522,1.7184,-21.42,32.76,12.36
3.1599,-6.6059,-1.3757,-0.079107,1.2339,1.7718,-20.94,33.12,12.06
3.3506,-6.7557,-1.4029,-0.07422,1.0883,1.8109,-20.46,33.6,11.88
3.7592,-7.5457,-1.58,-0.051618,0.98197,1.7504,-19.14,34.26,11.52
3.909,-7.927,-1.5936,-0.031154,0.96364,1.6585,-18.48,34.62,11.16
4.1814,-8.6081,-1.6481,-0.03146,0.98349,1.5333,-17.88,34.98,10.74
4.808,-10.311,-1.6344,-0.031765,1.0253,1.3876,-16.56,35.82,9.84
4.9169,-10.651,-1.3484,-0.024129,1.1319,1.2364,-15.84,36.24,9.36
4.9714,-10.597,-1.3348,0.0088575,1.2743,1.0983,-15.0,36.54,9.12
5.4073,-9.9565,-1.2803,0.057727,1.3335,0.85491,-13.86,37.62,8.52
5.4754,-9.6704,-1.2258,0.22694,1.2559,0.68234,-13.14,38.04,8.1
5.5707,-9.2891,-1.3212,0.37049,1.0296,0.5229,-12.48,38.46,7.74
5.9249,-10.025,-1.3484,0.5003,0.68967,0.40623,-11.34,38.94,6.84
6.1564,-10.76,-1.0896,0.59559,0.32406,0.28986,-10.74,39.24,6.6
6.0883,-10.637,-1.1169,0.62461,-0.019548,0.10049,-10.14,39.42,6.24
5.8295,-10.215,-0.99429,0.59315,-0.3427,-0.2755,-9.42,39.9,5.52
5.7069,-10.392,-0.74912,0.47403,-0.76816,-0.51832,-9.06,40.2,5.16
5.7614,-10.733,-0.40861,0.37202,-1.0311,-0.77519,-8.76,40.38,4.98
5.7069,-12.013,-0.35413,0.27611,-1.2086,-1.1157,-8.46,40.56,4.68
4.9987,-12.381,-0.20431,0.18418,-1.2422,-1.5149,-8.22,40.62,4.14
4.413,-12.095,-0.20431,0.090103,-1.1292,-1.9062,-8.4,40.74,3.84
4.127,-11.822,-0.054481,0.043677,-0.98746,-2.2969,-8.4,40.68,3.9
3.8273,-10.937,-0.25879,0.029627,-0.94867,-2.7581,-9.0,40.44,3.42
3.5822,-10.447,-0.31327,0.036652,-1.0406,-2.9493,-9.42,40.26,3.24
3.4732,-9.8339,-0.38137,0.031154,-1.1215,-3.021,-10.2,40.2,3.24
3.1735,-8.8805,-0.34051,0.021686,-1.3112,-3.062,-11.1,39.96,3.3
3.0237,-7.8726,-0.32689,-0.0073304,-1.693,-3.0048,-13.14,39.42,3.36
2.8194,-7.5457,-0.23155,-0.039401,-2.0091,-2.8396,-14.34,39.0,3.48
2.2882,-7.3141,-0.040861,-0.064141,-2.2874,-2.7556,-17.04,38.16,4.02
1.9341,-7.2733,-0.027241,-0.10018,-2.4221,-2.5534,-18.42,37.62,4.2
1.6617,-7.5729,-0.23155,-0.14478,-2.3204,-2.1258,-19.74,37.02,4.56
1.5527,-9.0848,-0.35413,-0.15791,-2.1276,-1.7284,-22.5,35.94,5.46
1.8524,-10.733,-0.40861,-0.17685,-1.9099,-1.2807,-23.7,35.28,5.94
1.9886,-11.918,-0.34051,-0.21105,-1.6338,-0.81612,-24.84,34.62,6.48
1.9886,-13.348,-0.095342,-0.29199,-1.0724,-0.15119,-26.88,33.36,7.62
1.9205,-13.811,-0.095342,-0.33659,-0.85582,0.054062,-27.72,32.76,8.22
1.8796,-13.852,0.081722,-0.42272,-0.41111,0.46762,-28.44,32.28,8.82
1.6208,-13.511,0.43585,-0.5171,0.14966,1.0091,-29.28,31.32,10.14
1.6344,-13.293,0.58567,-0.52993,0.49694,1.3253,-29.52,30.96,10.68
1.866,-13.471,0.61292,-0.47525,0.77152,1.6231,-29.64,30.78,11.1
2.2474,-13.484,0.78998,-0.32712,0.99235,1.992,-29.52,30.36,12.12
2.5061,-12.871,0.83084,-0.19578,1.062,2.1356,-29.4,30.36,12.6
2.6696,-11.509,0.34051,-0.11698,1.0644,2.1557,-29.16,30.42,12.96
2.9965,-8.8805,-0.35413,0.15455,0.85674,2.0097,-28.38,30.54,13.38
2.7649,-7.8862,-0.99429,0.35277,0.61056,1.7962,-27.9,30.78,13.56
2.656,-8.0496,-1.3757,0.53054,0.34819,1.5849,-27.3,31.08,13.44
2.8194,-8.8668,-1.9341,0.66096,-0.034208,1.368,-26.34,31.8,13.14
2.9556,-8.7579,-1.9205,0.64599,-0.22999,1.3134,-25.86,32.34,13.02
2.8739,-8.6081,-1.8251,0.54856,-0.27092,1.3076,-25.2,32.7,12.84
2.3291,-7.8453,-1.6208,0.40775,-0.10018,1.3558,-24.0,33.72,12.54
2.1112,-7.3822,-1.8115,0.27978,0.27886,1.4022,-23.4,34.2,12.3
1.9205,-6.9464,-2.0294,0.16921,0.80054,1.4157,-22.56,34.5,12.18
2.2065,-6.1973,-1.9613,0.080634,1.3021,1.4001,-21.12,35.46,11.58
2.4244,-6.0883,-1.9068,0.025351,1.7599,1.3806,-20.52,35.7,11.28
2.7513,-6.1836,-1.8932,-0.059865,1.846,1.3583,-19.8,36.18,10.98
3.2825,-6.3743,-1.6481,-0.088881,1.7825,1.3219,-18.3,36.96,10.26
3.4051,-6.5378,-1.7025,-0.10293,1.6057,1.2883,-17.76,37.38,9.9
3.5685,-7.0962,-1.8932,-0.078191,1.3974,1.2382,-17.34,37.8,9.6
3.9363,-8.2539,-2.1112,-0.045204,1.182,1.204,-15.78,38.52,9.0
4.1951,-9.2891,-2.3155,0.023824,0.8995,1.0889,-15.0,38.82,8.64
4.2904,-9.8066,-2.3836,0.02138,0.81978,0.99999,-14.28,39.24,8.22
4.2495,-10.855,-2.3972,0.0073304,0.83841,0.821,-13.02,39.72,7.38
4.2495,-11.087,-2.2882,0.010996,0.93951,0.6014,-12.36,39.96,7.26
4.2495,-11.196,-2.1248,0.018021,1.0611,0.42486,-11.76,40.32,6.96
4.9306,-11.06,-1.8932,0.088575,1.0165,0.30971,-10.62,40.8,6.36
5.0259,-11.087,-1.8387,0.24496,0.73701,0.18937,-10.08,40.98,6.06
5.1485,-11.564,-1.6344,0.32895,0.53481,0.15394,-9.54,41.04,5.7
5.3256,-12.054,-1.4301,0.3598,0.43463,0.14722,-9.06,41.4,5.4
5.8704,-12.177,-1.1169,0.40073,0.12981,0.046731,-8.4,41.76,4.56
5.9657,-11.645,-0.92618,0.36744,-0.059254,-0.13744,-8.04,41.82,4.26
5.9249,-11.046,-0.8036,0.30788,-0.25656,-0.46976,-7.86,41.82,3.9
5.5843,-10.501,-0.76274,0.2361,-0.61392,-1.1106,-7.68,41.76,3.54
5.2166,-10.678,-0.64016,0.2135,-0.75136,-1.3311,-7.68,41.58,3.42
5.0259,-10.883,-0.49033,0.17532,-1.0424,-1.697,-7.56,41.52,3.06
4.6309,-11.645,-0.054481,0.099571,-1.3057,-2.0727,-8.1,41.7,2.34
4.2359,-11.7,-0.040861,0.057421,-1.3057,-2.2455,-8.46,41.4,2.1
3.7728,-10.937,-0.12258,0.030543,-1.2459,-2.3946,-8.82,41.28,1.98
3.228,-9.4798,-0.12258,0.025351,-1.1545,-2.5351,-10.2,40.56,1.5
3.0646,-8.4038,-0.20431,0.022297,-1.1609,-2.5611,-10.92,40.14,1.5
2.8194,-8.0224,-0.21793,0.017104,-1.2251,-2.5424,-11.82,39.6,1.44
2.6968,-7.4776,-0.31327,0.000611,-1.3308,-2.5006,-12.84,39.06,1.56
2.6832,-7.0553,-0.51757,-0.000611,-1.5088,-2.4496,-14.82,37.74,1.8
2.5742,-7.0962,-0.49033,-0.032376,-1.6866,-2.3268,-15.96,37.38,1.98
2.2201,-7.5048,-0.38137,-0.10446,-1.792,-2.0846,-18.24,36.24,2.04
2.1248,-8.1177,-0.55843,-0.15455,-1.7688,-1.8564,-19.32,35.76,1.98
2.0839,-9.1529,-0.6674,-0.1799,-1.7407,-1.7223,-20.52,35.1,2.22
2.1929,-10.079,-0.70826,-0.28253,-1.5812,-1.2871,-21.54,34.32,2.34
2.0294,-12.095,-0.44947,-0.3598,-1.3598,-0.96395,-23.52,32.88,2.7
1.8387,-13.402,-0.38137,-0.44593,-1.0369,-0.62339,-24.42,32.22,2.88
1.2667,-13.961,-0.38137,-0.53542,-0.6072,-0.28894,-25.2,31.68,3.18
1.2531,-14.029,-0.068102,-0.61117,0.044288,0.22999,-26.28,31.02,3.72
1.2531,-13.716,-0.068102,-0.57818,0.39279,0.54947,-26.76,30.72,4.08
1.2531,-13.566,0.1362,-0.52657,0.59529,0.90958,-26.94,30.42,4.32
1.3893,-13.702,0.21793,-0.43341,0.72388,1.2572,-27.24,30.18,4.5
1.757,-13.757,0.74912,-0.33903,0.80726,1.573,-27.36,29.52,4.8
1.8115,-12.83,0.88532,-0.14936,0.83933,2.0104,-27.24,29.34,4.98
2.3427,-10.188,0.24517,0.031154,0.76755,2.1939,-26.58,29.34,5.34
2.7241,-8.5127,-0.38137,0.25443,0.5339,2.2312,-26.1,29.52,5.46
2.6968,-7.4231,-0.83084,0.3821,0.36285,2.1954,-25.8,29.7,5.46
2.4244,-7.246,-1.2122,0.67867,-0.12889,2.0467,-25.38,29.94,5.46
2.3563,-8.3084,-1.866,0.76022,-0.36408,1.9529,-24.42,30.72,5.4
2.547,-8.7306,-2.0022,0.70036,-0.55405,1.8088,-23.64,31.08,5.4
2.0703,-8.5808,-1.7979,0.53084,-0.53329,1.7486,-22.32,31.74,5.16
1.7298,-8.2539,-1.7025,0.29016,-0.24221,1.7022,-21.6,32.22,5.04
1.6072,-8.1313,-1.7025,-0.024435,0.72265,1.7126,-20.82,32.58,5.04
1.7025,-7.7636,-1.5663,-0.17654,1.5366,1.6918,-19.08,33.66,4.98
2.2882,-7.6002,-1.58,-0.26053,2.2434,1.6634,-18.3,34.14,4.86
2.7104,-7.355,-1.4982,-0.29169,2.6063,1.6273,-17.52,34.62,4.8
3.3778,-6.9872,-1.076,-0.30452,2.6964,1.6072,-15.78,35.58,4.56
3.8001,-6.9328,-1.0215,-0.28405,2.4587,1.5699,-15.06,35.94,4.5
4.1814,-6.8238,-1.0215,-0.24832,1.9862,1.5269,-14.04,36.24,4.44
4.3994,-7.464,-1.1169,-0.17715,1.431,1.4655,-12.06,37.08,4.2
4.413,-8.4038,-1.185,-0.082772,0.9108,1.4065,-11.22,37.5,3.96
4.413,-9.0575,-1.362,-0.0018326,0.55589,1.3127,-10.5,37.8,3.84
4.6173,-10.392,-1.7979,0.13317,0.29077,1.1997,-8.82,38.28,3.42
4.6445,-10.665,-1.8524,0.17226,0.26237,1.1432,-7.92,38.4,3.18
4.5356,-10.61,-1.9068,0.24984,0.28405,0.95723,-7.14,38.7,2.88
4.5083,-9.7385,-2.1248,0.34606,0.41172,0.66462,-5.64,39.06,2.34
4.6309,-9.5342,-2.1656,0.41264,0.39431,0.47373,-4.86,39.48,2.16
4.808,-9.8475,-2.2065,0.43585,0.34514,0.38851,-4.2,39.6,1.86
4.808,-9.8475,-2.2065,0.49786,0.068722,0.12126,-4.2,39.6,1.86
5.2847,-12.926,-1.6889,0.48625,0.045815,-0.0030543,-3.48,39.72,1.5
5.2847,-12.926,-1.6889,0.46853,0.055894,-0.30452,-3.48,39.72,1.5
5.2847,-12.926,-1.6889,0.42761,0.022907,-0.44257,-3.48,39.72,1.5
5.2847,-12.926,-1.6889,0.37843,-0.14447,-0.75595,-3.48,39.72,1.5
5.7342,-11.632,-0.8036,0.31246,-0.48014,-1.0852,-2.88,39.78,1.14
5.4345,-12.395,-0.53119,0.24923,-0.92546,-1.4227,-1.62,39.72,0.42
4.8352,-12.463,-0.19068,0.097128,-1.281,-1.9059,-0.9,39.72,-0.06
4.3177,-12.149,0.081722,0.016799,-1.3607,-2.1915,-0.42,39.54,-0.72
3.7184,-11.782,0.19068,-0.056505,-1.2941,-2.4154,-0.3,39.42,-1.08
3.4732,-11.278,0.040861,-0.082467,-1.1231,-2.6215,-0.96,39.12,-1.68
3.1872,-10.106,-0.081722,-0.050091,-1.0275,-2.839,-2.04,38.7,-2.04
2.9148,-9.0303,-0.095342,-0.0088575,-1.0082,-2.9786,-3.3,38.04,-2.52
2.8603,-8.322,-0.054481,0.010079,-1.1457,-3.0198,-4.32,37.74,-2.76
2.833,-7.8317,-0.16344,0.01741,-1.3922,-2.9761,-6.42,37.38,-2.88
2.8467,-7.5865,-0.12258,0.019548,-1.7419,-2.8695,-8.76,36.84,-3.42
2.6151,-7.2869,-0.12258,0.0012217,-2.1005,-2.7581,-10.98,36.48,-3.48
2.0839,-7.4776,-0.10896,-0.034514,-2.3408,-2.5873,-13.14,36.18,-3.54
1.6753,-8.0769,-0.16344,-0.080023,-2.4053,-2.3323,-15.42,35.94,-3.78
1.4846,-8.7987,-0.25879,-0.1799,-2.2358,-1.8234,-17.22,35.82,-3.54
1.7298,-9.4117,-0.29965,-0.24587,-2.1444,-1.4126,-18.0,35.58,-3.42
1.8932,-11.155,-0.34051,-0.35277,-2.0644,-0.92974,-18.96,35.58,-3.3
1.2531,-12.708,0.01362,-0.42852,-1.8494,-0.416,-20.46,35.52,-2.82
0.53119,-13.225,0.1362,-0.47739,-1.3454,0.069944,-21.24,35.58,-2.52
0.21793,-13.702,0.32689,-0.51557,-0.56994,0.49022,-21.84,35.52,-2.1
1.1032,-13.089,0.32689,-0.39615,0.46181,0.95875,-22.92,35.7,-0.9
1.3757,-12.762,0.19068,-0.23152,0.78435,1.2077,-23.22,35.88,-0.36
1.3757,-12.898,0.19068,-0.064752,0.94592,1.4129,-23.58,35.88,0.06
1.5936,-13.116,0.57205,0.054672,1.0308,1.6017,-23.94,36.18,0.54
1.8932,-12.544,0.42223,0.14813,0.97677,1.7941,-24.0,36.6,1.26
2.3427,-11.4,0.12258,0.20464,0.79015,1.9691,-23.94,36.9,1.44
2.5061,-8.8668,-0.91256,0.28527,0.45571,2.0223,-23.7,37.32,1.68
2.0294,-8.2267,-1.1032,0.50519,-0.048869,1.8915,-23.52,37.62,1.86
1.5936,-8.1586,-1.3484,0.60995,-0.15455,1.7877,-22.98,37.92,1.98
1.6753,-8.5944,-1.6344,0.65179,-0.11668,1.7016,-21.78,38.52,2.16
1.7298,-8.9349,-1.9205,0.66279,0.0015272,1.649,-21.0,38.76,2.28
1.7979,-8.8941,-2.1929,0.64935,0.18204,1.6359,-19.62,39.42,1.98
1.9477,-8.6489,-2.1793,0.56872,0.57299,1.6839,-18.78,39.66,1.86
2.2065,-8.4991,-2.152,0.48686,0.87109,1.7123,-17.94,39.78,1.62
2.4789,-8.1995,-2.1248,0.44471,1.0156,1.7205,-16.98,40.02,1.38
2.6423,-7.8317,-2.2201,0.29016,1.281,1.726,-15.84,40.02,1.2
2.8875,-7.5321,-2.0158,0.18173,1.4157,1.7236,-13.92,40.38,0.78
3.0646,-7.355,-1.9477,0.098655,1.4447,1.6863,-12.84,40.5,0.78
3.2961,-7.2733,-1.8932,0.036652,1.4032,1.6047,-10.68,40.68,0.54
3.4187,-7.4776,-1.9613,-0.036957,1.3922,1.4768,-9.48,40.92,0.3
3.7592,-7.7364,-1.975,-0.07086,1.3793,1.3299,-8.4,41.1,0.12
3.8001,-8.1722,-1.8387,-0.10812,1.3561,1.1674,-7.44,41.28,-0.24
3.7592,-9.5615,-1.6208,-0.13347,1.3744,0.97769,-5.64,41.64,-0.48
3.8409,-10.025,-1.5391,-0.14478,1.4853,0.79077,-4.62,41.88,-0.6
4.0861,-10.556,-1.362,-0.11881,1.7174,0.58032,-2.64,42.12,-1.02
4.2223,-10.61,-1.4165,-0.078496,1.7697,0.51832,-1.74,42.24,-1.02
4.4402,-10.297,-1.3348,0.029932,1.795,0.43127,-1.02,42.3,-1.02
4.8352,-9.8611,-1.4846,0.2532,1.6136,0.34453,0.36,42.3,-1.38
5.1349,-10.42,-1.471,0.416,1.2944,0.31948,1.02,42.24,-1.5
5.5843,-11.291,-1.4438,0.5507,0.81795,0.31765,1.62,42.36,-1.68
6.0202,-12.204,-1.185,0.66065,0.0024435,0.28802,2.76,42.54,-1.98
6.0883,-12.572,-1.0896,0.64874,-0.47983,0.16402,3.24,42.6,-2.04
5.993,-12.626,-1.0624,0.57238,-0.79351,-0.07086,3.66,42.6,-2.28
5.3664,-11.822,-0.92618,0.45998,-0.9279,-0.41508,4.26,42.6,-2.52
5.2711,-11.918,-0.47671,0.32406,-1.0256,-0.78802,4.56,42.6,-2.76
5.1894,-12.108,-0.14982,0.17043,-1.1716,-1.1429,4.8,42.72,-2.88
4.7671,-12.653,0.31327,-0.015577,-1.354,-1.6512,4.8,42.78,-3.42
4.3858,-12.599,0.38137,-0.09499,-1.2905,-1.9969,4.74,42.84,-3.72
4.0725,-12.0,0.58567,-0.12156,-1.2648,-2.1481,4.44,43.08,-3.96
3.3778,-10.46,0.70826,-0.12828,-1.1283,-2.5323,3.42,43.44,-4.44
3.1735,-9.7113,0.64016,-0.10782,-1.04,-2.6747,2.52,43.68,-4.56
3.0646,-9.0031,0.54481,-0.054672,-1.0263,-2.7843,1.44,43.74,-4.68
2.9965,-8.4038,0.35413,-0.0061087,-1.0892,-2.8527,-1.32,43.68,-4.68
2.8058,-7.75,0.27241,0.047953,-1.3381,-2.8396,-2.88,43.74,-4.8
2.7241,-7.5321,0.28603,0.055894,-1.5693,-2.7739,-4.62,43.62,-4.74
2.6151,-7.2869,0.31327,0.026878,-1.8302,-2.6765,-8.4,43.26,-4.62
2.5879,-7.3141,0.25879,-0.015272,-2.0611,-2.5278,-10.5,43.02,-4.56
2.8058,-7.8181,0.31327,-0.084605,-2.1805,-2.3393,-12.66,42.54,-4.44
4.0861,-9.6023,0.40861,-0.15333,-2.204,-2.117,-17.16,41.64,-3.78
4.5083,-10.338,0.35413,-0.24312,-2.0834,-2.0259,-19.56,41.16,-3.42
5.0531,-11.632,0.57205,-0.28527,-1.8912,-1.9117,-21.78,40.44,-2.94
5.4345,-12.517,1.1169,-0.37996,-1.6811,-1.7385,-25.92,39.0,-1.5
5.2983,-11.918,1.0488,-0.44074,-1.4044,-1.5272,-27.72,38.04,-0.9
5.0531,-11.196,0.61292,-0.44166,-1.0702,-1.3121,-29.34,37.26,-0.06
5.0668,-9.5479,0.12258,-0.33475,-0.69242,-0.9954,-32.4,35.46,1.56
5.2438,-9.0303,-0.12258,-0.12767,-0.4554,-0.58521,-33.72,34.5,2.46
5.8704,-8.4991,-0.65378,0.11423,-0.43555,-0.13347,-34.92,33.72,3.12
5.9249,-8.5127,-0.21793,0.39004,-0.6524,0.46304,-36.6,32.1,4.74
5.6116,-8.4446,-0.42223,0.49602,-0.71716,0.7816,-37.2,31.26,5.52
5.0259,-7.8317,-0.95342,0.58521,-0.64019,0.95448,-37.74,30.54,6.12
3.9363,-6.4152,-2.0022,0.65576,-0.61728,1.0122,-38.34,29.7,7.38
3.5549,-6.3743,-2.2201,0.69944,-0.54825,0.94654,-38.34,29.28,7.98
3.2553,-6.7012,-2.3563,0.67348,-0.44471,0.94745,-38.64,29.04,8.28
2.9148,-7.6002,-2.4789,0.60323,-0.27764,0.96181,-38.4,28.74,8.82
2.9284,-8.2948,-2.6015,0.50121,-0.17257,0.99846,-38.34,28.74,8.88
2.9011,-8.8668,-2.6423,0.36438,-0.064752,1.054,-38.16,28.86,8.94
2.7649,-8.7034,-2.5742,0.2303,0.065363,1.0815,-37.44,29.28,9.06
2.4653,-8.0088,-2.1793,0.019853,0.34697,1.0605,-37.08,29.46,9.0
2.3699,-7.6002,-2.2065,-0.088881,0.54672,1.0522,-36.6,29.82,9.12
2.3563,-7.2596,-2.1929,-0.15302,0.6747,1.0544,-36.24,30.06,9.06
2.7649,-6.8919,-2.1929,-0.18021,0.68325,1.0595,-35.46,30.96,9.12
2.8739,-6.9328,-2.1793,-0.1576,0.58765,1.0837,-35.04,31.5,9.12
3.0237,-7.0145,-2.1248,-0.14264,0.44227,1.0965,-34.08,32.16,8.94
3.1191,-7.0281,-1.9886,-0.13134,0.16188,1.0513,-33.6,32.64,8.82
3.0373,-7.1779,-1.8387,-0.14478,0.034208,1.0018,-33.0,32.88,8.82
2.9148,-7.3822,-1.8387,-0.15333,0.0064141,0.97983,-32.58,33.18,8.88
2.9284,-7.7636,-1.8524,-0.17654,0.0058032,0.96272,-31.5,33.72,9.06
2.9148,-7.7636,-1.6617,-0.197,0.047647,0.9783,-30.9,33.9,8.94
2.833,-7.641,-1.4438,-0.20128,0.11637,1.0195,-30.36,34.26,8.88
2.8875,-7.8453,-1.0624,-0.20097,0.29932,1.1442,-29.16,34.92,9.24
3.0237,-8.036,-0.84446,-0.18143,0.44318,1.2358,-28.68,35.16,9.18
3.1191,-8.1177,-0.76274,-0.16218,0.51801,1.2856,-27.96,35.58,9.18
3.2008,-8.4446,-0.47671,-0.094684,0.74403,1.4313,-26.82,36.36,9.24
3.4732,-8.4991,-0.57205,0.010079,0.84238,1.5327,-26.1,36.6,9.36
3.8273,-8.4038,-0.65378,0.13347,0.78007,1.6347,-25.38,37.02,9.36
4.4402,-8.6217,-1.1577,0.32254,0.41692,1.7746,-23.94,37.8,9.36
4.6173,-8.826,-1.3212,0.41753,0.080329,1.8143,-23.1,38.28,9.24
4.7535,-8.9622,-2.1248,0.46578,-0.10293,1.8085,-22.26,38.88,8.94
5.3119,-9.1801,-2.7513,0.49938,-0.65485,1.752,-20.58,40.14,8.46
5.5435,-9.8748,-2.7786,0.47586,-0.91721,1.6771,-19.86,40.8,8.4
5.6116,-10.079,-2.7241,0.40684,-0.95112,1.5577,-18.9,41.4,8.34
5.4209,-9.6704,-2.942,0.25504,-0.54275,1.2605,-17.04,42.6,7.8
5.5843,-10.256,-2.8194,0.15516,-0.16982,0.95875,-16.02,43.14,7.74
5.8159,-11.319,-2.5061,0.029932,0.12156,0.64599,-15.12,43.62,7.56
6.6059,-13.321,-1.3076,-0.080023,0.35919,0.34422,-13.32,44.4,7.02
6.6059,-13.021,-0.76274,-0.20036,0.59987,0.047647,-12.6,44.94,6.78
6.5922,-12.054,-0.40861,-0.27886,0.76511,-0.27336,-11.88,45.3,6.6
6.1973,-9.0848,-0.21793,-0.15211,0.60231,-0.84147,-10.92,45.96,6.24
5.8976,-8.0496,-0.40861,0.035125,0.18998,-1.1906,-10.56,46.26,6.3
5.7886,-7.3141,-0.29965,0.24038,-0.44196,-1.4826,-10.32,46.44,6.3
5.9112,-7.6002,0.24517,0.39492,-1.2434,-1.7019,-10.38,46.56,6.42
5.8295,-8.6762,0.9398,0.45326,-2.0965,-1.8411,-10.56,46.44,6.42
5.4754,-10.365,1.471,0.45204,-2.7852,-1.8552,-10.92,46.38,6.36
5.4073,-12.803,2.4244,0.38087,-3.2865,-1.8411,-12.06,46.08,6.6
5.1894,-13.389,2.7786,0.30024,-3.5311,-1.9004,-12.9,45.84,6.6
4.3585,-13.348,2.8875,0.26114,-3.332,-2.0119,-13.74,45.36,6.9
3.7728,-12.912,2.547,0.24068,-2.9822,-2.1728,-15.78,44.7,7.68
3.6366,-12.503,2.4108,0.24374,-2.668,-2.3576,-16.8,44.22,8.28
3.7047,-12.354,2.4789,0.23488,-2.4285,-2.5314,-17.94,43.62,8.7
3.6366,-12.136,2.3155,0.17868,-2.1408,-2.6841,-20.22,42.36,9.96
3.514,-11.891,2.152,0.17074,-2.0238,-2.7397,-21.48,41.52,10.56
3.4596,-11.468,2.1793,0.18051,-2.0021,-2.7791,-22.8,40.68,11.34
3.4187,-11.21,2.4517,0.18326,-2.0378,-2.7797,-23.88,39.84,11.94
2.9965,-10.828,2.4108,0.17257,-2.0024,-2.6912,-26.28,37.98,13.68
2.833,-10.542,2.3155,0.15455,-1.8466,-2.5873,-27.54,36.96,14.46
2.7377,-10.243,1.8387,0.14936,-1.6872,-2.4584,-28.62,35.82,15.36
2.656,-9.7658,1.6481,0.18448,-1.5195,-2.2281,-30.54,33.6,17.22
2.7649,-9.616,1.4982,0.19426,-1.4875,-2.1408,-31.5,32.46,18.06
2.7513,-9.5751,1.2939,0.22999,-1.4438,-1.9816,-32.34,31.32,18.78
2.7786,-9.0303,1.1441,0.29932,-1.4923,-1.6857,-33.96,28.92,20.22
2.7786,-8.8805,0.89894,0.35552,-1.5443,-1.4798,-34.62,27.78,20.94
2.6832,-9.2074,0.46309,0.42058,-1.5928,-1.2452,-35.1,26.64,21.54
2.7513,-9.6977,0.095342,0.54062,-1.6344,-0.74739,-35.7,24.54,23.1
2.7786,-9.8611,-0.17706,0.57971,-1.6435,-0.55161,-35.76,23.64,23.82
2.656,-10.065,-0.23155,0.64049,-1.5983,-0.11362,-35.82,22.92,24.66
2.6151,-10.801,-0.50395,0.68661,-1.2807,0.56902,-35.64,21.54,25.92
2.5334,-10.774,-0.57205,0.6973,-0.90072,0.96608,-35.4,21.0,26.52
2.4108,-10.433,-0.92618,0.72357,-0.42119,1.295,-35.16,20.7,26.94
2.3699,-7.8045,-1.9068,0.8094,0.30238,1.595,-34.38,20.34,27.9
2.5334,-6.0611,-2.5879,0.85491,0.46578,1.6353,-33.84,20.4,28.32
2.8058,-5.1485,-3.0782,0.96669,0.53848,1.6341,-33.36,20.58,28.68
3.3097,-4.6445,-3.6503,1.0919,-0.1347,1.6109,-32.88,20.88,29.1
3.8001,-6.0611,-3.6366,1.1561,-0.90652,1.5708,-32.34,21.3,29.28
3.9771,-8.9622,-3.2553,1.1579,-1.6509,1.5302,-31.2,22.38,29.76
3.5413,-10.392,-2.8603,1.0183,-2.1393,1.397,-30.3,23.28,29.94
2.5879,-11.55,-2.1793,0.91721,-2.0644,1.3561,-28.8,24.78,30.18
2.0294,-11.06,-2.152,0.63958,-1.2593,1.2245,-27.96,25.68,30.36
1.866,-10.106,-2.4789,0.49388,-0.4102,1.1729,-26.88,26.7,30.54
2.2201,-9.6841,-2.6015,0.44685,0.16982,1.106,-25.86,27.66,30.6
2.9829,-9.2074,-2.6015,0.4554,0.42761,1.0931,-24.84,28.56,30.72
3.5685,-9.1256,-2.3699,0.45387,0.44929,1.1295,-22.98,30.3,30.84
4.018,-9.1529,-2.1112,0.46914,0.1014,1.1988,-21.9,31.08,30.9
4.304,-9.0575,-2.0567,0.47861,-0.3427,1.259,-21.06,31.98,30.84
4.3313,-8.6353,-2.0431,0.50793,-0.82772,1.274,-18.84,33.42,30.84
4.1678,-8.5127,-2.0158,0.50855,-1.2245,1.2425,-17.76,34.14,30.84
3.8954,-8.322,-2.0294,0.50549,-1.4358,1.1609,-16.56,34.86,30.96
3.732,-8.3084,-1.9341,0.43066,-1.4471,1.0302,-14.34,36.06,30.78
3.7865,-8.2948,-1.866,0.37415,-1.401,0.94379,-13.2,36.6,30.72
3.7728,-8.2403,-1.866,0.34147,-1.397,0.89889,-12.18,37.32,30.54
3.9635,-8.2812,-2.0022,0.23671,-1.354,0.68264,-10.26,38.22,30.18
4.0316,-8.1586,-1.9613,0.15944,-1.2547,0.51954,-9.24,38.7,30.0
4.0316,-8.0088,-1.975,0.090713,-1.0779,0.34239,-8.22,39.12,29.94
4.1542,-7.9951,-1.8524,-0.014966,-0.78679,0.061697,-6.3,39.9,29.52
4.1814,-8.0088,-1.8387,-0.089492,-0.61636,-0.13928,-5.46,40.38,29.52
4.1814,-8.2812,-1.6753,-0.16096,-0.47159,-0.32895,-4.56,40.68,29.52
4.2768,-8.5127,-1.2939,-0.22083,-0.34636,-0.5623,-2.94,41.22,29.4
4.1542,-8.54,-1.0351,-0.25992,-0.22022,-0.83902,-2.1,41.46,29.4
4.0997,-8.9894,-0.76274,-0.29505,-0.075136,-1.1173,-1.56,41.46,29.4
4.5492,-13.062,0.14982,-0.3091,0.042761,-1.3363,-1.08,41.7,29.58
4.8488,-14.547,0.47671,-0.27672,0.14752,-1.321,-0.84,41.64,29.7
5.0531,-15.609,0.83084,-0.22052,0.16982,-1.3137,-0.84,41.58,29.88
5.0259,-14.397,1.9613,-0.13592,0.12462,-1.3118,-1.26,41.4,30.18
4.8352,-12.408,2.3427,0.027489,0.0018326,-1.3772,-1.44,41.16,30.3
4.4811,-10.61,2.547,0.30513,-0.36408,-1.4725,-1.92,41.1,30.3
4.304,-10.665,2.4517,0.65546,-0.93921,-1.4264,-3.0,40.68,30.54
4.3449,-10.896,2.3563,1.2129,-2.0327,-1.2407,-3.54,40.38,30.54
4.4402,-10.801,2.2474,1.5,-2.773,-1.146,-4.08,40.26,30.54
3.9908,-10.365,2.1384,1.6671,-3.3341,-1.1289,-5.16,40.14,30.48
3.4732,-9.9292,1.9886,1.6722,-3.6569,-1.1438,-5.7,40.14,30.42
3.1463,-9.6704,1.9477,1.5525,-3.7293,-1.1756,-6.0,40.26,30.3
2.6696,-9.7658,1.5663,1.357,-3.7073,-1.2046,-6.3,40.44,29.64
2.5742,-9.8884,1.3484,0.99174,-3.4743,-1.2584,-6.6,40.44,29.1
2.3155,-9.7658,1.1169,0.71899,-3.186,-1.2724,-6.54,40.68,28.2
2.3563,-9.9837,1.1305,0.44349,-2.8298,-1.2242,-6.48,40.8,27.72
2.438,-10.188,1.3893,0.21777,-2.5045,-1.1313,-6.42,41.04,27.24
2.4108,-10.161,1.5391,0.07086,-2.211,-1.0388,-6.3,41.16,26.7
2.3563,-10.243,1.471,-0.039095,-1.9096,-0.9502,-5.7,41.7,25.68
2.4517,-10.283,1.5663,-0.053145,-1.5134,-0.82925,-5.4,42.06,25.08
2.6151,-10.365,1.3212,-0.030543,-1.4138,-0.79443,-5.1,42.18,24.66
2.6968,-10.474,1.3076,0.049175,-1.2092,-0.66798,-4.68,42.42,23.82
2.6696,-10.978,1.3484,0.090408,-1.1539,-0.59804,-4.5,42.36,23.64
1.9205,-11.25,1.5119,0.061392,-1.0757,-0.42302,-4.44,42.36,23.22
0.95342,-11.986,1.2531,0.027794,-0.86193,-0.26298,-4.5,42.3,22.74
1.0624,-12.681,0.89894,0.043677,-0.59559,0.082467,-4.32,42.3,22.68
1.1577,-12.98,0.54481,0.078496,-0.44593,0.29596,-4.32,42.18,22.5
0.9398,-13.511,-0.081722,0.087965,-0.38087,0.39859,-4.2,42.12,22.02
0.89894,-13.702,-0.1362,0.078496,-0.31826,0.81856,-4.14,41.88,21.78
0.89894,-13.784,-0.12258,0.057421,-0.30452,1.0629,-3.9,41.82,21.72
0.6674,-13.184,-0.47671,0.05284,-0.24587,1.2553,-3.48,41.52,21.3
0.7355,-12.531,-0.57205,0.11148,-0.2529,1.4316,-3.36,41.34,21.24
0.96704,-11.06,-1.4165,0.29474,-0.31551,1.3668,-2.46,40.98,21.06
0.99429,-8.1177,-2.0022,0.37232,-0.39218,1.3094,-1.98,40.86,20.82
0.58567,-7.6138,-2.3563,0.562,-0.80787,1.149,-1.62,40.68,20.64
0.46309,-7.9951,-2.5334,0.60384,-1.0913,1.066,-1.14,40.56,20.46
0.61292,-9.0031,-2.3155,0.55558,-1.233,0.96853,0.18,40.38,20.1
0.40861,-9.4525,-2.3155,0.32193,-1.0033,0.91752,0.78,40.2,19.8
0.12258,-9.5479,-1.7025,0.22052,-0.79443,0.91935,2.46,39.96,19.5
-0.095342,-9.1393,-1.471,0.015577,-0.1686,0.90286,3.42,39.96,19.44
0.57205,-8.826,-1.58,-0.208,0.95142,0.8262,4.32,39.9,19.38
0.96704,-8.7579,-1.6072,-0.24312,1.4071,0.79382,5.1,39.78,19.38
1.9886,-8.0224,-1.5391,-0.23366,1.6466,0.76267,6.66,39.42,19.56
2.4653,-7.5048,-1.5391,-0.17471,1.573,0.7196,7.32,39.36,19.56
3.1191,-7.1507,-1.4165,-0.12553,1.4566,0.70891,8.52,39.36,19.5
3.4596,-7.1234,-1.4846,-0.070555,1.0947,0.68997,9.12,39.3,19.56
3.7047,-7.1371,-1.5527,0.028711,0.39798,0.56077,9.84,39.3,19.5
3.5685,-6.96,-1.6208,0.068722,0.021075,0.46762,10.92,39.0,19.5
3.2825,-6.9191,-1.7706,0.10049,-0.19151,0.35766,11.4,38.76,19.62
2.9965,-7.0962,-1.7706,0.10018,-0.25901,0.26114,11.82,38.82,19.74
2.8467,-7.2188,-1.9613,0.084605,-0.19731,0.13744,12.36,38.64,19.74
2.833,-7.4503,-1.9886,0.073915,-0.099266,0.072082,12.6,38.34,19.68
2.9284,-7.7772,-1.9886,0.059865,-0.058643,0.055894,12.72,38.4,19.68
2.9965,-8.9622,-2.2746,0.067195,-0.018937,0.036346,13.14,38.22,19.5
3.0782,-9.6023,-2.3427,0.062003,-0.026573,0.039401,13.32,38.16,19.32
3.1463,-10.188,-2.4108,0.057116,-0.0064141,0.048258,13.68,37.8,19.14
3.1599,-10.828,-2.4108,0.051007,0.12401,0.013439,13.68,37.8,19.14
3.0373,-10.774,-2.1929,0.085216,0.30299,-0.031154,13.98,37.56,18.84
3.0101,-10.488,-2.152,0.14019,0.44135,-0.059865,13.98,37.44,18.78
3.4323,-10.447,-2.1112,0.25045,0.43982,-0.06353,14.22,37.44,18.66
4.0861,-11.155,-1.6889,0.35186,0.28711,-0.018631,14.28,37.26,18.36
4.3449,-11.577,-1.471,0.39248,0.091935,0.14661,14.1,37.14,18.24
4.7399,-12.435,-0.78998,0.38668,-0.037263,0.20586,14.16,37.32,18.06
4.9987,-11.85,-0.47671,0.28863,-0.040012,0.25931,14.16,37.14,17.76
5.5707,-11.278,-0.17706,0.20861,-0.11881,0.12462,13.98,37.2,17.58
5.8159,-11.536,-0.12258,0.17135,-0.27214,-0.20281,13.8,37.08,17.4
5.5026,-11.128,0.081722,0.1689,-0.50152,-0.63347,13.8,36.9,17.22
5.1213,-11.128,0.17706,0.18204,-0.77916,-1.0498,13.68,36.96,16.74
4.9306,-11.278,0.31327,0.20861,-1.0473,-1.3946,13.38,36.96,16.32
4.7671,-11.128,0.43585,0.23518,-1.2495,-1.8576,13.26,36.78,16.14
4.0316,-10.42,0.34051,0.22022,-1.2278,-2.0956,13.08,36.66,15.72
3.5413,-9.793,0.20431,0.20311,-1.2083,-2.2743,12.42,36.48,15.18
3.228,-9.0848,0.28603,0.17471,-1.1994,-2.3689,11.88,36.12,14.82
3.1191,-8.8941,0.25879,0.13378,-1.2385,-2.4007,11.46,35.94,14.46
2.9284,-8.2539,0.19068,0.10476,-1.3134,-2.3958,10.44,35.94,13.74
2.6968,-7.6138,0.12258,0.087354,-1.4145,-2.332,9.06,35.94,12.9
2.5742,-7.5321,0.054481,0.047342,-1.5678,-2.1896,7.8,35.82,12.12
2.3699,-7.5593,0.054481,0.041233,-1.6234,-2.0684,7.26,35.88,11.76
2.0703,-7.7364,-0.068102,0.03146,-1.5855,-1.9193,6.12,35.76,11.1
2.1248,-8.2131,-0.12258,0.027794,-1.5272,-1.7242,5.52,35.88,10.68
1.9477,-9.3163,-0.19068,0.019548,-1.4606,-1.4954,4.44,36.12,9.9
1.7706,-11.182,-0.42223,-0.0085521,-1.2752,-1.0394,3.24,36.24,9.42
1.8524,-11.891,-0.36775,-0.027794,-1.1909,-0.8769,2.7,36.36,9.0
1.7843,-13.743,-0.28603,-0.083994,-0.9276,-0.35155,1.86,36.66,8.46
1.3757,-13.988,0.027241,-0.12675,-0.6857,-0.02474,1.56,36.54,8.1
1.2395,-13.539,0.040861,-0.1631,-0.43555,0.30452,1.2,36.54,7.98
0.99429,-12.64,-0.16344,-0.15333,-0.26573,0.66462,0.9,36.54,7.68
1.1713,-12.612,-0.1362,-0.10721,-0.10263,1.2068,0.84,36.6,7.62
1.3212,-12.531,0.12258,-0.072082,0.043677,1.5641,0.9,36.72,7.44
1.471,-12.217,0.40861,-0.039706,0.27031,1.9126,1.2,36.72,7.44
1.7706,-11.427,0.35413,0.0061087,0.49602,2.1557,1.44,36.6,7.56
2.547,-9.8611,-0.23155,0.051007,0.6243,2.2028,2.22,36.6,7.56
2.5198,-8.4174,-0.68102,0.15669,0.60659,1.9975,3.24,36.6,7.68
2.4244,-8.3629,-0.77636,0.3259,0.52718,1.7932,3.78,36.48,7.8
2.4108,-8.717,-1.185,0.38729,0.50244,1.606,4.98,36.3,8.04
2.6015,-8.9349,-1.6072,0.38271,0.5171,1.4591,6.36,36.24,8.28
2.7377,-9.0575,-1.7025,0.30788,0.5849,1.3796,7.08,36.18,8.4
2.5742,-8.8668,-1.6208,0.16585,0.72326,1.3708,8.4,35.94,8.46
2.4789,-8.036,-1.2667,-0.015272,0.95631,1.3946,9.6,35.64,8.88
2.4653,-7.6683,-1.2531,-0.24404,1.4419,1.4276,10.38,35.58,9.06
2.3563,-7.1915,-1.3757,-0.34208,1.7715,1.4175,11.82,35.46,9.6
2.5742,-6.8102,-1.3348,-0.4102,2.1075,1.4377,12.96,35.16,10.02
2.9284,-6.5378,-1.1577,-0.42822,2.2489,1.4493,13.44,35.04,10.32
3.1735,-6.4152,-1.0079,-0.42516,2.2571,1.4563,14.4,34.92,10.8
3.6911,-6.7693,-1.0215,-0.40714,2.1402,1.4578,15.48,34.8,11.52
4.127,-7.1234,-1.0896,-0.37935,1.948,1.3992,16.14,34.56,12.18
4.3313,-7.355,-1.0624,-0.26848,1.504,1.2547,16.44,34.32,12.54
4.6445,-8.4855,-1.4982,-0.16005,1.138,1.1292,17.16,34.08,13.38
4.6718,-8.8668,-1.5663,-0.071777,0.80054,1.0064,17.46,34.02,13.56
4.8216,-10.025,-1.5119,0.015272,0.56169,0.87842,17.94,33.48,14.34
4.5356,-10.992,-1.6072,0.070555,0.43463,0.73884,18.54,33.24,14.76
4.4539,-11.005,-1.5663,0.12278,0.4496,0.58979,18.78,33.06,15.12
4.0861,-10.106,-1.5119,0.17562,0.62889,0.43097,19.14,32.88,15.6
4.3177,-9.6704,-1.58,0.29596,0.81856,0.26573,19.56,32.52,15.72
4.808,-10.529,-1.3757,0.40531,0.70738,0.24251,19.86,32.46,15.72
4.9578,-11.427,-1.1577,0.51221,0.49938,0.27611,19.98,32.4,15.9
5.2438,-12.354,-0.96704,0.59407,0.25381,0.35308,20.28,32.46,15.96
5.6388,-12.054,-0.96704,0.64538,0.0054978,0.39004,20.46,32.28,15.84
5.5707,-10.774,-0.69464,0.6915,-0.40073,0.27611,20.7,32.4,15.36
5.6116,-10.052,-0.64016,0.69119,-0.74342,0.049786,20.94,32.46,15.18
5.7342,-10.093,-0.5993,0.64202,-1.1747,-0.24129,20.94,32.52,14.76
5.7069,-10.311,-0.34051,0.58399,-1.6432,-0.57788,21.18,32.64,14.52
5.6388,-10.801,0.054481,0.49511,-2.1359,-0.93859,21.24,32.82,13.92
4.8897,-11.891,0.24517,0.36408,-2.4257,-1.3384,21.54,33.0,13.56
3.514,-11.427,0.27241,0.12523,-2.2712,-1.9969,21.66,33.12,12.84
3.0918,-11.155,0.31327,-0.054672,-1.7633,-2.3921,21.78,33.0,12.48
2.9011,-10.569,0.35413,-0.18143,-1.2804,-2.729,21.54,33.36,11.64
2.7649,-9.9156,0.32689,-0.24832,-0.93676,-2.9618,21.0,33.6,10.98
2.7649,-9.6568,0.21793,-0.27306,-0.70983,-3.091,20.58,33.66,10.5
2.7649,-8.7579,0.23155,-0.26725,-0.60689,-3.1328,19.38,34.02,9.84
2.8739,-8.4446,0.16344,-0.24251,-0.70433,-3.032,17.94,34.38,9.0
2.9011,-8.3629,0.16344,-0.23152,-1.128,-2.908,17.1,34.44,8.7
2.6423,-8.6081,0.14982,-0.24832,-1.419,-2.7397,15.36,34.98,7.98
2.5198,-8.7306,0.14982,-0.29658,-1.6338,-2.5064,13.2,35.7,7.5
2.152,-9.4389,0.068102,-0.37293,-1.7223,-2.2544,12.12,36.0,7.26
1.7843,-10.379,0.12258,-0.4496,-1.6649,-1.9193,10.02,36.84,6.72
1.7434,-11.032,0.10896,-0.52076,-1.4743,-1.5522,8.16,37.62,6.36
1.7843,-11.496,0.17706,-0.5678,-1.0773,-1.0116,6.36,38.4,6.18
1.7298,-11.904,0.12258,-0.55039,-0.76694,-0.62125,5.64,38.64,6.06
1.866,-12.939,0.095342,-0.49694,-0.45418,-0.21105,4.14,39.18,6.24
2.0839,-13.157,0.16344,-0.3937,-0.23549,0.1912,3.18,39.66,6.06
2.4244,-12.939,0.040861,-0.2532,-0.16096,0.60812,2.28,40.08,6.18
2.4653,-12.871,0.095342,-0.11759,-0.19517,1.0046,2.04,40.2,6.18
2.4244,-12.681,0.40861,-0.0061087,-0.28253,1.3448,1.92,40.38,6.06
2.3836,-12.217,0.47671,0.14661,-0.35247,1.7602,2.04,40.5,6.24
2.3836,-11.591,0.12258,0.25229,-0.32101,1.9609,2.16,40.56,6.24
2.4789,-10.311,-0.24517,0.35766,-0.28436,2.0644,2.76,40.26,6.36
2.4244,-8.9894,-0.55843,0.43921,-0.22266,2.0287,3.6,40.14,6.42
2.3018,-8.7306,-0.5993,0.49511,-0.080023,1.9331,4.26,40.14,6.3
2.0158,-8.6898,-0.99429,0.52137,0.14447,1.8567,5.28,40.08,6.36
2.4244,-9.0984,-1.5119,0.50793,0.46914,1.8054,6.72,40.02,6.36
2.547,-9.0031,-1.6481,0.47495,0.64141,1.8088,7.44,39.72,6.36
2.5742,-9.0031,-1.8387,0.40287,0.77122,1.8491,9.06,39.12,6.36
2.6696,-8.6625,-1.6072,0.30604,0.89431,1.8934,10.38,38.7,6.54
2.656,-8.4174,-1.6889,0.17776,1.0574,1.9056,11.16,38.46,6.54
2.656,-7.7091,-1.9341,0.080023,1.2391,1.8833,12.9,37.92,6.72
2.7513,-7.1915,-1.9477,-0.027184,1.4664,1.7877,14.7,37.5,6.84
2.8194,-6.9328,-1.9613,-0.090408,1.5861,1.7092,15.48,37.38,7.02
3.2689,-6.5786,-1.7706,-0.12859,1.5592,1.649,17.16,36.78,7.26
3.5413,-6.5241,-1.6072,-0.15852,1.4001,1.5504,18.78,36.36,7.68
3.514,-6.5786,-1.58,-0.17837,1.2132,1.4392,20.1,35.76,7.98
3.4459,-6.7285,-1.6208,-0.17715,1.0763,1.3344,20.58,35.52,8.22
3.5413,-7.464,-1.7979,-0.1463,0.90561,1.142,21.84,35.34,8.46
3.5549,-8.54,-1.8524,-0.13103,0.84147,1.0241,23.1,34.92,8.88
3.6775,-9.2346,-1.7706,-0.13653,0.85063,0.91752,23.58,34.74,9.06
3.732,-10.188,-1.7843,-0.14111,0.9163,0.81856,24.42,34.26,9.42
3.8273,-10.583,-1.6481,-0.14203,1.0412,0.71441,25.14,33.72,9.9
4.0316,-10.338,-1.6072,-0.11209,1.1784,0.5904,25.5,33.48,10.14
4.3313,-9.9973,-1.5255,-0.020769,1.2089,0.47739,25.74,33.24,10.38
4.6718,-9.9565,-1.6344,0.1741,0.93982,0.27306,26.04,33.06,10.68
4.7671,-10.883,-1.4574,0.29291,0.64232,0.12614,26.16,33.0,10.92
4.8625,-12.0,-1.2258,0.36621,0.38179,0.0018326,26.4,33.0,10.98
5.0259,-13.116,-1.076,0.38912,0.23182,-0.1182,26.7,32.88,11.04
4.9033,-13.225,-0.7355,0.38546,0.23549,-0.29719,26.88,32.64,11.34
4.8761,-12.149,-0.57205,0.33659,0.3204,-0.54734,26.82,32.46,11.46
4.8216,-10.896,-0.50395,0.3207,0.25015,-1.0321,26.76,32.4,11.58
4.7671,-9.8475,-0.40861,0.35247,-0.039095,-1.3314,26.52,32.58,11.7
4.7807,-10.556,-0.17706,0.39706,-0.44166,-1.5617,26.4,32.76,11.94
4.6854,-11.332,0.095342,0.43982,-0.8882,-1.744,25.74,33.06,11.88
4.3313,-11.605,0.21793,0.43341,-1.2917,-1.9154,25.32,33.24,11.82
3.9771,-11.182,0.24517,0.41569,-1.3665,-2.047,24.78,33.54,11.7
3.8001,-10.815,0.054481,0.41294,-1.3656,-2.182,24.42,33.9,11.52
3.2689,-10.038,0.054481,0.38179,-1.3079,-2.2822,23.88,34.02,11.22
3.1327,-9.0984,-0.068102,0.34575,-1.2804,-2.343,22.56,34.5,10.68
3.0237,-8.7034,-0.095342,0.32254,-1.416,-2.4044,21.6,34.98,10.56
2.7377,-8.0769,-0.28603,0.30635,-1.4716,-2.3995,19.62,35.76,9.84
2.5606,-7.6683,-0.25879,0.23213,-1.5238,-2.3158,18.36,36.3,9.48
2.5606,-7.3958,-0.12258,0.18876,-1.5876,-2.2303,17.22,36.84,9.0
2.4789,-7.2869,-0.14982,0.14752,-1.701,-2.1212,16.08,37.32,8.46
2.1929,-7.641,-0.19068,0.097433,-1.7715,-1.9444,13.26,38.22,7.38
2.0703,-7.8045,-0.16344,0.055283,-1.7813,-1.7489,11.88,38.64,6.9
1.9341,-8.9077,-0.34051,0.0030543,-1.646,-1.3311,9.12,39.48,5.76
1.9886,-9.8611,-0.42223,-0.023824,-1.573,-1.1637,7.86,39.9,5.16
2.152,-10.665,-0.54481,-0.055589,-1.4251,-0.7981,6.48,40.32,4.68
2.2474,-11.468,-0.50395,-0.1237,-1.1243,-0.23091,5.22,40.62,4.38
2.3972,-12.967,-0.51757,-0.17318,-0.84941,0.14661,3.06,41.16,3.72
2.3155,-13.838,-0.64016,-0.23152,-0.55131,0.489,2.16,41.28,3.3
2.0839,-13.593,-0.57205,-0.31887,-0.092852,0.93921,0.66,41.76,3.06
1.8932,-13.021,-0.50395,-0.33995,0.15088,1.2068,0.3,41.82,2.94
1.8251,-12.735,-0.42223,-0.32834,0.29627,1.4893,-0.06,41.88,2.88
1.8115,-12.967,-0.31327,-0.29138,0.34972,1.8243,-0.3,41.94,2.88
1.6344,-13.321,-0.16344,-0.22969,0.41508,2.1322,-0.24,42.0,3.0
1.6072,-13.225,-0.29965,-0.16921,0.50885,2.3482,-0.12,42.0,3.06
1.9068,-11.169,-0.55843,-0.086437,0.63316,2.4557,0.48,42.0,3.36
2.1384,-9.6841,-0.95342,0.013439,0.74556,2.3112,1.02,41.88,3.66
2.1929,-8.5808,-1.3757,0.09163,0.75289,2.0873,1.86,41.7,3.9
2.1929,-8.1995,-1.7025,0.13378,0.68081,1.8787,2.46,41.52,4.02
2.4789,-8.9758,-1.7298,0.1127,0.5736,1.7052,4.2,41.46,4.5
2.6423,-9.1801,-1.6072,0.062003,0.5397,1.5617,5.28,41.22,4.86
2.6696,-8.3765,-1.3757,-0.056505,0.63408,1.4795,7.32,40.92,5.34
2.6287,-7.8181,-1.362,-0.22541,0.97555,1.3916,8.4,40.74,5.7
2.5742,-7.3005,-1.3212,-0.30421,1.3201,1.3289,9.54,40.68,5.94
2.6015,-7.0417,-1.2939,-0.34606,1.6307,1.281,10.56,40.32,6.18
3.0918,-6.1836,-1.2395,-0.34361,1.7819,1.2404,12.54,39.84,6.72
3.2553,-5.993,-1.1577,-0.32406,1.7923,1.208,13.62,39.6,7.14
3.4868,-5.9521,-1.0351,-0.29199,1.6701,1.1658,14.58,39.42,7.38
3.8954,-6.1019,-1.3484,-0.25107,1.3925,1.1051,16.44,38.76,8.28
3.8818,-6.3062,-1.4165,-0.18876,1.0143,1.0244,17.16,38.52,8.7
3.6775,-6.6059,-1.4029,-0.12553,0.58093,0.87293,18.0,38.34,9.18
3.623,-8.322,-1.4574,-0.10018,0.52168,0.7758,19.44,37.74,9.9
3.732,-9.4798,-1.4574,-0.091324,0.63377,0.67959,19.98,37.56,10.2
3.5822,-11.55,-1.0896,-0.061392,1.1032,0.45509,20.94,37.08,10.92
3.5822,-11.55,-1.0896,-0.010385,1.5751,0.30329,20.94,37.08,10.92
3.732,-10.924,-1.1032,0.034819,1.7593,0.2584,21.36,36.9,11.28
4.699,-10.733,-1.1305,0.27978,1.7764,0.18418,21.9,36.54,12.12
5.094,-11.332,-1.1441,0.49083,1.4087,0.25748,22.08,36.42,12.54
5.4481,-11.741,-1.2258,0.68295,0.83933,0.3598,22.26,36.12,13.02
6.2109,-12.694,-1.1713,0.83811,0.10507,0.42547,22.38,36.06,13.38
6.0338,-12.408,-1.1577,0.95112,-0.85002,0.29505,22.44,36.12,13.5
5.4754,-11.305,-1.1169,0.91996,-1.1988,0.048258,22.62,36.18,13.56
5.1349,-10.079,-0.96704,0.84727,-1.4587,-0.23182,22.74,36.12,13.5
5.1076,-10.706,-0.68102,0.73793,-1.7349,-0.53329,22.74,36.18,13.56
4.8352,-11.278,-0.57205,0.6127,-1.9355,-0.90072,22.62,36.3,13.26
4.0861,-10.869,-0.35413,0.39554,-1.8882,-1.4242,22.5,36.72,12.72
3.7728,-10.365,-0.27241,0.25229,-1.6955,-1.7089,22.26,36.78,12.36
3.6639,-10.052,-0.12258,0.13989,-1.5278,-1.9575,21.9,37.08,11.94
3.2416,-9.2755,-0.10896,0.065973,-1.3803,-2.1747,21.18,37.38,10.98
2.9556,-8.8805,-0.12258,0.037263,-1.2547,-2.3769,20.64,37.68,10.32
2.7649,-8.2539,-0.068102,0.0082467,-1.1536,-2.5229,20.16,37.98,9.84
2.8058,-7.3822,-0.095342,-0.026267,-1.1588,-2.5852,18.78,38.34,8.76
2.8603,-7.3277,-0.081722,-0.043677,-1.3283,-2.5864,17.82,38.46,8.28
2.833,-7.2052,-0.081722,-0.069028,-1.62,-2.5336,16.68,38.64,7.68
2.6423,-7.4912,-0.054481,-0.11637,-1.8989,-2.4315,14.22,39.3,6.9
