Ax,Ay,Az,Gx,Gy,Gz,Mx,My,Mz
1.7979,-8.3765,-0.72188,0.10996,-1.2312,-0.72876,9.12,49.8,-5.94
1.6753,-8.717,-0.70826,0.19853,-1.1622,-0.59834,8.04,49.98,-6.0
1.5119,-9.0712,-0.70826,0.23366,-0.99143,-0.35797,7.14,50.28,-6.06
1.2939,-9.6704,-0.40861,0.18784,-0.79626,-0.1689,5.4,50.82,-6.42
1.4165,-10.147,-0.24517,0.14783,-0.54367,0.12859,4.5,51.18,-6.78
1.757,-10.733,-0.20431,0.16188,-0.5226,0.22969,3.18,51.66,-7.44
1.7979,-10.924,-0.38137,0.33811,-0.66279,0.51465,2.88,51.78,-7.74
1.8251,-10.951,-0.50395,0.42058,-0.73976,0.57879,2.58,52.02,-8.1
0.99429,-10.924,-0.38137,0.51099,-0.90042,0.78618,2.46,52.26,-8.76
0.095342,-11.291,0.21793,0.40531,-0.81978,0.96395,2.34,52.14,-9.12
-0.21793,-11.101,0.7355,0.17776,-0.44746,1.1625,2.28,52.08,-9.42
-0.24517,-9.793,0.44947,0.0051924,0.080634,1.3234,2.4,51.84,-9.78
0.14982,-9.4798,-0.1362,-0.002138,0.53023,1.4349,2.58,51.72,-9.96
0.36775,-9.3027,-0.44947,0.14997,0.76053,1.4777,2.88,51.66,-10.02
0.83084,-9.5751,-0.8036,0.4383,0.759,1.4279,3.78,51.36,-10.08
0.85808,-9.507,-0.9398,0.54062,0.72846,1.3619,4.26,51.06,-9.96
0.76274,-9.4798,-0.96704,0.56963,0.70921,1.3066,4.98,50.7,-9.78
1.0624,-9.6841,-1.2258,0.56841,0.62369,1.2691,6.66,50.1,-9.42
1.1169,-9.6841,-1.6617,0.58124,0.56749,1.2883,7.32,49.8,-9.18
1.2395,-9.7385,-1.9341,0.60842,0.55955,1.2978,8.4,49.38,-9.12
1.4029,-9.6296,-2.3563,0.72571,0.5006,1.3051,10.68,48.72,-8.76
1.6481,-9.1665,-2.547,0.79107,0.43249,1.2553,11.82,48.42,-8.58
1.8115,-8.8668,-2.4789,0.79871,0.29993,1.1591,13.14,48.06,-8.4
2.0567,-9.0575,-2.6151,0.75259,0.030543,0.96364,15.72,47.4,-8.46
2.0839,-9.3844,-2.7649,0.65668,-0.10751,0.81825,17.1,47.16,-8.46
1.975,-9.3572,-2.7513,0.53542,-0.10293,0.65851,18.36,46.8,-8.7
1.6481,-9.0984,-2.8058,0.41386,0.037568,0.52534,20.46,46.26,-9.24
1.757,-8.7987,-2.833,0.30177,0.27153,0.39492,21.24,46.02,-9.66
1.9613,-8.6625,-2.8194,0.20281,0.46548,0.29566,22.2,45.72,-9.96
2.3836,-8.1722,-2.9011,0.098655,0.62705,0.13164,23.82,45.3,-10.92
2.5061,-7.9134,-2.833,0.036652,0.61545,0.012828,24.6,45.12,-11.28
2.5198,-7.3141,-2.7241,-0.034514,0.58826,-0.14691,25.02,44.94,-11.52
2.547,-6.4424,-2.4925,-0.084299,0.5455,-0.35339,25.86,44.4,-12.0
2.6696,-7.0009,-2.3291,-0.081551,0.47678,-0.52321,26.34,44.16,-12.12
3.0373,-8.2539,-2.4517,-0.10904,0.31734,-0.63102,26.52,44.28,-12.3
3.514,-10.311,-2.6423,-0.22174,-0.10934,-0.73243,26.58,43.98,-12.48
3.3778,-11.019,-2.3699,-0.35461,-0.33872,-0.80084,26.52,44.04,-12.54
3.2416,-11.332,-2.1248,-0.49663,-0.42883,-0.93951,26.4,43.92,-12.48
2.9011,-12.381,-1.2531,-0.66187,-0.3372,-1.1109,25.92,43.92,-12.42
2.9965,-12.912,-1.1577,-0.7871,-0.21991,-1.3045,25.74,44.04,-12.12
3.2008,-13.362,-1.0351,-0.88178,-0.21686,-1.4975,25.44,44.34,-11.88
3.4596,-13.525,-0.70826,-0.90988,-0.4441,-1.7397,24.0,44.82,-11.58
3.337,-13.675,-0.46309,-0.87995,-0.63927,-1.8411,23.16,45.06,-11.46
3.1872,-13.634,-0.38137,-0.84299,-0.73884,-1.8775,22.26,45.12,-11.22
2.8603,-13.307,-0.28603,-0.69425,-0.96211,-1.8998,21.18,45.3,-11.16
2.3836,-12.435,-0.12258,-0.57971,-1.0308,-1.8564,18.78,46.14,-10.86
2.152,-12.0,-0.1362,-0.44838,-1.0907,-1.7633,17.46,46.32,-10.86
1.9068,-11.414,0.054481,-0.31093,-1.277,-1.5831,14.76,47.4,-10.62
1.5391,-11.319,0.19068,-0.18723,-1.689,-1.223,13.2,47.7,-10.62
1.1032,-11.278,0.25879,-0.17593,-1.7364,-1.0864,12.0,48.12,-10.62
0.19068,-11.032,0.51757,-0.18357,-1.6054,-0.81886,10.68,48.48,-10.5
-0.64016,-10.202,0.91256,-0.20311,-1.0342,-0.45082,7.92,49.32,-10.68
-0.70826,-9.1937,0.96704,-0.20983,-0.70952,-0.31093,6.6,49.44,-10.8
-0.76274,-8.1586,1.0624,-0.22999,-0.5507,-0.26389,5.46,49.56,-10.8
-1.362,-6.8238,0.95342,-0.2532,-0.52168,-0.22633,3.48,49.74,-11.1
-1.8387,-7.1779,0.83084,-0.22969,-0.49297,-0.17654,2.52,49.98,-11.28
-1.975,-7.8589,0.85808,-0.23457,-0.27581,0.020769,1.56,50.22,-11.4
-1.9068,-8.4855,0.85808,-0.35613,0.36774,0.49114,0.66,50.34,-11.82
-1.2803,-8.6489,0.50395,-0.29138,0.81184,0.8488,-0.6,50.28,-11.94
-0.40861,-8.7987,0.040861,-0.098349,1.0473,1.1588,-1.02,50.04,-11.88
1.1169,-10.283,-0.76274,0.31124,0.95997,1.4817,-1.38,49.68,-11.76
1.1577,-11.169,-0.83084,0.42241,0.91324,1.5528,-1.62,49.44,-11.46
1.2803,-11.659,-0.84446,0.70433,0.85765,1.6689,-1.5,49.26,-11.46
1.471,-12.081,-1.1305,0.82528,0.81001,1.678,-1.26,49.14,-11.28
1.6344,-11.931,-1.6753,0.88239,0.79138,1.6707,-0.78,48.78,-10.86
1.58,-10.351,-2.0975,0.93462,0.86743,1.649,0.42,48.24,-10.56
1.7025,-9.6704,-2.261,0.91141,0.92027,1.6197,1.14,48.0,-10.32
2.0022,-8.9486,-2.6015,0.8937,0.90133,1.6222,3.54,47.52,-9.9
2.2201,-8.6081,-2.7377,0.80451,0.6802,1.5876,4.92,47.16,-9.6
2.2882,-8.54,-2.8058,0.70524,0.48625,1.5235,6.24,46.86,-9.54
2.0022,-8.1041,-2.9148,0.57788,0.39034,1.4276,9.18,46.2,-9.18
1.9341,-7.9679,-2.8058,0.48045,0.40409,1.2898,10.62,46.02,-9.3
1.9613,-7.8045,-2.8058,0.37935,0.48991,1.1127,12.0,45.72,-9.42
2.3836,-7.7636,-2.8739,0.28314,0.53237,0.81489,14.88,45.18,-10.2
2.6423,-7.9543,-2.7649,0.27336,0.36041,0.62553,16.14,44.88,-10.44
2.7786,-8.0088,-2.833,0.24007,0.13164,0.47403,17.34,44.52,-10.74
2.8603,-8.145,-2.8058,0.21411,-0.055589,0.32926,18.48,44.4,-11.22
2.4653,-8.2131,-2.5742,0.16952,-0.13225,0.17013,20.4,44.04,-11.82
2.3427,-8.2812,-2.2882,0.11057,-0.094684,-0.010385,21.18,43.92,-12.06
2.4925,-9.3844,-1.975,0.080634,-0.033903,-0.19975,22.02,43.62,-12.6
2.9284,-10.733,-1.9886,0.029016,-0.0064141,-0.42302,22.56,43.56,-13.02
3.2144,-11.564,-1.9886,-0.027794,-0.053145,-0.47647,22.86,43.5,-13.26
3.2825,-11.632,-1.8387,-0.12278,-0.30207,-0.64691,23.28,43.5,-13.56
3.2553,-11.182,-1.58,-0.16218,-0.51374,-0.75228,23.46,43.32,-13.86
3.2144,-11.25,-1.185,-0.20281,-0.78221,-0.94287,23.46,43.44,-14.04
2.9965,-11.891,-1.0215,-0.22266,-0.85582,-1.0067,23.1,43.5,-14.04
2.9284,-12.204,-0.92618,-0.35613,-1.0024,-1.204,22.8,43.62,-14.22
2.9011,-12.258,-0.57205,-0.40164,-1.033,-1.2633,22.26,43.8,-14.28
2.7922,-12.204,-0.31327,-0.56322,-1.0931,-1.431,21.42,43.92,-14.16
2.5061,-11.645,0.01362,-0.6466,-1.0528,-1.5479,19.74,44.1,-14.1
2.3836,-11.237,0.040861,-0.68173,-0.9615,-1.6695,18.9,44.22,-14.16
2.3427,-10.501,0.054481,-0.66462,-0.89186,-1.6967,18.0,44.34,-14.22
2.1384,-9.1529,0.01362,-0.53176,-0.82772,-1.7159,15.78,44.82,-13.98
2.1793,-8.6898,0.054481,-0.3882,-0.75656,-1.6722,14.58,44.94,-13.92
2.2474,-8.3765,0.19068,-0.24374,-0.8039,-1.5559,13.14,45.12,-13.8
2.261,-8.1722,-0.027241,-0.11332,-0.89339,-1.4102,10.32,45.66,-13.92
2.2882,-8.0632,-0.1362,-0.0085521,-1.0201,-1.2388,9.0,45.6,-13.98
2.1656,-8.0088,-0.068102,0.0956,-1.2272,-0.94318,7.68,45.78,-14.1
2.0567,-8.0769,-0.20431,0.10721,-1.2624,-0.8491,6.36,45.84,-14.1
1.8251,-8.2812,-0.14982,0.081245,-1.3085,-0.6017,4.92,46.02,-14.16
1.8251,-8.2812,-0.14982,0.016493,-1.2452,-0.4664,4.92,46.02,-14.16
1.2122,-9.5206,-0.054481,-0.057727,-1.1139,-0.31887,3.84,46.2,-14.28
1.1986,-10.42,-0.31327,-0.097433,-0.96608,-0.17165,1.86,46.32,-14.64
1.0896,-10.869,-0.44947,-0.10996,-0.85888,-0.0027489,1.02,46.38,-15.0
1.076,-11.073,-0.35413,-0.11423,-0.75564,0.16371,0.12,46.62,-15.12
0.70826,-11.605,-0.31327,-0.09499,-0.62797,0.42302,-1.26,46.62,-15.66
0.47671,-12.245,-0.095342,-0.0956,-0.48747,0.62156,-1.86,46.38,-15.84
0.40861,-12.572,0.20431,-0.12309,-0.29077,0.82772,-2.22,46.32,-16.08
0.70826,-11.25,-0.40861,-0.025962,-0.16249,1.0098,-2.64,46.14,-16.44
1.1169,-10.896,-0.7355,0.21197,-0.24954,1.2052,-2.82,46.02,-16.56
1.5527,-10.61,-1.2939,0.52015,-0.5507,1.3094,-2.94,46.08,-16.62
1.4982,-10.583,-1.3212,0.832,-1.168,1.3436,-3.0,45.9,-16.68
1.1169,-10.406,-1.2667,0.8604,-1.3228,1.3201,-2.76,45.66,-16.74
0.64016,-10.351,-1.2939,0.76083,-1.4258,1.2297,-2.52,45.42,-16.8
-0.01362,-9.8339,-1.2803,0.59712,-1.2263,1.1698,-2.04,45.3,-16.92
-0.054481,-9.5479,-1.7025,0.36621,-0.68325,1.1051,-1.74,45.3,-16.8
0.16344,-9.1665,-2.0294,0.2926,-0.50793,1.0944,-0.78,45.06,-16.56
0.47671,-8.8805,-1.9613,0.1292,-0.10079,1.0427,-0.24,44.88,-16.26
0.61292,-8.7306,-1.9341,0.065057,0.07086,1.0067,0.42,44.88,-16.08
1.2531,-8.1722,-2.0158,0.032987,0.11637,0.95356,1.5,44.7,-15.66
1.4301,-7.7091,-2.0975,0.027184,0.04948,0.85674,2.22,44.64,-15.54
1.3757,-7.2869,-2.1248,0.034514,-0.03543,0.72968,3.12,44.46,-15.24
1.2667,-7.0962,-2.1793,0.038179,-0.10629,0.48869,4.68,44.4,-14.76
1.1032,-6.7829,-2.2201,-0.03543,-0.065668,0.2978,5.52,44.22,-14.52
1.0079,-6.7285,-2.2746,-0.13042,0.038179,0.10843,6.36,44.16,-14.34
0.81722,-6.9328,-2.1248,-0.24068,0.16768,-0.058643,7.8,43.74,-14.04
0.85808,-7.3005,-2.1248,-0.35919,0.28436,-0.23518,8.34,43.62,-13.8
0.83084,-7.5048,-1.9613,-0.49938,0.40989,-0.40806,9.42,43.32,-13.56
0.54481,-8.0632,-1.9205,-0.59468,0.68936,-0.61484,9.84,43.32,-13.5
0.76274,-8.4719,-2.0567,-0.5901,0.81459,-0.66248,10.14,43.38,-13.44
1.1713,-8.9758,-2.2882,-0.57055,0.80848,-0.67165,10.26,43.38,-13.32
1.7298,-9.5615,-2.1929,-0.49511,0.51068,-0.68783,10.62,43.2,-12.96
1.6753,-9.7113,-2.0703,-0.43127,0.24709,-0.71319,10.56,43.2,-12.9
1.4982,-9.7385,-2.1929,-0.36133,0.076969,-0.74159,10.5,43.32,-12.66
1.4438,-10.529,-1.9613,-0.27245,0.085521,-0.87384,10.14,43.26,-12.3
1.471,-11.673,-1.5663,-0.26481,0.20892,-0.97402,9.78,43.38,-12.18
1.58,-12.136,-1.3076,-0.27184,0.29047,-1.0256,9.3,43.2,-11.88
1.9068,-12.735,-1.2258,-0.24496,0.58277,-1.0999,8.88,43.32,-11.58
2.6015,-13.443,-1.6072,-0.10873,0.68692,-1.0244,7.92,43.62,-11.22
2.9284,-13.13,-1.866,0.042761,0.69333,-0.90469,7.2,43.74,-11.04
3.2553,-10.706,-1.7162,0.24312,0.63805,-0.80726,6.24,43.62,-10.74
3.3097,-9.6704,-1.7025,0.46029,0.29444,-0.76297,5.7,43.5,-10.5
3.337,-9.0303,-1.7843,0.50152,0.135,-0.78069,5.1,43.44,-10.44
3.3506,-8.7306,-1.6889,0.53787,-0.33201,-0.85827,4.44,43.5,-10.44
3.1191,-8.9894,-1.7979,0.50916,-0.56994,-0.87201,3.36,43.5,-10.62
2.9692,-9.2482,-1.8387,0.41264,-0.70005,-0.8265,2.58,43.38,-10.8
2.6832,-9.3844,-1.8387,0.24282,-0.67134,-0.74128,1.38,43.32,-10.92
2.7377,-9.1937,-1.6753,0.20433,-0.64232,-0.70188,0.72,43.14,-11.1
2.5198,-8.9622,-1.6481,0.10934,-0.42241,-0.56597,0.06,43.2,-11.34
2.547,-8.5127,-1.5663,0.093768,-0.1909,-0.46304,-0.6,43.14,-11.52
2.6832,-7.7772,-1.5255,0.11729,-0.037568,-0.36255,-1.62,43.08,-11.82
2.833,-7.6002,-1.471,0.18051,0.015272,-0.26603,-2.04,43.08,-12.06
2.9965,-7.3822,-1.5255,0.28497,-0.09896,-0.13378,-2.52,43.14,-12.18
2.9692,-7.1098,-1.6072,0.33201,-0.16432,-0.082161,-3.3,43.32,-12.9
2.9011,-7.1371,-1.6208,0.45723,-0.38149,0.033292,-3.72,43.44,-13.26
2.7786,-7.1371,-1.6753,0.48442,-0.44471,0.058032,-4.02,43.5,-13.44
2.7922,-8.0769,-1.5936,0.54336,-0.5904,0.12767,-4.62,43.62,-14.1
2.7241,-9.0303,-1.58,0.5397,-0.68203,0.17501,-4.68,43.68,-14.4
2.5879,-10.624,-1.4574,0.49266,-0.77488,0.23427,-4.8,43.74,-14.76
2.3155,-12.081,-1.3484,0.41172,-0.87873,0.32956,-4.8,43.86,-15.66
1.9886,-13.253,-1.1169,0.25565,-0.85155,0.53542,-4.68,43.92,-15.84
1.6072,-14.192,-0.98067,0.09499,-0.6634,0.71013,-4.62,43.92,-16.08
1.471,-14.833,-0.6674,-0.10934,-0.35094,0.86682,-4.74,44.04,-16.26
1.3757,-14.833,-0.28603,-0.32773,-0.013439,0.98044,-4.44,43.92,-16.8
1.2122,-14.492,0.1362,-0.47281,0.38271,1.0296,-4.2,43.8,-17.1
0.83084,-13.648,0.83084,-0.58307,0.52626,1.0183,-3.9,43.5,-17.4
0.62654,-11.863,1.0896,-0.68906,0.8094,0.95356,-3.54,43.32,-17.52
0.31327,-10.719,1.1169,-0.65088,1.1081,0.86987,-3.24,43.2,-17.64
0.25879,-8.4719,0.36775,-0.45998,1.1887,0.80176,-2.7,42.84,-17.22
0.35413,-8.4719,0.10896,-0.26359,1.1793,0.73884,-2.46,42.72,-17.1
0.1362,-8.5127,0.21793,-0.14875,1.1335,0.69303,-1.8,42.54,-16.62
-0.12258,-8.5263,0.50395,-0.17471,1.208,0.68783,-1.5,42.48,-16.2
-0.20431,-8.322,0.44947,-0.23091,1.3576,0.71166,-1.08,42.36,-15.78
-0.081722,-8.2812,0.21793,-0.24099,1.46,0.72998,-0.6,42.24,-15.3
0.054481,-8.3357,-0.054481,-0.18387,1.7321,0.82009,0.06,42.18,-14.94
0.62654,-8.2812,-0.74912,-0.058338,1.8442,0.90103,1.38,41.64,-13.8
1.076,-8.1041,-1.0488,0.089797,1.8454,1.0507,1.98,41.46,-13.14
1.6753,-7.9679,-1.6889,0.21625,1.7672,1.0916,3.48,41.22,-12.0
1.9613,-8.2403,-1.8387,0.38301,1.4911,1.1527,4.2,40.98,-11.46
2.152,-8.4582,-1.9886,0.42913,1.3607,1.153,5.1,40.8,-10.92
2.2746,-8.6081,-2.4517,0.47189,0.91783,1.0507,7.08,40.38,-10.2
2.2201,-8.5127,-2.4789,0.47647,0.68631,0.89614,8.1,40.14,-9.84
1.9886,-8.4446,-2.4108,0.3879,0.47373,0.59773,10.14,39.78,-9.48
1.9068,-8.7306,-2.438,0.29841,0.48839,0.40195,11.1,39.66,-9.36
2.0703,-9.0848,-2.5742,0.25198,0.54611,0.33811,12.0,39.48,-9.36
2.3836,-9.3299,-2.6968,0.18234,0.64904,0.27122,12.84,39.24,-9.48
2.8467,-9.3844,-2.7241,0.16493,0.57727,0.26328,13.62,38.88,-9.48
3.1735,-8.717,-2.6832,0.20495,0.4386,0.24221,15.12,38.76,-9.72
3.1599,-8.4174,-2.7377,0.28558,0.34697,0.16463,15.66,38.7,-9.84
3.1735,-7.9134,-2.6423,0.36133,0.27184,0.015272,16.86,38.4,-10.32
3.1191,-8.4719,-2.5198,0.44654,0.16371,-0.2755,17.34,38.4,-10.56
3.2689,-9.5751,-2.547,0.44318,0.061392,-0.43616,17.7,38.16,-10.56
3.5685,-10.515,-2.6423,0.34972,-0.15516,-0.54856,18.0,38.04,-10.86
3.8137,-11.278,-2.7649,0.22541,-0.39218,-0.6298,18.24,37.98,-11.04
3.5004,-12.095,-2.3291,0.047037,-0.56077,-0.7422,18.3,37.8,-11.04
3.1054,-12.258,-2.0703,-0.15149,-0.61636,-0.99632,18.12,37.74,-11.1
2.656,-12.149,-1.58,-0.35369,-0.58093,-1.1026,17.82,37.5,-11.16
2.547,-12.122,-1.3757,-0.60628,-0.37629,-1.4151,17.76,37.38,-11.16
2.438,-12.027,-1.3484,-0.72632,-0.22113,-1.573,17.4,37.56,-11.04
2.4108,-11.605,-1.1986,-0.80359,-0.096517,-1.6906,16.5,37.68,-11.04
2.4108,-10.896,-0.96704,-0.86224,-0.067195,-1.777,15.9,37.74,-10.98
2.3427,-9.9973,-0.77636,-0.88514,-0.087048,-1.8314,14.4,38.1,-10.5
2.0839,-8.6081,-0.61292,-0.82864,-0.16921,-1.8463,13.44,38.16,-10.32
1.8796,-8.1858,-0.55843,-0.79962,-0.19761,-1.8259,12.6,38.46,-10.32
1.757,-8.0224,-0.55843,-0.69486,-0.17959,-1.7193,11.64,38.64,-10.14
1.6344,-7.9679,-0.54481,-0.60781,-0.12278,-1.5919,9.6,39.18,-10.2
1.866,-8.0905,-0.50395,-0.50671,-0.1741,-1.423,8.7,39.48,-10.2
2.0567,-8.8805,-0.35413,-0.4612,-0.34697,-1.2401,7.92,39.72,-9.96
1.8524,-9.4798,-0.12258,-0.44166,-0.48533,-1.0446,6.18,40.14,-10.14
1.6753,-9.7522,-0.095342,-0.44166,-0.5229,-0.8323,5.4,40.38,-10.08
1.7025,-10.188,-0.040861,-0.41386,-0.34331,-0.50671,4.8,40.32,-10.2
1.8387,-11.291,-0.12258,-0.36011,-0.19364,-0.27855,3.72,40.62,-10.26
1.8932,-11.605,-0.081722,-0.28191,-0.079107,-0.069333,3.3,40.56,-10.2
1.8932,-11.918,-0.027241,-0.20281,-0.012828,0.16982,3.06,40.5,-10.56
2.261,-12.503,-0.027241,-0.08491,-0.14844,0.54581,2.7,40.62,-10.86
2.0839,-13.089,0.12258,-0.069944,-0.23549,0.80909,2.64,40.56,-10.98
1.9205,-12.544,0.14982,-0.083078,-0.2135,0.92882,2.52,40.56,-11.1
1.5527,-11.196,0.19068,-0.047647,-0.026573,1.1686,2.58,40.38,-11.22
1.1986,-9.6704,-0.36775,0.076358,0.17685,1.2404,2.7,40.26,-11.34
1.2667,-9.5479,-0.70826,0.23335,0.36896,1.252,2.7,40.2,-11.58
1.5527,-10.351,-1.0896,0.37721,0.49114,1.2486,2.94,40.2,-11.46
1.6753,-10.474,-1.2258,0.42852,0.57085,1.2645,3.0,40.08,-11.46
1.7706,-10.379,-1.4029,0.42669,0.59895,1.296,3.0,40.02,-11.22
1.7979,-9.616,-1.7979,0.37232,0.60231,1.3332,3.24,39.66,-10.86
1.6344,-9.1256,-1.9205,0.33659,0.64049,1.3134,3.54,39.6,-10.8
1.5391,-8.6489,-1.9613,0.30818,0.74373,1.2889,3.78,39.42,-10.26
1.5391,-8.3493,-2.0839,0.29169,0.87354,1.2578,4.38,39.18,-9.78
1.6889,-7.8181,-2.3836,0.24496,1.0388,1.2434,5.88,38.82,-8.88
1.866,-7.5457,-2.2882,0.21105,1.102,1.2336,6.72,38.52,-8.4
1.9205,-7.4503,-2.1929,0.15455,1.1219,1.2211,7.8,38.46,-7.86
2.152,-7.1234,-2.1248,0.12645,1.0583,1.2,9.78,37.8,-6.9
2.1929,-7.0145,-2.1929,0.1124,0.95509,1.1576,10.92,37.56,-6.42
2.1929,-7.246,-2.3563,0.10201,0.8601,1.0534,13.2,37.08,-5.82
2.2882,-7.5048,-2.3699,0.11057,0.80634,0.95936,14.4,37.08,-5.52
2.3155,-7.5729,-2.4517,0.11362,0.77977,0.90469,15.54,36.84,-5.34
2.3563,-7.8589,-2.4244,0.11942,0.70341,0.75289,16.74,36.66,-5.22
2.5606,-8.145,-2.4789,0.11332,0.64294,0.6408,17.88,36.48,-5.16
2.6423,-8.3765,-2.4108,0.12126,0.54062,0.54336,19.92,36.3,-5.16
2.6968,-8.6898,-2.3018,0.12828,0.3656,0.41905,21.3,36.06,-5.22
2.7104,-8.7579,-2.3836,0.13806,0.31337,0.34636,21.9,35.82,-5.34
2.7377,-8.8805,-2.0839,0.15669,0.32223,0.26023,22.86,35.52,-5.52
2.8058,-8.8941,-2.0839,0.20159,0.3656,0.15974,23.34,35.46,-5.7
3.1054,-9.4798,-1.9886,0.28588,0.37843,0.054062,23.88,34.98,-5.76
3.3097,-9.8884,-2.0158,0.38454,0.31521,-0.037874,24.12,34.74,-5.88
3.7865,-10.774,-2.1656,0.47831,0.14783,-0.12828,24.48,34.68,-5.94
3.9227,-10.924,-2.2065,0.50457,-0.28619,-0.27184,24.66,34.56,-6.0
3.8409,-11.046,-2.0294,0.42241,-0.59407,-0.41233,24.6,34.38,-6.3
3.5958,-11.128,-1.4574,0.28008,-0.81398,-0.62064,24.36,34.44,-6.66
3.1599,-11.891,-1.2258,0.11301,-0.90439,-0.82039,24.24,34.5,-6.72
2.7649,-12.381,-1.1032,-0.11057,-0.86163,-1.0122,23.82,34.68,-6.84
2.6423,-12.258,-1.0896,-0.29383,-0.69975,-1.1738,23.46,34.86,-7.14
2.6015,-12.054,-1.0079,-0.46304,-0.38485,-1.3354,23.34,34.86,-7.2
2.6423,-11.673,-0.70826,-0.489,-0.29596,-1.376,23.1,34.92,-7.26
2.7104,-11.25,-0.5993,-0.53115,-0.11851,-1.4936,22.32,34.98,-7.32
2.7377,-10.719,-0.50395,-0.52595,-0.093768,-1.5507,21.84,35.1,-7.38
2.7649,-9.6704,-0.43585,-0.48381,-0.15302,-1.5882,20.82,35.52,-7.2
2.8058,-9.1937,-0.38137,-0.40378,-0.3094,-1.6005,20.16,35.7,-6.96
2.6968,-8.4855,-0.34051,-0.30391,-0.55772,-1.5641,19.44,35.76,-6.9
2.7104,-8.0496,-0.40861,-0.2025,-0.82742,-1.5082,17.94,36.18,-6.84
2.5198,-7.8317,-0.23155,-0.087354,-1.1026,-1.4163,17.1,36.42,-6.9
2.438,-7.7636,-0.47671,0.032376,-1.3711,-1.2333,16.44,36.78,-6.96
2.0567,-8.2676,-0.28603,0.09163,-1.4224,-1.087,14.88,37.44,-7.08
1.9886,-8.8941,-0.24517,0.11179,-1.3983,-0.92607,14.1,37.86,-7.26
1.866,-9.4661,-0.027241,0.093768,-1.3005,-0.7364,12.9,38.7,-7.86
1.8524,-10.42,-0.12258,0.055283,-1.1466,-0.55558,12.3,39.06,-8.16
1.7434,-10.828,-0.24517,0.027184,-0.95203,-0.36896,11.88,39.24,-8.46
1.7979,-11.414,-0.35413,0.026267,-0.60751,-0.031765,11.4,39.54,-8.82
2.2474,-12.858,-0.47671,0.01405,-0.41142,0.22541,10.8,40.02,-9.66
2.438,-13.116,-0.54481,-0.05681,-0.26878,0.4664,10.68,40.26,-10.08
2.4789,-12.98,-0.61292,-0.21625,-0.1408,0.70341,10.38,40.5,-10.5
2.3427,-13.225,-0.28603,-0.28314,-0.095906,0.74831,10.38,40.74,-11.52
2.152,-12.667,-0.31327,-0.44166,0.055589,0.82009,10.38,40.8,-11.88
2.0567,-12.04,-0.31327,-0.60812,0.37904,0.79229,10.44,40.8,-12.18
1.7298,-10.542,-0.44947,-0.5962,0.62858,0.74831,10.44,40.68,-12.6
1.5255,-9.1937,-0.77636,-0.48594,0.80237,0.70799,10.74,40.5,-12.84
1.7298,-9.1937,-0.85808,-0.31765,0.87659,0.67134,10.86,40.44,-12.9
2.152,-9.3163,-1.0896,-0.18021,0.81001,0.67714,10.86,40.38,-12.48
2.2882,-9.2346,-1.2803,-0.035736,0.53329,0.72479,10.98,40.38,-12.3
2.3155,-9.1665,-1.3757,0.014355,0.33414,0.76877,11.1,40.2,-12.0
2.0839,-8.8668,-1.5119,0.03146,0.23915,0.81612,11.4,40.02,-11.1
1.9613,-8.6081,-1.6208,0.056505,0.25412,0.86407,11.82,39.78,-10.8
1.9613,-8.4446,-1.9341,0.081856,0.38332,0.9221,12.72,39.54,-9.42
2.152,-7.6138,-2.0294,0.12156,0.42241,0.9276,13.14,39.36,-8.76
2.2474,-7.1098,-2.152,0.14905,0.42241,0.91202,13.68,39.12,-8.1
2.3018,-6.8374,-2.1929,0.16371,0.38454,0.87262,14.28,39.0,-7.44
2.2474,-6.5378,-1.9886,0.15547,0.35064,0.81062,15.72,38.58,-6.3
2.2201,-6.5241,-1.8251,0.12278,0.32559,0.72907,16.38,38.4,-5.88
2.2201,-6.5378,-1.8524,0.069944,0.2981,0.5791,17.88,37.98,-5.16
2.4108,-6.4833,-1.757,0.058032,0.28039,0.52901,18.66,37.86,-4.92
2.4789,-6.4424,-1.9068,0.080023,0.19761,0.37782,19.32,37.74,-4.8
2.6015,-6.4697,-1.9341,0.10965,0.146,0.33475,20.16,37.5,-4.62
2.7377,-6.8919,-2.0567,0.18234,-0.087659,0.22999,21.48,37.2,-4.38
2.7649,-7.1507,-2.0839,0.22846,-0.26298,0.1741,21.9,37.2,-4.26
2.7377,-7.4095,-2.0839,0.26084,-0.41997,0.13958,22.5,37.02,-4.32
2.5198,-8.0905,-2.261,0.26114,-0.5962,0.11759,23.4,36.96,-4.62
2.4244,-8.2948,-2.3699,0.25473,-0.59315,0.13867,23.88,36.96,-4.8
2.3563,-8.5536,-2.4925,0.25473,-0.55803,0.15974,24.06,36.78,-5.1
2.1112,-9.3844,-2.3836,0.20647,-0.33475,0.27,24.42,36.9,-5.4
2.0975,-9.8066,-2.152,0.15669,-0.13744,0.33781,24.54,36.84,-5.58
2.2201,-10.542,-1.8387,0.098044,0.073609,0.39065,24.72,36.9,-5.64
2.4789,-11.155,-1.8251,0.10263,0.35155,0.46304,24.9,36.6,-5.94
2.6968,-11.605,-1.6344,0.12706,0.42791,0.49572,25.14,36.54,-6.0
2.7649,-11.863,-1.3757,0.15852,0.42883,0.4945,25.32,36.42,-6.06
2.7377,-11.836,-1.1713,0.27397,0.478,0.47037,25.5,36.24,-6.18
2.7922,-11.332,-1.3757,0.43646,0.43585,0.45418,25.86,36.0,-6.48
2.9011,-11.182,-1.7298,0.63988,0.23793,0.44654,26.1,35.94,-6.78
3.051,-11.087,-1.6344,0.77122,-0.054978,0.39615,26.4,35.7,-6.84
2.8603,-10.61,-1.471,0.73701,-0.54856,0.17837,26.34,35.64,-7.08
2.5606,-10.174,-1.2667,0.6127,-0.79321,-0.059865,26.52,35.58,-7.26
2.1656,-10.025,-0.83084,0.42669,-0.88759,-0.31948,26.76,35.58,-7.32
1.7025,-10.569,-0.19068,0.21228,-0.83169,-0.58032,26.82,35.34,-7.62
1.8932,-10.883,-0.24517,-0.0082467,-0.76022,-0.832,26.88,35.22,-7.86
2.0294,-10.828,-0.1362,-0.22449,-0.79015,-1.1823,26.88,35.16,-8.1
1.9886,-10.379,0.12258,-0.26786,-0.82467,-1.2733,26.7,35.22,-8.52
2.0567,-10.283,0.47671,-0.30146,-0.93951,-1.4762,26.46,35.52,-8.82
1.9886,-10.256,0.54481,-0.3149,-0.99174,-1.547,26.16,35.82,-9.0
2.1248,-10.215,0.85808,-0.32101,-1.0415,-1.5592,25.38,36.3,-9.6
2.1384,-10.174,1.0215,-0.3259,-1.1109,-1.5336,24.78,36.48,-9.84
2.261,-9.7113,1.185,-0.31185,-1.1542,-1.4694,24.18,36.72,-10.14
2.2201,-9.2891,1.1577,-0.26542,-1.1823,-1.3717,23.04,37.32,-10.26
2.1656,-8.8941,1.1986,-0.20342,-1.1756,-1.2572,22.14,37.68,-10.14
2.2746,-8.6489,1.2122,-0.025351,-1.1411,-1.0467,21.12,38.1,-10.32
2.8467,-8.0632,1.0079,0.096211,-1.186,-0.91324,19.5,38.82,-10.44
3.0237,-7.8317,0.92618,0.2138,-1.3308,-0.78527,18.36,39.18,-10.62
3.1599,-7.7636,0.85808,0.36774,-1.6261,-0.67195,17.28,39.48,-10.8
3.2008,-7.7636,1.0488,0.44379,-1.773,-0.59956,15.36,40.32,-11.22
3.2961,-7.9679,0.92618,0.51007,-1.8705,-0.50946,14.4,40.56,-11.34
3.4596,-8.0905,0.92618,0.58735,-1.9487,-0.3882,13.56,40.68,-11.64
3.7047,-8.5127,0.70826,0.66218,-2.0629,-0.26848,12.54,40.8,-11.82
4.0452,-8.826,0.57205,0.71349,-2.1533,-0.15821,10.86,41.4,-12.24
4.0452,-8.9077,0.51757,0.71807,-2.2397,-0.073609,9.84,41.64,-12.54
3.909,-9.0303,0.64016,0.6185,-2.2715,-0.025045,8.16,41.76,-13.44
3.7456,-8.9486,0.7355,0.50732,-2.2159,-0.017715,7.44,41.76,-13.98
3.6911,-8.8941,0.68102,0.46304,-2.1677,-0.023213,6.84,41.76,-14.4
3.6775,-8.8805,0.50395,0.33995,-2.022,0.010079,5.52,42.0,-15.18
3.732,-8.8668,0.35413,0.26237,-1.9035,0.068722,4.98,42.06,-15.54
3.7728,-8.7306,0.29965,0.19517,-1.7764,0.16799,4.5,42.12,-15.72
3.514,-8.4855,0.29965,0.072082,-1.5904,0.31979,3.36,42.18,-16.38
3.5277,-8.7306,0.35413,-0.016799,-1.4474,0.43463,2.88,42.18,-16.56
3.514,-8.7987,0.31327,-0.06017,-1.3662,0.50121,2.52,42.3,-16.74
3.7047,-10.052,0.36775,-0.16371,-1.1353,0.7251,1.86,42.36,-17.22
3.8818,-10.76,0.19068,-0.17287,-1.0281,0.8769,1.44,42.18,-17.34
4.0316,-11.237,-0.40861,-0.14722,-1.0003,1.0033,1.26,42.3,-17.46
3.9635,-10.855,-0.54481,-0.079412,-1.0996,1.0492,0.9,42.42,-17.52
3.8001,-10.746,-0.44947,-0.072388,-1.1197,1.0018,0.72,42.54,-17.46
3.4732,-11.359,-0.40861,-0.085216,-1.0873,0.96242,0.66,42.66,-17.4
3.2553,-12.217,-0.39499,-0.15058,-0.8772,0.7761,0.72,42.78,-17.28
3.2144,-12.79,-0.77636,-0.22235,-0.67042,0.56291,0.84,42.6,-17.1
3.0918,-7.927,-1.9068,-0.17532,-0.51649,0.24771,1.08,42.66,-16.68
3.1327,-6.96,-1.9068,0.04215,-0.58949,-0.1124,1.26,42.72,-16.56
3.1327,-6.96,-1.9068,0.4496,-1.1579,-0.58613,1.26,42.72,-16.56
3.8001,-8.0088,-2.0431,0.55008,-1.7575,-0.82375,1.68,42.6,-16.44
3.8137,-8.431,-1.8932,0.50855,-2.3799,-0.93279,1.68,42.66,-16.44
3.4868,-9.4661,-1.2531,0.32223,-2.85,-0.92149,1.8,42.6,-16.14
2.3291,-9.6432,-0.6674,0.074831,-3.0189,-0.84849,1.8,42.6,-16.08
1.6753,-9.4117,-0.6674,-0.09896,-2.8259,-0.74159,1.68,42.66,-15.96
1.7843,-9.1256,-0.76274,-0.18906,-2.1496,-0.61361,1.26,42.6,-15.96
2.3155,-8.8941,-0.99429,-0.094684,-1.8088,-0.52901,0.54,42.42,-15.84
3.337,-9.0575,-0.8717,0.067501,-1.8179,-0.45845,-0.3,42.36,-15.84
4.2087,-9.902,-0.47671,0.22694,-2.102,-0.42516,-1.32,42.36,-15.96
4.5628,-10.869,-0.14982,0.31734,-2.7092,-0.37813,-2.46,42.36,-15.72
4.0861,-11.564,0.34051,0.2926,-3.3876,-0.3711,-3.72,42.36,-15.36
3.3097,-11.673,0.49033,0.045204,-3.8292,-0.43097,-4.86,42.06,-15.06
2.9556,-11.577,0.50395,-0.1576,-3.7028,-0.50916,-5.4,42.12,-14.7
2.4653,-11.305,0.38137,-0.33414,-3.324,-0.66768,-6.42,41.88,-14.28
2.2201,-10.665,0.027241,-0.49969,-2.7797,-0.8769,-7.44,41.7,-13.62
2.3155,-9.8611,-0.12258,-0.63286,-2.2071,-1.0702,-8.58,41.16,-12.96
2.8058,-9.616,0.23155,-0.76358,-1.6909,-1.2367,-9.84,40.68,-12.06
3.2825,-9.3163,0.35413,-0.87659,-1.3589,-1.4355,-10.86,40.14,-11.28
3.4187,-9.0848,0.40861,-0.88789,-1.4303,-1.5638,-11.52,40.08,-10.68
3.5685,-8.4582,0.20431,-0.75747,-1.6139,-1.6472,-12.6,39.54,-9.66
3.4732,-8.3629,0.054481,-0.59956,-1.7758,-1.689,-13.14,39.24,-9.3
3.3234,-8.6898,-0.29965,-0.44379,-1.814,-1.7092,-14.34,38.58,-8.4
3.2144,-8.9349,-0.34051,-0.36774,-1.7452,-1.7061,-15.6,37.8,-7.32
3.1191,-9.0848,-0.38137,-0.33414,-1.5272,-1.6762,-16.74,37.02,-6.54
3.2825,-9.2891,-0.50395,-0.33842,-1.4108,-1.6533,-17.58,36.96,-6.18
3.3778,-9.3163,-0.61292,-0.27978,-1.4065,-1.6191,-18.72,36.42,-5.4
3.337,-9.5615,-0.7355,-0.18631,-1.3613,-1.554,-20.1,35.58,-4.74
3.1191,-9.7385,-0.89894,-0.038179,-1.284,-1.43,-21.36,34.56,-4.14
3.0237,-9.6432,-1.1713,0.17776,-1.0974,-1.2715,-21.9,34.14,-3.9
3.1735,-9.4525,-1.4438,0.45509,-0.8659,-1.0388,-23.1,33.24,-3.42
3.3642,-9.1801,-1.6344,0.74831,-0.65637,-0.78252,-24.18,32.4,-3.3
3.514,-8.8124,-1.7706,1.1393,-0.48045,-0.43768,-24.78,31.74,-3.48
3.6775,-8.717,-1.757,1.3323,-0.4554,-0.26512,-25.14,31.38,-3.3
4.1406,-8.5944,-2.1112,1.4813,-0.50855,-0.14875,-25.5,30.66,-3.36
4.5901,-8.2131,-2.5742,1.6066,-0.67378,-0.083078,-26.04,30.12,-3.6
4.8352,-8.3629,-2.6015,1.69,-0.96517,-0.087048,-26.04,30.0,-3.84
5.1757,-8.9758,-2.7649,1.6985,-1.336,-0.21472,-26.16,29.58,-4.32
5.5707,-10.161,-2.8739,1.5479,-1.8946,-0.3204,-26.34,29.34,-4.98
5.5435,-10.706,-2.9011,1.3164,-2.2031,-0.41478,-26.4,29.4,-5.1
5.38,-10.992,-2.6696,0.99388,-2.3442,-0.54398,-26.4,29.4,-5.7
4.7671,-10.992,-2.1248,0.62705,-2.2935,-0.73029,-26.64,29.34,-5.76
4.4675,-11.032,-2.0294,0.2697,-2.054,-0.91294,-26.82,29.4,-5.94
4.3449,-10.924,-2.0839,-0.026267,-1.6493,-1.0993,-27.18,29.4,-6.12
4.3858,-10.597,-1.9068,-0.3146,-0.99021,-1.3063,-27.72,29.1,-6.42
4.699,-10.297,-1.8387,-0.37904,-0.73823,-1.3757,-27.84,29.1,-6.3
4.9169,-9.9292,-1.4574,-0.39187,-0.6802,-1.405,-28.56,28.8,-6.12
5.0531,-9.507,-1.2258,-0.33017,-0.77549,-1.3931,-29.34,28.56,-5.94
5.094,-9.1256,-1.3348,-0.2364,-0.93157,-1.3408,-29.94,27.84,-5.82
5.1621,-8.7851,-1.3484,-0.10354,-1.1267,-1.2813,-30.18,27.42,-5.76
5.0668,-8.3357,-1.2803,0.11881,-1.4532,-1.1964,-30.72,26.7,-5.58
4.9306,-8.2403,-1.1713,0.23763,-1.653,-1.1747,-30.96,26.34,-5.52
4.7263,-8.1177,-1.2531,0.31612,-1.7941,-1.1341,-31.56,25.32,-5.46
4.2223,-7.7364,-1.3076,0.35369,-1.8665,-1.0922,-31.74,24.48,-5.22
3.9227,-7.5729,-1.3484,0.354,-1.8634,-1.0693,-31.8,24.12,-5.1
3.2961,-7.4503,-1.3076,0.33262,-1.7498,-1.0479,-32.04,23.04,-4.86
2.8467,-7.2869,-1.2258,0.22724,-1.4239,-0.99693,-32.04,22.2,-4.32
2.7649,-7.2733,-1.2531,0.16127,-1.1671,-0.89339,-32.04,21.9,-3.9
2.5879,-7.6274,-1.3348,0.10904,-0.91691,-0.74648,-31.98,21.06,-3.12
2.7786,-8.3765,-1.5255,0.087354,-0.72052,-0.53787,-31.98,20.22,-2.52
3.0101,-9.4117,-1.6617,0.075747,-0.57666,-0.29688,-31.92,19.44,-1.98
3.1735,-10.256,-1.6753,0.050396,-0.51068,-0.018021,-31.74,18.9,-1.2
2.9692,-10.869,-1.7025,0.02138,-0.40103,0.40195,-31.74,18.6,-0.9
2.6015,-11.782,-1.8796,-0.0082467,-0.23671,0.66493,-31.68,17.76,-0.36
2.3427,-12.163,-1.866,-0.055283,0.0030543,0.88453,-31.62,17.52,0.24
2.2065,-12.299,-1.8932,-0.073304,0.26542,1.0599,-31.5,17.4,0.36
2.1112,-12.544,-2.0022,-0.092852,0.53359,1.1939,-31.2,17.28,0.42
2.0294,-12.708,-1.9341,-0.10049,0.78618,1.3121,-30.96,17.52,0.36
2.152,-13.688,-2.0839,0.028711,1.0382,1.5992,-30.96,18.0,0.12
2.3291,-14.192,-2.1248,0.146,1.0938,1.8784,-30.9,18.36,0.12
2.8467,-14.056,-2.5198,0.27764,1.0562,2.1325,-30.78,19.02,-0.36
2.8058,-12.612,-2.6968,0.40653,0.91966,2.2883,-30.54,19.98,-1.2
2.3018,-10.801,-2.7104,0.5003,0.77763,2.2898,-30.36,21.36,-2.1
2.0158,-10.379,-2.5742,0.56139,0.70036,2.1634,-30.3,22.02,-2.58
1.5391,-10.488,-2.3836,0.60292,0.85032,1.8763,-30.24,23.46,-3.42
1.3893,-10.433,-2.4517,0.53115,1.0431,1.708,-30.3,24.9,-4.32
1.5663,-9.8339,-2.6423,0.47403,1.1839,1.6377,-30.42,26.4,-5.22
1.7298,-8.9077,-2.7786,0.41905,1.2691,1.6328,-30.12,27.66,-5.76
1.7843,-7.6546,-2.8467,0.39554,1.3583,1.6603,-29.7,28.86,-6.0
1.7706,-7.246,-2.8194,0.42669,1.4328,1.6906,-29.28,29.46,-6.0
1.7434,-6.2654,-2.9148,0.43952,1.503,1.7129,-28.68,30.6,-6.06
1.8387,-5.6661,-3.0646,0.45021,1.5773,1.6893,-27.6,31.5,-6.06
1.975,-5.4345,-3.1054,0.44746,1.5214,1.6759,-26.82,31.92,-6.12
2.1929,-5.3392,-2.9556,0.39676,1.3857,1.6466,-25.2,32.76,-6.48
2.3563,-5.5571,-2.6832,0.30879,1.2266,1.6078,-23.52,33.24,-6.48
2.3699,-5.8295,-2.5879,0.23824,1.0406,1.5369,-22.62,33.72,-6.54
2.3018,-6.7966,-2.547,0.13683,0.91935,1.4282,-20.64,34.38,-6.72
2.2474,-7.3822,-2.5879,0.02474,0.95417,1.1643,-18.72,35.1,-7.56
2.2337,-7.6955,-2.6151,-0.01069,1.069,0.95478,-17.82,35.52,-7.86
2.3427,-7.9134,-2.7786,-0.000916,1.1713,0.71074,-16.08,36.18,-8.88
2.5606,-8.1041,-2.9148,0.048258,1.1637,0.4554,-15.42,36.48,-9.3
2.9011,-8.2267,-3.1191,0.12492,0.99724,0.22633,-14.28,37.08,-10.26
3.1191,-8.7579,-3.2825,0.22938,0.68845,0.039706,-13.5,37.5,-10.92
2.8603,-9.4117,-3.3234,0.3204,0.15913,-0.16616,-12.6,37.86,-11.7
2.6151,-9.8066,-3.4732,0.33292,-0.068417,-0.27825,-12.24,38.1,-12.12
2.4653,-10.365,-3.4051,0.31979,-0.19975,-0.37354,-11.76,38.34,-12.72
2.3427,-11.019,-3.2689,0.30177,-0.21472,-0.49419,-11.58,38.1,-13.44
2.3155,-11.441,-3.0646,0.27672,-0.1014,-0.65485,-11.58,38.16,-13.98
2.3563,-11.659,-3.0782,0.28405,0.079107,-0.82039,-11.76,38.04,-14.16
2.7377,-11.931,-3.3778,0.40225,0.26878,-1.0082,-11.82,37.74,-14.52
3.4732,-12.0,-3.6366,0.50977,0.10568,-1.0489,-12.3,37.5,-14.76
3.8137,-12.013,-3.7728,0.59346,-0.28222,-1.0122,-12.42,37.32,-15.0
4.1406,-11.863,-3.5004,0.53573,-0.75686,-1.0293,-13.02,36.84,-15.3
3.2825,-11.782,-2.3427,0.34789,-1.1325,-1.1955,-13.74,36.36,-15.6
2.9829,-12.068,-2.0567,0.15424,-1.2633,-1.3986,-14.22,36.06,-15.78
2.4517,-12.258,-1.8932,-0.082467,-1.2181,-1.6026,-15.06,35.52,-15.9
2.2337,-11.632,-1.8115,-0.38607,-0.88575,-1.8763,-15.96,34.86,-16.08
2.3155,-11.182,-1.8115,-0.43799,-0.69791,-1.9163,-16.44,34.44,-15.96
2.6015,-10.964,-1.8387,-0.43433,-0.57391,-1.8851,-17.76,34.02,-15.84
2.6968,-9.7522,-1.8115,-0.42699,-0.52779,-1.8323,-19.32,33.24,-16.02
2.6151,-9.0984,-1.7434,-0.34667,-0.54123,-1.7947,-20.28,32.82,-15.96
2.4517,-7.8726,-1.5119,-0.1912,-0.64599,-1.7477,-22.14,32.22,-16.2
2.3427,-7.4912,-1.4165,-0.098044,-0.81306,-1.7306,-24.12,31.74,-16.44
2.3836,-7.5048,-1.4029,-0.058948,-0.99449,-1.6866,-25.14,31.38,-16.68
2.3563,-7.641,-1.4029,-0.062003,-1.1979,-1.5751,-26.7,30.72,-17.16
2.1656,-7.6819,-1.3484,-0.10201,-1.3604,-1.4352,-27.48,30.48,-17.34
1.866,-7.927,-1.1986,-0.18143,-1.4212,-1.2737,-28.92,30.0,-17.58
1.5391,-8.2539,-1.0488,-0.2755,-1.3207,-1.1106,-29.58,29.76,-17.94
1.2395,-9.0575,-0.78998,-0.45112,-0.91813,-0.85368,-30.36,29.04,-18.3
1.2531,-9.4525,-0.64016,-0.57238,-0.52321,-0.71654,-30.48,28.86,-18.36
1.362,-9.8203,-0.58567,-0.65393,-0.12492,-0.5962,-30.72,28.44,-18.36
1.8115,-10.719,-0.47671,-0.6802,0.17929,-0.46701,-30.84,27.9,-18.18
2.0294,-11.032,-0.47671,-0.6805,0.35583,-0.32101,-30.66,27.54,-18.18
2.3155,-11.373,-0.61292,-0.61178,0.36346,-0.15211,-30.66,27.3,-18.06
2.4244,-11.645,-0.6674,-0.49541,0.24587,0.054367,-30.42,27.0,-17.88
2.5334,-12.395,-0.77636,-0.3262,0.037568,0.41692,-30.24,26.76,-17.76
2.1929,-13.253,-0.47671,-0.23946,-0.012523,0.70799,-30.06,26.58,-17.4
1.7843,-12.871,-0.28603,-0.22755,0.11118,1.0058,-29.94,26.4,-17.22
1.5527,-11.891,-0.28603,-0.19792,0.41356,1.2346,-29.88,26.4,-17.1
1.7298,-10.12,-0.8717,0.010996,0.79351,1.5088,-29.64,26.52,-16.8
2.1656,-9.7113,-1.2258,0.12614,0.84727,1.5779,-29.52,26.7,-16.8
2.438,-9.9565,-1.4846,0.49663,0.71196,1.7627,-29.4,26.88,-16.92
2.8603,-10.855,-1.9341,0.67928,0.45051,1.8631,-29.34,27.54,-17.04
2.8194,-10.924,-2.0975,0.75839,0.17898,1.9511,-29.28,27.84,-17.16
2.5198,-10.651,-2.152,0.72082,-0.018021,1.963,-29.1,28.2,-17.34
2.0158,-9.8611,-2.1248,0.69089,-0.012828,1.9435,-28.8,29.22,-17.34
1.7025,-9.4798,-2.1929,0.55894,0.20617,1.8308,-28.62,29.76,-17.22
1.4165,-8.9622,-2.2882,0.46945,0.5339,1.7315,-28.2,30.24,-17.04
1.5255,-7.9951,-2.6423,0.41142,0.90225,1.6478,-27.12,31.26,-16.62
1.7706,-7.5729,-2.6968,0.36988,1.1573,1.5913,-26.58,31.8,-16.38
2.1248,-7.3141,-2.6151,0.27947,1.2688,1.5388,-25.62,32.28,-16.32
2.4108,-6.7421,-2.5061,0.26053,1.2394,1.5226,-23.88,33.18,-16.14
2.4108,-6.7421,-2.5061,0.2416,1.1949,1.5015,-23.88,33.18,-16.14
2.5742,-6.4833,-2.8058,0.19426,0.86773,1.3668,-20.64,34.56,-15.78
2.6423,-6.4016,-2.8058,0.19212,0.79565,1.3176,-19.38,34.86,-15.72
2.7649,-6.6059,-2.8603,0.22816,0.64049,1.2055,-18.18,35.16,-15.66
2.9011,-7.2869,-2.942,0.25229,0.4499,1.0751,-15.84,35.94,-15.66
3.1191,-8.1858,-2.833,0.2645,0.26267,0.92852,-14.58,36.24,-15.96
3.1599,-8.7579,-2.7786,0.24893,0.098349,0.77916,-13.44,36.72,-16.14
3.1191,-9.3027,-2.833,0.20922,-0.088575,0.54306,-12.36,36.96,-16.56
2.9284,-9.6432,-2.7513,0.16952,-0.094684,0.35491,-10.44,37.5,-17.34
2.7649,-9.5887,-2.5742,0.15455,0.016188,0.15424,-9.66,37.8,-17.76
2.7922,-9.1529,-2.3563,0.16127,0.17043,-0.063225,-8.4,38.34,-18.42
3.0101,-9.5342,-2.3155,0.21869,0.25779,-0.27947,-7.98,38.58,-18.6
3.2553,-10.202,-2.4108,0.3146,0.20036,-0.43646,-7.38,38.64,-18.9
3.909,-11.931,-2.6015,0.36438,-0.14111,-0.58674,-6.9,38.76,-19.2
4.1133,-12.19,-2.6968,0.34025,-0.52198,-0.63713,-6.66,38.94,-19.38
3.9227,-12.531,-2.4789,0.24557,-0.85613,-0.71196,-6.54,38.94,-19.5
3.3506,-12.79,-1.8387,0.087659,-1.0629,-0.88301,-6.66,38.94,-19.86
2.7513,-13.266,-1.4438,-0.26481,-1.0195,-1.2572,-6.78,38.88,-19.74
2.5742,-13.28,-1.2803,-0.39828,-0.92118,-1.3967,-7.02,38.7,-19.8
2.2882,-13.089,-1.0488,-0.74678,-0.45968,-1.8216,-7.32,38.7,-19.74
2.3018,-12.558,-0.85808,-0.87018,-0.14172,-2.0357,-8.46,38.4,-19.62
2.3018,-12.558,-0.85808,-0.89339,0.074526,-2.1808,-8.46,38.4,-19.62
2.3018,-12.558,-0.85808,-0.85399,0.16707,-2.2889,-8.46,38.4,-19.62
2.6423,-9.8611,-0.83084,-0.66126,0.13958,-2.3647,-10.14,37.98,-19.44
2.6151,-9.1801,-0.81722,-0.57818,0.079718,-2.3524,-11.04,37.8,-19.32
2.6696,-8.1722,-0.83084,-0.30543,-0.28008,-2.2764,-13.26,37.26,-19.26
2.5879,-7.8998,-0.7355,-0.17471,-0.61911,-2.1664,-14.4,36.96,-19.2
2.4789,-7.8317,-0.8036,-0.084605,-0.95356,-2.0284,-16.8,36.36,-19.26
2.0567,-8.036,-0.61292,-0.063835,-1.2065,-1.8659,-18.96,35.64,-19.14
1.5255,-8.2812,-0.61292,-0.11209,-1.2575,-1.6078,-20.94,34.62,-19.14
1.2667,-8.5944,-0.57205,-0.15699,-1.1032,-1.4328,-22.02,34.14,-19.02
1.1713,-8.9486,-0.61292,-0.21411,-0.84483,-1.2511,-24.06,33.3,-18.9
1.0896,-9.4525,-0.68102,-0.24282,-0.58124,-1.0467,-25.8,32.4,-18.9
1.2803,-10.147,-0.64016,-0.25259,-0.35675,-0.79382,-26.88,31.44,-18.9
1.58,-10.624,-0.50395,-0.26817,-0.22541,-0.51893,-27.78,30.6,-18.72
1.9068,-11.169,-0.55843,-0.24801,-0.18509,-0.22877,-28.44,29.94,-18.48
1.9341,-11.278,-0.70826,-0.20189,-0.26114,0.18326,-28.98,29.28,-18.36
1.6753,-11.536,-0.62654,-0.17135,-0.29413,0.4163,-29.52,28.68,-18.12
1.2939,-11.673,-0.36775,-0.21777,-0.16738,0.63377,-29.82,28.44,-18.12
1.0079,-10.964,-0.44947,-0.26298,0.11668,0.82253,-29.94,28.14,-18.12
1.2122,-10.515,-0.53119,-0.24343,0.45112,1.0226,-29.94,28.14,-18.0
1.5119,-10.215,-0.76274,-0.12126,0.71135,1.2251,-30.0,28.32,-17.88
2.3018,-10.379,-1.185,0.090713,0.76633,1.4325,-30.0,28.5,-18.12
2.7377,-10.733,-1.4165,0.44593,0.49786,1.7584,-29.94,28.8,-18.18
2.9284,-10.937,-1.6753,0.64721,0.1912,1.9206,-29.94,28.98,-18.24
2.8875,-10.61,-2.0703,0.79229,-0.10904,2.0168,-30.06,29.52,-17.94
2.6151,-10.215,-2.2337,0.8717,-0.31948,2.0336,-29.94,30.0,-17.82
2.3155,-9.5887,-2.4653,0.91111,-0.45693,2.003,-29.7,31.02,-17.46
1.866,-9.1529,-2.4789,0.83353,-0.40287,1.8726,-29.28,31.62,-17.16
1.7025,-8.8805,-2.5061,0.78343,-0.30849,1.817,-28.8,31.98,-16.86
1.4982,-8.2539,-2.656,0.56688,0.146,1.6817,-28.26,32.4,-16.62
1.3893,-7.6683,-2.7649,0.40867,0.51557,1.5763,-26.76,33.42,-15.96
1.4982,-7.464,-2.6151,0.25931,0.84788,1.4914,-25.74,34.02,-15.72
1.7843,-7.1371,-2.4789,0.10049,1.1316,1.3378,-23.46,35.1,-15.24
2.3291,-7.355,-2.656,0.022297,1.1799,1.2431,-22.38,35.7,-15.12
2.6015,-7.5729,-2.6832,-0.018631,1.12,1.1399,-21.24,36.18,-14.76
2.7377,-7.5457,-2.7513,-0.01741,1.073,1.08,-20.1,36.78,-14.64
3.2144,-7.5593,-2.7513,0.0061087,0.8097,0.83505,-17.52,37.68,-14.7
3.2825,-7.6138,-2.7241,0.050091,0.562,0.6466,-16.14,37.98,-14.7
3.2553,-7.927,-2.7922,0.098655,0.30329,0.46731,-14.88,38.28,-14.76
3.2416,-9.0575,-2.7649,0.12187,0.086743,0.32742,-12.9,39.0,-15.24
3.1191,-9.3163,-2.7241,0.06689,-0.047342,0.19212,-11.94,39.42,-15.42
2.9965,-9.2891,-2.6423,0.01405,-0.0054978,0.10018,-11.22,39.78,-15.72
2.7104,-8.8805,-2.4925,-0.014661,0.13256,-0.021991,-9.9,40.44,-16.44
2.7377,-8.826,-2.152,-0.0024435,0.34361,-0.1689,-9.48,40.56,-16.8
2.9556,-9.6432,-1.9613,0.043982,0.50183,-0.30452,-9.12,40.56,-17.1
3.8273,-12.204,-2.1248,0.12339,0.46273,-0.40256,-8.64,40.98,-17.52
4.4539,-12.844,-2.4653,0.1576,0.17349,-0.40592,-8.4,41.04,-17.76
4.6445,-13.198,-2.6968,0.15363,-0.23121,-0.41142,-8.1,41.1,-17.88
4.1814,-12.926,-1.7979,0.063225,-0.53909,-0.54306,-8.1,41.22,-18.3
3.7728,-12.844,-1.3484,-0.028405,-0.71074,-0.76694,-8.46,41.16,-18.42
3.3778,-12.681,-1.3076,-0.15944,-0.75717,-1.0437,-8.7,41.16,-18.54
2.7104,-12.108,-0.99429,-0.36988,-0.58154,-1.5128,-9.36,40.98,-18.72
2.6151,-11.618,-0.88532,-0.41722,-0.48625,-1.6509,-9.84,40.86,-18.72
2.6968,-11.223,-0.88532,-0.48014,-0.35125,-1.8466,-10.26,40.8,-18.72
2.7377,-10.61,-0.8036,-0.48594,-0.28436,-2.0366,-10.92,40.74,-18.6
2.5606,-9.0303,-0.99429,-0.42028,-0.33017,-2.0968,-12.6,40.26,-18.3
2.4517,-8.1586,-0.96704,-0.30391,-0.40225,-2.1215,-13.56,40.2,-18.24
2.4789,-7.355,-0.99429,-0.17318,-0.54031,-2.0873,-15.78,39.66,-17.82
2.438,-7.1915,-0.96704,-0.048869,-0.84788,-1.9884,-17.1,39.36,-17.94
2.3836,-7.2052,-0.8036,-0.01741,-1.0754,-1.8644,-18.48,38.88,-17.82
2.2882,-7.2733,-0.83084,-0.014966,-1.2569,-1.6906,-19.74,38.58,-17.82
1.8932,-7.5048,-0.85808,-0.049786,-1.3421,-1.5098,-22.5,37.92,-17.82
1.6753,-7.3958,-0.77636,-0.10843,-1.2901,-1.3396,-23.58,37.5,-17.88
1.4438,-7.3686,-0.68102,-0.15394,-1.1435,-1.1958,-24.78,37.14,-17.94
1.3484,-7.6002,-0.61292,-0.2416,-0.79443,-1.0217,-27.06,36.06,-18.0
1.4982,-7.9543,-0.47671,-0.26206,-0.57727,-0.91111,-28.2,35.52,-17.94
1.6208,-8.4446,-0.50395,-0.26389,-0.41661,-0.76725,-29.1,34.98,-17.94
1.9613,-9.8611,-0.49033,-0.24862,-0.33567,-0.57727,-30.72,34.08,-17.94
2.1384,-10.896,-0.51757,-0.19731,-0.31673,-0.33598,-31.38,33.48,-18.0
2.3836,-11.822,-0.64016,-0.13683,-0.34941,-0.056505,-31.92,33.0,-18.12
2.5742,-13.225,-0.83084,0.0045815,-0.43524,0.45784,-32.7,32.16,-17.88
2.5606,-13.988,-0.76274,0.11026,-0.43463,0.82436,-32.94,31.86,-17.76
2.438,-15.01,-0.64016,0.14355,-0.38454,1.0159,-33.24,31.5,-17.64
2.3836,-15.473,-0.31327,0.17226,-0.049786,1.5595,-33.3,31.2,-17.52
2.5061,-14.233,-0.83084,0.27855,0.197,1.8848,-33.54,30.9,-17.28
2.7786,-13.225,-1.3484,0.562,0.26542,2.168,-33.66,30.96,-17.1
3.0646,-10.964,-2.0567,0.66615,0.18509,2.1835,-33.54,31.32,-16.86
2.8058,-10.447,-2.0839,0.87537,-0.13928,1.974,-33.42,31.62,-16.86
2.5879,-10.515,-1.9886,0.88514,-0.22327,1.8463,-33.18,31.98,-16.8
2.152,-10.733,-1.7843,0.76725,-0.28741,1.4337,-33.24,32.4,-16.8
1.3893,-10.665,-1.7025,0.54,-0.095906,1.1933,-32.58,33.54,-16.44
1.1713,-9.8748,-1.9341,0.28436,0.28894,1.0333,-32.28,34.08,-16.32
1.185,-8.7579,-2.2201,0.040317,0.91508,0.92057,-31.74,34.74,-16.14
1.5119,-7.1915,-2.5061,-0.0051924,1.0638,0.89797,-30.48,36.12,-15.6
1.6344,-6.565,-2.4517,-0.057116,1.2834,0.86437,-29.7,36.9,-15.3
1.7025,-6.1836,-2.4108,-0.093462,1.4572,0.80481,-28.8,37.68,-15.0
1.866,-5.7886,-2.1656,-0.11393,1.4832,0.78282,-26.7,39.06,-14.46
2.0022,-5.8023,-2.0567,-0.15547,1.4563,0.79046,-25.74,39.72,-14.16
2.2882,-6.2926,-2.152,-0.18143,1.3601,0.79535,-23.64,40.86,-13.86
2.3427,-6.5786,-2.3155,-0.21319,1.1658,0.78802,-22.56,41.34,-13.68
2.3972,-6.6331,-2.4108,-0.20586,1.0718,0.7703,-21.54,41.7,-13.56
2.3836,-6.6876,-2.4517,-0.15302,0.99602,0.71532,-20.22,42.12,-13.56
2.6696,-7.0145,-2.5061,-0.077885,0.89095,0.64446,-18.06,42.9,-13.86
2.9148,-7.4095,-2.6287,0.0076358,0.70158,0.56413,-16.92,43.2,-13.98
3.0646,-7.9407,-2.7922,0.11668,0.34056,0.45235,-15.96,43.62,-14.16
3.1191,-8.9349,-2.8058,0.13134,0.22755,0.43005,-14.34,44.22,-14.76
3.2144,-9.1937,-2.8467,0.15088,0.0045815,0.32803,-13.62,44.46,-15.06
3.1191,-9.3572,-2.7922,0.13378,-0.02474,0.21961,-13.14,44.64,-15.3
2.942,-9.2891,-2.6696,0.12523,0.037263,0.06353,-12.12,45.0,-15.96
2.9011,-9.3708,-2.6015,0.13683,0.16524,-0.12095,-11.64,45.06,-16.32
3.0918,-10.365,-2.4244,0.20189,0.35064,-0.40897,-11.04,45.36,-17.04
3.3778,-11.605,-2.3155,0.22785,0.3769,-0.47556,-10.8,45.42,-17.28
3.6775,-12.449,-2.3291,0.27153,0.26634,-0.55772,-10.68,45.54,-17.64
4.3858,-12.926,-2.7786,0.25198,0.053145,-0.5452,-10.68,45.54,-18.12
4.1951,-12.476,-2.6423,0.25045,-0.19517,-0.53878,-10.74,45.54,-18.36
3.9363,-11.931,-2.2746,0.20067,-0.38179,-0.62217,-10.86,45.66,-18.54
3.4323,-12.095,-1.4982,0.1179,-0.4554,-0.85338,-11.4,45.48,-19.2
3.3506,-12.449,-1.3212,-0.051007,-0.46456,-1.029,-11.64,45.36,-19.44
3.3506,-12.531,-1.2939,-0.10843,-0.46365,-1.1118,-12.06,45.3,-19.8
3.3506,-12.313,-1.2939,-0.22755,-0.48228,-1.2575,-12.42,45.24,-20.04
3.1463,-10.937,-1.1986,-0.22297,-0.51862,-1.3201,-13.92,45.06,-20.22
2.9829,-10.12,-1.2122,-0.20067,-0.56077,-1.3799,-14.7,45.0,-20.4
2.8467,-8.7443,-1.0351,-0.14294,-0.60995,-1.4432,-16.5,44.82,-20.58
2.5742,-8.1586,-0.91256,-0.083689,-0.68478,-1.5094,-17.52,44.76,-20.7
2.4517,-7.8998,-0.83084,-0.079412,-0.74526,-1.5275,-18.66,44.46,-20.76
2.3427,-7.5865,-0.7355,-0.097738,-0.81917,-1.5211,-19.8,44.4,-20.94
2.1384,-7.0281,-0.72188,-0.1292,-0.8827,-1.4548,-22.26,44.22,-21.06
2.0839,-6.7829,-0.68102,-0.14783,-0.91966,-1.3659,-23.76,44.04,-21.06
1.9341,-6.7012,-0.51757,-0.19242,-0.87781,-1.1982,-26.34,43.74,-21.06
1.6617,-6.5786,-0.42223,-0.23702,-0.78191,-1.0825,-27.84,43.56,-21.0
1.6344,-6.7693,-0.35413,-0.25412,-0.64691,-0.95142,-29.22,43.26,-20.88
1.6617,-6.9191,-0.44947,-0.25992,-0.58643,-0.88239,-30.42,42.96,-21.0
1.7706,-7.8862,-0.24517,-0.26481,-0.41539,-0.65271,-32.64,42.54,-21.18
1.8932,-8.7306,-0.1362,-0.27519,-0.31276,-0.46059,-33.78,42.12,-21.18
2.0294,-9.4389,-0.095342,-0.27947,-0.23366,-0.26939,-34.74,41.88,-21.06
2.2201,-10.665,-0.28603,-0.20953,-0.21044,0.058338,-36.3,41.46,-21.18
2.3427,-11.496,-0.39499,-0.095906,-0.24465,0.29413,-36.96,41.4,-21.18
2.5198,-12.503,-0.57205,-0.041844,-0.27306,0.42638,-37.5,41.16,-21.0
2.5606,-14.192,-0.61292,0.087354,-0.34056,0.80115,-38.46,40.86,-20.82
2.3427,-15.268,-0.34051,0.099571,-0.26634,1.0623,-38.7,40.68,-20.82
2.2882,-15.146,-0.35413,0.054367,-0.075136,1.3008,-38.82,40.8,-20.76
2.2882,-14.152,-0.68102,0.1014,0.16096,1.514,-38.94,40.86,-20.52
2.547,-13.062,-1.2531,0.22235,0.34453,1.7171,-38.94,41.16,-20.4
2.6423,-12.381,-1.6344,0.41142,0.33934,1.8289,-38.88,41.34,-20.28
2.6015,-11.073,-2.0294,0.66035,0.083689,1.7828,-38.46,42.12,-20.1
2.2746,-10.978,-1.9341,0.70769,-0.046731,1.6481,-38.04,42.54,-19.98
2.0022,-11.087,-1.9341,0.62369,-0.046426,1.4969,-37.68,42.84,-20.04
1.7162,-10.501,-1.9477,0.38729,0.12645,1.2694,-36.9,43.8,-19.5
1.5663,-9.902,-2.152,0.17715,0.33506,1.1512,-36.24,44.34,-19.08
1.5255,-9.2482,-2.3427,0.094073,0.46273,1.0989,-35.4,44.94,-18.78
1.4029,-8.4991,-2.3155,-0.15058,0.90042,0.9389,-34.62,45.48,-18.54
1.4301,-7.069,-2.2474,-0.27245,1.1912,0.83689,-32.64,46.8,-17.76
1.5119,-6.4152,-2.0294,-0.35186,1.4282,0.73548,-31.62,47.22,-17.34
1.8932,-5.7614,-1.9613,-0.39156,1.5779,0.66309,-30.54,47.76,-16.98
2.0975,-5.6661,-1.9613,-0.37751,1.5916,0.62858,-28.02,48.66,-16.38
2.4108,-5.5707,-1.9613,-0.34086,1.4752,0.63438,-26.7,49.08,-15.96
2.7377,-5.6388,-2.0431,-0.28619,1.2562,0.63744,-25.5,49.5,-15.66
3.2961,-5.7614,-2.1248,-0.20342,0.91874,0.60781,-23.22,50.28,-15.06
3.2008,-5.9385,-2.2201,-0.10568,0.56719,0.5229,-22.02,50.7,-14.88
3.1735,-6.5241,-2.4789,0.0079412,0.26909,0.41264,-20.76,50.94,-14.88
3.0101,-6.96,-2.6968,0.12065,-0.067806,0.24282,-18.9,51.36,-15.0
3.0101,-7.464,-3.0646,0.20067,-0.28405,0.16066,-18.0,51.48,-15.06
3.051,-7.9134,-3.2553,0.21197,-0.49938,0.093157,-17.16,51.78,-15.24
2.7241,-8.4991,-3.2144,0.15852,-0.59162,0.016799,-16.56,51.96,-15.54
2.3972,-8.9349,-2.7513,0.066279,-0.52107,-0.041233,-15.48,52.32,-15.96
2.1112,-9.1256,-2.6287,-0.051618,-0.15455,-0.17013,-15.18,52.56,-16.14
2.0567,-9.4389,-2.5198,-0.11759,0.02138,-0.2251,-14.7,52.86,-16.68
2.2474,-10.12,-2.3018,-0.10049,0.51129,-0.36194,-14.7,53.1,-16.92
2.8058,-11.468,-2.2065,-0.043371,0.66096,-0.36255,-14.64,53.16,-17.04
3.732,-12.721,-2.2201,-0.019853,0.63469,-0.35552,-14.76,53.28,-17.58
4.3721,-12.286,-2.3427,0.046426,0.43555,-0.34086,-14.88,53.46,-17.82
4.413,-11.618,-2.0567,0.15241,0.097433,-0.35125,-15.0,53.52,-18.06
4.2495,-11.468,-1.6889,0.22266,-0.39004,-0.56352,-15.42,53.76,-18.48
3.9908,-11.85,-1.4574,0.22235,-0.53298,-0.65576,-15.96,53.88,-18.72
3.8409,-12.149,-1.4165,0.1689,-0.73579,-0.87781,-16.44,53.94,-18.84
3.3778,-12.762,-1.1169,-0.033292,-0.8265,-1.1832,-17.7,53.64,-18.96
3.1872,-12.585,-0.99429,-0.18479,-0.74739,-1.3567,-18.3,53.58,-19.2
2.9011,-12.122,-0.91256,-0.29627,-0.60598,-1.5143,-19.2,53.46,-19.2
2.6423,-11.06,-0.70826,-0.34514,-0.36469,-1.6784,-21.06,52.86,-19.2
2.5742,-10.338,-0.65378,-0.31001,-0.24099,-1.7373,-22.26,52.62,-19.2
2.3972,-9.6432,-0.61292,-0.24893,-0.10415,-1.7373,-23.46,52.32,-19.14
2.4925,-8.2676,-0.54481,-0.13928,-0.087354,-1.6939,-26.28,51.72,-18.84
2.5742,-7.5048,-0.54481,-0.0097738,-0.19945,-1.5999,-27.78,51.24,-18.54
2.6832,-7.1371,-0.39499,0.10782,-0.41264,-1.4862,-29.4,50.7,-18.48
2.6423,-6.6876,-0.38137,0.26664,-0.85796,-1.273,-32.64,49.44,-18.12
2.5198,-6.6331,-0.32689,0.36224,-1.1487,-1.102,-34.26,48.72,-17.82
2.4653,-6.6059,-0.24517,0.4273,-1.3754,-0.92302,-35.94,48.06,-17.64
2.1793,-6.674,-0.01362,0.48136,-1.5244,-0.73273,-39.0,46.74,-17.28
2.0294,-6.7966,-0.054481,0.50244,-1.5944,-0.55864,-40.62,46.08,-16.92
1.7979,-6.9328,-0.054481,0.49633,-1.5446,-0.39645,-42.0,45.42,-16.68
1.5936,-7.0553,-0.095342,0.48075,-1.303,-0.1576,-44.46,44.16,-16.14
1.5663,-7.355,-0.20431,0.46242,-1.1832,-0.081245,-45.48,43.32,-15.72
1.6481,-7.7636,-0.24517,0.43035,-0.95448,0.082772,-46.38,42.78,-15.54
1.866,-8.3765,-0.55843,0.40653,-0.68234,0.35522,-47.16,42.12,-15.18
2.3563,-9.5751,-1.4165,0.42577,-0.64049,0.54764,-48.3,41.1,-14.46
2.6696,-10.392,-1.8796,0.45784,-0.74403,0.76664,-48.66,40.68,-14.04
2.833,-12.204,-2.1656,0.42761,-1.0336,1.1179,-49.32,40.2,-13.02
2.6968,-13.13,-2.0567,0.38515,-1.0974,1.233,-49.38,40.08,-12.6
2.4653,-13.757,-1.9341,0.24282,-1.1212,1.4563,-49.44,40.02,-12.18
2.0431,-14.86,-1.6889,-0.027489,-0.78618,1.7431,-49.26,40.08,-11.64
1.7162,-15.609,-1.4574,-0.16524,-0.30024,1.8888,-48.84,40.44,-10.56
2.0294,-15.827,-1.7162,-0.19823,0.24221,2.0284,-48.36,40.44,-9.96
2.5061,-14.56,-2.5606,-0.088575,0.55497,2.131,-48.06,40.86,-9.36
3.1191,-12.122,-2.8194,0.096211,0.49236,2.0656,-46.68,42.06,-8.46
3.0101,-10.379,-2.7377,0.11515,0.27214,1.8253,-45.96,42.54,-7.8
2.6832,-9.1256,-2.5061,0.069944,0.002138,1.478,-45.06,43.32,-7.32
2.1248,-8.7579,-2.1656,-0.020159,-0.15394,1.0794,-44.1,44.1,-6.84
1.0215,-9.3844,-1.7025,-0.20342,-0.079107,0.67073,-42.0,45.54,-5.88
0.76274,-9.4389,-1.7706,-0.49663,0.23518,0.31185,-40.98,46.38,-5.28
0.83084,-8.7987,-1.5663,-0.86804,0.89186,-0.021991,-38.7,47.7,-4.32
1.0488,-8.4174,-1.4574,-1.0073,1.2581,-0.18967,-37.44,48.12,-3.84
1.1305,-7.8998,-1.5119,-1.0354,1.4255,-0.25259,-36.48,48.54,-3.42
1.6208,-6.9055,-1.7706,-0.90164,1.7807,-0.37721,-34.38,49.44,-2.58
1.9613,-6.4152,-1.9341,-0.67134,1.7798,-0.40378,-33.54,49.8,-2.22
2.2065,-5.9793,-1.866,-0.44227,1.5751,-0.4102,-32.7,49.98,-1.98
2.4244,-5.5707,-1.8387,-0.18418,1.0037,-0.40684,-31.56,49.92,-1.68
2.4108,-5.3664,-1.7979,-0.099266,0.56016,-0.40287,-31.02,49.74,-1.56
2.2882,-5.2302,-1.7979,-0.067195,0.36285,-0.40073,-30.6,49.5,-1.38
1.8387,-5.5435,-2.0567,0.0012217,-0.016188,-0.42669,-30.24,48.9,-1.38
1.7298,-5.8159,-2.1656,0.019242,-0.10232,-0.44318,-30.18,48.6,-1.38
1.5663,-6.1564,-2.1929,0.03146,-0.061392,-0.43219,-30.12,48.06,-1.56
1.58,-6.565,-2.2201,0.035125,-0.03879,-0.41325,-30.0,47.76,-1.56
1.9205,-7.6683,-2.1929,0.055283,-0.0018326,-0.33567,-30.06,47.34,-1.62
2.0431,-8.1041,-2.2474,0.091324,0.015577,-0.23396,-30.24,47.04,-1.74
2.1656,-8.3765,-2.2882,0.17837,0.016188,-0.034819,-30.24,46.62,-1.92
2.5198,-9.2482,-2.3427,0.26481,-0.032376,0.10018,-30.6,45.9,-2.4
2.656,-9.3163,-2.5606,0.37049,-0.13744,0.19853,-30.78,45.6,-2.7
2.8194,-9.1256,-2.7786,0.48503,-0.28986,0.26237,-30.84,44.94,-3.06
2.7377,-8.8805,-2.8739,0.62736,-0.54795,0.28253,-30.78,44.7,-3.12
2.6696,-8.6762,-3.0646,0.64752,-0.62644,0.27458,-30.9,44.64,-3.18
2.3836,-8.2403,-3.0101,0.68234,-0.78863,0.23457,-30.9,44.46,-3.42
2.0431,-7.5457,-2.9965,0.65821,-0.79412,0.20831,-30.72,44.04,-3.48
1.9613,-7.1643,-2.9556,0.60567,-0.72724,0.18967,-30.6,43.86,-3.36
1.9341,-6.9872,-2.9284,0.57146,-0.62766,0.19395,-30.6,43.62,-3.36
2.2474,-7.8862,-2.9011,0.52198,-0.55589,0.27703,-30.6,43.38,-3.66
2.5061,-8.5808,-2.9692,0.50488,-0.56047,0.32559,-30.48,43.32,-3.6
2.8603,-9.3027,-2.9829,0.45051,-0.62064,0.46151,-30.3,43.38,-3.6
3.0646,-10.215,-2.7104,0.42119,-0.64385,0.52198,-30.0,43.26,-3.48
3.1054,-10.964,-2.3155,0.40225,-0.57482,0.54611,-29.88,43.2,-3.48
3.3778,-12.217,-1.9341,0.36957,-0.4554,0.50244,-29.58,43.14,-3.48
3.4459,-12.762,-1.7025,0.30665,-0.31276,0.3989,-29.64,43.14,-3.42
3.732,-13.321,-1.5663,0.28924,-0.21044,0.24984,-29.46,43.08,-3.42
4.2904,-11.605,-1.9205,0.24465,-0.37446,-0.025656,-29.22,43.08,-3.42
4.0589,-9.7249,-1.7979,0.28344,-0.63011,-0.25229,-29.34,43.08,-3.6
3.7456,-8.2131,-0.76274,0.35186,-0.95997,-0.4893,-29.28,42.96,-3.66
3.8954,-8.9213,-0.5993,0.45754,-1.3934,-0.65088,-29.28,42.72,-3.48
3.9908,-9.8203,-0.61292,0.47861,-1.9062,-0.74709,-29.28,42.54,-3.36
4.1542,-11.455,-1.1169,0.48411,-2.4386,-0.73395,-29.64,41.82,-3.12
3.9908,-11.741,-0.9398,0.43952,-2.8967,-0.63774,-29.52,41.58,-2.82
3.5413,-11.441,-0.78998,0.31246,-3.0745,-0.52962,-29.64,41.22,-2.64
2.7922,-10.569,-0.36775,0.21166,-2.9041,-0.51924,-29.58,40.32,-1.56
2.6015,-10.025,-0.24517,-0.034208,-2.4606,-0.69486,-29.58,39.9,-0.96
2.6015,-9.398,-0.10896,-0.1011,-2.3173,-0.78343,-29.58,38.7,0.48
2.8875,-9.3708,0.38137,-0.34392,-2.0427,-1.003,-29.64,38.22,1.32
2.9284,-9.4661,0.53119,-0.42577,-1.9847,-1.0644,-29.64,37.62,2.04
3.2553,-9.6977,0.96704,-0.66737,-1.89,-1.135,-29.52,36.96,3.06
3.2553,-9.8748,1.1169,-0.75747,-1.8421,-1.1121,-29.34,35.58,4.98
3.2144,-9.8884,1.0896,-0.76572,-1.7132,-1.0253,-29.1,34.92,5.88
3.3097,-9.9973,1.3484,-0.73579,-1.6573,-0.98105,-28.86,33.54,7.98
3.2553,-9.8611,1.5527,-0.6524,-1.4218,-0.86376,-28.5,33.06,8.94
3.2553,-9.8611,1.5527,-0.5565,-1.1802,-0.79474,-28.5,33.06,8.94
3.2553,-9.8611,1.5527,-0.52657,-1.1161,-0.7813,-28.5,33.06,8.94
3.2961,-9.5887,1.5936,-0.47831,-1.0305,-0.76022,-27.78,31.74,10.92
3.2144,-9.5751,1.3212,-0.38515,-0.98227,-0.74617,-27.06,30.48,12.18
3.1327,-9.6432,1.0896,-0.33017,-0.99174,-0.74831,-26.88,29.88,12.9
3.051,-9.9565,0.99429,-0.30085,-0.99174,-0.748,-26.52,29.28,13.38
2.9692,-10.365,0.72188,-0.22388,-0.99082,-0.6973,-25.2,27.3,15.42
2.9556,-10.597,0.20431,-0.14416,-1.0165,-0.60323,-24.48,26.28,16.2
2.6968,-10.692,-0.027241,-0.060781,-1.0956,-0.49266,-23.82,25.5,16.98
2.3836,-11.346,-0.19068,0.018937,-1.1811,-0.31979,-22.92,24.84,17.64
2.261,-11.673,-0.27241,0.10629,-1.1988,-0.10171,-22.56,24.36,17.76
2.0022,-12.749,-0.32689,0.16707,-1.0229,0.26237,-21.96,23.82,18.3
1.8932,-11.632,-0.92618,0.22419,-0.83108,0.42669,-21.42,23.7,18.84
1.6344,-8.826,-1.8932,0.40806,-0.75778,0.4386,-20.7,23.64,19.2
1.6072,-6.1973,-2.5334,0.66676,-0.89186,0.27978,-20.04,23.76,19.68
1.4301,-5.3392,-2.6423,0.9221,-1.2285,0.018937,-19.26,23.94,19.98
1.3757,-5.9521,-2.5742,1.1768,-1.8225,-0.33078,-18.72,24.12,20.22
1.3348,-7.7091,-2.4108,1.168,-2.0284,-0.3937,-18.18,24.3,20.28
1.2667,-9.1256,-2.2201,0.94684,-2.3579,-0.40531,-16.86,24.84,20.7
1.1441,-9.7385,-2.261,0.6689,-2.3115,-0.2529,-16.02,24.96,21.0
1.0079,-9.902,-2.2882,0.44013,-2.1112,-0.040012,-15.3,25.32,21.24
1.0079,-9.5615,-2.7104,0.29505,-1.7856,0.14325,-13.68,26.1,21.48
1.185,-9.1529,-2.833,0.28222,-1.3375,0.32223,-12.66,26.28,21.6
1.5255,-8.8124,-2.7786,0.37965,-0.95356,0.36224,-11.58,26.52,21.6
2.4925,-8.6762,-2.9692,0.551,-0.82711,0.40592,-9.6,27.24,21.66
2.9284,-8.7851,-2.9011,0.67104,-0.97219,0.4328,-8.7,27.54,21.66
3.4187,-9.0439,-2.9556,0.7532,-1.6063,0.49663,-7.8,27.84,21.48
3.7728,-9.6432,-2.6832,0.70647,-2.1677,0.53756,-5.7,28.8,21.18
3.4732,-9.6977,-2.5061,0.47556,-2.6374,0.53359,-4.56,29.22,20.82
3.1327,-9.7249,-2.2746,0.39004,-2.6463,0.51526,-3.3,29.64,20.7
2.6968,-9.4798,-2.0567,0.20861,-2.5201,0.45051,-1.02,30.36,20.34
2.7241,-9.0303,-2.1112,0.038179,-2.2098,0.33384,0.06,30.84,19.98
2.9011,-8.7987,-2.0567,-0.16463,-1.6628,0.10721,1.2,31.2,19.68
3.5685,-8.1586,-1.7025,-0.25504,-1.4047,-0.062003,3.54,31.8,19.26
3.9635,-8.0088,-1.3212,-0.32712,-1.2065,-0.3149,4.5,32.16,18.96
4.6037,-8.2267,-0.84446,-0.35064,-1.2046,-0.3882,6.3,32.76,18.66
4.9033,-8.6081,-0.77636,-0.33598,-1.3631,-0.59895,7.26,32.94,18.42
5.1485,-8.8941,-0.65378,-0.30635,-1.4557,-0.6747,8.16,33.12,18.18
5.4073,-9.3708,-0.53119,-0.25168,-1.6942,-0.93676,9.18,33.24,18.0
5.094,-9.4934,-0.12258,-0.20769,-1.7483,-1.1643,10.56,33.42,17.64
4.7944,-9.6296,0.43585,-0.13256,-1.6295,-1.5409,11.16,33.54,17.64
4.9578,-12.871,0.81722,-0.03207,-1.5852,-1.6182,12.24,33.48,17.34
5.7205,-14.955,0.53119,0.11973,-1.6139,-1.6576,12.6,33.6,17.28
6.0611,-14.342,-0.29965,0.14539,-1.6802,-1.6832,12.96,33.66,17.1
5.5299,-11.373,-0.55843,0.27978,-1.93,-1.843,13.2,33.84,16.86
4.6037,-8.826,1.185,0.33659,-2.0824,-1.9355,13.32,34.14,16.38
4.4811,-9.5342,1.7979,0.33475,-2.3451,-2.0461,13.32,34.32,16.14
4.699,-10.992,1.3212,0.28375,-2.4135,-2.0656,13.38,34.74,15.78
4.9442,-11.891,0.98067,0.32009,-2.6881,-2.0165,13.38,35.04,15.42
5.0531,-11.836,0.89894,0.35705,-2.7898,-1.9865,13.26,35.4,14.94
4.8897,-12.04,1.4301,0.45265,-2.9031,-1.8473,13.08,36.24,13.98
4.4402,-12.177,1.58,0.42547,-2.7904,-1.7883,12.9,36.6,13.62
3.9499,-12.149,1.5391,0.33231,-2.4939,-1.7581,12.78,36.96,13.08
3.4732,-10.964,1.1441,0.18601,-1.9331,-1.751,12.12,38.28,11.88
3.4596,-10.447,0.95342,0.13103,-1.6438,-1.7165,11.88,38.76,11.1
3.3915,-9.793,0.58567,0.12645,-1.5363,-1.704,11.52,39.36,10.32
3.4459,-8.9894,0.24517,0.12248,-1.3793,-1.5953,10.56,40.5,9.18
3.3642,-8.7306,0.19068,0.12737,-1.3592,-1.4966,10.08,41.16,8.46
3.2144,-8.322,0.054481,0.12462,-1.3286,-1.3842,9.72,41.64,7.74
2.9284,-8.1041,-0.20431,0.12492,-1.2746,-1.2223,8.88,42.78,6.36
2.7377,-8.145,-0.32689,0.12889,-1.2477,-1.157,8.4,43.2,5.82
2.6968,-8.2403,-0.43585,0.13806,-1.1729,-1.0287,7.92,43.74,5.34
2.7377,-8.5536,-0.55843,0.15211,-1.0351,-0.77885,7.44,44.22,4.86
2.7513,-10.065,-0.6674,0.14478,-0.95631,-0.57055,6.9,45.18,3.96
2.7649,-10.842,-0.51757,0.10324,-0.86865,-0.32895,6.42,45.6,3.72
2.547,-12.367,-0.35413,0.023824,-0.66615,0.068417,5.76,46.14,3.24
2.3836,-13.348,-0.31327,-0.0082467,-0.48167,0.37293,5.46,46.32,3.0
2.2337,-13.879,-0.20431,-0.015882,-0.37477,0.53115,5.28,46.5,2.88
2.1384,-14.574,-0.095342,0.076664,-0.022602,1.0049,5.34,46.56,2.28
2.0839,-14.261,-0.081722,0.19853,0.24099,1.2914,5.34,46.74,2.22
1.8115,-13.021,-0.19068,0.38546,0.46823,1.5256,5.46,46.92,2.28
2.1248,-12.395,-0.76274,0.85552,0.54123,1.7703,5.82,46.98,2.16
2.4108,-12.163,-1.2531,1.1417,0.32467,1.8503,6.06,46.98,1.92
2.4925,-12.027,-1.4574,1.2559,0.16524,1.8616,6.3,46.98,1.68
2.3155,-11.359,-1.58,1.3931,-0.35308,1.7901,6.54,46.98,1.26
1.7298,-10.283,-1.7979,1.3836,-0.54092,1.6719,7.32,46.98,0.48
1.3484,-9.6023,-1.9341,1.3118,-0.57269,1.5571,7.8,46.86,0.06
0.98067,-8.717,-2.4108,1.2514,-0.49175,1.4197,8.88,46.74,-0.42
0.89894,-8.54,-2.7786,1.1536,-0.17532,1.3839,9.54,46.68,-0.6
1.076,-8.3765,-3.1599,1.0989,0.041539,1.4291,10.26,46.44,-0.66
1.5119,-8.1313,-3.4187,1.0324,0.208,1.5217,12.06,46.2,-1.14
1.6481,-7.75,-3.6094,0.94959,0.29138,1.635,13.08,46.02,-1.32
1.8524,-7.3822,-3.7047,0.87476,0.33201,1.7168,13.98,45.84,-1.62
2.0022,-7.246,-3.732,0.76175,0.32865,1.752,16.2,45.48,-2.16
2.0567,-7.0281,-3.8137,0.56047,0.32865,1.6991,17.4,45.36,-2.52
2.0294,-7.2052,-3.6911,0.44196,0.33872,1.5974,18.78,44.94,-2.76
2.1248,-7.8045,-3.5685,0.26848,0.38362,1.434,20.04,44.7,-2.88
2.1248,-8.0496,-3.3642,0.076969,0.43188,1.2117,21.24,44.28,-3.12
2.3563,-8.4855,-2.9284,-0.12431,0.49847,0.93432,23.7,43.62,-3.12
2.4108,-8.5127,-2.7377,-0.28772,0.60659,0.63133,24.78,43.32,-3.48
2.4517,-8.4719,-2.6015,-0.47678,0.78343,0.17471,25.92,42.96,-3.6
2.6423,-8.3765,-2.5061,-0.50916,0.81886,0.03207,26.88,42.66,-3.96
3.2144,-8.6081,-2.0839,-0.50274,0.79443,-0.33201,28.56,42.3,-4.2
3.623,-8.9622,-2.0294,-0.43524,0.66004,-0.54734,29.28,41.94,-4.32
3.732,-9.2482,-1.9205,-0.36591,0.47128,-0.75839,29.94,41.82,-4.5
3.9363,-10.025,-1.7434,-0.25198,0.2697,-0.97189,30.6,41.4,-4.44
4.0452,-10.488,-1.6344,0.011606,-0.047953,-1.2043,30.78,41.22,-4.32
4.3858,-12.068,-1.9068,0.0956,-0.16616,-1.259,30.84,41.04,-4.08
4.7263,-12.871,-2.1384,0.15455,-0.54459,-1.4279,30.66,41.1,-3.66
4.7126,-12.898,-2.0431,0.11515,-0.7422,-1.5357,30.3,41.28,-3.48
4.7671,-12.64,-1.8387,-0.019548,-0.89675,-1.7248,29.94,41.52,-3.48
4.0861,-12.749,-1.2531,-0.17562,-0.96944,-1.9881,28.86,42.0,-3.48
3.8137,-12.776,-1.0896,-0.37935,-0.87965,-2.4352,28.2,42.24,-3.24
3.6094,-12.776,-0.89894,-0.54795,-0.81948,-2.5601,27.36,42.6,-3.18
3.5685,-12.721,-0.96704,-0.71929,-0.65943,-2.813,25.44,43.38,-3.06
3.732,-12.708,-0.83084,-0.7364,-0.63011,-2.8573,23.94,44.04,-3.06
3.732,-12.585,-0.74912,-0.7419,-0.62094,-2.8314,22.5,44.34,-2.88
3.4596,-11.536,-0.61292,-0.72601,-0.60079,-2.7486,19.56,45.6,-3.3
3.1872,-10.556,-0.5993,-0.57941,-0.58002,-2.5415,17.94,46.2,-3.48
2.7922,-8.4719,-0.70826,-0.52015,-0.57574,-2.4706,14.58,47.4,-3.84
2.6696,-7.6819,-0.85808,-0.31001,-0.64904,-2.2174,12.84,48.12,-4.26
2.6423,-7.3822,-0.92618,-0.18754,-0.79015,-2.0363,11.16,48.42,-4.44
2.547,-7.0962,-1.0215,-0.12828,-0.9334,-1.839,9.3,48.96,-4.68
2.1793,-6.5378,-0.85808,-0.15547,-1.0486,-1.627,6.0,49.86,-4.8
2.0431,-6.1564,-0.8036,-0.21289,-1.1096,-1.3998,2.88,50.52,-5.04
1.6481,-6.1973,-0.85808,-0.29077,-1.0461,-1.047,1.32,50.88,-5.04
1.5663,-7.0417,-0.57205,-0.33017,-0.9166,-0.76541,-0.96,51.0,-5.16
1.7025,-8.1041,-0.46309,-0.3708,-0.73976,-0.45357,-2.76,50.76,-4.98
1.9341,-8.6353,-0.14982,-0.40714,-0.56566,-0.13989,-4.38,50.82,-4.68
2.1248,-9.1256,-0.040861,-0.38057,-0.40897,0.15394,-5.34,50.64,-4.38
2.4108,-10.324,0.01362,-0.2865,-0.29352,0.46181,-6.0,50.4,-3.54
2.6151,-11.182,0.01362,-0.13928,-0.22724,0.80359,-6.18,50.16,-3.0
3.0918,-12.817,0.01362,0.12828,-0.24038,1.3164,-6.54,49.8,-2.52
3.1872,-13.675,-0.1362,0.32437,-0.28986,1.6307,-6.24,49.74,-2.22
3.0237,-14.737,-0.14982,0.53176,-0.33353,1.945,-5.88,49.74,-1.8
2.8603,-14.587,0.17706,0.64049,-0.25168,2.2513,-5.4,50.04,-1.98
2.6696,-12.994,-0.095342,0.73762,-0.069028,2.4108,-4.32,50.28,-2.4
2.7922,-11.346,-0.64016,1.0614,0.13378,2.4819,-2.94,50.34,-2.4
2.942,-10.787,-1.0624,1.3271,0.12217,2.423,-2.28,50.4,-2.64
3.1327,-11.005,-1.6072,1.554,-0.027184,2.3549,-0.9,50.58,-3.78
3.1054,-11.073,-1.8251,1.6408,-0.1909,2.262,0.78,50.82,-4.8
2.8194,-10.719,-2.0703,1.6255,-0.3091,2.1942,2.34,50.82,-5.46
2.5606,-10.433,-2.3291,1.5434,-0.42089,2.1429,4.2,50.7,-6.18
2.4244,-10.243,-2.547,1.3748,-0.4441,2.0635,5.16,50.52,-6.54
1.9886,-9.9701,-2.7377,1.3231,-0.37049,2.0323,7.32,50.1,-7.08
1.8932,-9.8203,-3.0373,1.1316,0.0042761,1.9484,8.34,49.98,-7.44
1.7298,-9.0303,-3.514,0.96211,0.34972,1.8418,10.62,49.62,-8.1
1.5391,-8.2131,-3.6775,0.77885,0.71532,1.6866,11.82,49.32,-8.58
1.4438,-7.4095,-3.3506,0.57971,1.0663,1.504,14.4,48.66,-9.06
1.6481,-7.1779,-3.0373,0.36438,1.383,1.2929,15.6,48.24,-9.12
1.9886,-6.7693,-2.833,0.13439,1.6472,0.97952,18.36,47.52,-9.42
2.1793,-6.851,-2.7649,0.0079412,1.679,0.79596,19.5,47.04,-9.54
2.4789,-6.8647,-2.9556,-0.10568,1.6163,0.64416,22.02,46.44,-9.78
2.7786,-6.8919,-2.9011,-0.17807,1.4878,0.53054,24.42,45.84,-10.02
2.9011,-6.9328,-2.6968,-0.21655,1.3091,0.4386,25.98,45.36,-10.02
2.8058,-7.0009,-2.4789,-0.21136,1.1099,0.34575,26.76,45.0,-9.96
2.9011,-7.7091,-2.2474,-0.16402,0.9053,0.26939,27.9,44.58,-9.6
3.1463,-8.6217,-2.1384,-0.06689,0.69303,0.12767,28.68,44.04,-9.24
3.3234,-9.3844,-2.2065,-0.0030543,0.54825,0.056505,28.98,43.98,-9.0
3.3097,-9.9973,-2.0839,0.054367,0.41447,-0.071166,29.34,43.68,-8.46
3.4459,-10.61,-2.0431,0.17135,0.26542,-0.19426,29.46,43.74,-8.22
4.2495,-14.083,-2.7241,0.33353,0.041233,-0.3091,29.76,43.8,-7.86
4.5083,-15.228,-3.0101,0.35033,-0.5116,-0.50183,29.64,43.62,-7.68
4.2632,-14.969,-2.6423,0.18021,-0.82803,-0.74251,29.58,43.5,-7.62
3.732,-13.988,-1.757,-0.096517,-1.0174,-1.0767,29.46,43.5,-7.8
3.2008,-13.28,-1.2667,-0.38668,-1.0516,-1.5052,29.22,43.62,-7.68
2.4789,-13.225,-0.76274,-0.62156,-0.94379,-1.9545,28.56,43.86,-7.8
2.3018,-13.607,-0.85808,-0.83536,-0.7761,-2.3735,27.42,44.4,-7.8
2.2746,-13.566,-0.84446,-1.0055,-0.57513,-2.7058,26.76,44.64,-7.8
2.3972,-12.708,-0.84446,-1.0993,-0.25717,-2.9633,25.08,45.24,-7.62
2.4517,-12.217,-0.84446,-1.0125,-0.10721,-2.9884,24.0,45.48,-7.62
2.656,-10.583,-0.74912,-0.86896,-0.076358,-2.9334,21.42,46.26,-7.2
2.8194,-9.1529,-0.83084,-0.69119,-0.15424,-2.8384,18.3,47.16,-6.84
2.7377,-8.2131,-0.72188,-0.53084,-0.33445,-2.74,15.0,48.12,-6.36
2.6696,-7.927,-0.6674,-0.40164,-0.72998,-2.5409,13.26,48.42,-6.12
2.5742,-7.4503,-0.55843,-0.39126,-0.85765,-2.4679,9.54,49.2,-6.0
2.2882,-7.355,-0.35413,-0.40897,-1.1328,-2.2141,6.3,49.68,-5.76
2.0431,-7.2869,-0.38137,-0.45693,-1.1616,-2.0284,4.8,49.92,-5.64
1.6072,-7.069,-0.34051,-0.48625,-1.0757,-1.8631,1.74,50.28,-5.64
1.3348,-7.069,-0.24517,-0.49816,-0.90103,-1.682,-0.78,50.4,-5.46
1.3484,-7.1915,-0.20431,-0.49297,-0.66493,-1.4762,-2.1,50.16,-5.52
1.4574,-7.6546,-0.068102,-0.47495,-0.33872,-1.1029,-4.02,50.04,-5.34
1.6208,-8.5808,-0.040861,-0.40745,-0.19609,-0.7871,-5.52,49.5,-5.04
1.8524,-9.2891,0.040861,-0.33292,-0.12675,-0.43494,-6.3,49.26,-4.8
2.1384,-10.324,-0.027241,-0.22816,-0.1182,-0.022602,-7.38,48.78,-4.32
2.6696,-11.863,-0.095342,-0.12095,-0.16524,0.40378,-8.04,48.24,-3.66
2.7377,-12.136,-0.14982,0.0067195,-0.26817,0.8207,-8.34,47.94,-3.42
2.6015,-13.062,-0.32689,0.13775,-0.33934,1.1695,-8.58,47.34,-2.94
2.5061,-13.648,-0.1362,0.29688,-0.24435,1.6301,-8.64,46.98,-2.58
2.2201,-12.381,-0.068102,0.32437,-0.032376,1.8607,-8.34,46.98,-2.46
2.2746,-11.114,-0.61292,0.44318,0.20617,2.051,-7.74,47.04,-2.64
2.4108,-10.76,-1.0215,0.65699,0.33659,2.2107,-7.44,47.04,-2.82
2.8058,-10.774,-1.6344,0.93951,0.26389,2.3579,-6.66,47.28,-3.3
2.9829,-11.046,-1.8524,1.1796,0.059559,2.4807,-5.64,47.52,-3.9
2.9829,-10.733,-2.3563,1.4035,-0.31368,2.5717,-4.62,47.88,-4.62
2.8058,-10.392,-2.438,1.4416,-0.562,2.565,-4.14,48.0,-4.86
2.4517,-9.8203,-2.6696,1.4154,-0.72571,2.5045,-3.0,48.42,-5.28
1.7706,-9.3163,-2.7513,1.3244,-0.72785,2.4025,-1.26,48.48,-5.64
1.6072,-9.2482,-2.7922,1.1842,-0.54031,2.2877,-0.18,48.6,-5.82
1.2803,-8.9622,-2.9284,0.99235,-0.18692,2.1686,2.22,48.48,-6.06
1.1713,-8.826,-2.9284,0.66584,0.52748,2.0085,4.98,48.24,-6.06
1.1713,-8.5808,-2.9556,0.42119,1.0437,1.8692,6.48,48.06,-6.0
1.5391,-8.036,-2.9284,0.22174,1.4673,1.711,9.42,47.7,-6.3
1.975,-7.6002,-2.6832,0.064141,1.7599,1.5287,12.48,47.52,-6.24
2.1793,-7.5729,-2.7513,-0.072998,1.9371,1.3256,13.98,47.22,-6.24
2.5061,-7.3822,-2.547,-0.1744,1.9942,1.0999,17.1,46.74,-6.24
2.7377,-7.3822,-2.2882,-0.25015,1.9108,0.75839,19.92,46.02,-6.24
3.0101,-7.6683,-2.2882,-0.24923,1.7202,0.54947,22.08,45.48,-6.12
3.1191,-7.8045,-2.3155,-0.23885,1.4539,0.35308,22.8,45.24,-6.12
3.1735,-8.0632,-2.3291,-0.20311,1.1417,0.20281,24.24,44.88,-5.88
3.1872,-8.6217,-2.3018,-0.13073,0.8262,0.078496,25.32,44.7,-5.64
3.051,-9.1393,-2.1248,-0.068417,0.562,-0.034819,25.68,44.64,-5.46
3.0237,-9.3708,-2.1656,-0.011606,0.38759,-0.13134,26.04,44.28,-4.74
2.9011,-9.7249,-2.1929,0.12798,0.23457,-0.31246,26.34,44.1,-4.44
2.8058,-10.011,-2.2201,0.21136,0.20922,-0.42761,26.52,44.04,-4.14
2.8603,-10.351,-2.1929,0.28558,0.19639,-0.56077,26.28,44.22,-4.02
3.1463,-11.509,-2.261,0.38393,0.14233,-0.68478,26.04,44.4,-3.72
3.4459,-11.945,-2.4653,0.45509,-0.019242,-0.759,25.86,44.46,-3.78
3.9227,-11.795,-2.9965,0.49052,-0.3259,-0.8262,25.5,44.7,-3.66
3.9227,-11.414,-2.9011,0.47709,-0.87965,-0.94837,24.78,44.82,-3.48
3.7047,-11.155,-2.4653,0.35613,-1.1863,-1.1341,24.42,44.88,-3.6
3.1191,-11.768,-1.8524,0.19426,-1.3558,-1.3387,23.76,45.24,-3.54
2.942,-12.108,-1.7025,-0.019548,-1.4337,-1.5485,22.86,45.66,-3.96
2.7513,-12.762,-1.6481,-0.27611,-1.3998,-1.7492,22.44,45.66,-4.14
2.3836,-12.776,-1.2803,-0.5455,-1.2132,-1.9777,21.0,45.9,-4.26
2.2201,-12.503,-1.2258,-0.78985,-0.90775,-2.047,20.28,45.96,-4.38
2.152,-11.618,-1.0896,-0.95845,-0.34086,-2.1725,18.42,46.2,-4.44
2.4108,-10.474,-1.0488,-0.95967,-0.045815,-2.2397,16.44,46.32,-4.38
2.5334,-9.9973,-0.96704,-0.90347,0.1011,-2.2556,15.24,46.44,-4.38
2.6832,-9.3572,-0.99429,-0.80817,0.11973,-2.2449,12.78,46.74,-4.32
2.7649,-8.7443,-0.85808,-0.71746,-0.061697,-2.1515,10.14,47.04,-4.08
2.833,-8.0632,-0.8036,-0.61453,-0.2813,-2.0751,7.38,47.22,-4.08
2.6832,-7.7091,-0.65378,-0.55986,-0.50183,-1.9648,6.12,47.28,-3.78
2.4653,-7.5048,-0.54481,-0.50641,-0.6857,-1.8482,3.48,47.46,-3.36
2.2065,-7.3958,-0.40861,-0.46334,-0.79504,-1.7071,1.14,47.58,-3.42
2.0839,-7.4503,-0.44947,-0.41417,-0.80604,-1.544,0.12,47.58,-3.54
1.9205,-7.4231,-0.32689,-0.36041,-0.75778,-1.3485,-1.68,47.46,-3.6
1.9068,-7.6138,-0.39499,-0.30971,-0.67378,-1.1338,-2.52,47.52,-3.54
2.0022,-7.927,-0.38137,-0.20372,-0.5568,-0.7645,-3.96,47.22,-3.42
2.0567,-8.5127,-0.28603,-0.13714,-0.47342,-0.48319,-4.44,47.1,-3.42
2.152,-8.8668,-0.34051,-0.054978,-0.41203,-0.19334,-4.86,46.8,-3.48
2.3155,-9.7658,-0.39499,0.03207,-0.37782,0.11118,-5.52,46.26,-3.36
2.3427,-10.501,-0.54481,0.14661,-0.38271,0.39584,-5.64,46.14,-3.24
2.4517,-11.155,-0.57205,0.28588,-0.39095,0.70036,-5.82,45.9,-3.18
2.5061,-12.163,-0.64016,0.41233,-0.36102,1.1496,-5.88,45.6,-3.24
2.5061,-13.593,-0.65378,0.4777,-0.27458,1.4939,-5.82,45.3,-3.36
2.4789,-14.696,-0.51757,0.4835,-0.092546,1.8928,-5.64,45.18,-3.12
2.5742,-14.015,-0.68102,0.48533,0.15363,2.2614,-5.34,45.12,-3.06
2.8875,-13.321,-1.2531,0.66798,0.38698,2.7306,-4.86,45.24,-3.18
3.2825,-12.667,-1.7025,0.87506,0.32742,2.8961,-4.5,45.24,-3.48
3.3778,-12.163,-2.0839,1.0641,0.10537,2.8882,-3.9,45.12,-3.66
3.1735,-11.291,-2.261,1.1661,-0.13225,2.7132,-3.18,45.24,-3.84
2.4108,-10.869,-2.1384,1.1484,-0.30299,2.4474,-1.74,45.3,-4.44
1.9613,-10.896,-1.9886,1.0369,-0.31918,2.1686,-0.9,45.48,-4.44
1.362,-10.365,-1.9341,0.79504,-0.12004,1.8918,1.14,45.36,-4.56
1.2122,-9.9429,-2.1793,0.40623,0.5116,1.6209,2.4,45.3,-4.56
1.2531,-9.5479,-2.4244,0.2865,0.75869,1.5699,3.6,45.42,-4.5
1.58,-8.7715,-2.5334,0.034514,1.3772,1.4429,6.48,45.36,-4.14
1.9068,-8.0088,-2.4108,-0.08491,1.671,1.3689,7.92,45.3,-4.14
2.0431,-7.5593,-2.3699,-0.13439,1.8659,1.2963,9.42,45.24,-4.02
2.3836,-6.8647,-2.4108,-0.14691,1.9658,1.1735,12.6,44.7,-3.48
2.5606,-6.5922,-2.4789,-0.1573,1.8909,1.0544,14.1,44.58,-3.06
2.6151,-6.3743,-2.3427,-0.16707,1.8195,0.98991,15.54,44.46,-2.82
2.7649,-6.2926,-2.2474,-0.1576,1.5186,0.74342,18.36,44.16,-2.1
2.7649,-6.5105,-2.2065,-0.1518,1.2743,0.5565,19.68,43.86,-1.68
2.833,-6.8919,-2.5334,-0.13806,1.0424,0.37721,20.76,43.62,-1.44
2.6968,-7.1507,-2.7241,-0.07758,0.72449,0.11545,22.86,43.32,-0.9
2.7377,-7.355,-2.7786,-0.028405,0.54489,-0.045815,23.7,43.2,-0.66
2.6832,-7.5048,-2.8603,-0.012523,0.44868,-0.1179,24.36,43.02,-0.3
2.6423,-7.8453,-2.8058,0.064446,0.21319,-0.27519,24.84,42.96,-0.12
2.5879,-8.7715,-3.0646,0.083994,0.099266,-0.34819,25.38,42.9,0.36
2.6151,-8.9894,-3.0237,0.081551,0.047953,-0.41447,25.38,42.9,0.54
2.5061,-9.1256,-2.9556,0.078802,0.051618,-0.4722,25.44,42.84,0.78
2.5334,-9.3844,-2.833,0.098655,0.13653,-0.62583,25.38,42.78,0.84
2.7241,-9.7385,-2.7377,0.12828,0.20922,-0.74678,25.08,42.78,0.9
2.9829,-10.12,-2.7104,0.20128,0.21441,-0.8491,24.9,42.72,1.02
3.8273,-11.741,-2.6696,0.27092,0.11057,-0.90072,24.42,42.84,1.2
4.018,-11.768,-2.7922,0.30391,-0.09896,-0.92424,24.0,42.84,1.2
4.2768,-11.891,-2.9011,0.35461,-0.54153,-0.89828,23.52,42.96,1.32
4.3177,-12.503,-2.6968,0.34178,-0.69028,-0.91691,22.38,43.38,1.14
4.0316,-12.463,-2.1384,0.12675,-0.91813,-1.1811,21.96,43.5,1.08
3.6503,-12.449,-1.9068,0.041539,-0.90836,-1.3005,21.42,43.56,0.96
3.1599,-12.967,-1.471,-0.23824,-0.83322,-1.69,20.22,43.74,0.54
3.0373,-13.089,-1.3893,-0.45662,-0.66004,-1.9239,19.62,43.74,0.54
2.8058,-12.313,-1.076,-0.67837,-0.35552,-2.1157,18.06,43.86,0.42
2.6423,-11.632,-0.96704,-0.73609,-0.16066,-2.1637,17.16,44.1,0.42
2.6423,-10.556,-0.83084,-0.69822,0.0012217,-2.1432,16.32,44.22,0.42
2.656,-10.025,-0.88532,-0.57696,0.10721,-2.0721,15.3,44.34,0.42
2.7649,-8.8668,-0.85808,-0.39462,0.1014,-1.9694,12.72,44.64,0.12
2.7377,-8.0905,-0.85808,-0.22449,-0.023213,-1.8411,11.58,44.88,-0.06
2.833,-7.5048,-0.76274,-0.059865,-0.28527,-1.7034,10.44,44.94,-0.24
2.6832,-7.2596,-0.62654,0.08094,-0.77336,-1.4697,8.22,45.06,-0.6
2.4789,-7.0962,-0.53119,0.11942,-1.0629,-1.3014,7.08,45.12,-0.78
2.1929,-6.8919,-0.44947,0.13225,-1.2165,-1.1283,5.94,45.3,-1.02
1.7979,-6.96,-0.49033,0.13134,-1.2202,-0.94257,4.08,45.66,-1.38
1.58,-7.2596,-0.55843,0.13989,-1.1154,-0.75503,3.18,45.9,-1.62
1.4029,-7.7636,-0.39499,0.11454,-0.93187,-0.58185,2.4,45.9,-1.74
1.4982,-8.322,-0.29965,0.068417,-0.61392,-0.29047,1.2,46.08,-2.34
1.6753,-9.0984,-0.23155,0.062919,-0.43463,-0.086743,0.72,46.14,-2.52
1.7706,-9.5342,-0.19068,0.06017,-0.36835,0.027794,0.54,46.26,-2.88
2.2882,-11.427,-0.28603,0.10171,-0.24038,0.40897,0.36,46.32,-3.24
2.4789,-12.354,-0.38137,0.15363,-0.23579,0.68722,0.36,46.32,-3.42
2.6015,-13.43,-0.64016,0.197,-0.30116,1.0821,0.54,46.14,-3.66
2.5198,-14.451,-0.43585,0.25198,-0.27,1.3192,0.78,46.2,-3.84
2.4244,-14.928,-0.21793,0.2248,-0.2135,1.4496,0.96,46.2,-4.02
2.2474,-14.914,0.095342,0.052229,0.19181,1.7101,1.32,46.2,-4.2
1.975,-13.171,0.17706,0.04612,0.54581,1.8494,1.86,46.2,-4.44
2.152,-12.272,-0.43585,0.15699,0.77488,1.9572,2.28,46.08,-4.5
2.3836,-11.468,-0.99429,0.38454,0.76236,2.032,2.7,46.2,-4.68
2.3018,-10.951,-1.1441,0.70738,0.49511,2.069,3.48,46.32,-5.04
2.0975,-10.828,-1.185,0.78069,0.39676,2.0663,3.96,46.44,-5.16
2.0839,-10.869,-1.3484,0.87384,0.23274,2.0653,4.32,46.38,-5.16
1.8524,-10.215,-1.7979,0.84819,0.14783,2.0464,5.4,46.38,-4.98
1.7706,-9.8339,-1.9613,0.78038,0.19273,2.0382,6.18,46.38,-4.86
1.6072,-9.4389,-2.2337,0.64171,0.36438,1.9981,8.16,46.32,-4.44
1.6208,-8.8532,-2.261,0.57146,0.43891,1.981,9.24,46.2,-4.14
1.757,-8.4446,-2.2746,0.35736,0.72021,1.9187,10.56,45.96,-3.96
1.8932,-7.8862,-2.5334,0.20892,0.90988,1.8668,11.88,45.78,-3.72
1.9205,-7.7091,-2.5879,0.093768,1.0675,1.788,13.38,45.48,-3.54
2.0567,-7.2869,-2.4925,-0.024129,1.204,1.6707,16.32,45.0,-2.88
2.0567,-7.1507,-2.3699,-0.14539,1.3491,1.507,17.88,44.52,-2.58
2.1793,-7.0553,-2.1929,-0.27886,1.5687,1.2285,21.0,43.86,-1.86
2.4517,-7.0009,-2.2065,-0.3091,1.6176,1.1106,22.44,43.5,-1.56
2.6832,-6.8919,-2.1929,-0.35033,1.6435,0.86101,23.94,43.08,-1.14
2.8875,-6.7421,-2.1248,-0.32803,1.4481,0.46273,25.44,42.66,-0.96
3.1191,-6.6331,-2.1248,-0.24496,1.1707,0.20861,28.02,42.12,-0.18
3.0918,-6.8238,-2.2882,-0.14661,0.80695,0.0024435,28.98,41.82,-0.18
3.0782,-7.2188,-2.152,-0.0094684,0.26786,-0.23427,30.3,41.4,0.48
2.8603,-7.3958,-2.1929,0.061087,-0.0061087,-0.32376,30.6,41.22,0.9
2.5742,-7.5048,-2.2065,0.11606,-0.1854,-0.38576,30.84,40.92,1.32
2.4517,-7.5865,-2.2474,0.15424,-0.25779,-0.43463,31.08,40.8,1.62
2.3155,-7.6819,-1.8524,0.20464,-0.23091,-0.46517,31.14,40.62,1.98
2.3836,-8.1722,-1.8387,0.28314,-0.1686,-0.49266,31.2,40.62,2.1
2.833,-9.4798,-1.975,0.478,-0.21716,-0.50946,30.9,40.44,2.4
3.7728,-12.749,-2.1929,0.51985,-0.42516,-0.50702,30.72,40.44,2.52
4.0316,-13.484,-2.2882,0.52687,-0.68845,-0.55864,30.6,40.56,2.58
4.2904,-14.206,-2.2882,0.52901,-0.83689,-0.58857,30.36,40.62,2.52
4.0316,-14.383,-1.6481,0.3262,-1.2135,-0.8656,29.58,40.62,1.98
3.5685,-14.097,-1.2258,0.091019,-1.2914,-1.223,29.28,40.68,1.8
2.6423,-14.124,-0.6674,-0.12645,-1.2422,-1.6295,29.04,40.74,1.32
2.3699,-14.22,-0.49033,-0.49419,-0.95906,-2.3198,28.2,41.1,0.6
2.2882,-13.784,-0.38137,-0.72265,-0.65179,-2.7132,27.72,41.22,0.3
2.3427,-13.484,-0.21793,-0.80695,-0.5058,-2.8683,27.06,41.58,0.06
2.3699,-12.354,0.027241,-0.92546,-0.14844,-3.1835,25.62,42.18,-0.6
2.438,-11.387,-0.027241,-0.86926,0.039401,-3.2684,24.72,42.54,-0.84
2.4925,-10.283,-0.12258,-0.69791,0.10965,-3.2577,23.64,43.08,-1.2
2.7513,-8.0769,-0.23155,-0.43799,0.048258,-3.156,21.12,43.98,-1.68
2.9011,-7.2324,-0.21793,-0.06017,-0.28253,-2.8787,19.74,44.4,-1.98
2.9965,-6.4424,-0.14982,0.066279,-0.45601,-2.7703,18.36,44.94,-2.1
2.9556,-6.17,-0.14982,0.3091,-1.0641,-2.3805,16.86,45.48,-2.34
2.8739,-5.6661,-0.01362,0.40042,-1.4453,-2.0837,14.04,46.62,-2.94
2.8058,-5.6388,-0.12258,0.46884,-1.7788,-1.7627,12.54,47.22,-3.18
2.6696,-6.8783,-0.36775,0.5174,-2.0186,-1.4181,9.72,48.36,-3.66
2.5334,-7.641,-0.40861,0.47006,-2.1338,-0.89736,8.46,48.84,-4.02
2.4653,-8.1313,-0.24517,0.42272,-2.1087,-0.72815,7.14,49.26,-4.32
2.5061,-8.8941,-0.16344,0.25565,-1.8757,-0.22969,5.94,49.44,-4.68
2.4244,-10.665,-0.14982,0.086437,-1.6035,0.051313,4.14,50.04,-5.28
2.4653,-11.155,-0.068102,-0.05284,-1.263,0.26084,3.54,50.28,-5.58
2.4517,-11.509,-0.12258,-0.12339,-0.69822,0.48075,3.06,50.52,-6.0
2.6015,-12.34,-0.32689,-0.1066,-0.5229,0.5287,2.46,51.0,-6.54
2.7513,-12.735,-0.34051,0.035736,-0.16616,0.63897,2.16,51.12,-6.78
2.9011,-13.089,-0.53119,0.19914,-0.099266,0.74281,2.16,51.12,-6.84
3.0237,-13.811,-0.83084,0.3598,-0.14936,0.8885,2.22,51.42,-7.32
2.9965,-14.492,-0.8036,0.49511,-0.23366,1.1429,2.4,51.42,-7.38
2.7241,-13.757,-0.44947,0.54703,-0.22724,1.445,2.64,51.54,-7.56
2.6696,-13.362,-0.8036,0.67928,-0.11057,1.9361,3.42,51.72,-8.04
2.833,-13.021,-1.1986,0.84819,-0.12828,2.2205,3.9,51.78,-8.28
2.8603,-12.476,-1.5527,1.0088,-0.19303,2.3662,4.56,52.08,-8.58
2.6832,-11.482,-1.6889,1.1295,-0.26267,2.3604,5.82,52.5,-9.42
2.4108,-11.414,-1.5391,1.1466,-0.27397,2.2691,6.6,52.38,-9.96
1.975,-11.605,-1.5119,1.0595,-0.20861,2.0553,7.92,52.38,-10.8
1.7843,-11.359,-1.8387,0.89217,-0.032376,1.8857,8.64,52.26,-11.34
1.7025,-10.719,-2.1929,0.7086,0.20617,1.7394,9.42,52.14,-11.88
1.7025,-10.079,-2.261,0.52718,0.48014,1.6179,10.14,52.2,-12.42
1.58,-7.8453,-2.438,0.36255,0.74434,1.4872,11.82,51.72,-12.78
1.6208,-6.9464,-2.3699,0.21594,0.94898,1.3424,12.84,51.48,-13.08
1.6344,-6.279,-2.2882,0.08827,1.1102,1.1897,13.92,51.06,-13.08
1.6344,-6.279,-2.2882,0.08827,1.1102,1.1897,13.92,51.06,-13.08
1.6344,-6.279,-2.2882,0.08827,1.1102,1.1897,13.92,51.06,-13.08
1.9341,-5.9112,-2.1248,-0.24007,1.3561,0.8995,18.24,48.96,-12.48
2.1112,-6.2381,-2.1112,-0.40317,1.401,0.83994,20.16,47.7,-11.7
2.1384,-6.4424,-2.1793,-0.47556,1.4361,0.79229,21.06,47.28,-11.04
2.1793,-6.6331,-2.0431,-0.52565,1.4933,0.7028,22.14,46.74,-10.44
2.3018,-6.9328,-1.9886,-0.54153,1.5629,0.56352,23.94,45.9,-9.3
2.3699,-7.0553,-2.0158,-0.50366,1.5779,0.40256,24.96,45.54,-8.64
2.7377,-7.4095,-2.0839,-0.36499,1.3977,0.13347,26.7,44.94,-7.5
2.8739,-7.8317,-2.2201,-0.25076,1.1264,-0.02474,27.36,44.52,-6.9
2.9556,-8.2403,-2.2474,-0.12706,0.79107,-0.15272,28.02,44.22,-6.36
2.7104,-8.6762,-2.3563,-0.039095,0.47403,-0.25259,28.92,43.98,-5.28
2.547,-8.7987,-2.2746,0.034208,0.26176,-0.31154,29.1,43.92,-4.98
2.2746,-8.826,-2.1248,0.10446,0.15058,-0.41447,29.22,43.98,-4.26
1.9613,-8.322,-2.0839,0.16554,0.19487,-0.49205,29.34,43.98,-3.9
1.8932,-8.1722,-2.1248,0.24343,0.27733,-0.55375,29.34,43.92,-3.6
2.1248,-8.8668,-2.2201,0.34453,0.33078,-0.58399,29.16,43.98,-3.06
2.261,-9.4798,-2.0839,0.45296,0.30329,-0.55375,28.98,44.04,-2.88
2.4653,-10.583,-2.1248,0.55253,0.17104,-0.42486,28.68,44.16,-2.52
3.0918,-13.062,-2.2201,0.57757,0.016188,-0.30513,28.5,44.28,-2.34
3.4187,-13.484,-2.2065,0.56016,-0.081245,-0.26756,28.26,44.34,-2.58
3.3642,-13.035,-1.9477,0.46701,-0.35155,-0.33964,28.02,44.52,-2.7
2.8058,-12.286,-1.3212,0.38943,-0.41692,-0.52473,27.42,44.94,-3.06
2.5061,-12.231,-1.0624,0.29016,-0.39981,-0.81337,27.24,45.06,-3.36
2.3836,-12.354,-0.65378,0.01741,-0.25748,-1.2584,27.0,45.3,-3.54
2.2201,-12.258,-0.40861,-0.072998,-0.17135,-1.383,26.28,45.6,-4.14
2.261,-11.959,-0.31327,-0.26114,0.040928,-1.5876,25.92,45.72,-4.32
2.2337,-11.645,-0.32689,-0.44715,0.32101,-1.7932,25.38,46.08,-4.62
2.2474,-10.011,-0.29965,-0.49266,0.46487,-1.8757,24.12,46.68,-4.98
2.0294,-9.0848,-0.31327,-0.4725,0.60659,-1.927,23.4,46.98,-5.04
2.0431,-7.641,-0.39499,-0.33048,0.72785,-1.9184,21.78,47.76,-5.46
2.1248,-7.1234,-0.42223,-0.28497,0.72418,-1.8918,20.76,48.12,-5.52
2.152,-6.6467,-0.40861,-0.17562,0.64324,-1.7914,19.68,48.48,-5.52
2.2065,-6.2926,-0.44947,-0.040317,0.36744,-1.533,18.54,48.84,-5.58
2.2882,-6.1973,-0.43585,0.031765,0.14294,-1.3008,17.28,49.2,-5.64
2.5879,-6.2517,-0.49033,0.08491,-0.09896,-1.018,14.7,49.92,-5.7
2.6968,-6.3743,-0.49033,0.11668,-0.43371,-0.61148,13.32,50.4,-5.94
2.7786,-7.0145,-0.19068,0.15302,-0.51496,-0.478,10.86,51.18,-5.82
2.9692,-7.4503,-0.19068,0.20433,-0.62369,-0.078191,9.78,51.6,-5.82
3.2961,-7.7364,0.095342,0.26634,-0.6576,0.17074,8.7,52.02,-5.94
4.3177,-8.7306,0.054481,0.36194,-0.75869,0.38607,6.84,52.86,-6.3
4.6445,-9.1529,-0.027241,0.48869,-0.92088,0.58063,6.24,53.1,-6.6
4.9442,-9.5479,-0.095342,0.71532,-1.2651,0.75961,5.16,53.46,-6.9
5.1349,-9.6841,-0.14982,0.84299,-1.536,0.81062,4.86,53.64,-7.2
5.0668,-9.398,-0.24517,0.8995,-1.6518,0.80359,4.68,53.82,-7.68
4.8761,-9.3027,-0.31327,1.0079,-1.9325,0.77274,4.62,54.06,-8.04
4.7126,-9.1256,-0.44947,1.0318,-2.0446,0.72968,4.74,54.18,-8.46
4.2495,-8.9894,-0.57205,1.0217,-2.0852,0.70891,5.04,54.3,-9.24
4.0044,-9.0031,-0.7355,0.97402,-2.1029,0.73121,5.58,54.42,-10.26
3.8954,-9.0848,-0.96704,0.91721,-2.0867,0.7929,5.88,54.42,-10.86
3.8682,-9.112,-1.0896,0.87965,-2.0714,0.83566,6.24,54.48,-11.52
3.732,-9.1937,-1.185,0.80023,-2.0284,0.9218,6.66,54.3,-12.18
3.6366,-9.2891,-1.3348,0.63499,-1.9612,1.0754,7.5,53.88,-13.44
3.5549,-9.3844,-1.5936,0.51068,-1.8827,1.1668,7.92,53.82,-14.16
3.4187,-9.4389,-1.4982,0.32162,-1.7471,1.2098,8.34,53.7,-14.76
2.8875,-9.507,-1.362,0.012217,-1.354,1.1967,9.24,53.58,-16.02
2.8058,-9.6704,-1.3757,-0.17501,-1.0043,1.1533,9.72,53.46,-16.44
2.7377,-10.202,-1.4165,-0.37721,-0.62064,1.0666,10.08,53.22,-16.98
2.7922,-10.801,-1.1986,-0.55955,-0.22816,0.92363,10.86,52.86,-18.06
2.9829,-11.319,-1.1577,-0.69058,0.10782,0.81184,11.34,52.86,-18.42
3.3778,-12.19,-1.0624,-0.79046,0.28955,0.71471,11.82,52.68,-18.6
3.9771,-13.116,-0.95342,-0.86437,0.33537,0.62278,12.96,52.5,-18.9
4.018,-12.64,-1.0624,-0.89522,0.27978,0.5397,13.56,52.38,-18.84
3.7865,-12.108,-1.0896,-0.90011,0.17287,0.38301,14.16,52.38,-18.72
3.4051,-11.128,-1.2939,-0.76358,0.080634,0.12523,15.18,52.56,-18.54
3.1735,-10.12,-1.6753,-0.69547,0.023824,-0.091324,15.54,52.44,-18.18
2.9556,-8.6625,-1.9341,-0.64049,-0.08094,-0.47128,16.26,52.44,-17.76
2.5198,-6.7148,-1.8387,-0.61239,-0.19517,-0.68173,16.56,52.62,-17.34
2.4517,-6.3743,-1.6072,-0.60995,-0.26603,-0.77183,16.8,52.68,-16.92
2.3563,-6.4288,-1.5119,-0.61972,-0.47312,-1.0052,17.04,52.8,-16.62
2.1929,-7.246,-1.4574,-0.63408,-0.55803,-1.0886,16.92,53.16,-15.72
2.1384,-7.9951,-1.4165,-0.65546,-0.58032,-1.1234,16.8,53.4,-15.36
2.0567,-8.3765,-1.5119,-0.66157,-0.53573,-1.1258,16.68,53.58,-15.0
2.2201,-8.7715,-1.2667,-0.56474,-0.3824,-1.0959,15.78,54.0,-14.1
2.4244,-8.6217,-1.3484,-0.41905,-0.30574,-1.0794,15.18,54.24,-13.8
2.5334,-8.5127,-1.3484,-0.24801,-0.3372,-1.0742,14.4,54.48,-13.44
2.6968,-8.0905,-1.2939,-0.052229,-0.49266,-1.0825,13.74,54.54,-13.14
2.8603,-7.7227,-1.2667,0.14294,-0.72296,-1.0965,12.3,55.02,-12.54
2.9556,-7.8453,-1.2939,0.32498,-1.0137,-1.0763,11.52,55.32,-12.24
2.9148,-8.3765,-1.4165,0.4835,-1.35,-1.0107,10.62,55.44,-12.0
2.7513,-8.7851,-1.471,0.6521,-1.7758,-0.87293,8.76,55.92,-11.94
2.6696,-9.0848,-1.6208,0.73182,-1.923,-0.75045,7.86,56.1,-11.76
2.5198,-9.1937,-1.6753,0.80237,-1.9685,-0.6295,7.02,56.28,-11.76
2.3427,-9.616,-1.9068,0.83017,-1.9438,-0.53909,5.52,56.4,-11.88
2.3018,-9.6296,-1.8387,0.82314,-1.8543,-0.45632,4.56,56.7,-12.0
2.2201,-9.8339,-1.9886,0.81001,-1.7733,-0.41783,3.18,56.76,-12.48
2.1929,-9.8203,-1.9886,0.74098,-1.6952,-0.37721,2.4,56.88,-12.9
2.1384,-9.8339,-1.9613,0.7083,-1.6774,-0.33598,1.62,56.88,-13.26
1.9205,-9.7385,-1.9886,0.64996,-1.6603,-0.29413,0.24,56.88,-14.1
1.866,-9.5479,-1.9886,0.58949,-1.6069,-0.25962,-0.54,56.94,-14.46
1.8115,-9.5342,-2.0431,0.52382,-1.5088,-0.22724,-1.2,56.88,-14.82
1.5527,-9.1529,-1.8387,0.44379,-1.2651,-0.21716,-2.34,56.94,-15.54
1.5936,-9.0712,-1.7298,0.33903,-1.0641,-0.22449,-2.88,56.94,-15.84
1.58,-8.9622,-1.6072,0.30604,-0.96517,-0.22571,-3.48,57.06,-16.2
1.8115,-8.6353,-1.7025,0.26481,-0.72265,-0.21319,-3.96,57.18,-16.56
1.9477,-8.4855,-1.6753,0.28955,-0.61667,-0.1741,-4.5,57.12,-16.86
1.9886,-8.3493,-1.6072,0.33017,-0.58093,-0.096211,-5.22,57.18,-17.16
2.4517,-8.1995,-1.6889,0.3937,-0.61056,0.065668,-5.94,57.06,-18.06
2.547,-7.9951,-1.6753,0.51526,-0.76114,0.18998,-6.42,57.06,-18.42
2.6423,-7.8726,-1.6072,0.56444,-0.82864,0.25748,-6.84,56.82,-18.66
2.7104,-7.7772,-1.4846,0.66157,-0.96303,0.39309,-7.02,56.94,-18.9
2.7104,-8.0224,-1.4574,0.79626,-1.1313,0.59284,-7.44,56.94,-19.5
2.7786,-8.1041,-1.5255,0.85552,-1.1851,0.7309,-7.44,57.0,-19.86
2.833,-8.3765,-1.58,0.90591,-1.2025,0.88026,-7.86,56.94,-20.94
2.9829,-9.7522,-1.8251,0.93432,-1.1081,1.1072,-7.98,56.94,-21.36
3.2825,-10.896,-1.8115,0.90683,-0.99418,1.2526,-7.86,57.0,-21.9
3.5413,-11.645,-1.866,0.83902,-0.88942,1.3335,-7.74,57.0,-22.32
3.8001,-12.49,-1.7979,0.78099,-0.78863,1.3326,-7.74,56.88,-22.92
4.2904,-13.43,-1.7979,0.66798,-0.7364,1.2321,-7.08,56.94,-23.94
4.2632,-12.381,-1.7979,0.47953,-0.71196,0.9783,-6.72,57.12,-24.36
3.9227,-9.9973,-0.99429,0.20617,-0.66706,0.35247,-6.12,57.12,-25.38
3.8954,-9.3572,-0.44947,0.13683,-0.79687,-0.1124,-5.76,57.18,-25.62
3.8954,-9.507,-0.35413,0.12217,-0.9334,-0.34392,-5.4,57.12,-26.1
3.9908,-10.188,-0.35413,0.058948,-1.4685,-0.97922,-5.4,57.24,-26.46
3.8818,-10.719,-0.21793,0.002138,-1.8106,-1.3027,-5.34,57.24,-27.18
3.7047,-10.569,0.068102,-0.01741,-2.0983,-1.5027,-5.46,57.12,-27.24
3.2825,-9.8611,0.31327,-0.000916,-2.2959,-1.6252,-6.12,56.76,-27.3
3.0237,-9.507,0.31327,0.096517,-2.4483,-1.7355,-6.84,56.58,-27.24
2.9284,-9.3708,0.38137,0.1463,-2.4685,-1.7404,-7.74,56.22,-27.06
2.833,-9.4117,0.44947,0.14569,-2.4239,-1.6927,-8.76,55.92,-26.64
2.7649,-9.4389,0.6674,0.086437,-2.3265,-1.5992,-10.14,55.62,-26.4
2.9011,-10.038,1.1169,-0.050702,-2.1805,-1.4374,-13.08,54.48,-25.38
2.9692,-10.215,1.362,-0.20189,-1.9508,-1.1347,-14.76,53.82,-24.84
3.228,-10.488,1.8251,-0.35461,-1.8702,-1.0162,-18.18,52.68,-23.52
3.514,-10.474,1.9886,-0.4948,-1.6231,-0.70799,-19.98,52.08,-22.68
3.7184,-10.474,2.0158,-0.49847,-1.4862,-0.58185,-21.6,51.36,-21.84
4.1542,-10.297,2.0839,-0.45601,-1.4178,-0.53756,-24.78,49.92,-20.22
4.1406,-10.065,2.0022,-0.34636,-1.4053,-0.59162,-26.22,49.32,-19.44
4.127,-10.025,1.9068,-0.22663,-1.4514,-0.70921,-28.86,48.0,-17.58
3.8954,-9.8339,1.8932,-0.059559,-1.4997,-0.91599,-30.0,47.22,-16.56
3.7865,-9.7522,1.7298,0.016188,-1.4783,-1.025,-30.9,46.68,-15.72
3.7592,-9.7658,1.58,0.040928,-1.4645,-1.0571,-31.62,45.84,-14.82
3.8001,-9.8066,1.4982,0.10507,-1.4404,-1.0672,-32.22,45.06,-13.98
3.6639,-9.7113,1.2258,0.15088,-1.4621,-1.0345,-33.6,43.92,-12.24
3.5685,-9.6023,1.0215,0.23854,-1.481,-0.90103,-33.96,43.38,-11.22
3.4596,-9.5887,0.5993,0.26786,-1.4859,-0.85094,-34.8,42.06,-9.72
3.4732,-9.6841,0.34051,0.33872,-1.4523,-0.6744,-35.1,41.46,-9.0
3.4732,-9.6704,0.29965,0.35736,-1.4343,-0.57177,-35.46,40.8,-8.28
3.3506,-9.902,-0.027241,0.34789,-1.4132,-0.51679,-36.0,39.48,-6.84
3.2553,-10.106,-0.20431,0.31643,-1.4102,-0.45937,-36.12,38.7,-6.12
3.0101,-10.569,-0.38137,0.27306,-1.3824,-0.42974,-36.36,37.44,-4.8
2.833,-10.774,-0.69464,0.21686,-1.2828,-0.40409,-36.24,36.84,-4.26
2.656,-10.828,-0.64016,0.19731,-1.2327,-0.38485,-36.36,36.18,-3.9
2.3427,-10.992,-0.68102,0.17349,-1.0818,-0.3653,-36.42,35.76,-3.48
1.866,-11.455,-0.78998,0.18418,-0.73212,-0.25962,-36.24,34.8,-2.46
1.4165,-11.605,-0.77636,0.21594,-0.43097,-0.13378,-36.18,34.32,-2.16
1.3212,-11.7,-0.98067,0.32162,-0.17013,0.071471,-36.06,34.08,-1.92
1.4846,-12.544,-1.2803,0.57146,0.014355,0.62766,-35.7,33.6,-1.56
1.866,-13.076,-1.5663,0.78343,0.020159,1.1121,-35.52,33.42,-1.44
2.1248,-13.157,-1.7706,0.96517,-0.11668,1.6277,-35.28,33.3,-1.32
2.4925,-12.054,-2.3427,1.1255,-0.45204,2.065,-34.38,33.36,-1.38
2.2882,-11.141,-2.6287,1.233,-0.84696,2.3118,-34.14,33.6,-1.62
1.8932,-10.746,-2.5879,1.2886,-1.1637,2.332,-33.78,33.96,-1.8
1.2531,-10.924,-2.656,1.2648,-1.3573,2.2138,-33.06,34.92,-2.4
0.69464,-11.032,-2.5879,1.1545,-1.4832,1.9887,-32.52,35.52,-2.58
0.69464,-10.924,-2.5061,0.92577,-1.3741,1.6582,-32.04,36.12,-2.64
-0.54481,-10.12,-2.4925,0.5287,-0.84483,1.1542,-30.96,37.5,-3.0
-0.8036,-9.5479,-2.7377,0.31429,-0.39676,0.91721,-30.12,38.28,-2.94
-0.5993,-9.0575,-2.9556,0.15516,0.0018326,0.7648,-29.4,38.88,-3.0
0.19068,-8.1858,-3.2144,0.010996,0.37293,0.63652,-27.6,40.38,-2.88
0.49033,-7.6274,-3.1872,-0.047647,0.44624,0.61789,-26.64,40.86,-2.76
0.70826,-7.3277,-3.0782,-0.071777,0.38362,0.61423,-25.62,41.4,-2.7
1.2258,-6.4969,-2.9284,-0.082161,0.22235,0.60415,-23.64,42.3,-2.4
1.3484,-6.4152,-2.7649,-0.09896,0.010079,0.57696,-22.56,42.6,-2.1
1.3348,-6.4833,-2.6832,-0.16646,-0.18906,0.5284,-21.66,42.9,-1.86
0.99429,-6.2245,-2.4789,-0.29627,-0.25443,0.37721,-19.62,43.14,-1.44
0.83084,-6.1292,-2.3018,-0.4047,-0.18692,0.31398,-18.66,43.2,-1.32
0.76274,-6.1564,-2.2337,-0.50824,-0.014661,0.14844,-17.7,43.2,-1.2
0.7355,-6.4424,-2.0431,-0.61758,0.2923,-0.13775,-15.84,43.02,-1.08
1.0488,-6.7966,-1.8932,-0.63499,0.45326,-0.30207,-15.18,42.96,-1.02
1.185,-7.2869,-1.8932,-0.61728,0.50152,-0.42699,-14.4,42.9,-0.96
1.8796,-8.2131,-1.7843,-0.59956,0.41997,-0.51679,-13.44,42.42,-0.84
2.1656,-8.4582,-1.6753,-0.52382,0.13836,-0.58735,-13.02,42.48,-0.9
2.1929,-8.5263,-1.5527,-0.41905,-0.074831,-0.63469,-12.72,42.42,-0.84
2.3155,-8.8805,-1.5255,-0.27794,-0.26603,-0.65699,-12.66,42.12,-0.66
2.3972,-9.0303,-1.6889,-0.13867,-0.43188,-0.71319,-12.66,41.88,-0.48
2.4653,-9.1665,-1.7706,-0.002138,-0.59895,-0.75381,-12.6,41.7,-0.42
2.6696,-9.3844,-1.757,0.10507,-0.75198,-0.81612,-12.6,41.16,-0.06
2.7104,-9.6704,-1.7298,0.19884,-0.90897,-0.93523,-12.72,41.04,0.12
2.7377,-10.12,-1.58,0.22022,-0.94531,-1.0241,-12.78,40.68,0.18
2.833,-11.305,-1.5391,0.23457,-0.92393,-1.1072,-13.26,40.08,0.6
3.1054,-12.749,-1.7298,0.27061,-0.89614,-1.1545,-13.5,39.78,0.54
3.514,-13.893,-1.8251,0.30818,-0.90011,-1.1475,-13.68,39.36,0.72
3.9363,-14.56,-2.1656,0.32651,-0.93585,-1.0999,-14.28,38.64,0.78
4.127,-14.07,-2.1929,0.30024,-1.0107,-1.1038,-14.52,38.34,0.9
4.1542,-13.171,-2.1384,0.28039,-1.0327,-1.1448,-14.58,38.1,0.9
3.6775,-11.645,-1.7434,0.11576,-1.055,-1.3867,-14.88,37.62,1.08
3.5413,-11.509,-1.471,0.012523,-1.0385,-1.6029,-15.06,37.5,1.08
3.6094,-12.04,-1.3076,-0.09896,-1.051,-1.7938,-15.3,37.26,1.2
3.8682,-12.449,-1.3212,-0.24587,-1.1716,-1.9658,-15.9,36.9,1.38
4.0589,-12.422,-1.4165,-0.40653,-1.3738,-2.0928,-16.38,36.54,1.44
3.8954,-12.081,-1.3893,-0.45693,-1.4068,-2.1283,-16.8,36.36,1.56
3.5413,-11.414,-1.2803,-0.50885,-1.3958,-2.1951,-17.1,36.24,1.56
2.833,-10.093,-1.1441,-0.56444,-1.1322,-2.3314,-18.0,35.94,1.68
2.656,-9.507,-0.91256,-0.60751,-0.88056,-2.4227,-18.48,35.88,1.74
2.5742,-8.9077,-0.8717,-0.65454,-0.63561,-2.4984,-18.9,35.7,1.92
2.5334,-7.927,-0.76274,-0.70372,-0.38882,-2.5293,-19.92,35.16,1.98
2.5334,-7.4367,-0.64016,-0.71257,-0.3317,-2.5113,-20.46,34.8,2.22
2.5061,-7.0417,-0.61292,-0.70188,-0.2248,-2.4477,-21.06,34.44,2.4
2.5061,-6.6331,-0.50395,-0.62339,-0.11759,-2.2593,-21.6,34.08,2.46
2.3699,-6.1564,-0.38137,-0.52443,-0.061697,-2.0684,-22.98,33.0,2.82
2.3427,-5.8976,-0.32689,-0.42211,-0.0281,-1.8332,-23.52,32.52,3.0
2.3972,-5.7205,-0.21793,-0.29963,-0.0036652,-1.5293,-24.6,31.26,3.42
2.5061,-5.6661,-0.24517,-0.075747,0.012523,-0.99082,-25.08,30.66,3.48
2.6832,-5.6933,-0.19068,0.078191,-0.021686,-0.58032,-25.56,30.06,3.54
2.8603,-5.7069,-0.28603,0.2532,-0.099266,-0.16921,-25.98,29.46,3.72
3.0918,-5.9249,-0.16344,0.43127,-0.21075,0.2193,-27.06,28.14,3.84
3.228,-6.1836,-0.36775,0.62125,-0.31948,0.55619,-27.42,27.66,3.96
3.2825,-6.7966,-0.49033,0.7981,-0.40897,0.86926,-27.9,27.0,4.44
3.5685,-7.3141,-0.70826,0.99174,-0.4835,1.1374,-28.26,26.88,4.38
3.732,-7.6819,-0.91256,1.1744,-0.58246,1.387,-28.38,26.82,4.38
3.9635,-8.3357,-1.185,1.4548,-0.80268,1.7385,-28.56,26.76,4.38
4.1406,-10.052,-1.5119,1.6237,-0.98074,1.9853,-28.14,27.3,4.08
4.2495,-11.291,-1.6344,1.7553,-1.1628,2.2532,-27.96,27.72,3.96
4.1133,-12.64,-1.8932,1.8424,-1.2822,2.496,-27.24,28.98,3.6
3.7592,-13.906,-1.866,1.868,-1.2541,2.7715,-26.64,29.76,3.42
3.2825,-14.696,-1.8387,1.8436,-1.0672,2.8888,-26.1,30.72,3.24
3.1872,-15.119,-1.9341,1.8231,-0.93768,2.9377,-25.38,31.74,2.88
3.2416,-16.426,-2.656,1.803,-0.55008,3.0305,-23.64,33.84,2.22
3.3234,-17.039,-2.9965,1.8076,-0.40012,3.0537,-22.86,35.04,1.8
3.4187,-17.352,-3.2008,1.7529,-0.34789,2.9712,-22.08,36.24,1.2
3.2825,-16.249,-3.2961,1.511,-0.33231,2.8628,-21.18,37.38,0.54
2.4244,-13.375,-2.6015,0.94287,-0.16157,2.3592,-19.32,39.42,-0.18
1.4438,-11.4,-2.3836,0.56658,0.12309,1.9303,-18.3,40.44,-0.6
1.0079,-10.706,-2.1112,0.23732,0.50335,1.4752,-17.46,41.34,-0.9
0.51757,-9.6977,-1.9886,-0.058948,0.94134,1.0828,-15.6,42.96,-1.2
0.61292,-9.507,-1.8524,-0.34728,1.409,0.75931,-14.64,43.56,-1.38
0.96704,-8.5672,-1.5663,-0.64691,1.8677,0.52168,-12.78,44.4,-1.38
1.3484,-7.7364,-0.98067,-0.97555,2.3949,0.31215,-11.88,44.58,-1.02
1.5391,-7.3141,-0.7355,-1.0666,2.6368,0.25992,-11.22,44.7,-0.84
1.7434,-7.0962,-0.69464,-1.047,2.7012,0.22602,-10.38,44.94,-0.54
2.1929,-6.9055,-1.1032,-0.94654,2.6053,0.22388,-8.94,44.88,0.12
2.3018,-6.8102,-1.2803,-0.77885,2.3683,0.26206,-8.22,44.82,0.54
2.4108,-6.7557,-1.6344,-0.48655,1.8335,0.29535,-7.14,44.34,1.38
2.3155,-6.5241,-1.6208,-0.41081,1.6359,0.29902,-6.54,44.16,1.68
2.0567,-6.3198,-1.6481,-0.24557,1.1215,0.21197,-6.06,44.04,2.04
1.8524,-6.1836,-1.7706,-0.17196,0.87109,0.10537,-5.52,43.98,2.22
1.2667,-6.0883,-2.0294,-0.10201,0.71135,-0.019242,-4.98,43.68,2.64
1.1169,-6.2245,-2.1656,-0.062003,0.62797,-0.1463,-4.86,43.74,2.7
0.89894,-6.9055,-2.152,-0.068722,0.624,-0.28772,-4.86,43.56,2.94
0.83084,-7.2733,-2.1656,-0.083078,0.64874,-0.32437,-4.8,43.56,2.76
0.76274,-7.6138,-2.2201,-0.1014,0.6857,-0.30513,-4.86,43.5,2.7
0.8036,-7.9815,-2.2201,-0.10293,0.74312,-0.25229,-5.04,43.38,2.52
1.0624,-8.5808,-2.3427,-0.076358,0.77122,-0.19792,-5.46,43.44,2.4
1.2667,-8.9213,-2.2882,-0.022297,0.71807,-0.13561,-5.7,43.38,2.22
1.5391,-9.3436,-2.1248,0.048869,0.62583,-0.12401,-6.0,43.26,2.1
1.7434,-9.507,-2.0703,0.20311,0.416,-0.1744,-6.42,43.2,1.92
1.866,-9.8066,-2.2201,0.32681,0.23335,-0.23671,-6.66,43.08,1.56
1.975,-9.8475,-2.2882,0.45754,0.050396,-0.33292,-6.84,42.96,1.56
1.9613,-10.065,-2.3699,0.57421,-0.10782,-0.38851,-6.96,42.96,1.26
2.1929,-11.114,-2.2474,0.65271,-0.22327,-0.4215,-7.38,42.9,0.96
2.547,-12.217,-2.2201,0.72937,-0.3207,-0.36896,-7.62,42.78,0.72
3.6366,-15.091,-2.6015,0.77091,-0.47434,-0.32467,-8.16,42.84,0.18
3.8273,-15.296,-2.7377,0.71227,-0.79321,-0.26725,-8.34,42.78,0.06
3.623,-14.533,-2.7104,0.66432,-0.87476,-0.30452,-8.34,42.96,-0.06
2.9965,-12.34,-2.4517,0.46151,-0.88117,-0.57757,-8.58,42.78,-0.78
2.7377,-11.141,-2.3291,0.29535,-0.73243,-0.83322,-8.76,42.96,-1.08
2.6968,-10.637,-1.9341,0.14508,-0.50244,-1.0617,-8.7,43.14,-1.38
3.0237,-10.964,-1.866,-0.12614,-0.31796,-1.3274,-9.18,43.2,-2.04
3.3915,-10.896,-1.7843,-0.30452,-0.3262,-1.4129,-9.48,43.14,-2.28
3.5413,-10.719,-1.6753,-0.38546,-0.3485,-1.4322,-10.08,43.26,-2.52
3.4187,-9.4117,-1.4438,-0.4948,-0.45662,-1.4664,-10.86,43.26,-2.7
3.4868,-8.826,-1.3212,-0.4725,-0.44868,-1.4649,-11.4,43.2,-2.88
3.337,-8.4174,-1.076,-0.42028,-0.47373,-1.4826,-12.06,43.44,-2.94
3.2553,-7.4776,-1.2395,-0.34636,-0.49358,-1.482,-13.44,43.56,-3.18
3.4323,-7.1234,-1.1032,-0.27642,-0.55741,-1.4551,-14.16,43.8,-3.24
3.4596,-6.7693,-1.076,-0.26756,-0.60781,-1.4413,-15.0,43.74,-3.24
3.3915,-6.4969,-0.9398,-0.25748,-0.81673,-1.4093,-15.78,43.8,-3.3
3.3506,-6.279,-0.83084,-0.26237,-0.96028,-1.3644,-17.88,44.04,-3.24
3.2961,-6.4152,-0.7355,-0.25901,-1.1289,-1.2724,-18.9,43.98,-3.24
3.1463,-6.6059,-0.74912,-0.24496,-1.1603,-1.2269,-20.7,44.1,-3.0
3.0918,-6.8919,-0.62654,-0.2135,-1.1976,-1.0281,-21.66,44.1,-2.88
3.0646,-7.069,-0.62654,-0.19578,-1.2028,-0.94257,-22.26,44.16,-2.82
3.0782,-7.7091,-0.58567,-0.11942,-1.142,-0.63041,-23.04,44.1,-2.76
3.1599,-8.6353,-0.69464,-0.072388,-1.0788,-0.39218,-24.42,43.8,-2.52
3.2144,-9.3163,-0.77636,-0.016188,-1.0043,-0.1292,-25.02,43.62,-2.46
3.228,-9.8066,-0.6674,0.016188,-0.92729,0.065057,-25.32,43.5,-2.28
3.1191,-9.7794,-0.62654,0.0562,-0.76358,0.26664,-25.86,43.2,-1.86
3.0646,-9.902,-0.64016,0.091019,-0.66035,0.34911,-26.1,43.02,-1.62
3.0918,-10.324,-0.6674,0.14783,-0.6127,0.42333,-26.22,42.96,-1.38
3.0918,-11.768,-0.61292,0.19212,-0.61117,0.50335,-26.1,42.78,-0.72
2.9011,-12.449,-0.70826,0.22846,-0.66432,0.61942,-25.98,42.78,-0.36
2.3699,-13.607,-0.42223,0.26237,-0.68783,0.81703,-25.56,42.9,0.36
2.0158,-14.465,-0.081722,0.26298,-0.62644,0.89095,-25.26,43.2,0.6
1.866,-14.955,0.14982,0.208,-0.19426,1.1637,-25.08,43.26,0.84
1.8796,-15.241,0.23155,0.20739,0.19242,1.3635,-24.66,43.44,1.02
2.4517,-14.819,-0.31327,0.30543,0.46273,1.5803,-23.82,44.1,1.08
2.6015,-13.539,-0.77636,0.49083,0.51038,1.726,-23.28,44.4,1.14
2.5742,-10.61,-1.3212,0.69364,0.44776,1.7272,-22.74,44.82,1.02
2.2337,-9.616,-1.3348,0.87934,0.12614,1.4896,-21.96,45.54,0.66
1.757,-9.4117,-1.3893,0.90133,-0.051618,1.2535,-21.48,45.96,0.36
1.5119,-9.6023,-1.4165,0.79687,-0.057727,1.0107,-21.06,46.38,0.18
0.92618,-9.6704,-1.6889,0.59071,0.092546,0.83108,-20.4,47.28,-0.18
0.85808,-9.2074,-1.7298,0.33628,0.35308,0.74006,-20.16,47.64,-0.48
0.8036,-8.0496,-1.9341,0.12309,0.70097,0.74373,-19.86,47.88,-0.6
1.185,-7.5457,-1.9886,-0.016493,1.0333,0.78679,-19.14,48.36,-0.66
1.3893,-7.1915,-2.0567,-0.099876,1.3473,0.84574,-18.66,48.6,-0.66
1.6617,-6.8783,-2.0839,-0.076664,1.4493,0.88117,-18.24,48.72,-0.6
2.152,-6.5786,-2.3836,-0.019853,1.4377,0.9163,-17.1,48.6,-0.3
2.4244,-6.4697,-2.5198,0.043371,1.3045,0.92577,-16.56,48.66,-0.18
2.4517,-6.3062,-2.4244,0.04612,0.99174,0.84513,-15.6,48.6,0.24
2.3563,-6.4152,-2.2746,0.000611,0.83841,0.72632,-15.0,48.42,0.48
2.1656,-6.5241,-2.1384,-0.032681,0.78954,0.65912,-14.52,48.3,0.72
1.9613,-7.1234,-2.0294,-0.12309,0.79015,0.40134,-13.8,48.12,0.9
1.8251,-8.036,-2.2201,-0.20403,0.84819,0.21472,-12.42,47.88,1.02
1.8115,-8.145,-2.2337,-0.28191,0.99418,0.039095,-11.64,47.7,1.2
1.9205,-8.2539,-2.1793,-0.31093,1.1368,-0.10263,-10.98,47.64,1.08
2.1384,-8.5263,-2.0294,-0.30727,1.1897,-0.20159,-10.08,47.52,0.78
2.3155,-8.6762,-1.975,-0.21838,1.0846,-0.2923,-9.6,47.34,0.54
2.5061,-8.8805,-2.0431,-0.17165,0.99968,-0.2981,-9.36,47.34,0.24
2.6696,-9.0575,-2.1929,-0.0027489,0.64538,-0.28405,-9.24,47.16,0.06
2.9556,-9.1801,-2.2337,0.11057,0.41875,-0.27886,-9.24,47.16,-0.54
2.9148,-9.2074,-2.2201,0.24984,0.22938,-0.33384,-9.24,47.1,-0.72
3.0237,-10.256,-2.261,0.37263,0.10782,-0.35888,-9.3,47.1,-1.08
3.4459,-11.319,-2.4789,0.5116,-0.092546,-0.38607,-9.36,46.98,-1.38
3.732,-11.795,-2.7377,0.56291,-0.3656,-0.33842,-9.54,46.92,-1.62
4.7263,-13.048,-3.5413,0.59468,-0.75198,-0.26481,-10.02,46.74,-2.04
4.699,-13.266,-3.2961,0.45418,-1.1328,-0.27245,-10.26,46.68,-2.34
4.2087,-12.871,-2.6287,0.15241,-1.3412,-0.44807,-10.56,46.38,-2.52
2.6832,-12.095,-1.8932,-0.33109,-1.1677,-0.84605,-10.86,46.32,-2.88
2.152,-11.673,-1.866,-0.4835,-0.97464,-0.99327,-11.16,46.32,-3.06
1.9477,-11.346,-1.9341,-0.7254,-0.4444,-1.3033,-11.58,46.26,-3.0
2.3427,-10.706,-1.9341,-0.93157,0.2755,-1.6441,-12.48,46.14,-2.94
2.6151,-10.379,-1.8251,-0.97189,0.53054,-1.7666,-13.14,46.02,-2.94
3.051,-9.6977,-1.7025,-0.96914,0.67928,-1.8189,-13.86,45.9,-2.88
3.6094,-8.7306,-1.5391,-0.85307,0.55955,-1.7795,-15.6,45.42,-2.88
3.5549,-7.9679,-1.3893,-0.74556,0.3708,-1.7309,-16.5,45.48,-2.58
3.6366,-7.6274,-1.2531,-0.7028,0.26786,-1.719,-17.64,45.06,-2.58
3.4187,-6.8647,-0.96704,-0.57605,-0.039095,-1.6857,-19.8,44.7,-2.52
3.337,-6.6059,-0.84446,-0.50335,-0.18448,-1.6496,-21.12,44.4,-2.46
3.228,-6.17,-0.77636,-0.43341,-0.28039,-1.5223,-23.52,43.68,-2.58
3.228,-5.993,-0.69464,-0.36133,-0.33872,-1.3912,-24.72,43.32,-2.52
3.3506,-5.9793,-0.61292,-0.21197,-0.43952,-1.2272,-25.92,42.78,-2.46
3.4732,-6.0066,-0.61292,-0.11393,-0.5226,-1.0385,-27.0,42.36,-2.64
3.623,-6.2654,-0.53119,0.014355,-0.60934,-0.8152,-28.92,41.7,-3.0
3.6911,-6.5786,-0.47671,0.12217,-0.72235,-0.57452,-29.64,41.22,-3.24
3.8001,-7.0826,-0.40861,0.24832,-0.8265,-0.33109,-30.3,40.86,-3.54
3.8001,-8.1858,-0.43585,0.42822,-0.89095,0.016799,-31.44,40.08,-3.78
3.8273,-8.4719,-0.42223,0.52504,-0.91202,0.20067,-31.74,39.66,-4.02
3.8682,-8.8941,-0.36775,0.61514,-0.91569,0.31887,-31.92,39.42,-4.02
3.6639,-9.2482,-0.40861,0.69791,-0.92088,0.39431,-32.1,39.12,-3.96
3.0918,-10.011,-0.51757,0.79046,-0.92271,0.45723,-31.92,38.64,-4.02
2.6696,-10.27,-0.7355,0.86315,-0.89614,0.52565,-32.04,38.64,-3.84
2.4244,-10.774,-0.77636,0.95356,-0.82772,0.64752,-31.92,38.52,-3.66
2.3155,-11.128,-0.92618,1.0464,-0.77672,0.85277,-31.92,38.52,-3.78
2.2065,-12.803,-1.2395,1.1102,-0.74862,1.1194,-31.86,38.58,-3.9
2.0567,-14.383,-1.0215,1.12,-0.65485,1.5892,-31.32,38.76,-4.14
2.2065,-14.86,-1.0215,1.1176,-0.51282,1.9444,-31.08,39.06,-4.14
2.6968,-15.65,-1.9886,1.1973,-0.48167,2.2947,-30.48,39.84,-4.38
3.051,-15.418,-2.3427,1.3305,-0.63011,2.5565,-30.18,40.26,-4.62
2.9692,-14.547,-2.833,1.4426,-0.87537,2.6524,-29.7,41.04,-4.98
2.1384,-11.645,-2.7513,1.4389,-1.1258,2.5626,-28.86,42.42,-5.58
1.2258,-10.447,-2.4244,1.2624,-1.2483,2.2819,-28.38,43.14,-5.76
0.57205,-10.093,-2.2474,0.85552,-0.94684,1.7095,-27.78,43.8,-6.0
-0.72188,-10.27,-1.7025,0.49847,-0.39126,1.3451,-26.58,45.18,-6.36
-0.7355,-10.556,-1.7706,0.085216,0.35522,1.0574,-25.92,45.84,-6.54
-0.50395,-10.46,-1.7979,-0.55894,1.4804,0.78832,-24.0,46.92,-6.24
0.21793,-9.4117,-1.4438,-0.86163,2.0284,0.66065,-23.04,47.28,-5.94
0.61292,-8.7306,-1.3893,-1.0412,2.452,0.55741,-22.08,47.7,-5.58
1.0896,-8.0632,-1.3757,-1.0516,2.7187,0.47342,-20.88,47.82,-5.34
1.5119,-7.355,-1.3757,-0.90316,2.7046,0.40745,-19.86,47.94,-4.8
2.1248,-6.5514,-1.5663,-0.65332,2.4612,0.37293,-17.52,48.0,-4.14
2.3699,-6.3335,-1.6072,-0.32681,1.7388,0.36469,-16.44,47.88,-3.6
2.5061,-5.993,-1.6753,-0.24862,1.4517,0.37049,-15.36,47.76,-3.24
2.2882,-5.8976,-1.5663,-0.15669,0.88331,0.38668,-14.4,47.34,-3.0
1.8932,-5.8159,-1.6617,-0.14111,0.30971,0.34239,-12.48,46.92,-2.52
1.4846,-5.775,-1.6344,-0.17715,0.22938,0.27458,-11.64,46.62,-2.16
1.185,-5.8704,-1.6889,-0.21136,0.28527,0.19151,-10.86,46.14,-1.98
0.91256,-7.0281,-1.6072,-0.29169,0.6411,0.040012,-9.42,45.84,-1.92
0.99429,-7.6002,-1.8115,-0.32284,0.92852,-0.037874,-9.0,45.66,-1.98
1.3212,-8.4038,-1.9613,-0.32101,1.0388,-0.076358,-8.7,45.54,-2.04
1.8251,-9.0031,-2.2474,-0.26786,1.2126,-0.18967,-8.28,45.3,-2.4
1.9341,-8.7034,-2.3836,-0.13439,1.16,-0.28466,-8.1,45.24,-2.7
2.1384,-8.5808,-2.6287,0.059559,0.94592,-0.38943,-8.04,45.06,-3.0
2.438,-8.7987,-2.7786,0.34056,0.40592,-0.44807,-8.22,45.12,-3.24
2.5061,-9.2891,-2.8739,0.47403,0.031154,-0.4664,-8.28,45.06,-3.36
2.6423,-9.9701,-2.8739,0.5397,-0.29627,-0.45845,-8.34,45.12,-3.42
2.7241,-11.25,-2.5061,0.54092,-0.50916,-0.45296,-8.64,45.12,-3.9
2.6015,-12.299,-2.2201,0.51679,-0.57849,-0.41325,-8.76,45.06,-4.14
2.8467,-14.342,-2.2337,0.49114,-0.51679,-0.34972,-9.0,45.0,-4.38
3.0918,-15.337,-2.438,0.416,-0.35003,-0.28497,-9.42,45.0,-4.8
3.2825,-14.683,-2.3836,0.32315,-0.044288,-0.37599,-9.6,44.88,-5.16
3.3915,-12.708,-2.3155,0.30146,0.037874,-0.56536,-9.54,44.88,-5.52
3.4051,-10.447,-2.1384,0.27825,-0.061697,-0.86804,-10.08,44.88,-6.18
3.2144,-10.174,-1.8524,0.24282,-0.24007,-1.211,-10.38,44.82,-6.36
3.1191,-10.311,-1.7025,0.1295,-0.38668,-1.4893,-10.68,44.76,-6.78
2.9284,-10.883,-1.2531,-0.065057,-0.49816,-1.668,-11.4,44.52,-7.32
2.8467,-10.842,-1.1305,-0.37141,-0.49816,-1.7388,-11.82,44.28,-7.62
2.656,-10.556,-1.0624,-0.51679,-0.40806,-1.7046,-12.3,44.16,-7.92
2.438,-9.6432,-0.92618,-0.54611,-0.34025,-1.6625,-12.84,43.92,-8.04
2.4108,-8.5127,-0.98067,-0.46548,-0.07758,-1.4694,-13.5,43.62,-8.16
2.6015,-6.8919,-1.0896,-0.31062,0.037874,-1.3237,-15.0,42.9,-8.7
2.7377,-6.565,-1.0624,-0.13806,0.033292,-1.1539,-15.84,42.72,-9.0
2.9011,-6.1564,-0.99429,0.055283,-0.24679,-0.95417,-17.34,42.24,-9.48
3.0237,-5.9249,-0.89894,0.10599,-0.56139,-0.81031,-18.9,41.82,-9.96
2.9284,-5.9249,-0.8717,0.13836,-0.89003,-0.67195,-20.52,41.34,-10.38
2.9011,-5.993,-0.8036,0.12553,-1.1542,-0.52473,-21.12,41.1,-10.68
2.4517,-6.5922,-0.84446,0.10079,-1.2804,-0.37599,-22.92,40.44,-11.64
2.4108,-6.7693,-0.83084,0.10843,-1.2801,-0.2364,-23.46,40.32,-11.82
2.3427,-7.5321,-0.83084,0.11179,-1.1988,-0.095906,-24.12,40.08,-12.18
2.3836,-8.4446,-0.78998,0.10232,-0.97189,0.12675,-24.36,40.14,-12.36
2.6015,-9.507,-0.69464,0.096822,-0.821,0.28863,-24.3,39.9,-12.36
2.7241,-10.379,-0.51757,0.075442,-0.70158,0.44654,-24.24,39.96,-12.36
2.7649,-10.556,-0.51757,0.058948,-0.63011,0.5678,-24.24,39.96,-12.42
2.7922,-10.447,-0.64016,0.0956,-0.61697,0.62766,-23.76,40.02,-12.48
2.6423,-10.243,-0.53119,0.21625,-0.66615,0.68845,-23.64,40.2,-12.3
2.4789,-10.678,-0.72188,0.26573,-0.68539,0.70677,-22.98,40.74,-12.06
2.4108,-11.387,-0.78998,0.34972,-0.72693,0.75839,-22.74,40.92,-12.06
2.261,-12.503,-0.99429,0.42638,-0.76297,0.87812,-22.32,40.98,-12.0
2.152,-12.967,-0.96704,0.41417,-0.72601,0.9728,-21.96,40.98,-12.12
1.471,-14.397,-0.58567,0.34392,-0.60598,1.0699,-21.12,41.34,-12.36
1.3212,-14.764,-0.38137,0.23915,-0.18937,1.2068,-20.76,41.52,-12.3
1.185,-15.282,-0.027241,0.10232,-0.009163,1.2565,-20.34,41.82,-12.36
1.5119,-16.317,-0.14982,0.013134,0.4554,1.4539,-19.56,42.36,-12.78
1.9477,-15.636,-0.53119,0.029016,0.61789,1.5253,-19.02,42.72,-12.9
2.0294,-14.547,-0.8036,0.11576,0.60109,1.4902,-18.66,42.96,-12.84
1.4029,-10.256,-1.0488,0.19884,0.51129,1.3329,-17.82,43.62,-12.9
0.92618,-8.8532,-0.8717,0.2865,0.35949,0.97647,-17.28,43.8,-12.96
0.054481,-9.2482,-0.7355,0.30116,0.35003,0.86987,-16.38,44.16,-13.08
-0.095342,-9.5887,-1.0215,0.1066,0.58338,0.61087,-15.84,44.34,-12.96
-0.14982,-9.4934,-1.0079,-0.11179,0.85338,0.57177,-15.36,44.58,-12.96
0.12258,-8.4446,-1.0215,-0.2978,1.1356,0.61667,-14.34,44.94,-12.48
0.29965,-7.75,-1.0624,-0.40225,1.3546,0.68722,-13.98,45.18,-12.36
0.54481,-7.2188,-1.2803,-0.40348,1.4548,0.73762,-13.38,45.48,-12.12
0.89894,-6.2109,-1.4574,-0.25656,1.4361,0.78496,-12.24,45.66,-11.46
1.2939,-5.8431,-1.58,-0.094379,1.281,0.81276,-11.58,45.6,-11.04
1.58,-5.8295,-1.7298,-0.015272,1.1613,0.83169,-10.92,45.6,-10.74
1.9068,-5.9112,-1.9886,0.15882,0.69028,0.84269,-9.48,45.48,-10.14
1.8387,-6.0202,-1.8932,0.19517,0.40195,0.79718,-8.76,45.3,-9.96
1.6889,-5.9657,-1.9205,0.19548,0.23213,0.70921,-8.1,45.18,-9.6
1.3484,-6.5105,-1.9341,0.16677,0.16249,0.6014,-6.48,45.12,-9.18
1.1713,-6.96,-2.0839,0.11484,0.22083,0.42028,-5.76,45.0,-8.94
1.1169,-7.1643,-2.1248,0.095295,0.27917,0.35186,-5.1,45.0,-8.82
1.3076,-8.0496,-2.261,0.029322,0.46884,0.17104,-3.72,45.06,-8.82
1.2939,-8.2539,-2.3427,-0.0015272,0.55528,0.068722,-3.12,45.12,-8.7
1.4438,-8.6353,-2.2337,-0.0042761,0.61667,-0.075442,-2.04,44.94,-9.12
1.6072,-8.826,-2.1248,0.047647,0.60598,-0.13958,-1.62,44.88,-9.24
1.7434,-8.9758,-2.261,0.081551,0.57788,-0.17318,-1.26,44.82,-9.3
1.866,-9.4117,-2.2882,0.15088,0.47434,-0.2419,-0.84,44.88,-9.6
2.1248,-9.9156,-2.2201,0.26848,0.25992,-0.34392,-0.36,45.06,-9.96
2.2882,-10.42,-2.1384,0.34789,0.11362,-0.416,-0.06,45.18,-10.08
2.3155,-10.91,-2.0839,0.41264,-0.0082467,-0.49541,0.06,45.18,-10.38
2.5742,-12.326,-2.1248,0.55283,-0.16493,-0.58887,0.24,45.3,-10.74
3.0373,-13.471,-2.4108,0.61667,-0.24221,-0.59712,0.3,45.36,-11.04
3.2416,-13.811,-2.5334,0.64263,-0.59773,-0.67867,0.18,45.36,-11.22
2.8058,-12.122,-2.3155,0.57941,-0.80726,-0.80695,0.12,45.12,-11.94
2.438,-11.319,-1.9886,0.46212,-0.8604,-0.97738,-0.24,45.06,-12.48
2.1793,-10.951,-1.4165,0.31673,-0.80298,-1.1493,-0.66,45.0,-12.6
2.0158,-11.536,-1.2395,-0.0054978,-0.60262,-1.3421,-1.32,45.3,-13.14
2.0567,-11.754,-1.1032,-0.14325,-0.50091,-1.3882,-1.74,45.18,-13.56
2.1929,-11.577,-1.0488,-0.39828,-0.29016,-1.4554,-2.28,45.12,-13.62
2.3018,-11.101,-0.85808,-0.64874,-0.022907,-1.5156,-2.88,45.12,-13.74
2.438,-9.9565,-0.64016,-0.70585,0.15211,-1.5589,-4.5,45.18,-14.04
2.4517,-9.2482,-0.64016,-0.6915,0.28772,-1.6014,-5.4,45.36,-14.16
2.4789,-8.4855,-0.7355,-0.59529,0.33475,-1.638,-6.18,45.36,-14.16
2.656,-7.3005,-0.83084,-0.3824,0.22358,-1.6307,-8.28,45.48,-14.7
2.9284,-7.3005,-0.85808,-0.24801,-0.016493,-1.5693,-9.36,45.54,-14.82
2.9556,-7.1915,-0.8036,-0.18234,-0.33353,-1.4905,-10.56,45.72,-14.88
2.6151,-6.5786,-0.53119,-0.15577,-0.64355,-1.3974,-12.78,46.08,-14.94
2.4517,-6.5786,-0.38137,-0.13317,-0.89247,-1.2599,-13.86,46.14,-15.0
2.2882,-6.9464,-0.40861,-0.12645,-1.0602,-0.99938,-14.94,45.96,-15.12
2.0294,-7.6683,-0.29965,-0.13531,-1.0534,-0.90072,-17.1,46.02,-15.06
2.0567,-8.0224,-0.23155,-0.12614,-0.91844,-0.59834,-18.18,46.14,-15.18
2.152,-8.6353,-0.12258,-0.11179,-0.80787,-0.38301,-19.08,46.2,-15.3
2.261,-9.0303,-0.027241,-0.078191,-0.72113,-0.17654,-19.86,46.26,-15.3
2.5061,-10.311,0.068102,-0.038485,-0.69761,0.026267,-21.42,46.32,-15.3
2.6696,-10.733,0.027241,0.065668,-0.73334,0.30268,-22.26,46.44,-15.24
2.6015,-10.815,0.01362,0.17287,-0.79993,0.46517,-23.28,46.56,-14.88
2.5061,-10.815,-0.068102,0.31551,-0.8659,0.61911,-23.64,46.74,-14.82
2.4789,-10.951,-0.14982,0.46151,-0.93615,0.76114,-24.0,46.86,-14.7
2.3155,-11.414,-0.54481,0.61025,-0.99571,0.92577,-24.48,47.04,-14.4
2.2474,-12.34,-0.69464,0.70463,-1.0324,1.0944,-24.6,47.22,-14.34
2.3155,-12.994,-0.70826,0.72388,-1.0363,1.2532,-24.78,48.06,-14.1
2.1112,-14.683,-0.57205,0.67134,-0.96456,1.3818,-24.66,48.3,-14.04
2.1248,-15.459,-0.31327,0.44563,-0.63225,1.5791,-24.6,48.48,-13.86
2.0839,-15.5,-0.36775,0.26176,-0.28924,1.6503,-24.36,48.84,-13.86
2.1929,-14.574,-0.70826,0.17379,0.062003,1.6958,-23.7,49.2,-13.68
2.5061,-13.62,-1.3212,0.22297,0.29383,1.7104,-23.34,49.5,-13.56
2.833,-10.869,-2.0703,0.32437,0.31307,1.6047,-22.86,49.68,-13.38
2.2474,-9.5751,-1.9341,0.34331,0.18295,1.3763,-21.84,50.16,-13.26
1.3076,-8.6898,-1.6072,0.30055,0.11179,1.0571,-21.42,50.34,-13.02
0.83084,-8.4991,-1.4574,0.20922,0.15974,0.76328,-20.82,50.52,-12.72
0.36775,-8.8941,-1.4846,-0.036346,0.54672,0.46395,-19.5,50.76,-12.3
0.5993,-8.8805,-1.6753,-0.23854,0.86376,0.40073,-18.78,50.76,-12.0
0.84446,-8.7306,-1.9205,-0.43097,1.1328,0.43219,-18.0,50.76,-11.7
1.3484,-7.7636,-1.7843,-0.55772,1.2905,0.48167,-16.56,50.64,-10.74
1.4438,-6.96,-1.7434,-0.58674,1.3549,0.51649,-15.6,50.64,-10.26
1.4574,-6.4424,-1.6617,-0.47678,1.376,0.48686,-14.82,50.4,-9.72
1.4438,-5.5707,-1.7706,-0.31307,1.3299,0.44624,-14.04,50.28,-9.3
1.8387,-5.3392,-1.8796,-0.14966,1.2147,0.41325,-12.42,50.04,-8.46
2.1656,-5.5843,-2.0567,-0.051618,1.0003,0.39554,-11.76,49.86,-8.16
2.5334,-6.1292,-2.0839,-0.0088575,0.5339,0.38729,-10.26,49.44,-7.56
2.4653,-6.6059,-2.1929,-0.027184,0.27764,0.33872,-9.42,49.32,-7.32
2.3427,-7.0281,-2.2065,-0.043982,0.1857,0.30452,-8.7,49.2,-7.08
2.152,-7.2596,-2.0839,-0.12462,0.055283,0.14355,-8.1,49.2,-6.84
1.7979,-7.9407,-2.0839,-0.19578,0.13073,-0.0012217,-7.08,49.02,-6.54
1.5936,-7.9951,-2.0294,-0.26328,0.31673,-0.17074,-6.6,49.02,-6.48
1.4982,-8.2812,-2.0158,-0.29963,0.69333,-0.40164,-5.76,48.9,-6.54
1.6481,-8.3901,-2.0703,-0.27336,0.84941,-0.50946,-5.58,48.9,-6.66
1.9613,-8.6625,-2.0294,-0.19945,0.83353,-0.5846,-5.52,48.96,-6.6
2.0294,-8.826,-2.0294,-0.13317,0.68845,-0.62278,-5.52,48.96,-6.66
1.9886,-9.1937,-2.1656,-0.047037,0.49572,-0.61789,-5.94,48.84,-6.6
1.7979,-9.3436,-2.1929,0.040623,0.31582,-0.59712,-5.94,48.96,-6.6
1.6753,-9.7113,-2.4653,0.16371,0.19059,-0.55925,-6.18,48.96,-6.42
1.4029,-10.569,-2.5061,0.29688,0.11942,-0.5058,-6.66,48.9,-6.6
1.4438,-11.264,-2.4244,0.34728,0.14691,-0.45662,-7.02,48.96,-6.6
1.5663,-11.795,-2.2201,0.35919,0.19273,-0.42913,-7.2,48.9,-6.6
1.7706,-13.007,-2.1793,0.36835,0.29413,-0.25443,-7.68,48.96,-6.72
2.8467,-14.655,-2.7241,0.36896,0.20495,-0.089186,-8.46,48.84,-7.2
2.9148,-14.083,-2.6968,0.29871,0.002138,0.022297,-8.88,48.84,-7.32
2.7104,-11.686,-2.4789,0.2926,-0.065668,0.0024435,-9.54,48.72,-7.56
2.5061,-10.351,-2.261,0.27733,-0.16677,-0.081245,-9.84,48.6,-7.86
2.4789,-10.052,-2.2337,0.22938,-0.24007,-0.26634,-10.02,48.66,-8.04
2.3563,-10.134,-1.8251,0.10232,-0.29413,-0.39798,-10.32,48.6,-8.64
2.4108,-10.202,-1.7025,-0.079412,-0.31093,-0.47495,-10.86,48.48,-8.82
2.3836,-9.6432,-1.4574,-0.33414,-0.24923,-0.52718,-11.52,48.48,-9.12
2.2474,-8.7034,-1.3757,-0.44318,-0.12828,-0.54734,-11.82,48.36,-9.24
2.2201,-8.0905,-1.3076,-0.48869,0.03207,-0.55222,-12.18,48.3,-9.3
2.1929,-7.7091,-1.2531,-0.47342,0.098349,-0.57177,-12.6,48.12,-9.24
2.3563,-6.8374,-1.1713,-0.41294,0.22052,-0.60812,-13.2,47.88,-9.0
2.4789,-6.4833,-1.0215,-0.36377,0.23213,-0.6182,-13.68,47.7,-8.76
2.6696,-6.3198,-0.76274,-0.30513,0.14936,-0.61667,-14.82,47.46,-8.34
3.0646,-6.4697,-0.65378,-0.25595,-0.097738,-0.53756,-15.36,47.34,-8.1
3.1327,-6.7557,-0.57205,-0.2248,-0.31398,-0.45998,-16.02,47.4,-7.86
3.1599,-6.96,-0.38137,-0.20067,-0.41539,-0.41264,-16.62,47.16,-7.62
3.4187,-7.4503,-0.31327,-0.1014,-0.67623,-0.23702,-17.7,46.98,-6.96
3.5549,-7.8317,-0.23155,-0.012828,-0.81337,-0.10324,-18.24,46.86,-6.72
3.7592,-8.3765,-0.16344,0.11759,-0.94654,0.034208,-18.78,46.68,-6.36
4.2495,-8.9622,-0.19068,0.31582,-1.1484,0.20556,-19.68,46.62,-5.88
4.3858,-9.2074,-0.25879,0.37843,-1.2178,0.24984,-19.98,46.56,-5.7
4.3721,-9.2618,-0.43585,0.50152,-1.376,0.29627,-20.4,46.62,-5.58
4.3449,-9.3163,-0.49033,0.60659,-1.5739,0.26939,-20.82,46.62,-5.4
4.0861,-9.1529,-0.6674,0.60842,-1.6634,0.19914,-21.36,46.62,-4.92
3.8273,-9.0303,-0.64016,0.55864,-1.6777,0.10507,-21.6,46.62,-4.92
3.4459,-8.9349,-0.77636,0.48289,-1.6176,0.053756,-21.84,46.68,-4.32
3.2144,-8.9894,-0.92618,0.34911,-1.3961,-0.12584,-22.08,46.68,-4.08
3.0918,-8.9758,-1.1577,0.30085,-1.3008,-0.14844,-22.14,46.74,-3.78
3.0918,-8.9486,-1.2667,0.20036,-1.0421,-0.16646,-22.38,46.74,-3.6
3.2144,-8.8668,-1.5119,0.14875,-0.92149,-0.13775,-22.44,46.86,-3.06
3.228,-9.0848,-1.471,0.098655,-0.84635,-0.097128,-22.62,46.86,-2.94
3.2553,-9.3844,-1.471,-0.014661,-0.75839,-0.0085521,-22.56,46.86,-2.7
3.2144,-10.406,-1.6208,-0.062919,-0.73426,0.018021,-22.8,46.8,-1.98
3.1191,-10.815,-1.5663,-0.23824,-0.62308,0.050091,-22.86,46.8,-1.68
2.9011,-10.637,-1.3893,-0.38851,-0.47709,0.0036652,-22.8,46.68,-1.26
2.6832,-10.61,-1.1169,-0.45082,-0.26298,-0.070555,-22.98,46.62,-0.96
2.8467,-11.673,-1.2803,-0.43341,-0.13225,-0.078496,-23.16,46.62,-0.54
3.2825,-12.476,-1.6753,-0.29505,-0.24648,0.012523,-23.4,46.56,0.54
3.7184,-12.885,-1.9613,-0.22144,-0.35125,0.068111,-23.34,46.38,1.5
3.6094,-12.286,-1.9613,-0.066584,-0.68967,0.21686,-23.46,46.38,1.8
3.2825,-10.992,-2.2337,0.019242,-0.83627,0.20953,-23.34,46.32,2.16
2.4244,-8.3084,-2.5061,0.048564,-0.90103,0.078191,-23.4,46.32,3.0
1.8932,-6.9055,-2.3018,0.049786,-0.85582,-0.12645,-23.28,46.2,3.48
1.5119,-5.9385,-1.9613,0.013134,-0.75808,-0.33842,-23.4,46.14,4.02
1.7025,-6.2926,-1.8387,-0.057727,-0.68936,-0.55253,-23.34,45.9,4.92
1.7979,-7.2869,-1.7706,-0.15547,-0.67989,-0.58032,-23.28,45.84,5.52
1.866,-7.8181,-1.7843,-0.21686,-0.66798,-0.56902,-23.34,45.78,5.88
1.8251,-9.0031,-1.7979,-0.39492,-0.60567,-0.46487,-23.4,45.72,6.42
1.8932,-9.3163,-1.7434,-0.42913,-0.4725,-0.40225,-23.52,45.48,7.02
2.1929,-8.8941,-1.6072,-0.36255,-0.21961,-0.31979,-23.52,45.36,7.38
2.547,-8.0905,-1.7162,-0.19884,-0.1909,-0.31368,-23.7,45.24,7.92
2.6832,-7.7636,-1.6481,0.029322,-0.26878,-0.35003,-23.64,44.94,8.28
2.8875,-7.8045,-1.757,0.27275,-0.51954,-0.39615,-23.76,44.76,8.46
3.1463,-7.8726,-1.7434,0.52993,-1.1063,-0.42913,-23.88,44.28,9.06
3.1463,-8.2267,-1.7843,0.63774,-1.5324,-0.40287,-23.88,44.04,9.3
2.8058,-8.8124,-1.5936,0.66645,-1.8531,-0.34606,-23.82,43.86,9.6
2.4789,-9.4798,-1.7434,0.6466,-1.9743,-0.29016,-23.94,43.44,10.14
2.2337,-9.6432,-1.7298,0.60415,-1.9429,-0.219,-23.82,43.38,10.38
2.1929,-9.6296,-1.8387,0.57818,-1.6887,-0.12584,-23.64,43.2,10.62
2.4517,-9.7385,-1.9886,0.55955,-1.5427,-0.079107,-23.1,42.78,11.22
2.656,-9.7113,-1.9886,0.54367,-1.5128,-0.064752,-22.92,42.84,11.52
2.8058,-9.6977,-2.1248,0.50763,-1.565,-0.049786,-22.68,42.84,11.76
2.6151,-9.3572,-1.9068,0.41172,-1.642,-0.091324,-21.72,42.84,12.36
2.4789,-9.4117,-1.866,0.31215,-1.6212,-0.13195,-21.48,42.9,12.72
2.3427,-9.3436,-1.6889,0.20861,-1.5049,-0.18998,-21.06,42.9,13.08
2.2474,-9.2482,-1.6072,0.10263,-1.332,-0.2642,-20.58,42.9,13.5
2.2201,-9.0439,-1.4438,0.017104,-1.1481,-0.33231,-19.74,43.14,14.28
2.1929,-8.826,-1.3757,-0.059865,-0.95387,-0.40928,-19.5,43.08,14.64
2.1929,-8.6489,-1.1986,-0.068111,-0.79138,-0.46548,-19.14,43.14,15.06
2.5061,-8.7715,-1.2531,-0.0079412,-0.66768,-0.51282,-18.6,43.2,15.6
2.6015,-8.7987,-1.3212,0.012828,-0.67501,-0.51007,-18.42,43.26,15.9
2.6832,-8.7443,-1.2531,0.089492,-0.77244,-0.46945,-18.3,43.32,16.26
2.7377,-8.6762,-1.2258,0.14722,-0.83994,-0.42791,-17.94,43.26,16.8
2.6832,-8.54,-1.1577,0.20586,-0.8491,-0.3824,-17.76,43.14,17.04
2.6151,-8.3357,-1.0351,0.25534,-0.82833,-0.35216,-17.76,43.14,17.28
2.8194,-8.6762,-0.96704,0.31979,-0.7648,-0.31032,-17.52,42.9,17.76
3.0237,-9.3299,-0.8036,0.37141,-0.71502,-0.2248,-17.58,42.72,18.18
3.2144,-9.8884,-0.83084,0.41692,-0.70341,-0.11148,-17.58,42.72,18.18
3.6639,-10.883,-0.89894,0.46701,-0.73151,0.021686,-17.52,42.54,18.48
3.8137,-11.278,-0.92618,0.53726,-0.78802,0.18112,-17.52,42.54,18.42
4.0861,-11.319,-1.1441,0.60476,-0.87415,0.31215,-17.4,42.72,18.6
4.1814,-10.392,-1.0215,0.65179,-1.0614,0.34392,-17.16,42.72,18.78
4.2087,-9.902,-0.89894,0.62492,-1.2306,0.24038,-16.86,42.78,18.9
4.127,-9.3572,-0.68102,0.60659,-1.3354,0.16371,-16.74,42.96,18.78
4.0044,-9.3163,-0.28603,0.53695,-1.6735,-0.12126,-16.5,43.02,18.78
4.0044,-9.8339,0.040861,0.4612,-1.8689,-0.28833,-16.08,43.2,18.78
4.0589,-11.141,0.28603,0.39065,-2.0418,-0.42822,-15.24,43.5,19.08
4.1406,-10.883,0.095342,0.39034,-2.2675,-0.58796,-14.76,43.74,18.9
3.909,-10.025,0.01362,0.4609,-2.3518,-0.68875,-14.1,43.86,19.14
3.8409,-9.6977,0.17706,0.54367,-2.3158,-0.78741,-13.56,44.1,19.02
3.7184,-9.7113,0.72188,0.58613,-2.1982,-0.86224,-12.3,44.46,19.44
3.9499,-9.7249,0.8036,0.55741,-2.1377,-0.94043,-11.82,44.7,19.62
4.2223,-9.5887,1.1169,0.50121,-2.2214,-0.9896,-11.22,44.82,19.74
4.3449,-9.2482,1.2531,0.44104,-2.4126,-1.0088,-10.26,45.18,19.86
4.3177,-9.2346,1.362,0.34483,-2.5745,-1.0266,-9.66,45.42,20.04
4.3177,-9.398,1.471,0.33475,-2.5901,-1.0333,-9.18,45.66,19.98
4.2223,-9.5751,1.5936,0.30146,-2.5305,-1.0534,-8.1,45.9,20.22
4.2904,-9.7249,1.6753,0.28619,-2.4279,-1.0803,-7.68,46.02,20.34
4.4811,-9.9429,1.8115,0.28191,-2.3231,-1.0886,-7.2,46.2,20.34
4.5764,-10.065,1.7706,0.27489,-2.1933,-1.1011,-6.48,46.38,20.4
4.699,-9.8203,1.7025,0.28863,-2.1386,-1.106,-6.18,46.5,20.34
4.7399,-9.6568,1.58,0.31765,-2.1191,-1.1139,-5.76,46.62,20.34
4.6445,-9.2755,1.2667,0.40103,-2.0611,-1.1164,-5.52,46.68,20.22
4.5764,-8.8941,1.185,0.43127,-1.992,-1.1164,-4.98,47.04,19.68
4.522,-8.826,0.98067,0.45357,-1.919,-1.1081,-4.68,47.1,19.5
4.6854,-8.5944,0.57205,0.5006,-1.8634,-1.0754,-4.08,47.28,19.2
4.8897,-8.4582,0.21793,0.52901,-1.8546,-1.0449,-4.02,47.28,18.84
4.8761,-8.431,0.21793,0.56016,-1.9025,-1.0091,-3.78,47.28,18.78
4.9169,-8.4719,-0.10896,0.58399,-1.9584,-0.97128,-3.6,47.4,18.48
4.7535,-8.7715,-0.29965,0.57757,-1.9419,-0.91783,-3.36,47.7,17.82
4.699,-9.1665,-0.35413,0.55558,-1.8589,-0.80329,-3.48,47.82,17.4
4.7126,-10.706,-0.88532,0.54153,-1.7517,-0.62889,-3.36,47.94,17.04
4.7671,-11.387,-1.2258,0.53206,-1.5375,-0.3204,-3.18,48.3,16.14
4.7671,-12.068,-1.3212,0.49786,-1.4581,-0.21564,-3.06,48.54,15.72
4.5492,-12.667,-1.1441,0.35583,-1.1545,0.026878,-2.94,48.6,15.36
3.5277,-12.994,-0.72188,0.20769,-0.87934,0.1463,-2.46,49.02,14.64
2.261,-12.735,-0.72188,0.13225,-0.57208,0.30238,-2.4,49.14,14.16
1.6208,-13.116,-1.0488,0.14508,-0.11545,0.53329,-1.86,49.5,13.2
2.0839,-12.939,-1.4029,0.33323,0.59987,0.99479,-1.5,49.62,12.96
2.656,-12.299,-1.6344,0.51557,0.75564,1.3219,-1.26,49.8,12.36
2.8739,-11.741,-1.866,0.67623,0.52168,1.5696,-0.84,49.98,12.0
2.8603,-9.902,-1.866,0.79138,-0.087659,1.6707,-0.06,50.16,10.92
2.5198,-9.6023,-1.6481,0.821,-0.82528,1.6054,0.54,50.22,10.44
1.3484,-9.8066,-1.0215,0.63744,-1.5824,1.3861,1.62,50.4,9.42
0.28603,-10.093,-0.8036,0.38576,-1.5956,1.2236,2.22,50.4,9.06
-0.24517,-10.147,-0.7355,0.23946,-1.4783,1.1448,2.82,50.34,8.52
-1.2531,-9.4798,-0.85808,-0.18173,-0.79993,0.90713,3.78,50.34,7.68
-1.4029,-9.1393,-1.0079,-0.35247,-0.17074,0.76083,4.32,50.16,7.2
-1.1305,-8.6898,-1.0215,-0.43219,0.39218,0.64049,4.86,49.98,6.84
-0.24517,-7.927,-1.0215,-0.42119,0.75228,0.52504,5.76,49.5,6.3
0.10896,-7.7908,-1.2667,-0.26267,0.82711,0.489,6.12,49.2,6.12
0.50395,-7.7364,-1.4438,-0.13256,0.60873,0.46242,6.6,48.9,6.24
0.99429,-7.641,-1.5663,-0.019548,0.27642,0.46914,7.56,48.24,6.72
1.0624,-7.6683,-1.6072,0.070555,-0.076053,0.46365,7.98,47.82,6.9
0.95342,-7.8726,-1.6344,0.088881,-0.31246,0.44227,8.52,47.52,7.26
0.76274,-7.9134,-1.6481,0.065057,-0.38759,0.39401,8.94,47.04,7.44
0.51757,-7.6546,-1.7298,-0.050702,-0.044593,0.17715,10.2,45.9,8.46
0.51757,-7.6546,-1.7298,-0.050702,-0.044593,0.17715,10.2,45.9,8.46
0.55843,-7.6274,-1.7706,-0.084605,0.075442,0.1295,10.62,45.54,8.82
0.69464,-7.3822,-1.9886,-0.12767,0.42028,-0.0045815,11.52,44.82,9.48
0.91256,-7.3005,-2.0294,-0.13653,0.58582,-0.045815,12.0,44.52,9.84
1.3484,-7.3141,-2.152,-0.13256,0.65851,-0.049175,12.96,43.98,10.5
1.58,-7.2188,-2.2201,-0.12065,0.61087,-0.049786,13.38,43.86,10.62
1.6889,-7.1915,-2.1248,-0.094379,0.50244,-0.046731,13.74,43.56,10.62
1.9613,-7.1915,-1.9613,-0.039706,0.35888,-0.045815,14.16,43.38,10.56
2.2201,-7.6002,-2.0567,0.090713,0.10843,-0.0058032,14.4,43.14,10.44
2.5198,-8.4446,-2.152,0.19761,-0.10996,0.033598,14.46,42.96,10.44
2.7513,-9.507,-2.2474,0.28619,-0.34392,0.070555,14.82,42.96,10.38
2.8467,-9.8339,-2.261,0.39615,-0.6521,0.094684,14.82,42.78,10.38
2.8467,-10.215,-2.2474,0.42028,-0.72174,0.091935,14.64,42.72,10.32
2.6696,-10.61,-2.2201,0.45937,-0.80665,-0.019853,14.82,42.6,9.96
2.5742,-11.427,-1.9886,0.49083,-0.75411,-0.13531,14.7,42.6,9.78
2.5606,-12.885,-1.8796,0.48197,-0.67898,-0.26328,14.76,42.72,9.48
2.6015,-14.683,-1.7979,0.3375,-0.59284,-0.44776,14.82,42.72,8.7
2.6968,-14.778,-1.6344,0.069028,-0.19059,-0.71777,14.94,42.6,8.4
3.0101,-13.293,-1.6072,0.0097738,-0.042761,-0.77519,14.88,42.6,7.98
2.9556,-11.605,-1.3484,-0.041539,0.1857,-0.96395,14.94,42.72,7.8
2.8739,-10.256,-1.2258,-0.0064141,0.21228,-1.1533,14.82,42.6,7.56
2.8603,-9.6977,-1.1577,0.0562,0.14875,-1.3127,14.76,42.54,7.26
3.051,-9.6568,-0.8036,0.10385,0.0027489,-1.4059,14.22,42.24,6.84
3.3506,-9.8748,-0.76274,0.065973,-0.31337,-1.3882,13.86,42.36,6.48
3.8954,-10.147,-0.34051,0.048869,-0.44471,-1.3555,13.02,42.54,6.0
4.0452,-9.9565,-0.19068,0.013439,-0.99205,-1.2657,12.54,42.48,5.88
3.8682,-9.793,-0.21793,0.0045815,-1.2633,-1.2364,12.0,42.36,5.64
3.6366,-9.2618,-0.27241,0.014661,-1.3274,-1.2306,11.46,42.42,5.58
3.4051,-8.5808,-0.23155,0.02474,-1.2587,-1.2468,10.14,42.42,5.28
3.337,-8.1586,-0.31327,0.023213,-1.1283,-1.3338,9.3,42.54,5.04
3.5549,-7.7908,-0.24517,0.0036652,-0.99907,-1.3619,7.98,42.54,4.5
3.6094,-7.6138,-0.38137,-0.0042761,-0.94684,-1.423,7.38,42.6,4.2
3.6775,-7.3958,-0.40861,-0.022907,-0.97494,-1.4438,6.9,42.72,3.84
3.5685,-7.0553,-0.40861,-0.026267,-1.0174,-1.4212,5.64,42.72,3.0
3.5822,-6.96,-0.24517,0.0039706,-1.0797,-1.3613,5.04,42.9,2.58
3.5004,-7.0281,-0.28603,0.037568,-1.1344,-1.2462,4.62,42.9,2.16
3.6094,-7.3141,-0.35413,0.14416,-1.2178,-1.0253,3.78,42.78,1.2
3.6639,-7.5048,-0.40861,0.2138,-1.2694,-0.83658,3.6,42.84,0.78
3.7047,-7.5865,-0.36775,0.27886,-1.3085,-0.62308,3.48,43.02,0.3
3.7728,-8.1722,-0.40861,0.31673,-1.3528,-0.40378,2.94,43.02,-0.6
3.8273,-8.5808,-0.55843,0.34086,-1.3812,-0.18754,2.94,43.08,-0.84
3.623,-9.1937,-0.6674,0.31887,-1.3665,0.045204,2.94,43.08,-1.56
3.514,-9.2891,-0.69464,0.27122,-1.2691,0.14875,2.94,43.08,-1.92
3.2825,-9.4117,-0.72188,0.20556,-1.1222,0.23549,2.88,42.9,-2.34
3.1872,-9.6977,-0.61292,0.14416,-0.94226,0.28924,2.94,42.78,-2.58
3.1191,-10.161,-0.6674,0.087048,-0.76908,0.34422,3.06,42.72,-2.88
3.0373,-11.359,-0.69464,0.038485,-0.62094,0.40653,3.78,42.66,-3.36
