Ax,Ay,Az,Gx,Gy,Gz,Mx,My,Mz
6.6059,-10.801,-1.7298,0.35583,0.0956,0.37263,-1.08,41.94,15.42
5.6388,-11.237,-1.7979,0.3598,-0.29505,-0.12309,0.12,42.42,14.94
5.7069,-13.648,-1.4165,0.27519,-0.57085,-0.33078,0.72,42.6,14.7
5.9657,-14.969,-1.1032,0.085216,-0.57055,-0.5287,1.2,42.78,14.52
6.0202,-13.648,-0.98067,-0.11393,-0.55405,-0.83597,1.44,43.08,14.28
5.2711,-11.346,-0.9398,-0.25931,-0.62705,-1.2416,1.98,43.32,13.98
5.0395,-12.027,-0.64016,-0.37538,-0.7086,-1.682,2.04,43.32,13.86
4.7263,-13.253,0.31327,-0.48594,-0.86865,-2.043,2.16,43.56,13.86
4.6309,-14.083,0.53119,-0.61667,-0.98197,-2.4416,1.86,43.68,13.86
4.0589,-14.315,0.68102,-0.64294,-0.9221,-2.5928,1.5,43.56,14.1
3.5277,-13.157,0.68102,-0.6353,-0.45571,-3.0632,0.96,43.44,14.16
2.9148,-10.529,0.53119,-0.51893,-0.17685,-3.3433,-0.42,43.02,14.58
2.7513,-9.1529,0.21793,-0.35919,-0.089492,-3.4728,-1.5,42.9,14.94
3.1327,-8.6353,-0.36775,-0.17379,-0.26328,-3.4774,-4.02,42.18,15.42
3.228,-8.431,-0.54481,-0.03543,-0.67012,-3.4596,-5.7,41.76,15.6
3.2553,-8.322,-0.44947,0.019548,-1.1811,-3.3124,-7.26,41.22,15.9
3.2825,-8.3765,-0.20431,-0.0018326,-1.752,-3.1527,-8.94,40.62,16.08
2.8739,-9.0575,0.01362,-0.16982,-2.3808,-2.8292,-10.74,40.02,16.26
1.975,-9.2891,0.10896,-0.31796,-2.4673,-2.525,-14.22,38.7,16.62
1.2803,-9.4117,-0.17706,-0.45907,-2.299,-1.9737,-16.08,37.8,16.92
0.7355,-9.221,-0.21793,-0.60292,-1.6328,-1.5791,-19.14,36.12,17.34
0.61292,-9.0712,-0.31327,-0.66554,-1.011,-1.1512,-20.46,35.28,17.64
0.70826,-8.8668,-0.32689,-0.6857,-0.34453,-0.68967,-21.96,34.44,17.94
1.0896,-8.6081,-0.27241,-0.65576,0.2248,-0.24435,-24.06,32.94,18.54
1.866,-8.826,-0.43585,-0.56383,0.55955,0.18662,-24.84,32.04,18.9
2.4925,-9.1937,-0.49033,-0.4725,0.68814,0.59284,-25.5,31.26,19.2
3.2144,-8.8941,-0.8717,-0.27672,0.64996,1.0528,-26.28,30.06,19.74
3.3506,-9.3844,-1.0624,-0.20922,0.58887,1.1869,-26.46,29.46,19.92
3.4732,-10.379,-0.91256,-0.08827,0.44532,1.5073,-26.7,28.92,20.16
4.3313,-12.19,-0.7355,0.055283,0.40653,2.0806,-26.52,28.2,20.7
4.3858,-11.155,-0.89894,0.14966,0.57788,2.248,-26.34,27.96,20.88
4.1542,-9.6432,-1.5936,0.27397,0.74373,2.2831,-26.1,27.9,21.06
4.413,-8.2948,-1.9477,0.51343,0.75931,2.2278,-25.62,27.78,21.12
4.6445,-8.5808,-2.1112,0.60415,0.65332,2.2208,-25.26,28.08,21.12
4.8625,-9.2891,-2.3836,0.75106,0.28527,2.2321,-24.78,28.26,21.12
4.7126,-10.093,-2.1929,0.8375,-0.26389,2.2009,-24.06,29.04,20.94
4.2359,-9.3436,-1.8524,0.75289,-0.36408,2.1145,-23.58,29.52,20.88
3.6911,-8.3357,-1.5936,0.58613,-0.197,1.9587,-23.1,30.06,20.82
3.0237,-6.5922,-1.7298,0.43585,0.33323,1.6716,-21.42,31.32,20.82
2.9148,-6.4697,-1.8796,0.26053,0.70127,1.4795,-20.52,31.92,20.82
3.0646,-6.2926,-1.8932,0.19456,0.94715,1.3219,-19.38,32.7,20.88
3.3234,-6.4288,-1.8524,0.17593,1.0318,1.241,-18.42,33.24,20.76
3.8818,-7.1507,-1.3484,0.11698,1.211,1.0779,-16.62,34.56,20.64
3.8818,-7.1507,-1.3484,0.11698,1.211,1.0779,-16.62,34.56,20.64
3.9363,-7.5729,-1.4438,0.090408,1.2077,1.0629,-14.7,35.88,20.28
4.3994,-8.8668,-1.6617,0.081245,1.1829,1.0446,-13.08,37.08,20.16
4.4402,-9.3163,-1.866,0.092241,1.2007,0.99143,-12.36,37.68,19.98
4.6582,-9.4798,-1.9613,0.14386,1.1854,0.90744,-11.46,38.04,19.86
5.1757,-10.583,-2.0294,0.19273,1.051,0.89706,-10.14,38.7,19.26
5.3664,-11.319,-1.8796,0.22235,0.905,0.87781,-9.54,39.0,19.02
5.4618,-11.605,-2.0294,0.2474,0.80787,0.81886,-8.7,39.36,18.48
5.4073,-11.128,-2.0294,0.26328,0.7422,0.66951,-8.46,39.66,18.24
5.4073,-11.319,-2.1112,0.28558,0.70769,0.42302,-8.22,39.72,18.06
6.0202,-14.628,-1.3076,0.22419,0.60079,0.1744,-7.8,39.9,17.7
6.1155,-14.397,-1.1169,0.10324,0.51679,0.0051924,-7.62,40.14,17.46
5.8704,-12.122,-1.2939,-0.0036652,0.36072,-0.25443,-7.68,40.2,17.34
5.5162,-10.311,-1.2258,-0.11576,-0.10996,-0.77366,-7.62,40.14,16.92
5.1894,-10.651,-1.0215,-0.16799,-0.47983,-1.0846,-7.5,40.08,16.68
4.8352,-11.4,-0.57205,-0.2361,-0.76602,-1.2767,-7.5,40.08,16.56
4.5356,-12.313,0.14982,-0.30421,-0.8937,-1.4083,-7.86,39.9,16.44
4.1814,-12.04,0.24517,-0.34025,-0.82436,-1.5394,-7.98,39.72,16.5
3.6366,-10.392,0.23155,-0.31765,-0.63102,-1.7272,-8.16,39.6,16.56
3.1872,-8.1722,-0.027241,-0.23885,-0.45937,-1.9111,-8.88,39.12,16.68
2.9965,-7.5729,-0.19068,-0.097738,-0.33903,-2.0601,-9.24,38.76,16.8
2.9965,-6.9464,-0.31327,-0.051313,-0.39859,-2.1142,-9.9,38.4,16.8
3.0646,-6.9328,-0.44947,0.010996,-0.58765,-2.1389,-10.5,38.16,16.92
3.0101,-6.4969,-0.68102,0.066279,-1.0867,-2.0693,-12.36,37.14,17.22
2.9284,-6.9191,-0.61292,0.038179,-1.4664,-1.9539,-12.96,36.48,17.4
2.6696,-7.5184,-0.47671,-0.034208,-1.7266,-1.7932,-14.64,35.34,17.76
2.1248,-8.6625,-0.51757,-0.19792,-1.7404,-1.4429,-15.42,34.68,17.82
1.9613,-8.9622,-0.42223,-0.32254,-1.5055,-1.1784,-16.2,33.96,17.88
1.7843,-9.0712,-0.50395,-0.37721,-1.3393,-1.0397,-16.98,33.36,18.0
1.6344,-9.2074,-0.53119,-0.50702,-0.7254,-0.58246,-17.7,32.82,18.06
1.6344,-9.5751,-0.34051,-0.57971,-0.22785,-0.23946,-19.14,31.56,18.24
1.8387,-10.147,-0.42223,-0.61392,0.26695,0.083689,-19.74,31.14,18.42
2.4244,-11.223,-0.50395,-0.62522,0.66035,0.40653,-20.7,29.94,18.6
2.9011,-11.768,-0.47671,-0.60262,0.87812,0.70708,-21.0,29.58,18.84
3.0918,-12.027,-0.55843,-0.53848,0.95936,1.0739,-21.3,29.1,18.96
3.1599,-12.817,-0.49033,-0.48655,0.89919,1.3589,-21.3,28.68,19.02
3.514,-14.07,0.36775,-0.42455,0.92729,1.6503,-21.36,27.96,18.9
3.4459,-12.803,0.39499,-0.2865,1.0223,1.8274,-21.3,27.6,19.08
3.514,-8.7306,-0.027241,-0.036346,1.0336,1.8057,-21.18,27.36,19.26
3.9908,-5.5707,-1.5391,0.34147,0.83505,1.733,-21.06,27.12,19.62
4.1678,-6.0202,-2.4925,0.9163,-0.52626,1.5589,-20.94,27.12,19.74
4.0997,-7.8317,-2.5061,1.0259,-1.0754,1.5122,-20.7,27.12,19.92
3.9363,-9.7113,-2.0703,1.1249,-2.1787,1.4062,-20.4,27.24,19.92
3.228,-10.733,-0.40861,0.8995,-2.1646,1.3909,-19.38,27.66,20.16
2.6015,-10.134,-0.095342,0.42699,-1.1567,1.3262,-18.9,28.02,20.1
1.5391,-8.0632,-1.2122,0.17898,-0.036957,1.2153,-17.46,28.56,20.34
1.7843,-6.9055,-1.8387,0.092241,0.99113,1.0006,-16.62,28.8,20.46
2.2201,-6.2517,-1.9341,0.12156,1.4917,0.79748,-16.02,29.22,20.58
2.8194,-4.985,-1.757,0.20159,1.5941,0.6127,-14.52,30.3,20.64
3.3097,-4.9578,-1.5663,0.2361,1.47,0.48564,-13.8,30.72,20.7
3.8273,-5.2847,-1.471,0.25565,1.1496,0.40287,-13.32,31.14,20.7
3.8954,-5.8704,-1.4846,0.23274,0.44227,0.37751,-12.12,31.86,20.52
3.5413,-7.0553,-1.7025,0.17898,0.135,0.37904,-11.58,32.16,20.4
3.4323,-7.5729,-1.7434,0.13317,0.039401,0.40561,-11.04,32.52,20.28
3.3097,-8.4446,-1.7979,0.085827,0.18631,0.44104,-10.56,32.82,20.22
3.3097,-10.025,-1.9613,0.072998,0.46426,0.44624,-10.08,33.18,19.98
3.4596,-10.692,-1.9068,0.081856,0.96303,0.44563,-9.9,33.36,19.86
4.2223,-11.591,-1.7298,0.14813,1.2058,0.45357,-9.84,33.72,19.62
4.7535,-12.04,-1.6344,0.20281,1.2171,0.43494,-10.08,33.84,19.32
4.8625,-12.0,-1.7298,0.2587,1.058,0.36896,-10.08,33.96,19.14
5.0531,-12.572,-1.6617,0.2865,0.8265,0.26603,-10.38,34.02,18.9
5.5162,-14.519,-1.1441,0.28588,0.52962,0.2416,-10.62,33.96,18.66
5.8704,-15.636,-0.91256,0.22419,0.26909,0.15333,-10.74,34.02,18.36
5.8295,-12.422,-1.2531,0.11729,-0.12248,-0.12095,-11.04,34.14,18.12
5.8023,-11.387,-1.1713,0.010996,-0.47067,-0.47953,-11.16,34.26,18.06
5.5707,-11.836,-0.76274,-0.092546,-0.83658,-0.8937,-11.4,34.14,17.94
4.7399,-13.157,0.14982,-0.20708,-1.1298,-1.2572,-12.0,34.2,17.94
4.1814,-13.116,0.44947,-0.32132,-1.212,-1.5547,-12.24,33.96,17.88
3.7047,-12.503,0.46309,-0.39279,-0.90469,-1.9258,-12.72,33.42,18.12
3.1191,-9.3572,0.23155,-0.3262,-0.68234,-2.1597,-13.02,33.12,18.06
2.8603,-7.9951,0.14982,-0.26298,-0.58215,-2.2568,-13.38,32.7,18.24
2.8603,-7.2733,-0.054481,-0.11026,-0.44929,-2.3818,-13.86,32.34,18.3
2.8603,-6.3471,-0.72188,0.089186,-0.54336,-2.5079,-15.12,31.32,18.6
3.0918,-6.3198,-0.89894,0.16005,-0.87659,-2.5119,-15.78,30.78,18.84
3.2144,-6.5105,-0.8717,0.13836,-1.3882,-2.4603,-16.38,30.18,18.96
2.7377,-7.7091,-0.44947,-0.069944,-2.04,-2.2721,-17.88,28.8,19.26
2.3563,-8.3901,-0.36775,-0.27794,-2.1371,-2.0592,-18.72,28.14,19.5
2.0158,-8.8941,-0.23155,-0.51191,-1.9468,-1.81,-19.32,27.48,19.62
1.3484,-9.6432,-0.20431,-0.69394,-1.5754,-1.5244,-20.64,25.98,20.1
1.0215,-9.5751,-0.19068,-0.82009,-1.0284,-1.1851,-21.42,25.44,20.16
0.98067,-9.221,-0.1362,-0.88973,-0.32345,-0.79718,-21.9,24.78,20.46
1.4165,-8.8124,0.054481,-0.87201,0.63744,-0.18418,-22.98,23.64,20.82
1.8387,-9.0848,0.12258,-0.77672,1.0253,0.23243,-23.34,23.28,21.0
2.1384,-9.5751,0.095342,-0.71105,1.1197,0.45662,-23.7,22.74,21.18
2.656,-10.474,-0.01362,-0.45662,1.1167,1.15,-23.88,22.2,21.18
3.1327,-10.542,-0.24517,-0.25168,0.94745,1.5663,-24.18,21.66,21.36
3.3097,-11.659,-0.10896,-0.063835,0.6524,1.9618,-24.36,21.42,21.36
3.732,-13.961,0.32689,0.17929,0.22358,2.6395,-24.18,21.12,21.6
3.8954,-12.381,0.31327,0.26664,0.15363,2.762,-23.94,21.06,21.6
4.0044,-10.147,-0.027241,0.57085,0.009163,2.7471,-23.82,21.12,21.9
3.9635,-8.8532,-0.47671,0.8097,-0.23457,2.4945,-23.64,21.12,21.9
3.4051,-8.322,-1.5119,1.015,-0.67745,2.2321,-22.86,21.9,22.14
3.1872,-9.6568,-1.7298,1.1377,-1.1735,2.0064,-22.56,22.32,22.02
3.228,-11.359,-1.362,1.0699,-1.4413,1.8134,-21.54,23.4,22.14
2.8603,-10.815,-0.83084,0.71624,-1.0394,1.5211,-20.82,24.06,22.14
2.3563,-9.3708,-0.57205,0.36713,-0.13653,1.3497,-20.04,24.84,22.26
2.152,-7.927,-0.8717,0.12492,0.82436,1.1689,-19.2,25.62,22.32
2.3699,-6.279,-1.757,0.0051924,1.5369,0.93554,-17.1,27.12,22.5
2.6968,-5.6661,-2.1248,0.0051924,1.825,0.73365,-16.08,27.9,22.5
3.0782,-5.7342,-1.6481,0.043677,1.7309,0.55131,-14.34,29.52,22.5
3.6775,-6.1292,-1.3757,0.06353,1.4676,0.49969,-13.62,30.24,22.38
3.8273,-6.4833,-1.3212,0.067806,1.1087,0.53512,-12.9,30.78,22.26
4.018,-6.6876,-1.3893,0.067806,0.90744,0.57482,-12.24,31.56,22.14
3.8954,-6.9328,-1.4438,0.072388,0.4383,0.67317,-11.7,32.04,21.9
3.623,-7.8998,-1.7706,0.11576,0.28588,0.73793,-10.5,33.0,21.42
3.5549,-8.5127,-1.7298,0.16921,0.20922,0.76969,-10.14,33.42,21.12
3.6775,-8.7306,-1.8387,0.23915,0.20403,0.76786,-9.72,33.9,21.06
4.0316,-9.8066,-1.6344,0.33139,0.19884,0.82375,-9.36,34.62,20.34
4.3177,-10.883,-1.6617,0.36774,0.17257,0.89461,-9.12,34.98,20.22
4.3177,-10.883,-1.6617,0.36377,0.18448,0.89431,-9.12,34.98,20.22
4.8761,-12.313,-0.96704,0.33231,0.2474,0.77397,-9.0,35.28,19.86
4.9306,-13.293,-0.8717,0.27428,0.3259,0.60048,-8.88,35.64,19.74
6.0338,-16.29,-0.53119,0.14447,0.32406,0.41081,-8.34,36.3,19.32
6.7421,-15.159,-0.36775,0.031154,0.16829,0.071471,-8.04,36.6,19.02
6.4424,-13.116,-0.36775,-0.10996,-0.068417,-0.45112,-7.32,37.32,18.48
5.6933,-12.19,-0.12258,-0.20708,-0.31276,-1.0843,-6.54,37.92,18.06
4.8625,-12.503,0.12258,-0.25015,-0.65027,-1.7116,-6.06,38.28,17.88
4.5356,-12.98,0.29965,-0.26786,-0.99479,-2.2437,-5.76,38.4,17.82
4.0589,-13.13,0.42223,-0.28314,-1.1106,-2.6725,-5.94,38.58,17.88
3.5958,-12.422,0.39499,-0.29322,-0.85032,-3.1649,-6.6,38.46,17.76
3.3915,-10.501,0.16344,-0.22938,-0.76022,-3.4364,-7.62,38.28,17.7
2.9284,-8.7443,0.01362,-0.15058,-0.78741,-3.5458,-9.36,37.62,17.82
2.9011,-7.8998,-0.47671,-0.062003,-0.95173,-3.5134,-11.52,36.78,18.18
2.7922,-7.7227,-0.57205,-0.0064141,-1.317,-3.4618,-14.04,35.58,18.54
2.6696,-7.7091,-0.44947,-0.007025,-1.7055,-3.2733,-15.54,34.92,18.78
2.4925,-8.0905,-0.17706,-0.090713,-2.0256,-3.0287,-18.48,33.66,19.08
2.2201,-8.7034,-0.095342,-0.21625,-2.2361,-2.7724,-21.24,32.52,19.14
1.7706,-8.8941,-0.081722,-0.45357,-2.2122,-2.2413,-22.44,31.68,19.08
1.4029,-9.0575,-0.14982,-0.60018,-1.9386,-1.8262,-23.46,30.9,19.08
0.96704,-9.507,-0.068102,-0.72907,-1.4667,-1.4224,-25.08,29.58,19.74
0.99429,-9.2755,0.12258,-0.79382,-0.92363,-1.0162,-26.64,27.9,20.22
0.99429,-9.0031,0.28603,-0.81092,-0.35155,-0.59162,-27.06,27.18,20.58
1.3893,-8.8941,0.39499,-0.71349,0.29047,0.01069,-27.78,25.98,21.24
1.6072,-9.0575,0.47671,-0.54795,0.51191,0.42425,-28.02,25.5,21.66
2.3563,-9.7113,0.34051,-0.33659,0.55436,0.8491,-28.08,24.42,22.2
2.5742,-10.351,0.36775,-0.10751,0.46242,1.2288,-27.96,24.0,22.5
2.5606,-11.564,0.64016,0.10446,0.32132,1.6209,-27.9,23.04,22.98
3.1191,-13.552,0.88532,0.30207,0.21502,2.1533,-27.54,22.5,23.52
3.1054,-11.25,1.076,0.57727,0.25626,2.6096,-27.06,22.44,23.88
3.2144,-9.0303,0.74912,0.82589,0.27061,2.5965,-27.0,22.32,23.94
3.2825,-7.6002,-0.27241,1.1496,0.11484,2.4719,-26.46,22.68,24.3
2.9692,-8.9213,-0.89894,1.4465,-0.31887,2.3405,-25.98,23.46,24.3
2.7649,-9.9156,-1.185,1.6609,-0.78588,2.2856,-24.72,24.6,24.12
3.0101,-11.482,-1.5119,1.682,-1.102,2.2483,-24.12,25.26,24.12
3.2416,-12.177,-1.0896,1.5345,-1.1817,2.2284,-22.62,26.82,24.18
2.8058,-11.182,-0.50395,1.0131,-0.52321,2.1551,-20.4,28.68,24.12
2.0158,-9.507,-0.62654,0.62033,0.39798,1.9896,-19.38,29.52,24.24
1.5936,-7.5457,-1.362,0.34728,1.4215,1.7987,-17.16,31.2,24.06
2.2882,-6.2109,-2.0975,0.23885,2.2223,1.5757,-15.18,32.88,24.12
2.6968,-6.17,-2.3291,0.23366,2.4917,1.3961,-14.1,33.66,23.88
3.1872,-6.0202,-2.2746,0.26084,2.4761,1.2113,-12.42,34.98,23.46
3.8818,-6.5241,-1.6344,0.2248,2.2367,1.0348,-10.98,36.0,22.86
4.127,-7.1507,-1.4438,0.15394,1.8854,1.036,-10.44,36.54,22.68
4.4675,-9.0575,-1.471,0.041844,1.5189,1.0351,-9.54,37.38,21.9
4.0589,-10.134,-1.757,-0.041539,1.3189,1.0186,-9.0,37.86,21.18
4.1542,-10.774,-1.7706,-0.078496,1.3027,1.0027,-8.7,38.1,21.06
4.4402,-11.659,-1.7706,-0.063225,1.3583,0.97952,-8.52,38.4,20.4
4.9033,-12.217,-1.6481,0.044899,1.3543,0.91844,-8.34,38.94,19.68
5.2166,-12.286,-1.6617,0.11423,1.2248,0.86224,-8.22,39.06,19.26
5.6524,-12.081,-1.7706,0.16585,0.94287,0.71105,-7.98,39.42,18.72
5.598,-11.182,-1.58,0.19914,0.59284,0.46701,-7.5,39.66,18.3
5.6661,-13.062,-1.2395,0.19426,0.2025,0.24099,-7.02,39.84,17.94
6.3198,-13.593,-1.1577,0.11026,-0.40623,0.051007,-6.42,40.08,17.82
6.3198,-12.204,-1.185,-0.0051924,-0.84025,-0.20861,-6.36,40.14,17.76
5.8023,-11.536,-0.8717,-0.13011,-1.1881,-0.58368,-6.12,40.32,17.4
5.2166,-12.395,-0.17706,-0.29077,-1.3372,-1.0024,-5.64,40.44,17.28
4.699,-13.321,0.38137,-0.46731,-1.3732,-1.4059,-5.64,40.26,17.46
4.4947,-13.552,0.49033,-0.61361,-1.3332,-1.7685,-5.4,39.9,17.46
3.8682,-12.83,0.58567,-0.73884,-1.1466,-2.1362,-5.46,39.66,17.88
3.2553,-10.91,0.70826,-0.75564,-0.59529,-2.7266,-5.82,39.24,18.3
2.9556,-9.5479,0.46309,-0.65607,-0.24129,-3.0818,-6.06,38.76,18.42
2.8739,-8.1995,0.32689,-0.49755,-0.07758,-3.3646,-6.9,38.1,19.02
2.7377,-7.6683,-0.01362,-0.3372,-0.058643,-3.5216,-8.04,37.2,19.62
2.833,-7.6274,-0.21793,-0.18998,-0.24312,-3.5387,-8.82,36.72,19.92
3.3097,-8.2403,-0.39499,-0.10629,-0.70158,-3.4575,-10.56,35.64,20.58
3.3234,-9.1937,-0.16344,-0.14386,-1.5076,-3.1789,-12.78,34.5,20.82
3.0782,-9.793,0.054481,-0.28711,-1.8925,-2.9123,-13.92,33.9,21.06
2.4789,-10.134,0.19068,-0.48075,-2.0751,-2.6075,-16.26,32.7,20.88
1.8115,-10.351,0.040861,-0.66126,-2.0189,-2.2749,-18.48,31.44,21.18
1.2122,-10.42,0.10896,-0.79596,-1.7049,-1.9135,-20.58,30.12,21.24
0.91256,-10.311,0.1362,-0.88728,-1.2043,-1.5342,-21.48,29.46,21.3
0.96704,-10.025,0.24517,-0.85979,-0.24923,-0.93371,-23.22,28.2,21.6
1.2803,-9.7113,0.28603,-0.74373,0.28069,-0.47098,-24.36,26.94,21.78
1.7434,-9.5206,0.31327,-0.55344,0.5846,0.01069,-24.84,26.46,21.78
2.2474,-9.6432,0.095342,-0.29077,0.65332,0.48869,-25.56,25.38,22.2
2.656,-9.1529,-0.38137,0.018021,0.49602,0.905,-26.04,24.36,22.68
2.7786,-10.61,-0.29965,0.27733,0.22297,1.2877,-26.22,23.76,23.34
2.9692,-10.964,-0.20431,0.55833,-0.20861,1.9835,-26.28,23.52,23.46
2.9965,-9.4389,-0.31327,0.66401,-0.3207,2.2532,-26.34,23.34,23.82
2.833,-8.4038,-0.70826,0.7871,-0.3656,2.3564,-26.16,23.52,24.06
2.7377,-8.1722,-0.92618,0.94379,-0.34789,2.3418,-25.92,23.7,24.18
2.9965,-8.54,-1.4165,1.0883,-0.38362,2.2852,-25.38,24.36,24.42
3.2825,-9.6432,-1.6617,1.1787,-0.52809,2.1787,-24.54,25.02,24.48
3.228,-10.27,-1.5391,1.1442,-0.67348,2.0049,-23.4,26.28,24.48
2.9692,-10.447,-1.2531,0.99021,-0.49786,1.89,-22.62,26.94,24.54
2.5879,-10.215,-0.95342,0.75808,-0.059559,1.7581,-20.94,28.44,24.6
2.4517,-9.3436,-0.95342,0.52137,0.52443,1.6423,-20.04,29.04,24.66
2.3155,-7.8045,-1.2395,0.34514,1.1588,1.4777,-18.06,30.54,24.6
2.8739,-6.6331,-1.6481,0.27061,1.6444,1.3213,-16.38,31.74,24.6
3.1872,-6.5378,-1.58,0.26603,1.923,1.0742,-14.88,33.0,24.42
3.4187,-6.5786,-1.5663,0.27917,1.908,1.0033,-14.1,33.6,24.3
3.9771,-6.9191,-1.8387,0.31826,1.5437,0.87934,-13.02,34.62,23.94
4.2495,-7.4095,-1.9886,0.33506,1.1212,0.87751,-12.48,35.04,23.7
4.4402,-8.4446,-2.0158,0.30818,0.76847,0.91447,-11.52,35.7,23.4
4.6037,-9.2074,-2.5334,0.26603,0.53481,0.87751,-10.98,36.48,22.86
4.6445,-9.7658,-2.7649,0.19212,0.39156,0.7364,-10.44,37.08,22.32
4.6445,-10.338,-2.6696,0.14966,0.4948,0.66432,-10.26,37.32,22.02
4.9033,-11.986,-2.3836,0.096822,0.73823,0.62583,-10.08,37.68,21.6
5.0668,-12.313,-2.3018,0.042455,0.9893,0.56841,-9.48,38.1,21.24
5.5026,-12.245,-1.9613,0.021686,1.1121,0.45632,-9.3,38.22,21.18
5.5162,-12.34,-1.9886,0.019242,1.1839,0.28253,-8.82,38.46,21.0
6.4016,-14.914,-1.3212,0.010385,1.077,0.20556,-8.58,38.94,21.12
6.7285,-14.901,-1.2395,-0.055589,0.76267,0.053756,-8.28,39.12,21.06
6.7966,-11.141,-1.2667,-0.11545,0.31612,-0.1909,-8.16,39.0,21.18
6.2654,-10.12,-1.3212,-0.16432,-0.22144,-0.61148,-8.1,39.12,21.18
5.5435,-10.842,-0.99429,-0.21014,-0.72724,-1.0595,-8.04,39.12,21.42
4.9987,-11.795,-0.64016,-0.29108,-1.1044,-1.3885,-7.98,39.06,21.72
4.522,-12.49,0.29965,-0.40287,-1.2856,-1.6182,-7.86,38.88,21.96
4.0589,-11.986,0.39499,-0.50488,-1.2156,-1.7978,-7.86,38.7,22.2
3.4459,-10.488,0.38137,-0.58582,-0.75442,-2.0641,-7.86,38.58,22.38
3.1054,-9.507,0.23155,-0.51282,-0.3934,-2.2507,-7.86,38.22,22.56
2.7377,-7.3005,-0.1362,-0.40989,-0.16341,-2.4248,-8.16,37.74,22.8
2.833,-6.8102,-0.23155,-0.29108,-0.13775,-2.551,-8.28,37.32,22.98
3.051,-6.9328,-0.24517,-0.21808,-0.34147,-2.5574,-9.0,36.36,22.98
3.1191,-7.1915,-0.36775,-0.16005,-0.71471,-2.5067,-9.36,36.0,22.86
3.0782,-7.4776,-0.36775,-0.15333,-1.1729,-2.4248,-9.9,35.52,22.68
2.7241,-7.927,-0.12258,-0.24771,-1.6777,-2.1606,-10.98,34.5,22.44
2.3563,-8.5127,-0.081722,-0.33414,-1.7984,-1.9364,-11.64,33.96,22.2
2.0703,-8.8941,-0.095342,-0.41997,-1.7022,-1.642,-12.96,32.94,21.54
1.5527,-9.5751,-0.12258,-0.53237,-1.2092,-1.1341,-13.56,32.4,21.3
1.4846,-9.7113,-0.28603,-0.56597,-0.74709,-0.75931,-14.34,31.74,20.94
1.5391,-9.6704,-0.29965,-0.57391,-0.2193,-0.36011,-15.0,31.26,20.7
1.8387,-10.065,-0.21793,-0.54672,0.26084,0.019853,-16.14,30.12,20.1
2.1929,-10.637,-0.24517,-0.48258,0.58918,0.39248,-16.68,29.7,19.68
2.5606,-11.196,-0.29965,-0.39462,0.73182,0.75381,-17.22,29.16,19.5
2.9965,-11.278,-0.47671,-0.19761,0.7086,1.2245,-18.0,28.32,19.26
3.2008,-12.272,-0.32689,-0.094379,0.56994,1.5754,-18.3,27.9,19.02
3.514,-13.28,-0.027241,0.021991,0.4945,1.9306,-18.48,27.66,18.96
3.2825,-11.087,-0.24517,0.15455,0.54184,2.1102,-18.78,27.12,18.72
3.2825,-8.1858,-0.64016,0.30849,0.55772,2.1148,-18.72,26.88,18.84
3.337,-6.8919,-1.5663,0.63866,0.24954,1.9108,-18.54,26.7,19.02
3.0918,-7.927,-1.866,0.73304,0.03879,1.8543,-18.42,26.64,18.84
3.2008,-9.4389,-1.9341,0.89522,-0.58368,1.792,-18.18,26.82,18.9
3.2825,-10.42,-1.8387,0.88301,-0.70127,1.7724,-17.88,26.94,18.9
2.9148,-10.774,-0.99429,0.6802,-0.50824,1.7269,-17.16,27.54,18.9
2.547,-9.6977,-0.84446,0.43982,0.085827,1.6866,-16.62,27.78,19.08
2.2474,-7.9951,-1.1577,0.19456,1.2425,1.5721,-15.54,28.38,18.84
2.9284,-5.7205,-1.9068,0.15547,1.6579,1.4154,-15.0,28.8,18.84
3.0782,-5.2302,-1.9886,0.15455,1.7083,1.3381,-14.28,29.22,18.84
3.2689,-4.985,-1.866,0.19792,1.6032,1.2257,-13.62,29.7,18.72
4.0044,-5.7614,-1.7025,0.22205,1.1442,1.1087,-12.3,30.48,18.36
4.2632,-6.5105,-1.6617,0.20983,0.70769,1.077,-11.82,31.08,18.24
4.4266,-7.2869,-1.5936,0.15119,0.37599,1.0739,-11.28,31.44,18.06
4.5083,-9.6977,-1.5391,0.063835,0.27825,1.0754,-10.08,32.46,17.88
4.3177,-10.351,-1.471,0.014661,0.49236,1.0177,-9.6,32.88,17.7
4.1951,-10.515,-1.4574,0.020159,0.89828,0.90958,-9.06,33.18,17.52
4.7535,-10.842,-1.7706,0.045509,1.2553,0.7532,-8.46,33.78,17.28
5.2438,-11.482,-1.7162,0.10934,1.3628,0.62278,-8.16,34.08,16.92
5.7069,-12.04,-1.4574,0.17898,1.2792,0.46701,-7.92,34.5,16.8
5.9249,-11.836,-1.3348,0.26389,0.8769,0.19151,-7.74,35.16,16.68
5.8976,-12.122,-1.3757,0.31551,0.4777,-0.0015272,-7.74,35.28,16.62
6.0474,-13.838,-0.96704,0.32956,0.09896,-0.10324,-7.62,35.46,16.38
6.4288,-14.288,-0.84446,0.31979,-0.19212,-0.18631,-7.74,35.76,16.38
6.0611,-11.223,-1.1577,0.27886,-0.55803,-0.33842,-7.68,35.94,16.32
5.7478,-9.8066,-1.2258,0.23488,-0.97586,-0.65546,-7.92,36.12,16.32
5.0395,-10.624,-0.64016,0.15485,-1.3576,-1.1811,-8.28,36.24,15.96
4.7944,-11.713,-0.20431,-0.0039706,-1.7419,-1.4068,-8.52,36.18,15.9
4.5356,-12.245,0.01362,-0.14752,-1.763,-1.6105,-8.82,36.18,15.72
3.8273,-12.149,0.35413,-0.21411,-1.6826,-1.6979,-9.18,36.12,15.6
3.4459,-10.883,0.31327,-0.34453,-1.2043,-1.9545,-10.32,35.88,15.78
3.0237,-9.398,0.32689,-0.35033,-0.85704,-2.1921,-10.92,35.64,15.72
2.656,-8.3629,0.027241,-0.30207,-0.5452,-2.3726,-11.58,35.34,15.6
2.8467,-7.2869,-0.29965,-0.23824,-0.43433,-2.5058,-13.2,34.92,15.84
3.0918,-7.4231,-0.38137,-0.18173,-0.51038,-2.5583,-14.22,34.32,16.2
3.1327,-7.6683,-0.32689,-0.1686,-0.78252,-2.5788,-15.24,33.78,16.38
3.1599,-7.8862,-0.31327,-0.24312,-1.3326,-2.4917,-16.2,33.18,16.44
2.5742,-9.3844,-0.027241,-0.36438,-1.5904,-2.3802,-18.24,31.5,16.74
2.4108,-9.8339,0.01362,-0.50335,-1.6561,-2.2055,-19.44,30.72,17.04
2.0839,-10.283,-0.01362,-0.72021,-1.3726,-1.8274,-20.46,29.76,17.4
1.7025,-10.542,0.068102,-0.76877,-1.1997,-1.6863,-22.5,27.84,18.18
1.6617,-10.447,0.10896,-0.84849,-0.53573,-1.2034,-23.4,26.82,18.66
1.6344,-10.256,0.095342,-0.82345,-0.070555,-0.84208,-24.18,25.92,18.96
1.757,-10.283,0.12258,-0.74862,0.27642,-0.44074,-24.78,24.78,19.38
2.3699,-10.678,0.12258,-0.61514,0.44227,-0.016188,-25.86,22.62,20.28
2.4517,-10.665,0.10896,-0.35125,0.45204,0.65118,-26.34,21.54,20.64
2.6287,-10.474,0.054481,-0.15608,0.33689,1.0739,-26.82,19.68,21.24
3.0782,-12.149,0.28603,0.0281,0.1628,1.532,-26.88,19.02,21.6
3.0782,-12.503,0.44947,0.21625,0.082467,1.9383,-26.76,18.42,22.08
3.1735,-8.7034,0.040861,0.42364,0.078191,2.1713,-26.52,17.64,22.56
3.3778,-7.5048,-0.19068,0.63683,-0.0067195,2.2156,-26.28,17.34,22.98
3.3234,-6.5378,-0.70826,1.0122,-0.42577,2.022,-26.04,17.1,23.28
2.6696,-8.1041,-1.5119,1.0892,-0.61606,1.9597,-25.26,17.1,23.94
2.6151,-9.5615,-1.5119,1.1955,-1.0617,1.8503,-24.66,17.28,24.12
2.833,-10.379,-1.3484,1.077,-1.0721,1.8308,-23.94,17.52,24.42
2.4653,-10.42,-0.76274,0.84422,-0.71471,1.8479,-22.62,18.54,25.08
2.2746,-9.3299,-0.62654,0.57116,-0.000611,1.85,-21.72,18.96,25.26
1.9886,-6.4152,-1.4438,0.35186,0.89614,1.8011,-20.82,19.62,25.5
2.547,-5.6661,-1.8932,0.24343,1.8048,1.5937,-18.84,21.18,26.04
2.8739,-5.3937,-1.9886,0.25931,1.89,1.4261,-17.82,21.84,26.16
2.9284,-5.4481,-1.9613,0.27978,1.7089,1.3158,-17.04,22.5,26.28
4.0452,-6.6059,-1.6753,0.27,1.3885,1.2373,-15.12,23.82,26.64
4.3858,-7.3822,-1.8115,0.23121,0.90103,1.1918,-14.28,24.42,26.64
4.5628,-8.3629,-1.9068,0.15913,0.46731,1.1374,-13.26,25.02,26.52
4.3585,-9.8884,-1.9477,0.047953,0.33628,1.0718,-11.76,26.04,26.22
4.2359,-10.229,-2.1248,-0.049786,0.67837,0.9276,-11.1,26.46,26.04
3.9635,-10.583,-2.1248,-0.064141,0.88423,0.8546,-10.62,26.76,25.86
4.2087,-10.746,-2.0839,-0.043066,1.4135,0.63225,-9.96,27.0,25.5
5.2575,-11.427,-1.8796,0.010079,1.474,0.53542,-9.3,27.42,24.9
5.5162,-11.564,-1.7025,0.079107,1.273,0.38759,-9.06,27.6,24.6
5.5707,-11.128,-1.5936,0.099876,1.1753,0.32223,-8.76,27.66,24.18
5.4754,-11.782,-1.362,0.13592,0.95264,0.17807,-8.64,27.72,24.0
5.6661,-12.776,-1.0351,0.14783,0.69303,0.069639,-8.58,27.72,23.64
6.2517,-13.348,-0.76274,0.11973,0.33109,0.013439,-8.46,27.6,23.28
6.3062,-11.591,-0.89894,0.08094,-0.0088575,-0.1179,-8.34,27.48,22.92
6.4016,-10.964,-0.78998,0.026267,-0.48655,-0.39218,-8.34,27.42,22.8
5.6661,-12.367,-0.28603,-0.075442,-1.1255,-0.99174,-8.34,27.06,22.5
5.1349,-12.83,0.23155,-0.17837,-1.3564,-1.3485,-8.4,26.94,22.5
4.8216,-12.98,0.53119,-0.26359,-1.4465,-1.6576,-8.34,26.52,22.38
4.0316,-11.795,0.76274,-0.30085,-1.4044,-1.9804,-8.46,25.86,22.56
3.5822,-10.365,0.53119,-0.26848,-1.2226,-2.2752,-8.7,25.5,22.56
3.1191,-8.9077,0.14982,-0.16402,-1.0275,-2.5482,-8.82,25.08,22.68
2.8603,-6.96,-0.24517,0.0033598,-0.91049,-2.7672,-9.36,23.64,22.74
2.9011,-6.6467,-0.65378,0.083994,-1.0684,-2.8289,-9.54,22.98,22.92
3.1054,-6.6604,-0.84446,0.13317,-1.4621,-2.8191,-9.66,22.26,23.46
2.833,-7.6546,-0.70826,0.090408,-1.8967,-2.7321,-10.08,20.88,24.3
2.6968,-8.4855,-0.34051,-0.053145,-2.2144,-2.5461,-10.26,20.16,24.78
2.4108,-9.3163,-0.19068,-0.33964,-2.2901,-2.1304,-10.44,18.96,25.8
1.8115,-10.76,-0.10896,-0.54123,-2.0598,-1.7501,-10.38,18.48,26.16
1.4165,-10.964,-0.21793,-0.62889,-1.8369,-1.5626,-10.26,17.94,26.52
1.3076,-10.91,-0.01362,-0.74648,-1.2599,-1.2089,-10.14,17.76,26.94
1.4982,-11.005,0.24517,-0.82284,-0.26939,-0.67959,-9.84,17.16,27.84
1.7979,-11.032,0.44947,-0.77274,0.22999,-0.38485,-9.48,16.92,28.2
2.0158,-10.733,0.43585,-0.65821,0.54764,-0.12217,-9.18,16.68,28.62
2.3155,-10.42,0.20431,-0.3711,0.6576,0.39279,-8.22,16.62,29.16
2.6015,-10.106,0.054481,-0.25076,0.58704,0.56749,-7.86,16.62,29.52
2.8058,-9.9565,0.16344,-0.052534,0.31704,0.90988,-7.38,16.68,29.58
2.2882,-11.414,0.50395,0.18845,-0.14447,1.4639,-6.54,16.92,29.58
1.9341,-10.447,0.28603,0.31765,-0.18326,1.7642,-6.12,17.16,29.7
1.2531,-8.8941,-0.027241,0.50213,-0.03879,1.8601,-5.22,17.4,29.94
0.83084,-7.8589,-1.185,0.57544,0.078191,1.8228,-4.8,17.58,30.06
1.3893,-8.7034,-1.1032,0.68936,0.22144,1.8213,-4.38,17.76,30.12
1.7298,-10.202,-1.1986,0.69822,0.27336,1.8366,-4.02,17.76,30.18
2.1248,-12.149,-0.89894,0.58185,0.56719,1.9539,-3.24,18.3,30.06
2.3427,-11.441,-0.68102,0.42791,0.93798,2.0296,-2.82,18.54,30.0
2.438,-9.9292,-0.69464,0.33903,1.3537,2.0217,-2.22,18.78,30.0
3.1872,-7.0553,-1.5119,0.31979,1.7828,1.843,-1.26,19.62,30.0
3.2144,-5.8976,-1.866,0.37813,1.7171,1.6768,-0.78,19.98,29.76
3.3097,-5.2166,-1.9341,0.42211,1.3772,1.576,-0.36,20.46,29.76
3.7456,-5.5026,-1.7434,0.43097,0.86896,1.4817,0.72,21.3,29.52
3.8137,-5.6933,-1.757,0.39462,0.37141,1.397,1.2,21.84,29.28
3.7728,-6.1836,-1.6208,0.33445,0.094684,1.3479,1.62,22.32,29.04
4.0316,-8.4038,-1.6208,0.19242,0.016188,1.3399,2.28,23.16,28.5
3.9771,-9.7794,-1.5391,0.10629,0.2587,1.343,2.64,23.58,28.2
4.0589,-10.351,-1.4982,0.057116,0.74831,1.2657,3.0,24.12,27.96
4.2495,-10.351,-1.5391,0.062614,1.3237,1.1383,3.6,25.02,27.48
4.699,-10.855,-1.7162,0.0956,1.7346,1.0455,3.84,25.38,27.18
5.3664,-11.536,-1.7298,0.15974,1.8091,0.93646,3.84,25.8,26.76
6.3335,-11.455,-1.4982,0.24618,1.6209,0.71624,4.02,26.64,26.28
6.6059,-11.278,-1.5119,0.37171,0.8656,0.48778,4.08,26.94,26.04
6.3607,-11.891,-1.5119,0.45021,-0.074526,0.17654,4.14,27.24,25.68
6.3607,-11.891,-1.5119,0.42822,-0.36713,0.12156,4.14,27.24,25.68
6.851,-15.541,-0.91256,0.37538,-0.82772,-0.047342,4.02,27.6,25.62
6.0883,-12.054,-1.1986,0.25809,-1.1894,-0.37782,4.02,28.08,24.9
5.7069,-12.027,-1.0215,0.12095,-1.4138,-0.89309,4.02,28.38,24.6
4.5764,-12.858,-0.38137,-0.096211,-1.5232,-1.6182,3.78,28.86,24.18
4.2087,-12.871,-0.19068,-0.27214,-1.5259,-1.9694,3.42,29.22,24.0
3.732,-12.558,0.16344,-0.4047,-1.3741,-2.2281,3.12,29.28,23.82
3.3506,-11.673,0.20431,-0.50488,-1.0672,-2.4465,2.76,29.46,23.7
3.0237,-9.3163,0.095342,-0.52901,-0.6973,-2.6402,2.46,29.16,23.64
2.7922,-8.0905,-0.040861,-0.45051,-0.42974,-2.7987,1.98,29.1,23.64
2.7649,-7.3958,-0.095342,-0.3711,-0.25351,-2.9135,1.62,28.86,23.46
2.9965,-7.3822,-0.21793,-0.24221,-0.42974,-2.9942,0.66,28.62,23.7
3.0101,-7.4912,-0.28603,-0.19945,-0.80115,-2.9847,0.18,28.44,23.7
2.9011,-7.9951,-0.32689,-0.219,-1.1848,-2.9135,-1.08,28.08,23.64
2.8194,-8.7306,-0.25879,-0.29963,-1.4884,-2.7907,-2.7,27.9,23.28
2.6287,-9.9565,-0.1362,-0.44104,-1.6991,-2.6267,-4.56,27.6,22.86
2.0294,-10.597,0.027241,-0.67989,-1.6863,-2.2642,-6.72,27.72,22.14
1.58,-10.379,-0.054481,-0.81917,-1.4096,-1.9227,-7.8,27.78,21.84
1.2258,-10.243,-0.027241,-0.89675,-0.98502,-1.5275,-8.82,27.78,21.6
1.2122,-9.9292,0.027241,-0.89919,-0.52321,-1.1313,-10.68,27.48,21.18
1.3212,-9.8475,0.095342,-0.82314,-0.094073,-0.69425,-11.64,27.18,21.12
1.471,-9.902,0.17706,-0.70647,0.25045,-0.23732,-12.42,27.0,20.94
2.152,-10.12,-0.095342,-0.4331,0.46059,0.44227,-13.98,26.46,20.82
2.3972,-9.9156,-0.23155,-0.32284,0.44532,0.64813,-14.58,26.1,20.88
2.5061,-10.12,-0.23155,-0.043066,0.23396,1.2364,-15.18,25.86,20.94
2.9284,-12.381,-0.12258,0.10476,0.11668,1.6994,-15.96,25.2,21.06
3.0237,-11.359,0.054481,0.2025,0.10812,1.9645,-16.32,24.84,21.3
2.833,-9.8066,0.040861,0.32284,0.15058,2.0421,-16.44,24.6,21.54
2.5606,-8.1586,-0.36775,0.50183,0.2193,2.0152,-16.5,23.94,22.32
2.6015,-8.5127,-0.68102,0.84299,0.1124,2.0256,-16.44,23.76,22.68
2.547,-10.134,-1.1169,1.0146,-0.018021,2.0812,-16.32,23.64,23.1
2.942,-11.768,-1.2667,1.0837,-0.04948,2.1319,-15.84,23.7,23.76
3.0237,-11.482,-1.076,1.0012,0.059254,2.1591,-15.48,23.94,24.0
2.9284,-10.243,-0.84446,0.81031,0.3653,2.142,-15.0,24.18,24.42
2.5334,-6.8919,-1.2803,0.52626,0.9279,1.9737,-13.62,25.02,24.78
2.3836,-5.8704,-1.7843,0.42241,1.1408,1.8231,-12.84,25.44,24.96
2.438,-5.4345,-2.2474,0.39065,1.127,1.7187,-12.0,25.86,24.96
3.0918,-5.8704,-2.2882,0.35216,0.94195,1.6038,-10.38,27.06,25.32
3.4187,-6.2109,-2.261,0.28466,0.82864,1.5531,-9.48,27.66,25.38
3.7456,-6.9191,-2.1929,0.18784,0.7816,1.5024,-8.58,28.38,25.38
4.2495,-8.6353,-1.9886,0.070555,0.79871,1.4853,-6.66,29.7,25.26
4.522,-9.3844,-1.7162,-0.10324,1.1506,1.4603,-5.76,30.18,25.14
4.6582,-9.8475,-1.58,-0.17501,1.4783,1.3515,-4.86,30.84,24.96
5.3528,-10.637,-1.4846,-0.20097,1.7681,1.212,-3.12,31.74,24.84
5.5435,-10.842,-1.3348,-0.16463,1.9132,1.0666,-2.52,32.1,24.78
5.9249,-11.046,-1.1169,-0.072082,1.8888,0.92607,-1.92,32.4,24.54
6.3198,-11.223,-1.0079,0.025962,1.6817,0.76205,-1.44,32.7,24.36
6.7421,-10.556,-0.83084,0.12339,1.3198,0.51893,-0.84,33.24,24.12
6.2654,-11.577,-0.83084,0.20189,0.88759,0.2419,-0.54,33.48,24.12
6.4152,-13.157,-0.6674,0.25626,0.3937,0.094073,-0.36,33.66,23.94
7.0553,-13.539,-0.51757,0.23213,-0.15882,-0.061697,0.06,33.96,23.52
6.5786,-12.217,-0.70826,0.17807,-0.52382,-0.3262,0.06,34.02,23.34
6.1292,-11.863,-0.6674,0.12187,-0.83414,-0.71471,-0.06,34.08,22.98
5.2166,-12.558,-0.20431,0.019548,-1.1695,-1.3155,-0.42,34.44,22.74
4.8897,-12.476,0.054481,-0.025351,-1.2889,-1.482,-0.78,34.44,22.62
4.7399,-12.395,0.14982,-0.10629,-1.4539,-1.7565,-1.32,34.5,22.5
3.8546,-11.237,0.28603,-0.19761,-1.3201,-2.1646,-2.22,34.38,22.26
3.3778,-9.8475,0.14982,-0.19303,-1.102,-2.4367,-2.88,34.38,22.26
3.0237,-8.6081,-0.054481,-0.13378,-0.92546,-2.6689,-3.36,34.32,22.44
2.9284,-7.5184,-0.49033,-0.076664,-0.88911,-2.8885,-4.26,34.2,22.74
2.9556,-7.4503,-0.6674,-0.012828,-0.96639,-2.9288,-4.68,34.08,22.92
3.0782,-7.6274,-0.78998,0.0085521,-1.3143,-2.9279,-5.28,33.96,23.22
2.9011,-8.6353,-0.62654,-0.083078,-1.9618,-2.8008,-6.48,33.48,23.58
2.5879,-9.3163,-0.51757,-0.22602,-2.1157,-2.6267,-7.14,33.12,23.7
2.4517,-9.7249,-0.42223,-0.41172,-2.1475,-2.4218,-7.74,32.82,23.88
1.7162,-10.42,-0.21793,-0.67104,-1.8766,-1.9667,-9.3,31.92,24.12
1.3212,-10.542,-0.1362,-0.81092,-1.4468,-1.6173,-10.02,31.56,24.12
1.1169,-10.569,-0.16344,-0.88637,-0.87537,-1.2559,-10.5,31.2,24.24
0.61292,-10.256,-0.095342,-0.92454,-0.26145,-0.84605,-11.64,30.12,24.24
0.28603,-9.902,0.25879,-0.92271,0.27672,-0.40256,-12.0,29.52,24.18
0.28603,-9.8475,0.51757,-0.85216,0.75961,0.068722,-12.42,28.86,24.06
1.4438,-10.311,0.21793,-0.61056,1.146,0.75167,-13.56,27.48,23.88
1.866,-10.42,0.14982,-0.39218,1.0693,1.146,-14.1,26.82,23.7
1.7298,-11.319,0.35413,-0.19395,0.8546,1.6148,-14.52,26.04,23.52
1.5527,-12.476,0.88532,-0.034514,0.68661,2.1221,-15.12,24.72,23.52
1.5527,-12.476,0.88532,0.12431,0.62553,2.408,-15.12,24.72,23.52
1.7843,-8.6217,0.42223,0.34606,0.52015,2.4942,-15.24,23.4,23.94
2.3836,-8.9349,-0.58567,0.80176,0.0018326,2.4847,-14.88,22.44,24.3
2.5061,-11.632,-0.84446,1.0611,-0.50855,2.4725,-14.22,21.48,24.72
2.6423,-12.354,-0.9398,1.23,-0.91049,2.4661,-13.68,21.3,25.02
2.7649,-12.667,-0.81722,1.2022,-0.99388,2.3921,-13.32,21.36,25.14
3.0646,-11.863,-0.35413,1.065,-0.80298,2.255,-12.24,21.54,25.62
2.6968,-9.7658,-0.54481,0.88148,-0.36621,2.0427,-10.5,22.02,26.22
2.3836,-7.355,-1.2531,0.73365,0.19212,1.7514,-8.82,22.62,26.64
2.3427,-5.7069,-2.0703,0.66768,0.68111,1.5177,-7.08,23.4,26.82
2.7377,-5.7069,-2.1929,0.61087,0.75595,1.2627,-5.58,24.24,26.82
2.9148,-5.8976,-1.8796,0.52473,0.76694,1.1267,-3.96,25.14,26.7
3.0646,-6.5105,-1.7298,0.41905,0.8488,1.0553,-2.58,25.92,26.82
3.2144,-7.5321,-1.9341,0.30421,0.9389,1.0681,-1.26,26.64,26.58
3.3642,-8.5127,-1.9205,0.1631,1.0635,1.1353,-0.36,27.06,26.58
3.4868,-9.3163,-1.7979,0.039401,1.2999,1.1655,-0.06,27.24,26.34
3.5413,-10.106,-1.6208,-0.053145,1.6267,1.1292,0.42,27.78,26.22
3.909,-10.556,-1.5936,-0.087965,1.9761,1.0208,0.66,27.9,26.34
4.4539,-10.869,-1.7162,-0.02474,2.1322,0.81948,0.84,27.9,26.46
5.3937,-11.7,-1.9341,0.090408,1.8958,0.71196,1.02,28.14,26.52
5.7614,-11.959,-1.9205,0.20678,1.4001,0.57482,1.02,28.26,26.64
5.8023,-11.891,-1.7843,0.30299,0.49663,0.30696,0.96,28.5,26.7
5.3119,-13.348,-1.2395,0.31124,0.26023,0.20097,0.96,28.68,26.82
5.6388,-15.541,-1.1169,0.2419,-0.1518,0.088575,1.02,28.8,26.76
5.8431,-15.663,-1.1441,0.13256,-0.24099,-0.026267,1.08,28.8,26.7
5.5162,-11.618,-1.7025,0.041233,-0.36194,-0.33842,1.2,29.04,26.34
5.2166,-10.637,-1.6072,-0.069333,-0.48839,-0.82558,1.14,29.22,25.86
4.5356,-11.319,-0.85808,-0.16188,-0.72449,-1.3167,1.08,29.16,25.38
4.3449,-11.605,-0.57205,-0.25504,-1.0681,-1.6802,0.9,29.04,24.3
4.0725,-11.632,-0.40861,-0.42913,-1.3592,-2.044,0.54,29.1,23.76
3.5685,-11.032,-0.16344,-0.53695,-1.2886,-2.1951,0.36,29.04,23.22
3.4187,-10.474,-0.040861,-0.60018,-1.0895,-2.3262,0.36,29.04,22.68
2.9284,-8.6081,-0.19068,-0.58521,-0.86071,-2.4838,-1.02,28.56,21.66
2.7377,-7.9679,-0.12258,-0.54092,-0.69272,-2.6493,-1.68,28.26,21.24
2.4925,-7.1779,-0.068102,-0.41966,-0.60476,-2.6337,-3.72,27.48,20.46
2.9011,-7.3414,-0.14982,-0.35552,-0.79229,-2.6026,-4.86,27.0,20.22
2.9829,-7.8045,-0.40861,-0.33414,-0.9557,-2.5757,-6.0,26.46,20.1
2.8058,-8.1586,-0.46309,-0.33811,-1.4337,-2.387,-7.26,25.8,20.04
2.7104,-9.1937,-0.32689,-0.41875,-1.6353,-2.2055,-9.72,24.6,20.1
2.5061,-10.42,-0.054481,-0.56688,-1.7205,-1.8735,-11.04,24.18,20.22
1.8932,-11.713,0.040861,-0.62553,-1.6548,-1.7275,-13.44,23.28,20.7
1.4165,-12.095,0.095342,-0.71868,-1.3827,-1.4047,-14.34,22.74,21.0
1.0896,-12.108,0.19068,-0.76786,-0.71319,-0.86651,-15.48,22.26,21.18
0.95342,-11.441,0.51757,-0.72418,-0.18112,-0.4948,-16.98,21.06,21.72
1.2803,-11.237,0.40861,-0.61911,0.26786,-0.13347,-17.7,20.58,21.9
1.6208,-10.924,0.28603,-0.45968,0.4945,0.2025,-18.3,20.1,22.08
1.7979,-10.379,-0.054481,-0.17929,0.41111,0.61361,-19.2,19.38,22.38
1.6753,-11.223,0.1362,-0.054367,0.24587,0.87934,-19.56,19.14,22.62
1.7706,-11.891,0.35413,0.016493,0.14813,1.2031,-19.86,18.78,22.68
2.2337,-11.141,0.43585,0.092852,0.1799,1.3796,-20.28,18.66,22.74
2.0975,-8.322,0.054481,0.23488,0.11515,1.4676,-20.82,18.3,23.28
2.2882,-7.8317,-0.50395,0.45754,-0.015882,1.4768,-20.7,18.12,23.52
2.3155,-8.9894,-1.0215,0.7196,-0.23243,1.463,-20.64,18.06,23.82
2.3836,-10.093,-1.3212,1.0507,-0.49694,1.4505,-20.64,18.12,24.0
2.5198,-10.42,-1.4029,1.1002,-0.47312,1.4807,-20.46,18.24,24.24
2.5742,-10.283,-1.3212,1.0412,-0.30177,1.5165,-20.22,18.6,24.36
2.3427,-7.6955,-1.2122,0.88423,0.050702,1.5195,-19.62,19.32,24.96
2.2882,-6.8919,-1.362,0.74862,0.44624,1.4587,-19.14,19.8,25.26
2.3155,-4.9306,-1.9886,0.56933,0.92241,1.3326,-18.06,20.94,25.56
2.4925,-4.7399,-2.1112,0.53359,0.95081,1.266,-17.52,21.54,25.62
2.5198,-5.1894,-2.0431,0.44227,0.87629,1.1435,-16.92,22.32,25.86
2.656,-5.9249,-2.2201,0.37904,0.8546,1.1347,-16.2,22.98,25.86
2.9011,-6.6059,-2.3155,0.3149,0.80573,1.2144,-15.6,23.82,25.74
3.909,-8.9894,-2.6696,0.2248,0.75106,1.3225,-14.58,25.14,25.56
4.413,-10.406,-2.833,0.10812,0.78007,1.3842,-14.28,25.86,25.38
4.5901,-10.474,-3.0237,0.067501,0.85735,1.3476,-13.68,26.4,25.44
4.699,-10.447,-3.2144,0.053451,1.0247,1.2199,-12.72,27.78,25.14
4.8216,-10.787,-3.3506,0.06017,1.1756,0.98441,-12.24,28.38,25.02
5.6252,-11.891,-3.1327,0.065057,1.0754,0.83353,-11.58,29.34,24.48
5.6797,-12.068,-2.833,0.024435,0.89095,0.65179,-11.52,29.7,24.48
5.3119,-11.863,-2.3155,-0.1237,0.88728,0.3091,-11.1,30.12,24.36
5.2438,-13.062,-1.6208,-0.16799,0.93096,0.19334,-10.92,30.48,24.12
5.5707,-14.86,-1.185,-0.31826,1.0938,0.041233,-10.92,30.72,23.94
5.9657,-14.165,-0.98067,-0.3882,1.2165,-0.034819,-10.92,30.84,24.0
6.1428,-12.762,-0.99429,-0.43035,1.0763,-0.26634,-10.98,30.9,24.0
6.1019,-10.569,-0.61292,-0.42913,0.66401,-0.60842,-11.16,30.96,24.24
5.7342,-11.278,-0.14982,-0.40042,-0.13286,-1.1328,-11.16,30.72,24.42
5.0531,-11.85,0.5993,-0.38637,-0.38271,-1.2682,-11.34,30.36,24.6
4.7671,-11.564,0.70826,-0.34606,-0.81886,-1.5015,-11.64,30.12,24.96
4.2087,-10.964,0.76274,-0.2416,-1.0366,-1.8158,-11.76,29.7,25.32
3.8546,-9.9156,0.81722,-0.13714,-0.95967,-2.0097,-11.76,29.46,25.56
3.3097,-7.7636,0.47671,-0.011301,-0.8769,-2.1667,-11.88,28.8,25.98
3.1191,-6.8238,0.21793,0.19517,-0.9728,-2.3072,-12.0,28.5,26.34
3.0646,-6.6331,-0.17706,0.25168,-1.0321,-2.3231,-12.0,27.96,26.64
3.1191,-6.7421,-0.43585,0.34911,-1.4029,-2.372,-11.94,27.54,26.88
3.3097,-7.3141,-0.54481,0.35369,-1.5983,-2.3686,-11.94,27.3,27.0
3.2553,-7.8589,-0.5993,0.31215,-2.0229,-2.3054,-12.0,26.82,27.06
3.0101,-8.9622,-0.50395,0.086437,-2.5238,-2.182,-11.94,26.64,27.0
2.2201,-10.624,-0.35413,-0.2251,-2.5693,-1.9206,-11.88,26.34,26.7
1.6072,-11.101,-0.47671,-0.43402,-2.2568,-1.6918,-11.88,26.22,26.46
1.2258,-11.509,-0.54481,-0.61117,-1.6863,-1.4041,-11.94,26.04,26.34
0.98067,-11.605,-0.50395,-0.67714,-1.3244,-1.2391,-11.94,25.86,26.22
0.7355,-11.25,-0.55843,-0.73273,-0.071471,-0.71135,-12.18,25.86,25.92
1.0624,-10.828,-0.47671,-0.68173,0.60995,-0.31337,-12.66,25.5,25.56
1.5527,-10.801,-0.47671,-0.5623,0.98594,0.10049,-12.96,25.38,25.26
2.0294,-10.733,-0.44947,-0.39951,1.131,0.59834,-13.5,25.08,25.08
2.1112,-12.19,-0.027241,-0.24771,1.0559,0.78313,-13.8,24.66,24.9
2.3155,-12.503,0.28603,-0.12584,0.91752,1.2147,-14.22,24.54,24.78
2.3427,-11.686,0.34051,0.09896,0.81398,1.5996,-14.46,24.36,24.78
2.4925,-7.8589,-0.20431,0.31612,0.60567,1.6829,-15.0,24.3,24.66
2.547,-7.0962,-0.76274,0.65454,0.22663,1.6167,-15.48,24.24,24.72
2.4244,-8.2539,-1.362,0.96272,-0.29841,1.5947,-15.96,24.24,24.72
2.4789,-9.9292,-1.4574,1.1759,-0.82039,1.5601,-15.9,24.42,24.9
2.4653,-10.529,-1.3757,1.2254,-1.1099,1.5415,-15.9,24.54,24.84
2.2474,-10.188,-0.70826,1.0009,-0.91996,1.5354,-15.66,25.08,24.96
1.9886,-9.0984,-0.51757,0.74648,-0.36499,1.5156,-15.36,25.44,25.02
1.6753,-7.8181,-1.5255,0.45693,0.7251,1.4022,-14.34,26.58,24.78
1.8524,-5.7342,-2.3155,0.40867,1.2969,1.2767,-13.92,27.0,24.78
2.1929,-5.6116,-2.4789,0.39065,1.4523,1.2141,-13.32,27.72,24.9
2.5742,-5.7614,-2.3836,0.34514,1.5183,1.1695,-12.72,28.26,24.78
3.228,-6.3743,-2.3018,0.30177,1.412,1.1707,-11.22,29.4,24.54
3.8273,-6.8647,-2.2746,0.22816,1.2233,1.2404,-10.74,30.06,24.36
4.4402,-7.8453,-2.1656,0.13592,1.0321,1.317,-9.96,30.72,24.18
4.808,-9.1801,-1.9613,0.015272,0.9331,1.3705,-8.7,31.74,23.82
4.8352,-10.379,-2.1929,-0.019242,1.018,1.3289,-8.34,32.16,23.52
4.9578,-10.869,-2.2065,-0.016188,1.2058,1.1933,-7.92,32.58,23.22
5.1894,-11.005,-2.2882,0.066584,1.321,1.0256,-7.56,33.12,22.98
6.1155,-11.25,-2.0703,0.17074,1.2007,0.8937,-7.02,33.78,22.5
6.5786,-11.536,-2.1112,0.25381,0.87629,0.73395,-7.02,34.08,22.2
6.4833,-11.509,-1.9613,0.30543,0.28863,0.36957,-6.84,34.5,21.78
5.993,-12.708,-1.58,0.27031,-0.0042761,0.15791,-6.72,34.74,21.42
6.2381,-14.615,-1.1305,0.17837,-0.16249,0.067195,-6.72,35.1,21.12
6.5241,-15.241,-1.0215,0.11729,-0.20189,0.022297,-6.6,35.4,20.88
6.1428,-11.455,-1.3076,-0.053145,-0.39004,-0.33842,-6.72,35.64,20.64
5.7069,-10.624,-1.2258,-0.16524,-0.58154,-0.79779,-6.9,35.76,20.58
4.7399,-12.204,-0.32689,-0.23702,-0.75992,-1.2535,-7.2,35.76,20.64
4.5764,-12.83,-0.32689,-0.32773,-0.93493,-1.5763,-7.92,35.88,20.58
4.2495,-12.83,0.21793,-0.40928,-1.0052,-1.8185,-8.22,35.7,20.88
3.8682,-12.272,0.29965,-0.49877,-0.78435,-2.0507,-8.64,35.4,21.0
3.4051,-10.011,0.24517,-0.48136,-0.52962,-2.1747,-9.48,34.62,21.48
3.1872,-8.5808,0.054481,-0.40531,-0.39156,-2.3054,-9.9,34.08,21.84
2.833,-7.2869,-0.12258,-0.23152,-0.41294,-2.4169,-10.86,32.88,22.74
2.833,-6.7012,-0.16344,-0.15119,-0.5736,-2.3976,-11.46,32.22,23.22
2.9011,-6.7012,-0.21793,-0.096211,-0.85735,-2.3399,-12.06,31.32,23.64
2.8739,-6.8919,-0.28603,-0.072388,-1.1817,-2.2584,-12.72,30.42,23.94
2.7377,-7.6683,-0.28603,-0.11668,-1.4621,-2.1655,-14.04,28.86,24.36
2.5606,-8.431,-0.20431,-0.18845,-1.642,-2.0403,-14.46,27.96,24.48
2.3427,-9.3027,-0.14982,-0.31643,-1.6784,-1.8625,-15.0,27.36,24.54
1.7298,-10.12,0.17706,-0.47403,-1.3668,-1.5146,-15.84,25.62,24.48
1.5391,-10.256,0.14982,-0.51252,-0.9954,-1.2196,-16.38,25.02,24.48
1.4846,-10.229,-0.054481,-0.49236,-0.62156,-0.85765,-16.74,24.3,24.42
1.7162,-10.406,-0.25879,-0.41386,-0.29474,-0.44288,-17.52,23.22,23.82
2.0022,-10.678,-0.19068,-0.30421,-0.048869,-0.039095,-17.7,22.74,23.58
2.2201,-11.019,-0.39499,-0.15608,0.17532,0.55253,-18.3,21.9,22.86
2.4108,-11.046,-0.64016,-0.080329,0.2474,0.87568,-18.42,21.54,22.5
2.4653,-12.381,-0.35413,-0.063835,0.24893,1.0449,-18.6,21.3,22.32
2.4789,-12.898,-0.19068,-0.0054978,0.35675,1.595,-18.66,21.12,22.2
2.6423,-11.414,-0.068102,0.073915,0.50671,1.8017,-18.72,20.7,22.14
2.8603,-7.9407,-0.47671,0.21594,0.55467,1.8732,-18.96,20.1,22.14
3.0373,-7.3277,-0.96704,0.47312,0.40256,1.7932,-18.78,19.8,22.32
2.9829,-7.8317,-1.5391,0.85888,-0.11606,1.6081,-18.84,19.74,22.56
2.8739,-10.093,-1.6753,0.93737,-0.31643,1.5605,-18.36,19.62,22.8
2.7649,-11.032,-1.4165,0.93371,-0.62675,1.4948,-18.12,19.74,22.92
2.656,-11.128,-1.0351,0.7196,-0.44227,1.507,-17.76,19.86,23.16
2.438,-9.9429,-0.70826,0.44166,0.055283,1.5223,-17.46,20.04,23.28
2.1248,-7.4095,-0.96704,0.22816,0.6973,1.4813,-16.5,20.46,23.64
2.2474,-5.9249,-1.6344,0.12034,1.4203,1.339,-16.2,20.76,23.64
2.4789,-4.9987,-2.0839,0.12095,1.518,1.2816,-15.18,21.42,24.0
2.7241,-5.1349,-1.9886,0.17165,1.4435,1.1512,-14.64,21.78,24.18
3.1872,-5.775,-2.0431,0.1628,1.292,1.1374,-14.1,22.14,24.12
3.9227,-6.9055,-1.8932,0.12462,1.1127,1.1325,-13.2,22.98,24.3
4.4402,-7.7908,-1.7706,0.036041,0.98074,1.1194,-12.78,23.46,24.24
4.6854,-8.6217,-1.9341,-0.05681,0.90042,1.091,-12.48,23.7,24.06
4.6854,-10.106,-2.152,-0.11057,0.9557,0.96517,-11.7,24.36,24.0
4.7535,-10.256,-2.3563,-0.080329,1.0996,0.81673,-11.4,24.6,24.0
4.9306,-10.338,-2.3291,0.01069,1.1802,0.68447,-11.1,24.78,24.0
5.7478,-10.964,-2.3427,0.12248,1.0605,0.59223,-10.86,25.02,23.94
5.9249,-11.319,-2.2882,0.19364,0.74648,0.49236,-10.8,25.08,23.76
5.7614,-11.373,-1.9613,0.23427,0.26359,0.28619,-10.62,25.44,23.82
5.4754,-12.694,-1.5391,0.20922,0.062614,0.13103,-10.74,25.5,23.76
5.7069,-14.574,-1.1986,0.13989,-0.013744,0.095906,-10.56,25.62,23.76
5.9385,-14.86,-1.0896,0.031765,0.0015272,0.039706,-10.44,25.74,23.76
5.6797,-11.7,-1.3757,-0.062614,-0.045509,-0.16524,-10.02,25.98,23.7
5.4481,-10.746,-1.2258,-0.17013,-0.16921,-0.51985,-9.9,25.92,23.64
4.8625,-11.945,-0.43585,-0.25626,-0.33811,-0.90011,-9.6,26.1,23.7
4.6309,-12.313,0.040861,-0.35736,-0.5284,-1.1561,-9.54,25.98,23.7
4.3585,-12.095,0.29965,-0.4383,-0.68417,-1.3711,-9.6,25.92,23.82
4.0316,-11.754,0.35413,-0.47678,-0.66157,-1.5528,-9.48,25.92,23.7
3.4459,-9.1801,0.17706,-0.41966,-0.39401,-1.8149,-9.48,25.74,24.06
3.2144,-7.6819,-0.054481,-0.28344,-0.28253,-2.007,-9.48,25.68,24.24
3.1191,-6.4969,-0.55843,-0.047953,-0.43555,-2.2321,-9.9,25.2,24.42
2.9556,-5.8023,-0.84446,0.046426,-0.68264,-2.2993,-9.96,24.96,24.84
3.1054,-6.0883,-0.84446,0.069944,-0.87109,-2.3277,-10.44,24.54,24.9
3.0373,-6.5922,-0.81722,0.050702,-1.5525,-2.3314,-10.62,24.3,25.08
2.7377,-7.8726,-0.64016,-0.069333,-1.8915,-2.2773,-11.28,23.7,25.5
2.4108,-8.9349,-0.36775,-0.22785,-2.0656,-2.1502,-11.52,23.34,25.68
1.9341,-10.338,-0.12258,-0.41447,-2.0073,-1.9105,-11.82,22.98,25.8
1.3212,-10.746,-0.10896,-0.63591,-1.4716,-1.3302,-12.12,22.5,25.98
1.2258,-10.733,-0.19068,-0.70372,-0.93126,-0.91538,-12.06,22.26,25.74
1.2258,-10.556,-0.19068,-0.69944,-0.29963,-0.52626,-12.36,21.96,25.74
1.5255,-10.515,-0.095342,-0.6243,0.2926,-0.11637,-12.78,21.36,25.44
1.9613,-10.964,-0.16344,-0.48594,0.65882,0.28069,-12.9,21.06,25.2
2.3836,-11.373,-0.19068,-0.31765,0.76389,0.68906,-12.84,20.94,25.02
2.8603,-11.509,-0.28603,-0.046731,0.62094,1.2202,-12.9,20.4,24.18
3.0918,-12.381,0.027241,0.076053,0.40897,1.5791,-12.84,20.16,23.94
3.2144,-12.844,0.095342,0.219,0.27153,1.8647,-12.9,20.04,23.82
3.1735,-10.215,-0.054481,0.34178,0.20433,1.9676,-12.84,19.68,23.16
3.0646,-8.145,-0.47671,0.51496,0.075442,1.8805,-12.84,19.44,22.92
2.8194,-6.7012,-0.92618,0.74739,-0.16799,1.6811,-12.9,19.38,22.74
2.4517,-7.9134,-1.4574,0.96181,-0.55253,1.4322,-12.72,19.26,22.5
2.5061,-10.297,-1.5119,1.0745,-0.91324,1.3931,-12.78,19.26,22.62
2.5742,-11.25,-1.4438,1.0024,-0.96669,1.3506,-12.54,19.32,22.62
2.6968,-11.741,-1.1441,0.91294,-0.81825,1.3375,-12.18,19.56,22.74
2.2065,-8.9349,-0.6674,0.54306,0.094684,1.2651,-11.4,20.1,22.8
2.1248,-6.7421,-1.3348,0.40256,0.79657,1.1771,-11.04,20.22,22.86
2.4789,-5.2302,-2.0703,0.39034,1.3247,0.93187,-10.02,20.7,23.1
2.4789,-5.0259,-2.4108,0.4383,1.2101,0.78771,-9.48,21.06,23.16
2.7649,-5.2847,-2.3155,0.44593,0.9502,0.72968,-9.06,21.3,23.16
2.8875,-5.3392,-2.2882,0.4444,0.81886,0.74067,-8.76,21.6,23.34
3.337,-5.993,-2.1929,0.35644,0.39737,0.84758,-8.16,22.02,23.28
3.7728,-7.7091,-2.2474,0.23488,0.20769,0.89553,-7.44,22.74,23.22
3.5822,-8.8941,-2.2065,0.11851,0.22083,0.95051,-7.08,22.92,23.16
3.3778,-9.8748,-2.261,0.022602,0.33323,0.95081,-6.36,23.46,22.86
3.4459,-10.351,-2.2882,-0.0067195,0.87293,0.82284,-6.06,23.58,22.74
3.732,-10.869,-2.3563,0.000916,1.0519,0.7703,-5.82,23.76,22.62
4.4402,-11.414,-2.1929,0.10446,1.3091,0.62033,-5.76,24.12,22.74
4.8897,-11.768,-2.0431,0.18326,1.2214,0.489,-5.7,24.24,22.68
5.0668,-11.891,-2.0294,0.22388,0.93462,0.34147,-5.76,24.42,22.62
5.0259,-13.661,-1.1169,0.23579,0.38332,0.1518,-6.0,24.72,22.8
5.5162,-15.473,-0.92618,0.20311,0.069028,0.18876,-6.06,24.72,22.86
5.8704,-15.759,-1.0351,0.17226,-0.072082,0.19395,-6.0,24.78,22.92
5.3528,-12.408,-1.3757,0.068111,-0.52076,-0.11179,-6.18,24.78,23.46
4.8761,-11.427,-1.0896,-0.072998,-0.67989,-0.50121,-6.0,24.78,23.64
4.5356,-11.577,-0.57205,-0.21961,-0.76358,-0.91385,-5.88,24.78,23.94
3.732,-11.945,-0.29965,-0.35675,-0.86254,-1.259,-5.94,24.54,24.42
3.4868,-11.918,-0.40861,-0.49327,-0.83933,-1.5262,-5.88,24.48,24.78
3.2416,-11.319,-0.28603,-0.59132,-0.60201,-1.7712,-5.94,24.3,24.96
3.0373,-10.188,-0.25879,-0.6411,-0.11851,-2.0916,-5.88,24.06,25.08
2.7241,-7.7364,-0.19068,-0.61117,0.057116,-2.2364,-5.82,23.64,25.74
2.547,-6.8374,-0.29965,-0.52901,0.084299,-2.3253,-5.88,23.28,26.22
2.547,-6.2654,-0.68102,-0.4215,-0.14661,-2.3387,-5.88,22.8,26.7
2.7786,-6.0338,-0.64016,-0.36194,-0.50274,-2.2852,-5.94,22.62,26.88
2.7377,-6.4833,-0.64016,-0.34667,-0.88789,-2.1631,-6.0,22.5,27.18
2.6968,-7.1507,-0.53119,-0.37171,-1.2248,-1.9893,-6.12,22.2,27.42
2.4108,-8.3765,-0.28603,-0.43249,-1.4105,-1.7657,-6.6,21.9,27.6
2.1112,-9.2891,-0.17706,-0.50121,-1.4267,-1.4945,-6.9,21.9,27.6
1.7025,-10.093,0.10896,-0.5849,-1.1377,-1.0321,-7.26,21.66,27.6
1.6344,-10.433,0.24517,-0.60689,-0.78282,-0.67745,-7.44,21.54,27.36
1.6617,-10.719,0.42223,-0.55528,-0.37324,-0.31185,-7.62,21.48,27.24
1.7979,-10.706,0.36775,-0.45571,-0.0024435,0.039706,-7.86,21.6,26.76
2.2474,-10.637,0.1362,-0.29688,0.21441,0.40623,-8.1,21.72,26.46
2.6423,-10.91,0.054481,-0.1069,0.23091,0.77672,-8.22,21.84,26.22
2.6832,-10.896,-0.35413,0.16982,0.015272,1.1512,-8.58,22.14,25.5
2.3836,-11.713,-0.27241,0.28191,-0.15638,1.3427,-8.64,22.38,25.14
2.1793,-12.408,-0.17706,0.33262,-0.17471,1.6228,-8.58,22.5,24.72
1.6208,-10.855,-0.31327,0.32803,-0.0015272,1.7504,-8.28,23.16,23.82
1.1986,-9.0439,-0.50395,0.34331,0.2416,1.7257,-8.16,23.4,23.46
1.0215,-7.9951,-0.83084,0.43494,0.4609,1.6674,-7.98,23.58,23.22
1.975,-8.8532,-1.5936,0.61697,0.60292,1.6252,-7.68,24.24,22.8
1.975,-8.8532,-1.5936,0.64691,0.49114,1.6396,-7.68,24.24,22.8
2.8603,-11.591,-1.362,0.63927,0.45112,1.6426,-7.5,24.42,22.62
2.8875,-11.509,-0.88532,0.47373,0.5846,1.6787,-7.08,25.32,22.14
2.9284,-10.733,-0.74912,0.3204,0.89675,1.6328,-6.78,25.74,21.96
3.051,-7.246,-1.58,0.26237,1.1781,1.4795,-5.76,26.58,21.42
3.1872,-5.6933,-1.7843,0.30268,1.2746,1.2761,-5.34,27.12,21.06
3.1872,-4.7807,-2.0294,0.42302,0.88301,1.0418,-4.5,27.78,20.58
3.3234,-5.1621,-2.0294,0.4383,0.66554,0.98013,-4.5,27.78,20.58
3.228,-6.9328,-1.8115,0.32315,-0.0018326,0.86254,-3.54,28.86,19.86
3.228,-6.9328,-1.8115,0.32315,-0.0018326,0.86254,-3.54,28.86,19.86
3.2553,-8.4991,-1.6889,0.12187,0.083994,0.85765,-2.94,29.58,19.08
3.2144,-8.4991,-1.6889,0.052534,0.22999,0.8543,-2.82,29.82,18.54
3.0782,-9.5615,-1.7025,-0.07758,0.90622,0.77977,-2.46,30.18,18.3
3.3506,-9.9837,-1.7979,-0.087965,1.1445,0.7138,-2.46,30.72,18.0
4.0861,-10.665,-1.6481,-0.025045,1.6124,0.50121,-2.4,31.14,17.4
4.6718,-10.869,-1.58,0.075136,1.6472,0.35919,-2.46,31.32,17.04
5.0668,-11.087,-1.6344,0.17562,1.4114,0.20097,-2.64,31.44,16.86
5.094,-11.85,-1.3484,0.24374,1.0146,-0.000305,-3.18,31.8,16.2
4.9306,-13.579,-0.88532,0.25748,0.57971,-0.14936,-3.42,31.92,15.96
5.2575,-15.514,-0.55843,0.23671,0.24801,-0.14264,-3.84,32.1,15.78
5.3119,-13.307,-0.96704,0.12737,-0.0027489,-0.20464,-4.68,32.04,15.48
4.8897,-11.768,-0.91256,0.062003,-0.16738,-0.44654,-5.28,32.22,15.3
4.7263,-11.7,-0.78998,-0.010079,-0.29719,-0.76694,-5.7,32.22,15.24
4.3449,-11.836,-0.24517,-0.065973,-0.5003,-1.0589,-6.84,32.28,15.24
4.1542,-11.673,-0.14982,-0.13561,-0.85827,-1.3573,-7.44,32.22,15.06
3.9227,-11.414,-0.095342,-0.15363,-0.86743,-1.5021,-7.98,32.04,14.94
3.4187,-9.5342,-0.12258,-0.16157,-0.82314,-1.5702,-9.06,31.68,15.12
3.2553,-8.3357,-0.27241,-0.13042,-0.66187,-1.8308,-9.66,31.44,15.3
2.942,-7.0826,-0.40861,-0.074526,-0.69761,-2.0073,-10.26,31.2,15.36
2.7104,-6.1155,-0.70826,-0.037874,-0.81703,-2.1145,-11.7,30.54,15.84
2.8603,-6.2245,-0.68102,-0.0094684,-1.2401,-2.1399,-12.48,30.06,16.2
2.8739,-6.6059,-0.7355,-0.021075,-1.4291,-2.109,-13.02,29.46,16.44
2.8058,-7.7772,-0.8717,-0.085216,-1.7761,-2.0272,-13.74,28.98,16.62
2.4108,-9.0848,-0.44947,-0.30391,-1.9655,-1.8042,-15.06,27.84,17.16
1.9886,-9.7385,-0.21793,-0.4945,-1.7657,-1.6011,-15.72,27.42,17.4
1.7706,-10.447,-0.068102,-0.6747,-1.405,-1.3873,-16.32,26.88,17.7
1.6481,-10.883,-0.12258,-0.78863,-0.93554,-1.1426,-16.92,26.22,17.94
1.7979,-11.414,0.027241,-0.84452,-0.45112,-0.88667,-17.4,25.62,18.12
2.3018,-11.005,0.1362,-0.82742,-0.10812,-0.60964,-18.3,24.48,18.42
2.5742,-10.937,0.095342,-0.76205,-0.029322,-0.32009,-18.78,23.94,18.36
2.5879,-11.06,0.12258,-0.55528,-0.14325,0.16096,-19.26,23.46,18.3
2.6832,-10.828,-0.27241,-0.37171,-0.19395,0.46487,-20.04,22.74,18.18
2.6015,-10.637,-0.44947,-0.1069,-0.25107,0.86224,-20.22,22.5,18.12
2.6151,-12.286,-0.28603,0.000611,-0.13958,1.1949,-20.52,22.14,17.76
2.6423,-10.842,-0.35413,0.049175,0.10782,1.3241,-20.4,22.02,17.82
2.5742,-9.4661,-0.38137,0.076053,0.21197,1.3152,-20.16,21.9,17.7
2.3699,-7.355,-0.39499,0.2474,0.43066,1.1616,-20.1,21.84,17.46
2.5334,-7.1643,-0.78998,0.46731,0.37782,1.1072,-19.8,21.54,17.22
2.7649,-8.6762,-1.2803,0.65821,0.13714,1.0519,-19.68,21.6,17.16
2.6423,-9.9156,-1.2531,0.76694,-0.047037,1.0544,-19.56,21.84,16.92
2.5879,-9.5615,-0.91256,0.72021,0.012217,1.0999,-19.32,21.96,16.98
2.6015,-8.717,-0.36775,0.56016,0.29474,1.1432,-19.02,22.02,16.92
2.4108,-6.9872,-0.34051,0.29016,0.90316,1.1622,-18.42,22.86,16.8
2.6151,-5.775,-0.98067,0.22358,1.1768,1.1014,-18.06,23.1,16.68
2.7377,-5.0531,-1.3212,0.26053,1.2511,0.97708,-17.52,23.28,16.5
3.0101,-5.094,-1.185,0.37599,0.9783,0.87232,-16.86,24.0,16.08
3.3234,-5.7478,-0.96704,0.4273,0.73304,0.84483,-16.5,24.36,15.84
3.4051,-6.2109,-1.1986,0.4722,0.48197,0.85216,-16.26,24.78,15.66
3.6094,-7.0281,-1.6344,0.4777,0.24221,0.8656,-15.9,25.26,15.6
4.2359,-8.431,-1.9341,0.46181,0.045204,0.88881,-15.18,26.16,15.06
4.1951,-9.3844,-2.0839,0.44502,-0.07422,0.84727,-14.76,26.64,14.76
3.9908,-9.7522,-2.4925,0.41814,-0.081245,0.75747,-14.1,27.6,14.04
4.0997,-10.678,-2.6968,0.41905,-0.017715,0.70311,-13.8,28.2,13.68
4.2904,-11.332,-2.7104,0.41478,0.082161,0.70066,-13.5,28.68,13.32
4.3721,-11.577,-2.7377,0.35522,0.35858,0.67256,-13.02,28.98,13.02
4.522,-12.122,-2.4517,0.27886,0.5507,0.59865,-12.24,29.46,12.54
4.4811,-11.891,-2.4244,0.18357,0.78007,0.44043,-11.94,29.82,12.18
4.5901,-12.64,-1.6889,0.087965,0.90072,0.31948,-11.58,30.12,11.82
5.8295,-15.963,-1.5391,-0.098044,0.91844,0.29383,-10.98,30.6,11.28
6.1428,-14.519,-1.5391,-0.1799,0.88606,0.24771,-10.56,30.72,11.04
6.1973,-12.926,-1.362,-0.38179,0.46578,-0.14661,-10.26,30.96,10.68
5.9249,-13.457,-0.85808,-0.50702,0.11179,-0.56108,-9.72,31.32,10.14
5.1076,-13.362,-0.14982,-0.60476,-0.23182,-1.0217,-9.6,31.38,9.96
4.2223,-11.795,0.14982,-0.65851,-0.54153,-1.3784,-9.3,31.38,9.78
3.5277,-10.474,0.19068,-0.62614,-0.71532,-1.7788,-9.36,31.32,9.66
3.2825,-8.9758,0.14982,-0.54184,-0.62736,-2.0165,-9.42,31.32,9.78
3.1872,-7.9407,0.068102,-0.41294,-0.55925,-2.1851,-9.66,31.32,9.84
2.7649,-5.8023,-0.32689,-0.27092,-0.56413,-2.2706,-10.32,31.08,10.02
2.9284,-5.6388,-0.44947,-0.17043,-0.70219,-2.2895,-10.8,30.9,10.2
2.7241,-6.0611,-0.38137,-0.10782,-0.9893,-2.2568,-11.94,30.48,10.8
2.7104,-6.8647,-0.31327,-0.11668,-1.3335,-2.1252,-12.72,30.24,11.16
2.7513,-7.5865,-0.25879,-0.23732,-1.7489,-1.7889,-13.38,30.0,11.64
2.6423,-8.3901,-0.24517,-0.38301,-1.8473,-1.558,-14.22,29.64,11.94
2.3155,-9.6023,-0.16344,-0.551,-1.7208,-1.3103,-15.84,28.98,12.66
1.7843,-10.651,0.12258,-0.69058,-1.3482,-1.0806,-16.5,28.62,13.14
1.5936,-11.005,0.23155,-0.82589,-0.50671,-0.76053,-17.82,27.84,14.1
1.7434,-10.488,0.28603,-0.82222,0.073915,-0.54886,-18.3,27.42,14.52
1.7434,-10.488,0.28603,-0.79168,0.31032,-0.44746,-18.3,27.42,14.52
2.4653,-10.392,0.12258,-0.59193,0.66248,-0.087659,-19.38,26.58,15.12
2.8058,-10.651,0.054481,-0.41111,0.65027,0.18601,-19.74,26.22,15.48
2.9965,-10.433,-0.12258,-0.21228,0.47098,0.45448,-20.04,26.04,15.78
2.9556,-12.108,-0.027241,-0.053756,0.22144,0.73487,-20.64,25.5,16.32
2.942,-11.986,-0.027241,0.12614,0.076969,1.2297,-20.64,25.32,16.5
2.8058,-10.855,-0.040861,0.23518,0.15821,1.3442,-20.52,25.02,16.68
2.4108,-7.2188,-0.72188,0.41875,0.16157,1.306,-20.52,24.78,17.16
2.3972,-6.96,-1.2803,0.66523,0.052534,1.211,-20.4,24.78,17.4
2.5879,-7.6546,-1.8387,0.90744,-0.219,1.1292,-19.98,24.9,17.46
2.833,-10.215,-2.1656,1.0547,-0.61545,1.095,-19.38,25.26,17.76
2.7377,-10.637,-1.9886,0.97158,-0.90958,1.1274,-18.96,25.44,17.88
2.5198,-10.651,-1.1305,0.74312,-0.66676,1.1741,-18.36,25.74,17.94
2.0294,-8.6217,-0.89894,0.50855,-0.12737,1.2065,-17.28,26.34,18.12
1.866,-6.8374,-1.5391,0.35583,0.48686,1.1906,-16.5,26.64,18.12
2.0567,-5.8023,-2.0567,0.32681,0.98991,1.0721,-15.78,27.0,18.24
2.4108,-5.0395,-2.4517,0.36285,1.1438,0.98258,-14.22,27.9,18.06
2.5061,-5.1621,-2.3018,0.4444,0.94959,0.93707,-13.56,28.38,18.12
2.8467,-5.5707,-2.152,0.44196,0.79443,0.97861,-12.9,28.92,18.0
3.6094,-6.8783,-2.2474,0.39584,0.61545,1.0779,-11.46,29.88,17.64
3.9363,-8.0632,-2.3699,0.31551,0.46151,1.1683,-10.56,30.3,17.46
4.2495,-9.1256,-2.3836,0.19548,0.42669,1.1973,-9.9,30.54,17.34
4.0589,-9.5887,-2.3018,0.096822,0.58735,1.1365,-8.46,31.14,16.74
4.0861,-9.7385,-2.3155,0.019548,1.0519,0.95081,-7.74,31.56,16.32
4.3585,-10.61,-2.3155,0.0085521,1.3121,0.83108,-7.08,31.86,16.02
5.1894,-12.122,-2.0975,0.011301,1.4514,0.70799,-5.82,32.64,15.42
5.5162,-12.435,-1.7843,0.027184,1.4838,0.5623,-5.34,33.06,15.06
5.7614,-12.367,-1.6753,0.05681,1.3635,0.40561,-4.98,33.24,14.64
6.0474,-14.478,-1.1713,0.055894,1.1139,0.26695,-4.2,33.72,14.1
6.2109,-15.636,-0.83084,0.020769,0.76755,0.097433,-3.78,33.96,13.8
6.2245,-14.547,-0.76274,-0.028711,0.53145,-0.025351,-3.42,34.14,13.62
5.8976,-10.637,-0.99429,-0.062003,0.17043,-0.30513,-2.7,34.86,13.2
5.6116,-10.379,-0.95342,-0.060476,-0.26786,-0.66615,-2.52,35.1,12.96
5.1485,-10.937,-0.61292,-0.072082,-0.73548,-0.99082,-2.4,35.4,12.72
4.5356,-11.55,-0.095342,-0.099876,-1.0785,-1.222,-2.22,35.94,12.3
4.2632,-11.441,0.040861,-0.17074,-1.2089,-1.4606,-2.22,36.12,12.24
3.8954,-11.032,-0.14982,-0.19884,-1.0339,-1.6099,-2.58,36.42,11.88
3.1735,-8.7306,-0.39499,-0.17532,-0.8042,-1.7956,-2.76,36.54,11.94
2.9011,-7.5048,-0.6674,-0.12462,-0.67226,-1.9682,-3.18,36.72,11.94
2.9011,-7.0281,-0.88532,-0.087354,-0.68386,-2.0684,-3.42,36.84,11.82
2.9011,-6.2109,-0.96704,-0.072388,-0.88362,-2.117,-4.56,37.14,11.76
2.833,-6.1564,-0.98067,-0.08491,-1.4022,-2.0562,-5.28,37.14,11.7
2.5198,-7.2869,-0.78998,-0.18967,-1.6383,-1.9514,-7.08,36.96,11.28
2.3972,-7.8181,-0.72188,-0.29932,-1.7016,-1.7978,-8.04,36.72,11.16
2.2337,-8.1858,-0.61292,-0.42089,-1.6218,-1.5934,-9.12,36.54,11.16
1.8932,-8.6625,-0.54481,-0.52015,-1.4071,-1.3451,-10.26,36.36,11.16
1.6072,-9.8203,-0.28603,-0.60659,-1.0528,-1.0345,-12.54,35.82,11.28
1.6208,-10.311,-0.21793,-0.65668,-0.56658,-0.71502,-13.92,35.52,11.46
1.9613,-10.447,-0.10896,-0.67317,-0.083689,-0.3992,-16.32,34.8,11.76
2.1793,-10.706,-0.054481,-0.64966,0.30177,-0.086437,-17.46,34.44,11.82
2.4517,-11.264,-0.054481,-0.5846,0.54245,0.20861,-18.48,34.02,12.06
2.9284,-11.686,0.081722,-0.42608,0.61575,0.60995,-20.4,33.42,12.84
3.1191,-11.087,-0.16344,-0.28191,0.52657,0.83047,-21.24,33.0,12.9
3.2689,-11.536,-0.12258,-0.15516,0.31612,1.0238,-21.84,32.7,13.26
3.1599,-12.844,0.095342,-0.040317,0.13622,1.3809,-22.8,32.28,14.04
2.9148,-11.128,0.068102,0.020769,0.27917,1.4423,-23.04,32.22,14.52
2.7104,-9.6568,-0.040861,0.057421,0.37477,1.42,-23.22,32.16,14.88
2.7513,-7.4095,-0.77636,0.29322,0.48839,1.23,-23.1,32.16,15.66
2.833,-7.7772,-1.1713,0.52412,0.33903,1.1338,-22.98,32.22,15.96
3.0918,-9.5479,-1.6481,0.7141,0.038485,1.077,-22.8,32.34,16.44
3.0101,-9.8066,-1.5119,0.79626,-0.27245,1.0226,-22.02,32.94,17.1
2.8875,-9.5615,-1.1305,0.76236,-0.27245,1.0324,-21.6,33.24,17.4
2.8058,-8.6217,-0.99429,0.62492,-0.12126,1.0705,-21.06,33.54,17.52
2.5198,-6.5378,-1.5391,0.44563,0.2416,1.0397,-19.74,34.14,17.94
2.2882,-5.3528,-2.1793,0.38393,0.45998,0.97525,-19.14,34.68,18.18
2.4653,-4.8761,-2.3155,0.36408,0.60109,0.87476,-18.48,35.1,18.36
2.6696,-5.3119,-2.2882,0.30635,0.55528,0.77274,-16.98,36.06,18.42
2.7649,-5.6933,-2.2882,0.24465,0.51832,0.77427,-16.26,36.42,18.36
2.8603,-6.0883,-2.2474,0.15363,0.49572,0.83383,-15.66,36.96,18.3
3.5549,-7.8589,-2.3836,0.083383,0.5229,0.89064,-14.52,37.86,18.48
3.8954,-8.8668,-2.3699,-0.0051924,0.59926,0.91752,-13.74,38.34,18.48
4.1951,-9.5751,-2.1656,-0.047037,0.77274,0.89186,-13.14,38.64,18.24
4.413,-10.052,-2.1112,-0.046731,1.1591,0.75289,-12.0,39.3,17.88
4.8352,-10.637,-2.2474,0.0054978,1.2248,0.65149,-11.64,39.66,17.7
5.2983,-11.414,-2.152,0.078496,1.0956,0.57055,-11.1,40.02,17.52
5.5299,-12.054,-1.9205,0.14661,0.90378,0.44502,-10.68,40.68,17.34
5.5299,-11.632,-1.9068,0.20556,0.65301,0.30879,-10.44,40.74,17.1
5.2847,-11.863,-1.7706,0.22663,0.36041,0.16707,-10.32,40.8,16.86
5.6388,-14.669,-1.0624,0.20128,0.09896,0.2193,-10.26,41.16,16.8
5.9249,-14.438,-1.0896,0.11423,-0.063225,0.20159,-10.26,41.34,16.8
5.8023,-12.83,-1.2803,0.047037,-0.25107,-0.0048869,-10.26,41.46,16.74
4.9987,-10.597,-1.1305,-0.030238,-0.42486,-0.3992,-10.56,41.46,16.32
4.5356,-10.964,-0.7355,-0.10171,-0.58063,-0.7703,-10.86,41.52,16.38
4.3585,-11.441,-0.51757,-0.18845,-0.77977,-0.99479,-11.04,41.58,16.26
4.127,-11.931,-0.31327,-0.26176,-0.9389,-1.2162,-11.88,41.22,16.44
3.9363,-11.509,-0.27241,-0.36194,-0.81795,-1.3598,-12.06,41.04,16.56
3.514,-10.311,-0.28603,-0.39706,-0.56566,-1.5159,-12.72,40.74,16.62
3.0101,-7.8181,-0.24517,-0.38912,-0.47342,-1.5855,-13.08,40.44,16.8
2.7649,-7.0553,-0.35413,-0.34117,-0.34758,-1.7483,-14.04,39.66,17.34
2.7241,-6.7012,-0.54481,-0.28833,-0.38179,-1.8173,-14.7,39.36,17.88
2.8194,-6.0202,-0.69464,-0.24587,-0.54123,-1.8369,-16.08,37.86,18.36
2.8467,-6.0066,-0.69464,-0.24771,-0.98716,-1.7605,-16.92,37.08,18.72
2.7649,-6.5378,-0.64016,-0.29719,-1.2388,-1.6518,-17.82,36.36,19.2
2.438,-8.2812,-0.42223,-0.38118,-1.3201,-1.4994,-19.08,34.62,19.98
2.3155,-9.0848,-0.24517,-0.47586,-1.2391,-1.3207,-19.86,33.6,20.22
1.9886,-9.6977,-0.1362,-0.56505,-1.0104,-1.1029,-20.64,32.58,20.76
1.9613,-10.488,0.027241,-0.63652,-0.47373,-0.69028,-21.9,30.84,21.3
2.1793,-11.046,0.040861,-0.63194,-0.11179,-0.38637,-22.68,30.0,21.72
2.2882,-11.482,0.054481,-0.58735,0.18112,-0.10232,-23.04,29.22,22.08
2.4517,-11.713,0.095342,-0.54795,0.28924,0.021075,-23.46,28.2,22.26
2.6423,-11.727,-0.027241,-0.37018,0.42486,0.42058,-24.24,26.58,22.74
2.6968,-11.278,-0.34051,-0.2303,0.3375,0.67042,-24.42,25.74,22.8
2.6832,-11.972,-0.21793,-0.085827,0.15333,0.8827,-24.48,25.2,23.04
2.7241,-12.612,-0.081722,0.069333,-0.024435,1.2642,-24.42,24.36,23.34
2.4789,-11.332,-0.19068,0.14966,0.049175,1.3628,-24.18,23.82,23.58
2.1929,-9.1937,-0.25879,0.26603,0.15058,1.3402,-24.12,23.64,23.82
2.152,-6.9328,-0.83084,0.4609,0.16554,1.2657,-23.52,23.4,24.42
2.5742,-7.1779,-1.6344,0.71196,-0.020464,1.2339,-23.22,23.22,24.48
2.8739,-8.2539,-1.9341,0.89736,-0.35125,1.2104,-22.2,23.46,24.78
2.9556,-10.297,-1.9886,0.94104,-0.70616,1.1738,-21.54,23.58,24.9
2.7377,-10.283,-1.6208,0.77183,-0.63713,1.1206,-20.94,23.76,24.96
2.4653,-9.8066,-1.2803,0.51679,-0.25687,1.0385,-20.28,24.24,25.14
1.9613,-8.2539,-1.1032,0.28924,0.29291,0.9447,-19.56,24.54,25.14
1.9068,-6.2654,-1.866,0.1573,0.83627,0.84635,-17.94,25.56,25.14
2.3699,-5.4073,-2.1929,0.12737,1.1457,0.74403,-17.1,26.04,25.14
2.5606,-5.1894,-2.1929,0.14813,1.1924,0.67134,-16.32,26.4,25.14
3.051,-5.5707,-2.0431,0.16829,1.0372,0.68417,-14.88,27.36,24.78
3.2416,-6.1428,-2.1112,0.1631,0.82222,0.77152,-14.16,27.78,24.6
3.4459,-6.5786,-2.2201,0.12431,0.64691,0.88545,-13.38,28.08,24.36
3.7456,-8.54,-2.2065,0.070555,0.55528,0.97922,-12.18,29.04,23.88
3.8273,-9.4117,-2.1248,0.020464,0.58277,1.0177,-11.64,29.4,23.58
3.7728,-10.202,-2.1112,-0.0018326,0.7138,0.92852,-10.74,30.12,22.98
4.127,-10.665,-2.0567,0.072388,0.89828,0.83078,-10.38,30.36,22.44
4.6037,-11.073,-2.152,0.19303,0.76847,0.73579,-9.96,30.66,22.08
5.094,-11.523,-2.3427,0.24648,0.61575,0.65149,-9.54,30.84,21.78
4.8761,-11.863,-1.9886,0.31062,0.1069,0.3094,-9.0,31.14,21.12
4.2495,-12.177,-1.4029,0.24893,0.054367,0.043677,-8.7,31.2,20.88
4.6037,-14.942,-0.89894,0.16096,0.12645,-0.081551,-8.28,31.38,20.4
4.9306,-14.274,-1.0488,0.013439,0.32681,-0.11148,-7.8,31.62,19.62
4.808,-12.163,-1.2395,-0.096211,0.49419,-0.2251,-7.8,31.74,19.2
4.699,-11.155,-1.3348,-0.21105,0.43921,-0.59193,-7.62,31.8,18.84
4.7126,-11.768,-0.54481,-0.28986,0.2584,-0.85307,-7.5,31.8,18.12
4.6173,-12.163,-0.14982,-0.36255,-0.000305,-1.0562,-7.5,31.68,17.76
4.413,-11.959,0.095342,-0.4328,-0.24404,-1.2138,-7.68,31.5,17.52
3.5958,-10.665,0.21793,-0.43738,-0.29169,-1.4022,-7.92,30.96,17.22
3.4187,-9.2482,0.095342,-0.42974,-0.22144,-1.4768,-8.4,30.48,16.98
3.1872,-7.8181,-0.10896,-0.30482,-0.12523,-1.6716,-8.76,30.12,16.62
2.9556,-6.2245,-0.47671,-0.077885,-0.18448,-1.8723,-9.54,29.16,16.14
2.9965,-5.8023,-0.72188,0.048869,-0.43585,-1.9749,-10.26,28.62,16.14
3.0918,-5.7478,-0.8036,0.13195,-0.83383,-2.0024,-10.92,28.14,16.08
2.9011,-6.279,-0.85808,0.15852,-1.3451,-1.9535,-12.66,26.7,15.84
2.7241,-7.0962,-0.70826,0.1014,-1.7681,-1.8711,-13.44,25.92,15.66
2.6287,-7.7908,-0.6674,0.0018326,-2.0052,-1.7269,-14.28,25.02,15.6
2.0839,-9.4661,-0.31327,-0.21014,-1.9664,-1.3958,-15.78,23.22,15.6
1.8387,-10.256,-0.24517,-0.34331,-1.6359,-1.1209,-16.5,22.32,15.72
1.6753,-10.978,-0.24517,-0.4383,-0.86315,-0.64141,-17.58,20.64,15.9
1.6889,-10.542,-0.20431,-0.45143,-0.28039,-0.32467,-18.24,19.86,16.02
1.8796,-10.556,-0.20431,-0.41753,0.16616,-0.000305,-18.6,19.02,16.14
2.3291,-11.019,-0.21793,-0.3317,0.38943,0.31124,-19.08,18.18,16.44
2.9692,-11.509,-0.28603,-0.21289,0.40959,0.58887,-20.04,16.68,16.74
3.0373,-11.06,-0.54481,-0.084605,0.29322,0.80848,-20.16,15.9,16.86
2.7649,-11.032,-0.47671,0.0079412,0.1127,0.97372,-20.34,15.12,17.16
2.6423,-12.721,-0.19068,0.040623,-0.018631,1.2532,-20.28,14.22,17.76
2.6015,-10.746,-0.35413,0.072082,0.083078,1.4413,-19.98,13.74,18.18
2.3836,-9.3436,-0.44947,0.16127,0.29413,1.4545,-19.74,13.56,18.6
2.1656,-7.1098,-1.1577,0.32834,0.35675,1.3778,-19.02,13.14,19.2
2.5061,-7.6683,-1.4165,0.54031,0.22571,1.3381,-18.54,13.02,19.44
2.9829,-8.9894,-1.7298,0.69516,-0.064446,1.3155,-18.3,13.02,19.68
3.2144,-11.332,-1.9477,0.72265,-0.3427,1.2898,-17.4,13.08,20.16
3.1599,-11.223,-1.6617,0.56474,-0.22602,1.1839,-16.86,13.2,20.4
2.6696,-9.7113,-1.1986,0.43952,-0.069639,1.1041,-16.38,13.5,20.52
2.1112,-7.1779,-1.4574,0.1741,0.53817,0.81184,-15.06,14.1,21.12
2.152,-5.6661,-1.9886,0.080329,0.86773,0.59315,-14.46,14.4,21.3
2.3563,-5.1485,-2.1248,0.061392,0.97861,0.42883,-13.8,14.76,21.36
2.547,-5.1894,-2.0294,0.060476,0.86712,0.30299,-12.42,15.18,21.78
2.6832,-5.4209,-2.0294,0.037874,0.74098,0.30604,-11.94,15.48,21.78
2.7649,-5.8431,-2.0294,0.016799,0.63316,0.40959,-11.46,15.66,21.78
3.1191,-7.641,-2.2201,-0.028405,0.61575,0.5397,-10.74,16.02,21.72
3.4051,-8.1858,-2.2201,-0.07422,0.66981,0.66981,-10.32,16.26,21.72
3.8273,-8.8805,-2.2337,-0.12156,0.81184,0.74067,-9.84,16.44,21.66
4.5356,-9.8611,-2.1929,-0.068417,1.0024,0.70647,-9.24,16.74,21.48
4.8625,-10.106,-2.1248,0.0073304,1.0156,0.63835,-9.0,16.74,21.48
5.4073,-10.651,-2.1656,0.099876,0.87873,0.58521,-8.64,16.74,21.48
5.9793,-11.509,-2.0839,0.21044,0.64691,0.46762,-8.28,16.86,21.12
5.993,-11.496,-1.9341,0.27642,0.39828,0.28375,-8.04,17.04,20.88
5.5299,-11.032,-1.9613,0.29444,0.25656,0.029932,-7.8,17.1,20.88
5.5026,-13.43,-1.4165,0.26756,0.0281,-0.18967,-7.56,17.1,20.46
5.9249,-14.07,-1.4438,0.15882,-0.050091,-0.23671,-7.44,17.22,20.28
5.9521,-13.13,-1.58,0.033292,-0.17287,-0.38637,-7.26,17.4,20.04
5.4481,-11.359,-1.5663,-0.082772,-0.34361,-0.58521,-7.02,17.58,19.98
5.1213,-11.645,-1.0215,-0.21411,-0.43799,-0.81123,-6.66,17.82,19.8
4.7671,-12.531,-0.24517,-0.35216,-0.46823,-1.0043,-6.36,17.82,19.56
4.5492,-12.286,-0.095342,-0.45387,-0.51679,-1.1393,-6.12,17.82,19.5
3.9227,-11.427,0.10896,-0.48808,-0.37843,-1.306,-5.64,17.7,19.44
3.4732,-9.0575,-0.081722,-0.45326,-0.28497,-1.3824,-4.98,17.76,19.2
3.1599,-7.0962,-0.46309,-0.26756,-0.1628,-1.6393,-4.56,17.64,19.08
2.9692,-6.4152,-0.54481,-0.13897,-0.25473,-1.7379,-4.44,17.52,19.14
2.9556,-5.8704,-0.7355,-0.03207,-0.46456,-1.766,-4.26,17.4,19.26
3.1463,-6.1292,-0.8717,0.013744,-0.8491,-1.7608,-4.08,17.34,19.08
3.1599,-6.4697,-0.98067,-0.0039706,-1.5207,-1.6197,-4.02,17.16,18.96
2.6696,-7.2596,-0.8036,-0.040623,-1.6893,-1.5757,-3.72,16.92,18.9
2.4653,-8.0632,-0.91256,-0.22999,-1.909,-1.3573,-3.72,16.8,18.72
2.1929,-9.1665,-0.70826,-0.40164,-1.806,-1.1683,-3.72,16.62,18.72
1.975,-9.6432,-0.6674,-0.53848,-1.5027,-0.97738,-3.66,16.62,18.6
1.58,-10.569,-0.35413,-0.64507,-1.0241,-0.78374,-3.6,16.56,18.06
1.6208,-10.719,-0.32689,-0.73426,-0.17196,-0.44166,-3.6,16.68,17.88
1.7025,-10.896,-0.14982,-0.71716,0.31001,-0.19151,-3.66,16.68,17.58
2.2474,-11.482,0.21793,-0.65546,0.65301,0.093462,-3.9,16.86,17.34
2.6696,-11.85,0.027241,-0.52198,0.84147,0.41417,-3.84,16.92,16.92
2.8739,-11.768,-0.14982,-0.34056,0.87323,0.71654,-3.72,16.8,16.68
3.1191,-13.021,0.12258,-0.17593,0.73793,1.0605,-3.9,16.8,16.08
3.3506,-13.266,0.095342,0.058338,0.53298,1.4902,-3.96,17.04,15.9
3.0918,-9.7113,-0.34051,0.14294,0.47098,1.5296,-4.02,16.98,15.78
2.8194,-7.464,-0.53119,0.39951,0.16768,1.3961,-3.96,17.16,15.6
2.4108,-6.3062,-1.1305,0.51588,0.034208,1.3161,-4.08,17.16,15.42
2.2882,-6.7693,-1.362,0.85857,-0.47709,1.2666,-4.02,17.1,15.42
2.9965,-9.5751,-1.9613,1.0052,-0.81276,1.3369,-3.78,17.4,15.66
3.1054,-10.515,-1.975,0.99571,-0.9951,1.4581,-3.78,17.52,15.66
2.6968,-10.174,-1.3076,0.93004,-0.88331,1.4765,-3.06,17.7,15.42
2.2746,-8.826,-1.2258,0.58124,-0.047647,1.4138,-2.76,18.0,15.42
1.8796,-7.1915,-1.3212,0.47647,0.33109,1.3558,-2.52,18.36,15.54
1.8932,-5.993,-1.757,0.25626,1.2816,1.1121,-2.16,18.78,15.42
2.9284,-4.9714,-1.7979,0.20983,1.5049,0.89858,-1.2,19.44,15.48
3.3234,-4.9987,-1.5527,0.17379,1.4771,0.62614,-0.78,19.68,15.66
4.127,-6.1155,-1.2531,0.15821,1.4087,0.55008,0.12,20.16,15.48
4.522,-6.8647,-1.2803,0.16157,1.193,0.43616,0.48,20.22,15.36
4.7126,-7.246,-1.4846,0.1631,0.81306,0.34392,0.78,20.64,15.24
4.699,-8.4446,-1.9205,0.18479,0.68906,0.29566,1.5,21.36,14.82
4.8352,-9.3844,-2.4108,0.20892,0.60598,0.22388,1.62,21.6,14.52
4.9033,-9.9973,-2.5742,0.23824,0.53145,0.13073,1.8,21.84,14.4
4.7944,-10.651,-2.3427,0.24771,0.4496,0.062614,1.74,22.32,14.22
4.9033,-11.25,-2.2882,0.26878,0.35125,0.062614,1.74,22.44,13.98
5.0668,-11.741,-2.438,0.27978,0.28191,0.05284,1.68,22.68,13.68
4.9714,-11.931,-2.547,0.28405,0.28222,-0.0076358,1.5,22.8,13.62
4.7263,-12.803,-1.9886,0.28039,0.30879,-0.033598,1.38,23.04,13.08
5.489,-14.519,-1.58,0.2364,0.23915,0.10232,1.26,23.34,12.84
5.8976,-13.253,-1.7025,0.10018,0.072693,0.15119,1.14,23.88,12.48
5.6252,-11.4,-1.6753,0.033903,-0.2193,-0.051924,1.26,24.42,12.3
5.5026,-10.801,-1.58,-0.03879,-0.57696,-0.37202,1.32,24.6,12.3
4.7263,-11.482,-1.0624,-0.078802,-0.97128,-0.69578,1.08,25.02,12.12
4.5764,-11.863,-0.96704,-0.16096,-1.3341,-0.91996,1.02,25.32,11.88
4.2359,-11.931,-0.77636,-0.26145,-1.5626,-1.0403,0.84,25.68,11.82
3.4868,-10.992,-0.64016,-0.43494,-1.4197,-1.1924,0.66,26.34,11.52
2.8467,-9.0303,-0.5993,-0.49541,-1.2501,-1.2721,0.54,26.7,11.64
2.6015,-7.9679,-0.51757,-0.58002,-0.89339,-1.4313,0.36,26.88,11.7
2.2201,-5.8567,-0.46309,-0.64355,-0.4948,-1.6023,-0.06,27.66,11.94
2.2474,-5.4073,-0.46309,-0.65576,-0.37568,-1.6356,-0.54,28.08,12.24
2.4244,-5.5162,-0.42223,-0.62583,-0.38057,-1.6188,-1.02,28.38,12.42
2.6151,-6.4697,-0.28603,-0.63561,-0.49694,-1.4978,-2.4,28.98,12.96
2.5334,-7.0281,-0.19068,-0.66615,-0.67562,-1.3699,-3.18,29.22,13.26
2.5198,-7.6546,-0.12258,-0.68631,-0.73151,-1.2175,-3.96,29.58,13.44
2.4244,-9.8748,0.16344,-0.72235,-0.67226,-1.0095,-5.58,30.12,13.98
2.4517,-10.678,0.25879,-0.72479,-0.51313,-0.77916,-6.42,30.42,14.52
2.4789,-11.005,0.35413,-0.697,-0.34514,-0.53359,-7.2,30.54,14.76
2.3699,-10.351,0.43585,-0.61636,-0.208,-0.18845,-8.88,30.96,15.6
2.438,-10.665,0.43585,-0.43891,-0.065057,0.088575,-9.78,31.02,15.96
2.547,-10.964,0.35413,-0.28924,-0.0088575,0.38454,-10.56,31.26,16.32
2.8058,-11.591,0.20431,-0.2138,0.0027489,0.5174,-11.22,31.26,16.74
2.7649,-11.427,-0.027241,-0.033292,0.042761,0.87415,-12.06,31.44,17.1
2.5061,-12.013,0.1362,0.0097738,0.10354,1.0944,-13.08,31.38,17.76
2.5879,-12.544,0.31327,0.016493,0.27367,1.361,-13.44,31.62,18.06
2.5742,-11.155,0.20431,0.099876,0.63499,1.4716,-13.56,31.8,18.36
2.547,-8.5536,-0.14982,0.21564,0.75259,1.3891,-13.68,31.98,18.48
2.6015,-6.6331,-0.89894,0.43219,0.68081,1.2718,-13.74,32.04,19.26
2.8194,-7.2324,-1.2939,0.66798,0.37354,1.237,-13.62,32.22,19.56
2.9965,-7.927,-1.58,0.85765,-0.0030543,1.2565,-13.5,32.58,19.8
3.5413,-10.529,-2.0975,0.97769,-0.45357,1.2596,-12.78,33.0,20.22
3.514,-11.005,-2.0431,0.90347,-0.56444,1.2413,-12.36,33.36,20.28
3.2553,-10.665,-2.0703,0.71288,-0.44532,1.1509,-11.82,33.78,20.16
2.5061,-8.0632,-2.2746,0.53206,-0.20831,1.004,-10.56,34.62,20.04
2.0703,-6.5105,-2.6968,0.42944,0.10293,0.81642,-9.78,34.92,19.98
2.0703,-5.7342,-2.9148,0.34483,0.34789,0.64171,-9.12,35.46,19.8
2.3836,-5.1349,-3.1735,0.28802,0.44715,0.4386,-7.8,36.12,19.44
2.4653,-5.1213,-3.2553,0.18112,0.41844,0.38882,-7.2,36.48,19.32
2.4108,-5.3528,-3.0918,0.10415,0.38943,0.41875,-6.66,36.72,19.14
2.7377,-7.1234,-2.8603,-0.015577,0.45754,0.49114,-5.7,37.56,18.66
2.8875,-8.4446,-2.6015,-0.15699,0.6689,0.59162,-5.1,37.92,18.3
3.0237,-9.2482,-2.3427,-0.27703,1.0073,0.65973,-4.68,38.16,18.12
3.8682,-10.202,-1.9341,-0.34361,1.3415,0.73059,-4.02,38.82,17.7
4.2223,-10.243,-1.7706,-0.26848,1.6228,0.7419,-3.9,39.0,17.52
4.7126,-10.501,-1.6753,-0.11851,1.5834,0.75381,-3.78,39.06,17.4
5.38,-10.896,-1.471,0.066279,1.3476,0.76083,-3.78,39.42,17.1
5.6388,-11.073,-1.2258,0.24007,0.96517,0.71654,-4.02,39.54,16.98
5.6661,-11.809,-0.92618,0.37415,0.50366,0.64171,-4.08,39.66,16.98
6.3607,-14.955,-0.61292,0.43677,0.020159,0.67287,-4.5,39.78,16.74
6.6059,-14.86,-0.78998,0.43005,-0.5455,0.54,-4.68,39.84,16.5
6.4833,-13.021,-1.0215,0.32865,-0.86437,0.20036,-4.68,39.96,16.26
5.6933,-11.278,-0.9398,0.18112,-1.1133,-0.28588,-4.68,40.2,15.84
4.9987,-11.836,-0.38137,0.020769,-1.2523,-0.84238,-4.8,40.32,15.84
4.127,-12.122,0.01362,-0.13347,-1.2859,-1.3201,-4.98,40.14,15.72
3.5413,-11.482,0.21793,-0.29932,-1.1884,-1.653,-5.34,40.02,15.66
3.2553,-10.624,0.095342,-0.38973,-0.73212,-2.0418,-5.64,39.84,15.54
3.1599,-9.5479,-0.16344,-0.33811,-0.39309,-2.2602,-6.06,39.66,15.6
3.1599,-8.2676,-0.40861,-0.19548,-0.18754,-2.4505,-6.42,39.54,15.78
3.0646,-7.7091,-0.47671,-0.065668,-0.19426,-2.5186,-6.9,39.24,15.96
3.1463,-6.8647,-0.72188,0.066279,-0.47159,-2.5381,-8.04,38.46,16.08
3.2553,-7.1098,-0.98067,0.1347,-0.99724,-2.489,-8.82,38.1,16.5
3.228,-8.0632,-1.1305,0.13897,-1.6017,-2.3686,-10.5,37.14,16.98
3.228,-8.0632,-1.1305,0.054672,-2.1231,-2.2181,-10.5,37.14,16.98
1.4438,-8.6625,-0.61292,-0.14813,-2.4795,-1.8158,-12.66,35.88,17.52
1.076,-9.4389,-0.55843,-0.22266,-2.4523,-1.653,-13.74,35.22,18.0
0.76274,-10.174,-0.6674,-0.42302,-1.9691,-1.1631,-14.82,34.62,18.3
0.10896,-11.387,-0.39499,-0.50335,-1.3381,-0.80543,-16.56,33.72,18.84
-0.054481,-11.087,-0.39499,-0.53237,-0.2135,-0.21105,-17.46,33.0,19.2
0.58567,-10.719,0.054481,-0.53084,0.089492,0.0024435,-18.72,31.86,20.1
1.4438,-11.155,0.1362,-0.41356,0.64141,0.59682,-19.32,31.26,20.4
1.7843,-11.332,0.12258,-0.29474,0.72907,0.90225,-19.62,30.84,20.58
1.9341,-10.924,0.081722,-0.20403,0.63225,1.1448,-20.22,30.06,21.24
1.7434,-12.027,0.54481,-0.16066,0.47647,1.4346,-20.16,29.7,21.42
1.8796,-12.667,0.62654,-0.12401,0.52229,1.7517,-19.8,29.28,21.78
2.0839,-8.6762,0.28603,0.024129,0.67989,1.9673,-19.44,29.16,22.14
2.2065,-7.4776,-0.16344,0.26053,0.56933,1.9768,-19.14,29.1,22.5
2.2746,-7.355,-0.54481,0.56597,0.37354,1.9184,-18.6,29.04,22.62
2.3836,-8.3493,-0.99429,0.80634,0.1069,1.8521,-18.06,29.04,22.74
2.9692,-10.883,-1.471,0.94867,-0.15455,1.7648,-16.92,28.98,23.16
3.0101,-11.278,-1.3757,0.90836,-0.22938,1.6295,-16.26,29.28,23.1
2.4653,-10.229,-0.6674,0.6915,-0.049786,1.4597,-14.76,29.88,23.16
2.1112,-8.54,-0.74912,0.4331,0.37507,1.2666,-13.92,30.3,23.1
2.1793,-7.7772,-1.0215,0.23549,0.86193,1.0721,-13.2,30.72,23.16
2.5334,-6.0066,-1.7434,0.1295,1.3299,0.73793,-11.58,31.74,22.86
2.7104,-5.6252,-1.9341,0.15547,1.3809,0.56291,-10.86,32.22,22.8
2.9829,-5.5299,-2.0567,0.20311,1.3375,0.41692,-10.2,32.64,22.68
3.4187,-5.9521,-2.1656,0.23579,1.1646,0.31765,-9.18,33.48,22.56
3.5822,-6.3743,-2.2474,0.23091,1.0528,0.31185,-8.58,33.9,22.38
3.6366,-6.7829,-2.3836,0.18784,0.82131,0.31185,-8.22,34.32,22.02
3.4187,-8.5672,-2.2746,0.071471,0.55405,0.33109,-7.44,34.98,21.54
3.1599,-9.4253,-2.1793,-0.0085521,0.5733,0.3656,-7.08,35.34,21.18
3.3506,-10.637,-1.9341,-0.036041,0.74526,0.44532,-6.84,35.58,21.0
4.1542,-11.659,-1.9205,0.018326,0.8885,0.55955,-6.54,36.18,20.58
4.4402,-12.0,-1.9068,0.17532,0.91447,0.66462,-6.6,36.36,20.4
4.4539,-12.0,-1.8115,0.30207,0.8546,0.64141,-6.54,36.54,20.28
4.6445,-12.544,-1.6481,0.3937,0.71777,0.6127,-6.42,36.72,20.1
5.1076,-14.206,-1.2939,0.4273,0.48503,0.65515,-6.3,36.84,19.92
6.2926,-16.413,-1.3076,0.3937,0.21686,0.66676,-6.36,37.14,19.32
6.279,-14.315,-1.6344,0.2022,-0.28833,0.28222,-6.12,37.38,19.02
5.4481,-11.564,-1.4438,0.12095,-0.4499,0.041844,-6.0,37.92,18.3
4.7671,-11.591,-0.85808,-0.045204,-0.69089,-0.48167,-5.76,37.98,18.24
4.2904,-11.904,-0.46309,-0.20189,-0.91752,-0.97158,-5.88,38.1,18.12
3.9635,-11.931,-0.43585,-0.41539,-1.1029,-1.5128,-5.88,38.28,18.24
3.514,-11.046,-0.57205,-0.49358,-0.978,-1.8182,-6.36,38.4,18.12
3.228,-9.3163,-0.64016,-0.53451,-0.74648,-2.1612,-6.6,38.34,18.0
3.1599,-7.246,-0.70826,-0.51496,-0.72724,-2.2382,-7.02,37.98,17.88
2.9284,-6.3198,-0.69464,-0.41386,-0.9331,-2.3521,-7.5,37.74,17.88
2.7649,-5.8704,-0.78998,-0.36866,-1.2083,-2.321,-8.1,37.5,18.18
2.5061,-5.9521,-0.89894,-0.35797,-1.4688,-2.2284,-9.48,36.9,18.66
2.2882,-6.3062,-0.85808,-0.36774,-1.6432,-2.0879,-10.2,36.48,18.96
2.1929,-7.5729,-0.64016,-0.42028,-1.7254,-1.9086,-11.04,35.88,19.32
2.0294,-8.3084,-0.55843,-0.48991,-1.6842,-1.6716,-12.6,34.56,19.98
1.7434,-9.4934,-0.50395,-0.61423,-1.3512,-1.2587,-13.56,34.02,20.4
1.6208,-9.9565,-0.42223,-0.66737,-1.1747,-1.1142,-14.16,33.42,20.82
1.4982,-10.61,-0.17706,-0.76541,-0.49999,-0.63652,-15.0,32.94,21.06
1.6072,-11.264,0.027241,-0.78771,-0.023824,-0.31276,-16.2,31.68,21.72
1.6344,-11.169,0.054481,-0.76969,0.3656,0.12248,-16.92,31.02,22.02
1.6344,-11.032,0.42223,-0.65118,0.81031,0.42669,-18.0,30.12,22.74
2.1384,-10.787,0.27241,-0.5901,0.89675,0.5791,-18.3,29.7,22.86
2.9556,-10.215,-0.054481,-0.41142,0.76205,0.84819,-18.66,29.16,23.04
3.4459,-10.079,-0.12258,-0.13195,-0.32956,1.1729,-18.84,28.8,23.16
3.1327,-11.904,0.40861,0.035736,-0.98594,1.4151,-18.96,28.08,23.58
2.6015,-10.924,0.51757,0.17379,-1.0647,1.5543,-18.9,27.9,23.82
1.471,-8.2131,0.54481,0.39615,-0.43219,1.4514,-18.42,27.54,24.24
1.2258,-7.9815,-0.20431,0.63927,0.12614,1.3445,-18.06,27.48,24.54
1.58,-8.4582,-0.61292,0.92088,0.45235,1.2153,-17.82,27.24,24.6
2.3291,-10.311,-1.362,1.1518,0.60995,1.128,-16.86,27.3,24.9
2.3972,-10.542,-1.6344,1.2465,0.74098,1.0742,-16.32,27.48,25.02
2.4789,-10.202,-1.6617,1.0916,0.88056,1.0192,-15.12,27.78,25.14
2.5606,-8.0905,-1.6753,0.85643,0.92241,0.98013,-14.58,28.14,25.08
2.4517,-6.9872,-1.9341,0.75045,0.91019,0.95112,-14.1,28.44,25.14
2.3427,-6.3471,-2.3699,0.56933,0.82314,0.87354,-13.5,28.86,24.84
2.3018,-5.8295,-2.547,0.36102,0.72052,0.80634,-12.12,29.76,24.6
2.3291,-6.0747,-2.6015,0.26542,0.72998,0.73884,-11.46,30.12,24.36
2.4789,-6.2517,-2.6015,0.21502,0.74709,0.67134,-10.92,30.72,24.06
2.6423,-6.7421,-2.6423,0.1686,0.77733,0.64966,-10.2,31.74,23.52
2.8875,-7.7227,-2.5742,0.14722,0.81398,0.66187,-9.9,32.28,23.1
3.0918,-8.431,-2.4925,0.11148,0.79779,0.78069,-9.54,32.82,22.92
3.6094,-9.9973,-2.3699,0.099571,0.78343,0.82314,-9.06,33.66,22.2
3.7728,-10.61,-2.3427,0.096822,0.77641,0.8491,-8.76,33.96,21.72
4.1678,-11.387,-2.1793,0.13531,0.77763,0.88881,-8.7,34.38,21.42
4.9578,-12.599,-2.0839,0.2025,0.73059,0.86804,-8.1,34.92,20.82
4.9578,-12.599,-2.0839,0.2025,0.73059,0.86804,-8.1,34.92,20.82
4.9169,-11.741,-2.0567,0.22419,0.46212,0.47861,-7.68,35.46,20.16
4.9306,-13.035,-1.6753,0.19487,0.31307,0.29474,-7.44,35.76,19.92
5.5162,-15.473,-1.1032,0.10629,0.19426,0.20495,-7.14,36.12,19.5
5.6116,-12.258,-1.5663,-0.012828,0.1014,0.10263,-6.6,36.24,19.02
5.4754,-11.101,-1.6753,-0.17349,-0.27855,-0.30849,-6.3,36.3,18.54
4.985,-11.005,-1.1032,-0.27978,-0.53848,-0.71502,-6.06,36.3,18.42
4.7263,-11.605,-0.7355,-0.39645,-0.73823,-1.0137,-6.0,36.36,18.3
4.3585,-12.054,-0.054481,-0.51679,-0.88117,-1.2019,-5.64,36.36,18.0
3.9227,-11.618,0.19068,-0.60628,-0.87537,-1.3424,-6.0,36.12,18.06
3.5413,-9.8611,0.16344,-0.66432,-0.72113,-1.4725,-6.18,35.88,18.3
3.3097,-8.6762,0.19068,-0.6466,-0.47953,-1.6429,-6.54,35.52,18.42
2.833,-6.5241,-0.081722,-0.57024,-0.27519,-1.8274,-7.2,34.92,18.66
2.6696,-5.7614,-0.081722,-0.43646,-0.12859,-2.0446,-8.1,34.32,18.78
2.7513,-6.0883,-0.19068,-0.35308,-0.17318,-2.1383,-9.12,33.48,19.14
2.9148,-6.8919,-0.095342,-0.31246,-0.3427,-2.175,-10.5,32.58,19.44
2.9965,-7.6819,-0.14982,-0.30299,-0.61178,-2.1231,-12.12,31.5,19.5
2.9965,-8.4719,-0.12258,-0.38271,-0.97494,-2.0021,-12.84,31.08,19.68
2.6151,-9.9837,-0.19068,-0.44135,-1.0259,-1.9612,-14.28,30.06,19.5
2.4108,-10.678,-0.16344,-0.55436,-1.0113,-1.8387,-15.0,29.58,19.5
2.1929,-10.924,-0.01362,-0.71838,-0.66493,-1.576,-15.78,29.04,19.38
1.6753,-10.937,-0.040861,-0.77152,-0.34972,-1.3598,-17.16,27.9,19.32
1.58,-10.665,-0.31327,-0.7422,-0.043677,-1.0974,-17.76,27.36,19.26
1.6072,-10.774,-0.16344,-0.66462,0.17471,-0.75228,-18.6,26.88,19.32
1.5936,-11.128,-0.38137,-0.53298,0.29077,-0.36408,-20.04,25.8,19.26
1.8932,-10.924,-0.35413,-0.3711,0.343,0.053145,-20.58,25.26,19.38
1.9613,-10.542,-0.44947,-0.21472,0.34758,0.45571,-21.12,24.66,19.26
1.8932,-12.122,-0.31327,-0.043066,0.20586,1.0855,-21.9,23.88,19.14
1.9477,-12.326,-0.040861,0.04612,0.17043,1.5049,-22.38,23.58,19.14
2.1112,-9.7658,-0.40861,0.1292,0.29444,1.752,-22.74,23.34,19.14
2.3155,-7.6546,-0.64016,0.26053,0.38087,1.8494,-23.1,22.8,19.38
2.4244,-7.3822,-1.185,0.59682,0.22266,1.7816,-23.16,22.62,19.5
2.4244,-7.7908,-1.4029,0.81276,-0.098044,1.7657,-23.22,22.5,19.56
2.7513,-10.202,-1.5119,0.93768,-0.37507,1.7501,-23.04,22.62,19.86
2.7786,-10.624,-1.2395,0.91324,-0.46823,1.748,-22.86,22.8,19.92
2.6968,-10.256,-0.83084,0.77672,-0.29444,1.7703,-22.38,23.22,19.86
2.4653,-8.5536,-0.99429,0.51954,0.36285,1.7868,-21.36,23.88,20.04
2.6015,-6.96,-1.6753,0.42791,0.77855,1.686,-20.7,24.54,19.98
2.6968,-6.279,-1.866,0.38668,1.0128,1.5519,-19.98,25.2,19.92
2.9692,-5.2711,-1.9613,0.3879,1.0107,1.4227,-18.6,26.34,19.98
3.228,-5.5435,-1.866,0.3766,0.87415,1.3149,-17.82,26.94,19.86
3.732,-6.0883,-2.0158,0.35033,0.67653,1.2394,-17.04,27.42,19.68
4.0589,-7.4503,-2.0294,0.25381,0.46487,1.1869,-15.54,28.8,19.32
4.304,-8.0632,-2.0431,0.1631,0.46426,1.1509,-14.82,29.46,19.26
4.5356,-8.6217,-1.975,0.078802,0.59865,1.0864,-14.1,30.0,19.2
4.6718,-9.3436,-2.0839,0.025656,0.81917,0.90011,-13.44,30.6,19.08
4.9578,-10.215,-2.2474,-0.012828,1.0919,0.64721,-12.54,31.8,18.48
5.2575,-10.706,-2.0975,-0.032681,1.285,0.40653,-12.0,32.22,18.36
5.7886,-11.482,-1.8932,-0.016188,1.2721,0.219,-11.7,32.52,18.06
6.3198,-12.027,-1.6072,0.013134,0.92943,-0.071777,-11.22,33.0,17.52
5.9657,-11.577,-1.5391,0.058338,0.61789,-0.2923,-11.16,33.24,17.46
5.7069,-12.054,-1.4846,0.089492,0.35613,-0.49816,-11.22,33.42,17.34
6.0883,-15.01,-0.85808,0.10354,0.16371,-0.59804,-11.1,33.66,17.16
6.1564,-14.778,-0.9398,0.10537,0.054062,-0.68539,-11.28,33.66,17.1
5.8567,-11.931,-1.3348,0.10354,-0.32315,-0.97525,-11.82,33.6,17.16
5.2983,-11.278,-1.2395,0.0956,-0.5174,-1.1387,-12.24,33.42,17.04
5.1213,-11.972,-0.89894,0.015577,-1.1649,-1.5259,-12.6,33.3,17.04
4.9714,-12.217,-0.53119,-0.03146,-1.3357,-1.6115,-12.9,33.18,16.92
4.6582,-12.313,-0.054481,-0.18845,-1.7562,-1.7898,-13.08,32.82,17.16
3.732,-11.795,-0.095342,-0.26267,-1.7681,-1.8491,-13.98,32.1,17.7
2.9284,-10.052,-0.20431,-0.30482,-1.361,-2.069,-14.46,31.74,18.18
2.3836,-8.0632,-0.38137,-0.29199,-1.1887,-2.1466,-15.42,30.66,19.14
2.4517,-7.2733,-0.50395,-0.27031,-0.88301,-2.2526,-15.9,30.0,19.44
2.6832,-6.7966,-0.64016,-0.24496,-0.84941,-2.2972,-16.2,29.4,19.98
2.6832,-7.0417,-0.70826,-0.27092,-1.1072,-2.2538,-17.16,28.02,21.12
2.6423,-7.3141,-0.57205,-0.31154,-1.3619,-2.157,-17.52,27.36,21.72
2.4108,-7.5184,-0.40861,-0.3769,-1.573,-2.0162,-18.0,26.58,22.26
1.9613,-8.1313,-0.32689,-0.49724,-1.5623,-1.7211,-18.6,25.08,23.46
1.6344,-8.7306,-0.27241,-0.55497,-1.347,-1.4484,-18.72,24.36,24.0
1.5391,-8.9758,-0.28603,-0.59895,-1.0198,-1.1484,-18.84,23.46,24.66
1.5119,-9.2482,-0.12258,-0.61942,-0.60353,-0.83658,-18.9,22.08,25.74
1.6208,-9.6023,-0.14982,-0.62094,-0.18082,-0.48655,-18.96,21.36,26.22
1.7979,-10.174,-0.28603,-0.60873,0.18265,-0.11545,-18.84,20.64,26.7
2.261,-11.087,-0.25879,-0.59346,0.5901,0.44776,-18.6,19.62,27.36
2.5198,-11.536,-0.29965,-0.57849,0.70127,0.62675,-18.42,18.96,27.72
2.7377,-11.55,-0.50395,-0.53451,0.87659,0.93585,-18.18,18.54,27.84
3.0918,-13.293,-0.31327,-0.45937,1.0104,1.3363,-17.52,17.82,28.14
3.2416,-14.002,-0.027241,-0.3934,1.1258,1.5708,-17.16,17.46,28.44
3.2553,-11.577,-0.20431,-0.28527,1.2938,1.6561,-16.62,16.92,28.8
3.4732,-7.4367,-0.6674,0.023213,1.2202,1.522,-16.38,16.8,29.04
3.4732,-6.9328,-1.4301,0.3543,0.74739,1.4306,-16.32,16.74,29.16
3.6094,-7.6819,-1.7298,0.6747,0.011912,1.3992,-16.14,16.68,29.28
3.6775,-10.855,-1.7843,0.90316,-0.66676,1.3796,-16.02,16.74,29.34
3.6775,-10.855,-1.7843,0.99663,-1.0776,1.3748,-16.02,16.74,29.34
3.1463,-10.283,-1.5391,0.905,-1.1081,1.4349,-15.42,17.1,29.34
2.6287,-8.7306,-1.866,0.61606,-0.67959,1.4251,-15.0,17.4,29.4
1.4982,-5.6661,-2.6015,0.51343,-0.46578,1.3909,-14.76,17.7,29.46
1.2122,-5.1894,-2.8875,0.32926,0.07758,1.2877,-13.98,18.42,29.64
1.3348,-5.2847,-2.833,0.16218,0.69761,1.201,-13.62,18.84,29.7
2.4789,-5.9249,-2.6832,-0.075747,1.4316,1.0825,-12.54,19.68,29.76
3.1872,-6.3879,-2.8058,-0.22724,1.7037,1.0079,-11.82,20.04,29.76
3.909,-7.0145,-2.6696,-0.36346,1.8124,0.90225,-11.28,20.58,29.82
4.413,-7.7227,-2.3972,-0.46487,1.8112,0.87323,-10.8,21.0,29.58
5.1621,-9.0848,-2.0839,-0.52107,1.7614,0.81551,-10.08,21.6,29.58
5.4481,-9.3844,-2.2474,-0.48014,1.7162,0.78252,-9.6,21.72,29.46
5.5843,-9.3163,-2.2474,-0.3824,1.6243,0.74128,-9.24,22.02,29.4
5.993,-9.4117,-2.3699,-0.2306,1.4676,0.73823,-9.18,22.26,29.34
6.3743,-9.8203,-2.1384,-0.091019,1.1264,0.76725,-9.3,22.56,29.1
6.6331,-10.678,-1.58,0.0058032,0.99785,0.76541,-9.6,22.68,28.74
6.4424,-11.032,-1.3484,0.095295,0.69242,0.65485,-9.78,22.8,28.68
6.3471,-11.85,-1.1305,0.12706,0.56872,0.61881,-9.96,22.92,28.5
7.0962,-15.05,-0.54481,0.14478,0.52718,0.62797,-10.44,23.1,28.2
7.355,-13.443,-0.57205,0.18204,0.43768,0.51465,-10.68,23.1,27.96
7.3958,-11.278,-0.74912,0.21533,0.085216,0.22388,-10.8,23.04,27.78
6.6059,-10.283,-0.89894,0.2865,-0.64843,-0.45754,-11.1,23.28,27.72
5.993,-11.264,-0.58567,0.31857,-1.2208,-0.90866,-11.1,23.34,27.54
5.3119,-11.891,-0.28603,0.29688,-1.6313,-1.2159,-11.22,23.4,27.42
4.985,-12.04,-0.16344,0.2416,-1.7251,-1.4343,-11.16,23.64,27.24
4.1814,-10.542,-0.39499,0.19792,-1.6176,-1.6206,-10.92,23.82,27.06
3.8137,-9.0031,-0.6674,0.22388,-1.4609,-1.8011,-10.56,23.76,27.0
3.1735,-6.3743,-1.3212,0.28833,-1.3885,-2.0265,-10.08,23.58,26.94
3.051,-5.8431,-1.5527,0.29688,-1.4267,-2.0733,-9.72,23.58,26.94
2.9556,-5.7205,-1.5936,0.28619,-1.6386,-2.1316,-9.48,23.34,26.94
2.6968,-6.1564,-1.3212,0.16829,-2.1151,-2.0766,-9.06,22.92,26.76
2.5061,-7.0009,-1.2667,0.034514,-2.2675,-1.9627,-8.82,22.86,26.58
2.3699,-8.9622,-1.2939,-0.16585,-2.2907,-1.8027,-8.76,22.74,26.4
1.757,-9.9292,-1.1441,-0.44624,-1.9664,-1.5104,-8.16,22.38,25.92
1.9613,-11.128,-0.81722,-0.53634,-1.7312,-1.445,-7.8,22.32,25.74
1.9613,-11.931,-0.62654,-0.71532,-1.1539,-1.3158,-7.44,22.2,25.62
1.7706,-12.217,-0.34051,-0.94195,-0.19731,-1.0846,-6.9,21.78,25.32
1.4574,-11.754,-0.20431,-1.0345,0.38515,-0.89736,-6.84,21.48,25.02
1.2803,-11.032,-0.068102,-1.0348,0.86957,-0.63438,-6.84,21.3,24.9
1.2258,-11.264,-0.12258,-0.87934,1.2413,-0.046426,-6.6,20.88,24.3
1.6072,-11.319,-0.34051,-0.71532,1.27,0.39401,-6.6,20.7,24.0
1.9613,-10.801,-0.84446,-0.62003,1.2101,0.60323,-6.54,20.4,23.7
1.8115,-12.095,-0.40861,-0.33811,0.83505,1.2321,-6.54,20.04,23.16
1.8251,-12.258,-0.027241,-0.21869,0.73487,1.6203,-6.66,19.74,23.16
2.0294,-10.365,-0.040861,-0.13042,0.74862,1.7914,-6.78,19.62,22.98
2.5061,-7.069,-1.0215,0.18448,0.52473,1.8228,-6.9,19.14,22.98
2.5879,-7.1779,-1.4165,0.45632,0.15547,1.8091,-7.08,18.96,22.92
2.833,-8.54,-1.8387,0.58582,-0.072388,1.8204,-7.26,18.84,22.86
3.2144,-11.032,-1.471,0.83444,-0.60995,1.8253,-7.26,18.84,22.8
3.2144,-11.032,-1.471,0.78343,-0.5962,1.8311,-7.26,18.84,22.8
3.051,-10.815,-0.89894,0.6463,-0.29658,1.813,-7.14,19.02,22.8
2.6015,-6.8647,-1.3484,0.50702,0.18784,1.6628,-6.48,19.44,22.5
2.656,-5.7069,-1.8524,0.36774,0.86957,1.4978,-6.24,19.74,22.56
2.7241,-5.0259,-2.3018,0.33292,1.0489,1.3192,-5.76,20.04,22.38
3.337,-4.9306,-2.5606,0.30635,0.967,1.1887,-4.86,20.76,22.5
3.8001,-5.5162,-2.3291,0.24312,0.79321,1.1023,-4.5,21.12,22.44
3.9635,-6.0611,-2.261,0.16005,0.66523,1.0336,-3.96,21.54,22.2
4.3449,-7.927,-2.3018,0.056505,0.63927,0.97402,-2.76,22.32,21.84
4.413,-9.0984,-2.0703,-0.036041,0.67898,0.93279,-2.28,22.74,21.72
4.3994,-9.4525,-2.0431,-0.062919,0.98655,0.83475,-1.74,23.16,21.66
4.6445,-9.7385,-2.1248,-0.021075,1.1426,0.78007,-1.2,23.46,21.48
5.38,-10.692,-2.547,0.087048,1.0437,0.69058,-0.36,24.12,21.18
5.6524,-11.196,-2.2746,0.19059,0.81337,0.56077,-0.06,24.24,21.0
6.0474,-11.55,-1.7979,0.2697,0.53878,0.36866,0.18,24.54,21.12
5.7614,-11.659,-1.866,0.2926,0.29841,0.04215,0.42,24.96,20.94
5.4073,-13.089,-1.471,0.24832,0.22205,-0.1628,0.54,25.08,20.94
5.8704,-15.65,-0.81722,0.15088,0.23732,-0.27519,0.54,25.5,20.82
6.0202,-15.718,-0.62654,0.037568,0.25412,-0.39523,0.66,25.8,20.76
5.6116,-11.359,-0.65378,0.0015272,0.21258,-0.58704,0.6,26.22,20.76
5.489,-10.161,-0.8036,-0.0045815,0.016799,-0.86834,0.42,26.52,20.64
4.9033,-11.21,-0.51757,0.041844,-0.39981,-1.1652,0.24,27.12,20.52
4.7263,-11.891,-0.17706,0.093768,-1.073,-1.4184,-0.3,27.36,20.4
4.5901,-12.054,0.095342,0.091019,-1.2312,-1.5006,-0.42,27.78,20.28
3.8273,-10.61,0.19068,0.10293,-1.3326,-1.7425,-1.2,28.26,19.98
3.3778,-9.0848,-0.095342,0.12095,-1.211,-1.9178,-1.68,28.62,19.86
3.1054,-7.8181,-0.36775,0.16127,-1.131,-2.0516,-2.28,28.86,19.56
2.9556,-6.5378,-0.64016,0.23518,-1.2379,-2.1643,-3.54,29.28,19.44
2.9556,-6.3471,-0.99429,0.24038,-1.4838,-2.1603,-4.44,29.4,19.38
3.051,-6.4016,-1.076,0.21747,-1.8485,-2.1228,-5.28,29.46,19.2
2.7649,-6.9872,-0.77636,0.13073,-2.1615,-2.0336,-7.26,29.46,18.96
2.4244,-8.322,-0.5993,-0.01069,-2.2703,-1.9224,-8.28,29.52,18.96
2.3018,-9.2755,-0.44947,-0.17898,-2.1854,-1.7425,-9.18,29.46,19.08
1.9205,-10.992,-0.28603,-0.44776,-1.6591,-1.4044,-11.04,29.46,18.96
1.7843,-11.741,-0.14982,-0.59895,-1.1115,-1.193,-12.0,29.16,18.96
1.6753,-12.149,-0.01362,-0.72052,-0.45815,-0.98288,-12.84,28.8,19.08
1.6344,-11.782,0.31327,-0.78007,0.17196,-0.76938,-14.52,28.32,19.5
1.9886,-11.645,0.28603,-0.74037,0.62125,-0.50549,-15.3,27.96,19.68
2.1656,-11.305,0.24517,-0.5959,0.84605,-0.19273,-16.02,27.6,19.98
2.7649,-10.706,-0.31327,-0.37782,0.82345,0.16188,-17.4,26.82,20.28
2.8467,-10.474,-0.57205,-0.058643,0.40928,0.69975,-18.0,26.58,20.22
3.1463,-11.536,-0.38137,0.018021,0.23732,0.87354,-18.3,26.28,20.4
2.7649,-11.863,-0.19068,0.16829,-0.0033598,1.3943,-18.9,25.68,20.82
2.6423,-9.8475,-0.44947,0.22785,0.06689,1.5882,-19.14,25.62,21.06
2.7104,-6.96,-0.70826,0.34819,0.082772,1.6527,-19.38,25.32,21.36
2.833,-6.0202,-1.6617,0.66554,-0.23732,1.6102,-19.44,24.9,21.9
2.7377,-7.8726,-1.7979,0.80054,-0.53115,1.5876,-19.5,24.96,22.08
2.6968,-9.0303,-1.8524,0.83383,-0.6915,1.6047,-19.38,25.14,22.38
2.7241,-10.46,-1.7162,0.74403,-0.61881,1.6194,-19.14,25.26,22.62
2.4244,-10.433,-0.95342,0.53298,-0.25473,1.6328,-18.48,25.68,22.92
1.9613,-8.826,-0.78998,0.28924,0.43982,1.6081,-18.0,25.98,23.1
1.9068,-7.5729,-1.4029,0.10507,1.2694,1.5635,-17.4,26.28,23.28
2.6696,-5.5707,-1.6753,0.057116,1.8216,1.4313,-15.84,27.0,23.7
2.9284,-5.1485,-1.866,0.09499,1.9847,1.3121,-15.12,27.6,23.94
3.1191,-5.1894,-1.9477,0.24038,1.6347,1.1826,-14.4,28.02,24.06
4.018,-5.9249,-1.9613,0.2978,1.175,1.1671,-13.14,28.98,24.12
4.1951,-6.4016,-2.0567,0.33262,0.61514,1.1887,-12.54,29.52,24.0
4.522,-8.2539,-2.3155,0.30543,0.12492,1.1906,-12.0,29.94,24.0
4.6854,-8.9758,-2.3427,0.18631,-0.26786,1.1173,-10.62,31.2,23.88
4.5083,-9.6023,-2.3018,0.13897,-0.25687,1.0455,-9.96,31.62,23.82
4.1814,-9.9565,-2.4108,0.041233,0.13347,0.73182,-9.36,32.1,23.76
4.3994,-11.114,-2.3836,-0.000916,0.53329,0.52382,-8.28,32.94,23.58
4.7944,-11.863,-2.1248,-0.030849,0.94104,0.35155,-7.86,33.3,23.46
5.1213,-11.918,-1.757,-0.04612,1.2892,0.10599,-7.14,34.2,23.1
5.2847,-11.427,-1.5391,-0.047342,1.3528,-0.062308,-6.78,34.56,22.92
5.5162,-12.844,-1.0896,-0.052229,1.2193,-0.1799,-6.54,34.8,22.8
5.8431,-14.097,-0.77636,-0.055283,1.1179,-0.17868,-6.24,35.04,22.74
6.3471,-13.893,-0.55843,-0.082161,0.81153,-0.12462,-5.58,35.52,22.62
6.3198,-12.068,-0.50395,-0.083689,0.43188,-0.24557,-5.28,35.7,22.44
5.7069,-11.128,-0.51757,-0.068111,0.025656,-0.56474,-4.98,35.94,22.5
5.203,-11.591,-0.35413,-0.01741,-0.5507,-1.1555,-4.86,36.18,22.26
4.699,-11.754,-0.17706,-0.0027489,-0.7422,-1.3173,-4.86,36.24,22.2
4.2904,-11.659,-0.027241,0.013744,-1.0458,-1.5837,-4.92,36.24,21.96
3.7456,-10.515,-0.081722,-0.0064141,-1.0708,-1.8928,-5.22,36.24,21.36
3.337,-8.8941,-0.28603,-0.015577,-0.97433,-2.0207,-5.52,36.3,21.24
3.1463,-7.8862,-0.58567,0.018631,-0.91569,-2.1279,-5.82,36.24,21.12
2.9011,-6.6059,-1.1577,0.050702,-1.0867,-2.2678,-6.54,35.76,20.94
2.7922,-6.3471,-1.2258,0.054978,-1.2043,-2.2819,-7.02,35.64,20.76
2.7104,-6.4833,-1.1577,-0.0012217,-1.6848,-2.2394,-7.62,35.58,20.52
2.547,-7.2188,-1.0624,-0.093157,-1.9236,-2.1322,-8.34,35.46,20.28
2.3018,-8.1177,-0.88532,-0.21105,-2.0198,-1.9422,-9.78,34.98,19.86
2.0839,-8.9758,-0.88532,-0.33781,-1.9603,-1.7171,-10.5,34.62,19.5
1.866,-9.6432,-0.8036,-0.4609,-1.7443,-1.4313,-12.12,33.84,18.96
1.3212,-10.815,-0.46309,-0.63988,-1.1286,-0.92638,-12.84,33.36,18.6
1.3212,-10.91,-0.27241,-0.72021,-0.54856,-0.56597,-13.74,33.0,18.6
1.3757,-10.951,-0.16344,-0.73365,-0.012217,-0.21014,-14.58,32.7,18.66
1.9341,-11.019,0.01362,-0.68295,0.37232,0.1408,-15.9,31.74,18.54
2.1793,-11.21,0.01362,-0.58154,0.61087,0.4945,-16.68,31.26,18.6
2.6696,-10.896,-0.12258,-0.35003,0.73701,0.96333,-17.82,30.66,18.54
2.833,-10.964,-0.32689,-0.19364,0.65973,1.1805,-18.36,30.24,18.6
3.0918,-12.204,-0.095342,-0.098349,0.49511,1.4264,-18.72,29.94,18.72
3.0782,-12.585,0.068102,0.0045815,0.43341,1.5882,-18.96,29.58,18.84
2.8194,-9.6977,-0.040861,0.086437,0.43341,1.5934,-19.32,29.28,19.14
2.5742,-7.7636,-0.31327,0.21319,0.3656,1.5159,-19.38,29.22,19.5
2.547,-7.8317,-0.98067,0.43555,0.23274,1.4407,-19.44,29.22,19.62
2.7649,-9.5342,-1.471,0.76572,-0.037263,1.3625,-19.02,29.34,20.28
2.9284,-10.515,-1.6344,0.89186,-0.1799,1.347,-18.9,29.58,20.4
2.9965,-10.801,-1.5527,0.87568,-0.19792,1.3607,-18.54,29.7,20.4
2.7786,-10.12,-1.4165,0.74923,-0.023213,1.3796,-18.18,29.88,20.58
2.5879,-7.9407,-1.6072,0.60262,0.25351,1.3799,-17.46,30.66,20.52
2.4789,-6.0474,-2.0567,0.52015,0.48045,1.3237,-17.04,31.14,20.58
2.5879,-4.7807,-2.5198,0.48442,0.61117,1.2327,-15.78,32.1,20.52
2.7513,-4.5083,-2.5742,0.48045,0.53512,1.1649,-15.12,32.64,20.46
2.9284,-4.7399,-2.547,0.45632,0.32345,1.1051,-14.52,33.3,20.28
3.1191,-6.1292,-2.5606,0.34819,0.10965,1.0898,-13.14,34.26,20.16
3.5685,-7.7091,-2.3155,0.22907,0.10446,1.0989,-12.54,34.8,19.86
3.732,-8.826,-2.0294,0.081856,0.27458,1.0968,-11.88,35.1,19.8
4.018,-10.351,-1.8524,-0.085216,0.8995,0.96333,-10.68,36.24,19.38
4.2087,-10.27,-2.0431,-0.11545,1.1518,0.87018,-10.08,36.48,19.2
4.413,-10.025,-2.0294,-0.094073,1.566,0.60598,-9.48,37.02,19.02
5.5026,-10.828,-2.2201,0.084299,1.5143,0.33872,-8.82,37.8,18.54
6.0202,-11.482,-2.1112,0.21716,1.113,0.20097,-8.4,38.22,18.36
6.1292,-11.645,-1.9341,0.29596,0.5568,0.036652,-8.1,38.28,18.24
5.0668,-11.373,-1.8932,0.27184,0.067806,-0.26542,-7.74,38.88,17.94
4.7944,-12.708,-1.4165,0.25901,0.022907,-0.35736,-7.68,39.18,17.76
5.0531,-14.288,-1.2395,0.16432,0.060476,-0.37599,-7.5,39.3,17.58
5.489,-12.64,-1.5527,0.034208,0.12126,-0.4215,-7.56,39.6,17.28
5.2166,-11.319,-1.4438,-0.026267,-0.0097738,-0.60292,-7.8,39.72,17.28
5.0259,-11.822,-1.1441,-0.11973,-0.18204,-0.84849,-7.98,40.02,17.22
4.9442,-12.299,-0.38137,-0.2361,-0.54825,-1.179,-8.58,39.84,16.86
4.6309,-11.904,-0.19068,-0.28711,-0.81764,-1.3335,-8.82,39.9,16.62
4.3994,-11.55,-0.081722,-0.30665,-0.93554,-1.4743,-9.36,39.84,16.56
3.514,-9.4117,-0.21793,-0.27,-0.91141,-1.6197,-10.26,39.66,16.74
3.2144,-8.1177,-0.53119,-0.18326,-0.82772,-1.8207,-10.8,39.48,16.8
3.0646,-7.4095,-0.85808,-0.078191,-0.81001,-2.0,-11.34,39.42,16.68
2.8739,-6.8647,-1.0488,-0.02474,-0.90042,-2.1548,-12.06,39.12,16.86
2.8058,-7.0962,-0.92618,-0.13408,-1.5519,-2.1927,-14.64,37.56,17.22
2.8058,-7.0962,-0.92618,-0.13408,-1.5519,-2.1927,-14.64,37.56,17.22
2.6832,-7.4367,-0.72188,-0.19181,-1.6994,-2.1451,-15.48,37.08,17.28
2.3427,-8.2812,-0.49033,-0.40959,-1.8338,-1.9209,-16.5,36.6,17.4
2.0431,-9.4798,-0.35413,-0.52962,-1.6796,-1.6829,-18.12,35.34,17.64
1.7025,-10.406,-0.28603,-0.63897,-1.3622,-1.3757,-19.08,34.92,17.76
1.471,-10.42,-0.01362,-0.70952,-0.88392,-1.0339,-20.58,33.78,18.3
1.471,-10.052,0.095342,-0.74373,-0.3149,-0.69639,-21.3,33.18,18.6
1.6753,-9.8475,0.095342,-0.72693,0.20647,-0.37965,-22.08,32.64,18.66
1.8251,-10.025,0.20431,-0.59132,0.67256,0.11118,-22.62,32.1,18.78
2.4517,-10.76,0.12258,-0.42822,0.76236,0.47037,-23.82,30.96,19.38
2.8058,-10.992,-0.10896,-0.14386,0.59071,0.99113,-24.18,30.48,19.5
3.0918,-12.286,0.027241,-0.066279,0.49633,1.1396,-24.78,29.76,19.8
3.1054,-13.457,0.095342,0.12278,0.28344,1.6732,-24.9,29.64,19.86
3.1599,-13.198,0.095342,0.16585,0.29688,1.8176,-25.02,29.52,19.92
3.0373,-8.1995,-0.36775,0.35003,0.40714,1.9239,-24.9,29.52,20.4
3.1191,-6.5105,-0.8036,0.55986,0.32742,1.7712,-24.66,29.52,20.46
3.0918,-6.0474,-1.5391,0.821,0.01741,1.5748,-24.3,29.46,20.58
2.9148,-9.3572,-2.0431,1.0635,-0.70341,1.4102,-23.76,30.0,20.64
3.0918,-11.877,-1.7434,1.077,-0.89675,1.4074,-23.22,30.24,20.52
3.0373,-12.217,-1.5527,0.95784,-0.99052,1.398,-22.44,30.66,20.58
2.7922,-11.645,-0.9398,0.51679,-0.32376,1.3552,-21.78,31.14,20.64
1.8251,-8.0224,-1.0624,0.25168,0.54092,1.2648,-20.16,32.28,20.4
1.866,-6.5105,-1.5936,0.096517,1.6441,1.0427,-19.32,32.94,20.4
2.6696,-4.8761,-2.4789,0.12339,1.7953,0.87476,-17.52,34.08,20.28
2.8058,-5.0259,-2.3563,0.21014,1.5204,0.75717,-16.74,34.62,20.16
3.0782,-5.3256,-2.152,0.23274,1.1625,0.71532,-16.08,35.28,19.98
3.6094,-6.0202,-1.8387,0.22297,0.78679,0.73915,-14.58,36.24,19.38
3.8273,-6.8783,-1.8524,0.15363,0.51465,0.8039,-13.8,36.66,19.08
3.9227,-8.0224,-2.0567,0.064752,0.37018,0.85032,-13.26,37.14,18.96
3.9227,-9.1937,-2.1384,-0.083078,0.53939,0.83261,-12.24,38.04,18.48
3.8273,-9.5479,-2.0975,-0.11668,0.87262,0.7422,-11.82,38.46,18.42
4.127,-9.9292,-2.0567,-0.1182,1.2208,0.6298,-11.4,38.82,18.18
4.9987,-10.951,-1.866,-0.070555,1.3659,0.55497,-10.98,39.18,17.76
5.6116,-11.891,-1.8932,0.012828,1.3317,0.489,-10.86,39.48,17.58
5.8295,-12.054,-1.8796,0.1066,1.135,0.36835,-10.8,39.66,17.28
5.5026,-11.087,-1.6617,0.21411,0.66706,0.075747,-10.74,40.08,16.56
5.4754,-12.313,-1.3076,0.24587,0.34056,-0.055283,-10.62,40.26,16.2
5.6933,-13.334,-1.1577,0.22633,0.09163,-0.090408,-10.32,40.32,16.08
5.9657,-13.607,-1.2258,0.17165,-0.087659,-0.15211,-10.38,40.5,15.78
5.7069,-11.032,-1.5936,0.11912,-0.37293,-0.34331,-10.44,40.68,15.72
5.1485,-11.25,-1.1986,0.032681,-0.65882,-0.65393,-10.56,40.86,15.6
4.9578,-12.068,-0.65378,-0.068722,-0.8714,-0.94837,-10.8,40.8,15.42
4.4675,-12.299,-0.36775,-0.18845,-1.0507,-1.1707,-10.98,40.8,15.3
4.127,-11.891,-0.20431,-0.33689,-1.1087,-1.4386,-11.22,40.74,15.3
3.7728,-11.346,-0.12258,-0.35613,-1.0418,-1.5272,-11.52,40.68,15.3
3.2689,-9.6023,-0.31327,-0.33201,-0.72968,-1.8164,-11.82,40.62,15.3
2.7922,-7.3822,-0.64016,-0.27642,-0.56108,-1.9984,-12.66,40.02,15.66
2.7922,-6.8102,-0.9398,-0.19517,-0.61392,-2.153,-13.2,39.78,16.02
2.8739,-6.7148,-1.2667,-0.16035,-0.71532,-2.1661,-14.46,39.0,16.5
2.8058,-7.0553,-0.88532,-0.1909,-1.1484,-2.1066,-15.24,38.64,17.1
2.7241,-7.5321,-0.77636,-0.28253,-1.3778,-2.0067,-15.9,38.1,17.58
2.5742,-8.1041,-0.62654,-0.40348,-1.4743,-1.8671,-16.62,37.62,17.88
2.0294,-9.0575,-0.53119,-0.51221,-1.4117,-1.6701,-18.36,36.36,18.42
1.866,-9.3163,-0.46309,-0.59346,-1.0336,-1.3231,-19.02,35.82,18.72
1.6344,-9.8203,-0.17706,-0.66187,-0.66829,-1.0537,-20.52,34.5,19.5
1.6889,-9.9565,-0.095342,-0.65546,-0.2755,-0.76511,-21.18,33.96,19.86
1.7979,-9.9837,-0.054481,-0.60995,0.037874,-0.45112,-21.78,33.42,20.16
2.2201,-10.215,-0.054481,-0.51496,0.21594,-0.13164,-22.56,32.34,21.12
2.3972,-10.61,-0.10896,-0.38271,0.27428,0.19945,-23.04,31.98,21.42
2.5606,-10.91,-0.29965,-0.17501,0.22113,0.65729,-23.58,31.2,21.96
2.1656,-10.992,-0.16344,-0.094684,0.17226,0.93126,-23.58,30.84,22.32
1.7843,-12.122,0.19068,-0.075747,0.23518,1.2654,-23.52,30.36,22.38
1.5391,-12.694,0.27241,-0.047953,0.51496,1.5473,-23.4,30.3,22.5
2.0294,-10.256,-0.12258,0.0079412,0.87048,1.6551,-22.98,30.06,22.98
2.2474,-7.9679,-0.29965,0.15608,0.97097,1.6307,-22.74,30.0,23.28
2.3972,-7.6138,-0.70826,0.41753,0.8378,1.5614,-22.38,30.06,23.58
2.8603,-9.6568,-1.6617,0.82253,0.27214,1.5168,-21.6,30.36,23.94
3.051,-10.297,-1.6889,0.96639,-0.12584,1.503,-21.12,30.6,24.0
3.0237,-10.46,-1.6481,0.95203,-0.34728,1.5229,-20.52,30.96,24.06
2.8739,-9.3299,-1.0624,0.80909,-0.32895,1.555,-19.32,31.68,23.76
2.6151,-8.0632,-1.185,0.62094,-0.093462,1.5379,-18.6,32.16,23.58
2.3155,-6.1564,-1.8932,0.48381,0.25198,1.4771,-17.64,32.58,23.52
2.3018,-5.8431,-2.1112,0.35827,0.74648,1.3396,-16.2,33.84,23.34
2.4653,-5.9793,-2.1656,0.3094,0.8772,1.2511,-15.3,34.44,23.16
2.6968,-6.279,-1.9613,0.2755,0.92943,1.223,-14.46,34.98,22.92
3.514,-7.2324,-1.8251,0.17837,1.0754,1.1716,-12.78,36.18,22.2
4.018,-8.1177,-1.8251,0.10201,1.1292,1.1469,-11.94,36.84,21.78
4.2223,-8.7306,-1.7979,0.051924,1.1668,1.1161,-11.04,37.38,21.24
4.7944,-9.5206,-1.8115,0.046426,1.215,0.97586,-9.54,38.46,20.58
5.094,-9.4389,-1.975,0.11393,1.106,0.82406,-8.94,38.94,20.16
5.203,-9.4934,-2.1929,0.1573,0.97525,0.74892,-8.28,39.36,19.92
5.5162,-10.093,-2.0567,0.29077,0.37721,0.58215,-7.8,39.84,19.5
5.5571,-11.387,-1.8932,0.32376,0.033903,0.48808,-6.72,40.56,18.78
5.1621,-11.945,-1.9341,0.32009,-0.11118,0.3708,-6.24,40.92,18.36
4.7535,-11.795,-1.757,0.26328,-0.0076358,0.16463,-5.88,41.04,18.06
4.9578,-14.478,-1.1577,0.14752,0.27825,0.0024435,-5.16,41.58,17.28
5.5843,-14.247,-1.2258,0.051618,0.42211,-0.055894,-4.92,41.76,16.98
5.5435,-12.926,-1.4301,0.018021,0.39798,-0.14966,-4.56,42.0,16.86
5.2166,-10.42,-1.4165,-0.085216,0.035736,-0.58857,-4.44,42.24,16.56
4.9987,-11.25,-0.5993,-0.1405,-0.34514,-0.85521,-4.26,42.3,16.08
5.0804,-12.163,-0.34051,-0.25198,-0.96456,-1.1652,-4.26,42.48,15.78
4.6445,-12.926,-0.054481,-0.29841,-1.1161,-1.2553,-4.32,42.72,15.3
3.8137,-12.803,0.027241,-0.36438,-1.1887,-1.4432,-4.44,42.72,15.12
3.5277,-11.931,0.040861,-0.42516,-0.72174,-1.806,-4.5,42.72,14.94
2.9148,-9.1256,-0.095342,-0.41539,-0.40653,-2.0806,-5.28,42.6,14.94
2.8739,-8.0088,-0.16344,-0.38301,-0.28039,-2.2733,-6.0,42.42,14.88
2.7922,-7.355,-0.44947,-0.3259,-0.3262,-2.4053,-6.78,42.3,14.88
3.1463,-6.9464,-0.64016,-0.25565,-0.73823,-2.4648,-8.52,41.76,15.12
3.051,-7.069,-0.62654,-0.26084,-1.1726,-2.4447,-9.66,41.34,15.3
2.9692,-7.2596,-0.62654,-0.31185,-1.558,-2.3726,-10.74,40.98,15.42
2.3291,-8.5127,-0.39499,-0.40561,-1.6976,-2.2355,-12.9,40.08,15.6
2.1112,-9.2074,-0.20431,-0.53115,-1.6655,-2.0546,-14.34,39.66,15.78
1.8251,-9.7249,-0.12258,-0.63622,-1.4645,-1.7962,-15.54,39.0,16.02
1.4574,-10.351,-0.054481,-0.74464,-0.97708,-1.3027,-18.18,37.74,16.62
1.4165,-10.774,-0.054481,-0.73976,-0.53542,-0.93218,-19.38,37.14,16.92
1.5391,-10.733,0.24517,-0.7251,-0.32895,-0.7254,-20.82,36.48,17.16
1.8387,-10.501,0.47671,-0.54886,0.021991,-0.078802,-21.72,35.76,17.28
2.5742,-10.474,0.21793,-0.33537,-0.12187,0.38026,-23.76,34.44,17.7
2.833,-10.569,-0.054481,-0.0956,-0.40959,0.80146,-24.42,33.96,17.94
2.7649,-11.128,0.068102,0.24251,-0.81489,1.2996,-25.44,32.94,18.36
2.5879,-12.313,0.28603,0.41264,-0.86071,1.679,-25.68,32.58,18.66
2.5061,-12.449,0.32689,0.45968,-0.76328,1.8326,-25.86,32.28,18.96
2.2474,-9.221,0.12258,0.57146,-0.18723,1.9438,-25.8,32.04,19.5
2.1112,-7.5729,-0.01362,0.6802,0.25259,1.7972,-25.38,32.04,19.8
2.0703,-6.9464,-0.6674,0.85704,0.50519,1.6316,-24.96,32.04,20.1
2.1384,-8.8124,-1.4438,1.1188,0.46762,1.4548,-23.64,32.04,20.52
2.5879,-10.27,-1.7979,1.1631,0.4102,1.4468,-22.92,32.34,20.58
2.8058,-10.855,-1.757,1.065,0.43677,1.4594,-21.9,32.64,20.7
3.0373,-10.937,-1.471,0.80756,0.58521,1.4704,-21.18,33.18,20.7
2.7241,-8.8124,-0.77636,0.49297,0.89919,1.4258,-19.26,34.08,20.76
2.3291,-7.3277,-1.1441,0.2587,1.2517,1.3522,-18.18,34.5,20.58
2.7513,-5.9521,-2.2065,0.15791,1.5043,1.2477,-17.34,35.04,20.34
2.9284,-5.7342,-2.2474,0.17562,1.3763,1.0977,-15.36,36.06,19.8
2.9284,-5.7342,-2.2474,0.21136,1.2627,1.066,-15.36,36.06,19.8
3.1327,-5.8431,-2.1248,0.27214,0.90775,1.0571,-14.58,36.6,19.62
3.732,-7.0417,-2.2201,0.28527,0.72113,1.0938,-12.9,37.44,18.9
4.0044,-7.75,-2.152,0.24984,0.55619,1.1246,-12.24,37.86,18.66
4.2223,-8.4446,-2.0975,0.17654,0.4047,1.1041,-10.92,38.82,17.76
4.1951,-9.9565,-2.3018,0.16799,0.40042,1.0629,-10.2,39.3,17.34
4.3858,-10.12,-2.2474,0.146,0.45326,0.93187,-9.66,39.42,16.92
4.6037,-10.447,-2.0839,0.13103,0.56627,0.77855,-9.24,39.78,16.74
5.0259,-11.414,-1.9477,0.13347,0.61728,0.54398,-8.16,40.44,16.02
5.1213,-11.959,-1.6753,0.11148,0.60628,0.36163,-7.8,40.62,15.78
5.094,-11.931,-1.4165,0.048258,0.68722,0.035125,-7.5,40.74,15.66
5.0531,-12.626,-0.92618,0.039401,0.69944,-0.073304,-7.08,41.16,15.42
5.884,-14.383,-0.65378,-0.021991,0.56413,-0.12431,-6.84,41.34,15.24
6.1564,-13.443,-0.65378,-0.03543,0.51404,-0.14661,-6.54,41.34,15.0
6.0611,-12.381,-0.49033,-0.10812,0.051618,-0.39462,-6.42,41.28,15.0
5.9793,-11.795,-0.24517,-0.14875,-0.30788,-0.72785,-6.36,41.46,14.76
5.7069,-12.64,-0.24517,-0.23152,-0.78282,-1.3329,-6.42,41.46,14.58
4.5764,-12.667,0.40861,-0.2474,-1.022,-1.6811,-6.72,41.04,14.7
4.2904,-12.612,0.40861,-0.25107,-1.1066,-1.989,-6.96,40.98,14.94
4.0861,-12.395,0.39499,-0.24129,-1.0623,-2.1512,-7.32,40.68,15.0
3.5413,-10.202,0.21793,-0.18326,-0.87262,-2.5672,-8.16,40.02,15.48
3.2144,-9.0712,-0.027241,-0.11087,-0.85765,-2.7877,-8.7,39.6,15.84
2.9692,-8.3084,-0.23155,-0.064446,-0.9053,-2.8946,-9.42,39.24,16.26
2.9148,-7.5048,-0.58567,-0.026573,-1.2165,-2.9325,-10.74,38.04,16.8
2.7649,-7.641,-0.8036,-0.044899,-1.3827,-2.8891,-11.52,37.44,17.22
2.7377,-8.0224,-0.76274,-0.17654,-1.81,-2.7064,-12.48,36.78,17.7
2.2882,-8.3901,-0.50395,-0.3317,-1.9041,-2.5403,-14.1,35.34,18.36
1.975,-8.6081,-0.34051,-0.49847,-1.8253,-2.3237,-15.0,34.5,18.78
1.757,-8.9758,-0.46309,-0.71899,-1.4936,-1.9227,-16.5,33.24,19.68
1.1577,-9.3572,-0.28603,-0.81489,-1.1561,-1.5968,-17.22,32.64,20.04
0.99429,-9.6704,-0.17706,-0.84758,-0.93157,-1.4248,-17.88,32.1,20.22
1.0079,-9.8611,-0.14982,-0.85949,-0.44838,-1.0321,-18.36,31.44,20.52
1.4982,-9.8611,0.10896,-0.7532,0.13531,-0.29108,-19.44,30.18,21.06
1.7979,-9.902,0.19068,-0.60323,0.37477,0.22816,-19.92,29.7,21.12
2.1384,-10.134,-0.095342,-0.4105,0.48014,0.74159,-20.28,28.8,21.42
2.6015,-10.065,-0.10896,-0.078191,0.45845,1.306,-20.34,28.44,21.66
2.6423,-11.387,0.040861,0.0012217,0.40836,1.4844,-20.4,28.02,21.84
2.833,-12.572,0.19068,0.21044,0.33139,2.0711,-20.28,27.9,22.14
2.9148,-10.474,0.35413,0.28039,0.37843,2.2,-19.74,27.84,22.62
2.9284,-8.8805,0.16344,0.38149,0.39584,2.1625,-19.5,27.96,22.8
2.8058,-8.7034,-0.095342,0.51985,0.38362,2.1209,-19.08,28.02,22.92
2.6832,-10.174,-0.61292,0.77458,0.22022,2.0653,-18.42,28.14,23.34
2.833,-11.101,-0.84446,0.86834,0.18204,2.0766,-18.0,28.2,23.58
2.9692,-11.441,-0.89894,0.86834,0.28558,2.0528,-17.34,28.5,23.76
3.0646,-10.46,-0.89894,0.76022,0.49877,2.0241,-15.72,29.34,23.94
2.8058,-9.1801,-0.81722,0.58765,0.81367,1.9276,-14.76,29.82,24.06
2.5606,-7.8453,-1.1441,0.44868,1.1729,1.8085,-13.92,30.42,24.06
2.6968,-6.3607,-1.5936,0.32803,1.4019,1.6686,-12.24,31.38,24.18
3.0373,-6.4152,-1.7706,0.29688,1.3103,1.6307,-11.28,32.16,24.12
3.1872,-6.6876,-1.7979,0.28588,1.1909,1.6078,-10.38,32.76,23.94
3.2553,-6.96,-1.9341,0.281,1.135,1.6139,-9.66,33.3,23.88
3.6775,-7.6683,-2.1248,0.2419,1.0232,1.6619,-7.62,34.38,23.46
4.0589,-8.431,-2.0567,0.19517,1.0162,1.7019,-6.78,34.92,23.1
4.6718,-9.6977,-1.9613,0.146,1.0333,1.6842,-5.76,35.52,22.98
4.6718,-9.7249,-2.0839,0.1292,1.0681,1.5864,-3.96,36.54,22.32
4.9987,-9.6432,-2.0703,0.16096,1.0394,1.3207,-3.3,37.02,22.14
5.2302,-10.12,-2.1112,0.23182,0.8378,1.189,-2.7,37.38,21.96
5.7342,-10.896,-1.8387,0.30177,0.57421,1.0574,-2.04,37.74,21.54
6.0611,-11.359,-1.7979,0.36682,0.28863,0.90072,-1.08,38.58,21.06
6.0883,-11.087,-1.7843,0.38454,-0.094684,0.46334,-0.42,38.76,20.7
5.7342,-12.967,-1.2667,0.35736,-0.19364,0.2926,0.66,39.3,20.22
5.9385,-14.519,-1.0896,0.21289,-0.37446,-0.020159,1.26,39.54,19.98
6.0883,-14.438,-1.1577,0.11851,-0.38485,-0.14172,1.8,39.84,19.8
5.6252,-12.149,-0.99429,-0.17623,-0.43097,-0.77488,2.28,40.14,19.44
5.2847,-12.544,-0.61292,-0.35583,-0.44227,-1.2468,2.4,40.26,19.26
4.8897,-13.253,0.12258,-0.57788,-0.44929,-1.8775,2.46,40.32,19.02
4.2223,-13.076,0.14982,-0.66615,-0.44715,-2.1997,2.4,40.56,18.84
3.8682,-12.612,0.35413,-0.68386,-0.40775,-2.3372,2.04,40.56,18.9
3.6775,-11.727,0.32689,-0.66798,-0.26603,-2.5965,1.68,40.62,18.9
3.0918,-8.7034,0.095342,-0.52229,-0.1066,-2.9664,0.72,40.26,19.32
2.9556,-7.8181,-0.10896,-0.3708,-0.16005,-3.0916,0.72,39.84,19.44
2.9829,-7.355,-0.31327,-0.23885,-0.34239,-3.123,-1.02,39.54,19.5
3.1191,-7.355,-0.54481,-0.093768,-1.0434,-3.0702,-3.3,38.58,19.86
2.9692,-7.6683,-0.53119,-0.07758,-1.3094,-2.9951,-4.68,37.92,19.98
2.9148,-8.1177,-0.38137,-0.10873,-1.7908,-2.8094,-6.0,37.26,20.34
2.3836,-9.3844,-0.095342,-0.27458,-2.1716,-2.4303,-8.76,35.88,20.64
2.2201,-10.256,0.040861,-0.41478,-2.1374,-2.1127,-10.02,35.04,20.88
1.9341,-10.76,0.14982,-0.54703,-1.9221,-1.7681,-12.66,33.78,21.12
1.1713,-10.651,0.12258,-0.68386,-1.2776,-1.27,-13.86,32.94,21.36
0.96704,-10.637,0.57205,-0.70585,-0.71196,-0.90103,-14.76,32.16,21.54
0.89894,-10.379,0.57205,-0.67226,-0.17318,-0.52931,-15.66,31.26,21.66
1.185,-10.283,0.5993,-0.56322,0.19975,-0.15882,-17.28,29.82,21.84
1.471,-10.488,0.51757,-0.41417,0.44166,0.20525,-17.88,29.16,22.02
1.866,-10.406,0.34051,-0.24007,0.50885,0.53909,-18.36,28.68,22.2
1.9341,-11.4,0.24517,-0.089492,0.37721,0.96792,-18.9,27.78,22.26
2.0839,-12.721,0.34051,-0.015577,0.31673,1.1765,-19.2,27.48,22.44
2.152,-12.544,0.46309,0.026878,0.44593,1.6814,-19.32,27.18,22.44
2.2746,-10.365,0.64016,0.094379,0.57941,1.8207,-19.32,26.88,22.68
2.3563,-8.717,0.47671,0.28711,0.63774,1.8424,-19.14,26.7,22.8
2.5334,-8.0905,-0.69464,0.58215,0.53939,1.8518,-18.96,26.64,23.16
2.7513,-9.3163,-0.92618,0.87354,0.17837,1.8784,-18.72,26.4,23.4
2.9011,-11.346,-1.362,1.0855,0.081245,1.8964,-18.06,26.58,23.64
3.051,-11.223,-1.3757,1.1332,-0.0015272,1.9526,-17.7,26.94,23.76
3.1599,-10.842,-1.3212,0.97983,0.059559,1.9642,-17.16,27.42,23.76
2.9556,-8.4446,-1.471,0.80543,0.16157,1.8864,-15.9,28.2,23.76
2.4653,-7.0553,-1.7843,0.67623,0.31154,1.7608,-15.12,28.74,23.58
2.4517,-5.7069,-2.5742,0.56413,0.51465,1.6988,-13.5,29.64,23.46
2.8739,-5.884,-2.6151,0.50213,0.57299,1.5861,-12.66,30.24,23.28
2.9965,-6.2654,-2.6968,0.37232,0.64813,1.4581,-11.64,30.84,23.1
3.1191,-6.4288,-2.6696,0.26145,0.8094,1.4181,-10.74,31.5,22.92
4.5901,-7.9679,-2.6832,0.14569,0.94409,1.3949,-8.88,32.58,22.32
5.3119,-8.8941,-2.3836,0.025962,1.0403,1.3115,-7.98,33.06,22.02
5.8023,-9.5206,-2.1248,-0.080329,1.179,1.1686,-7.14,33.72,21.72
6.5378,-10.161,-2.1656,-0.14142,1.2431,0.82009,-5.76,34.86,20.94
6.674,-10.583,-2.0975,-0.12004,1.175,0.70952,-5.22,35.16,20.64
6.7012,-10.787,-2.0567,-0.028711,1.0211,0.48289,-4.62,35.52,20.34
7.1098,-11.046,-1.866,0.13531,0.78954,0.13378,-4.02,36.0,19.92
6.9872,-10.842,-1.8251,0.21838,0.60048,-0.15485,-3.72,36.3,19.8
6.4833,-11.972,-1.4165,0.26664,0.36499,-0.38668,-3.48,36.66,19.5
7.1643,-13.866,-1.4846,0.23182,0.024129,-0.43249,-3.36,37.08,18.84
7.3141,-12.585,-1.5119,0.18662,-0.14264,-0.47647,-3.54,37.14,18.72
6.8374,-11.7,-1.3757,0.014661,-0.71441,-0.90591,-3.48,37.14,18.54
5.8567,-11.645,-0.99429,-0.12889,-0.99663,-1.2498,-3.72,37.26,18.42
5.2166,-12.694,-0.28603,-0.2755,-1.1817,-1.5211,-4.14,37.26,18.42
5.0123,-13.076,-0.040861,-0.43891,-1.2758,-1.8054,-4.44,37.2,18.54
3.9908,-13.198,0.095342,-0.58063,-1.1878,-1.9044,-4.92,36.96,19.08
3.4459,-11.918,-0.081722,-0.66309,-0.81428,-2.1677,-5.16,36.84,19.32
3.1327,-10.91,-0.081722,-0.67256,-0.33109,-2.4682,-5.64,36.54,19.56
2.7241,-8.6353,-0.12258,-0.56872,-0.0030543,-2.8433,-6.6,36.18,20.1
2.6423,-7.8317,-0.14982,-0.49541,-0.013134,-2.901,-7.2,35.7,20.4
2.8603,-7.5321,-0.47671,-0.40684,-0.2303,-2.8851,-7.98,35.16,20.76
3.0918,-7.8589,-0.54481,-0.30055,-0.87506,-2.7541,-9.6,33.9,21.6
2.9011,-7.8998,-0.49033,-0.31062,-1.2862,-2.5937,-10.5,33.3,21.9
2.6696,-8.0632,-0.50395,-0.34728,-1.5623,-2.3824,-11.46,32.7,22.14
1.8932,-8.54,-0.38137,-0.42302,-1.7006,-2.1136,-13.26,31.38,22.56
1.4574,-8.6081,-0.34051,-0.53206,-1.6252,-1.8048,-14.1,30.78,22.74
1.1577,-8.8668,-0.39499,-0.61911,-1.3354,-1.4731,-14.94,30.24,22.8
0.99429,-9.398,-0.28603,-0.66768,-0.73304,-0.87201,-16.56,28.98,22.98
0.99429,-9.6023,-0.19068,-0.66523,-0.30299,-0.39554,-17.28,28.32,23.1
1.0624,-9.7385,-0.040861,-0.61758,0.083994,0.073915,-17.82,27.66,23.1
1.4165,-9.8884,0.054481,-0.57605,0.24465,0.33414,-18.3,27.06,23.1
1.9613,-10.188,-0.081722,-0.39981,0.62278,1.0797,-19.14,26.16,23.1
2.261,-10.338,-0.12258,-0.24099,0.76816,1.4777,-19.26,25.8,23.04
2.7104,-13.062,0.14982,-0.08491,0.77336,1.9032,-19.38,25.08,23.34
3.1191,-13.157,0.16344,0.1347,0.84116,2.5131,-19.32,24.9,23.22
3.2416,-11.141,0.16344,0.28955,0.86773,2.6377,-19.32,24.9,23.4
3.2961,-9.0984,0.095342,0.48839,0.79321,2.6176,-19.14,24.96,23.52
3.2553,-8.4446,-0.55843,0.77519,0.51588,2.558,-18.78,24.96,23.7
3.2689,-9.5342,-1.185,1.0669,0.1066,2.5275,-18.36,24.96,23.88
3.6094,-11.223,-1.7706,1.2718,-0.37813,2.4823,-17.4,25.2,23.64
3.7456,-11.891,-1.5663,1.3408,-0.77,2.4028,-16.74,25.74,23.46
3.4187,-11.128,-1.1986,1.153,-0.82284,2.2599,-16.14,26.28,23.4
3.0646,-10.229,-1.1577,1.025,-0.64202,2.1964,-15.48,26.88,23.28
2.5061,-7.8589,-1.4301,0.64874,0.19517,1.9187,-14.58,27.3,23.04
2.3018,-6.2381,-2.1793,0.49724,0.6805,1.7083,-12.78,28.62,22.8
2.4517,-5.8159,-2.3291,0.39706,0.94073,1.4532,-11.82,29.4,22.62
2.9284,-6.3198,-2.1656,0.29291,1.1185,1.2923,-9.66,30.72,22.26
3.1599,-6.674,-2.0703,0.22297,1.1994,1.2355,-8.46,31.32,21.96
3.2825,-7.0009,-1.975,0.14539,1.2422,1.2422,-7.44,31.8,21.78
3.7184,-8.7443,-2.0158,0.058338,1.3131,1.2816,-5.4,33.0,21.24
3.9635,-9.5206,-1.8387,-0.013439,1.4099,1.2969,-4.68,33.6,20.88
4.3449,-10.106,-1.9886,-0.051924,1.5299,1.2523,-3.12,34.56,20.28
4.9987,-10.733,-2.1112,0.0018326,1.4261,1.0556,-2.58,34.68,20.1
5.489,-11.06,-2.152,0.031154,1.3005,0.967,-2.1,34.74,19.86
5.5707,-11.182,-2.1384,0.12492,0.97066,0.77458,-1.68,34.92,19.68
5.6116,-11.632,-1.9477,0.19914,0.43249,0.42364,-1.32,35.46,19.38
5.2711,-11.387,-1.7162,0.17898,0.26817,0.14661,-1.2,35.58,19.02
5.38,-13.184,-1.2258,0.10232,0.16677,-0.19426,-0.96,35.64,18.66
6.0474,-14.778,-1.0896,0.022907,0.082772,-0.32345,-1.02,35.64,18.36
6.2109,-13.348,-1.1441,-0.03207,0.044899,-0.40164,-1.2,35.58,18.18
6.0338,-12.054,-1.2122,-0.13561,-0.3149,-0.91416,-1.26,35.64,17.88
5.2575,-11.645,-0.85808,-0.20311,-0.56383,-1.3909,-1.56,35.52,17.58
4.9033,-12.858,-0.70826,-0.26389,-0.83872,-1.8262,-1.74,35.22,17.46
4.6582,-13.729,-0.20431,-0.36744,-1.0687,-2.1502,-2.1,35.22,17.4
4.1814,-13.362,-0.040861,-0.43402,-1.189,-2.3949,-2.82,35.1,17.4
3.6366,-11.741,0.081722,-0.49388,-1.1564,-2.58,-3.42,34.98,17.34
3.4051,-10.597,-0.01362,-0.46853,-1.0064,-2.8454,-4.02,34.74,17.28
2.8058,-7.8998,-0.42223,-0.37507,-1.0119,-2.9569,-5.46,34.02,17.46
2.6287,-7.1234,-0.6674,-0.28405,-1.1032,-3.0064,-6.18,33.48,17.7
2.7377,-6.8238,-0.92618,-0.23427,-1.2914,-2.9825,-7.2,33.24,17.82
2.6968,-7.3958,-0.85808,-0.24404,-1.74,-2.8842,-9.42,32.16,18.18
2.5879,-8.0632,-0.61292,-0.36133,-1.9893,-2.7519,-10.62,31.68,18.54
2.4653,-8.54,-0.35413,-0.51343,-2.076,-2.5577,-11.76,31.08,18.78
2.0567,-9.5479,-0.28603,-0.59651,-2.0724,-2.4413,-12.9,30.42,19.14
1.4574,-10.774,-0.21793,-0.82406,-1.7245,-1.9587,-15.06,29.16,19.98
1.4574,-10.774,-0.21793,-0.91508,-1.3054,-1.5989,-15.06,29.16,19.98
1.1986,-10.542,0.027241,-0.94623,-0.82253,-1.2339,-16.14,28.44,20.46
1.1986,-10.542,0.027241,-0.88239,-0.092546,-0.65088,-16.14,28.44,20.46
1.185,-9.7794,0.24517,-0.75747,0.25962,-0.26542,-17.04,27.42,21.06
1.185,-9.7794,0.24517,-0.57666,0.40409,0.15088,-17.04,27.42,21.06
2.1248,-10.351,0.027241,-0.37202,0.42638,0.56841,-18.6,25.86,22.02
2.2882,-10.12,-0.027241,-0.15974,0.38851,0.92088,-19.98,24.48,22.98
2.4653,-11.782,0.17706,0.009163,0.30604,1.259,-20.94,23.22,23.76
2.438,-11.768,0.027241,0.21258,0.34392,1.7455,-21.42,22.26,24.54
2.2474,-9.221,-0.16344,0.33567,0.45998,1.8677,-21.66,21.66,25.38
2.1248,-8.0905,-0.35413,0.48289,0.50335,1.8644,-21.72,21.42,26.04
2.2474,-7.8317,-0.77636,0.69364,0.4667,1.8445,-21.48,21.3,26.76
2.3427,-9.3436,-1.2531,0.89064,0.36621,1.8867,-21.0,21.54,27.18
2.8603,-11.06,-1.5255,1.0311,0.24648,1.9682,-20.76,22.2,27.3
2.9556,-11.087,-1.5119,1.0678,0.20953,2.1362,-19.98,23.1,27.36
3.0646,-10.501,-1.4846,1.0409,0.2474,2.1802,-19.5,23.64,27.3
3.051,-8.322,-1.757,0.90164,0.40897,2.1506,-18.72,25.08,27.36
2.8603,-7.1507,-2.0975,0.84666,0.5284,2.0049,-18.18,25.74,27.24
2.5879,-5.9112,-2.5742,0.78466,0.59376,1.8466,-16.86,27.18,26.88
2.6287,-5.8567,-2.6423,0.72662,0.54703,1.7025,-16.14,27.96,26.7
3.0101,-6.1836,-2.5742,0.64141,0.43616,1.5757,-15.48,28.68,26.52
3.5685,-7.2733,-2.6696,0.52931,0.44288,1.5458,-14.04,30.12,25.8
3.9363,-8.3765,-2.5198,0.29352,0.65179,1.4609,-13.2,30.78,25.62
4.0861,-9.0575,-2.5061,0.14905,0.91752,1.3561,-12.48,31.56,25.32
4.1542,-9.3436,-2.4789,0.031154,1.2846,1.2062,-11.76,32.34,24.9
5.0259,-10.324,-2.5742,-0.030543,1.62,1.015,-10.44,33.66,24.24
5.3528,-10.42,-2.5879,0.000305,1.6903,0.73365,-9.84,34.08,23.82
5.993,-10.801,-2.4925,0.083078,1.427,0.60689,-9.36,34.62,23.52
6.4288,-11.169,-2.3836,0.13042,1.2266,0.55955,-8.82,35.22,23.16
6.5378,-11.455,-2.4789,0.22877,0.48106,0.34331,-8.28,35.64,22.74
5.7886,-12.027,-2.152,0.23274,0.15424,0.11668,-7.56,36.36,22.2
5.7342,-13.634,-1.7434,0.17257,0.019548,-0.068111,-7.32,36.6,21.72
6.3743,-14.261,-1.471,0.062308,0.013134,-0.23488,-6.78,37.14,21.0
6.0883,-12.013,-1.7843,-0.027184,-0.10873,-0.49816,-6.72,37.5,20.7
5.9249,-11.346,-1.7706,-0.091935,-0.36041,-0.87965,-6.84,37.62,20.34
5.4345,-12.081,-1.2395,-0.16768,-0.66371,-1.2709,-7.14,37.8,19.86
5.2302,-12.64,-0.76274,-0.26206,-0.96853,-1.5547,-7.26,37.74,19.86
4.9306,-12.64,-0.28603,-0.36072,-1.1906,-1.7468,-7.5,37.74,19.68
3.7184,-11.55,-0.054481,-0.44013,-1.252,-1.887,-7.86,37.86,19.56
3.3778,-10.61,-0.1362,-0.46212,-1.0119,-2.1017,-8.1,37.56,19.56
2.9692,-9.1256,-0.44947,-0.416,-0.7981,-2.2428,-8.46,37.38,19.5
2.8058,-6.851,-0.49033,-0.34789,-0.70494,-2.3414,-9.3,37.02,19.56
2.7104,-6.2926,-0.5993,-0.28527,-0.78893,-2.3891,-9.9,36.6,19.62
2.7241,-6.3471,-0.6674,-0.25931,-0.97983,-2.3689,-10.5,36.3,19.8
2.942,-7.0962,-0.61292,-0.27245,-1.2889,-2.2504,-11.82,35.28,20.1
2.8194,-7.4231,-0.49033,-0.37293,-1.7498,-2.1154,-12.42,34.5,20.16
2.4517,-8.6081,-0.28603,-0.48747,-1.828,-1.9309,-13.08,33.96,20.4
1.757,-10.379,-0.12258,-0.59132,-1.6677,-1.6933,-14.52,32.76,20.94
1.4029,-10.706,0.17706,-0.71624,-1.343,-1.4019,-15.3,32.16,21.06
1.2531,-10.787,0.36775,-0.76633,-0.88881,-1.1002,-15.78,31.62,21.42
0.92618,-10.12,0.53119,-0.73762,-0.33689,-0.75869,-17.1,30.12,21.96
1.1713,-10.025,0.5993,-0.56963,0.31612,-0.1744,-17.58,29.58,22.14
1.5663,-10.351,0.64016,-0.37965,0.53054,0.19884,-18.12,28.98,22.5
1.7843,-10.774,0.46309,-0.15241,0.54062,0.53634,-18.54,28.44,22.62
1.8796,-10.474,0.40861,0.06353,0.43433,0.82681,-19.2,27.42,23.1
1.4574,-10.583,-0.12258,0.21289,0.24282,1.0602,-19.32,27.0,23.34
1.2395,-12.136,0.068102,0.28986,0.10324,1.5763,-19.62,26.46,23.64
1.5936,-11.373,0.054481,0.27855,0.2755,1.7517,-19.62,26.4,23.82
1.5527,-9.5751,-0.23155,0.34208,0.45632,1.7874,-19.56,26.34,24.0
1.7706,-8.6217,-0.64016,0.49358,0.49816,1.7724,-19.32,26.22,23.88
2.2201,-9.0575,-1.3757,0.7251,0.38973,1.7327,-18.9,26.28,23.76
2.3427,-9.9429,-1.9341,0.92882,0.1347,1.6725,-18.72,26.46,23.7
2.6968,-11.032,-1.975,1.033,-0.09499,1.6273,-18.24,26.7,23.7
2.9692,-11.128,-1.7979,0.96486,-0.18509,1.5889,-17.28,27.6,23.58
2.7786,-9.6023,-1.6344,0.81398,-0.068111,1.5153,-16.5,28.08,23.34
2.5198,-8.5672,-1.7025,0.7309,0.038485,1.4771,-15.66,28.5,23.22
2.2882,-6.1019,-2.2746,0.5342,0.46884,1.3705,-14.28,29.46,22.8
2.438,-5.7342,-2.6287,0.44807,0.64019,1.285,-13.5,30.06,22.5
2.547,-5.884,-2.6968,0.38759,0.68142,1.2315,-12.54,30.48,22.32
2.9011,-6.6604,-2.4925,0.28986,0.71227,1.1912,-10.86,31.62,21.78
3.2553,-7.1507,-2.5061,0.18387,0.80237,1.1875,-10.08,31.98,21.54
3.6094,-7.7636,-2.3836,0.071166,0.92271,1.1961,-9.3,32.7,21.24
4.0044,-8.8532,-2.152,-0.093768,1.2223,1.1313,-7.62,33.54,20.88
4.1133,-9.2346,-1.8932,-0.17226,1.5027,0.98716,-6.96,33.72,20.58
4.4539,-9.5479,-1.8932,-0.18876,1.7083,0.78985,-6.48,34.08,20.28
4.7126,-9.8475,-1.8387,-0.14233,1.733,0.62919,-6.0,34.44,19.98
5.6388,-11.237,-1.5527,-0.03879,1.5623,0.54856,-5.58,34.74,19.74
5.884,-11.918,-1.3484,0.13439,1.087,0.42333,-5.28,35.1,19.2
5.775,-12.095,-1.1305,0.22571,0.75045,0.28436,-4.86,35.52,19.02
5.4481,-11.836,-1.0896,0.29688,0.57788,0.053145,-4.62,35.64,18.78
5.598,-14.179,-0.85808,0.34239,0.44013,-0.034819,-4.68,35.82,18.48
5.993,-14.233,-0.9398,0.35583,0.32376,0.0012217,-4.86,36.0,18.36
5.9793,-11.959,-1.4982,0.35613,-0.1124,-0.24374,-4.92,36.24,18.12
5.5026,-10.106,-1.4165,0.30604,-0.52473,-0.54611,-5.1,36.24,17.94
5.1894,-10.324,-0.95342,0.26817,-0.74251,-0.70738,-5.1,36.18,17.94
4.8625,-10.774,-0.70826,0.135,-1.3427,-1.1002,-5.1,36.36,17.88
4.1814,-11.346,-0.5993,0.015882,-1.5815,-1.2868,-5.28,36.72,17.82
3.8409,-11.291,-0.68102,-0.14783,-1.4594,-1.6121,-5.46,36.72,17.88
3.3915,-10.556,-0.54481,-0.22724,-1.1747,-1.8531,-5.88,36.78,17.94
2.8603,-8.7306,-0.64016,-0.26084,-1.0339,-1.9697,-6.18,36.66,18.06
2.6968,-7.927,-0.64016,-0.33078,-0.79993,-2.2431,-6.6,36.36,18.3
2.7786,-7.5865,-0.64016,-0.3711,-0.77672,-2.3201,-6.96,36.18,18.54
