Ax,Ay,Az,Gx,Gy,Gz,Mx,My,Mz
3.2825,-13.239,-2.6696,-0.046426,-0.26909,0.089492,-1.44,38.34,18.6
3.8001,-15.677,-2.6151,-0.16554,-0.34819,0.039095,-0.18,38.64,18.42
3.4732,-13.471,-2.5742,-0.28466,-0.48594,-0.032987,0.42,38.82,18.18
3.1191,-11.645,-2.4108,-0.36591,-0.51465,-0.22724,0.9,38.82,18.0
2.4925,-8.7306,-1.8387,-0.46242,-0.48778,-0.77946,1.8,39.06,17.94
2.7104,-9.7249,-1.4982,-0.50946,-0.6524,-1.0858,2.16,39.0,18.12
3.1599,-10.828,-1.2803,-0.56688,-1.0794,-1.2162,2.52,38.94,17.94
3.337,-11.564,-1.076,-0.65607,-1.6099,-1.2333,2.88,39.06,18.06
2.8875,-11.605,-0.92618,-0.79382,-1.9016,-1.2291,2.94,38.94,18.06
2.1656,-11.536,-0.64016,-0.97708,-1.6179,-1.3363,3.0,38.94,18.3
1.3484,-10.12,-0.095342,-1.0473,-1.1869,-1.4303,3.3,38.64,18.72
1.2939,-9.2755,0.027241,-1.0629,-0.84452,-1.5482,3.18,38.34,18.96
1.2531,-8.4991,0.20431,-1.0171,-0.63316,-1.6518,2.82,37.92,19.68
1.2667,-8.2676,0.12258,-0.96364,-0.49297,-1.7941,2.52,37.68,20.1
1.3348,-8.1722,0.10896,-0.90286,-0.35216,-1.8448,1.98,37.38,20.4
1.6072,-8.4582,0.01362,-0.8656,-0.20586,-1.9594,0.48,37.14,21.36
1.7025,-8.6762,0.040861,-0.83627,-0.20556,-1.9948,-0.42,36.96,21.42
1.7706,-8.9077,0.12258,-0.82284,-0.28588,-1.9896,-2.58,36.78,21.54
1.7025,-8.8805,0.14982,-0.77397,-0.40287,-1.9245,-3.54,36.66,21.54
1.5663,-8.8532,0.027241,-0.73182,-0.51374,-1.7556,-4.68,36.48,21.6
1.3484,-8.717,0.095342,-0.66004,-0.49724,-1.6982,-5.7,36.36,21.54
1.2531,-8.8805,-0.01362,-0.52321,-0.34422,-1.4453,-7.8,36.18,21.36
1.4029,-9.2346,-0.1362,-0.45021,-0.2361,-1.2242,-8.94,36.18,21.3
1.4846,-9.7658,-0.14982,-0.36774,-0.12492,-0.9444,-9.9,36.12,21.12
1.5119,-10.855,-0.081722,-0.27855,0.016493,-0.60506,-11.82,36.06,20.64
1.4301,-10.951,-0.21793,-0.18021,0.21258,-0.25412,-12.66,35.94,20.4
1.2531,-10.011,-0.51757,-0.078191,0.45418,0.026573,-13.26,35.94,20.22
1.3076,-8.9213,-0.85808,0.082161,0.70219,0.35339,-13.98,35.88,19.86
1.6208,-9.6023,-1.0215,0.14478,0.71319,0.55375,-14.52,35.76,19.5
2.0022,-11.918,-1.0215,0.15547,0.61881,0.83261,-15.36,35.76,19.02
1.7298,-11.863,-0.99429,0.19517,0.63805,1.12,-15.66,35.52,18.84
1.3348,-10.474,-1.3212,0.30818,1.0302,1.4175,-16.56,35.4,18.6
1.3348,-8.5672,-1.5255,0.3821,1.2504,1.4178,-17.1,35.4,18.6
1.6208,-8.0224,-1.7298,0.46426,1.2785,1.2984,-17.76,35.34,18.66
1.8524,-8.5672,-1.7162,0.49633,1.0712,1.2511,-18.24,35.28,18.84
2.2882,-10.433,-1.6072,0.51496,0.66798,1.2914,-19.08,35.34,19.32
2.0975,-10.229,-1.4029,0.54825,0.34911,1.3201,-19.32,35.28,19.56
1.7979,-9.8748,-1.2803,0.58613,0.2978,1.3372,-19.5,35.4,20.16
1.58,-9.4389,-1.3212,0.64232,0.48289,1.3241,-19.5,35.46,20.46
1.6753,-8.9622,-1.3348,0.68417,0.59743,1.3463,-19.2,35.52,20.94
1.9341,-8.6353,-1.5663,0.71471,0.66768,1.4059,-18.6,35.7,21.24
2.2474,-7.7364,-1.6344,0.71074,0.68722,1.496,-17.34,35.82,21.84
2.3972,-7.6274,-1.6753,0.68386,0.62858,1.5696,-16.56,36.12,22.08
2.5742,-8.1858,-1.6344,0.59071,0.4554,1.7086,-14.64,36.54,22.38
2.656,-8.54,-1.6344,0.54398,0.35675,1.8411,-13.56,36.78,22.38
2.6696,-9.0575,-1.6753,0.52137,0.3375,1.8943,-12.42,37.08,22.2
2.5742,-9.3572,-1.7843,0.49786,0.34606,1.9801,-11.22,37.5,22.08
2.5334,-10.052,-2.0567,0.47281,0.50152,2.0177,-8.58,38.28,21.24
2.5606,-10.161,-2.1929,0.47373,0.65271,1.9581,-7.26,38.76,20.76
2.9556,-10.202,-2.3972,0.45998,0.73609,1.8237,-6.0,39.12,20.28
3.5004,-10.515,-2.7513,0.43402,0.67806,1.6576,-4.86,39.54,19.8
3.7047,-11.141,-2.9556,0.37263,0.45112,1.4618,-2.76,40.38,18.42
3.8137,-12.0,-2.8739,0.29138,0.14264,1.2584,-1.86,40.68,18.18
3.732,-12.177,-2.8603,0.12614,-0.20739,0.88637,-0.96,41.1,17.7
3.051,-11.564,-2.6423,0.037874,-0.22663,0.59162,0.78,41.82,16.92
2.7377,-11.673,-2.4517,-0.018326,-0.061697,0.24618,1.5,42.12,16.38
3.2144,-14.792,-2.2882,-0.065057,0.16707,-0.043066,3.06,42.54,15.84
3.6366,-15.418,-2.2337,-0.18418,0.21869,-0.36805,3.66,42.66,15.6
3.4732,-14.043,-2.3563,-0.25687,0.079107,-0.61728,4.26,42.66,15.36
2.6832,-8.7715,-2.1248,-0.29596,0.041539,-0.91935,4.92,42.6,15.3
2.7649,-8.0905,-2.0839,-0.32681,-0.026267,-1.3045,5.1,42.54,15.18
3.2825,-9.112,-1.9068,-0.39492,-0.36682,-1.5745,5.34,42.54,15.36
4.0589,-11.891,-1.5119,-0.58613,-1.4325,-1.6652,5.04,42.36,15.6
3.6094,-12.354,-1.2395,-0.77091,-2.0681,-1.602,4.86,42.18,15.72
2.9965,-12.313,-0.99429,-0.9163,-2.2483,-1.5989,4.62,41.94,15.72
1.2258,-11.441,-0.40861,-1.0146,-1.8958,-1.6319,3.9,41.58,16.38
0.85808,-10.828,-0.27241,-1.0571,-1.3228,-1.6793,3.48,41.16,16.74
0.92618,-10.093,-0.27241,-1.0314,-0.89461,-1.7581,3.06,40.92,17.34
1.3484,-8.9894,-0.1362,-0.95723,-0.62033,-1.8118,1.92,40.08,18.36
1.5391,-8.7443,-0.12258,-0.9108,-0.57941,-1.8641,1.44,39.66,19.02
1.6208,-8.6762,-0.1362,-0.89614,-0.58338,-1.9001,0.72,39.3,19.68
1.7843,-8.6762,0.28603,-0.87873,-0.68447,-2.0064,-1.08,38.64,20.82
1.7843,-8.6762,0.28603,-0.87873,-0.68447,-2.0064,-1.08,38.64,20.82
1.7434,-8.6898,0.28603,-0.80451,-1.1609,-1.9816,-4.02,37.2,21.42
1.4438,-8.8941,0.34051,-0.79046,-1.2168,-1.9444,-4.92,36.78,21.54
1.1305,-8.9894,0.31327,-0.75992,-1.197,-1.8729,-5.76,36.36,21.66
0.85808,-8.9894,0.31327,-0.71074,-0.99724,-1.7486,-7.44,35.64,21.48
0.8717,-9.221,0.24517,-0.6408,-0.64904,-1.5721,-8.22,35.16,21.3
0.96704,-9.9973,0.20431,-0.52993,-0.1127,-1.1597,-9.0,34.62,21.12
0.9398,-10.46,0.24517,-0.47617,0.19364,-0.86499,-10.44,33.96,20.64
0.57205,-10.283,0.35413,-0.39279,0.48778,-0.59407,-11.82,33.24,19.98
0.17706,-9.2346,0.10896,-0.28619,0.78282,-0.33323,-12.42,32.82,19.5
0.12258,-8.9622,0.01362,-0.14355,1.0049,-0.1124,-12.78,32.46,19.02
0.50395,-11.073,0.027241,-0.015272,1.1118,0.089797,-13.26,31.74,18.3
0.77636,-12.572,0.14982,0.10018,1.1212,0.60476,-13.5,31.38,18.06
0.89894,-12.749,-0.054481,0.22388,1.1836,1.0174,-13.74,31.26,17.94
1.2258,-10.46,-0.77636,0.34819,1.343,1.3433,-14.46,30.6,17.58
1.5391,-9.507,-1.4301,0.53878,1.2596,1.4591,-15.0,30.36,17.34
1.757,-9.6704,-1.6753,0.56139,1.1051,1.4264,-15.54,30.06,17.22
1.4165,-10.842,-1.6344,0.58002,0.45845,1.3372,-16.68,29.76,17.28
1.2122,-10.542,-1.3893,0.61972,0.14875,1.3201,-17.22,29.7,17.22
0.96704,-9.5479,-1.0896,0.67776,0.12492,1.3066,-17.94,29.58,17.64
0.9398,-9.1937,-1.185,0.74495,0.27764,1.2749,-18.06,29.64,17.88
1.1169,-8.4582,-1.185,0.78924,0.48442,1.2599,-18.06,29.7,18.24
1.6072,-7.75,-1.4982,0.79718,0.64049,1.2947,-17.82,30.0,18.84
1.9341,-7.3822,-1.5391,0.78741,0.72265,1.4135,-17.58,30.18,19.02
2.152,-7.3005,-1.5391,0.71563,0.73395,1.6225,-17.1,30.48,19.2
2.4653,-7.6546,-1.4982,0.61881,0.6918,1.7645,-15.9,30.72,19.44
2.438,-8.2812,-1.3757,0.56719,0.67409,1.8744,-15.06,31.02,19.5
2.4653,-9.507,-1.3757,0.52107,0.85857,2.0864,-13.14,31.86,19.8
3.0101,-10.351,-1.6889,0.51771,0.94562,2.1414,-12.06,32.46,19.68
3.337,-10.665,-1.8796,0.46792,1.0941,2.2193,-10.86,32.88,19.38
3.9227,-10.637,-2.152,0.43646,1.0519,2.1267,-8.76,33.84,18.84
4.0589,-10.651,-2.2474,0.4102,0.85582,1.9383,-7.74,34.2,18.36
4.0316,-10.76,-2.2337,0.37171,0.57971,1.6942,-6.78,34.62,17.82
4.2495,-11.564,-2.5198,0.30543,0.17562,1.3127,-4.98,35.46,16.8
4.3449,-12.122,-2.6423,0.23396,-0.047953,1.0718,-4.32,35.82,16.2
4.3858,-12.572,-2.6423,0.13347,-0.15608,0.81276,-3.6,36.18,15.84
3.7047,-11.686,-2.4789,0.04948,-0.062308,0.51862,-2.4,36.84,15.12
3.2553,-11.727,-2.2065,0.0048869,0.1912,0.18143,-1.86,37.14,14.82
3.5004,-13.498,-2.0839,-0.057116,0.40134,-0.08827,-1.32,37.38,14.58
4.3313,-14.669,-2.3155,-0.19945,0.20372,-0.33964,-0.66,37.68,14.1
3.732,-11.182,-2.261,-0.29016,-0.0061087,-0.62125,-0.42,37.62,13.98
3.2961,-9.5615,-2.1656,-0.35705,-0.065668,-0.99999,-0.18,37.62,13.98
2.8603,-9.6432,-1.6344,-0.40561,-0.1463,-1.4019,-0.12,37.38,13.68
3.3506,-11.264,-1.4438,-0.46151,-0.44532,-1.6493,-0.18,37.32,13.68
3.6366,-12.286,-1.4165,-0.57269,-1.0131,-1.701,-0.42,37.14,13.8
3.2144,-12.299,-1.0215,-0.70738,-1.5449,-1.6646,-1.14,36.66,14.04
2.4244,-11.959,-0.92618,-0.90652,-1.5947,-1.689,-1.32,36.42,14.28
1.757,-11.645,-0.55843,-0.97097,-1.2233,-1.7462,-1.86,36.0,14.46
1.471,-9.9565,-0.19068,-0.97738,-0.88698,-1.781,-3.18,35.28,15.12
1.7025,-9.1937,-0.19068,-0.93982,-0.79168,-1.8063,-3.84,34.8,15.6
1.8251,-8.6353,-0.19068,-0.91599,-0.87537,-1.8155,-4.56,34.32,16.02
1.9613,-8.2948,-0.095342,-0.91966,-0.99296,-1.846,-6.3,32.94,17.22
1.9341,-8.1722,-0.095342,-0.93615,-1.1222,-1.8955,-7.26,32.34,17.82
1.8251,-8.1313,0.14982,-0.93707,-1.2077,-1.9166,-8.46,31.86,18.3
1.7025,-8.4719,0.44947,-0.93829,-1.2871,-1.8998,-10.86,30.66,19.14
1.4438,-8.7034,0.47671,-0.90775,-1.317,-1.8268,-11.94,30.06,19.44
1.2395,-8.6762,0.28603,-0.87293,-1.2452,-1.7346,-12.96,29.64,19.56
1.0896,-8.7579,0.14982,-0.81886,-1.0739,-1.6496,-14.4,28.56,19.8
1.2258,-9.0848,0.23155,-0.72815,-0.72418,-1.4374,-15.24,27.9,20.04
1.2667,-9.5479,0.28603,-0.68661,-0.60659,-1.3381,-15.84,27.36,20.22
1.185,-10.651,0.31327,-0.59193,-0.2303,-0.99693,-16.92,26.4,20.4
1.076,-10.992,0.29965,-0.50824,0.089797,-0.75289,-17.28,25.92,20.46
0.95342,-10.447,0.31327,-0.40348,0.42516,-0.49419,-18.06,25.26,20.46
0.92618,-9.902,0.31327,-0.26359,0.72571,-0.27642,-18.12,25.08,20.28
1.1169,-10.27,-0.068102,-0.057727,0.94562,0.039401,-18.3,24.84,20.16
1.5391,-12.326,-0.068102,0.000611,0.96028,0.18234,-18.06,24.12,20.16
1.3757,-12.081,-0.027241,0.17868,0.9951,0.68875,-18.06,24.0,20.1
1.2803,-10.706,-0.40861,0.31734,1.1536,0.97677,-18.06,23.82,20.22
1.2395,-9.0848,-1.0215,0.45112,1.2541,1.1438,-18.18,23.7,20.1
1.7298,-8.2131,-1.866,0.48167,1.1173,1.164,-18.84,23.7,20.1
2.0294,-9.2618,-1.757,0.37965,0.56139,1.1371,-19.26,23.82,19.8
1.3484,-10.61,-1.2667,0.37385,0.35888,1.1438,-19.74,24.0,19.68
0.68102,-9.7658,-0.98067,0.41478,0.2303,1.1747,-20.88,24.24,19.5
0.43585,-9.1937,-0.84446,0.47342,0.50366,1.1955,-21.6,24.42,19.5
0.50395,-9.0575,-0.84446,0.55497,0.82345,1.1707,-22.2,24.6,19.62
1.3484,-8.6353,-1.2258,0.62644,1.0788,1.1677,-22.98,24.96,20.28
1.6344,-8.4446,-1.3757,0.68631,1.2028,1.3283,-23.16,25.2,20.46
2.0975,-8.2812,-1.471,0.697,1.1793,1.3949,-23.1,25.5,20.58
2.8194,-7.927,-1.4438,0.65851,0.89003,1.6145,-22.92,26.34,20.94
2.9692,-7.8998,-1.3484,0.61117,0.55436,1.752,-22.56,26.64,21.12
2.9011,-7.8317,-1.3212,0.57269,0.23457,1.894,-22.26,27.12,21.42
2.6696,-8.6353,-1.2122,0.54214,0.064141,2.0302,-21.0,28.08,21.78
2.6423,-9.5342,-1.2803,0.5229,0.0281,2.1948,-20.22,28.62,22.08
2.438,-10.542,-1.2395,0.54123,0.086132,2.2391,-18.12,29.82,22.26
2.5061,-10.542,-1.4165,0.60903,0.31368,2.2862,-16.86,30.36,22.08
2.6287,-10.624,-1.757,0.63225,0.37599,2.2495,-15.72,31.02,21.84
2.8875,-11.182,-2.152,0.64446,0.35186,2.0553,-13.26,32.46,20.82
3.3097,-11.673,-2.3972,0.59254,0.19975,1.9126,-12.06,33.24,20.22
3.9227,-12.558,-2.833,0.50885,-0.051618,1.6405,-9.84,34.74,19.14
3.9227,-12.408,-2.7649,0.34544,-0.43402,1.4013,-8.7,35.34,18.72
3.8001,-12.081,-2.7922,0.24557,-0.51404,1.0815,-7.68,35.94,18.36
2.8058,-11.4,-2.6423,0.15149,-0.40378,0.71319,-5.64,37.02,17.46
2.9011,-13.225,-2.5061,0.068417,-0.20036,0.35919,-4.62,37.5,17.04
3.1599,-15.01,-2.3836,-0.062003,-0.09499,0.11515,-3.96,37.92,16.68
3.3778,-12.245,-2.7377,-0.21197,-0.16921,-0.17287,-2.4,38.58,16.02
3.1735,-10.515,-2.656,-0.38362,-0.19761,-0.68875,-1.74,38.88,15.78
3.0101,-9.4525,-2.1112,-0.43402,-0.19823,-0.8769,-1.26,39.18,15.6
3.3506,-10.733,-1.8932,-0.59529,-0.49297,-1.3405,-0.18,39.72,15.18
3.6639,-11.632,-1.7706,-0.72876,-1.0128,-1.4798,0.06,39.78,15.3
3.3506,-12.163,-1.3484,-0.87293,-1.5568,-1.5165,0.24,39.96,15.3
2.9148,-12.136,-1.0896,-1.0107,-1.9028,-1.5333,0.36,39.9,15.48
1.7706,-11.7,-0.6674,-1.1215,-1.8888,-1.5953,0.06,39.84,15.96
1.3757,-10.665,-0.57205,-1.2257,-1.4035,-1.7168,-0.06,39.84,16.2
1.3484,-10.052,-0.53119,-1.2746,-1.076,-1.8396,-0.42,39.66,16.56
1.2939,-8.9486,-0.31327,-1.2752,-0.84971,-1.9526,-0.96,39.36,17.64
1.3757,-8.7034,-0.040861,-1.2596,-0.70647,-2.073,-1.38,39.12,18.3
1.4165,-8.6625,0.1362,-1.1994,-0.62125,-2.1964,-3.06,38.4,19.62
1.6753,-8.6489,0.21793,-1.1762,-0.66829,-2.251,-4.14,38.22,20.4
1.6753,-8.8532,0.20431,-1.1771,-0.70372,-2.2614,-5.34,37.92,21.12
1.5936,-8.8941,0.081722,-1.1759,-0.74373,-2.2349,-6.66,37.68,21.78
1.185,-8.9077,0.19068,-1.1961,-0.63225,-2.1606,-9.12,37.14,22.26
1.076,-9.0848,0.28603,-1.1616,-0.43035,-2.0834,-10.26,36.78,22.62
1.1169,-9.3163,0.46309,-1.0974,-0.18692,-1.8448,-12.6,35.94,23.16
1.2803,-10.215,0.57205,-1.0098,0.12523,-1.5947,-13.68,35.58,23.16
1.3348,-10.501,0.49033,-0.84544,0.29749,-1.3247,-14.82,35.1,23.34
1.3484,-10.964,0.38137,-0.78863,0.38851,-1.1814,-15.84,34.8,23.46
1.0215,-10.774,0.19068,-0.57116,0.70983,-0.7535,-18.18,33.9,23.46
0.85808,-9.8611,-0.027241,-0.39218,0.90561,-0.51465,-19.08,33.54,23.4
0.96704,-9.2755,-0.50395,-0.21594,0.97555,-0.27122,-20.58,32.88,23.22
1.2258,-10.855,-0.47671,-0.037568,0.83536,0.20586,-21.12,32.52,22.86
1.3212,-12.013,-0.44947,0.040623,0.72082,0.60537,-21.48,32.04,22.68
1.0215,-11.836,-0.38137,0.10354,0.72724,0.79718,-21.84,31.62,22.62
0.64016,-9.2891,-0.83084,0.30971,1.0733,1.2025,-22.56,30.78,22.56
0.8036,-8.3765,-1.2939,0.4386,1.1924,1.2987,-23.04,30.54,22.5
0.89894,-8.145,-1.4301,0.53237,1.0794,1.2443,-23.46,30.42,22.32
1.3484,-10.229,-1.2667,0.60079,0.79351,1.2312,-24.84,30.3,22.2
1.471,-10.61,-1.1441,0.70952,0.33292,1.3408,-25.38,30.24,22.2
1.5119,-9.9292,-0.96704,0.78771,0.24771,1.4245,-26.52,30.3,22.2
1.5119,-9.5206,-1.0488,0.85735,0.3036,1.4801,-26.82,30.42,22.38
1.5391,-9.0712,-1.2803,0.90408,0.36438,1.5192,-27.06,30.66,22.5
1.5255,-8.5944,-1.4165,0.93004,0.43249,1.6335,-27.06,30.84,22.56
1.5255,-8.5944,-1.4165,0.93859,0.56322,1.7269,-27.06,30.84,22.56
1.5936,-8.1177,-1.4982,0.92516,0.57574,1.8488,-27.0,31.08,22.56
2.4925,-7.8862,-1.4438,0.87659,0.48564,1.9933,-26.28,31.5,22.62
2.5879,-8.5808,-1.4438,0.81062,0.39523,2.1261,-24.84,32.76,22.5
2.7786,-9.4389,-1.2803,0.7532,0.34392,2.2526,-22.8,33.96,22.44
2.8194,-10.12,-1.3757,0.7196,0.39065,2.3631,-21.54,34.56,22.44
2.9965,-10.815,-1.7979,0.71288,0.45693,2.4187,-18.48,35.82,22.32
3.0646,-10.964,-2.1793,0.71838,0.58979,2.3338,-16.8,36.48,22.14
3.2961,-11.06,-2.5742,0.69883,0.65057,2.1661,-13.56,38.16,21.36
3.732,-11.319,-2.9556,0.65088,0.59895,1.9224,-10.56,39.54,20.22
4.127,-11.931,-3.1463,0.56963,0.41539,1.6674,-7.98,41.16,18.9
4.4675,-12.517,-3.2553,0.4499,0.12431,1.409,-5.7,42.24,17.88
4.3449,-12.626,-3.1191,0.31276,-0.1628,1.1328,-4.14,42.9,16.98
3.8409,-12.217,-2.9965,0.17562,-0.32376,0.82589,-2.94,43.8,16.02
3.4732,-12.653,-2.9965,0.01069,-0.23457,0.29505,-1.92,44.58,15.36
3.6503,-14.914,-2.6832,-0.13042,-0.087659,0.023518,-1.32,44.88,14.76
3.8273,-14.71,-2.5742,-0.26389,-0.073915,-0.19364,-0.66,45.12,14.58
3.3642,-11.754,-2.656,-0.38729,-0.10812,-0.4835,-0.18,45.36,14.4
3.1463,-10.215,-2.5742,-0.47922,-0.098349,-0.80604,0.06,45.3,14.52
2.9965,-8.9894,-2.3155,-0.55161,-0.12309,-1.1872,0.3,45.18,14.46
3.514,-10.828,-1.7298,-0.71685,-0.5342,-1.5794,0.3,45.18,14.52
3.6775,-11.509,-1.3757,-0.81428,-1.1081,-1.6753,0.18,45.12,14.76
3.4187,-11.754,-1.1441,-0.94287,-1.6646,-1.6722,-0.18,44.64,15.36
2.833,-11.645,-0.85808,-1.0886,-1.9621,-1.675,-0.6,44.4,15.78
1.9341,-11.618,-0.50395,-1.189,-1.8787,-1.7089,-1.14,43.74,16.62
1.1305,-10.828,-0.23155,-1.2764,-1.5116,-1.7611,-1.92,43.08,17.58
1.0215,-9.8884,-0.040861,-1.3054,-0.87965,-1.8833,-2.82,42.06,18.6
1.0079,-9.5206,0.054481,-1.2617,-0.56077,-1.9786,-3.36,41.7,19.32
1.0215,-8.7443,0.27241,-1.1973,-0.35003,-2.0831,-4.74,40.74,20.64
1.3484,-8.431,0.36775,-1.1371,-0.24984,-2.1863,-6.42,39.66,21.9
1.471,-8.5127,0.36775,-1.0892,-0.26023,-2.2596,-7.44,39.42,22.56
1.6344,-8.7715,0.34051,-1.0522,-0.3372,-2.3072,-9.48,38.58,23.22
1.5936,-8.7987,0.32689,-1.0327,-0.40684,-2.3024,-10.56,38.16,23.46
1.6072,-8.8396,0.40861,-1.0085,-0.45143,-2.2431,-12.66,37.5,23.7
1.471,-8.9213,0.51757,-0.96731,-0.46242,-2.0412,-14.64,36.78,23.64
1.362,-9.1529,0.64016,-0.91049,-0.42089,-1.8399,-16.44,36.12,23.4
1.3076,-9.8066,0.61292,-0.82742,-0.29108,-1.5724,-18.0,35.28,23.22
1.3893,-10.174,0.70826,-0.71074,-0.11759,-1.2544,-18.78,34.98,22.98
1.362,-10.828,0.55843,-0.57727,0.10446,-0.89125,-19.92,34.2,22.68
1.4029,-10.515,0.29965,-0.4328,0.36744,-0.52931,-20.7,33.36,22.38
1.2939,-9.3436,-0.12258,-0.2022,0.73182,-0.11912,-21.0,32.7,22.2
1.2667,-9.0167,-0.50395,-0.03146,0.86865,0.079718,-21.36,32.34,22.2
1.471,-10.774,-0.6674,0.067501,0.90713,0.30421,-21.84,31.74,22.08
1.6753,-12.095,-0.36775,0.11729,0.894,0.59987,-22.38,31.14,22.02
1.5119,-11.06,-0.57205,0.31796,0.9783,1.0821,-22.98,30.84,21.96
1.5391,-10.134,-0.81722,0.46181,1.1069,1.2874,-23.34,30.78,21.84
1.7979,-8.9622,-1.866,0.55955,1.0663,1.3576,-24.18,30.66,21.6
2.1929,-9.2618,-2.0703,0.58185,0.84269,1.3369,-25.02,30.9,21.0
2.0022,-10.42,-1.6753,0.59315,0.47983,1.3482,-25.8,31.08,20.94
1.9613,-10.624,-1.5391,0.6353,0.16677,1.4169,-26.28,31.2,20.94
1.5663,-10.474,-1.185,0.69364,0.087354,1.4991,-26.64,31.62,21.06
1.7843,-9.5342,-1.2531,0.79626,0.27031,1.6457,-26.52,32.1,21.3
1.8387,-9.0167,-1.2803,0.87506,0.38943,1.7226,-26.22,32.52,21.6
1.9205,-7.9679,-1.5663,0.92516,0.45784,1.8048,-25.44,33.18,22.08
2.0567,-7.1507,-1.7162,0.93737,0.5116,1.8778,-24.06,33.9,22.32
2.3836,-6.8374,-1.6481,0.91935,0.52107,1.9377,-22.32,35.04,22.38
2.5198,-6.8647,-1.6072,0.86224,0.42883,2.0091,-21.36,35.52,22.38
2.5879,-7.3141,-1.7298,0.77,0.23824,2.1151,-18.96,36.6,22.26
2.6015,-8.3357,-1.7298,0.56505,0.11362,2.2083,-16.5,37.68,21.72
2.7513,-9.0575,-1.5391,0.44563,0.2926,2.1909,-15.06,38.34,20.88
3.5958,-10.91,-1.58,0.3937,0.64507,2.0995,-12.84,39.48,20.46
3.8546,-11.795,-1.8387,0.36744,1.0107,1.9007,-10.62,40.5,19.5
4.127,-11.509,-2.2337,0.36438,1.3109,1.6112,-8.82,41.52,18.3
4.3585,-11.291,-2.547,0.38393,1.46,1.1179,-8.16,42.06,17.88
5.2166,-11.591,-3.0237,0.39431,1.4255,0.92943,-6.78,42.84,17.16
5.8295,-12.136,-3.0918,0.3149,1.0263,0.42333,-5.34,43.38,16.32
5.9657,-12.231,-3.1735,0.2025,0.61881,0.15699,-4.86,43.68,15.96
5.5571,-11.686,-2.9011,0.091935,0.23579,-0.041233,-4.02,44.28,15.24
4.6854,-11.673,-2.6968,-0.0094684,0.053145,-0.25473,-3.42,44.4,14.76
4.9033,-14.056,-2.438,-0.082161,0.067501,-0.44196,-3.12,44.64,14.34
5.094,-14.833,-2.4789,-0.23274,0.016188,-0.52657,-3.0,44.7,14.1
4.9306,-12.967,-2.4789,-0.29902,-0.15333,-0.63988,-2.94,44.88,13.8
3.8818,-9.1529,-2.2065,-0.354,-0.29841,-0.86987,-3.0,44.88,13.62
3.623,-8.5536,-2.0839,-0.36957,-0.44776,-1.2187,-3.06,44.88,13.5
4.0725,-10.324,-1.5119,-0.38607,-0.74037,-1.5006,-3.66,44.82,13.62
4.5628,-11.605,-1.1577,-0.44318,-1.3555,-1.6047,-4.02,44.76,13.74
4.3449,-11.986,-1.0896,-0.54825,-2.3983,-1.6047,-4.62,44.4,14.28
3.1463,-12.054,-0.54481,-0.78282,-2.7132,-1.6035,-5.1,44.04,14.7
1.7706,-11.645,-0.01362,-0.90652,-2.5601,-1.6573,-5.76,43.62,15.66
1.4301,-11.237,0.081722,-0.98624,-2.1365,-1.722,-5.94,43.44,16.08
1.076,-10.147,0.23155,-1.018,-1.7358,-1.7791,-6.96,42.72,17.16
1.1577,-9.2482,0.14982,-1.0198,-1.3748,-1.8497,-8.04,41.88,18.42
1.0079,-8.5808,0.12258,-1.0259,-0.90988,-1.971,-9.66,41.16,19.62
0.96704,-8.3765,0.24517,-1.0278,-0.60353,-2.1041,-10.38,40.74,20.16
1.0488,-8.0088,0.40861,-1.0128,-0.37629,-2.2248,-12.18,40.14,20.64
1.3893,-7.9679,0.54481,-0.98197,-0.25809,-2.2907,-14.16,39.3,20.7
1.4029,-8.0224,0.58567,-0.93523,-0.26695,-2.2767,-15.0,39.24,20.52
1.5119,-8.0769,0.47671,-0.87537,-0.32559,-2.1667,-16.8,38.46,20.4
1.4982,-8.4174,0.54481,-0.83078,-0.36316,-1.9801,-18.42,37.5,19.92
1.471,-8.9758,0.64016,-0.71227,-0.24343,-1.5556,-19.74,37.02,19.32
1.5391,-9.3299,0.55843,-0.62125,-0.04215,-1.179,-20.34,36.72,18.84
1.58,-9.6704,0.44947,-0.52443,0.19975,-0.7981,-21.3,35.88,18.3
1.6344,-9.793,0.44947,-0.42547,0.46151,-0.40989,-21.9,35.16,17.76
1.5391,-9.2482,0.32689,-0.30757,0.73059,-0.023518,-22.08,34.44,17.58
1.6072,-8.8532,0.23155,-0.15608,0.91996,0.30665,-22.14,34.08,17.46
1.5119,-9.5479,0.081722,0.13531,1.0534,0.73793,-22.26,33.3,17.4
1.7706,-10.542,-0.054481,0.25931,1.0586,1.055,-22.38,33.06,17.28
2.152,-12.572,-0.28603,0.30971,1.0015,1.4056,-22.86,33.0,17.04
1.8387,-11.809,-0.51757,0.40012,1.0544,1.7523,-23.4,32.94,16.62
1.8115,-10.025,-1.2258,0.50091,1.2144,1.974,-24.18,33.12,15.96
1.8524,-9.507,-1.3348,0.59407,1.2569,2.0125,-24.54,33.42,15.6
2.0431,-9.8611,-1.6481,0.66676,0.92638,1.8494,-25.38,33.84,14.88
2.2201,-11.223,-1.7025,0.64507,0.4722,1.7804,-25.98,34.2,14.76
2.438,-11.7,-1.8932,0.55008,-0.11454,1.6866,-26.16,34.38,14.76
2.1793,-11.06,-1.4982,0.55619,-0.56139,1.6145,-26.1,34.86,15.3
1.3757,-9.8203,-1.5119,0.61606,-0.60323,1.6133,-25.5,35.46,16.02
1.2258,-9.0984,-1.4165,0.70066,-0.28741,1.5892,-24.96,35.64,16.26
1.1986,-7.7908,-1.7025,0.8262,0.354,1.5715,-23.4,36.12,17.16
1.5936,-7.3141,-1.6753,0.87659,0.75106,1.6402,-21.42,36.66,17.7
2.0294,-7.4776,-1.7162,0.90927,1.0058,1.7086,-20.16,37.08,17.88
2.547,-7.9407,-1.7979,0.87384,1.0959,1.7947,-17.58,37.8,18.06
3.2144,-8.7579,-1.8932,0.77794,1.007,1.8876,-14.94,38.4,17.7
3.4323,-9.1529,-1.866,0.62644,0.79015,1.9801,-13.56,38.88,17.28
3.5004,-9.8611,-1.6072,0.52015,0.56627,2.0604,-12.3,39.36,16.8
3.3097,-10.379,-1.6889,0.43616,0.45265,2.0867,-9.96,40.5,15.6
3.1872,-10.569,-1.9341,0.41692,0.53848,2.0125,-8.82,41.04,14.88
3.2144,-10.651,-2.0567,0.41997,0.66462,1.8515,-7.68,41.52,14.34
3.6911,-10.896,-2.3427,0.37354,0.71441,1.6435,-5.7,42.6,12.9
4.1406,-11.278,-2.3427,0.34025,0.56169,1.3925,-4.68,43.02,12.06
4.4402,-11.85,-2.4789,0.27519,0.24068,1.1582,-3.84,43.32,11.22
4.1951,-12.108,-2.4789,0.13195,-0.2248,0.76786,-2.22,43.86,10.2
3.6911,-11.482,-2.3836,0.046731,-0.32162,0.45204,-1.44,44.16,9.72
3.0101,-10.91,-2.2746,0.0042761,-0.16127,0.098349,-0.6,44.4,9.42
3.1872,-13.579,-2.1656,-0.043677,0.13011,-0.23121,0.78,44.76,8.82
3.4459,-14.478,-2.1384,-0.15485,0.26603,-0.52748,1.38,44.94,8.7
3.8954,-13.239,-2.3427,-0.24526,0.066279,-0.71532,1.98,45.06,8.64
3.4459,-9.6704,-2.152,-0.32009,-0.1405,-0.96914,2.64,45.24,8.28
3.2144,-9.4934,-1.9205,-0.38943,-0.34239,-1.2972,2.64,45.18,8.1
3.5685,-10.61,-1.7025,-0.48014,-0.74067,-1.5473,2.52,45.18,8.04
3.9635,-12.054,-1.4438,-0.5959,-1.7627,-1.6985,2.04,44.94,8.16
3.6639,-12.585,-1.2939,-0.85552,-2.3527,-1.7043,1.68,44.88,8.46
2.8875,-12.844,-0.98067,-1.0186,-2.533,-1.7459,1.38,44.82,8.88
1.3076,-12.572,-0.44947,-1.1695,-2.2477,-1.8057,0.42,44.64,9.78
0.83084,-11.7,-0.21793,-1.2565,-1.6713,-1.8876,-0.48,44.4,10.26
0.69464,-10.637,-0.16344,-1.2947,-1.1023,-2.0226,-1.26,44.1,10.92
0.61292,-9.0984,-0.027241,-1.2428,-0.47678,-2.2758,-3.18,43.5,12.54
0.8036,-8.6489,-0.01362,-1.1955,-0.26756,-2.4395,-4.32,43.02,13.44
1.0624,-8.5808,-0.01362,-1.142,-0.2138,-2.5693,-5.88,42.54,14.34
1.5255,-8.8124,0.027241,-1.1371,-0.23854,-2.6267,-9.18,41.4,15.84
1.7025,-8.9622,0.054481,-1.1341,-0.47159,-2.6942,-10.86,40.98,16.44
1.7162,-9.1665,0.1362,-1.1298,-0.6463,-2.6295,-12.48,40.44,16.92
1.4301,-9.1529,0.20431,-1.1225,-0.70524,-2.5217,-15.3,39.36,17.52
1.3212,-9.0303,0.39499,-1.0644,-0.59834,-2.2373,-16.8,38.7,17.94
1.1577,-8.8396,0.32689,-0.9838,-0.41905,-1.978,-18.18,37.98,18.24
1.1441,-9.1529,0.43585,-0.85094,-0.18479,-1.6341,-20.76,36.42,18.84
1.3212,-9.2618,0.50395,-0.70158,0.077885,-1.2624,-21.78,35.64,19.02
1.5119,-9.4389,0.50395,-0.52748,0.29658,-0.85155,-22.8,34.68,19.02
1.7298,-8.9349,0.095342,-0.35491,0.48625,-0.41692,-24.66,33.12,19.02
1.757,-8.4719,-0.068102,-0.097433,0.71899,0.14752,-25.2,32.52,18.9
1.9205,-9.3027,-0.28603,0.09499,0.79718,0.50366,-25.56,31.08,18.9
2.2065,-10.665,-0.23155,0.23518,0.76908,0.92607,-25.62,30.36,18.84
2.2201,-11.536,-0.34051,0.3769,0.73793,1.3922,-25.5,29.7,18.84
1.866,-11.141,-1.1169,0.53481,0.84147,1.8268,-25.44,28.8,18.84
1.9341,-9.9701,-1.6072,0.624,1.0183,2.0867,-25.56,28.44,18.96
2.0839,-9.3844,-2.261,0.61392,0.9951,2.0562,-25.86,28.2,18.54
1.9613,-10.542,-1.9613,0.57879,0.90103,1.9713,-26.1,28.26,18.24
1.6208,-11.536,-1.5119,0.52382,0.54153,1.7572,-26.34,28.32,18.0
1.2803,-11.918,-1.2667,0.56872,0.32254,1.7104,-26.7,28.5,17.88
0.46309,-11.06,-0.83084,0.6521,0.27825,1.7275,-27.42,29.28,17.7
0.28603,-10.229,-0.85808,0.75564,0.41325,1.7529,-27.54,29.64,17.94
0.8036,-8.4991,-1.4438,0.89034,0.63072,1.8176,-27.48,30.42,18.06
1.3484,-7.8998,-1.7706,0.91111,0.67409,1.8601,-27.06,30.84,18.24
1.6753,-7.6274,-1.9613,0.85307,0.64721,1.9914,-26.52,31.38,18.36
2.4653,-7.6955,-2.0567,0.74556,0.45571,2.0534,-25.02,32.16,18.78
2.4789,-7.8589,-1.8387,0.64416,0.21625,2.1081,-24.06,32.76,19.14
2.3563,-8.0905,-1.4165,0.5681,0.055589,2.1637,-23.22,33.12,19.32
2.3155,-9.4389,-1.1441,0.52779,0.03543,2.27,-21.06,33.96,19.5
2.3699,-9.8884,-1.2531,0.50641,0.10385,2.3372,-19.68,34.5,19.5
2.3563,-10.297,-1.6344,0.49175,0.16066,2.3689,-18.24,34.98,19.5
2.3563,-10.501,-1.7979,0.46365,0.53634,2.2941,-16.68,35.58,19.38
2.4108,-10.665,-1.866,0.45968,0.90378,2.1008,-13.2,36.6,19.02
2.8058,-11.128,-1.9205,0.45082,1.1383,1.8424,-11.58,37.14,18.42
3.5685,-12.599,-2.152,0.41539,1.0849,1.5681,-8.58,38.34,17.34
3.7047,-12.898,-2.3427,0.36224,0.64874,1.0828,-7.32,38.82,16.74
3.6775,-12.708,-2.4789,0.29993,0.38149,0.68356,-6.18,39.3,16.14
3.3642,-11.659,-2.5061,0.24404,0.2529,0.27336,-5.1,39.72,15.66
2.8603,-11.891,-2.4517,0.19364,0.26695,-0.063225,-3.36,40.5,14.82
3.2144,-14.969,-2.3155,0.11209,0.30513,-0.28527,-2.64,40.86,14.46
3.5685,-15.895,-2.6968,-0.025656,0.2361,-0.36744,-1.14,41.4,14.16
3.7047,-11.182,-2.8603,-0.24862,0.034208,-0.55558,-0.78,41.52,13.86
3.337,-9.0848,-2.6696,-0.35247,-0.051618,-0.81856,-0.36,41.52,13.92
3.0918,-8.6625,-2.4789,-0.45173,-0.20983,-1.1301,0.12,41.52,13.8
3.1191,-10.76,-1.7298,-0.55375,-0.52229,-1.3332,0.3,41.46,13.92
3.3097,-11.564,-1.6617,-0.65851,-1.0091,-1.4591,0.42,41.34,14.04
3.2825,-11.863,-1.4165,-0.7981,-1.4914,-1.4942,0.42,41.04,14.1
2.3155,-11.795,-0.78998,-0.90683,-1.7266,-1.5528,0.18,40.56,14.46
1.7979,-11.414,-0.65378,-1.0211,-1.5027,-1.733,-0.24,40.2,14.82
1.471,-10.637,-0.61292,-1.0513,-1.3332,-1.8143,-0.54,39.84,15.12
1.3484,-9.3844,-0.50395,-1.0898,-0.94928,-2.047,-1.2,39.06,15.96
1.4301,-8.9077,-0.31327,-1.0788,-0.85521,-2.1851,-1.62,38.64,16.56
1.6072,-8.7306,0.068102,-1.0342,-0.84635,-2.295,-2.76,37.5,17.76
1.6753,-8.7034,0.1362,-0.97219,-0.95264,-2.3882,-3.54,36.96,18.54
1.7162,-8.7034,0.21793,-0.95509,-1.0498,-2.4108,-4.5,36.48,19.02
1.7162,-8.7034,0.35413,-0.96242,-1.1008,-2.4086,-5.58,36.12,19.62
1.5391,-8.9349,0.39499,-0.99449,-1.1506,-2.3552,-7.5,35.28,20.1
1.3484,-8.8532,0.50395,-1.0079,-1.1011,-2.2828,-8.46,35.04,20.28
1.1441,-8.9622,0.54481,-0.98899,-0.95142,-2.1548,-10.2,34.38,20.46
1.0488,-9.1529,0.65378,-0.9334,-0.59804,-1.8622,-10.92,33.9,20.64
1.1713,-9.5479,0.69464,-0.86071,-0.45204,-1.7349,-11.76,33.6,20.82
1.1032,-10.542,0.65378,-0.70799,0.019853,-1.2895,-13.08,32.64,21.0
1.0215,-11.114,0.62654,-0.59071,0.39492,-0.95448,-13.74,32.28,21.06
0.91256,-11.223,0.54481,-0.45784,0.79718,-0.60751,-14.28,31.98,20.94
0.68102,-9.4934,0.28603,-0.32437,1.16,-0.32956,-15.12,31.38,20.76
0.6674,-9.1256,-0.19068,-0.093462,1.456,0.071471,-15.36,31.14,20.58
1.4029,-10.924,-0.1362,0.016188,1.4151,0.39004,-15.54,30.66,20.34
1.5391,-11.795,-0.1362,0.11362,1.226,0.76389,-15.6,30.42,20.4
1.3348,-11.782,-0.068102,0.22938,1.1127,1.1274,-15.66,30.12,20.4
1.1169,-10.052,-0.6674,0.33842,1.1851,1.3946,-16.02,29.76,20.1
1.2531,-9.0848,-1.0896,0.44227,1.1466,1.5379,-16.38,29.64,20.22
1.8387,-9.7794,-1.3484,0.53023,0.73518,1.5137,-17.34,29.82,19.92
1.7025,-10.706,-1.2531,0.60262,0.33292,1.496,-17.94,29.88,19.68
1.3212,-11.101,-0.99429,0.6466,0.15547,1.4862,-18.48,30.06,19.56
0.95342,-10.474,-0.96704,0.76389,-0.037568,1.4664,-19.62,30.24,19.62
1.0215,-9.9973,-1.0215,0.81795,0.011912,1.4536,-20.04,30.42,19.74
1.1713,-9.3027,-1.0624,0.85918,0.091019,1.4129,-20.22,30.72,20.04
1.5119,-8.0632,-1.3484,0.88881,0.31215,1.4343,-19.98,30.9,20.52
1.7706,-7.75,-1.2667,0.91263,0.45723,1.5134,-19.5,31.14,20.76
1.9613,-7.6955,-1.5119,0.86896,0.5287,1.624,-19.08,31.2,20.88
2.2201,-7.9815,-1.3893,0.86071,0.63835,1.7636,-17.76,31.74,21.24
2.5742,-8.2131,-1.3484,0.78985,0.67073,1.8662,-16.98,32.04,21.42
2.7513,-8.4991,-1.3212,0.72174,0.5452,2.0241,-15.9,32.46,21.48
2.4517,-9.5479,-1.3348,0.65576,0.48991,2.2978,-13.56,33.3,21.54
2.4789,-10.243,-1.471,0.59804,0.68478,2.3876,-12.24,33.66,21.54
2.547,-10.964,-1.5391,0.55711,0.93554,2.3998,-10.8,34.2,21.54
2.7649,-11.605,-1.6753,0.52565,1.0577,2.3925,-9.24,34.68,21.18
3.3778,-12.204,-2.0975,0.47342,1.3085,2.2626,-6.48,35.88,20.28
3.8273,-12.34,-2.3427,0.43555,1.3091,2.0449,-5.22,36.36,19.68
4.2223,-12.395,-2.6696,0.37141,1.1341,1.762,-3.96,37.02,19.08
4.699,-12.49,-2.9829,0.26053,0.78863,1.4099,-1.86,38.1,17.7
4.6718,-12.027,-2.9011,0.082467,0.19028,0.81917,-0.9,38.58,17.22
4.4539,-11.141,-2.7377,-0.025351,-0.095295,0.40653,0.12,39.0,16.68
3.7728,-11.564,-2.5334,-0.086743,-0.17593,-0.012828,1.56,39.72,15.9
3.8682,-14.247,-2.2474,-0.18479,-0.12004,-0.31521,2.28,39.84,15.6
3.8818,-14.424,-2.547,-0.36041,-0.26359,-0.58429,3.48,40.02,15.24
3.623,-9.8339,-2.5742,-0.46426,-0.38485,-0.79596,3.9,40.2,15.18
3.4051,-9.4117,-2.4108,-0.58643,-0.41478,-1.0629,4.2,40.26,15.12
3.5004,-10.025,-2.0839,-0.69822,-0.55864,-1.3344,4.56,40.38,15.18
3.9635,-12.217,-1.362,-0.81398,-0.99327,-1.4737,4.86,40.26,15.12
3.8273,-12.517,-1.2531,-0.94684,-1.5568,-1.5085,4.86,40.08,15.06
3.3642,-12.544,-0.85808,-1.0776,-1.9484,-1.5455,4.74,39.9,15.12
2.0567,-12.544,-0.47671,-1.2562,-1.8824,-1.7003,4.44,39.66,15.66
1.6617,-12.313,-0.28603,-1.357,-1.4868,-1.8897,4.14,39.54,15.9
1.0215,-11.223,-0.095342,-1.3998,-1.0082,-2.1261,3.84,39.3,16.32
0.62654,-9.6023,0.17706,-1.3711,-0.55497,-2.3876,3.06,38.76,17.34
0.70826,-8.9077,0.28603,-1.2886,-0.24465,-2.6466,2.4,38.4,17.88
0.91256,-8.3357,0.35413,-1.1594,-0.08491,-2.8448,1.56,38.04,18.36
1.471,-8.5263,0.24517,-1.0482,-0.11881,-3.0656,-0.54,37.5,19.32
1.7025,-8.7579,0.16344,-0.94409,-0.23335,-3.1078,-1.92,37.2,19.56
1.7706,-8.8941,0.17706,-0.93218,-0.30574,-3.0913,-3.3,36.9,19.62
1.9477,-9.0984,0.40861,-0.91447,-0.55619,-2.9624,-5.7,36.24,19.74
1.8524,-9.221,0.54481,-0.9163,-0.67104,-2.7837,-6.78,35.94,19.92
1.8524,-9.221,0.54481,-0.88973,-0.67959,-2.5076,-6.78,35.94,19.92
1.185,-9.8339,0.6674,-0.81703,-0.46181,-1.9413,-9.3,35.1,20.16
0.8036,-10.011,0.61292,-0.66706,-0.16096,-1.4939,-11.58,34.26,20.46
0.72188,-9.9837,0.64016,-0.53115,0.21075,-1.0776,-12.78,33.78,20.46
0.34051,-9.398,0.38137,-0.37721,0.63866,-0.6524,-14.88,33.0,20.4
0.6674,-8.431,-0.16344,-0.19853,0.99724,-0.27764,-16.56,32.34,20.1
1.0488,-8.5808,-0.36775,-0.033292,1.1637,0.067501,-17.16,31.92,19.92
1.8387,-11.332,-0.24517,0.078802,1.0983,0.45907,-17.82,31.14,19.92
2.0567,-12.844,-0.068102,0.12462,0.81856,1.1781,-17.94,30.3,20.34
1.5255,-10.76,-0.54481,0.30696,0.83047,1.5996,-18.42,29.94,20.52
1.5936,-9.6023,-0.92618,0.47373,0.95112,1.8305,-18.72,29.82,20.4
1.8387,-8.5536,-1.6617,0.62217,0.9166,1.8796,-19.32,29.82,19.62
2.0294,-9.8884,-1.7843,0.686,0.62217,1.7956,-20.22,30.06,18.96
1.9613,-11.346,-1.58,0.73029,0.19395,1.7929,-21.18,30.54,18.18
1.8251,-12.245,-1.2939,0.8152,-0.21014,1.8586,-22.14,31.02,17.58
1.757,-11.359,-1.0215,0.94226,-0.3317,1.9804,-22.62,31.56,17.4
1.9068,-10.256,-1.0351,1.0113,-0.24618,2.021,-22.8,32.16,17.88
1.8932,-9.4389,-1.4165,1.0626,-0.17043,2.0149,-22.74,32.58,18.3
1.6617,-8.3901,-1.8524,1.0641,-0.083689,2.0409,-21.72,33.12,18.96
1.7979,-7.3958,-1.9613,1.0308,0.086743,2.0772,-20.1,33.84,19.74
1.9341,-7.3414,-1.7979,0.98716,0.28344,2.1203,-19.08,34.38,20.28
2.5061,-7.464,-1.7706,0.9276,0.36102,2.2382,-16.74,35.16,20.88
2.7649,-8.1586,-1.7025,0.81734,0.1857,2.3552,-13.8,35.94,21.36
2.7649,-8.826,-1.7706,0.73304,0.074831,2.4722,-12.18,36.54,21.48
2.6423,-10.025,-1.8932,0.66126,0.10476,2.5748,-9.0,37.44,21.24
2.833,-10.869,-2.1656,0.5901,0.29474,2.6374,-5.76,38.34,20.46
2.9692,-11.332,-2.3836,0.55253,0.58063,2.594,-2.82,39.3,19.02
3.1735,-11.605,-2.4789,0.51007,0.9334,2.3308,-1.56,39.72,18.36
3.6094,-11.945,-2.8194,0.44074,0.8714,2.047,0.6,40.68,17.16
4.4402,-12.313,-3.051,0.3427,0.59804,1.7123,2.52,41.16,16.32
4.5492,-12.599,-3.0918,0.22174,0.22327,1.3066,3.42,41.52,15.9
4.1814,-12.395,-2.8603,0.10599,-0.080634,0.85491,5.1,41.94,15.0
3.1599,-11.319,-2.3291,0.0033598,-0.17715,0.37782,6.54,42.06,14.58
2.6968,-11.945,-2.0839,-0.047037,-0.018631,-0.074526,7.32,42.3,14.4
3.1872,-14.274,-2.0158,-0.11973,0.3372,-0.55558,8.4,42.42,14.34
3.7592,-14.846,-1.9477,-0.21014,0.32712,-0.71502,9.12,42.42,14.16
3.7865,-11.032,-2.0703,-0.28314,0.10904,-0.86468,9.36,42.48,14.4
3.4732,-9.5206,-2.0567,-0.35277,-0.063225,-1.0812,9.54,42.6,14.52
3.4051,-8.8941,-1.8387,-0.42058,-0.2587,-1.3702,9.54,42.42,14.64
4.0452,-11.482,-1.3893,-0.51099,-0.66523,-1.5855,9.18,42.54,14.76
4.3177,-12.776,-1.0351,-0.72479,-1.8353,-1.6344,8.7,42.54,15.24
4.0316,-13.048,-0.8036,-0.90622,-2.5323,-1.6008,8.22,42.48,15.24
2.4517,-12.885,-0.38137,-1.0931,-2.7242,-1.6283,7.56,42.36,15.6
1.0079,-11.986,0.12258,-1.2327,-2.3479,-1.7361,6.84,42.36,16.2
0.5993,-10.447,0.14982,-1.2963,-1.7,-1.876,6.18,42.0,17.1
0.58567,-9.7794,0.20431,-1.3036,-1.1005,-2.073,5.76,41.82,17.52
0.64016,-8.5808,0.14982,-1.2636,-0.69669,-2.281,4.62,41.28,18.42
0.64016,-8.2403,0.31327,-1.1793,-0.35827,-2.606,3.12,40.92,19.56
0.88532,-8.3084,0.28603,-1.1371,-0.21777,-2.7846,2.22,40.56,20.1
1.2667,-8.6217,0.39499,-1.1002,-0.18448,-2.9435,1.14,40.26,21.06
1.471,-9.2482,0.50395,-1.0831,-0.23427,-3.0033,-2.58,40.08,21.66
1.58,-9.4253,0.64016,-1.0889,-0.32895,-2.9642,-3.78,39.96,21.66
1.5119,-9.5887,0.61292,-1.0889,-0.36957,-2.7736,-6.48,39.6,21.9
1.362,-9.4117,0.53119,-1.0644,-0.29627,-2.5534,-9.12,39.18,21.78
1.2122,-9.507,0.68102,-1.0079,-0.16096,-2.2639,-11.7,38.64,21.78
1.1577,-10.215,0.5993,-0.92241,0.036041,-1.8757,-12.84,38.28,21.66
1.0624,-10.937,0.83084,-0.83475,0.26389,-1.4765,-14.76,37.56,21.54
0.78998,-10.869,0.83084,-0.69028,0.57727,-1.0482,-16.26,36.96,21.42
0.85808,-9.8066,0.57205,-0.4105,1.1243,-0.42119,-17.34,35.82,21.3
0.89894,-9.3027,0.36775,-0.18937,1.3622,-0.09499,-17.7,35.28,21.3
1.3757,-9.4798,-0.10896,0.018937,1.4175,0.2361,-18.36,34.2,21.66
2.2065,-11.673,-0.44947,0.09499,1.3204,0.69455,-19.02,33.3,21.48
2.2746,-11.795,-0.55843,0.17226,1.1603,1.2138,-19.62,32.7,21.42
2.261,-10.665,-0.7355,0.32284,1.0559,1.6988,-20.1,32.4,21.12
2.2474,-9.3572,-1.5119,0.50793,0.94226,2.0998,-21.0,32.22,20.4
2.3291,-9.7658,-1.9477,0.56413,0.68295,2.1588,-22.02,32.22,19.44
2.1384,-11.387,-1.9068,0.57513,0.31857,2.2141,-22.92,32.22,18.48
2.1248,-11.945,-1.8251,0.61911,-0.083994,2.2752,-23.4,32.46,18.3
1.8932,-11.904,-1.6344,0.66706,-0.33537,2.3448,-24.0,32.7,18.12
1.6889,-10.692,-1.6481,0.72479,-0.29505,2.3534,-24.24,33.24,18.48
1.5119,-9.4798,-1.6617,0.78802,-0.09163,2.3243,-23.76,33.6,19.14
1.471,-8.4719,-1.6344,0.84147,0.219,2.2006,-23.16,33.78,19.56
1.6072,-7.2324,-1.8251,0.83017,0.39218,2.138,-21.42,34.5,20.46
1.8387,-7.0009,-1.8796,0.79199,0.53878,2.0843,-20.34,34.86,20.94
2.3155,-7.246,-1.7706,0.71716,0.63011,2.0815,-17.88,35.64,21.54
2.833,-8.2403,-1.7298,0.64294,0.63713,2.102,-15.0,36.66,22.08
3.1599,-9.4798,-1.9613,0.5962,0.59071,2.1808,-13.5,37.26,22.26
3.5822,-10.215,-2.3427,0.47098,0.51343,2.3527,-10.44,38.1,22.14
3.8546,-10.215,-2.5742,0.37782,0.54306,2.3863,-7.32,39.12,21.48
3.7865,-9.8748,-2.7104,0.32956,0.65851,2.2999,-4.5,39.96,20.52
4.0452,-10.161,-2.6015,0.30085,0.83322,2.0986,-2.34,40.92,19.08
4.0997,-10.392,-2.6423,0.28802,0.9276,1.8228,-1.5,41.16,18.78
4.4811,-11.4,-2.7241,0.28314,0.77091,1.4383,-0.72,41.52,17.64
4.8488,-11.959,-2.7377,0.22052,0.53939,1.2058,1.32,42.12,17.22
4.8216,-11.918,-2.6696,0.16341,0.34728,0.89034,1.92,42.24,16.92
4.5356,-11.468,-2.5606,0.099571,0.25198,0.5342,3.06,42.3,16.44
4.2768,-12.612,-2.261,0.056505,0.23427,0.15027,4.2,42.48,16.2
4.4947,-14.288,-2.0703,0.0064141,0.16738,-0.17074,4.5,42.54,16.14
4.9578,-15.895,-2.1112,-0.098044,-0.058948,-0.34544,5.16,42.6,15.84
4.2768,-11.986,-2.1656,-0.26145,-0.57177,-0.79535,5.64,42.6,15.84
3.2961,-9.1937,-1.9068,-0.33598,-0.70769,-1.197,5.7,42.66,15.84
3.0101,-10.011,-1.5391,-0.39981,-0.76633,-1.6249,5.76,42.6,15.84
3.2416,-12.136,-1.3212,-0.46487,-1.0201,-1.9041,5.46,42.54,16.2
3.3506,-12.776,-1.1577,-0.551,-1.4914,-2.022,4.86,42.24,16.38
2.7649,-12.708,-0.89894,-0.68631,-1.8885,-2.0824,4.2,42.0,16.8
2.1248,-12.354,-0.78998,-0.87354,-1.9264,-2.2086,3.72,41.88,16.98
1.1986,-11.373,-0.5993,-0.9728,-1.5882,-2.3335,2.76,41.52,17.64
0.89894,-10.406,-0.50395,-1.0296,-1.171,-2.4905,1.2,40.98,18.6
0.69464,-9.3436,-0.50395,-1.0415,-0.821,-2.6469,0.3,40.56,19.02
0.99429,-8.6217,-0.39499,-1.0354,-0.57757,-2.7529,-1.86,39.84,20.4
1.2258,-8.3357,-0.35413,-1.0266,-0.42913,-2.8207,-4.86,39.3,21.78
1.4438,-8.4446,-0.17706,-1.0208,-0.3992,-2.8616,-8.1,38.7,22.14
1.4846,-8.5536,-0.12258,-1.0434,-0.43677,-2.8671,-9.96,38.28,22.14
1.471,-8.5672,0.01362,-1.0602,-0.49297,-2.795,-13.26,37.74,22.14
1.4438,-8.6217,0.21793,-1.058,-0.52809,-2.6542,-16.26,37.02,21.9
1.2939,-8.5808,0.25879,-1.0339,-0.5452,-2.4227,-19.02,36.12,21.72
1.3484,-8.5808,0.25879,-0.97769,-0.48136,-2.1188,-20.28,35.76,21.66
1.1169,-8.8941,0.28603,-0.8937,-0.33323,-1.7984,-22.26,34.8,21.42
1.2258,-9.3163,0.38137,-0.74464,-0.007025,-1.2398,-23.76,33.66,21.18
1.2803,-9.5615,0.32689,-0.62308,0.22022,-0.81367,-24.18,33.0,20.82
1.3212,-10.243,0.31327,-0.48472,0.44685,-0.36835,-24.48,31.44,20.88
1.2258,-9.793,0.10896,-0.32926,0.64904,0.029322,-24.42,30.12,21.36
1.5119,-10.583,0.12258,-0.078496,0.8265,0.55803,-24.48,28.68,22.2
1.5119,-10.583,0.12258,-0.0085521,0.83841,0.74648,-24.48,28.68,22.2
1.5663,-13.402,0.58567,0.14722,0.87109,1.4569,-24.66,27.66,22.8
1.2531,-12.762,0.40861,0.32712,1.0913,1.9609,-24.84,27.18,22.68
1.3484,-9.9429,-0.76274,0.51954,1.3882,2.3198,-25.14,26.88,22.26
2.0294,-9.7522,-1.7434,0.65821,1.4804,2.5033,-25.5,26.88,21.9
2.7649,-10.828,-2.1929,0.6185,1.171,2.5152,-25.92,27.12,21.36
2.7241,-12.776,-1.8387,0.52168,0.63774,2.4905,-26.94,27.48,20.28
1.9341,-12.326,-1.5527,0.44838,-0.071166,2.3931,-27.42,27.9,19.98
1.2258,-11.455,-1.1441,0.49786,-0.093768,2.3408,-27.84,28.2,19.98
0.89894,-10.406,-1.1169,0.60903,0.12828,2.2535,-27.96,28.68,20.16
1.1441,-8.5944,-1.471,0.71349,0.44899,2.1399,-27.78,29.58,20.34
1.6344,-7.5729,-1.7706,0.76328,0.88881,1.9435,-27.48,30.18,20.58
2.2474,-7.3277,-1.6753,0.7535,0.96089,1.9105,-27.0,30.72,20.64
2.6696,-7.3277,-1.3484,0.6918,0.81581,1.8958,-25.8,31.86,20.94
2.9692,-7.4503,-1.1577,0.63438,0.43188,1.9245,-25.02,32.4,21.18
3.2553,-7.4912,-1.0351,0.60231,-0.071166,1.9505,-24.12,32.94,21.3
3.5277,-8.5263,-1.1169,0.57513,-0.54459,1.9597,-22.02,33.96,21.78
3.2416,-9.2891,-1.4982,0.52534,-0.91844,1.9511,-20.64,34.62,22.14
2.656,-10.42,-1.9341,0.49969,-0.91996,1.9279,-17.34,35.82,22.56
2.2746,-10.569,-2.0294,0.4383,-0.60812,1.8366,-15.54,36.3,22.68
1.975,-10.665,-2.0567,0.43127,-0.41203,1.7678,-13.8,36.96,22.44
2.0431,-10.719,-2.2474,0.43585,0.24832,1.5061,-12.36,37.44,21.9
2.6423,-11.387,-2.6696,0.42516,0.55436,1.3244,-9.48,38.58,20.7
3.1872,-12.19,-2.9148,0.3543,0.51313,1.0715,-8.22,39.06,20.04
3.732,-12.34,-2.833,0.24435,0.40806,0.97158,-6.0,40.02,19.08
3.6366,-11.7,-2.8058,0.099876,0.13531,0.59743,-5.1,40.44,18.84
3.3097,-11.496,-2.6287,0.047647,0.10324,0.2642,-4.08,40.98,18.36
3.4596,-15.255,-2.2337,-0.051924,0.078802,-0.018326,-2.46,41.28,17.88
3.5685,-16.481,-2.2474,-0.16371,-0.053451,-0.19181,-1.8,41.4,17.58
3.228,-10.474,-2.438,-0.27153,-0.26084,-0.48869,-0.78,41.4,17.4
2.6832,-8.4991,-2.1248,-0.36163,-0.37782,-1.0806,-0.42,41.52,17.4
2.7241,-9.4798,-1.9068,-0.42394,-0.49144,-1.4988,-0.06,41.52,17.28
2.9011,-10.542,-1.7434,-0.51618,-0.88759,-1.7593,-0.06,41.46,17.22
3.5413,-12.217,-1.471,-0.64049,-1.5122,-1.8809,0.12,41.16,17.46
3.3506,-12.558,-1.185,-0.80359,-2.098,-1.8955,0.06,40.98,17.76
2.8058,-12.694,-0.7355,-0.98105,-2.35,-1.8989,-0.12,40.44,18.18
1.2258,-11.768,-0.64016,-1.2055,-1.9749,-1.9603,-0.3,40.02,18.72
0.70826,-10.801,-0.55843,-1.2645,-1.7025,-2.007,-0.42,39.6,18.84
0.40861,-10.025,-0.44947,-1.3589,-1.0983,-2.1231,-0.78,39.18,19.44
0.16344,-9.0575,-0.25879,-1.3897,-0.21625,-2.3225,-1.74,38.22,20.82
0.35413,-8.5944,-0.20431,-1.3387,0.27764,-2.4926,-2.52,37.74,21.54
0.72188,-8.3901,-0.16344,-1.2709,0.57727,-2.6508,-3.3,37.2,22.08
1.3484,-8.5808,-0.29965,-1.2135,0.6127,-2.8628,-5.7,36.3,22.62
1.5663,-8.8532,-0.24517,-1.2031,0.44104,-2.9538,-7.08,35.88,22.8
1.6753,-8.9622,-0.12258,-1.1811,0.19212,-2.9633,-8.22,35.46,22.92
1.7025,-9.2074,0.19068,-1.146,-0.047953,-2.8753,-10.5,34.68,22.98
1.6481,-9.4117,0.17706,-1.0947,-0.23335,-2.6961,-11.64,34.14,22.98
1.6889,-9.6432,0.29965,-1.0146,-0.33842,-2.3873,-12.84,33.66,23.04
1.6617,-10.025,0.50395,-0.8772,-0.32712,-1.7236,-15.24,32.46,22.92
1.7843,-10.134,0.43585,-0.82131,-0.28222,-1.4878,-16.38,31.98,23.1
1.7298,-10.174,0.47671,-0.69791,-0.10354,-0.97158,-17.64,31.26,22.92
1.7706,-9.1529,0.34051,-0.44746,0.32712,-0.27397,-19.38,30.3,22.38
1.6617,-8.3493,0.17706,-0.22419,0.57727,0.087965,-20.1,29.82,22.14
1.7843,-8.9758,0.01362,0.0064141,0.68539,0.46395,-20.76,29.34,21.96
2.0975,-11.686,-0.10896,0.18845,0.73212,1.1967,-21.18,28.26,21.9
1.7706,-11.972,-0.19068,0.25259,0.86804,1.6417,-21.36,27.9,21.84
1.7025,-11.005,-0.29965,0.38576,1.1884,1.9245,-21.6,27.42,21.9
2.2201,-8.7579,-0.99429,0.56261,1.4248,2.0546,-22.14,26.76,21.72
2.5061,-9.2891,-1.3484,0.6185,1.3723,2.0152,-22.56,26.76,21.54
2.3155,-10.583,-1.4165,0.6185,0.91935,1.959,-22.86,26.76,21.3
1.6072,-12.149,-1.3212,0.6857,0.06353,2.0809,-23.64,27.12,20.82
1.4982,-11.591,-1.2258,0.74923,-0.11026,2.0928,-24.18,27.24,20.7
1.4301,-11.005,-1.1577,0.78588,-0.058643,2.0586,-24.48,27.66,20.58
1.5391,-9.3708,-1.362,0.9163,0.34392,1.9502,-24.9,28.44,20.7
1.6072,-8.4719,-1.6753,0.99174,0.4948,1.8735,-24.84,28.86,20.88
1.8932,-7.7364,-1.9613,1.0134,0.54123,1.8589,-24.54,29.4,20.94
2.4108,-7.5321,-2.0294,1.0119,0.4273,1.9484,-23.58,30.48,21.12
2.6015,-7.5321,-1.9477,0.92821,0.16402,2.0036,-22.92,30.9,21.18
3.0373,-7.8181,-1.7979,0.82681,-0.17196,2.0589,-22.14,31.56,21.3
2.6832,-8.6353,-1.6072,0.72357,-0.42241,2.1206,-20.22,32.7,21.42
2.3155,-9.0303,-1.5936,0.65515,-0.41325,2.1567,-19.14,33.24,21.42
2.0431,-9.5751,-1.6072,0.5791,-0.11332,2.2232,-17.88,33.84,21.48
1.6072,-10.542,-1.7843,0.53481,0.40928,2.2513,-14.94,35.16,21.48
1.7298,-10.733,-1.7979,0.51679,1.4245,2.1945,-13.26,35.88,21.18
2.0567,-11.114,-1.8932,0.5116,1.7123,2.1402,-11.7,36.48,20.82
3.3506,-12.149,-2.4789,0.49786,2.0058,1.9071,-8.7,37.62,19.68
3.9635,-12.708,-2.7922,0.42547,1.7584,1.6878,-7.38,38.16,19.02
4.5083,-13.076,-3.0237,0.28772,1.2892,1.3836,-6.24,38.76,18.36
4.5356,-12.149,-2.8603,0.17043,0.73915,0.98288,-4.2,39.78,17.4
4.3858,-11.536,-2.6696,0.045204,0.10354,0.29413,-3.24,40.08,16.98
3.7728,-11.768,-2.438,-0.028711,-0.095906,-0.10476,-2.52,40.5,16.38
3.6094,-15.405,-2.0431,-0.066584,-0.16554,-0.24984,-1.32,41.22,15.78
3.5958,-14.124,-2.2201,-0.20433,-0.38026,-0.57849,-0.78,41.4,15.48
3.3778,-11.278,-2.3972,-0.29596,-0.44227,-0.80084,-0.36,41.52,15.24
3.1191,-8.5808,-1.9205,-0.38301,-0.42913,-1.0883,-0.24,41.64,14.88
3.2825,-9.5615,-1.6753,-0.49388,-0.73243,-1.4838,-0.18,41.52,14.76
3.9908,-11.918,-1.2395,-0.61025,-1.3613,-1.5522,-0.36,41.64,15.0
3.9635,-12.898,-0.92618,-0.77122,-2.1451,-1.5357,-0.54,41.58,15.24
3.3234,-12.994,-0.69464,-0.95814,-2.6292,-1.4945,-0.72,41.58,15.42
2.7104,-12.98,-0.57205,-1.117,-2.5571,-1.5385,-0.96,41.28,15.66
1.185,-11.346,-0.01362,-1.2272,-2.051,-1.6619,-1.86,40.62,16.5
1.0215,-10.706,-0.01362,-1.2865,-1.2651,-1.9328,-2.34,40.32,17.1
0.89894,-9.5751,0.095342,-1.2694,-0.9444,-2.1307,-2.88,39.96,17.88
0.8036,-8.7306,0.12258,-1.2471,-0.70433,-2.3109,-4.2,38.7,19.26
0.96704,-8.3901,0.16344,-1.211,-0.51801,-2.4957,-5.1,38.16,20.1
1.0215,-8.4855,0.24517,-1.1579,-0.38698,-2.6799,-6.12,37.68,20.82
1.2939,-8.7306,0.24517,-1.1347,-0.30788,-2.8152,-8.34,36.6,21.9
1.3893,-8.9894,0.28603,-1.1151,-0.27794,-2.8879,-9.6,36.12,22.26
1.4438,-9.2346,0.34051,-1.1057,-0.27672,-2.8799,-10.74,35.46,22.56
1.3757,-9.3844,0.51757,-1.0602,-0.25595,-2.7712,-12.84,34.08,22.56
1.3484,-9.398,0.53119,-1.0061,-0.20739,-2.5892,-13.92,33.24,22.68
1.4574,-9.4117,0.57205,-0.92363,-0.14539,-2.3234,-14.88,32.58,22.8
1.4165,-10.025,0.58567,-0.81367,-0.03207,-1.9856,-16.8,31.02,22.74
1.4982,-10.229,0.6674,-0.69791,0.24679,-1.3595,-17.76,30.3,22.68
1.6072,-9.902,0.61292,-0.57696,0.35919,-1.1539,-19.44,28.8,22.32
1.6753,-9.3436,0.47671,-0.3992,0.57177,-0.73854,-20.16,28.02,22.08
1.7025,-8.7851,0.32689,-0.18692,0.73915,-0.32009,-20.58,27.24,21.72
1.7706,-8.9213,-0.01362,0.11637,0.81459,0.27733,-20.88,26.4,21.36
2.1112,-10.951,-0.1362,0.2361,0.80023,0.75198,-21.06,24.9,20.94
2.0567,-11.536,-0.054481,0.36102,0.78618,1.2388,-21.12,24.3,21.0
1.9477,-9.7385,-1.0079,0.54611,0.98807,1.8503,-21.54,23.28,20.58
2.0703,-8.7987,-1.9477,0.57544,1.0253,1.9978,-21.78,23.1,20.34
2.3291,-8.7306,-2.5334,0.48045,0.88178,2.0113,-22.08,22.98,19.98
2.1248,-10.924,-2.1929,0.39645,0.67837,2.0284,-23.04,22.92,19.14
1.8932,-12.136,-1.6753,0.39462,0.44532,2.0922,-23.58,22.98,18.66
1.4165,-11.877,-1.2122,0.43494,0.33262,2.1912,-24.72,23.58,17.94
1.2531,-11.087,-1.1305,0.58399,0.48564,2.244,-25.08,23.76,17.82
1.4029,-10.556,-1.1577,0.68753,0.62492,2.1869,-25.5,24.0,18.0
1.5663,-8.826,-1.6617,0.73334,0.67745,2.1283,-25.68,24.66,18.42
1.8932,-8.1586,-1.8524,0.82803,0.72571,1.9939,-25.56,25.08,18.6
2.3427,-7.8317,-2.1248,0.84055,0.60842,1.9392,-25.26,25.5,18.9
3.2553,-7.5321,-1.6753,0.80023,0.29749,1.8964,-24.12,26.4,19.14
3.2961,-7.5321,-1.5936,0.70769,-0.49541,1.8008,-23.52,26.88,19.38
2.9148,-7.641,-1.3212,0.66951,-0.93676,1.7596,-22.68,27.3,19.74
2.1112,-8.2267,-0.98067,0.62614,-1.036,1.7379,-20.7,27.9,20.34
1.7298,-8.8941,-1.0079,0.61575,-0.81917,1.7287,-19.5,28.44,20.7
1.757,-9.5887,-1.2531,0.62492,-0.43585,1.7633,-18.06,28.98,21.06
2.0839,-10.542,-1.58,0.59895,-0.026878,1.8185,-15.06,29.94,21.18
2.2474,-10.896,-1.757,0.55711,0.55222,1.85,-13.5,30.36,21.06
2.5061,-11.169,-1.9205,0.54,0.85124,1.8308,-12.06,30.96,20.7
3.1599,-12.313,-2.2746,0.52687,0.94104,1.7959,-9.6,32.16,19.92
3.7456,-12.817,-2.4517,0.41844,0.92577,1.6209,-8.58,32.52,19.5
4.1406,-12.898,-2.656,0.2978,0.70585,1.4099,-7.8,33.12,18.96
4.1542,-11.877,-2.6423,0.23305,0.43219,1.1328,-6.06,33.78,18.54
3.9635,-11.577,-2.6423,0.14661,0.15821,0.56597,-5.34,34.14,18.3
3.6775,-12.762,-2.656,0.11729,0.10751,0.36682,-4.8,34.44,18.12
3.7592,-15.255,-2.6832,-0.061392,-0.026878,-0.087354,-3.48,34.98,17.64
3.9227,-13.729,-2.7377,-0.21258,-0.22358,-0.41905,-3.0,34.98,17.52
3.6639,-10.951,-2.7104,-0.31398,-0.32987,-0.81948,-2.7,35.04,17.22
2.7513,-8.0632,-2.3291,-0.40684,-0.41692,-1.2639,-2.04,34.86,17.1
2.8058,-9.2482,-1.9886,-0.47831,-0.71074,-1.7843,-1.92,34.98,16.92
3.4187,-11.278,-1.7979,-0.67073,-1.2159,-1.8958,-1.74,34.74,16.98
3.5277,-12.286,-1.6072,-0.85246,-1.8152,-1.8961,-1.8,34.68,17.1
3.2144,-13.089,-1.2531,-1.0559,-2.1799,-1.8213,-1.68,34.56,17.28
1.7979,-13.076,-0.69464,-1.2367,-2.0159,-1.7892,-1.86,34.08,17.76
1.0079,-12.408,-0.44947,-1.3476,-1.4068,-1.8286,-2.1,33.84,18.0
0.78998,-11.346,-0.31327,-1.3845,-0.70005,-1.9233,-2.1,33.42,18.36
0.78998,-11.346,-0.31327,-1.3769,-0.4218,-1.9887,-2.1,33.42,18.36
0.78998,-11.346,-0.31327,-1.3769,-0.4218,-1.9887,-2.1,33.42,18.36
1.2667,-8.826,0.027241,-1.2364,-0.062308,-2.2642,-3.78,31.56,20.58
1.471,-8.4991,0.29965,-1.1927,-0.09499,-2.3998,-5.22,30.72,21.84
1.471,-8.4991,0.35413,-1.1555,-0.15149,-2.5284,-6.3,30.54,22.26
1.5527,-8.7443,0.43585,-1.1234,-0.27,-2.5983,-7.92,29.94,22.68
1.5119,-8.8941,0.51757,-1.0876,-0.4047,-2.6084,-8.7,29.4,22.74
1.4029,-9.0575,0.46309,-1.0513,-0.47983,-2.5507,-9.42,28.92,22.56
1.0896,-9.4117,0.54481,-0.96944,-0.40684,-2.3353,-10.74,28.14,22.68
1.2258,-9.6432,0.65378,-0.88209,-0.27184,-2.0879,-11.46,27.6,22.5
1.3212,-10.025,0.81722,-0.77458,-0.08827,-1.7596,-12.12,27.12,22.38
1.4029,-10.447,0.89894,-0.65271,0.15485,-1.3338,-13.62,26.22,22.14
1.4438,-10.501,0.88532,-0.51282,0.43799,-0.91019,-14.04,25.74,21.9
1.4165,-10.011,0.85808,-0.34453,0.74312,-0.49205,-14.46,25.38,21.42
1.3348,-8.5808,0.32689,-0.034819,1.1133,0.0562,-15.12,24.48,20.7
1.58,-8.6625,0.068102,0.18631,1.1555,0.43097,-15.24,24.06,20.28
1.8932,-10.052,-0.027241,0.31826,1.0666,0.84025,-15.3,23.4,19.86
2.3699,-11.427,-0.44947,0.39828,0.85674,1.2648,-15.9,22.56,19.2
2.261,-10.964,-0.5993,0.52962,0.67073,1.8045,-16.14,22.32,19.02
2.1248,-9.7658,-1.0488,0.59987,0.60079,1.9786,-16.56,22.08,18.9
2.0294,-9.9156,-1.5663,0.62614,0.46242,2.0052,-17.58,21.54,18.24
1.9341,-10.869,-1.58,0.64507,0.27306,1.9563,-18.18,21.66,17.88
1.866,-11.468,-1.4846,0.64752,0.0562,1.9028,-18.72,21.72,17.64
1.58,-11.605,-1.2803,0.67898,-0.14111,1.8341,-19.74,21.96,17.34
1.3212,-11.128,-1.3348,0.78191,-0.19334,1.6829,-20.22,22.2,17.46
1.2803,-10.406,-1.2803,0.85368,-0.081856,1.6017,-20.52,22.38,17.46
1.3212,-8.7306,-1.6617,0.88789,-0.023824,1.551,-20.58,22.8,17.88
1.5119,-8.1177,-1.866,0.9447,0.1124,1.4878,-20.4,23.16,18.12
1.9205,-7.6683,-1.8932,0.93279,0.208,1.5018,-19.98,23.52,18.42
2.4108,-7.4367,-1.6481,0.92302,0.24404,1.5305,-18.78,24.18,19.08
2.547,-7.4776,-1.5391,0.87262,0.074526,1.6081,-18.18,24.54,19.2
2.6832,-7.7227,-1.6344,0.85307,-0.049786,1.649,-17.34,24.84,19.32
2.4108,-8.5127,-1.6889,0.79412,-0.27245,1.8079,-15.36,25.62,19.74
2.2337,-9.0848,-1.7434,0.73609,-0.15394,1.9129,-14.16,25.8,19.98
2.1384,-9.6023,-1.6072,0.69333,0.13073,1.9911,-12.96,26.28,20.04
2.3291,-10.447,-1.8387,0.66432,0.47098,2.0629,-10.5,27.18,20.16
2.4789,-10.951,-2.152,0.58613,0.84788,2.0614,-8.16,28.14,19.5
2.9284,-11.918,-2.2882,0.54581,0.91233,2.014,-7.2,28.74,18.96
3.2416,-12.19,-2.547,0.48228,0.81886,1.9114,-6.3,29.16,18.48
3.5685,-12.612,-2.7241,0.3769,0.60415,1.7364,-5.46,29.52,18.06
3.7184,-12.667,-2.7377,0.27153,0.35064,1.4459,-4.2,30.42,17.22
3.4459,-12.054,-2.656,0.19303,0.15027,1.0531,-3.6,30.78,16.86
2.9284,-11.741,-2.5334,0.12981,0.07758,0.58399,-2.28,31.32,16.5
2.8603,-13.593,-2.4108,0.016493,0.075442,-0.040012,-1.62,31.56,16.2
2.9556,-14.506,-2.5061,-0.10965,0.051313,-0.32773,-1.2,31.8,16.08
3.2008,-12.286,-2.6015,-0.24221,0.015577,-0.63377,-0.6,32.16,16.08
3.051,-10.093,-2.4108,-0.35797,0.009163,-0.95051,-0.24,32.04,15.96
2.6832,-9.1937,-2.0839,-0.45448,-0.014966,-1.288,-0.18,32.1,15.78
2.833,-10.828,-1.8251,-0.63897,-0.33384,-1.6206,0.12,31.92,15.96
3.0237,-11.414,-1.7434,-0.79229,-0.77946,-1.6997,0.12,31.74,16.08
3.1599,-12.108,-1.5391,-0.87934,-1.0046,-1.7074,0.06,31.68,16.32
2.5061,-12.463,-1.1169,-1.1228,-1.3244,-1.7141,-0.06,31.32,17.04
1.6481,-12.217,-0.81722,-1.2428,-1.1075,-1.7642,-0.06,31.02,17.46
1.0896,-11.564,-0.64016,-1.317,-0.64324,-1.9007,-0.24,30.72,17.94
0.76274,-9.7385,-0.23155,-1.2859,0.03543,-2.1988,-0.84,29.76,19.08
0.89894,-9.0984,-0.10896,-1.1912,0.27214,-2.3931,-1.26,29.4,19.74
1.0215,-8.7715,-0.01362,-1.0876,0.29383,-2.5443,-1.74,28.86,20.4
1.58,-8.2539,0.081722,-0.99754,0.12401,-2.6695,-3.06,27.78,21.42
1.8387,-8.3901,0.28603,-0.9499,-0.14019,-2.7385,-4.08,27.42,21.84
1.9205,-8.4719,0.35413,-0.93676,-0.41997,-2.7318,-5.1,27.06,22.14
1.8796,-8.5808,0.64016,-0.92424,-0.65729,-2.6576,-7.02,26.7,22.2
1.8387,-8.5127,0.6674,-0.89919,-0.86957,-2.3955,-7.8,26.4,22.2
1.7434,-8.4719,0.78998,-0.88301,-0.89583,-2.2657,-8.58,26.22,21.9
1.5936,-8.6081,0.7355,-0.80695,-0.81367,-1.8069,-10.14,25.86,21.24
1.5119,-9.0575,0.76274,-0.72937,-0.6295,-1.4532,-10.98,25.62,21.0
1.4165,-9.507,0.77636,-0.64935,-0.35216,-1.0806,-11.76,25.5,20.76
1.362,-10.243,0.81722,-0.5339,-0.012828,-0.69639,-13.32,25.38,19.74
1.2939,-10.27,0.88532,-0.33109,0.55955,-0.1857,-13.8,25.38,19.14
1.1169,-10.038,0.7355,-0.14325,0.89767,0.082772,-14.46,25.38,18.66
0.95342,-9.7794,0.51757,0.082772,1.1139,0.32254,-15.0,25.8,17.64
1.0488,-11.06,0.35413,0.27978,1.2052,0.6243,-15.12,25.86,17.1
1.4301,-12.735,0.40861,0.36255,1.1463,1.0614,-15.06,25.92,16.56
1.8115,-13.307,0.068102,0.46456,1.0403,1.532,-15.48,26.04,15.72
1.7298,-11.414,-0.96704,0.62247,0.94959,1.9997,-16.02,26.16,15.3
1.8387,-10.12,-1.4438,0.70799,0.71471,2.0354,-16.44,26.16,14.94
1.866,-9.6704,-1.8251,0.68967,0.23579,1.8497,-17.04,26.34,14.52
0.99429,-11.319,-1.7025,0.63897,-0.27855,1.6768,-18.66,26.7,13.92
0.55843,-11.85,-1.4438,0.64019,-0.66004,1.544,-19.68,26.82,13.56
0.21793,-11.046,-1.185,0.67867,-0.71013,1.4539,-21.06,27.24,13.86
-0.16344,-10.27,-2.0839,0.71563,0.13744,1.3748,-21.54,27.36,14.22
0.74912,-9.6977,-1.4029,0.76053,0.16677,1.3552,-21.48,27.6,14.58
1.2803,-8.322,-1.9886,0.76908,0.48045,1.5253,-21.36,27.66,15.24
1.4982,-7.9951,-2.2474,0.76083,0.77305,1.6273,-20.94,27.9,15.66
2.6287,-8.0224,-1.8251,0.63225,1.0556,1.6524,-19.74,28.26,16.38
3.1191,-7.8589,-1.6344,0.55008,0.71563,1.7452,-18.96,28.32,16.62
3.051,-7.75,-1.4574,0.51068,0.025045,2.0501,-18.18,28.5,16.92
2.7377,-8.2539,-1.7298,0.5003,-0.11606,2.1286,-16.26,29.16,17.76
2.547,-8.8805,-1.7162,0.4496,-0.15333,2.2871,-14.94,29.46,18.0
2.6015,-9.1393,-1.8387,0.39859,0.0054978,2.3531,-13.5,29.88,18.12
2.7377,-9.3436,-1.8251,0.36988,0.17807,2.379,-12.06,30.3,18.12
3.1054,-10.147,-1.8796,0.36041,0.33048,2.3411,-9.0,31.38,17.46
3.2144,-10.692,-2.0022,0.34392,0.40561,2.1716,-7.86,31.92,16.92
3.7728,-11.768,-2.3836,0.31337,0.38546,2.0977,-5.7,33.0,15.54
4.0589,-12.204,-2.438,0.21777,0.22266,1.7672,-4.86,33.48,15.0
3.9908,-12.354,-2.4517,0.1463,0.093768,1.4279,-4.14,33.96,14.52
3.6366,-11.455,-2.2474,0.085216,0.024435,0.99113,-2.76,34.56,13.8
3.3097,-10.61,-2.1384,0.054062,-0.0048869,0.47953,-2.04,34.98,13.62
3.2144,-11.128,-1.9613,0.043677,-0.002138,-0.22907,-0.48,35.7,13.32
3.7184,-14.547,-1.9205,-0.0073304,-0.12339,-0.54428,-0.48,35.94,13.08
3.9635,-14.288,-2.3018,-0.072082,-0.24343,-0.66737,0.42,36.18,12.96
3.8137,-12.681,-2.3699,-0.28344,-0.60934,-1.0653,0.72,36.12,12.84
3.0918,-9.0848,-1.7979,-0.40989,-0.72326,-1.3836,1.2,36.18,13.02
3.1054,-10.147,-1.4982,-0.5174,-0.89492,-1.6939,1.2,36.12,13.08
3.2825,-11.564,-1.2939,-0.64049,-1.2859,-1.8711,1.32,36.12,13.14
3.2144,-13.212,-1.2122,-0.88453,-2.0666,-1.8854,0.6,36.06,13.38
2.6968,-13.225,-1.0351,-1.0653,-2.3158,-1.8628,0.42,36.06,13.74
2.1656,-12.926,-0.85808,-1.2468,-2.1331,-1.8906,0.06,35.88,14.04
0.77636,-11.863,-0.12258,-1.3586,-1.5895,-2.0342,-0.9,35.64,14.94
0.44947,-10.855,0.21793,-1.3964,-0.94226,-2.2156,-1.44,35.28,15.36
0.77636,-9.3163,0.44947,-1.3631,-0.42608,-2.405,-2.1,34.98,15.96
1.0351,-9.0031,0.44947,-1.2401,-0.071777,-2.671,-3.54,33.9,17.22
1.2531,-9.0439,0.42223,-1.1897,-0.044288,-2.7972,-4.5,33.36,18.0
1.4846,-9.2074,0.38137,-1.1597,-0.096211,-2.8616,-5.52,32.88,18.54
1.7706,-9.507,0.42223,-1.1551,-0.18692,-2.879,-7.92,31.8,19.5
1.7979,-9.7113,0.44947,-1.1616,-0.30146,-2.8369,-9.18,31.38,19.62
1.8115,-9.7794,0.47671,-1.1756,-0.38668,-2.6994,-10.62,30.84,19.8
1.5255,-9.6841,0.70826,-1.1677,-0.40042,-2.4233,-13.2,29.58,19.86
1.362,-9.6432,0.72188,-1.1194,-0.29322,-2.1866,-14.52,28.98,19.8
1.2531,-9.6023,0.77636,-1.0712,-0.21625,-2.0565,-15.72,28.32,19.74
1.2122,-9.5751,0.74912,-0.93035,0.098044,-1.591,-17.88,26.94,19.5
1.3484,-9.8475,0.6674,-0.81703,0.32437,-1.2379,-18.96,26.34,19.26
1.3484,-10.283,0.64016,-0.71654,0.55467,-0.86865,-20.1,25.62,19.08
0.99429,-9.8611,0.61292,-0.51832,0.94257,-0.3488,-21.84,24.42,18.48
0.96704,-9.3436,0.47671,-0.35766,1.2196,-0.047342,-22.56,23.94,18.0
1.1577,-9.1256,0.29965,-0.27184,1.3069,0.10415,-23.16,23.46,17.7
1.8251,-10.801,0.28603,-0.071777,1.3216,0.66706,-23.82,22.5,16.92
1.866,-11.359,0.27241,0.074526,1.2614,1.1121,-24.12,22.02,16.56
1.8387,-10.678,0.027241,0.27245,1.3344,1.5742,-24.42,21.54,16.32
2.1248,-9.3163,-1.2667,0.52993,1.3671,2.0134,-24.96,20.94,15.96
2.3972,-9.6023,-1.7298,0.5733,1.3014,2.0772,-25.26,20.58,15.66
2.4517,-9.9292,-1.8387,0.56474,0.83811,2.1478,-25.62,20.46,15.3
2.0567,-10.733,-1.6617,0.58949,0.48045,2.1496,-26.88,20.4,14.88
1.8524,-11.128,-1.4438,0.68722,0.28558,2.1881,-27.3,20.28,14.82
1.7843,-11.06,-1.3484,0.76602,0.18784,2.2297,-27.54,20.52,14.7
2.2337,-10.188,-1.6344,0.88545,0.076664,2.2413,-27.6,21.12,14.64
2.3291,-9.507,-1.8387,0.9276,-0.002138,2.2785,-27.3,21.6,14.82
2.3018,-9.0984,-1.7979,0.93401,-0.040012,2.3057,-26.82,22.08,14.88
2.438,-8.6762,-1.8115,0.94928,-0.16432,2.339,-25.5,22.98,15.18
2.6151,-8.7715,-1.7979,0.94592,-0.30665,2.3399,-24.72,23.58,15.36
2.8058,-8.826,-1.7162,0.94257,-0.55589,2.3491,-23.7,24.3,15.48
3.1327,-9.1937,-1.7843,0.92027,-1.0705,2.3631,-21.42,25.74,15.66
2.9829,-9.6023,-1.8387,0.90042,-1.3247,2.3766,-20.1,26.46,15.84
2.8603,-9.8203,-2.0294,0.85002,-1.3821,2.3405,-18.78,27.36,15.9
2.1793,-9.9292,-2.1112,0.80207,-1.1771,2.2407,-15.36,28.8,15.72
1.8932,-10.052,-2.1384,0.76389,-0.77213,2.1218,-13.62,29.64,15.42
2.0022,-10.42,-2.2882,0.71257,-0.31521,1.996,-11.94,30.36,15.06
2.6151,-11.468,-2.6968,0.63377,0.049175,1.8778,-8.94,31.68,14.22
2.8739,-11.85,-2.8194,0.46762,0.33109,1.682,-7.5,32.22,13.62
3.2553,-12.476,-2.8467,0.38912,0.37599,1.5986,-6.36,32.76,13.08
3.4323,-12.258,-2.8467,0.15363,0.51557,1.2181,-4.08,33.78,12.12
3.2689,-11.414,-2.6696,0.06689,0.63897,0.81184,-2.88,34.2,11.76
3.0237,-10.719,-2.4789,0.012828,0.73304,0.38546,-1.86,34.5,11.46
3.3097,-13.866,-2.4517,-0.063835,0.68509,0.000916,0.06,35.04,11.04
3.8409,-14.778,-2.5061,-0.26786,0.23793,-0.42272,1.02,35.22,10.74
4.2904,-12.681,-2.6696,-0.42364,-0.23885,-0.82131,1.74,35.34,10.56
3.2689,-9.2074,-2.1112,-0.54764,-0.50305,-1.1881,2.76,35.52,10.14
2.7922,-9.902,-1.866,-0.65821,-0.66462,-1.5855,3.06,35.58,10.2
2.7377,-11.182,-1.7298,-0.78496,-0.90652,-1.9093,3.36,35.58,10.2
2.7377,-12.83,-1.5255,-0.9276,-1.2456,-2.1002,3.66,35.58,10.26
2.5061,-13.157,-1.3757,-1.1533,-1.6151,-2.2462,3.54,35.46,10.56
1.9886,-13.293,-1.0351,-1.2291,-1.6206,-2.2917,3.48,35.52,10.74
0.98067,-12.517,-0.47671,-1.3778,-1.1509,-2.4511,2.88,35.58,11.34
0.69464,-11.768,-0.24517,-1.4276,-0.64416,-2.6056,2.46,35.4,11.76
0.70826,-10.924,-0.12258,-1.4288,-0.19517,-2.7468,2.04,35.4,12.18
1.0215,-9.793,-0.10896,-1.3815,0.077274,-2.8457,0.66,34.92,13.32
1.4029,-9.4253,-0.068102,-1.3302,0.17349,-2.9202,-0.18,34.8,14.04
1.6617,-9.2618,0.027241,-1.3027,0.10354,-2.9777,-2.28,34.44,15.72
1.58,-9.3027,0.095342,-1.2856,-0.037874,-2.9865,-3.54,34.26,16.5
1.6072,-9.2074,0.17706,-1.2697,-0.16585,-2.9734,-4.86,33.9,16.92
1.5119,-8.9622,0.51757,-1.2339,-0.27184,-2.8634,-7.8,33.6,17.7
1.471,-8.9349,0.64016,-1.1848,-0.32895,-2.7,-9.12,33.06,18.06
1.4165,-9.0712,0.70826,-1.1014,-0.32009,-2.2981,-10.44,32.7,18.3
1.3484,-9.3844,0.81722,-1.0095,-0.24587,-2.1255,-13.02,31.86,18.84
1.3212,-9.4253,0.74912,-0.82131,-0.03879,-1.5898,-14.16,31.38,19.2
1.4165,-9.5342,0.77636,-0.67256,0.12706,-1.1579,-15.42,30.84,19.38
1.5663,-9.8611,0.76274,-0.51221,0.32498,-0.70188,-17.58,29.82,19.5
1.5663,-9.6977,0.64016,-0.33017,0.52076,-0.28344,-18.36,29.46,19.62
1.4846,-8.6353,0.17706,-0.026878,0.74892,0.18937,-19.92,28.68,19.44
1.6753,-9.0984,-0.19068,0.15547,0.76816,0.47281,-20.34,28.38,19.08
1.8932,-10.406,-0.14982,0.2474,0.74098,0.84696,-20.64,27.96,18.9
2.0022,-11.278,-0.01362,0.33475,0.68936,1.2892,-20.94,27.78,18.9
2.0431,-11.155,-0.14982,0.47831,0.73609,1.7449,-21.18,27.36,18.84
1.9613,-9.8339,-0.44947,0.64996,0.87354,2.0724,-21.36,27.42,18.78
2.2474,-9.4389,-1.4165,0.84971,0.82467,2.2681,-21.6,27.36,18.6
2.3699,-10.637,-1.6344,0.89736,0.47861,2.3069,-21.78,27.54,18.48
2.4244,-11.359,-1.7025,0.89767,0.016493,2.3295,-21.84,27.84,18.36
2.152,-12.258,-1.4438,0.93065,-0.38851,2.3143,-21.78,28.68,18.24
1.8115,-11.931,-1.1441,0.98777,-0.56566,2.2596,-21.6,29.1,18.48
1.6753,-11.155,-0.99429,1.0757,-0.54703,2.1719,-21.36,29.46,18.6
1.7706,-9.507,-1.2803,1.1826,-0.50274,2.0608,-20.1,30.48,18.72
1.7979,-8.7306,-1.6481,1.2874,-0.48381,1.894,-19.26,30.96,18.96
1.7706,-8.1858,-1.9341,1.285,-0.42608,1.7755,-18.24,31.68,18.96
1.9341,-7.8181,-1.9341,1.2428,-0.33231,1.6967,-17.1,32.28,18.96
2.0294,-7.641,-1.8387,1.1793,-0.28802,1.631,-15.72,32.88,18.96
2.2882,-7.9407,-1.5527,1.1102,-0.29352,1.5962,-13.02,34.08,18.6
2.1384,-8.6081,-1.5391,1.058,-0.27978,1.6084,-11.52,34.8,18.3
2.0567,-9.4798,-1.5936,0.98227,-0.069944,1.671,-8.28,36.18,17.94
2.0022,-9.8066,-1.757,0.92241,0.22113,1.7327,-6.66,36.72,17.58
2.0567,-10.215,-2.0431,0.85521,0.58368,1.7764,-4.92,37.2,17.16
2.3018,-10.896,-2.2201,0.77702,0.89522,1.7868,-1.98,38.28,15.9
2.7241,-11.441,-2.4653,0.68539,1.0675,1.7514,-0.6,38.82,15.06
3.1327,-11.931,-2.7922,0.562,1.0562,1.6893,0.66,39.3,14.28
3.5413,-12.885,-3.0101,0.43921,0.89736,1.5482,3.0,40.08,12.54
3.5958,-12.708,-3.0918,0.22052,0.56383,1.2193,3.96,40.32,11.94
3.4459,-12.286,-3.051,0.086132,0.40073,0.86285,4.98,40.62,11.22
2.6696,-11.291,-2.6015,-0.007025,0.33689,0.44074,6.6,41.04,10.2
2.7649,-13.225,-2.4244,-0.083994,0.3882,0.045509,7.38,41.34,9.78
2.9556,-14.737,-2.3018,-0.20922,0.38118,-0.22449,8.7,41.64,9.42
2.8603,-11.182,-2.6423,-0.41753,0.17043,-0.6579,9.06,41.64,9.0
2.5742,-9.1937,-2.3018,-0.48717,0.14172,-0.81245,9.54,41.7,8.88
2.4517,-9.2891,-2.0975,-0.64843,0.12981,-1.3338,9.72,41.82,8.82
2.7513,-11.332,-1.866,-0.75625,-0.11698,-1.5537,10.08,42.18,8.58
2.9965,-12.544,-1.866,-0.88056,-0.53298,-1.6664,10.14,42.24,8.58
2.833,-13.089,-1.6208,-1.044,-0.89492,-1.7086,10.14,42.36,8.58
1.8796,-12.776,-1.1169,-1.2703,-1.0712,-1.7816,9.54,42.42,9.18
1.4574,-12.0,-0.8036,-1.3335,-1.0021,-1.8271,9.0,42.66,9.48
1.1305,-11.278,-0.64016,-1.39,-0.73304,-1.9386,8.34,42.9,9.72
0.84446,-9.3027,-0.28603,-1.3631,-0.34728,-2.1713,6.9,42.96,10.74
0.96704,-8.5127,-0.24517,-1.314,-0.19578,-2.324,5.94,43.08,11.46
1.0896,-7.9679,-0.28603,-1.263,-0.16982,-2.4987,4.92,43.08,12.12
1.5119,-8.1041,-0.14982,-1.2303,-0.23579,-2.6243,2.34,42.96,13.56
1.58,-8.322,-0.095342,-1.2016,-0.48228,-2.6805,0.72,42.9,14.34
1.7162,-8.6762,0.01362,-1.1955,-0.67042,-2.6035,-0.9,42.78,15.0
1.58,-8.9213,0.040861,-1.1945,-0.78343,-2.4099,-4.44,42.42,16.2
1.4982,-8.9349,0.27241,-1.1781,-0.80023,-2.1594,-6.36,42.3,16.62
1.4574,-8.7987,0.40861,-1.1411,-0.70647,-1.8751,-8.16,42.12,17.1
1.3757,-9.0303,0.65378,-1.0727,-0.52779,-1.3848,-11.7,41.7,17.82
1.4438,-9.3436,0.68102,-0.89675,-0.19761,-1.0021,-13.2,41.22,18.06
1.3757,-9.7658,0.7355,-0.74281,0.045509,-0.60598,-14.82,40.68,18.6
1.2531,-10.283,0.70826,-0.56077,0.36682,-0.23549,-17.52,39.72,19.02
1.2803,-10.038,0.57205,-0.34056,0.69486,0.081551,-18.84,39.24,19.02
1.4165,-9.4934,0.44947,-0.1014,0.92546,0.33384,-19.98,38.82,19.08
1.866,-9.5751,-0.50395,0.14844,0.978,0.53726,-21.84,37.92,18.9
2.0294,-10.678,-0.5993,0.31673,0.85979,0.88973,-22.44,37.5,18.78
2.2474,-12.286,-0.70826,0.39798,0.70463,1.2022,-22.8,37.2,18.54
2.3291,-11.782,-0.92618,0.50793,0.60812,1.4859,-23.4,36.66,18.48
2.1793,-10.025,-1.4438,0.60903,0.56261,1.6118,-23.52,36.36,18.48
1.866,-8.7851,-2.152,0.64355,0.43952,1.5461,-23.58,36.12,18.48
1.6889,-10.12,-2.1656,0.63194,0.20861,1.3454,-23.82,35.82,18.6
1.5663,-11.06,-1.9477,0.60781,-0.096211,1.1283,-24.06,35.88,18.66
1.5936,-11.931,-1.7979,0.63072,-0.17746,1.0486,-23.94,35.88,18.6
1.2803,-10.733,-1.5936,0.65973,-0.039095,1.022,-24.12,36.3,18.66
1.2395,-9.8066,-1.757,0.71685,0.24038,0.9841,-23.88,36.48,18.72
1.2803,-8.9894,-2.1793,0.7254,0.51832,0.95661,-23.7,36.54,18.9
1.7025,-7.5457,-2.4653,0.69058,0.71074,0.94348,-22.8,37.2,19.2
1.9886,-7.3958,-2.3972,0.59407,0.77122,0.98319,-22.26,37.5,19.26
2.2337,-7.0826,-2.1793,0.50427,0.65271,1.0366,-21.06,37.98,19.5
2.5334,-6.7557,-2.1112,0.41722,0.48045,1.0895,-20.34,38.16,19.68
2.4517,-6.8102,-2.0703,0.33781,0.39859,1.1335,-19.56,38.34,19.8
2.3972,-7.4095,-1.9341,0.28833,0.47342,1.1668,-17.82,38.82,19.74
2.4653,-7.8998,-2.0158,0.2642,0.67684,1.23,-16.98,39.12,19.62
2.6832,-8.4446,-2.0567,0.24465,0.99205,1.2853,-16.02,39.42,19.38
3.4459,-9.4389,-2.3699,0.22999,1.0867,1.2788,-14.34,40.02,18.9
3.8546,-9.8611,-2.5061,0.19639,1.0687,1.2413,-13.5,40.32,18.54
4.3449,-10.365,-2.547,0.17226,0.93462,1.1567,-12.66,40.62,18.24
4.4947,-11.032,-2.5879,0.13836,0.74159,1.0467,-11.94,40.92,17.82
4.699,-12.04,-2.6287,0.11362,0.5507,0.90744,-10.8,41.34,16.98
4.699,-12.0,-2.6287,0.055589,0.36591,0.63225,-10.26,41.52,16.62
4.304,-11.019,-2.8058,0.034514,0.37874,0.3937,-9.3,42.0,16.14
4.1542,-10.678,-2.7377,0.016188,0.4612,0.12645,-8.88,42.18,15.78
4.3858,-11.509,-2.3972,0.012523,0.52962,-0.076358,-8.52,42.3,15.48
5.2166,-13.757,-2.3563,-0.0064141,0.44471,-0.10996,-8.1,42.54,15.12
5.3256,-12.667,-2.6696,-0.055894,0.18692,-0.11759,-7.92,42.54,14.94
4.5083,-9.2891,-2.438,-0.10996,-0.082467,-0.25137,-7.86,42.42,14.94
4.4402,-9.4389,-2.0294,-0.17868,-0.4328,-0.62308,-7.98,42.24,14.94
4.6854,-10.542,-1.7298,-0.20433,-0.86651,-0.75747,-8.1,42.06,14.94
5.094,-11.959,-1.58,-0.27642,-1.4807,-0.75717,-8.34,41.64,15.0
4.5764,-12.081,-1.362,-0.38423,-2.0427,-0.73304,-8.52,41.34,15.06
3.732,-11.713,-1.1305,-0.50519,-2.2565,-0.77794,-8.82,41.04,15.24
2.9284,-10.733,-0.84446,-0.62064,-2.1347,-0.91447,-9.06,40.38,15.9
2.5606,-9.9156,-0.64016,-0.73121,-1.7871,-1.1903,-9.24,40.02,16.32
2.2882,-9.2482,-0.76274,-0.78466,-1.4911,-1.4172,-9.48,39.66,16.98
1.5663,-8.3629,-0.70826,-0.82284,-1.135,-1.6518,-9.78,38.46,18.42
1.4846,-8.145,-0.7355,-0.8659,-0.76816,-1.8708,-10.32,37.8,19.08
1.5391,-8.1722,-0.8036,-0.94318,-0.51618,-2.0666,-10.86,37.2,19.8
1.757,-8.3765,-0.62654,-0.99876,-0.38454,-2.266,-12.24,36.12,20.7
1.7706,-8.4855,-0.5993,-1.0321,-0.33201,-2.2996,-12.9,35.7,21.06
1.7843,-8.6625,-0.44947,-1.0382,-0.32712,-2.2837,-13.74,35.28,21.36
1.5255,-8.8668,-0.40861,-1.0223,-0.28924,-2.1793,-15.18,34.38,21.48
1.4029,-8.9894,-0.44947,-1.0046,-0.2025,-2.047,-15.78,33.84,21.54
1.3484,-9.0712,-0.31327,-0.95906,-0.079412,-1.8708,-16.32,33.24,21.72
1.6344,-9.616,-0.14982,-0.89614,0.044593,-1.6145,-17.64,32.1,21.66
1.7025,-9.7658,-0.054481,-0.74067,0.18601,-1.1481,-18.3,31.5,21.6
1.6072,-10.011,0.19068,-0.67989,0.24709,-0.97036,-18.9,30.84,21.36
1.4029,-9.793,0.081722,-0.43646,0.5339,-0.43524,-19.98,29.76,20.7
1.3076,-9.0575,-0.027241,-0.24648,0.77916,-0.089186,-20.22,29.28,20.34
1.4574,-8.9758,-0.19068,-0.040012,0.9502,0.23915,-20.4,28.62,19.92
2.2882,-11.891,-0.50395,0.06353,0.9783,0.62369,-20.34,27.48,19.5
2.3018,-12.449,-0.47671,0.13592,0.89644,1.3121,-20.34,26.82,19.32
1.975,-12.095,-0.43585,0.23366,1.0354,1.6842,-20.22,26.34,19.08
1.6889,-9.5206,-1.0079,0.31765,1.2584,1.919,-20.46,25.86,19.02
1.7843,-8.8668,-1.3212,0.38912,1.303,1.9523,-20.82,25.56,18.84
1.7979,-9.2618,-1.5527,0.41692,1.1277,1.847,-21.3,25.14,18.42
1.8387,-11.25,-1.3484,0.42058,0.87354,1.7504,-22.44,24.96,18.0
1.8932,-11.605,-1.1305,0.45143,0.5455,1.6481,-22.98,24.84,17.76
1.7706,-11.291,-1.0896,0.51557,0.5226,1.616,-23.52,24.84,17.7
1.7706,-10.515,-0.81722,0.65149,0.65943,1.5492,-24.54,25.14,18.06
1.866,-9.793,-0.99429,0.76022,0.70738,1.5339,-24.66,25.14,18.18
1.9341,-8.9758,-1.2667,0.81948,0.7028,1.5641,-24.66,25.5,18.6
2.1929,-7.8453,-1.5119,0.84391,0.66768,1.6096,-24.24,25.8,19.32
2.5198,-7.3822,-1.4165,0.82803,0.55405,1.6808,-23.88,26.16,19.62
2.8875,-7.3277,-1.2803,0.76725,0.19059,1.8323,-22.56,26.52,19.98
2.942,-7.3822,-1.362,0.75136,-0.078191,1.9496,-21.78,26.76,20.16
2.7377,-7.7636,-1.4574,0.70616,-0.21258,2.076,-20.82,27.18,20.4
2.5334,-8.322,-1.5119,0.6634,-0.20403,2.1936,-19.74,27.6,20.64
2.4244,-9.4798,-1.8251,0.62583,-0.076358,2.2736,-17.16,28.38,20.7
2.6423,-9.8884,-1.757,0.6185,0.18479,2.2367,-15.84,28.98,20.58
3.8682,-10.61,-1.9886,0.60812,0.41569,2.1967,-12.96,30.06,19.92
4.1542,-11.319,-2.261,0.59956,0.33323,1.9407,-11.58,30.54,19.32
4.4266,-11.782,-2.3427,0.55467,0.07422,1.7071,-10.32,31.14,18.84
4.4539,-12.871,-2.6832,0.45479,-0.2416,1.4126,-8.34,32.22,17.52
4.2495,-13.021,-2.7241,0.27642,-0.59193,0.87476,-7.5,32.82,16.98
3.732,-12.435,-2.7513,0.2193,-0.61148,0.66432,-6.48,33.18,16.32
2.7922,-11.114,-2.6423,0.10934,-0.4609,0.21044,-4.86,33.96,15.54
2.6015,-11.319,-2.6151,0.0039706,0.091324,-0.44135,-4.2,34.14,15.3
2.8875,-13.157,-2.547,-0.096822,0.37202,-0.73059,-3.6,34.32,15.12
3.5277,-13.988,-2.2882,-0.20281,0.32406,-0.84727,-2.58,34.74,14.64
3.5004,-11.223,-2.438,-0.34025,0.097433,-0.92882,-2.22,34.86,14.46
2.9148,-9.112,-2.2201,-0.45754,-0.040012,-1.1325,-1.98,34.86,14.4
3.1599,-10.447,-1.7298,-0.55467,-0.11209,-1.416,-1.86,34.74,14.22
3.5004,-11.686,-1.58,-0.69486,-0.63316,-1.609,-1.86,34.56,14.22
3.6639,-12.245,-1.5391,-0.74587,-0.95051,-1.5916,-1.92,34.32,14.28
3.1872,-12.912,-1.3484,-0.97677,-1.7724,-1.4649,-2.4,33.66,14.46
2.5198,-12.544,-0.92618,-1.1252,-1.9221,-1.4233,-2.7,33.3,14.64
1.5527,-11.496,-0.19068,-1.2511,-1.7043,-1.4374,-3.66,32.64,15.3
1.1713,-10.297,0.054481,-1.3186,-1.1878,-1.5369,-4.08,32.22,15.72
0.99429,-9.7522,0.1362,-1.3182,-0.86834,-1.6625,-4.5,31.56,16.2
0.92618,-8.4038,0.19068,-1.2911,-0.56749,-1.8243,-5.4,30.48,17.46
1.1305,-8.1041,0.19068,-1.2434,-0.31215,-1.9844,-6.0,29.88,18.12
1.2531,-8.0224,0.19068,-1.2058,-0.13195,-2.1341,-6.9,29.34,18.72
1.2258,-8.4855,-0.054481,-1.1863,-0.037568,-2.2633,-8.58,28.2,19.8
1.1441,-8.6625,-0.095342,-1.1955,0.12706,-2.4071,-9.48,27.66,20.1
1.1441,-8.7987,0.14982,-1.1799,0.28741,-2.4511,-10.98,26.64,20.34
1.3757,-9.0712,0.31327,-1.1283,0.3821,-2.4312,-11.52,26.34,20.28
1.5119,-9.1801,0.31327,-1.036,0.39156,-2.3158,-12.18,25.8,20.4
1.5936,-9.6568,0.57205,-0.94959,0.3207,-2.1063,-13.32,24.48,20.52
1.7298,-10.079,0.46309,-0.85765,0.22235,-1.8079,-13.8,23.82,20.52
1.7979,-10.311,0.46309,-0.72174,0.15363,-1.189,-14.4,23.1,20.4
1.4846,-9.902,0.54481,-0.67073,0.16952,-0.97128,-15.18,22.14,19.92
1.4029,-9.4117,0.47671,-0.5287,0.29841,-0.50183,-15.6,21.66,19.62
1.4029,-9.4117,0.47671,-0.24068,0.65149,0.15424,-15.6,21.66,19.62
1.7298,-9.8748,0.095342,-0.042455,0.78893,0.55528,-15.72,20.64,18.84
1.8796,-10.992,0.17706,0.11026,0.81917,1.0131,-15.48,20.16,18.48
1.866,-11.741,0.14982,0.35125,0.86621,1.7425,-15.0,19.14,18.18
1.9205,-10.447,-0.25879,0.45112,0.92516,1.9627,-14.94,18.78,18.12
2.0294,-9.616,-0.65378,0.68967,0.99357,2.2907,-14.94,18.6,17.94
2.438,-9.4117,-1.5663,0.77183,0.7138,2.2443,-15.18,18.12,18.0
2.4108,-10.637,-1.6753,0.74678,0.25443,2.1267,-15.42,18.18,17.88
2.1248,-11.686,-1.4574,0.71532,-0.24893,2.0269,-15.72,18.18,17.76
1.58,-11.441,-0.70826,0.78313,-0.71257,1.828,-16.02,18.54,18.12
1.3212,-10.76,-0.62654,0.8656,-0.62217,1.7,-16.08,18.72,18.3
1.3076,-10.188,-0.55843,0.93523,-0.51893,1.6338,-16.08,19.02,18.54
1.1986,-8.7579,-1.2258,1.0699,-0.20983,1.4218,-15.72,19.62,19.14
1.2531,-8.1586,-1.7025,1.077,0.030238,1.3564,-15.18,19.92,19.62
1.471,-7.6683,-1.8932,1.0394,0.31276,1.3503,-14.76,20.28,20.16
2.0567,-7.4776,-1.7298,0.92302,0.55375,1.423,-13.5,21.24,20.52
2.4789,-7.5457,-1.58,0.84696,0.49511,1.4994,-12.66,21.66,20.88
2.5061,-7.75,-1.4165,0.78557,0.34361,1.5824,-11.88,21.96,21.12
2.5198,-8.7987,-1.5663,0.74098,0.24374,1.7,-9.84,22.74,21.36
2.5742,-9.3844,-1.757,0.69516,0.22969,1.8259,-8.76,23.04,21.54
2.5742,-9.5615,-1.9205,0.66187,0.28833,1.9273,-7.74,23.52,21.6
2.5742,-10.256,-1.9886,0.63958,0.37996,1.9875,-5.46,24.36,20.88
2.5742,-10.42,-2.0158,0.6182,0.45632,1.9642,-4.44,24.66,20.52
2.6832,-10.719,-2.1793,0.61942,0.41905,1.9303,-3.36,24.9,20.1
3.623,-11.877,-2.3972,0.53542,0.0048869,1.7917,-1.8,25.74,19.26
4.0316,-12.762,-2.5742,0.43433,-0.37782,1.6228,-1.08,26.1,18.72
4.018,-13.089,-2.8058,0.30024,-0.69608,1.3219,-0.3,26.4,18.24
2.6696,-12.34,-2.5606,0.18662,-0.69516,0.91538,0.84,26.94,17.58
2.3018,-12.258,-2.547,0.088575,-0.13836,0.2248,1.44,27.18,17.28
2.5742,-15.146,-2.5606,-0.0079412,0.28436,-0.16707,2.76,27.6,16.62
2.9148,-14.71,-2.6151,-0.1576,0.37049,-0.47464,3.18,27.78,16.56
3.1191,-12.258,-2.7513,-0.31796,0.23702,-0.81489,3.72,27.9,16.32
2.8058,-9.8884,-2.5879,-0.43524,0.14172,-1.1646,4.38,28.08,16.26
2.6287,-10.093,-1.9613,-0.56566,0.054062,-1.5366,4.92,28.26,16.14
2.8739,-11.468,-1.8932,-0.74678,-0.4441,-1.8754,5.16,28.38,16.08
3.1191,-12.476,-1.7706,-0.8885,-0.94837,-1.9288,5.28,28.5,16.08
2.6015,-12.871,-1.3484,-1.0388,-1.2929,-1.9539,5.46,28.32,16.08
1.7979,-12.435,-1.0351,-1.1784,-1.2758,-2.0424,5.34,28.32,16.2
0.91256,-11.918,-0.70826,-1.2446,-0.91385,-2.1469,5.22,28.38,16.08
0.61292,-10.283,-0.53119,-1.2672,-0.43982,-2.2645,4.8,28.38,16.32
0.78998,-9.6568,-0.40861,-1.2449,0.02474,-2.43,4.38,28.14,16.62
1.3757,-8.5944,-0.27241,-1.204,0.064141,-2.5015,2.88,27.96,17.58
1.6753,-8.3901,-0.19068,-1.1912,-0.041844,-2.5412,1.92,27.84,17.82
1.7843,-8.322,-0.095342,-1.2083,-0.22541,-2.5571,0.84,27.9,18.18
1.7706,-8.4038,0.12258,-1.2278,-0.42577,-2.5299,-0.54,27.72,18.24
1.58,-8.5127,0.32689,-1.2495,-0.55253,-2.4529,-3.18,27.54,18.48
1.3757,-8.4038,0.40861,-1.2718,-0.56047,-2.2159,-4.38,27.6,18.36
1.2395,-8.4446,0.54481,-1.2752,-0.51252,-2.1295,-6.78,27.6,18.0
1.2531,-8.54,0.76274,-1.2159,-0.26481,-1.8011,-7.86,27.6,18.0
1.1986,-8.8668,0.83084,-1.1338,-0.040317,-1.5266,-8.88,27.6,17.94
1.2395,-9.6568,0.96704,-1.0351,0.21319,-1.2077,-10.98,27.24,17.7
1.2803,-10.188,0.96704,-0.89889,0.45357,-0.86163,-12.12,27.12,17.7
1.3212,-10.515,1.0215,-0.74984,0.70188,-0.5171,-13.74,26.88,17.22
1.3348,-9.6704,1.0079,-0.45143,0.99999,-0.082161,-14.4,26.76,16.74
1.4165,-9.0984,0.7355,-0.20678,1.0672,0.17746,-14.94,26.82,16.32
1.5391,-9.5751,0.46309,0.01741,1.0394,0.46823,-15.24,26.64,16.02
1.7162,-11.346,0.34051,0.13164,0.92118,0.84116,-15.54,26.52,15.84
1.9477,-13.293,0.21793,0.23579,0.88392,1.295,-15.78,26.28,15.3
1.9886,-10.079,-0.57205,0.4102,1.0082,1.6952,-15.78,26.04,15.36
2.0839,-9.1529,-1.2122,0.65882,1.1054,1.9765,-16.02,25.8,15.12
2.3836,-9.1529,-2.0294,0.68936,0.99785,1.9676,-16.68,25.62,14.7
2.2474,-10.42,-2.0975,0.66554,0.38637,1.8405,-17.1,25.62,14.46
1.975,-11.741,-1.7979,0.66309,-0.032376,1.8308,-17.82,25.8,14.1
1.7706,-11.55,-1.4301,0.69791,-0.23854,1.8332,-18.24,26.1,13.92
1.6344,-10.597,-1.2531,0.74251,-0.15119,1.8347,-18.3,26.34,14.1
1.6481,-9.5479,-1.3212,0.81581,0.04612,1.7856,-17.88,26.7,14.46
1.4846,-8.5672,-1.9068,0.85918,0.40195,1.7434,-17.1,27.18,15.24
1.5255,-8.0496,-2.1248,0.83841,0.65332,1.7627,-16.62,27.36,15.54
2.2474,-7.3686,-2.3427,0.79199,0.7926,1.7908,-15.48,27.84,16.2
2.8194,-7.3277,-2.3291,0.71044,0.71319,1.8604,-13.8,28.38,16.56
3.0101,-7.4503,-2.1929,0.62278,0.42028,1.9358,-11.64,28.98,17.04
3.0918,-7.927,-1.9341,0.55039,0.10599,2.0675,-9.9,29.64,17.22
2.833,-8.7306,-2.0294,0.50366,-0.072693,2.1038,-7.74,30.18,16.5
2.833,-9.3027,-1.9886,0.47495,-0.1014,2.1673,-6.84,30.66,16.14
2.8058,-9.5751,-2.0839,0.43494,-0.0061087,2.1893,-5.88,30.84,15.78
3.0101,-10.379,-2.1929,0.41142,0.046731,2.0907,-4.02,31.56,14.94
3.2144,-10.964,-2.2201,0.40195,0.021686,1.93,-3.24,31.86,14.4
3.4459,-12.217,-2.4517,0.38087,-0.12278,1.7071,-1.56,32.7,13.38
3.5413,-12.735,-2.6696,0.33506,-0.47037,1.2923,-0.78,32.94,12.78
3.4868,-13.048,-2.6423,0.26389,-0.69639,0.97952,0.06,33.12,12.36
3.2553,-12.64,-2.7786,0.16585,-0.81825,0.63438,0.9,33.42,12.06
2.4108,-11.346,-2.3427,0.084605,-0.73273,0.26359,2.46,33.84,11.04
1.9886,-10.801,-2.261,0.057727,-0.37996,-0.098349,3.24,34.02,10.62
2.4653,-13.648,-2.4653,-0.044288,0.281,-0.49205,4.62,34.32,9.9
3.0237,-14.315,-2.4789,-0.10476,0.42608,-0.54734,5.1,34.56,9.66
3.2553,-13.144,-2.656,-0.219,0.43188,-0.60292,5.64,34.74,9.48
3.1054,-8.7987,-2.3291,-0.39798,0.23824,-0.80879,6.36,35.16,9.12
3.051,-8.717,-1.9341,-0.47434,0.10782,-1.0681,6.48,35.34,8.94
3.3234,-10.515,-1.5936,-0.54062,-0.23579,-1.2755,6.72,35.52,8.76
4.0589,-12.381,-1.3757,-0.62614,-1.3186,-1.3195,6.54,35.94,8.64
4.0452,-12.898,-1.2667,-0.83627,-2.0693,-1.2743,6.48,36.18,8.7
3.5822,-13.198,-0.96704,-1.0024,-2.5247,-1.2599,6.3,36.54,8.7
2.0022,-11.891,-0.44947,-1.1582,-2.5351,-1.2981,5.4,36.96,9.0
1.4029,-10.924,-0.24517,-1.2767,-2.2144,-1.4303,5.1,37.32,9.36
1.0079,-10.011,0.01362,-1.3335,-1.7752,-1.6273,4.68,37.44,9.84
0.64016,-8.9077,0.081722,-1.3644,-1.1704,-1.9453,3.42,37.8,11.04
0.69464,-8.8124,0.14982,-1.3644,-0.80512,-2.1295,2.58,38.1,11.52
0.77636,-8.8805,0.24517,-1.3656,-0.51313,-2.3283,1.5,38.22,12.24
0.8036,-9.1256,0.28603,-1.339,-0.2697,-2.518,-0.96,38.7,13.2
0.91256,-9.1801,0.20431,-1.299,-0.052229,-2.6551,-2.16,38.94,13.62
1.1032,-9.2891,0.14982,-1.2633,0.078191,-2.741,-3.66,39.06,13.98
1.3348,-9.6296,0.12258,-1.2205,0.1408,-2.7312,-6.36,39.0,14.58
1.4301,-9.8339,0.19068,-1.0931,0.13439,-2.5983,-7.8,38.88,14.94
1.5936,-10.283,0.25879,-0.99418,0.094379,-2.3161,-9.24,38.76,15.24
1.3076,-9.8884,0.19068,-0.86682,-0.0012217,-1.9288,-12.0,38.22,15.96
1.3212,-9.4661,0.21793,-0.76602,-0.080634,-1.4606,-13.5,37.92,16.14
1.185,-9.1937,0.068102,-0.66187,-0.090408,-1.0382,-14.82,37.44,16.44
0.54481,-8.9622,-0.17706,-0.55619,0.061087,-0.44624,-17.22,36.54,16.68
0.34051,-8.826,-0.28603,-0.3769,0.25962,-0.090408,-18.18,36.06,16.92
0.28603,-9.112,-0.17706,-0.28069,0.45662,0.27581,-19.02,35.52,16.8
0.84446,-11.959,0.50395,-0.19059,0.61636,0.69639,-20.16,34.26,17.28
0.8036,-12.694,0.64016,-0.015577,0.82833,1.1768,-20.82,33.6,17.4
0.5993,-11.632,0.55843,0.21808,1.1747,1.5638,-21.18,33.0,17.58
0.92618,-8.9486,-0.76274,0.48075,1.4603,1.7422,-21.9,31.98,17.76
1.4438,-9.2891,-1.2258,0.68814,1.3552,1.693,-22.38,31.68,17.76
1.8932,-11.06,-1.6344,0.69516,0.98869,1.6609,-22.92,31.5,17.82
1.58,-11.196,-1.3212,0.72693,0.54764,1.6515,-23.7,31.38,17.7
1.2258,-10.283,-1.1305,0.78313,0.39126,1.6704,-24.12,31.32,17.58
1.3212,-9.7794,-0.98067,0.85185,0.51191,1.6817,-24.36,31.5,17.52
1.757,-8.5536,-1.3348,0.92943,0.66615,1.6845,-24.72,31.98,17.64
1.8932,-8.0224,-1.5119,1.0412,0.81123,1.7572,-24.66,32.28,17.64
2.2474,-7.8726,-1.6344,1.0644,0.82131,1.8769,-24.3,32.52,17.76
2.3563,-7.6683,-1.7298,1.0641,0.8097,1.9557,-23.82,32.88,17.52
2.8603,-7.8181,-1.7979,0.97922,0.58399,2.175,-22.56,33.84,17.4
3.0646,-8.1858,-1.8251,0.89431,0.31826,2.3173,-21.66,34.44,17.16
3.228,-8.9349,-1.866,0.81978,0.069333,2.4346,-20.76,34.98,17.1
3.2689,-10.188,-2.0158,0.73426,-0.17135,2.565,-18.48,36.24,16.8
3.1735,-10.529,-2.2201,0.71593,-0.19853,2.5727,-16.92,36.66,16.62
3.0918,-10.637,-2.3427,0.66798,-0.071471,2.4358,-15.42,37.26,16.44
2.7377,-11.032,-2.6832,0.64507,0.12981,2.1951,-12.06,38.28,15.72
2.833,-11.21,-2.8467,0.60903,0.36591,1.8473,-10.38,38.88,15.06
3.3642,-11.536,-3.0782,0.54184,0.49908,1.481,-8.7,39.36,14.46
4.0589,-12.272,-3.3097,0.43738,0.24801,0.99999,-5.88,40.14,13.14
4.1542,-12.34,-3.2553,0.25045,-0.013439,0.67653,-4.62,40.56,12.54
3.7047,-11.891,-2.9965,0.14997,-0.096211,0.3427,-3.54,40.92,12.06
2.6968,-11.087,-2.656,0.080634,0.083078,0.029016,-1.32,41.64,11.04
3.1054,-12.803,-2.6423,0.012828,0.33628,-0.23152,-0.42,41.7,10.8
3.9227,-15.159,-2.656,-0.1066,0.38362,-0.33659,0.3,41.94,10.44
3.9363,-13.184,-2.4789,-0.33537,0.040623,-0.40225,1.38,42.3,9.84
3.1599,-9.8611,-2.2337,-0.42241,-0.11515,-0.64966,1.68,42.36,9.6
2.833,-8.2812,-1.9886,-0.45112,-0.13011,-0.81276,2.04,42.42,9.42
3.2961,-9.5751,-1.4846,-0.51832,-0.40195,-1.292,2.22,42.42,9.66
3.9363,-11.496,-1.3757,-0.62858,-1.0033,-1.3754,2.1,42.42,9.84
4.0589,-12.449,-1.3484,-0.78313,-1.722,-1.3405,1.92,42.36,10.14
2.8467,-13.103,-0.61292,-1.0486,-2.1881,-1.3467,1.62,42.18,10.5
1.6208,-12.926,-0.17706,-1.1756,-1.9218,-1.4575,1.32,42.06,10.74
1.1986,-12.149,-0.081722,-1.2602,-1.3946,-1.5977,1.02,42.0,11.16
0.7355,-10.311,0.19068,-1.2575,-0.88453,-1.7953,-0.06,41.34,12.3
0.7355,-9.3436,0.21793,-1.2248,-0.49572,-2.0046,-0.66,41.1,13.02
1.0215,-8.7851,0.14982,-1.1747,-0.24526,-2.2147,-1.26,40.74,13.74
1.4438,-8.6217,0.054481,-1.1264,-0.12431,-2.4083,-2.82,39.66,15.42
1.6344,-8.6081,0.17706,-1.0928,-0.22938,-2.6371,-4.02,39.36,16.14
1.7706,-8.6353,0.01362,-1.0977,-0.41997,-2.7132,-5.46,38.94,16.8
1.7025,-8.8124,0.054481,-1.1112,-0.51221,-2.7281,-7.98,38.16,17.52
1.6072,-8.9349,0.14982,-1.1301,-0.67653,-2.6893,-9.06,37.62,17.88
1.471,-9.0712,0.20431,-1.1396,-0.65576,-2.5815,-10.38,37.32,17.94
1.2122,-9.5206,0.35413,-1.1182,-0.51832,-2.4148,-12.66,36.48,18.42
1.1713,-9.6023,0.38137,-1.0128,-0.15455,-2.0418,-13.74,36.06,18.66
1.1577,-10.052,0.34051,-0.97464,-0.016188,-1.883,-15.0,35.4,18.9
1.2122,-10.76,0.068102,-0.85765,0.38882,-1.3833,-17.1,34.2,19.02
0.99429,-10.583,0.027241,-0.76816,0.63713,-1.1344,-18.12,33.6,18.9
0.99429,-10.174,-0.17706,-0.63683,0.86651,-0.86804,-19.08,33.0,18.9
0.99429,-9.2482,-0.27241,-0.44776,1.0082,-0.59071,-20.4,31.98,18.9
1.1577,-9.6977,-0.10896,-0.12523,1.0592,0.046426,-21.0,30.72,18.6
1.9613,-11.319,-0.068102,0.055894,1.0489,0.69761,-21.3,30.0,18.54
2.1248,-10.869,-0.23155,0.25626,1.0608,1.3497,-21.66,29.64,18.66
2.0567,-9.9565,-0.57205,0.44227,1.201,1.7908,-22.02,29.22,18.6
2.0431,-9.1529,-1.2395,0.60781,1.3607,2.0717,-22.74,28.38,18.78
2.2337,-10.106,-1.4846,0.67928,1.2712,2.2403,-23.34,28.02,18.6
2.1929,-11.931,-1.3212,0.69364,0.63347,2.4089,-24.54,27.78,18.06
1.9068,-11.782,-1.1577,0.72143,0.40409,2.4462,-25.08,27.84,18.0
1.8796,-11.414,-1.076,0.80512,0.058643,2.419,-25.5,27.96,18.12
1.866,-9.8884,-0.7355,0.86926,0.021075,2.3564,-25.8,28.5,18.18
1.8115,-9.1937,-0.85808,0.9499,-0.011606,2.2898,-25.8,28.74,18.12
1.8115,-8.4446,-1.2939,1.0287,-0.0281,2.248,-25.5,29.04,18.36
1.9886,-7.641,-1.4574,1.0721,0.030849,2.2501,-24.54,30.12,18.72
2.152,-7.6274,-1.471,1.0586,0.037874,2.2901,-23.82,30.84,18.84
2.5606,-8.0632,-1.471,1.0339,-0.0030543,2.3243,-22.8,31.44,19.02
2.9284,-8.7987,-1.7979,0.95173,-0.29016,2.4786,-20.58,32.58,19.02
2.9284,-9.3708,-1.9341,0.86865,-0.43249,2.554,-19.32,33.42,18.9
2.833,-9.9565,-2.0567,0.77091,-0.39951,2.6163,-15.9,34.74,18.9
2.3836,-10.542,-2.1112,0.65057,0.017104,2.5391,-14.1,35.52,18.72
2.1112,-10.542,-2.0839,0.62766,0.4664,2.3561,-12.36,36.3,18.42
2.0294,-10.433,-2.0158,0.63041,0.68509,2.2324,-10.56,37.08,17.94
2.6015,-10.91,-2.547,0.58674,1.0712,1.8259,-7.08,38.16,16.74
3.1599,-11.591,-2.7649,0.50793,0.99205,1.5406,-5.52,38.88,16.14
3.6775,-12.286,-2.9556,0.40531,0.72479,1.2391,-4.08,39.48,15.3
4.0044,-12.258,-2.9556,0.19731,0.26084,0.74159,-1.56,40.14,13.98
3.8001,-11.768,-2.7377,0.090408,0.1011,0.37843,-0.48,40.38,13.44
3.2008,-10.883,-2.4653,0.073609,0.094684,0.18631,0.42,40.62,12.78
3.2689,-12.776,-2.3155,0.0036652,0.18021,-0.2813,2.22,41.1,12.06
3.8954,-15.732,-2.5061,-0.12889,0.094073,-0.40836,3.12,41.16,11.88
3.9771,-14.683,-2.4517,-0.28008,-0.11301,-0.51404,3.54,41.34,11.7
2.9965,-8.8396,-1.975,-0.4163,-0.28772,-0.89095,4.2,41.16,11.4
2.833,-8.4446,-1.7298,-0.45173,-0.36438,-1.2413,4.5,41.1,11.28
3.0373,-9.3436,-1.6889,-0.53787,-0.73701,-1.485,4.68,41.28,11.4
4.0044,-12.286,-1.6753,-0.69914,-1.4364,-1.5675,4.38,41.34,11.58
4.0997,-12.844,-1.4165,-0.89003,-2.1646,-1.5733,4.02,41.28,11.7
3.4868,-13.225,-0.91256,-1.0941,-2.5858,-1.5962,3.6,41.28,12.12
1.8251,-13.212,-0.12258,-1.2672,-2.6053,-1.7049,2.7,41.16,12.66
1.2803,-12.776,-0.027241,-1.4682,-2.0882,-1.9282,2.34,41.1,13.02
0.50395,-11.577,0.081722,-1.5663,-1.5379,-2.1112,1.8,41.04,13.56
-0.14982,-10.351,0.49033,-1.5889,-1.2379,-2.2266,0.48,40.5,15.0
-0.14982,-9.6023,0.61292,-1.5528,-0.25107,-2.6539,-0.36,40.02,15.84
0.054481,-9.3163,0.51757,-1.452,0.29749,-2.9267,-1.32,39.66,16.74
0.76274,-9.398,0.46309,-1.3531,0.59162,-3.1469,-4.02,39.06,18.18
1.1305,-9.4525,0.40861,-1.2462,0.59407,-3.3139,-5.52,38.82,18.84
1.5119,-9.5206,0.27241,-1.2288,0.51099,-3.3023,-7.2,38.28,19.02
2.2882,-9.507,0.24517,-1.3042,0.019242,-3.1624,-10.08,37.38,19.5
2.3699,-9.5751,0.40861,-1.3021,-0.47006,-2.9413,-11.4,36.9,19.68
2.152,-9.507,0.39499,-1.2782,-0.84666,-2.551,-12.72,36.3,19.8
1.2395,-8.9349,0.50395,-1.2058,-0.93065,-2.1542,-15.24,35.1,20.34
0.83084,-8.826,0.46309,-1.0113,-0.63958,-1.5406,-16.5,34.2,20.52
0.35413,-8.8668,0.38137,-0.92638,-0.4383,-1.3027,-18.84,32.76,20.64
0.28603,-8.6762,0.34051,-0.62125,0.29413,-0.64141,-19.92,31.8,20.58
0.21793,-8.0769,0.1362,-0.36102,0.81489,-0.28619,-20.88,31.14,20.34
0.39499,-8.1313,0.1362,-0.077885,1.2266,0.082467,-21.66,30.42,20.22
1.3757,-11.25,0.054481,0.11942,1.4755,0.5846,-22.32,28.98,19.98
1.9613,-12.898,0.23155,0.33323,1.5409,1.5577,-22.5,28.26,19.92
2.0158,-10.733,-0.7355,0.62583,1.5556,2.0128,-22.62,27.06,20.04
2.1248,-9.6432,-1.4165,0.75106,1.5342,2.2251,-22.74,26.64,20.16
2.3699,-9.7249,-1.975,0.75686,1.4355,2.273,-22.92,26.16,20.04
2.3836,-11.591,-2.1248,0.60903,0.79901,2.3158,-23.16,26.1,19.74
1.7025,-12.19,-1.5663,0.55986,0.3372,2.3213,-24.06,26.04,19.08
1.6344,-11.959,-1.4165,0.57085,0.092241,2.3494,-24.48,26.4,18.72
1.471,-11.373,-1.3212,0.61667,0.10446,2.3399,-24.96,26.64,18.72
1.471,-9.6568,-1.185,0.67928,0.24923,2.2773,-25.44,27.36,18.48
1.3212,-8.7306,-1.4165,0.77183,0.48381,2.0818,-25.5,27.78,18.72
1.2531,-8.0632,-1.7298,0.80207,0.62858,2.0177,-25.26,28.32,18.6
1.7979,-7.6819,-1.7298,0.8039,0.74556,2.0119,-24.54,29.46,18.78
2.3563,-7.7091,-1.6753,0.76847,0.74312,1.9972,-24.06,30.06,18.84
2.9556,-8.1858,-1.4438,0.6802,0.42577,1.9743,-22.74,31.2,18.96
2.8603,-8.6353,-1.2258,0.60415,0.14569,1.989,-21.72,31.8,18.96
2.656,-8.8668,-1.1577,0.58307,0.04948,1.9905,-20.7,32.4,19.14
2.2474,-9.6704,-1.1986,0.55497,0.12156,2.0455,-18.3,33.42,19.62
2.1929,-9.9973,-1.3212,0.57299,0.34117,2.0614,-16.74,33.96,19.68
2.2474,-10.706,-1.8115,0.57024,0.58704,2.0482,-15.3,34.56,19.8
2.8058,-11.046,-2.0022,0.56383,0.8042,1.9929,-12.42,35.76,19.26
3.228,-11.25,-2.2882,0.54275,0.9221,1.9389,-11.16,36.24,18.84
3.5958,-11.645,-2.4517,0.46242,0.84666,1.8155,-9.84,36.72,18.06
4.2904,-12.272,-2.8603,0.35094,0.6411,1.6493,-7.62,37.86,16.98
4.3449,-12.013,-2.833,0.20831,0.35827,1.3919,-6.66,38.22,16.38
4.0589,-11.387,-2.3563,0.087659,0.000916,0.86865,-4.56,39.12,15.42
3.8137,-12.994,-2.3972,0.046426,-0.10904,0.5061,-3.78,39.54,14.94
4.0997,-15.854,-2.2882,-0.06017,-0.24526,0.24587,-2.94,39.78,14.52
4.0725,-16.413,-2.3836,-0.22083,-0.47739,-0.06689,-2.34,40.02,14.28
3.1054,-10.569,-2.4108,-0.31429,-0.43402,-0.50885,-1.14,40.5,13.8
2.8875,-8.5808,-1.975,-0.35064,-0.25626,-0.9276,-0.72,40.56,13.74
3.051,-8.9213,-1.7706,-0.38271,-0.25901,-1.3088,-0.24,40.44,13.5
3.6911,-11.891,-1.7025,-0.52137,-0.86499,-1.6414,0.24,40.62,13.38
3.8682,-12.612,-1.6753,-0.66279,-1.4184,-1.7339,0.36,40.74,13.5
3.7184,-12.735,-1.3212,-0.80512,-1.8418,-1.7987,0.3,40.68,13.68
2.9148,-12.367,-0.92618,-0.95142,-2.036,-1.8915,0.06,40.38,13.92
2.0567,-11.482,-0.5993,-1.0669,-1.9661,-2.0189,-0.12,40.32,14.16
1.5527,-10.597,-0.62654,-1.1753,-1.5354,-2.2309,-0.96,39.66,15.0
1.1305,-9.398,-0.43585,-1.2144,-1.2446,-2.3903,-1.44,39.3,15.78
1.1169,-9.1256,-0.42223,-1.2272,-1.1292,-2.4703,-2.1,39.0,16.62
1.2531,-9.0575,-0.21793,-1.2535,-0.98044,-2.6334,-2.76,38.64,17.28
1.3212,-8.8532,0.054481,-1.2504,-0.93737,-2.7898,-4.86,37.56,18.6
1.3484,-8.7987,0.054481,-1.2443,-0.94562,-2.8274,-6.12,37.08,19.26
1.3484,-8.7579,0.054481,-1.2431,-0.94379,-2.8026,-7.62,36.66,19.98
1.2939,-8.7715,0.10896,-1.2526,-0.88331,-2.6625,-10.5,35.52,20.76
1.3348,-8.9349,0.1362,-1.2459,-0.75778,-2.4942,-11.76,34.92,20.94
1.2258,-9.2755,0.12258,-1.2376,-0.66157,-2.394,-12.9,34.5,21.24
1.2667,-10.188,0.31327,-1.2217,-0.32437,-2.0061,-15.0,33.18,21.96
1.2667,-10.815,0.47671,-1.1689,-0.068111,-1.6637,-16.08,32.46,22.26
1.2803,-11.101,0.55843,-1.0635,0.23854,-1.277,-17.1,31.8,22.68
0.96704,-10.801,0.69464,-0.89217,0.821,-0.7309,-19.02,30.48,22.86
0.7355,-10.12,0.50395,-0.5455,1.2199,-0.46731,-19.92,29.88,22.74
0.47671,-9.1937,0.19068,-0.25748,1.4762,-0.22419,-20.7,29.22,22.8
0.92618,-10.093,-0.19068,0.029016,1.5348,0.083994,-21.6,28.14,22.68
1.4165,-11.809,-0.068102,0.22388,1.4218,0.5733,-21.78,27.72,22.5
1.6481,-12.313,-0.31327,0.43188,1.1594,1.1057,-21.96,27.3,22.44
1.471,-9.507,-1.185,0.70708,0.9502,1.6484,-22.14,26.4,22.26
1.7162,-8.6489,-1.6344,0.82436,0.75625,1.8011,-22.26,26.1,22.2
2.0158,-9.2755,-1.9477,0.82558,0.58735,1.8366,-22.62,25.86,22.08
1.6344,-11.741,-1.7298,0.76511,-0.22388,1.8815,-23.58,25.86,21.48
0.51757,-12.34,-1.2258,0.78099,-0.73334,1.9532,-24.06,25.92,21.3
0.12258,-11.795,-0.85808,0.80023,-0.76816,1.9951,-24.66,26.04,21.18
0.10896,-10.474,-0.76274,0.85827,-0.08827,1.9484,-25.14,26.76,21.3
0.54481,-9.6977,-1.0079,0.99999,0.40806,1.8958,-25.26,27.18,21.54
0.98067,-8.7987,-1.3893,1.0479,0.77519,1.8757,-25.26,27.78,21.72
1.7706,-7.8453,-1.7298,1.0641,1.0012,1.9316,-24.42,28.68,22.14
2.2065,-7.7908,-1.7706,1.0464,1.0693,2.021,-23.64,29.28,22.2
2.6696,-7.8726,-1.6072,0.97494,0.9612,2.0974,-22.8,29.94,22.2
3.051,-8.5263,-1.3076,0.90194,0.67806,2.2055,-20.94,31.38,22.44
3.1599,-8.9758,-1.2531,0.81795,0.1857,2.3561,-19.92,32.16,22.44
3.0782,-9.3299,-1.3348,0.76816,-0.021686,2.4306,-18.72,32.94,22.5
2.7513,-9.9292,-1.5527,0.74373,-0.054062,2.4279,-15.9,34.32,22.62
2.4517,-10.256,-1.7706,0.73823,0.058643,2.3796,-14.34,35.04,22.56
2.4244,-10.406,-1.975,0.74281,0.23579,2.2645,-12.66,35.7,22.2
2.9692,-10.951,-2.7241,0.73151,0.40409,2.1047,-9.42,36.96,21.12
3.4459,-11.659,-2.9965,0.58521,0.41233,1.7364,-7.86,37.44,20.4
3.5822,-12.354,-3.0237,0.43677,0.28191,1.3961,-6.42,37.98,19.62
2.9965,-12.19,-3.0918,0.38057,0.23671,1.1921,-4.14,39.12,18.12
2.5061,-11.468,-3.0373,0.27733,0.40714,0.59071,-3.06,39.72,17.46
2.3291,-11.182,-2.8467,0.20067,0.63927,0.22694,-2.16,40.08,16.98
3.1599,-15.514,-2.5198,0.10751,0.74739,-0.073609,-0.36,40.86,15.96
3.6639,-16.276,-2.3291,-0.1295,0.59529,-0.32559,0.42,41.1,15.72
3.7047,-13.893,-2.4108,-0.19945,0.50091,-0.43768,1.02,41.04,15.36
2.9965,-9.221,-2.0567,-0.3259,0.30849,-0.87965,1.98,41.4,14.88
2.7377,-8.9622,-1.8932,-0.34086,0.19151,-1.241,2.34,41.58,14.88
3.1735,-10.46,-1.9068,-0.40745,-0.11729,-1.4823,2.58,41.58,14.7
4.1678,-12.136,-1.8387,-0.55283,-0.79504,-1.5718,2.4,41.64,14.52
4.2223,-12.299,-1.6617,-0.81459,-1.9444,-1.5488,2.22,41.7,14.64
3.1191,-12.313,-0.98067,-0.97311,-2.3231,-1.5614,1.8,41.4,15.06
2.261,-11.931,-0.64016,-1.1274,-2.2196,-1.6396,1.38,41.34,15.3
1.4165,-10.787,-0.46309,-1.2223,-1.8689,-1.7788,0.9,41.04,15.78
0.92618,-9.3844,-0.34051,-1.2749,-1.4731,-1.901,0.24,40.5,16.62
0.91256,-9.0167,-0.38137,-1.2911,-1.1234,-2.0247,-0.36,40.26,17.22
1.0488,-8.7987,-0.24517,-1.3299,-0.8488,-2.2911,-0.96,39.9,17.76
1.3893,-8.717,0.14982,-1.3564,-0.832,-2.4496,-2.34,39.3,19.44
1.4029,-8.7715,0.28603,-1.3583,-0.84269,-2.5094,-3.36,38.94,20.28
1.4165,-8.9622,0.36775,-1.3231,-0.82681,-2.6255,-4.44,38.52,20.82
1.4165,-8.9622,0.36775,-1.3231,-0.82681,-2.6255,-4.44,38.52,20.82
1.3348,-8.9622,0.34051,-1.2724,-0.74098,-2.5226,-7.62,37.56,22.14
1.2803,-9.0167,0.23155,-1.2333,-0.62583,-2.3723,-8.7,37.14,22.32
1.4574,-9.616,0.39499,-1.2004,-0.44563,-2.1625,-10.56,36.36,22.86
1.58,-10.093,0.44947,-1.1347,-0.25687,-1.9169,-11.64,35.76,23.16
1.5255,-10.556,0.43585,-0.98991,0.065973,-1.4245,-12.54,35.22,23.34
1.4574,-11.414,0.57205,-0.8714,0.354,-1.0211,-14.52,34.14,23.4
1.1577,-11.005,0.62654,-0.69303,0.68478,-0.64049,-15.3,33.42,23.4
0.58567,-9.7113,0.50395,-0.47525,1.0455,-0.31337,-16.68,32.34,23.22
0.47671,-9.8066,0.19068,-0.21258,1.3778,0.012523,-17.22,31.8,23.04
0.83084,-11.141,-0.095342,-0.0036652,1.584,0.3543,-17.46,31.26,22.68
1.4301,-12.027,-0.29965,0.17043,1.4988,0.91874,-17.88,30.42,22.2
1.3348,-11.128,-0.38137,0.31521,1.3738,1.2498,-18.12,30.06,22.08
0.96704,-9.8066,-0.83084,0.48594,1.3088,1.4429,-18.48,29.64,21.96
0.92618,-8.9894,-1.6753,0.60995,0.91996,1.46,-19.2,29.28,21.42
1.0624,-10.637,-1.471,0.61392,0.53939,1.3946,-19.62,29.04,21.06
0.96704,-11.673,-1.2122,0.624,0.21014,1.3961,-20.1,29.04,20.7
0.85808,-11.782,-1.0896,0.65485,0.065057,1.452,-20.7,29.04,20.52
0.70826,-10.637,-0.8036,0.72449,0.17776,1.5663,-21.9,29.04,20.34
0.85808,-9.8066,-1.0215,0.82681,0.3708,1.6481,-22.2,29.34,20.46
1.1169,-9.0303,-1.1441,0.91141,0.54764,1.7129,-22.44,29.64,20.58
1.7025,-7.8726,-1.4165,0.98685,0.69944,1.8894,-22.32,30.18,20.76
2.0703,-7.6819,-1.471,0.96761,0.62522,1.9997,-22.08,30.6,20.94
2.5742,-7.5048,-1.3484,0.95051,0.50885,2.0565,-21.54,30.78,21.0
2.7786,-7.6002,-1.0215,0.93493,0.054367,2.2208,-20.04,31.5,21.3
2.7241,-8.2131,-1.4438,0.91996,-0.17562,2.3445,-19.26,31.86,21.36
2.8058,-8.7987,-2.0294,0.83841,-0.23549,2.4578,-17.04,32.64,21.6
2.7786,-9.8748,-2.0567,0.76602,-0.050091,2.5045,-15.78,33.18,21.78
2.7649,-10.433,-2.0158,0.72693,0.26634,2.5207,-14.28,33.72,21.72
2.833,-10.597,-1.8796,0.70188,0.4383,2.5097,-12.6,34.2,21.54
3.2416,-11.332,-2.0567,0.65393,0.83322,2.299,-9.12,35.4,20.94
3.4732,-11.945,-2.3427,0.59376,0.9334,2.0983,-7.5,35.88,20.28
3.8001,-12.435,-2.6968,0.5116,0.93982,1.8531,-5.94,36.36,19.68
4.2904,-12.912,-2.6696,0.38057,0.89461,1.5241,-3.12,37.2,18.36
4.2632,-12.354,-2.5606,0.21258,0.73854,0.88453,-1.8,37.68,17.76
4.0861,-11.891,-2.4789,0.14813,0.63377,0.37354,-0.78,38.1,17.22
4.0997,-13.866,-2.3972,0.066279,0.55375,-0.10843,1.08,38.76,16.26
4.3313,-15.609,-2.2065,-0.051313,0.41447,-0.44349,1.98,38.94,15.84
4.3449,-14.587,-2.1112,-0.1576,0.13195,-0.72143,2.58,39.06,15.48
3.6503,-10.515,-2.0431,-0.29627,-0.19151,-1.1402,3.72,39.12,14.88
3.2689,-9.0984,-2.0431,-0.37904,-0.30268,-1.4804,4.14,39.12,14.76
3.2689,-9.3572,-1.9341,-0.4218,-0.36866,-1.6341,4.32,39.12,14.7
3.6503,-11.468,-1.3212,-0.58704,-0.83475,-1.9093,4.44,38.88,14.64
3.5685,-12.013,-1.0624,-0.71044,-1.2856,-1.9352,4.5,38.76,14.76
3.1599,-12.149,-0.99429,-0.87629,-1.5971,-1.9285,4.38,38.64,14.58
2.0022,-11.754,-0.50395,-1.087,-1.5327,-1.9847,3.84,38.34,14.82
1.5119,-11.25,-0.24517,-1.1622,-1.2052,-2.0635,3.3,38.04,15.12
1.2258,-10.583,-0.12258,-1.1949,-0.84452,-2.1851,2.88,37.74,15.3
1.0351,-9.7658,0.027241,-1.186,-0.52351,-2.3243,1.5,37.08,15.96
1.3076,-9.6023,0.19068,-1.1457,-0.30329,-2.463,0.6,36.72,16.56
1.58,-9.4661,0.21793,-1.0974,-0.20525,-2.5534,-0.24,36.48,17.04
1.7706,-9.3844,0.23155,-1.0513,-0.23396,-2.6157,-2.94,36.24,17.7
1.757,-9.4117,0.25879,-1.0214,-0.40348,-2.6169,-4.5,36.12,18.0
1.7843,-9.3436,0.36775,-0.99693,-0.51862,-2.5491,-5.94,36.0,17.94
1.5936,-9.0303,0.42223,-0.97494,-0.58796,-2.4523,-8.7,35.64,17.82
1.471,-8.9486,0.43585,-0.9389,-0.59926,-2.3094,-10.02,35.64,17.76
1.3757,-8.8396,0.47671,-0.87415,-0.53695,-2.1331,-11.34,35.46,17.94
1.4301,-9.2482,0.55843,-0.78252,-0.36011,-1.7709,-13.86,34.98,17.76
1.4029,-9.4253,0.53119,-0.63652,-0.21228,-1.4584,-14.94,34.86,17.7
1.2531,-9.6432,0.42223,-0.57696,-0.13561,-1.2733,-16.2,34.74,17.58
1.1441,-9.1256,0.27241,-0.43035,0.14478,-0.75717,-18.12,34.2,17.52
1.0351,-8.5808,0.28603,-0.31765,0.35613,-0.43982,-19.02,34.14,17.4
1.0488,-8.2812,-0.14982,-0.1967,0.53665,-0.12584,-19.74,33.96,17.16
1.4846,-10.61,-0.25879,-0.12523,0.63438,0.20556,-20.58,33.3,17.22
1.757,-12.313,0.16344,-0.060781,0.66218,0.89003,-20.88,32.88,17.34
1.7025,-12.544,0.28603,0.051313,0.83933,1.3842,-21.12,32.52,17.7
1.5663,-9.8884,-0.28603,0.18906,1.1417,1.7339,-21.72,32.1,18.06
1.7025,-9.3572,-0.92618,0.3204,1.3207,1.9111,-22.26,31.74,18.06
1.8524,-10.134,-1.2939,0.37996,1.2929,1.9319,-22.8,31.62,17.88
1.6753,-11.931,-1.3757,0.37171,1.1212,1.9279,-24.06,31.68,17.82
1.6481,-11.782,-1.3076,0.4383,0.90683,1.9777,-24.66,31.74,17.82
1.7979,-10.61,-0.92618,0.48045,0.89858,1.9881,-25.2,31.92,17.88
2.0567,-10.147,-0.96704,0.6017,0.91263,1.9951,-26.28,32.22,17.76
2.1656,-9.5479,-1.0488,0.67684,0.83627,2.0094,-26.34,32.4,17.82
2.3018,-9.1256,-1.0896,0.73609,0.68631,2.0583,-26.28,32.7,18.06
2.6287,-7.9679,-1.5119,0.76541,0.51007,2.1432,-25.56,33.42,18.36
2.8603,-7.6683,-1.4846,0.77977,0.13806,2.2859,-25.2,33.96,18.24
3.1054,-7.4503,-1.5391,0.75778,-0.022907,2.3305,-23.82,35.04,18.12
3.0918,-7.7636,-1.7434,0.7141,-0.37935,2.4105,-22.8,35.52,18.24
2.9284,-7.9951,-1.6344,0.61453,-0.71471,2.4819,-21.48,36.18,18.3
2.5061,-9.2891,-1.5255,0.57208,-0.6692,2.5158,-18.84,37.26,18.48
2.4517,-9.7658,-1.6617,0.55314,-0.44471,2.5403,-17.22,37.86,18.54
2.547,-10.447,-1.7025,0.54672,-0.14294,2.4679,-13.68,38.94,18.24
2.6151,-11.114,-1.9068,0.52687,0.26909,2.3109,-11.82,39.72,18.06
2.6696,-11.468,-1.9341,0.49969,0.42913,2.0766,-9.96,40.38,17.76
3.2008,-12.612,-2.261,0.44685,0.47739,1.781,-6.78,41.46,16.68
3.4323,-13.089,-2.2337,0.39126,0.41233,1.4398,-5.34,41.88,16.14
3.5004,-13.062,-2.3291,0.31307,0.26725,1.0736,-3.9,42.48,15.48
3.2008,-11.768,-2.0975,0.25229,0.15027,0.63469,-1.38,43.26,14.58
3.0237,-11.55,-2.1248,0.21197,0.19853,-0.032681,-0.24,43.44,14.34
3.0918,-12.79,-2.0975,0.19242,0.23732,-0.22235,0.6,43.92,13.86
3.7592,-15.023,-2.2746,0.061087,0.14569,-0.58124,2.16,44.34,13.44
3.8954,-13.13,-2.4517,-0.068722,-0.09499,-0.72693,2.7,44.52,13.26
3.4187,-9.6977,-2.438,-0.20495,-0.30177,-0.9389,3.18,44.64,13.08
2.9965,-8.7987,-1.975,-0.32467,-0.40378,-1.2404,3.54,44.82,12.78
3.2008,-9.6704,-1.7434,-0.48167,-0.69578,-1.5907,3.6,44.82,12.6
3.5958,-11.332,-1.5255,-0.59773,-1.1903,-1.657,3.54,44.7,12.36
3.5822,-12.326,-1.3893,-0.75381,-1.6796,-1.6762,2.94,44.64,12.48
3.0782,-12.395,-1.185,-0.90958,-1.9358,-1.7144,2.46,44.46,12.6
2.5606,-12.313,-0.88532,-1.0693,-1.9239,-1.8097,1.8,44.34,12.9
2.3155,-11.741,-0.5993,-1.1808,-1.803,-1.9358,1.26,44.22,13.14
1.866,-10.038,-0.42223,-1.262,-1.6093,-2.1414,-0.3,43.68,13.86
1.7025,-9.4117,-0.24517,-1.2764,-1.5519,-2.2156,-1.02,43.2,14.52
1.6617,-8.9486,-0.095342,-1.2828,-1.4355,-2.4199,-2.1,42.84,15.18
1.2395,-8.4582,0.095342,-1.2782,-1.3076,-2.5265,-4.32,42.0,16.44
1.2531,-8.3765,0.081722,-1.2911,-1.1759,-2.6472,-5.76,41.64,16.98
1.2258,-8.4855,0.095342,-1.3011,-1.0146,-2.719,-7.02,41.22,17.52
1.2803,-8.826,0.19068,-1.3091,-0.80115,-2.6646,-9.96,40.5,18.12
1.3348,-9.0031,0.21793,-1.2984,-0.73273,-2.6001,-11.4,40.08,18.6
1.2395,-9.3027,0.42223,-1.2727,-0.58124,-2.401,-12.48,39.78,18.84
1.3484,-9.6568,0.50395,-1.2101,-0.27978,-1.9923,-14.76,38.82,19.44
1.4029,-9.8203,0.49033,-1.1417,-0.037874,-1.6573,-15.78,38.34,19.74
1.5391,-10.311,0.8036,-1.0519,0.20403,-1.2987,-17.94,37.32,20.34
1.6072,-10.474,0.78998,-0.83505,0.55192,-0.71563,-18.72,36.66,20.52
1.4574,-10.365,0.77636,-0.74892,0.69089,-0.52504,-19.5,36.3,20.64
1.4165,-9.8475,0.6674,-0.50671,0.97005,-0.19884,-20.22,35.82,20.52
1.4982,-10.079,0.081722,-0.13408,1.3002,0.17868,-21.48,34.74,20.34
1.7025,-11.427,-0.19068,0.047342,1.3555,0.45326,-21.78,34.2,20.34
1.9068,-12.34,-0.095342,0.13347,1.3854,0.82375,-22.08,33.66,20.22
1.6617,-11.06,-0.21793,0.35277,1.6218,1.347,-22.5,32.76,20.34
1.6208,-9.6977,-0.76274,0.41966,1.7165,1.4419,-22.68,32.46,20.22
1.7298,-9.221,-1.2803,0.54734,1.7404,1.5094,-23.22,32.22,20.04
1.9477,-10.842,-1.7843,0.50946,1.3302,1.4248,-24.24,32.16,19.44
1.6753,-11.795,-1.6208,0.49083,0.99449,1.4221,-24.9,31.98,19.02
1.0896,-11.918,-1.4574,0.51771,0.80848,1.4752,-25.56,31.98,18.72
1.185,-10.556,-1.1305,0.59682,0.90316,1.6365,-26.7,32.28,18.24
1.7025,-9.4798,-0.96704,0.69822,0.93249,1.7685,-27.36,32.28,18.18
2.0294,-8.9622,-1.076,0.79168,0.83597,1.9184,-27.48,32.46,18.06
2.4789,-7.7636,-1.7162,0.85765,0.6689,2.1359,-27.24,33.06,18.24
2.6423,-7.3958,-1.8387,0.87568,0.48136,2.3561,-26.7,33.48,18.06
2.7649,-7.3686,-1.9477,0.82956,0.30696,2.5201,-26.22,34.02,18.12
2.9556,-7.6002,-1.975,0.75595,0.11545,2.6542,-24.78,34.86,17.94
2.9011,-7.8589,-1.8932,0.58154,-0.17501,2.8155,-23.94,35.46,17.88
2.7649,-8.4174,-1.9205,0.46395,-0.12675,2.8796,-22.68,35.94,17.82
2.3427,-9.9292,-1.6344,0.3821,0.18998,2.8552,-19.8,37.02,17.64
2.3836,-10.678,-1.6208,0.35277,0.71532,2.7364,-18.06,37.68,17.4
2.9011,-11.073,-1.6072,0.32987,1.2788,2.5476,-16.2,38.52,17.16
3.8001,-11.577,-1.9886,0.31246,1.6506,2.2688,-12.48,39.96,16.32
4.2223,-11.673,-2.1248,0.25901,1.7272,1.9322,-10.5,40.74,15.78
4.7671,-12.0,-2.3018,0.2022,1.5601,1.5867,-8.82,41.4,15.18
5.1213,-12.476,-2.4108,0.082772,1.0791,1.0531,-5.94,42.54,13.86
5.1757,-12.367,-2.3427,-0.0079412,0.70708,0.68447,-4.8,43.26,13.5
4.7535,-11.359,-1.975,-0.050396,0.43555,0.31765,-2.4,43.92,12.78
4.5492,-12.095,-1.7843,-0.063225,0.3094,-0.038179,-1.44,44.28,12.42
4.7399,-14.097,-1.3076,-0.13775,0.12095,-0.38882,0.12,44.88,12.0
4.9714,-13.988,-1.4301,-0.17135,0.0033598,-0.45876,0.72,45.06,11.82
4.7671,-11.032,-1.5663,-0.2416,-0.28039,-0.59773,1.14,45.24,11.76
4.3313,-8.7306,-1.471,-0.30177,-0.73579,-1.047,1.26,45.36,11.82
3.9635,-9.4525,-1.1441,-0.37141,-1.0855,-1.3635,1.68,45.42,11.82
4.413,-11.618,-0.95342,-0.46578,-1.5821,-1.5913,1.68,45.48,11.82
4.2632,-12.749,-0.49033,-0.67959,-2.3912,-1.6612,1.2,45.54,12.06
3.5413,-12.885,-0.21793,-0.75228,-2.5494,-1.7043,0.96,45.54,12.36
2.656,-12.817,0.040861,-0.87873,-2.5849,-1.8357,0.66,45.66,12.54
1.5936,-11.727,0.21793,-0.98716,-2.0831,-2.105,-0.36,45.54,13.08
1.2531,-10.774,0.14982,-1.0336,-1.6341,-2.321,-1.02,45.42,13.44
0.8717,-9.8748,0.027241,-1.0314,-1.1973,-2.576,-1.74,45.3,14.04
0.83084,-9.3708,0.20431,-0.96517,-0.53054,-2.9526,-3.78,44.52,15.36
1.185,-9.1256,0.31327,-0.92118,-0.343,-3.0614,-5.04,44.22,16.02
1.185,-9.1256,0.31327,-0.78405,-0.050396,-3.277,-5.04,44.22,16.02
1.6889,-8.9349,0.24517,-0.71257,-0.059559,-3.3207,-6.78,43.92,16.44
2.0567,-8.8805,0.20431,-0.67776,-0.18723,-3.3094,-10.44,43.26,16.98
2.1248,-8.7034,0.19068,-0.66248,-0.40592,-3.2092,-12.36,42.78,17.16
2.0294,-8.8805,0.38137,-0.65882,-0.7532,-2.9386,-15.78,41.58,17.4
1.8932,-9.1937,0.5993,-0.6524,-0.88575,-2.6176,-17.4,40.98,17.64
1.7706,-9.4525,0.61292,-0.63713,-0.91202,-2.4239,-18.96,40.32,17.76
1.362,-10.215,0.68102,-0.58399,-0.78466,-1.7452,-22.02,38.58,18.24
1.076,-10.542,0.72188,-0.51618,-0.49022,-1.2257,-23.46,37.74,18.48
0.69464,-10.338,0.77636,-0.40042,-0.056505,-0.7196,-24.78,36.9,18.66
0.47671,-9.0575,0.35413,-0.24954,0.71044,-0.029932,-27.12,35.4,18.54
0.83084,-8.9622,-0.027241,0.000305,0.98807,0.38423,-28.02,34.74,18.6
1.4029,-10.842,-0.28603,0.048258,1.0455,0.60323,-28.74,33.9,18.48
1.1169,-13.471,0.24517,0.03879,1.0763,1.2929,-29.28,32.64,18.66
0.51757,-12.381,0.54481,0.13867,1.273,1.7104,-29.28,32.1,18.84
0.5993,-10.379,0.28603,0.34117,1.6481,2.0641,-29.4,31.68,18.96
1.866,-8.9486,-1.3076,0.57482,1.5974,2.1832,-29.76,31.26,18.66
2.3155,-10.42,-1.9613,0.59712,1.1054,2.1163,-29.88,31.32,18.18
2.3018,-11.577,-1.8932,0.56505,0.53115,2.0953,-30.3,31.38,17.58
1.6208,-12.585,-1.1986,0.5568,0.12553,2.0867,-31.32,31.8,16.5
1.7162,-11.959,-0.96704,0.61942,0.055589,2.1515,-31.8,32.04,16.26
2.0703,-10.951,-0.85808,0.7141,0.2138,2.1835,-32.04,32.4,16.32
2.0703,-9.9292,-0.89894,0.85521,0.40928,2.2315,-32.04,32.82,16.32
2.0703,-9.9292,-0.89894,0.85918,0.4441,2.2825,-32.04,32.82,16.32
2.6423,-8.1586,-1.866,0.77244,0.33262,2.4166,-31.5,33.36,16.32
2.9965,-8.0769,-1.6072,0.68111,0.1066,2.5265,-30.6,33.96,16.02
3.0646,-8.2131,-1.1577,0.60506,-0.14936,2.6472,-28.32,35.52,15.78
2.9829,-8.7579,-1.1713,0.56169,-0.37965,2.7642,-25.68,36.84,15.24
2.9148,-9.4389,-1.1577,0.52534,-0.52534,2.8466,-23.04,38.04,15.3
2.7649,-9.8611,-1.3757,0.50977,-0.54306,2.8824,-19.74,39.06,15.6
2.6696,-10.188,-1.4301,0.50366,-0.30085,2.8231,-15.48,40.32,16.14
2.7786,-10.324,-1.5255,0.49419,-0.026573,2.6609,-13.44,40.92,16.14
3.0373,-10.597,-1.7025,0.49541,0.24465,2.3854,-9.06,42.24,15.48
3.6775,-11.387,-1.8251,0.45784,0.40897,2.0446,-5.58,43.5,14.46
4.413,-12.313,-2.152,0.38759,0.34789,1.6316,-3.3,44.16,13.8
4.4402,-12.463,-2.4789,0.31979,0.12859,1.2,-1.2,44.7,13.2
4.0725,-12.122,-2.4925,0.18479,-0.038179,0.41875,-0.3,44.94,13.02
3.5413,-11.577,-2.4789,0.11759,0.087354,-0.13073,0.72,45.12,12.66
3.4051,-12.136,-2.4789,0.050396,0.33109,-0.61178,2.28,45.54,12.24
3.8682,-14.288,-2.3427,-0.061087,0.47342,-0.94745,2.88,45.66,12.0
4.1133,-15.418,-1.9886,-0.18845,0.41508,-1.1157,3.24,45.78,11.64
3.8409,-11.673,-2.152,-0.35675,0.197,-1.3653,3.84,45.84,11.52
3.4187,-10.161,-2.0567,-0.41997,0.13347,-1.6503,3.96,45.9,11.46
2.942,-8.8532,-1.9886,-0.44624,0.083994,-1.8127,3.9,45.9,11.4
3.3915,-11.128,-1.6889,-0.5226,-0.28314,-2.1802,3.3,45.6,11.46
3.6639,-12.286,-1.6481,-0.61056,-0.75686,-2.2385,2.88,45.54,11.46
3.6094,-12.939,-1.4301,-0.74617,-1.2382,-2.1988,2.16,45.36,11.64
2.5334,-12.83,-0.84446,-0.94134,-1.5742,-2.0821,0.72,45.0,12.0
1.9886,-12.231,-0.54481,-0.99296,-1.5269,-2.065,-0.18,44.7,12.36
1.7025,-11.645,-0.43585,-1.0852,-1.2737,-2.0482,-1.2,44.4,12.84
0.99429,-9.9292,-0.44947,-1.1588,-0.86896,-2.186,-3.42,43.62,13.98
0.92618,-9.2891,-0.47671,-1.1787,-0.57146,-2.3317,-4.62,43.26,14.58
1.076,-8.8668,-0.25879,-1.1716,-0.27184,-2.4871,-6.06,42.78,15.42
1.6208,-8.9486,-0.14982,-1.1206,-0.15699,-2.6609,-9.12,42.0,16.62
1.7434,-8.9622,0.1362,-1.0956,-0.2584,-2.7046,-10.74,41.4,17.1
1.8524,-9.0167,0.24517,-1.084,-0.32742,-2.6979,-12.54,40.98,17.34
1.6072,-8.9894,0.49033,-1.0767,-0.4835,-2.5898,-15.66,40.2,17.64
1.5255,-8.9622,0.50395,-1.0599,-0.49022,-2.4395,-17.22,39.54,17.94
1.3757,-8.9486,0.57205,-1.0437,-0.40287,-2.2315,-18.66,38.4,18.54
1.471,-9.1801,0.83084,-0.99052,-0.27825,-1.9749,-21.3,37.74,18.78
1.5663,-9.4117,1.0488,-0.87629,-0.065973,-1.4444,-22.56,37.02,19.02
1.6344,-9.5342,1.2258,-0.77427,0.087048,-1.0449,-23.64,36.18,19.2
1.5255,-9.8475,1.1986,-0.62919,0.26298,-0.63438,-25.62,34.74,19.56
1.3212,-9.6841,1.185,-0.4609,0.4948,-0.23976,-26.46,34.02,19.62
1.2667,-9.4661,1.0624,-0.26603,0.74648,0.098349,-27.06,33.36,19.56
1.58,-9.3027,0.39499,-0.05681,0.91477,0.53573,-27.84,32.1,19.26
1.7434,-10.379,0.24517,0.14447,0.91752,0.91477,-28.02,31.56,19.38
2.0975,-12.422,0.43585,0.20525,0.86834,1.3873,-28.14,30.9,19.44
2.0703,-11.891,0.35413,0.34208,0.93096,1.854,-28.32,29.88,19.56
1.9068,-9.6977,0.054481,0.53603,1.0626,2.153,-28.32,29.7,19.56
2.0294,-8.9213,-0.47671,0.74739,1.0562,2.2626,-28.44,29.46,19.5
2.4789,-10.188,-1.1441,0.88759,0.73731,2.2752,-28.92,29.34,19.02
2.6696,-11.482,-1.3893,0.95814,-0.099876,2.3219,-29.22,29.52,18.66
2.7241,-12.245,-1.3212,0.99357,-0.38026,2.3472,-29.52,29.82,18.48
2.3427,-11.645,-1.0624,1.0715,-0.88087,2.3552,-29.52,30.78,18.12
2.261,-10.937,-0.96704,1.1558,-0.96211,2.3075,-29.16,31.32,18.24
2.1656,-10.433,-1.0488,1.2327,-1.029,2.2162,-28.56,31.86,18.24
1.7843,-8.6081,-1.5527,1.2825,-1.0486,2.109,-26.94,33.06,18.6
1.6072,-8.0632,-1.8387,1.2752,-0.80207,1.9172,-25.92,33.78,18.54
1.8251,-7.8589,-1.866,1.2526,-0.66493,1.8616,-23.52,35.34,18.6
2.1248,-8.0632,-1.7298,1.1979,-0.42058,1.7709,-22.14,36.0,18.72
2.2474,-8.2676,-1.7025,1.1099,-0.19914,1.7315,-20.58,36.72,18.6
2.3836,-9.0848,-1.9068,1.0394,-0.1069,1.762,-17.28,38.46,18.48
2.3699,-9.7113,-2.1248,0.91324,0.036346,1.8094,-15.48,39.18,18.24
2.0839,-10.447,-2.2746,0.77946,0.29383,1.8353,-11.58,40.56,17.52
1.8932,-10.529,-2.3427,0.66126,0.67623,1.7938,-9.78,41.16,17.1
1.8796,-10.515,-2.4244,0.59193,1.1283,1.6835,-7.98,41.82,16.5
2.8058,-11.182,-2.7649,0.49266,1.543,1.4575,-5.22,42.96,14.88
3.4596,-11.7,-3.1191,0.39798,1.4557,1.284,-4.08,43.5,14.1
3.8954,-12.258,-3.2825,0.26603,1.1704,1.0837,-2.88,43.74,13.32
3.732,-11.904,-3.2825,0.036957,0.64599,0.67531,-0.9,44.46,11.82
3.3097,-11.305,-2.9556,-0.023824,0.50793,0.52382,-0.06,44.64,11.4
2.942,-11.182,-2.6423,-0.13744,0.38026,0.018937,0.72,44.94,10.92
2.9011,-12.694,-2.4925,-0.20342,0.45601,-0.26573,1.32,45.06,10.5
3.7592,-14.669,-2.438,-0.28436,0.32254,-0.44013,2.46,45.12,9.72
4.0316,-13.239,-2.547,-0.40531,-0.048869,-0.57391,2.88,45.3,9.6
3.4459,-9.3299,-2.152,-0.58521,-0.62217,-0.87904,3.54,45.3,9.36
3.1463,-9.5479,-1.7025,-0.67653,-0.88759,-1.1359,3.66,45.24,9.3
3.1599,-10.501,-1.58,-0.77458,-1.2514,-1.3024,3.9,45.18,9.3
3.5685,-11.741,-1.3076,-0.89339,-1.7608,-1.3518,4.08,45.12,9.54
3.5685,-12.653,-1.2122,-1.0571,-2.259,-1.2969,4.02,45.12,9.72
2.9556,-12.939,-0.95342,-1.2398,-2.5241,-1.2547,3.72,45.12,10.08
1.471,-11.673,-0.21793,-1.4505,-2.2431,-1.3155,3.24,45.0,10.92
0.99429,-10.556,-0.12258,-1.5476,-1.7208,-1.4325,2.88,44.88,11.28
0.70826,-9.8748,-0.027241,-1.5821,-1.1463,-1.6353,2.4,44.7,11.88
0.61292,-8.826,0.19068,-1.5977,-0.613,-1.8418,1.44,44.04,13.56
0.8717,-8.7443,0.21793,-1.5568,-0.1854,-2.0378,0.66,43.92,14.4
1.0351,-8.9213,0.35413,-1.5107,0.079412,-2.1884,-0.12,43.5,15.24
1.2939,-9.112,0.44947,-1.4597,0.25473,-2.3369,-2.22,43.02,16.92
1.2667,-9.1937,0.50395,-1.3748,0.48258,-2.5033,-3.36,42.78,17.58
1.3212,-9.3163,0.54481,-1.3155,0.58857,-2.5378,-4.62,42.36,18.12
1.4574,-9.5342,0.70826,-1.2171,0.63805,-2.4884,-7.26,41.52,19.02
1.7298,-9.9565,0.85808,-1.1008,0.61972,-2.3561,-8.52,41.04,19.56
1.7979,-10.42,0.8036,-0.98624,0.56749,-2.1402,-9.78,40.44,19.92
1.8932,-10.678,0.84446,-0.85735,0.49999,-1.8335,-12.48,39.36,21.0
1.8932,-10.774,0.8717,-0.67256,0.46731,-1.3515,-13.86,38.64,21.36
1.7706,-10.787,0.83084,-0.52473,0.53054,-1.0513,-15.18,38.16,21.48
0.92618,-9.5206,0.61292,-0.34728,0.64721,-0.78618,-17.64,37.2,21.36
0.6674,-9.0848,0.31327,-0.15791,0.73151,-0.57208,-18.6,36.72,21.24
0.62654,-9.6568,-0.17706,-0.036346,0.73059,-0.31796,-19.56,36.06,21.06
0.8717,-12.572,-0.19068,-0.0045815,0.6579,0.057727,-21.06,35.04,20.94
0.69464,-12.435,-0.027241,0.11973,0.63683,0.73579,-21.66,34.44,20.76
0.27241,-10.283,-0.068102,0.2981,0.87995,1.0721,-22.2,33.96,20.7
0.38137,-8.9213,-1.0896,0.37415,1.0033,1.2092,-23.16,33.06,20.58
0.85808,-9.7658,-1.6481,0.56688,1.0382,1.3958,-23.64,32.88,20.22
1.0215,-11.005,-1.5391,0.64782,0.79596,1.5003,-24.06,32.64,19.8
0.99429,-11.673,-1.185,0.72326,0.45998,1.6548,-24.9,32.52,18.84
0.99429,-11.155,-1.1032,0.89522,0.19609,1.8656,-25.32,32.4,18.48
1.1032,-10.597,-1.076,0.94837,0.17013,1.9392,-25.92,32.64,18.3
1.5391,-9.2482,-1.3348,1.0941,0.069639,2.1451,-26.04,32.82,18.3
1.757,-8.5127,-1.5391,1.1619,-0.065973,2.2788,-26.04,33.06,18.48
1.9341,-8.0088,-1.7025,1.1802,-0.21594,2.3732,-25.68,33.48,18.54
2.2474,-7.3277,-1.6617,1.1625,-0.37782,2.438,-24.3,34.32,18.48
2.3836,-7.4912,-1.5936,1.1328,-0.69272,2.4798,-23.4,34.86,18.48
2.6423,-8.4038,-1.58,1.0403,-0.91783,2.5088,-21.12,36.3,18.42
2.6287,-9.4117,-1.6481,0.97372,-1.0534,2.5501,-19.8,36.9,18.48
2.4517,-9.8066,-1.7843,0.91355,-0.97769,2.6114,-18.3,37.38,18.48
2.152,-10.365,-1.9068,0.85338,-0.58338,2.6203,-16.68,38.04,18.42
1.7434,-10.869,-2.1384,0.78954,0.052229,2.5522,-13.02,39.24,18.18
1.7706,-11.032,-2.1929,0.74526,0.70372,2.2513,-10.92,40.02,17.82
2.5742,-11.768,-2.438,0.67867,1.1759,2.1093,-6.72,41.22,16.86
3.0237,-12.354,-2.6287,0.5452,1.3729,1.631,-4.68,41.58,16.32
3.4459,-12.735,-2.7922,0.45326,1.2278,1.2706,-2.82,42.18,15.54
3.5004,-12.871,-3.0918,0.32132,0.99021,0.88209,0.24,42.9,14.28
3.4323,-12.204,-2.9829,0.19731,0.78649,0.4328,1.38,43.2,13.62
3.1327,-11.536,-2.7104,0.1011,0.67592,0.010079,3.72,43.62,12.54
3.0918,-11.686,-2.3563,0.0061087,0.67501,-0.54489,4.56,43.68,12.3
3.4051,-14.056,-2.3972,-0.08491,0.60109,-0.73395,5.22,43.92,11.82
3.6094,-14.519,-2.4108,-0.18631,0.41233,-0.78954,5.82,44.04,11.58
3.732,-10.992,-2.4517,-0.31276,0.15852,-0.82253,6.42,44.1,11.4
3.4596,-9.1665,-2.2337,-0.3989,-0.064141,-0.96364,6.54,44.1,11.34
3.2416,-8.9894,-1.8932,-0.47709,-0.27428,-1.2889,6.48,44.1,11.52
3.514,-11.032,-1.6344,-0.59254,-0.92149,-1.3589,6.0,44.1,11.58
3.7592,-11.605,-1.4438,-0.71441,-1.584,-1.3528,5.82,44.22,11.7
3.7728,-11.7,-1.4165,-0.79535,-1.8934,-1.3311,5.52,43.98,11.88
2.7649,-11.959,-0.99429,-1.0537,-2.4337,-1.3259,4.5,43.8,12.42
2.1248,-11.7,-0.50395,-1.211,-2.3644,-1.4056,4.38,43.62,12.96
1.2939,-10.188,-0.24517,-1.3347,-2.0455,-1.5174,3.36,43.2,13.86
0.84446,-9.6296,-0.23155,-1.4313,-1.347,-1.7776,2.94,42.9,14.46
0.55843,-9.221,-0.027241,-1.449,-0.82956,-1.9978,2.46,42.6,15.18
0.57205,-9.0984,-0.054481,-1.4306,-0.31246,-2.2061,1.8,42.18,15.9
0.76274,-9.1529,0.19068,-1.3943,0.11851,-2.3805,0.12,41.34,17.46
0.78998,-9.112,0.19068,-1.3299,0.46426,-2.5595,-0.84,40.98,18.42
0.89894,-9.1801,0.23155,-1.2468,0.76175,-2.7174,-2.1,40.14,19.56
1.4029,-9.2482,0.58567,-1.1093,1.0088,-2.7901,-4.62,39.84,19.92
1.6481,-9.2482,0.47671,-1.0073,0.96731,-2.744,-6.06,39.48,20.22
1.8387,-9.4253,0.54481,-0.956,0.90286,-2.6899,-7.26,39.12,20.52
1.8796,-9.8748,0.64016,-0.81856,0.64202,-2.3732,-9.72,38.34,20.82
1.7706,-10.038,0.69464,-0.7196,0.49633,-2.0397,-11.22,37.74,20.94
1.7843,-10.174,0.72188,-0.60812,0.42761,-1.6206,-13.92,36.96,20.94
1.5119,-9.9565,0.6674,-0.40897,0.42089,-0.93554,-15.36,36.48,20.82
1.3212,-9.6841,0.54481,-0.26053,0.46609,-0.4948,-16.38,36.0,20.7
1.0624,-8.9758,0.1362,-0.18784,0.49633,-0.30146,-17.58,35.64,20.46
1.1032,-9.6977,-0.39499,-0.0039706,0.45968,0.24251,-19.08,34.8,19.86
1.2939,-12.19,-0.054481,0.022297,0.3711,0.62858,-19.74,34.44,19.44
1.1169,-13.416,0.28603,0.078191,0.28344,1.0553,-20.04,34.14,19.08
0.72188,-10.774,0.01362,0.30055,0.49205,1.5192,-20.46,33.48,18.6
0.9398,-9.8611,-0.58567,0.38485,0.58063,1.6014,-20.76,33.3,18.48
1.0896,-9.9973,-0.9398,0.56597,0.60506,1.5901,-21.12,33.06,18.36
1.3212,-12.054,-1.4165,0.60384,0.39126,1.5314,-21.78,32.64,18.18
1.2803,-12.408,-1.0896,0.6353,0.11393,1.5278,-21.96,32.64,18.18
1.2803,-11.891,-0.84446,0.6973,-0.021991,1.5583,-22.26,32.58,18.36
1.5936,-10.351,-0.50395,0.82833,0.044288,1.6591,-22.32,32.76,18.78
1.7706,-9.6296,-0.64016,0.87262,0.069639,1.6921,-22.32,32.94,18.9
1.9613,-8.7987,-0.89894,0.9499,0.083383,1.7853,-21.96,33.12,19.14
2.1384,-7.641,-1.3212,1.0006,0.014355,1.9477,-20.64,33.72,19.74
2.3699,-7.1915,-1.2531,0.99357,-0.071777,2.0604,-19.74,34.02,20.04
2.5198,-7.0962,-1.3076,0.9728,-0.16829,2.1728,-18.84,34.26,20.4
2.6287,-7.5593,-1.2258,0.94257,-0.33842,2.3607,-16.74,34.98,20.64
2.5742,-8.2131,-1.2667,0.88514,-0.40378,2.5116,-15.54,35.34,20.7
2.6151,-9.0439,-1.4301,0.81062,-0.38271,2.6603,-14.1,35.82,20.76
2.6423,-9.902,-1.8387,0.74739,-0.22755,2.7171,-10.74,36.84,20.82
2.5742,-10.229,-1.7979,0.68753,0.11362,2.686,-9.0,37.38,20.7
2.4653,-10.447,-1.7025,0.66004,0.55772,2.5412,-7.08,37.92,20.46
2.4517,-11.441,-1.866,0.64691,0.9725,2.2785,-3.12,38.82,19.38
2.7649,-11.945,-1.975,0.60873,1.2333,1.8265,-1.32,39.3,18.84
3.6094,-12.653,-2.3427,0.53634,1.1435,1.4548,0.24,39.72,18.18
4.2495,-12.939,-2.4789,0.46334,0.89156,1.0327,2.88,40.38,16.8
3.9771,-11.959,-2.5334,0.38454,0.57055,0.58613,4.08,40.62,16.32
3.4732,-10.896,-2.4244,0.3372,0.33598,0.16341,5.22,40.92,15.84
3.5685,-12.503,-2.5061,0.29352,0.11576,-0.36652,7.14,41.46,15.24
4.127,-14.22,-2.656,0.11759,-0.12126,-0.5623,8.1,41.52,14.82
4.413,-14.478,-2.8058,-0.043371,-0.4893,-0.67287,8.88,41.7,14.52
3.6775,-10.964,-2.5606,-0.22907,-0.76816,-0.80268,9.66,41.94,13.98
2.9692,-9.507,-2.1793,-0.36927,-0.77946,-1.0687,10.02,42.0,13.74
2.547,-9.5751,-1.8796,-0.46823,-0.72449,-1.3622,10.08,42.18,13.62
3.1872,-11.605,-1.9341,-0.58032,-0.83627,-1.5327,9.96,42.3,13.56
3.2961,-12.027,-1.9886,-0.79596,-1.4224,-1.6093,9.66,42.54,13.62
3.0646,-12.122,-1.6753,-0.88209,-1.6167,-1.6014,9.48,42.6,13.74
2.5061,-12.04,-1.2803,-1.1469,-1.8262,-1.6521,8.64,42.78,14.04
2.0022,-11.809,-0.8036,-1.2807,-1.6683,-1.7309,8.28,42.78,14.22
1.4574,-11.196,-0.40861,-1.3842,-1.3699,-1.7904,7.86,42.66,14.4
1.1169,-10.188,-0.21793,-1.4514,-1.0519,-1.8833,6.72,42.42,15.42
1.1032,-9.8611,-0.21793,-1.4902,-0.6014,-2.0397,5.94,42.24,16.14
1.1305,-9.6977,0.12258,-1.4859,-0.33811,-2.1264,5.1,41.94,16.98
1.1713,-9.2891,0.28603,-1.4487,-0.1292,-2.1887,2.88,41.46,18.48
1.2531,-9.0303,0.35413,-1.4142,0.029627,-2.2455,1.26,41.22,19.2
1.2531,-8.9758,0.36775,-1.3665,0.16127,-2.2935,-0.12,40.86,19.62
1.3076,-8.7443,0.47671,-1.3186,0.26695,-2.3011,-3.12,40.26,20.4
1.3484,-8.6762,0.54481,-1.2361,0.35613,-2.2471,-4.56,39.72,20.58
1.4301,-8.7443,0.7355,-1.1729,0.3653,-2.1261,-7.2,38.82,21.3
1.7706,-9.3844,0.81722,-1.1054,0.33262,-1.9426,-8.52,38.22,21.54
1.8796,-10.011,0.88532,-1.0431,0.29841,-1.6906,-9.9,37.62,21.9
1.5119,-10.924,1.2531,-0.9728,0.31429,-1.42,-12.36,36.42,22.32
1.3484,-11.046,1.2803,-0.86376,0.47312,-1.1072,-13.62,35.76,22.5
1.1305,-11.005,1.2939,-0.59682,0.90042,-0.6185,-14.82,35.04,22.5
0.92618,-9.112,0.8036,-0.33781,1.1139,-0.37813,-16.5,33.78,22.14
1.185,-9.1529,0.51757,-0.085216,1.1897,-0.14936,-17.16,33.0,22.08
1.3484,-10.025,0.51757,0.053756,1.1435,0.17501,-17.52,32.22,21.96
1.6753,-12.476,0.44947,0.16218,0.99082,0.57238,-18.36,30.9,22.08
1.5255,-11.795,0.44947,0.31734,0.97555,1.0101,-18.84,30.3,22.02
1.5255,-9.4389,-0.38137,0.46945,1.077,1.2956,-19.62,29.58,22.02
1.7706,-10.188,-0.8036,0.61087,0.9279,1.4697,-19.98,29.22,21.78
1.7025,-11.618,-0.9398,0.62644,0.57727,1.514,-20.46,29.1,21.54
1.3757,-11.673,-0.99429,0.67531,0.22816,1.5776,-20.94,28.98,21.06
0.78998,-11.319,-1.0624,0.79932,0.16005,1.6454,-22.2,28.98,20.4
1.0896,-10.828,-1.185,0.8937,0.28588,1.7016,-22.74,29.04,20.1
1.4846,-9.8339,-1.3348,0.97494,0.40775,1.766,-23.28,29.28,19.98
1.975,-8.7034,-1.5119,1.0302,0.37629,1.9511,-23.76,29.76,19.98
2.152,-8.0769,-1.6344,1.0348,0.23946,2.1267,-23.46,30.06,20.1
2.3699,-7.75,-1.7298,1.018,0.15119,2.2144,-23.04,30.48,20.1
2.5742,-7.5321,-1.7162,0.94623,-0.097738,2.4059,-21.72,31.32,19.92
2.5879,-7.7091,-1.6889,0.89003,-0.21716,2.5412,-20.82,31.74,19.92
2.8058,-8.5808,-1.3757,0.82406,-0.40225,2.7385,-19.86,32.22,19.86
2.8603,-9.8066,-1.3893,0.77274,-0.51557,2.8989,-18.6,32.82,19.92
2.8467,-10.828,-1.5119,0.75045,-0.53817,2.9566,-15.84,33.96,19.8
2.7513,-11.223,-1.7979,0.67684,-0.42822,3.029,-14.16,34.56,19.74
2.6015,-11.414,-2.1929,0.63286,-0.14966,2.9386,-10.38,35.58,19.32
2.4925,-11.509,-2.6015,0.60537,0.20586,2.7016,-6.24,36.66,18.72
2.4925,-11.509,-2.6015,0.60537,0.20586,2.7016,-6.24,36.66,18.72
3.0237,-12.354,-3.3097,0.45051,0.79718,1.679,-1.02,38.4,16.8
3.4868,-12.708,-3.3915,0.30238,0.66371,1.2028,1.8,39.0,15.9
3.7184,-12.177,-3.0918,0.15211,0.40684,0.71929,4.32,39.6,15.06
3.3234,-10.951,-2.5606,0.036041,0.20372,0.23488,6.12,39.6,14.52
3.2144,-11.713,-2.547,-0.055283,0.16371,-0.19456,7.5,39.66,13.92
3.4187,-14.383,-2.3427,-0.17623,0.20403,-0.54489,8.7,39.54,13.56
3.4868,-14.574,-2.4653,-0.32559,0.18479,-0.73365,9.12,39.78,13.44
3.514,-13.416,-2.4789,-0.53023,0.087048,-0.90286,9.42,39.66,13.44
3.2008,-10.052,-1.9886,-0.62553,0.054978,-1.1075,9.6,39.54,13.44
2.9692,-9.7522,-1.6344,-0.70158,-0.047647,-1.3558,9.18,39.54,13.44
3.1872,-10.992,-1.2803,-0.77061,-0.3488,-1.533,8.64,39.48,13.74
3.4596,-11.795,-1.2395,-0.88087,-0.86773,-1.5931,8.28,39.54,13.86
3.5004,-12.912,-0.88532,-1.0999,-1.6362,-1.5782,7.38,39.66,14.22
2.9692,-13.212,-0.76274,-1.1719,-1.8008,-1.5718,6.96,39.48,14.58
2.438,-13.116,-0.44947,-1.2938,-1.8732,-1.6218,6.42,39.36,15.06
1.1986,-11.509,-0.21793,-1.4441,-1.4429,-1.8329,5.22,39.3,16.14
0.78998,-10.46,-0.040861,-1.4853,-1.0342,-2.0556,4.74,39.0,16.5
0.47671,-9.6023,-0.040861,-1.4923,-0.64385,-2.3192,4.14,38.7,16.98
0.42223,-8.7851,0.24517,-1.4218,-0.11026,-2.7202,2.4,38.28,18.42
0.57205,-8.6217,0.35413,-1.3109,0.12645,-2.9508,1.08,37.86,19.08
0.91256,-8.6081,0.38137,-1.2117,0.23274,-3.1117,-0.18,37.74,19.8
1.2531,-8.5944,0.44947,-1.1555,0.25931,-3.189,-1.56,37.44,20.22
1.5119,-8.7443,0.49033,-1.1081,0.24648,-3.1954,-4.32,36.96,20.7
1.5391,-8.8124,0.50395,-1.0782,0.21411,-3.1337,-5.76,36.72,20.88
1.3484,-8.8805,0.8036,-1.0544,0.22938,-2.9407,-8.22,36.0,21.36
1.4029,-9.0848,0.8036,-0.94073,0.3146,-2.6573,-9.54,35.4,21.54
1.5119,-9.221,0.92618,-0.84758,0.38057,-2.263,-10.98,35.04,21.72
1.6344,-9.7794,0.88532,-0.71746,0.42761,-1.8213,-12.36,34.26,21.72
1.757,-10.215,0.92618,-0.55955,0.49663,-1.2984,-15.42,33.12,21.84
1.7298,-9.8339,1.0215,-0.39309,0.60903,-0.72998,-16.68,32.46,21.78
1.7298,-8.5263,0.40861,-0.18998,0.72876,-0.23702,-18.96,31.26,21.3
1.7025,-8.6353,-0.12258,0.11515,0.79901,0.38057,-19.8,30.9,21.18
1.866,-10.025,-0.38137,0.22388,0.70066,0.81764,-20.4,30.3,20.88
2.0294,-12.0,0.027241,0.29474,0.57482,1.3463,-21.36,29.22,20.64
1.9068,-11.931,0.040861,0.45571,0.51801,1.912,-21.72,28.62,20.64
2.0567,-10.651,-0.31327,0.63683,0.55436,2.3445,-22.02,28.32,20.58
2.3836,-9.1529,-1.5391,0.79412,0.51343,2.5714,-22.8,28.02,19.92
2.4108,-9.4798,-2.0567,0.84727,0.04215,2.4987,-23.16,28.2,19.44
2.2882,-10.787,-2.1656,0.82131,-0.1744,2.4331,-23.4,28.14,18.96
1.7025,-12.572,-1.4846,0.76175,-0.87384,2.2813,-23.94,28.8,18.3
1.3212,-12.027,-1.0079,0.8039,-1.117,2.2022,-24.06,29.1,18.12
1.0351,-11.414,-0.81722,0.88942,-0.9221,2.1212,-24.24,29.58,18.18
1.0896,-9.9973,-0.72188,1.0037,-0.53298,1.9911,-23.64,30.42,18.36
1.1169,-9.5751,-1.0488,1.1328,0.098349,1.7767,-22.98,30.78,18.42
1.2395,-9.0575,-1.2939,1.1634,0.43555,1.7752,-22.14,31.2,18.78
1.975,-8.7987,-1.6753,1.1594,0.57269,1.8109,-20.22,32.04,19.08
2.656,-8.7715,-1.7025,1.044,0.76144,1.9261,-19.02,32.58,19.2
2.9011,-8.6762,-1.4982,0.94287,0.65973,2.0122,-17.82,32.82,19.32
2.942,-8.7443,-1.5527,0.85246,0.42455,2.0892,-15.3,33.6,19.62
2.8058,-8.7987,-1.471,0.7535,0.10537,2.1747,-13.92,34.02,19.68
2.5334,-9.1256,-1.5255,0.73304,0.058643,2.1887,-12.48,34.56,19.92
2.4108,-9.7385,-1.7434,0.66218,0.1405,2.1451,-9.3,35.4,19.68
2.2746,-10.297,-1.8387,0.61361,0.32559,2.0678,-7.56,35.7,19.5
2.1929,-10.597,-1.8932,0.56658,0.60964,1.9181,-5.76,36.12,18.84
1.9613,-11.741,-1.8387,0.53756,1.0043,1.7165,-2.88,37.08,17.76
2.152,-12.204,-1.9886,0.48869,1.551,1.3723,-1.8,37.5,17.1
2.8739,-12.245,-2.4108,0.46181,1.649,1.2449,0.06,38.34,15.78
3.514,-11.754,-2.6968,0.30268,1.5043,0.8207,0.84,38.76,15.3
3.8546,-11.319,-2.547,0.19578,1.1209,0.48258,1.56,39.06,14.76
3.8818,-11.577,-2.3155,0.082772,0.6466,0.14569,2.1,39.48,14.34
4.018,-14.315,-2.0567,-0.042761,0.19151,-0.13042,3.18,39.84,13.68
3.9908,-14.492,-2.1793,-0.20433,-0.3204,-0.40775,3.66,39.96,13.44
3.0918,-10.937,-1.9886,-0.4102,-0.42608,-0.67042,4.2,39.9,12.96
2.6423,-9.4661,-1.6481,-0.49755,-0.41753,-0.99571,4.38,39.96,12.96
2.5334,-9.1937,-1.4438,-0.53267,-0.45754,-1.3231,4.44,40.08,12.9
3.0237,-11.223,-1.3484,-0.5962,-0.70921,-1.511,4.2,40.02,12.84
3.5277,-12.0,-1.4029,-0.70219,-1.189,-1.569,3.96,40.02,12.84
3.2689,-12.313,-0.96704,-0.83963,-1.6573,-1.5534,3.84,39.96,13.08
2.6696,-12.054,-0.54481,-1.0495,-1.9755,-1.5852,3.18,39.72,13.2
2.0294,-11.713,-0.24517,-1.1463,-1.8323,-1.6454,2.82,39.42,13.44
1.6344,-11.128,-0.040861,-1.2171,-1.5773,-1.7361,2.28,39.18,13.8
1.2803,-10.161,0.054481,-1.2666,-1.3326,-1.8411,1.32,38.64,14.7
1.1169,-9.6704,0.095342,-1.2877,-1.1264,-1.9551,0.72,38.64,15.3
1.1713,-9.1256,0.23155,-1.3036,-0.79871,-2.153,-0.6,38.22,16.74
