Ax,Ay,Az,Gx,Gy,Gz,Mx,My,Mz
4.7944,-10.733,-2.3836,-0.58887,-1.1099,-0.57818,10.38,32.7,22.68
4.7807,-11.468,-2.7922,-0.58735,-1.7898,-1.0614,11.04,32.88,22.38
5.2302,-13.253,-3.0237,-0.75472,-2.3057,-1.2187,11.34,33.0,22.2
5.1894,-13.661,-2.8875,-0.93554,-2.7306,-1.2486,11.46,33.06,22.2
4.7944,-14.083,-2.5061,-1.0382,-2.8201,-1.2217,11.64,33.12,22.2
3.5277,-13.348,-1.9068,-1.3515,-2.6811,-1.2193,11.7,33.36,22.32
2.7649,-12.217,-1.7706,-1.5501,-2.208,-1.3149,11.88,33.36,22.38
2.0567,-10.678,-1.2667,-1.7874,-1.0938,-1.6054,11.88,33.48,22.68
1.6889,-9.398,-0.99429,-1.8653,-0.35583,-1.8454,11.7,33.54,22.8
1.9477,-9.0031,-0.8036,-1.9364,0.25717,-1.9923,11.34,33.66,23.04
2.0839,-8.7306,-0.7355,-1.9426,0.62889,-2.0916,10.86,33.6,23.16
2.833,-7.9951,-0.69464,-1.8992,0.70127,-2.1454,9.66,33.72,23.46
3.1872,-7.8045,-0.78998,-1.7975,0.50702,-2.1194,8.88,33.66,23.82
3.1599,-7.75,-0.8036,-1.679,0.1347,-2.0296,8.1,33.48,24.06
2.9965,-7.6683,-0.70826,-1.4988,-0.46059,-1.825,7.08,33.3,24.48
2.3972,-7.7227,-0.50395,-1.4432,-0.59651,-1.7361,5.34,32.82,25.14
1.9886,-7.927,-0.32689,-1.295,-0.71624,-1.456,4.62,32.58,25.44
1.8115,-8.0496,-0.32689,-1.2062,-0.63102,-1.2565,3.78,32.16,25.86
1.3757,-8.4446,-0.34051,-1.1124,-0.40317,-1.0406,1.86,31.2,26.7
1.1713,-8.6625,-0.27241,-1.0076,-0.072082,-0.79626,1.02,30.78,27.06
1.185,-9.0984,-0.25879,-0.86804,0.31337,-0.51313,-0.54,29.46,27.84
1.2395,-9.4117,-0.53119,-0.56169,0.80146,-0.033903,-1.14,28.74,28.2
1.4165,-9.398,-0.40861,-0.28283,0.97738,0.33414,-1.8,28.08,28.8
1.5119,-10.025,-0.57205,0.055589,1.0431,0.78099,-2.22,27.18,29.28
1.8932,-10.951,-0.7355,0.40623,1.0284,1.3014,-2.7,26.58,29.64
2.656,-9.8066,-1.4301,0.76847,0.91508,1.6674,-3.42,25.74,30.24
2.6287,-9.0303,-1.7843,1.0956,0.69394,1.8665,-3.54,25.56,30.36
2.5742,-8.7443,-2.2337,1.5162,0.32437,1.8576,-3.9,25.32,30.54
2.7786,-9.507,-2.6151,1.7196,-0.050091,1.7956,-4.14,25.26,30.54
2.7649,-9.9701,-2.6423,1.7914,-0.28008,1.7471,-4.26,25.56,30.18
2.6968,-11.128,-2.9556,1.8494,-0.95967,1.6322,-4.5,25.86,29.88
2.4517,-11.836,-2.942,1.777,-1.15,1.624,-4.56,26.34,29.46
1.3757,-12.19,-2.4108,1.5052,-0.72326,1.6793,-4.62,27.78,28.5
1.076,-11.809,-2.3972,1.296,0.036346,1.6805,-4.44,28.38,28.08
0.62654,-10.379,-2.4517,1.2117,0.51282,1.6561,-4.32,29.16,27.54
0.98067,-8.7987,-2.438,1.1063,1.9367,1.551,-3.6,30.84,26.76
1.5527,-8.2267,-2.4517,1.0782,2.6392,1.5241,-3.0,31.44,26.52
2.1248,-7.8181,-2.3018,1.077,2.9789,1.5305,-2.28,31.98,26.04
3.5958,-7.8045,-2.4108,1.1014,2.7254,1.5925,-1.14,33.06,25.32
4.3177,-8.0088,-2.8058,1.1402,2.0659,1.7006,-0.6,33.6,24.9
4.808,-8.2131,-3.1054,1.1918,1.1759,1.81,0.12,34.08,24.54
4.8625,-8.6625,-3.7865,1.237,0.27703,1.8922,1.62,34.74,23.88
4.5356,-8.9894,-4.0725,1.2663,-0.39187,1.8882,2.46,35.04,23.52
4.1678,-9.2755,-4.4402,1.2569,-0.7929,1.7969,3.48,35.22,23.22
3.3097,-9.4253,-4.9578,1.1716,-0.83414,1.5944,5.4,35.4,22.68
3.0101,-9.3572,-4.9987,0.95264,-0.39737,1.3631,6.42,35.46,22.32
2.7922,-9.3299,-5.0531,0.8042,0.011912,1.1121,7.38,35.46,21.9
3.0646,-10.052,-5.2575,0.6524,0.32865,0.86957,9.06,35.82,20.64
3.7865,-10.733,-5.5162,0.4328,0.46456,0.6298,9.9,36.0,19.74
4.3313,-10.964,-5.38,0.1854,0.48472,0.38393,10.5,36.24,19.14
4.6718,-11.25,-4.6037,-0.072693,0.50396,-0.051618,11.88,36.72,17.88
4.6173,-11.986,-4.1678,-0.18082,0.42089,-0.32559,12.48,36.9,17.4
4.8625,-13.321,-4.6445,-0.18815,0.35613,-0.42516,13.08,37.02,16.86
5.6388,-13.934,-5.1349,-0.68203,0.15455,-0.69455,14.1,37.08,16.14
5.3528,-12.258,-4.3449,-1.0296,0.043371,-0.8656,14.46,37.02,15.9
4.8761,-10.624,-3.1735,-1.0971,-0.065668,-1.0861,14.52,37.26,15.78
4.9578,-11.182,-2.4789,-0.95997,-0.33964,-1.3628,14.58,37.44,15.72
5.2438,-11.931,-2.7649,-0.97738,-1.2055,-1.6054,14.46,37.44,15.84
5.8704,-12.681,-2.9556,-1.0388,-1.5821,-1.6225,14.04,37.32,16.26
6.4424,-14.506,-2.7786,-1.1686,-2.7229,-1.5794,13.74,37.2,16.5
5.8295,-15.119,-2.2474,-1.339,-3.2284,-1.5085,13.26,37.14,17.04
4.9578,-14.928,-1.8251,-1.5806,-3.3931,-1.558,13.02,37.08,17.46
2.9829,-12.953,-1.1713,-1.8094,-3.1133,-1.6924,12.18,36.96,18.48
2.4108,-12.408,-1.0624,-2.0302,-2.0354,-1.9795,11.82,36.9,18.96
1.7162,-11.237,-0.83084,-2.2297,-1.5828,-2.105,11.4,36.9,19.38
1.7706,-10.815,-0.6674,-2.4361,-0.35308,-2.4462,10.44,37.14,20.4
2.0567,-10.447,-0.46309,-2.5097,0.22724,-2.5959,9.84,37.26,20.88
2.1929,-10.283,-0.29965,-2.5113,0.59284,-2.7168,9.3,37.14,21.48
2.656,-9.4798,-0.28603,-2.4441,0.7196,-2.799,7.92,36.72,22.56
2.7922,-9.1529,-0.35413,-2.3075,0.63286,-2.7489,7.14,36.48,22.98
2.7377,-8.826,-0.32689,-2.1457,0.41905,-2.6985,5.46,36.0,24.06
2.5742,-8.5127,-0.17706,-1.8754,0.052229,-2.503,4.32,35.58,24.78
2.2882,-8.1858,-0.054481,-1.7785,-0.052229,-2.4206,3.36,35.22,25.44
1.7979,-7.8317,0.027241,-1.5296,-0.17013,-2.1444,1.02,34.02,26.58
1.3893,-7.6274,0.24517,-1.3564,-0.11881,-1.8983,-0.12,33.3,27.3
1.1577,-7.6138,-0.027241,-1.1585,0.0030543,-1.5925,-1.26,32.34,28.08
1.0896,-7.6546,-0.081722,-0.79015,0.19181,-1.0067,-3.72,30.6,29.7
1.0624,-7.4776,-0.25879,-0.46731,0.28619,-0.53115,-4.74,29.64,30.42
1.0624,-7.3958,-0.28603,-0.10079,0.34972,-0.0079412,-5.82,28.56,31.02
1.0351,-8.54,-0.50395,0.31215,0.41142,0.61239,-7.74,26.76,31.98
1.1441,-8.9894,-0.70826,0.73395,0.52595,1.2975,-8.46,25.92,32.4
1.8115,-8.036,-1.5527,1.1448,0.5959,1.8882,-9.12,25.32,32.76
2.0158,-7.8453,-1.9341,1.682,0.46976,2.4285,-9.96,24.6,33.24
2.1929,-8.3901,-2.3836,1.9887,0.24648,2.6279,-10.2,24.54,33.18
2.4517,-9.3163,-2.6968,2.2602,-0.10232,2.7355,-10.26,24.48,33.06
2.7377,-10.488,-3.051,2.4389,-0.58979,2.7752,-10.26,24.66,32.82
2.8194,-13.253,-3.2825,2.5513,-1.1258,2.7559,-9.72,25.92,31.86
2.6968,-14.492,-3.0782,2.5155,-1.5067,2.7135,-9.36,26.88,31.14
1.9477,-14.833,-2.3836,2.2034,-1.3573,2.6738,-7.8,28.92,29.7
1.3757,-13.974,-2.4517,1.9258,-0.67989,2.5882,-6.96,30.18,28.86
1.0624,-13.089,-2.656,1.7089,0.36469,2.3949,-6.12,31.56,28.14
0.77636,-11.169,-3.2553,1.5687,1.5046,2.1506,-5.28,32.64,27.48
1.6889,-9.221,-2.9284,1.4169,2.4374,1.9444,-3.0,34.92,26.1
2.6151,-8.6081,-2.2882,1.2822,3.0818,1.6848,-1.86,36.0,25.56
3.6366,-8.7851,-2.261,1.2517,3.0962,1.6023,0.3,37.62,24.36
4.5764,-8.9349,-2.4789,1.1793,2.8411,1.4896,1.5,38.16,23.7
5.2575,-9.1937,-2.9284,1.127,2.2306,1.4933,2.64,38.88,22.98
5.6116,-9.5887,-3.2689,1.1209,0.98807,1.5983,4.8,39.84,22.08
5.2847,-9.5751,-3.3778,1.1072,0.2868,1.6377,5.82,40.08,21.54
4.5083,-9.3844,-3.8954,1.1041,-0.20495,1.5143,7.8,40.14,20.58
4.0861,-9.2755,-4.3449,1.0629,-0.18021,1.3671,8.58,40.08,20.04
3.732,-8.9213,-4.8352,1.0214,-0.087659,1.2752,9.6,40.02,19.62
3.5277,-8.7306,-4.8761,0.89614,0.1744,1.073,10.5,39.9,19.08
3.8409,-8.9486,-5.094,0.7251,0.44196,0.72937,12.18,39.9,17.88
4.3721,-9.6432,-5.094,0.59834,0.36377,0.5339,12.84,39.96,17.16
4.5764,-10.719,-5.0668,0.44349,0.18204,0.3259,13.5,39.96,16.62
4.808,-11.754,-4.8216,0.1295,0.040012,0.054978,15.0,40.26,15.12
4.8761,-12.953,-4.5492,0.0051924,-0.0058032,-0.10812,15.6,40.44,14.52
5.1621,-14.506,-5.2438,-0.037874,-0.021991,-0.18692,16.08,40.56,14.04
5.3528,-14.41,-5.5707,-0.70219,0.085216,-0.53145,16.92,40.62,13.2
4.7263,-12.286,-4.5764,-1.1765,0.32376,-0.86407,17.16,40.62,12.96
3.8409,-9.507,-3.0237,-1.3036,0.60506,-1.2049,17.4,40.68,12.84
4.0861,-9.7658,-2.2474,-1.0324,0.5959,-1.7654,17.34,40.86,12.96
4.7126,-11.741,-2.6015,-0.9728,0.15699,-1.9694,16.92,40.92,13.08
5.1894,-12.503,-2.8875,-1.0797,-0.5681,-2.0024,16.56,40.92,13.2
6.5241,-14.301,-2.9011,-1.2092,-1.4374,-1.9199,15.6,40.86,14.16
6.3607,-14.642,-2.5606,-1.2868,-2.2599,-1.7394,14.94,40.8,14.7
5.5299,-14.451,-2.261,-1.325,-2.8686,-1.591,14.22,40.74,15.24
3.9227,-13.076,-1.4029,-1.3842,-3.207,-1.6469,12.36,40.68,16.8
3.2825,-12.149,-1.2395,-1.6133,-2.9386,-1.8228,11.52,40.62,17.64
2.5742,-11.414,-0.9398,-1.7107,-2.6676,-1.8952,10.62,40.56,18.42
1.6344,-10.488,-0.76274,-1.9853,-1.5748,-2.204,8.82,40.56,19.92
1.6753,-10.243,-0.7355,-2.1374,-0.85949,-2.3976,7.92,40.5,20.64
1.8932,-9.9973,-0.68102,-2.2272,-0.31398,-2.5149,7.02,40.44,21.3
2.0703,-9.3708,-0.47671,-2.2571,0.16829,-2.6295,5.28,39.9,22.56
2.1793,-9.0848,-0.38137,-2.1771,0.31551,-2.6359,4.44,39.48,23.34
2.1929,-8.9894,-0.34051,-2.1374,0.34483,-2.6032,3.6,38.94,24.12
2.3155,-8.7306,-0.35413,-1.9422,0.29138,-2.3744,2.76,38.4,24.54
2.1929,-8.3357,-0.28603,-1.7816,0.18815,-2.1878,1.14,36.84,25.8
1.9613,-8.1586,-0.17706,-1.6222,0.13775,-1.9484,0.3,36.0,26.34
1.58,-7.8998,0.054481,-1.4725,0.19426,-1.6658,-0.48,34.92,27.0
1.1713,-7.5865,0.19068,-1.2086,0.43188,-1.1997,-2.16,32.88,28.08
1.1169,-7.5729,0.12258,-0.98807,0.61392,-0.83627,-2.94,31.8,28.56
1.1032,-7.5321,0.040861,-0.70036,0.7645,-0.41142,-3.78,30.66,29.04
1.3893,-7.1234,-0.31327,-0.36072,0.79932,0.037263,-5.34,28.38,30.12
1.4982,-7.0417,-0.49033,0.054062,0.70585,0.52931,-6.18,27.36,30.6
1.6072,-7.9407,-0.74912,0.49969,0.52443,1.098,-7.08,26.28,31.08
2.1112,-9.4661,-1.2258,1.1142,0.26817,2.0021,-8.34,25.02,31.32
2.2882,-8.9894,-1.6344,1.4532,0.085216,2.3714,-8.76,24.54,31.5
2.3018,-8.9622,-1.8796,1.609,-0.027794,2.4832,-9.0,24.18,31.68
2.3427,-10.256,-2.4517,2.007,-0.34117,2.7403,-9.18,24.42,31.56
2.438,-11.359,-2.6423,2.1961,-0.53634,2.821,-9.12,24.72,31.14
2.547,-12.449,-2.7377,2.2923,-0.80695,2.8185,-8.94,25.2,30.84
2.4789,-14.138,-2.7922,2.2636,-1.106,2.7226,-8.28,26.64,29.64
2.0975,-14.506,-2.3836,2.1035,-0.94165,2.693,-7.86,27.48,29.1
1.9068,-14.192,-2.2474,1.8479,-0.3711,2.6383,-7.2,28.5,28.5
1.4029,-12.612,-2.3155,1.6225,0.54245,2.4716,-6.48,29.52,27.84
1.1577,-10.338,-2.6423,1.4902,1.6035,2.2608,-4.74,31.56,26.76
1.6072,-9.2482,-2.3836,1.3744,2.5418,2.0763,-3.66,32.52,26.22
3.2144,-8.7715,-1.9341,1.3207,3.0791,1.9435,-1.44,33.9,25.38
3.8682,-8.9349,-1.975,1.2785,3.1643,1.8027,-0.3,34.56,24.9
4.699,-9.0031,-2.2746,1.1918,2.5201,1.6994,0.72,35.1,24.36
5.4209,-9.0712,-2.6968,1.1781,1.6634,1.7718,1.68,35.7,23.82
6.17,-9.2346,-3.1463,1.1976,0.69028,1.8601,3.78,36.54,22.56
5.5571,-9.3163,-3.4459,1.2153,-0.17501,1.8353,4.86,36.96,22.08
5.0259,-9.398,-3.7728,1.2055,-0.84758,1.5837,6.96,37.14,21.06
3.9908,-9.3163,-4.3994,1.1658,-0.85918,1.4997,8.1,37.14,20.64
3.4732,-9.0984,-4.6037,0.97555,-0.41783,1.1582,8.94,37.08,20.28
3.1599,-8.9077,-4.6854,0.82772,0.034514,0.85185,10.02,36.96,19.8
3.3097,-9.3299,-4.9987,0.70769,0.38332,0.55558,11.76,36.9,18.36
3.8954,-9.9156,-5.2438,0.53359,0.50274,0.32406,12.72,37.02,17.76
4.3994,-10.447,-5.0531,0.33384,0.44563,0.14386,13.44,37.14,17.22
4.6582,-12.095,-4.3994,0.11698,0.29719,-0.11026,14.58,37.38,15.9
4.985,-14.247,-5.1485,0.05681,0.13195,-0.23702,15.12,37.56,15.36
5.3528,-15.255,-5.6524,-0.34086,0.010385,-0.36408,15.66,37.56,14.94
4.985,-13.552,-4.8488,-0.95417,0.022602,-0.60353,16.26,37.56,14.4
4.0725,-11.278,-3.514,-1.2993,0.24832,-0.89095,16.5,37.5,14.1
3.6503,-9.8475,-2.2746,-1.2865,0.4664,-1.2578,16.5,37.5,14.22
4.1678,-11.223,-2.5061,-1.0763,0.32987,-1.8164,16.26,37.38,14.4
4.9033,-12.19,-2.833,-1.1304,-0.17287,-1.9511,15.96,37.2,14.46
5.4481,-12.749,-3.0918,-1.2352,-0.92577,-1.9477,15.48,37.26,14.64
6.4697,-14.124,-2.7377,-1.3173,-1.7715,-1.8873,14.34,37.02,15.48
5.9657,-14.397,-2.2474,-1.3479,-2.1686,-1.8121,13.5,36.84,15.9
5.0668,-14.015,-1.7162,-1.5458,-3.178,-1.8243,12.84,36.54,16.26
3.4187,-12.286,-1.0896,-1.5458,-3.178,-1.8243,12.84,36.54,16.26
2.6696,-11.659,-1.0624,-1.6832,-2.9444,-1.9288,11.22,36.06,17.82
2.1112,-11.114,-0.92618,-1.9459,-2.0036,-2.1536,10.38,36.0,18.42
1.6481,-10.42,-0.76274,-2.1096,-1.2394,-2.3405,8.64,35.58,19.8
1.7025,-9.9565,-0.6674,-2.2287,-0.59865,-2.4893,7.74,35.28,20.4
2.0567,-9.3163,-0.31327,-2.2944,-0.15424,-2.5791,5.88,34.62,21.48
2.0567,-9.1256,-0.35413,-2.2996,0.10079,-2.6499,4.98,34.08,22.08
2.1929,-8.8396,-0.31327,-2.241,0.21808,-2.6631,4.2,33.6,22.62
2.2337,-8.5672,-0.32689,-2.1557,0.23182,-2.5779,3.48,33.0,23.34
2.0294,-8.5944,-0.20431,-1.9688,0.15149,-2.3405,1.8,31.26,24.9
1.8387,-8.5127,-0.10896,-1.8295,0.13989,-2.1151,1.08,30.24,25.62
1.362,-8.322,-0.01362,-1.6823,0.22877,-1.6784,-0.48,28.32,27.06
1.1713,-8.3084,0.12258,-1.4056,0.49144,-1.3292,-1.26,27.42,27.78
1.1577,-8.3493,0.19068,-1.3021,0.59956,-1.1387,-2.04,26.22,28.14
1.2531,-8.0905,0.12258,-0.89247,0.84513,-0.49297,-3.54,23.7,29.34
1.3757,-7.7091,-0.28603,-0.51404,0.86346,-0.020769,-4.2,22.44,30.12
1.5119,-7.8726,-0.46309,-0.072388,0.7309,0.47586,-4.92,21.3,30.78
2.0022,-9.3844,-0.83084,0.37996,0.56536,1.0956,-6.3,19.08,31.86
2.2746,-8.9622,-1.1305,1.0308,0.28283,1.8338,-6.9,18.12,32.34
2.3836,-8.0632,-1.5527,1.2324,0.12614,1.959,-7.56,17.46,32.64
2.2882,-9.0575,-2.4108,1.7663,-0.41417,2.2168,-8.16,16.62,32.88
2.4653,-10.134,-2.8058,2.036,-0.81886,2.3582,-8.28,16.62,32.82
2.6015,-11.101,-3.0101,2.2431,-1.2843,2.4367,-8.34,16.74,32.7
2.4925,-14.315,-3.1463,2.3301,-1.7709,2.4826,-7.98,17.64,32.46
2.1793,-14.833,-2.9556,2.1838,-1.9148,2.5409,-7.5,18.3,32.1
1.471,-14.764,-2.438,1.8937,-1.3769,2.5647,-7.02,19.08,31.92
0.46309,-12.0,-2.2882,1.7358,-0.9218,2.543,-6.42,20.1,31.5
0.054481,-10.338,-2.6423,1.3974,0.97341,2.2639,-4.98,22.2,30.72
0.16344,-8.8941,-2.8194,1.2825,2.2434,2.0385,-4.2,23.22,30.3
1.6344,-7.641,-2.0294,1.1732,3.251,1.883,-2.58,25.14,29.82
2.2474,-7.5184,-1.7843,1.0751,3.8585,1.7165,-1.8,25.98,29.58
4.0316,-7.9815,-1.6072,1.0385,3.8304,1.6725,-1.02,26.7,29.46
4.8352,-8.2539,-1.9613,0.94959,3.1255,1.6988,0.24,28.14,28.92
5.4754,-8.5808,-2.3155,0.93004,2.204,1.836,0.78,28.68,28.62
5.7614,-8.717,-2.6015,0.98471,1.1777,2.0366,1.32,29.1,28.38
5.4209,-9.4661,-3.051,1.0626,0.22663,2.1637,2.28,29.58,27.84
4.9578,-9.6432,-3.4187,1.1536,-0.44685,2.1194,2.76,29.7,27.54
4.3313,-9.4389,-4.3177,1.2226,-0.78679,2.0101,3.66,30.0,26.88
3.9771,-9.5479,-4.5764,1.2049,-0.61361,1.8369,4.08,30.0,26.4
3.8273,-9.9429,-4.9033,1.1469,-0.3766,1.609,4.68,30.06,25.98
4.304,-10.515,-5.3119,0.99205,-0.23335,1.3005,5.28,30.18,25.38
5.2302,-11.577,-5.4754,0.75839,-0.18692,0.96517,6.72,30.54,24.24
5.1213,-11.673,-5.0668,0.33323,-0.099266,0.45143,7.44,30.66,23.64
4.6582,-11.863,-3.9908,0.17654,0.060781,0.07025,8.88,31.2,22.44
4.6037,-13.866,-4.699,0.1573,0.13744,-0.12339,9.66,31.38,22.08
4.7126,-14.043,-5.1621,-0.14142,0.36866,-0.50366,10.44,31.74,21.72
4.6718,-13.225,-5.094,-0.88759,0.80329,-1.0006,11.1,31.98,21.48
3.8818,-9.902,-3.3642,-1.055,1.0852,-1.2452,11.88,32.22,20.82
4.1951,-10.174,-2.7513,-0.85338,0.92546,-1.635,12.0,32.22,20.76
5.7205,-12.326,-3.3915,-0.78496,0.29077,-1.8405,12.18,32.22,20.94
6.6331,-13.266,-3.5958,-0.92943,-0.64416,-1.9111,12.0,32.22,21.3
6.9736,-13.511,-3.5413,-1.0284,-1.6405,-1.8161,11.7,32.22,21.42
6.7421,-13.893,-2.9148,-1.0681,-2.4942,-1.6625,11.34,32.16,21.78
5.1485,-13.579,-2.0567,-1.1555,-3.0879,-1.7211,10.26,32.1,22.32
3.8954,-12.326,-1.7025,-1.3815,-3.259,-1.9786,9.78,32.1,22.62
2.547,-10.855,-1.2667,-1.5592,-2.9224,-2.1493,8.64,31.98,23.52
2.2201,-10.379,-1.0624,-1.7123,-2.3741,-2.3567,8.04,31.98,24.0
1.866,-10.256,-0.9398,-1.7978,-2.0714,-2.4655,7.26,32.04,24.6
1.8387,-9.8611,-0.85808,-1.9969,-1.3115,-2.6417,5.88,32.22,25.38
2.0294,-9.6841,-0.85808,-2.0641,-0.99846,-2.6667,5.28,32.4,25.86
2.1793,-9.6432,-0.89894,-2.0846,-0.82986,-2.6692,4.68,32.64,26.04
2.2474,-9.6704,-1.0488,-2.0427,-0.7199,-2.5146,3.48,32.58,26.7
2.0567,-9.4661,-0.83084,-2.0152,-0.69608,-2.4352,2.94,32.52,27.12
1.8932,-9.3299,-0.70826,-1.9374,-0.62247,-2.237,2.46,32.22,27.54
1.4029,-9.0575,-0.55843,-1.8292,-0.3882,-1.8909,1.26,31.5,28.56
1.2803,-8.9349,-0.44947,-1.741,-0.14508,-1.628,0.84,31.14,29.16
1.185,-8.8124,-0.42223,-1.5766,0.27611,-1.223,-0.36,29.94,30.36
1.0624,-8.717,-0.24517,-1.4337,0.57238,-0.93401,-1.02,29.34,31.02
1.0624,-8.6353,-0.10896,-1.2382,0.85124,-0.6127,-1.74,28.62,31.62
1.2395,-8.4991,-0.10896,-1.1102,0.94287,-0.44013,-2.4,27.6,32.04
1.6889,-8.8668,-0.040861,-0.61789,1.0629,0.14508,-3.78,25.44,33.42
1.8932,-9.616,0.095342,-0.19792,1.0247,0.62705,-4.38,24.6,34.02
2.3155,-10.052,-0.29965,0.24954,0.91935,1.1481,-4.98,23.76,34.68
2.9284,-8.8396,-1.0624,0.92699,0.5397,1.6087,-6.0,22.26,35.46
3.0237,-9.112,-1.4574,1.31,0.09499,1.7071,-6.48,21.72,35.7
3.1599,-9.6704,-1.6753,1.6335,-0.41325,1.7297,-6.9,21.6,35.94
2.9148,-11.863,-2.0975,1.8314,-0.9447,1.6744,-7.44,21.54,35.88
2.5198,-12.762,-2.1248,1.8637,-1.3518,1.6078,-7.62,21.78,35.82
1.9613,-13.184,-1.8796,1.7584,-1.4267,1.598,-7.74,22.26,35.64
0.88532,-11.931,-1.4982,1.4007,-0.76694,1.635,-7.56,23.58,34.86
0.5993,-10.637,-1.6072,1.2239,0.12645,1.6762,-7.26,24.3,34.32
0.35413,-9.8475,-1.8932,1.1478,1.2175,1.7074,-7.14,25.38,33.96
0.53119,-7.8998,-2.4653,1.1332,2.2828,1.6811,-6.54,27.48,33.0
1.0488,-7.3958,-2.3972,1.1261,3.0989,1.6753,-6.3,28.38,32.64
1.7979,-7.1915,-1.8932,1.0919,3.5317,1.74,-6.12,29.28,32.34
2.8603,-7.2324,-1.6344,1.0501,3.6203,1.8268,-5.82,30.9,31.68
3.3097,-7.4367,-1.5936,1.0305,3.1176,1.9975,-5.4,31.62,31.38
4.0589,-8.1041,-1.8524,1.0461,2.5302,2.1979,-5.1,32.16,31.02
4.7399,-8.9077,-2.3018,1.0846,1.7565,2.4303,-4.74,32.82,30.72
4.808,-9.2891,-2.438,1.212,1.0217,2.6325,-4.38,33.42,30.18
4.808,-10.896,-3.0782,1.3686,0.34575,2.7773,-3.72,34.32,29.22
4.8761,-11.536,-3.5958,1.587,-0.3989,2.8216,-3.3,34.62,28.74
5.094,-11.741,-4.7263,1.653,-0.67623,2.6915,-2.34,35.28,27.96
4.9578,-11.809,-5.1621,1.6243,-0.72937,2.5895,-1.44,35.64,27.3
4.9306,-11.986,-5.4754,1.4893,-0.69333,2.2907,-0.48,35.88,26.52
5.5299,-11.986,-5.4754,1.1212,-0.48747,1.606,1.68,36.54,24.78
5.0259,-11.877,-4.9306,0.86285,-0.38546,1.1017,2.94,36.96,23.88
4.3721,-11.754,-4.0044,0.63958,-0.18082,0.61606,4.14,37.44,23.1
4.3313,-13.511,-4.4539,0.45907,0.15333,-0.10629,6.6,38.28,21.24
5.0123,-14.247,-5.5435,0.096517,0.31673,-0.42974,7.74,38.82,20.52
5.3528,-13.838,-5.775,-0.24007,0.38729,-0.53939,8.76,39.12,19.8
4.6718,-9.221,-4.0452,-0.95417,0.53298,-0.73457,10.32,39.6,18.84
4.522,-7.9543,-3.1191,-0.81123,0.47709,-0.93035,10.86,39.84,18.36
4.9987,-8.9894,-4.018,-0.57666,0.028711,-1.1872,11.4,40.14,18.12
6.7012,-12.735,-4.5901,-0.69394,-1.2798,-1.4077,12.0,40.56,17.52
7.5321,-14.138,-4.4266,-0.91447,-2.1838,-1.3347,12.12,40.68,17.34
7.4503,-14.955,-3.8137,-1.1545,-2.9004,-1.2052,12.12,40.86,17.52
5.2166,-15.241,-1.9341,-1.4752,-3.3057,-1.215,11.82,40.98,17.94
3.8818,-14.383,-1.4982,-1.8268,-3.1744,-1.42,11.52,40.86,18.36
2.7377,-12.503,-1.4165,-2.1383,-2.6261,-1.7349,11.28,40.86,18.84
1.5391,-11.605,-1.4301,-2.4007,-1.4129,-2.2804,10.38,40.8,20.4
1.5391,-11.25,-1.1986,-2.5739,-0.56933,-2.5947,9.9,40.44,21.06
1.7298,-10.978,-0.95342,-2.6429,-0.19426,-2.722,9.18,40.26,21.78
1.9613,-10.351,-0.70826,-2.722,0.61942,-3.0467,8.4,40.14,22.62
2.3972,-9.9429,-0.53119,-2.6793,0.82925,-3.1921,6.66,39.66,24.24
2.7241,-9.8748,-0.62654,-2.5714,0.7703,-3.215,5.7,39.3,25.08
2.8058,-9.8066,-0.57205,-2.4236,0.50824,-3.1185,3.66,38.1,26.7
2.833,-9.8339,-0.46309,-2.164,-0.023518,-2.7605,2.52,37.32,27.72
2.6423,-9.8066,-0.42223,-2.0837,-0.17715,-2.5965,1.38,36.42,28.62
2.0567,-9.507,-0.068102,-1.8915,-0.39523,-2.1011,-1.26,34.38,30.24
1.5391,-9.1937,0.20431,-1.7813,-0.31551,-1.7694,-2.58,33.42,31.02
1.2258,-9.1665,0.32689,-1.6677,-0.081551,-1.4523,-3.96,32.28,31.74
1.1986,-9.0712,0.28603,-1.4291,0.43402,-0.96761,-6.48,29.64,33.0
1.2803,-8.8668,0.25879,-1.1664,0.7025,-0.62461,-7.62,28.38,33.6
1.471,-8.6489,0.17706,-1.0113,0.77855,-0.4386,-8.52,27.06,34.26
1.6753,-9.7658,0.19068,-0.62094,0.83139,-0.046426,-10.08,24.6,35.4
2.0839,-10.134,0.19068,0.069944,0.76175,0.76205,-10.74,23.34,35.7
2.4789,-9.2346,-0.61292,0.54856,0.56566,1.1829,-11.4,22.26,36.12
2.656,-7.8045,-1.4165,1.033,0.23182,1.4013,-12.42,20.52,36.66
2.6287,-8.4719,-1.7706,1.6701,-0.46731,1.5571,-12.72,19.98,36.9
2.6968,-9.7385,-2.0567,1.8506,-0.73854,1.5828,-13.08,19.8,36.9
2.5742,-11.727,-2.4789,2.1738,-1.5223,1.606,-13.2,19.8,36.84
2.0022,-12.463,-2.5061,2.2336,-1.861,1.6499,-12.96,20.04,36.66
1.4438,-13.089,-2.2746,2.1368,-1.8387,1.7712,-12.6,20.58,36.12
0.7355,-12.04,-1.7434,1.9099,-1.434,1.9303,-11.94,22.26,35.04
0.44947,-10.515,-1.8115,1.5345,-0.16371,2.0702,-11.64,23.4,34.62
0.24517,-9.5479,-2.1384,1.4047,0.89217,2.0583,-11.34,24.54,34.08
0.24517,-7.927,-2.5061,1.372,1.8906,2.0036,-10.86,25.56,33.6
1.0215,-7.0553,-2.4925,1.339,2.5931,1.9639,-9.66,27.72,32.88
1.9341,-7.1507,-1.9886,1.2987,2.9716,2.0006,-9.12,28.86,32.46
2.8603,-7.7227,-1.975,1.2376,2.9761,2.1078,-7.74,30.96,31.74
3.5958,-8.3765,-1.9886,1.2034,2.6536,2.2822,-7.14,31.92,31.26
4.0589,-9.0167,-2.2065,1.1933,2.1499,2.5134,-6.3,32.7,30.84
4.304,-9.5887,-2.3427,1.2092,1.5626,2.7721,-5.52,33.36,30.36
4.8761,-11.441,-3.1327,1.2773,0.97036,2.9896,-4.2,34.56,29.28
5.0123,-11.877,-3.4187,1.3476,0.49205,3.1053,-3.48,35.1,28.92
5.1349,-11.659,-4.1542,1.3861,0.18723,3.0317,-1.56,35.94,28.14
5.4618,-11.509,-4.808,1.3164,0.11881,2.6515,-0.42,36.24,27.54
6.4697,-11.972,-5.6116,1.1771,0.065363,2.1753,0.72,36.54,27.0
7.0553,-12.068,-5.6524,0.95203,0.000916,1.5834,1.92,36.9,26.16
6.2381,-11.809,-4.9442,0.76236,-0.16677,1.0174,4.38,37.56,24.42
4.985,-11.673,-4.2087,0.64324,-0.2361,0.43646,5.7,37.86,23.52
4.3858,-12.108,-4.304,0.48136,-0.063225,-0.42089,8.04,38.46,21.9
4.9987,-14.315,-5.6116,0.28008,0.066584,-0.73365,9.06,38.64,21.06
4.9306,-13.838,-5.6661,-0.33689,0.30024,-0.85216,10.02,38.94,20.28
4.5083,-12.585,-5.1349,-0.67287,0.4609,-0.88087,10.8,39.24,19.74
3.8954,-8.9894,-3.2553,-0.89675,0.87445,-1.0657,12.24,39.9,18.72
4.4402,-9.7658,-3.2961,-0.63591,0.69455,-1.2846,12.6,40.02,18.36
5.2847,-11.414,-4.1133,-0.57574,0.032987,-1.43,12.72,40.08,18.06
7.9679,-14.22,-4.7944,-0.77885,-1.5262,-1.4536,12.48,40.38,17.7
8.3765,-15.05,-4.5628,-0.81581,-2.1087,-1.4068,12.24,40.5,17.52
7.246,-15.881,-3.1599,-0.97525,-3.1325,-1.3213,11.82,40.56,17.7
4.2904,-14.274,-1.6617,-1.5632,-3.7547,-1.4554,11.1,40.62,18.06
2.7786,-12.64,-1.3893,-1.9071,-3.4434,-1.7834,10.8,40.38,18.42
1.5527,-10.801,-1.2531,-2.1136,-2.7855,-2.1976,10.38,40.38,18.9
1.0624,-10.447,-1.3348,-2.2743,-1.5754,-2.6276,9.0,40.44,20.04
1.1713,-10.542,-1.1577,-2.4685,-0.83872,-2.7541,8.1,40.38,20.7
1.362,-10.202,-1.0488,-2.5577,-0.49052,-2.8198,7.26,40.26,21.3
1.9068,-9.0984,-1.0624,-2.6203,0.17349,-2.9392,5.46,39.84,22.62
2.3155,-9.1393,-1.0624,-2.5326,0.28008,-2.8772,4.5,39.66,23.16
2.5061,-9.1665,-0.9398,-2.4383,0.15913,-2.6866,3.6,39.36,23.82
2.4925,-9.0575,-0.70826,-2.248,-0.21105,-2.2694,1.92,38.04,25.38
2.3699,-9.2482,-0.46309,-2.1615,-0.40714,-1.9267,1.08,37.26,26.22
2.1248,-9.4798,-0.28603,-2.1249,-0.45387,-1.7599,0.06,36.42,26.94
1.4301,-9.5751,-0.027241,-2.0537,-0.32529,-1.2901,-2.1,34.56,28.8
1.2122,-9.5479,0.12258,-2.0039,-0.019548,-1.0232,-3.18,33.72,29.58
1.0215,-9.6023,0.38137,-1.9004,0.41997,-0.7703,-4.08,32.76,30.24
1.3076,-9.6977,0.49033,-1.7071,0.91233,-0.48839,-5.88,30.0,31.5
1.471,-9.5206,0.47671,-1.2746,1.3903,-0.043677,-6.6,28.74,32.22
1.8524,-9.1529,0.64016,-1.0831,1.452,0.1124,-7.26,27.48,32.88
2.3155,-10.025,0.47671,-0.35094,1.3665,0.73731,-8.7,24.72,34.14
2.7922,-9.1937,0.12258,0.17807,1.1692,1.1805,-9.18,23.58,34.68
3.0918,-7.7364,-0.23155,0.71135,0.77702,1.4056,-9.72,22.5,35.28
2.7377,-7.8862,-0.61292,1.4542,-0.11118,1.5354,-10.62,21.18,35.82
2.6423,-9.4389,-0.83084,1.8851,-0.78496,1.6023,-10.92,20.94,36.0
2.656,-11.169,-1.2939,2.062,-1.1142,1.6301,-11.04,20.64,36.0
2.5606,-12.381,-1.7025,2.4303,-1.9887,1.6851,-11.04,20.64,35.64
1.866,-13.961,-2.0158,2.5293,-2.2403,1.7886,-10.92,21.36,35.22
1.3484,-13.607,-1.7025,2.4673,-2.0146,1.9331,-10.68,22.02,34.92
1.0079,-12.435,-1.58,2.2721,-1.3311,2.021,-10.44,22.92,34.5
0.24517,-9.4117,-2.0294,2.0769,0.14111,1.9239,-9.48,25.08,33.36
0.24517,-8.4991,-2.4517,2.0385,1.117,1.7575,-8.88,26.16,32.76
0.55843,-7.9679,-2.6015,2.0281,1.5043,1.6695,-8.46,27.36,32.1
1.6481,-7.8317,-2.4517,1.9725,2.2477,1.5275,-6.96,29.64,31.02
2.261,-8.0224,-2.4925,1.9227,2.4279,1.5015,-6.06,30.66,30.3
2.9965,-8.3084,-2.7649,1.8741,2.317,1.5806,-4.14,32.88,28.92
3.9499,-9.2346,-3.3097,1.7993,1.6698,1.8821,-3.3,33.72,28.26
4.3858,-10.079,-3.3778,1.7788,1.3589,1.9887,-2.4,34.74,27.6
4.2904,-10.556,-3.5413,1.7648,0.72235,2.1499,-1.38,35.64,27.06
3.8682,-11.441,-4.3449,1.678,0.13439,2.3017,0.66,37.02,25.26
3.7184,-11.005,-4.8352,1.5492,0.079718,2.2272,1.56,37.56,24.36
3.4732,-10.597,-5.0531,1.43,0.45235,1.9535,3.72,38.58,22.86
3.5004,-11.005,-5.38,1.3488,0.7138,1.7028,4.92,38.94,21.9
4.1678,-11.577,-5.9112,1.1784,0.73915,1.3916,5.94,39.36,21.0
4.808,-11.904,-6.3743,0.95631,0.52748,1.0388,7.14,39.72,19.98
5.8704,-12.653,-5.7342,0.68264,0.26237,0.71044,9.48,40.44,18.0
5.5435,-13.076,-5.1894,0.44288,-0.0039706,0.41814,10.5,40.98,16.86
5.4754,-14.056,-5.775,0.28039,-0.31734,0.12981,11.46,41.16,15.9
5.5299,-14.261,-6.1292,-0.16096,-0.53512,-0.20067,13.08,41.46,14.28
4.4811,-12.326,-4.7399,-1.0437,-0.37141,-0.6524,13.98,41.64,13.44
3.5277,-10.134,-3.9908,-1.2257,-0.079107,-0.89828,14.7,41.7,12.6
3.9363,-9.9429,-3.6503,-1.029,-0.025351,-1.1747,15.66,41.76,11.94
4.9442,-12.108,-4.3177,-1.0427,-0.40623,-1.3503,16.02,41.64,11.76
6.2654,-13.675,-4.7671,-1.2773,-1.1154,-1.4154,16.08,41.52,11.58
7.4776,-16.045,-3.909,-1.6154,-2.3054,-1.3014,15.9,41.34,11.52
6.5241,-16.562,-2.833,-1.9545,-2.8906,-1.1747,15.72,41.22,11.7
5.6524,-16.222,-2.1384,-2.3732,-3.0311,-1.2257,15.42,41.1,12.0
3.6775,-14.615,-1.3076,-2.6765,-2.6227,-1.4691,15.06,40.86,12.24
1.9613,-12.381,-1.1713,-2.8549,-1.8659,-1.8415,13.92,40.44,13.2
1.3212,-11.536,-1.1169,-2.9981,-0.96883,-2.2028,13.26,40.26,13.92
1.58,-11.387,-0.83084,-3.1069,-0.099876,-2.5036,11.52,39.84,15.48
1.9068,-10.842,-0.46309,-3.2535,1.0095,-2.8906,10.38,39.66,16.32
2.1929,-10.365,-0.095342,-3.2193,1.4071,-3.1279,9.18,39.42,17.34
2.4517,-10.093,-0.027241,-3.0873,1.4615,-3.2605,7.8,39.0,18.24
2.9011,-10.025,-0.054481,-2.9099,1.2529,-3.2843,6.3,38.4,19.14
3.0373,-9.9701,-0.081722,-2.7089,0.86315,-3.2031,3.3,36.66,21.24
2.8739,-10.079,-0.081722,-2.3894,0.19456,-2.9135,1.74,35.7,22.38
2.5742,-10.161,0.095342,-2.2797,0.011606,-2.7926,-1.32,33.42,24.3
1.9341,-9.4798,0.40861,-1.992,-0.25412,-2.3167,-2.88,32.16,25.44
1.6753,-9.1393,0.55843,-1.7999,-0.2135,-1.9838,-4.56,30.66,26.52
1.3484,-8.8532,0.78998,-1.5806,-0.049175,-1.6102,-6.06,29.1,27.6
1.0488,-8.2539,0.70826,-1.2892,0.17287,-1.2159,-9.0,26.16,29.34
1.0488,-7.6683,0.57205,-0.71013,0.43891,-0.53359,-10.32,24.6,30.24
1.1169,-7.0962,0.34051,-0.47037,0.49083,-0.28253,-12.48,21.36,31.8
1.3757,-7.7364,0.054481,0.07422,0.51038,0.29749,-13.5,19.74,32.52
1.4165,-7.9815,-0.14982,0.86193,0.44838,1.2865,-14.28,18.24,33.06
2.1656,-6.4833,-0.83084,1.3399,0.36866,1.653,-15.42,16.02,33.78
2.0567,-6.6604,-1.185,1.7474,0.1295,1.8769,-15.78,15.36,34.08
2.1112,-7.6002,-1.6753,2.124,-0.17532,2.0815,-16.08,14.82,34.38
2.547,-10.447,-1.9613,2.5745,-0.87232,2.3011,-16.26,14.46,34.5
2.6968,-11.863,-2.152,2.7862,-1.4404,2.4141,-16.14,14.58,34.26
2.5879,-13.116,-2.4653,2.8683,-1.6777,2.4789,-15.96,15.36,34.14
2.4108,-14.22,-2.4789,2.9422,-2.0061,2.7067,-15.66,16.08,33.84
1.8932,-13.934,-2.0567,2.7993,-1.7373,2.8112,-14.46,18.18,33.18
0.99429,-11.7,-2.152,2.6096,-1.0244,2.7871,-13.8,19.56,32.64
0.70826,-10.828,-2.4789,2.3952,0.57269,2.5632,-13.02,21.0,32.22
0.58567,-9.902,-2.6423,2.3509,1.0931,2.4538,-12.3,22.5,31.74
1.58,-9.4389,-2.6832,2.2639,1.8891,2.2165,-11.4,24.06,31.26
2.2337,-9.7522,-2.6696,2.0974,2.5097,2.0088,-9.3,27.06,30.24
3.5685,-10.188,-2.8603,1.9548,2.474,1.9245,-8.16,28.56,29.88
4.127,-10.365,-2.9284,1.8314,2.1142,1.9114,-7.02,30.0,28.26
4.9033,-11.087,-3.2416,1.6616,1.2947,1.9868,-4.56,32.58,27.66
4.8216,-11.25,-3.0646,1.587,0.82772,1.9358,-3.3,33.9,26.88
4.2904,-11.291,-3.4187,1.5693,0.68295,1.8699,-1.98,34.86,26.16
4.0316,-10.746,-4.3313,1.4658,0.50824,1.6729,0.66,36.66,24.48
4.1814,-10.12,-5.0123,1.3928,0.47953,1.5336,1.68,37.2,23.52
4.4539,-10.42,-5.5026,1.3473,0.39767,1.398,2.7,37.74,22.56
5.1757,-11.264,-6.3743,1.2101,0.19517,1.1463,4.86,38.52,20.64
5.4209,-11.591,-6.3743,0.80359,-0.22083,0.89797,5.94,38.76,19.74
5.1485,-11.577,-5.9249,0.47342,-0.3094,0.62644,6.96,39.12,18.6
3.8001,-11.972,-4.7399,0.24771,-0.23579,0.33842,8.76,39.72,16.8
3.8818,-13.443,-4.9033,0.18265,-0.066584,0.061392,9.48,39.96,15.9
4.2632,-14.764,-5.775,-0.21228,0.16493,-0.21869,10.2,40.26,15.24
4.6854,-13.089,-5.38,-0.96272,0.45571,-0.6689,11.16,40.74,13.98
4.413,-11.7,-4.3449,-1.5601,0.83658,-0.94165,11.46,40.92,13.56
4.0861,-10.542,-2.8467,-1.4019,0.87629,-1.2785,11.52,41.1,13.2
4.9578,-12.326,-2.7922,-1.3436,0.562,-1.6365,11.46,41.04,13.5
6.1292,-13.593,-3.2825,-1.4658,-0.080023,-1.8915,11.28,41.1,13.86
6.9328,-14.778,-3.3097,-1.6527,-0.86376,-1.9807,11.1,40.92,14.22
6.1428,-15.527,-2.4789,-1.9172,-1.8848,-1.8647,10.32,40.38,15.42
5.1213,-14.519,-1.9477,-2.0156,-2.2688,-1.9044,9.78,40.02,16.26
4.5492,-13.702,-1.6617,-2.0724,-2.372,-2.106,9.3,39.48,17.22
2.9556,-11.713,-1.0351,-2.1609,-2.237,-2.2996,7.8,38.52,19.2
2.5334,-11.087,-0.6674,-2.2831,-1.8906,-2.4688,7.14,37.98,20.22
2.3155,-10.665,-0.50395,-2.3964,-1.4413,-2.6545,6.42,37.5,21.12
2.2882,-10.311,-0.36775,-2.4868,-0.89797,-2.8045,5.16,36.36,23.22
2.3155,-10.079,-0.31327,-2.5711,-0.68386,-2.8421,4.56,35.64,24.3
2.2882,-9.8339,-0.31327,-2.532,-0.53909,-2.8103,3.9,34.92,25.2
2.2201,-9.793,-0.28603,-2.4703,-0.46701,-2.7086,3.3,34.08,25.92
2.2474,-9.7385,-0.21793,-2.3741,-0.43646,-2.5476,2.22,32.22,27.36
2.1248,-9.7385,-0.068102,-2.2712,-0.38393,-2.3369,1.8,31.2,28.26
1.9613,-9.5615,-0.095342,-2.1389,-0.27275,-2.0937,1.38,30.36,28.92
1.6072,-9.0031,0.12258,-1.9655,0.0281,-1.7055,0.54,28.08,30.24
1.4574,-8.7715,0.23155,-1.8402,0.29749,-1.4642,0.54,27.12,30.72
1.3212,-8.5808,0.36775,-1.6967,0.60231,-1.2471,-0.36,26.1,31.08
1.3212,-8.2676,0.44947,-1.4872,0.8885,-1.0241,-1.38,24.0,31.98
1.3757,-8.3357,0.49033,-1.2071,1.051,-0.75167,-1.92,22.92,32.46
1.362,-8.1858,0.47671,-0.84941,1.0745,-0.37996,-2.88,20.34,33.18
1.5391,-8.9758,0.32689,-0.12156,0.89217,0.42516,-3.54,19.26,33.48
1.7979,-9.112,0.01362,0.45021,0.71257,1.0837,-3.96,18.3,33.9
1.9613,-8.4991,-0.21793,0.74373,0.60995,1.3824,-4.38,17.34,34.14
2.2882,-7.0962,-1.1169,1.6139,0.24038,2.0039,-5.28,16.26,34.44
2.2474,-7.8453,-1.5255,2.1457,-0.19395,2.2181,-5.7,15.96,34.38
2.2337,-9.1256,-1.9341,2.6066,-0.78282,2.3127,-5.88,15.72,34.38
2.3155,-12.381,-2.8194,3.0705,-1.8454,2.2831,-5.94,16.32,33.9
2.0839,-13.743,-2.9011,3.1521,-2.3488,2.2743,-5.88,16.74,33.54
1.6208,-14.574,-2.5879,3.1017,-2.4401,2.3109,-5.52,17.34,33.12
0.72188,-14.22,-1.7298,2.6481,-1.934,2.5501,-4.26,19.2,31.8
0.28603,-13.062,-1.6481,2.2181,-0.96639,2.5794,-3.6,20.28,31.14
-0.28603,-10.61,-2.6151,1.9074,1.0501,2.3711,-2.1,22.86,30.06
-0.16344,-9.8611,-2.9284,1.784,2.3576,2.2107,-1.26,24.12,29.58
0.89894,-9.3163,-2.7649,1.7095,2.8793,2.1506,-0.42,25.14,29.1
1.58,-9.1665,-2.3699,1.4926,3.8564,2.0137,0.54,26.22,28.5
3.2825,-9.2891,-1.7979,1.3668,4.0995,1.9526,2.28,28.2,27.54
4.2223,-9.5479,-1.7979,1.2364,3.9804,2.0076,3.12,29.1,27.18
5.2711,-9.9565,-2.0567,1.1332,3.4212,2.117,3.96,29.88,26.58
6.4833,-10.447,-2.4108,1.0727,2.4969,2.2043,5.16,30.84,25.74
6.565,-10.365,-2.7377,1.0641,1.4132,2.2596,5.88,31.32,25.44
6.4833,-10.406,-3.2553,1.1234,0.43738,2.2562,6.36,31.62,25.08
6.8102,-10.542,-4.3313,1.2086,-0.60415,1.9126,7.14,31.92,24.66
6.4152,-10.447,-4.5492,1.1536,-0.8604,1.5846,7.68,31.98,24.48
5.3119,-10.283,-4.5356,1.0495,-0.83689,1.233,8.28,31.98,24.06
4.0861,-10.256,-4.5492,0.91477,-0.59773,0.56841,9.54,32.1,22.98
3.5685,-10.801,-4.8488,0.75472,-0.32406,0.1179,10.26,32.28,22.32
3.4732,-11.128,-4.8761,0.65973,-0.17257,-0.071777,10.8,32.46,21.72
3.5277,-11.496,-4.9169,0.28497,0.29383,-0.42944,11.58,32.76,21.18
3.7047,-11.822,-4.5764,0.043066,0.56077,-0.56352,12.84,32.94,20.1
4.0452,-12.762,-4.7671,-0.000916,0.63438,-0.63835,13.26,33.18,19.56
4.7944,-13.607,-6.674,-0.25901,0.49877,-0.68447,14.34,33.6,18.78
4.7263,-10.992,-5.6661,-1.0107,0.3094,-0.78741,14.52,33.72,18.36
4.3858,-9.5479,-4.1678,-1.0553,0.22785,-0.84391,14.94,33.78,18.18
4.4947,-10.351,-3.2416,-0.77183,-0.32865,-1.1417,15.24,33.84,17.88
4.9033,-12.245,-3.6366,-0.76022,-0.9612,-1.3179,15.24,33.84,17.7
5.993,-13.743,-3.8546,-0.9725,-1.759,-1.3512,15.18,33.78,17.76
6.8374,-15.772,-3.4051,-1.2822,-2.8787,-1.2425,14.94,33.66,18.12
5.8431,-16.249,-2.7377,-1.5708,-3.3872,-1.2074,14.76,33.72,18.36
5.0804,-15.609,-2.2882,-1.9013,-3.4462,-1.296,14.7,33.66,18.78
2.5334,-13.198,-1.4029,-2.146,-3.0519,-1.5302,14.28,33.6,19.56
1.7706,-11.673,-1.3348,-2.328,-2.3433,-1.8439,14.1,33.42,19.92
1.5119,-10.992,-1.2258,-2.4994,-1.5079,-2.1609,13.98,33.36,20.4
1.757,-10.379,-0.84446,-2.6246,-0.75228,-2.4667,13.44,33.42,21.06
1.8251,-10.093,-0.70826,-2.7538,0.057116,-2.6237,13.26,33.36,21.54
2.0839,-9.9837,-0.70826,-2.7892,0.33323,-2.7355,13.02,33.42,21.9
2.5606,-9.5751,-0.47671,-2.7199,0.38759,-2.7669,12.0,33.18,22.68
2.7513,-9.5615,-0.49033,-2.609,0.27153,-2.6676,11.52,33.0,22.98
2.8603,-9.6704,-0.47671,-2.4679,0.04948,-2.522,10.92,32.64,23.46
2.4244,-9.7385,-0.14982,-2.3243,-0.15547,-2.3176,9.48,31.8,24.72
2.0975,-9.7113,-0.040861,-2.1389,-0.22388,-1.9997,8.58,31.2,25.44
1.6344,-9.5615,0.12258,-2.0287,-0.062614,-1.7761,7.74,30.66,26.1
1.4165,-9.3708,0.35413,-1.9212,0.23243,-1.5666,6.72,29.94,26.58
1.0624,-8.6353,0.44947,-1.7593,0.61239,-1.3378,4.68,28.26,27.66
1.1305,-8.2267,0.40861,-1.5278,0.97433,-1.0779,3.72,27.36,28.5
1.2803,-7.9134,0.31327,-1.222,1.201,-0.77702,2.7,26.28,29.28
1.4029,-7.355,0.081722,-0.57666,1.2089,-0.21044,0.66,24.24,30.42
1.4982,-7.8181,0.081722,-0.3207,1.1426,0.044899,-0.36,23.22,31.08
1.8251,-8.7034,-0.36775,0.20983,0.97677,0.66096,-1.2,22.32,31.62
2.4789,-7.8998,-1.1305,1.0287,0.53054,1.4627,-2.7,20.88,32.7
2.4789,-8.0224,-1.757,1.518,0.10385,1.8094,-3.36,20.52,33.06
2.547,-8.8668,-2.1929,1.9664,-0.40409,2.0559,-3.96,20.28,33.24
2.7649,-11.06,-2.8603,2.5064,-1.2828,2.2275,-4.56,20.22,33.06
2.6968,-12.381,-3.0101,2.7306,-1.9258,2.2602,-4.68,20.4,32.82
2.4925,-13.13,-2.9965,2.7981,-2.1936,2.2605,-4.62,20.7,32.7
1.3757,-14.165,-2.6696,2.6768,-2.4083,2.2578,-4.02,22.02,31.98
0.6674,-13.348,-2.152,2.3589,-1.9038,2.2813,-3.48,23.22,31.26
0.1362,-11.931,-2.0567,2.0067,-0.88239,2.2043,-2.88,24.18,30.48
-0.6674,-8.9486,-2.6423,1.7422,1.1588,1.989,-1.5,26.46,29.34
-0.50395,-8.3765,-2.7377,1.6591,2.3934,1.8879,-0.78,27.48,28.74
0.34051,-7.927,-2.6696,1.5577,3.2599,1.8567,-0.78,28.56,28.14
1.8387,-8.2539,-2.1656,1.4777,3.6744,1.8311,1.68,30.42,27.0
2.9284,-8.6898,-2.0839,1.3616,3.7336,1.8653,2.7,31.2,26.46
3.7456,-9.1937,-2.0567,1.2712,3.4554,2.0171,3.6,31.8,25.98
5.0531,-10.161,-2.9556,1.1777,2.4651,2.3491,5.22,32.94,25.08
5.3528,-10.42,-3.337,1.1585,1.6277,2.5391,5.94,33.42,24.78
5.2438,-10.515,-3.5413,1.1616,1.2266,2.6063,6.72,33.84,24.3
4.8488,-10.542,-3.8954,1.2239,0.34758,2.5446,7.92,34.32,23.7
4.7263,-10.706,-4.1406,1.2242,0.11942,2.3873,8.7,34.26,23.34
4.4947,-10.815,-4.2768,1.1906,0.12004,2.1512,9.36,34.32,23.1
5.1485,-11.605,-5.4073,1.1344,0.13744,1.668,10.98,34.02,22.38
5.7069,-12.163,-5.6661,0.90439,0.084605,1.2657,11.88,34.26,21.9
5.7886,-12.258,-5.5435,0.78252,0.046731,1.0812,12.72,34.32,21.36
5.4618,-12.0,-4.9578,0.35797,0.12065,0.5226,13.74,34.5,20.76
5.0531,-13.089,-4.304,0.33078,0.13683,0.11332,15.42,34.62,19.68
5.2983,-14.152,-5.1894,0.16463,0.18479,-0.22938,16.32,34.8,19.14
5.4209,-13.729,-5.6933,-0.43707,0.27581,-0.52107,17.04,34.92,18.6
4.5492,-9.8339,-3.8682,-0.89553,0.46212,-0.75411,18.36,35.1,17.76
4.6854,-9.5615,-2.9284,-0.87934,0.54489,-0.98624,18.72,35.22,17.4
5.2847,-10.992,-3.1599,-0.63499,0.029932,-1.4004,19.08,35.22,17.04
5.8023,-12.04,-3.514,-0.73182,-0.73884,-1.613,19.44,35.28,16.8
7.4776,-14.274,-3.8137,-0.9221,-1.6362,-1.6661,19.44,35.4,16.62
7.4776,-15.01,-3.4187,-1.1692,-2.7865,-1.5834,19.32,35.52,16.68
5.38,-14.683,-2.2201,-1.2831,-3.0644,-1.5983,18.78,35.64,17.04
4.0725,-13.239,-1.6753,-1.5547,-3.3219,-1.763,18.54,35.52,17.22
3.2825,-12.286,-1.6344,-1.8711,-2.9389,-2.1793,17.94,35.46,17.52
2.0294,-10.678,-1.2395,-2.065,-2.3772,-2.4786,16.74,35.7,18.3
1.8796,-10.583,-1.185,-2.2223,-1.7358,-2.7263,15.96,35.82,18.78
1.8524,-10.624,-0.81722,-2.3796,-1.2062,-2.8665,15.0,36.06,19.26
1.9886,-10.392,-0.8036,-2.5699,-0.67256,-2.9929,13.26,36.72,19.74
2.0839,-10.365,-0.7355,-2.6276,-0.47434,-3.0134,12.36,36.84,20.34
2.261,-10.447,-0.89894,-2.5644,-0.41508,-2.9428,11.34,36.84,20.88
2.3155,-10.692,-0.83084,-2.4792,-0.41569,-2.7752,9.48,36.72,22.2
2.0567,-10.665,-0.64016,-2.3934,-0.4102,-2.5638,8.46,36.48,22.8
1.8387,-10.147,-0.57205,-2.284,-0.31582,-2.3121,7.5,36.24,23.46
1.4165,-9.8884,-0.39499,-2.1185,-0.028405,-1.9221,5.28,35.34,24.9
1.1986,-9.7658,-0.35413,-2.0192,0.19731,-1.6585,4.2,34.8,25.86
1.1169,-9.7385,-0.24517,-1.9004,0.46395,-1.379,3.12,34.2,26.7
1.2122,-9.3844,-0.14982,-1.7367,0.72143,-1.0999,0.9,32.7,28.38
1.2258,-9.1529,-0.16344,-1.504,0.88392,-0.77672,-0.12,31.8,29.1
1.3212,-8.7715,-0.14982,-1.204,0.93615,-0.43158,-1.02,30.84,29.76
1.3076,-9.4525,-0.054481,-0.83078,0.92974,0.23915,-2.94,28.44,31.62
1.4438,-9.2891,-0.24517,-0.15485,0.93065,0.78038,-3.66,27.36,32.22
1.7025,-8.1177,-0.6674,0.33964,0.87659,1.1936,-4.26,26.64,32.82
2.1656,-6.7557,-1.3212,0.82711,0.66829,1.4358,-5.7,25.08,33.78
2.2337,-7.1915,-1.5391,1.2636,0.28772,1.5708,-6.36,24.54,34.14
2.2201,-8.8124,-1.7979,1.6558,-0.18021,1.6493,-6.78,24.0,34.44
2.2746,-9.8475,-1.8796,2.0207,-0.86163,1.7462,-7.14,23.76,34.56
1.58,-12.803,-1.7979,2.1194,-1.1102,1.8845,-7.44,23.88,34.32
1.4029,-13.171,-1.7979,2.1121,-1.04,2.1108,-7.44,24.06,34.08
1.185,-12.83,-1.6481,2.0696,-0.67592,2.3836,-7.02,25.08,33.12
1.362,-11.06,-2.1793,2.0528,-0.049175,2.6209,-6.3,26.64,32.22
1.3484,-10.474,-2.547,2.0983,0.6463,2.7742,-5.22,28.38,31.2
1.6208,-9.3436,-3.1463,2.1023,1.2694,2.7626,-4.8,29.4,30.72
2.0975,-8.9349,-2.8603,1.9914,1.752,2.5986,-3.72,31.2,29.52
2.4925,-8.717,-2.3836,1.8411,1.7782,2.4612,-2.22,33.06,28.5
2.8194,-8.6762,-2.1112,1.7074,1.6756,2.3659,-0.78,34.62,27.54
3.1872,-9.1256,-2.2201,1.6179,1.5391,2.3274,0.78,35.52,26.82
3.4596,-10.038,-2.7513,1.5556,1.4019,2.3469,2.46,36.48,26.1
3.7047,-10.951,-3.2144,1.4905,1.2587,2.4062,4.2,37.14,25.38
3.9227,-11.55,-3.4868,1.4355,1.1255,2.4569,6.06,37.5,24.54
4.0861,-11.536,-3.7456,1.3741,1.0434,2.4496,7.02,37.68,24.06
4.2904,-11.182,-3.9908,1.3134,1.0534,2.3558,9.18,38.1,22.92
4.4811,-10.774,-4.1951,1.2211,1.1118,2.1646,11.28,38.4,21.96
4.6854,-10.828,-4.2495,1.1322,1.095,1.8906,12.3,38.52,21.42
5.203,-11.4,-4.7535,1.0528,0.90469,1.5797,13.26,38.64,20.88
6.1019,-12.122,-5.094,0.81153,0.46212,1.0482,15.12,39.0,19.44
5.7342,-12.122,-4.7944,0.57788,0.23182,0.69394,16.02,39.24,18.9
5.4073,-12.19,-4.5356,0.4948,0.15608,0.52412,16.86,39.36,18.48
5.5435,-13.934,-5.2983,0.3766,0.036957,0.073304,18.0,39.42,17.52
5.7614,-13.852,-5.7342,-0.06353,0.069028,-0.20831,18.78,39.42,17.1
5.3256,-12.286,-5.2438,-0.81642,0.3149,-0.6634,19.74,39.54,16.38
4.2087,-8.8805,-3.1463,-0.86132,0.42761,-0.98807,20.04,39.48,16.14
4.4947,-9.3436,-2.7649,-0.68325,0.31124,-1.3531,20.22,39.66,15.84
5.0395,-10.787,-3.0237,-0.62889,-0.16341,-1.6047,20.28,39.66,15.84
6.565,-13.225,-3.6094,-0.75503,-0.90561,-1.7086,20.16,39.66,15.84
7.3686,-14.478,-3.8682,-0.91935,-1.6793,-1.7144,19.92,39.6,15.78
7.0009,-15.704,-2.7649,-1.2538,-2.605,-1.7107,19.38,39.78,16.14
5.0123,-14.492,-2.0975,-1.5204,-2.8998,-1.8751,18.9,39.84,16.44
3.5549,-12.572,-1.4846,-1.6127,-2.9163,-2.0177,18.6,39.72,16.8
2.9965,-11.959,-1.4029,-1.7636,-2.7263,-2.3558,18.0,39.66,17.28
2.3427,-11.182,-1.0488,-1.9893,-2.0394,-2.7333,16.5,39.78,18.18
2.3018,-11.005,-1.1032,-2.1408,-1.565,-2.9196,15.48,39.72,18.96
2.2065,-10.896,-0.91256,-2.3106,-1.0763,-3.1267,13.38,39.78,20.16
2.1929,-10.379,-0.72188,-2.3879,-0.84116,-3.2073,12.12,39.9,20.64
2.1248,-10.025,-0.64016,-2.3805,-0.73059,-3.2098,10.92,39.78,21.12
2.152,-9.9156,-0.55843,-2.3634,-0.6973,-3.1664,9.84,39.54,21.84
2.0158,-9.5479,-0.6674,-2.2584,-0.67928,-2.9383,7.5,38.82,23.1
1.9477,-9.3436,-0.57205,-2.1713,-0.67745,-2.6951,6.3,38.34,23.88
1.8387,-9.6023,-0.54481,-2.0595,-0.61911,-2.4025,5.22,37.8,24.6
1.4574,-9.7658,-0.23155,-1.9661,-0.48045,-1.9141,2.7,36.24,26.22
1.0215,-9.8611,0.054481,-1.8415,-0.089492,-1.5614,1.44,35.46,27.0
0.95342,-9.8611,0.068102,-1.7898,0.088881,-1.3806,0.18,34.5,27.78
0.8036,-9.6704,0.40861,-1.5351,0.6915,-0.78252,-0.84,33.48,28.44
1.1169,-8.8668,0.38137,-1.274,1.0012,-0.35125,-2.94,31.26,29.7
1.4029,-8.54,0.27241,-0.90622,1.1267,0.10171,-3.78,30.0,30.36
1.8251,-9.3163,0.054481,-0.44288,1.0739,0.63102,-5.16,27.42,31.98
2.2201,-9.4117,-0.25879,0.30543,0.95692,1.3607,-5.88,26.1,32.64
2.4789,-8.4582,-0.5993,0.75778,0.74434,1.5922,-6.6,25.14,33.0
2.547,-8.4174,-0.8036,1.1826,0.40959,1.7058,-7.02,24.18,33.48
2.5606,-10.488,-1.6344,1.5498,-0.025045,1.7404,-7.86,22.98,33.96
2.6968,-11.468,-1.866,1.8549,-0.57757,1.7361,-8.28,22.62,34.08
2.6423,-12.803,-2.1248,2.04,-1.1481,1.6952,-8.58,22.38,33.9
1.866,-14.301,-1.9477,2.0791,-1.6319,1.6722,-8.64,22.74,33.78
1.3757,-13.62,-1.6753,1.9053,-1.4154,1.7144,-8.34,23.16,33.42
0.9398,-12.721,-1.5119,1.7016,-0.82803,1.7184,-8.1,23.82,33.18
0.64016,-10.256,-1.7025,1.5806,0.031154,1.686,-7.8,24.6,32.64
0.28603,-7.4231,-2.4108,1.5601,0.92577,1.6383,-7.14,26.4,31.62
0.61292,-6.8238,-2.4517,1.5507,1.6536,1.587,-6.78,27.36,31.08
1.6072,-6.7012,-2.0294,1.4957,2.3085,1.5867,-6.0,29.46,30.06
2.1929,-6.9328,-1.8932,1.4368,2.4673,1.6188,-5.58,30.48,29.76
2.4517,-7.1779,-1.9341,1.3909,2.3808,1.7391,-5.04,31.56,29.28
3.1872,-8.4446,-2.0839,1.3442,2.1255,1.9456,-3.96,33.18,28.56
3.5685,-9.3708,-2.4108,1.3674,1.711,2.2104,-3.3,33.9,28.02
3.7047,-10.283,-2.6696,1.3824,1.2966,2.4911,-2.64,34.5,27.72
4.0861,-11.414,-3.6503,1.4829,0.77152,2.8866,-1.08,35.82,26.34
4.2904,-11.822,-4.1814,1.5873,0.45907,3.0198,-0.42,36.36,25.92
4.522,-11.986,-4.4402,1.6157,0.27153,2.9844,0.42,36.78,25.32
4.6173,-12.19,-5.2438,1.5437,0.2364,2.8136,2.52,37.5,24.18
4.8352,-12.245,-5.6388,1.3717,0.22755,2.4807,3.66,37.74,23.64
5.7069,-12.408,-6.3471,1.1167,0.070555,1.9905,4.86,37.98,22.86
6.5241,-12.463,-5.38,0.83994,-0.091019,1.408,7.68,38.52,21.42
5.6116,-12.64,-4.8625,0.51801,-0.38301,0.67684,9.06,38.64,20.58
5.0531,-13.375,-4.8625,0.33628,-0.40134,0.18387,10.32,38.88,19.8
4.8625,-13.906,-5.7614,-0.19303,-0.18204,-0.30879,12.84,39.24,18.18
4.4402,-11.809,-5.0123,-0.89614,0.18662,-0.66279,13.86,39.48,17.7
3.9771,-10.174,-3.9771,-1.1848,0.55589,-0.8769,14.76,39.66,17.22
4.2768,-11.046,-3.3097,-1.0742,0.73976,-1.252,15.84,39.66,16.86
5.1757,-12.735,-3.7047,-1.091,0.64019,-1.3778,16.2,39.6,16.62
6.0066,-13.838,-3.8682,-1.2468,0.25473,-1.5821,16.38,39.48,16.74
7.8181,-16.058,-3.5958,-1.639,-0.58002,-1.62,16.14,39.36,17.22
7.4776,-16.344,-2.8603,-1.8482,-1.1008,-1.5766,15.66,39.18,17.7
6.5105,-15.786,-2.1384,-1.9758,-1.4731,-1.7373,15.06,39.12,18.3
4.1542,-13.089,-1.1713,-2.0818,-1.551,-2.2862,13.74,38.64,19.86
3.5685,-12.231,-1.0488,-2.1105,-1.4529,-2.481,12.78,38.34,20.82
2.8875,-10.992,-0.88532,-2.1554,-1.1561,-2.864,11.64,37.92,21.66
2.8875,-10.46,-0.68102,-2.2428,-0.66004,-3.3204,9.06,37.26,23.7
2.8058,-10.161,-0.38137,-2.2935,-0.4499,-3.5088,7.68,36.96,24.66
2.7377,-9.902,-0.34051,-2.2987,-0.40867,-3.6545,6.36,36.72,25.74
2.7649,-9.9292,-0.24517,-2.2083,-0.61209,-3.6896,3.78,35.46,27.54
2.7377,-10.052,-0.39499,-2.1038,-0.84269,-3.5733,2.58,34.68,28.56
2.6968,-10.174,-0.49033,-2.0247,-0.96761,-3.4734,1.26,33.84,29.28
2.1793,-9.8611,-0.44947,-1.7944,-1.2614,-3.0983,-1.08,31.8,30.72
1.8796,-9.6977,-0.36775,-1.6606,-1.2926,-2.7547,-1.92,30.72,31.5
1.6753,-9.5342,-0.19068,-1.5528,-1.1875,-2.3983,-2.88,29.58,32.34
0.98067,-9.0848,0.01362,-1.4688,-0.97708,-2.032,-4.62,27.12,33.48
0.74912,-8.8941,0.027241,-1.3042,-0.51221,-1.4514,-5.28,26.04,34.02
0.64016,-8.6081,-0.12258,-1.1228,-0.23243,-1.0391,-5.82,24.84,34.62
0.44947,-7.9679,-0.068102,-0.84941,0.010996,-0.59804,-6.48,22.26,35.58
0.46309,-7.4912,-0.068102,-0.4948,0.22449,-0.15516,-6.72,20.7,36.0
0.40861,-7.8317,-0.12258,-0.053451,0.39645,0.35247,-6.9,19.38,36.48
0.78998,-9.1937,-0.29965,0.41966,0.58185,0.967,-7.14,17.28,37.32
1.3212,-8.4174,-0.58567,1.1087,0.83444,1.7611,-7.2,16.56,37.5
1.5527,-8.0769,-0.88532,1.5302,0.78954,2.025,-7.2,15.9,37.62
1.6481,-8.826,-1.2803,1.9254,0.5455,2.2101,-7.08,15.54,37.8
1.8932,-10.529,-1.7843,2.2422,0.20403,2.335,-7.08,15.24,37.74
2.0839,-12.286,-2.0022,2.456,-0.30238,2.4401,-6.96,15.42,37.5
2.0294,-14.533,-2.0839,2.5659,-0.77702,2.5632,-6.6,16.5,36.96
1.7298,-15.078,-1.9068,2.4877,-0.98746,2.8561,-6.42,17.28,36.48
1.757,-14.519,-1.7843,2.3311,-0.68234,3.072,-6.0,18.3,36.0
1.757,-13.688,-1.8524,2.2397,-0.39615,3.164,-5.76,19.5,35.4
1.4029,-11.414,-2.9148,2.084,0.80543,3.2367,-4.74,22.26,34.44
1.3212,-10.46,-3.2416,1.9771,1.671,3.1072,-4.14,23.58,33.84
1.7298,-9.9156,-2.9965,1.8057,2.2666,2.8622,-3.6,24.78,33.3
2.656,-9.2755,-2.0294,1.5824,2.6395,2.6157,-2.04,27.06,32.22
3.0918,-9.1937,-1.8932,1.3176,2.8485,2.3246,-1.26,28.26,31.98
3.623,-9.2891,-1.8387,1.1894,2.8188,2.1704,-0.36,29.16,31.38
4.4947,-9.8066,-2.2201,1.0953,2.6114,2.0898,1.26,30.9,30.42
4.9306,-10.243,-2.7377,1.0305,2.2165,2.0482,2.22,31.74,29.82
5.2983,-10.624,-3.0237,0.98563,1.7184,2.0198,2.94,32.28,29.4
5.4481,-10.351,-3.5413,0.97647,1.0162,1.9746,4.44,33.18,28.5
5.2847,-10.188,-3.8001,0.97189,0.66493,1.8589,5.04,33.36,28.02
5.2166,-10.174,-3.9635,0.97677,0.53542,1.7675,5.76,33.42,27.6
5.775,-10.842,-4.8216,0.93951,0.20464,1.4734,6.9,33.78,26.94
6.1836,-11.319,-5.0804,0.84971,-0.022297,1.2242,7.5,33.78,26.4
6.3062,-11.782,-5.1076,0.72296,-0.22388,0.95387,8.28,33.96,25.8
6.1564,-12.217,-4.6582,0.5342,-0.27,0.46945,9.36,34.44,24.66
5.993,-12.544,-4.5492,0.33262,-0.28619,0.081551,10.02,34.62,24.0
6.0202,-13.593,-4.8625,0.28497,-0.28588,-0.10354,10.56,34.86,23.58
5.3937,-12.408,-5.4345,-0.44288,-0.20922,-0.73548,11.52,35.1,22.86
4.7671,-10.379,-4.4811,-0.81642,-0.050702,-1.1319,11.82,35.16,22.56
4.3585,-9.2618,-3.1327,-0.75839,0.000305,-1.4468,12.36,35.34,22.26
5.2575,-11.836,-3.5413,-0.57757,-0.65149,-1.8167,12.84,35.34,21.66
6.5241,-13.988,-4.127,-0.77702,-1.5394,-1.8949,12.96,35.4,21.54
7.1234,-14.86,-4.1951,-0.90652,-2.0265,-1.872,13.14,35.46,21.36
7.4776,-17.039,-3.228,-1.2898,-3.2464,-1.6719,13.44,35.34,21.24
6.5378,-16.862,-2.438,-1.6011,-3.7843,-1.5944,13.5,35.4,21.24
5.094,-15.541,-1.757,-1.9297,-3.8943,-1.7153,13.38,35.34,21.36
2.1929,-12.721,-0.96704,-2.2251,-3.5326,-2.1414,13.14,35.16,21.66
1.6344,-12.136,-0.9398,-2.5788,-2.3534,-2.5372,12.78,34.98,22.02
1.2531,-11.577,-0.85808,-2.7718,-1.3897,-2.8479,12.36,34.92,22.32
1.5391,-11.346,-0.54481,-2.9404,-0.56963,-3.0195,11.58,34.92,22.8
1.7706,-11.264,-0.42223,-3.0604,0.029627,-3.171,11.1,34.86,23.16
2.1656,-11.019,-0.31327,-3.0806,0.36316,-3.3023,10.38,34.74,23.58
2.6832,-10.924,-0.42223,-2.9007,0.39554,-3.2971,8.82,34.32,24.9
2.8194,-11.06,-0.32689,-2.7495,0.19242,-3.1606,7.98,33.84,25.56
2.8058,-11.128,-0.29965,-2.5806,-0.048564,-2.9578,6.96,33.3,26.4
2.2201,-10.733,0.081722,-2.4419,-0.19609,-2.7376,4.8,31.86,27.84
1.8524,-10.311,0.29965,-2.324,-0.15974,-2.5039,3.66,30.9,28.8
1.58,-9.793,0.57205,-2.2086,-0.0088575,-2.2694,2.52,29.88,29.58
1.2531,-9.1801,0.57205,-2.0556,0.28558,-1.8754,-0.06,27.42,31.2
1.185,-8.7987,0.50395,-1.6826,0.37141,-1.5275,-1.2,26.22,31.98
1.2395,-8.4719,0.49033,-1.5134,0.37813,-1.3531,-2.34,24.84,32.82
1.185,-7.6138,0.36775,-1.1234,0.31796,-0.95936,-3.54,23.4,33.54
0.8036,-7.7636,0.50395,-0.36285,0.19212,-0.23732,-5.7,20.46,34.98
0.70826,-8.2267,0.57205,0.20342,0.21197,0.38271,-6.54,19.08,35.64
0.46309,-8.1858,0.21793,1.0611,0.35583,1.3295,-7.92,16.5,36.66
1.0624,-7.5321,-0.17706,1.6118,0.47983,1.7116,-8.46,15.48,37.02
1.1169,-8.2539,-0.6674,2.1356,0.33995,2.0088,-8.94,14.7,37.2
1.4438,-8.9758,-1.2395,2.5907,0.000305,2.2229,-9.3,14.34,37.26
2.0158,-12.136,-1.866,2.9609,-0.61361,2.3628,-9.9,14.1,37.2
1.8932,-13.688,-2.0839,3.1896,-1.2401,2.4862,-10.08,14.34,36.96
1.4438,-14.669,-2.152,3.2422,-1.5931,2.6301,-9.9,14.88,36.78
1.0215,-14.519,-1.7706,3.1148,-1.5693,2.7996,-9.24,16.8,36.0
0.7355,-12.994,-1.7162,2.8524,-1.08,2.9737,-8.76,18.12,35.4
0.53119,-12.313,-1.8932,2.4957,0.27397,3.0931,-8.16,19.38,34.68
0.027241,-10.774,-2.9011,2.3613,1.3861,2.9969,-6.84,22.44,33.72
0.38137,-10.542,-2.9965,2.2211,2.3668,2.8457,-6.12,23.94,33.24
1.0215,-10.474,-2.6151,2.0256,3.087,2.7184,-5.22,25.62,32.64
2.438,-10.869,-1.8387,1.7315,3.7819,2.6759,-3.24,28.56,31.32
3.1463,-11.441,-1.7434,1.5324,3.9685,2.686,-2.1,29.82,30.66
3.7456,-11.741,-1.8387,1.3479,3.8543,2.7819,-0.96,30.9,30.0
5.3119,-12.885,-2.5742,1.2147,3.4523,2.8665,1.02,33.18,28.38
6.0202,-12.871,-3.0646,1.1173,2.7828,2.9037,1.98,33.96,27.66
6.5922,-12.449,-3.5685,1.0965,2.0036,2.8842,2.88,34.8,27.0
7.4503,-11.7,-4.5356,1.0809,0.91844,2.6133,4.92,36.0,25.74
7.5729,-11.332,-4.6582,0.99571,0.45479,2.2049,5.88,36.18,25.2
7.246,-10.869,-4.5901,0.94073,0.25901,2.0152,6.78,36.3,24.78
6.3335,-10.447,-4.7263,0.84788,-0.19456,1.4019,8.64,36.72,23.52
6.1836,-10.678,-4.7399,0.77946,-0.42822,0.88087,9.54,36.96,22.68
5.8567,-10.937,-4.7126,0.65271,-0.40836,0.3937,10.38,37.02,22.02
5.5299,-11.073,-4.4811,0.42761,-0.22266,-0.12187,11.1,37.2,21.18
5.9657,-13.293,-5.5299,0.32895,-0.09499,-0.25748,12.36,37.68,19.98
6.456,-13.579,-6.456,-0.30238,0.026267,-0.61697,12.9,37.86,19.62
6.0611,-12.027,-5.8295,-0.95234,0.094379,-0.87445,13.44,37.86,19.2
4.7671,-8.826,-3.2825,-1.022,0.1066,-1.1637,14.34,38.22,18.72
5.3528,-10.256,-3.2144,-0.78954,-0.12675,-1.5351,14.58,38.16,18.54
6.9872,-14.029,-3.9499,-0.85185,-1.1487,-1.9181,14.46,38.04,18.42
8.1586,-16.249,-3.9363,-1.0131,-1.5565,-1.9609,14.28,37.98,18.36
8.0632,-17.38,-3.2416,-1.4813,-2.5879,-2.0128,14.04,38.1,18.66
7.3141,-17.87,-2.6423,-1.887,-3.0052,-2.1023,14.04,37.92,18.72
4.2359,-16.413,-1.3893,-2.2706,-3.0131,-2.3192,13.26,37.38,19.62
3.0101,-14.846,-1.1713,-2.5116,-2.6707,-2.7446,12.78,37.02,20.16
2.3427,-13.743,-1.0215,-2.6854,-1.7798,-3.2871,11.46,36.66,21.72
2.1929,-13.144,-0.78998,-2.8286,-1.2004,-3.4725,10.56,36.36,22.38
2.2474,-13.021,-0.70826,-2.8784,-0.93921,-3.561,9.78,36.0,22.86
2.3291,-12.653,-0.58567,-2.9111,-0.3708,-3.7626,8.76,35.64,23.52
2.5742,-12.204,-0.42223,-2.8631,-0.23885,-3.7953,6.78,34.5,24.9
2.6287,-11.931,-0.24517,-2.7825,-0.28039,-3.7806,5.76,33.78,25.68
2.5061,-11.85,-0.14982,-2.62,-0.50244,-3.6047,3.9,31.92,27.06
2.1656,-11.523,-0.081722,-2.5143,-0.61209,-3.4227,3.0,30.9,27.9
1.9341,-11.087,0.095342,-2.4007,-0.62094,-3.1976,2.04,29.58,28.5
1.7706,-10.787,0.081722,-2.3421,-0.58582,-3.0714,1.02,28.14,29.16
1.4438,-10.025,0.29965,-2.1841,-0.36072,-2.6475,-0.18,26.7,29.7
0.99429,-9.0303,0.50395,-2.0192,-0.16157,-2.3589,-2.22,23.88,30.54
0.89894,-8.6081,0.36775,-1.8063,0.034208,-1.8277,-3.06,22.14,30.84
0.76274,-8.036,0.23155,-1.3656,0.19151,-1.3989,-4.44,18.6,31.92
0.69464,-7.3958,0.24517,-0.99174,0.19609,-0.93035,-5.1,16.98,32.52
0.57205,-6.6604,0.19068,-0.76847,0.19364,-0.67531,-5.46,15.24,33.06
0.36775,-7.0962,0.24517,0.020464,0.20495,0.19364,-6.18,12.06,33.66
0.51757,-7.5457,0.24517,0.5962,0.29383,0.91721,-6.54,10.86,33.84
0.92618,-7.2188,-0.27241,1.1475,0.38576,1.5461,-7.08,9.84,34.14
1.2939,-7.8726,-1.1577,1.6698,0.35003,2.1344,-7.56,8.1,34.2
1.471,-9.0984,-1.7434,2.3595,0.10385,2.4328,-7.56,7.68,34.26
1.7298,-10.311,-2.0294,2.7345,-0.32254,2.7272,-7.62,7.74,34.38
2.2474,-13.934,-2.7649,2.9871,-0.90561,3.0333,-7.38,8.1,34.32
2.1929,-15.214,-2.7377,3.1035,-1.4138,3.3008,-7.14,8.64,34.2
1.3757,-15.718,-2.1248,2.9358,-1.5366,3.6117,-6.6,10.56,33.66
0.9398,-14.71,-1.757,2.7883,-1.314,3.7006,-6.0,11.76,33.24
0.62654,-13.375,-1.6344,2.2614,0.11484,3.7935,-5.46,12.96,32.7
0.14982,-12.027,-1.8115,2.0174,1.4905,3.624,-4.86,14.52,32.16
-0.14982,-10.188,-2.0975,1.8613,2.9111,3.3167,-3.6,17.52,31.56
0.81722,-10.011,-1.6617,1.6988,4.0668,3.0717,-2.82,18.78,31.32
1.8796,-10.379,-0.99429,1.511,4.8649,2.9734,-2.04,20.1,31.08
3.6094,-11.659,-0.35413,1.3436,5.2904,2.8207,-0.78,22.32,30.66
4.6037,-12.367,-0.39499,1.1002,5.0619,2.8769,-0.36,23.4,30.24
5.9249,-13.062,-0.7355,1.0397,4.729,2.9596,0.18,24.24,29.76
8.2403,-13.539,-1.9886,1.004,3.0598,3.207,0.78,25.8,28.86
8.8805,-13.089,-2.6968,1.0849,1.573,3.321,1.14,26.46,28.38
9.3163,-12.544,-3.1735,1.2288,0.18601,3.2309,1.44,26.94,28.02
8.6489,-11.223,-3.8954,1.3573,-1.2254,2.682,2.22,27.48,27.3
7.9815,-10.828,-4.0589,1.3552,-1.5941,2.2349,2.58,27.72,26.82
6.7012,-10.351,-4.5901,1.3717,-1.6805,1.9914,3.06,27.96,26.52
5.6116,-10.392,-5.094,1.3323,-1.6585,1.1652,4.2,28.5,25.5
5.1349,-10.924,-5.4345,1.1924,-1.3732,0.62339,4.86,28.8,24.84
4.7944,-11.237,-5.38,0.88575,-0.87506,0.22205,5.64,29.1,24.06
4.8216,-12.204,-5.5162,0.47312,-0.12889,-0.1854,7.02,29.88,22.62
5.5707,-13.198,-6.3198,0.13317,0.16188,-0.44593,7.8,30.24,22.08
5.7342,-13.116,-6.4016,-0.17807,0.23915,-0.5962,8.58,30.6,21.48
5.2983,-11.21,-5.38,-0.8094,0.33139,-0.91202,9.48,30.9,21.0
4.6718,-9.4253,-3.7047,-1.0226,0.38698,-1.3815,10.92,31.32,20.4
5.38,-10.351,-3.7592,-0.8546,0.072693,-1.7425,11.46,31.68,19.98
6.3335,-12.653,-4.3177,-0.91263,-0.63011,-2.0388,11.94,31.86,19.98
8.2267,-15.663,-4.3449,-1.1267,-1.5595,-2.1744,12.06,32.04,19.74
8.0224,-16.985,-3.4868,-1.4801,-2.9154,-2.1655,12.18,31.92,19.86
7.5048,-17.557,-2.833,-1.6435,-3.3045,-2.1408,12.0,31.74,19.86
4.7126,-16.767,-1.471,-2.3222,-3.8979,-2.2471,11.76,31.44,20.22
3.2008,-15.146,-1.0624,-2.6762,-3.7055,-2.4978,11.52,31.26,20.64
2.0431,-14.097,-0.68102,-2.8937,-3.0656,-2.9325,11.04,30.9,21.54
1.185,-13.416,-0.58567,-3.2113,-1.6616,-3.1765,10.56,30.66,22.08
1.2122,-13.334,-0.53119,-3.3121,-1.1894,-3.2745,10.08,30.3,22.62
1.3076,-12.817,-0.21793,-3.448,-0.31979,-3.4086,9.48,30.06,23.16
1.8115,-12.054,-0.081722,-3.4129,0.59223,-3.5595,8.1,29.28,23.88
1.8115,-12.054,-0.081722,-3.3295,0.76419,-3.5772,8.1,29.28,23.88
2.8058,-11.414,0.23155,-2.7345,0.74556,-3.3005,6.0,26.88,25.2
2.8058,-11.414,0.23155,-2.7345,0.74556,-3.3005,6.0,26.88,25.2
2.7104,-10.883,0.31327,-2.456,0.45051,-3.0821,4.44,24.9,26.16
2.5742,-10.488,0.34051,-2.2019,0.15272,-2.8396,3.6,23.88,26.7
2.0567,-8.9213,0.6674,-1.8876,-0.092852,-2.4633,1.68,21.6,27.84
1.5936,-8.3629,0.77636,-1.675,-0.135,-2.2101,0.78,20.46,28.14
1.4438,-7.5184,0.51757,-1.4594,-0.14783,-1.9447,-1.26,17.76,28.74
1.3212,-7.1234,0.50395,-1.1845,-0.23335,-1.6328,-1.86,16.26,28.92
0.96704,-6.96,0.49033,-0.83078,-0.32681,-1.2651,-2.58,14.82,29.28
0.31327,-7.0281,0.5993,-0.41264,-0.42364,-0.79901,-3.72,12.06,29.88
0.31327,-7.5184,0.6674,0.3375,-0.36377,0.1408,-4.14,10.68,30.06
0.095342,-7.7091,0.61292,0.90011,-0.17165,0.88148,-4.5,9.66,30.48
0.6674,-7.3141,-0.054481,1.4688,0.10079,1.5653,-4.86,8.22,30.84
0.99429,-7.8317,-0.23155,2.0067,0.43585,2.2196,-4.98,7.74,30.96
1.4165,-9.9973,-0.98067,2.4819,0.41294,2.3989,-4.86,7.5,30.96
1.7298,-12.217,-1.5255,3.0519,-0.022602,2.7913,-4.98,7.38,30.84
1.7706,-13.811,-1.866,3.2883,-0.52046,2.9633,-4.74,7.56,30.66
1.7298,-14.642,-1.975,3.3842,-0.87904,3.1429,-4.56,8.04,30.6
1.6889,-16.181,-1.7706,3.3256,-0.94348,3.3503,-3.72,9.66,30.3
1.7298,-15.854,-1.471,3.1008,-0.68295,3.5687,-3.36,10.86,30.0
1.4846,-13.634,-1.7162,2.8292,-0.09499,3.6719,-2.46,13.32,29.1
1.185,-12.817,-2.3155,2.6389,0.70952,3.6117,-1.86,14.7,28.8
1.1577,-12.326,-2.6696,2.4905,1.963,3.2907,-1.26,16.02,28.74
2.152,-11.441,-2.7649,2.3702,2.5268,3.0326,0.18,18.6,28.08
2.9011,-11.346,-2.5198,2.2257,2.8366,2.8552,0.9,19.8,27.6
3.6094,-11.346,-2.4517,2.0601,2.9343,2.6789,1.56,20.82,27.18
4.9033,-12.013,-2.6968,1.8323,2.5885,2.5052,3.12,22.74,26.22
5.6116,-12.258,-3.0646,1.6704,2.0351,2.4083,3.9,23.52,25.68
6.2245,-12.258,-3.5549,1.5837,1.69,2.3341,4.62,24.36,25.26
6.6467,-11.972,-4.0589,1.3714,0.73365,1.9868,5.52,24.96,24.84
5.5435,-10.569,-4.3585,1.2452,0.32865,1.7202,7.02,25.98,23.82
5.094,-9.9429,-4.4539,1.1304,0.14844,1.2474,7.68,26.28,23.34
4.413,-9.7385,-4.8625,1.1029,0.14966,1.0825,9.06,26.88,22.68
4.3177,-10.011,-5.4481,1.036,0.20159,0.76816,9.9,27.0,22.08
4.4539,-10.215,-5.7342,0.8656,0.24618,0.56322,10.62,27.24,21.36
5.1621,-11.237,-5.993,0.56077,0.18509,0.37385,12.0,27.66,20.4
5.38,-11.795,-5.7342,0.37843,0.1408,0.24862,12.42,27.84,19.98
5.7205,-13.007,-5.8159,0.2138,0.0030543,0.12339,12.78,28.02,19.5
6.6195,-14.737,-6.0338,-0.069333,-0.2416,-0.032376,13.62,28.38,19.02
5.8159,-14.015,-5.203,-0.67501,-0.39981,-0.32406,14.04,28.56,18.9
4.9033,-12.967,-4.5356,-1.4294,-0.16493,-0.94409,14.46,28.56,18.72
3.7728,-11.196,-3.4187,-1.3757,-0.027489,-1.4282,15.06,28.5,18.6
4.4811,-12.381,-3.6911,-1.2556,-0.15974,-1.8286,15.24,28.56,18.72
5.5435,-13.974,-4.0725,-1.5696,-0.92668,-2.0669,15.6,28.14,19.02
7.246,-16.276,-3.5413,-1.8308,-1.6136,-2.084,15.84,28.08,19.32
6.6876,-16.862,-2.4244,-2.0528,-2.3305,-2.032,15.96,27.78,19.62
5.993,-16.699,-2.0158,-2.157,-2.6292,-2.025,16.02,27.72,20.04
3.8273,-14.901,-1.076,-2.4102,-3.1117,-2.2419,15.96,27.3,20.7
3.1327,-13.416,-0.8717,-2.5507,-3.0149,-2.4089,15.96,27.18,21.06
2.4517,-12.762,-0.68102,-2.6753,-2.5867,-2.5522,16.02,27.18,21.48
1.8387,-12.367,-0.47671,-2.8738,-1.5916,-2.7275,15.9,27.06,21.84
1.8387,-11.959,-0.35413,-2.9267,-1.2627,-2.7584,15.54,27.12,22.02
2.0975,-11.591,-0.21793,-2.9972,-0.71654,-2.7947,15.06,27.12,22.08
2.3836,-11.278,-0.095342,-2.978,-0.24282,-2.799,13.86,27.12,22.44
2.547,-11.182,-0.081722,-2.9077,-0.14386,-2.7544,13.2,26.88,22.62
2.5606,-10.992,-0.081722,-2.8017,-0.16066,-2.6649,12.42,26.7,22.92
2.547,-10.815,0.095342,-2.6249,-0.26389,-2.4615,10.38,26.04,23.58
2.438,-10.515,0.16344,-2.5644,-0.28375,-2.3882,9.18,25.68,24.0
2.152,-10.215,0.28603,-2.4416,-0.2474,-2.2367,7.98,24.9,24.48
1.9068,-9.8748,0.43585,-2.2843,0.015577,-2.0617,6.84,24.3,24.96
1.4301,-9.0984,0.65378,-2.1402,0.2865,-1.9624,4.26,22.62,26.04
1.2803,-8.826,0.64016,-1.9539,0.58704,-1.8176,3.06,21.48,26.34
1.185,-8.4582,0.65378,-1.6927,0.79168,-1.5892,1.8,20.28,27.12
1.1713,-7.6546,0.61292,-1.142,0.82528,-1.069,-0.6,17.52,28.5
1.0351,-7.7227,0.64016,-0.62553,0.72662,-0.551,-1.56,16.2,29.28
0.99429,-8.1858,0.47671,-0.035736,0.61606,0.14813,-2.58,14.82,29.88
1.7434,-6.3607,-0.24517,0.55894,0.53451,0.77305,-4.38,12.42,31.32
1.6753,-5.9249,-0.47671,1.1664,0.44104,1.1836,-5.22,11.28,31.74
1.3757,-6.8647,-0.68102,1.9465,0.028405,1.6884,-5.82,10.32,32.04
1.6344,-10.038,-1.3484,2.1896,-0.13561,1.8384,-6.36,9.6,32.34
1.6753,-11.577,-1.6072,2.7602,-0.7871,2.1835,-7.08,8.76,32.64
1.3484,-13.184,-1.8387,3.0061,-1.15,2.4044,-7.2,8.52,32.76
1.1441,-13.757,-1.8796,3.1328,-1.193,2.6948,-7.26,8.64,32.52
1.0488,-13.28,-1.5255,3.1249,-0.85521,3.0082,-6.96,9.84,32.4
0.9398,-12.667,-1.5391,3.0501,-0.21319,3.2568,-6.84,10.8,31.98
0.88532,-11.891,-2.3563,2.9792,0.58338,3.3992,-6.54,12.0,31.44
0.9398,-11.046,-2.7377,2.9557,1.4077,3.4389,-5.88,14.76,30.78
1.4165,-11.128,-2.7513,2.9205,2.0302,3.4068,-5.46,16.14,30.48
1.6889,-11.278,-2.3427,2.6924,2.2739,3.3347,-4.5,18.84,29.34
0.92618,-12.708,-3.1463,2.0751,4.0183,3.3839,-3.66,20.16,28.86
4.3721,-12.435,-2.1384,2.0143,2.9227,3.1731,-3.0,21.6,28.32
6.7148,-13.062,-2.5061,1.9181,1.7556,3.1597,-1.26,24.18,27.06
5.5162,-13.416,-3.2961,1.8005,1.1863,3.4486,-0.54,25.44,26.4
5.3528,-13.484,-3.8682,1.7254,1.1209,3.1997,0.18,26.58,25.5
6.3335,-12.83,-4.7944,1.5482,1.1289,2.5296,1.92,28.38,24.0
6.0611,-11.904,-4.5901,1.412,1.0101,2.2492,2.7,29.16,23.34
5.6252,-11.06,-4.522,1.2394,0.64294,1.719,3.66,29.58,22.74
5.5435,-10.937,-5.1757,1.2263,0.26176,1.0201,5.28,30.18,21.24
6.1292,-11.591,-5.38,1.0763,-0.075136,0.64477,6.18,30.48,20.28
6.1564,-11.686,-5.4073,0.83169,-0.34361,0.47312,7.02,30.66,19.5
5.9249,-11.673,-5.4345,0.55222,-0.37507,0.3375,7.92,31.14,18.66
5.6661,-12.776,-5.4209,0.43768,-0.39431,0.13867,9.36,31.8,17.4
6.1564,-13.92,-6.3607,0.24496,-0.53695,-0.14294,9.96,31.98,16.74
5.0804,-11.959,-5.2847,-0.37018,-0.49694,-0.27886,10.92,32.4,15.72
4.1542,-9.8203,-4.1542,-0.96333,-0.22755,-0.58307,11.4,32.46,15.36
4.127,-9.1937,-3.7728,-0.93768,-0.077274,-1.1457,11.7,32.58,15.24
5.2711,-10.651,-4.2495,-0.85124,-0.49908,-1.482,11.94,32.58,15.18
7.4095,-14.124,-4.6582,-1.0586,-1.3076,-1.6582,11.94,32.52,15.18
8.1586,-16.113,-3.7184,-1.3564,-2.1689,-1.6701,11.88,32.46,15.24
6.7557,-17.584,-2.0839,-1.6612,-2.9099,-1.6738,11.76,32.34,15.78
5.2847,-17.543,-1.4846,-2.1426,-3.3775,-1.7859,11.76,32.22,16.26
3.7047,-16.249,-1.1169,-2.6762,-3.3949,-1.9786,11.52,32.1,16.74
1.8251,-13.375,-0.76274,-3.0354,-2.5366,-2.4447,11.1,31.5,17.7
1.4165,-12.503,-1.2122,-3.1157,-1.7031,-2.7632,10.62,31.14,18.24
1.5255,-12.122,-0.96704,-3.2098,-0.84208,-2.9957,10.32,30.9,18.9
1.9477,-11.577,-0.47671,-3.2174,0.14813,-3.1869,9.06,30.42,20.28
2.3836,-11.278,-0.38137,-3.1029,0.45143,-3.2626,8.22,30.0,20.88
2.6423,-11.332,-0.31327,-3.0366,0.47342,-3.2739,7.32,29.58,21.42
2.9556,-11.482,-0.17706,-2.8277,0.1741,-3.1359,6.3,29.22,21.84
3.1872,-11.645,-0.21793,-2.6817,-0.22388,-2.9404,4.02,27.84,22.74
2.9284,-11.741,-0.14982,-2.562,-0.61514,-2.7022,2.94,27.18,23.52
2.2474,-11.25,0.12258,-2.4868,-0.82009,-2.438,1.8,26.28,24.12
1.6753,-10.665,0.39499,-2.3983,-0.75839,-2.1005,-0.36,24.24,25.56
1.4029,-10.46,0.50395,-2.3292,-0.50091,-1.8943,-1.38,23.22,26.16
1.2531,-10.447,0.53119,-2.2797,-0.34941,-1.7862,-2.52,22.08,26.76
1.2531,-9.8066,0.69464,-2.0116,0.0094684,-1.4789,-4.44,19.86,27.9
1.1305,-9.4253,0.78998,-1.7321,0.15852,-1.2437,-5.34,18.72,28.5
0.7355,-8.8668,1.0896,-1.3857,0.26756,-0.94348,-6.0,17.28,29.16
-0.19068,-9.1393,1.3757,-0.66829,0.52412,-0.26145,-7.14,14.64,30.12
-0.65378,-9.1665,1.3757,-0.13561,0.88942,0.33872,-7.56,13.38,30.66
-0.8717,-8.2131,1.2939,0.42883,1.2917,0.95936,-7.74,12.12,31.26
-0.20431,-7.0826,0.8036,1.0229,1.7562,1.4325,-8.22,10.5,32.28
0.5993,-7.9951,0.19068,1.5754,1.8185,1.865,-8.46,9.9,32.28
2.0839,-11.291,-0.7355,2.0867,1.3415,2.2535,-8.7,9.42,32.4
2.2201,-12.503,-1.1577,2.6399,-0.146,2.606,-9.36,9.18,32.22
1.9477,-13.893,-1.1713,2.7794,-0.62003,2.7067,-9.54,9.36,31.98
1.7979,-14.315,-1.076,2.9526,-1.2107,2.9447,-9.66,9.78,31.8
1.58,-13.457,-0.74912,2.9645,-1.212,3.2629,-9.72,11.04,31.02
1.4438,-12.476,-1.0215,2.9483,-0.73426,3.3937,-9.72,11.94,30.42
1.0215,-11.182,-2.1112,2.992,-0.036346,3.4193,-9.54,13.26,29.88
1.0079,-10.992,-2.6968,3.1182,1.0806,3.2724,-9.24,15.9,28.86
1.5663,-11.237,-2.7241,3.1053,1.5415,3.1951,-8.88,17.28,28.26
2.3155,-11.7,-2.7377,2.9822,1.7495,3.1609,-8.52,18.78,27.54
2.9556,-12.095,-2.6968,2.8326,1.7614,3.1081,-7.8,20.1,26.76
3.909,-13.484,-2.8058,2.6756,1.6695,3.124,-6.3,22.62,25.14
4.413,-14.111,-3.1191,2.4774,1.5201,3.1035,-5.16,23.82,24.24
5.1485,-14.261,-4.3177,2.2575,1.3427,3.0241,-2.64,26.1,22.5
6.2517,-14.029,-5.2438,2.0659,1.1588,2.7626,-1.44,27.12,21.54
6.4016,-13.579,-5.3664,1.639,1.0989,2.1863,-0.3,28.14,20.46
5.8023,-12.354,-5.2847,1.3799,1.0253,1.8017,0.78,28.92,19.38
5.0531,-11.032,-5.3119,1.2642,0.85246,1.3286,3.12,30.18,17.52
5.1894,-10.937,-5.8295,1.2074,0.57146,0.81031,4.14,30.6,16.5
5.4481,-10.951,-6.7285,1.014,0.28253,0.42638,5.34,30.84,15.6
5.2575,-10.774,-6.4424,0.56994,-0.094379,0.15088,7.56,31.74,13.56
4.8761,-10.76,-5.9657,0.30177,-0.15302,0.009163,8.58,32.1,12.6
4.808,-11.387,-6.0202,0.20311,-0.29108,-0.10843,9.36,32.52,11.7
6.0202,-14.615,-7.7091,-0.029016,-0.54581,-0.20464,10.68,33.0,10.2
5.775,-14.192,-7.1507,-0.80665,-0.65882,-0.35522,11.16,33.24,9.6
3.9499,-11.673,-4.7263,-1.6576,-0.26359,-0.78496,11.4,33.42,9.0
3.2961,-11.468,-3.6775,-1.7391,-0.10843,-1.003,12.0,33.48,8.4
4.413,-13.729,-4.1678,-1.4771,-0.1463,-1.7459,12.3,33.48,8.46
5.3937,-16.222,-4.4402,-1.7404,-0.47037,-1.9676,12.36,33.48,8.52
5.7614,-18.837,-3.5685,-2.3167,-0.7758,-2.0577,12.18,33.66,8.76
5.1621,-18.891,-2.5742,-2.9227,-0.98869,-2.2181,11.88,33.6,9.18
4.0316,-17.298,-1.8932,-3.2275,-1.0657,-2.7006,11.58,33.66,9.66
3.1191,-15.595,-1.3757,-3.2397,-1.0437,-2.8656,10.56,33.12,10.98
2.6015,-14.642,-0.95342,-3.2721,-0.7648,-3.28,9.78,32.94,11.94
2.2882,-13.934,-0.6674,-3.2639,-0.61789,-3.4114,8.94,32.7,12.96
2.0567,-13.402,-0.38137,-3.1893,-0.16829,-3.7495,7.02,32.16,15.12
2.0975,-12.572,-0.21793,-3.1038,0.073915,-3.8619,6.0,31.92,16.08
2.2201,-12.027,-0.027241,-2.9816,0.12645,-3.9273,4.92,31.62,17.16
2.4244,-11.141,-0.068102,-2.8307,0.063835,-3.901,2.46,30.84,19.32
2.4517,-10.896,-0.12258,-2.5775,-0.29352,-3.7,1.14,30.18,20.46
2.3836,-10.774,-0.027241,-2.4233,-0.58582,-3.466,1.14,29.58,21.6
2.1929,-10.324,0.14982,-2.2849,-0.84422,-3.1841,-1.14,28.86,22.8
1.7298,-9.4389,0.39499,-2.1542,-1.0076,-2.8613,-3.6,26.82,24.96
1.4982,-9.0848,0.50395,-1.9624,-1.1002,-2.295,-4.74,25.74,25.92
1.0351,-8.4719,0.54481,-1.7761,-1.0006,-1.9291,-6.6,23.88,27.78
0.55843,-8.2539,0.55843,-1.5589,-0.81123,-1.5314,-7.32,22.74,28.62
0.38137,-7.9951,0.61292,-1.292,-0.54611,-1.1197,-8.04,21.66,29.4
0.20431,-6.6876,0.68102,-0.94409,-0.24251,-0.69791,-9.0,19.38,30.84
0.10896,-6.2109,0.64016,-0.51191,0.054062,-0.281,-9.48,18.24,31.8
0.095342,-6.7966,0.55843,0.030238,0.28069,0.20556,-10.02,17.1,32.52
0.76274,-7.5865,0.19068,0.86407,0.51893,1.0779,-10.62,15.42,33.72
1.0215,-7.2188,-0.095342,1.4239,0.56505,1.4557,-10.98,14.7,34.02
1.0351,-7.4503,-0.16344,1.9584,0.44379,1.7886,-11.22,14.22,34.32
1.3484,-10.025,-0.89894,2.4532,0.25259,2.1053,-11.28,13.8,34.86
1.8524,-12.081,-1.6481,2.9071,-0.1014,2.4007,-11.4,13.98,34.8
2.0567,-13.484,-1.9477,3.2602,-0.59865,2.6811,-11.22,14.34,34.68
1.7298,-15.228,-2.2201,3.5861,-1.168,3.1081,-10.68,15.66,33.78
1.5527,-15.554,-2.1793,3.6157,-1.1695,3.3637,-10.32,16.74,33.18
1.4574,-15.214,-1.9477,3.4697,-0.83811,3.554,-9.84,17.82,32.4
1.4165,-14.342,-1.9341,3.2507,-0.25656,3.6075,-9.3,19.08,31.56
0.84446,-12.122,-2.6151,3.0592,0.50427,3.5076,-8.1,22.08,29.7
0.64016,-11.523,-2.833,2.9141,1.6603,3.1875,-7.38,23.58,28.8
1.3076,-11.346,-2.5198,2.7605,1.9761,3.0617,-5.22,26.4,26.82
1.9068,-11.605,-2.3427,2.5647,2.5439,2.8924,-3.9,27.78,25.92
2.4517,-11.931,-2.3427,2.376,2.9822,2.8072,-2.7,29.1,24.72
3.9227,-13.28,-2.8058,2.0916,3.2678,2.77,-1.26,31.38,22.32
4.7671,-13.797,-3.2553,1.927,3.0885,2.795,1.56,32.46,21.18
5.6116,-13.797,-3.7728,1.6863,2.259,2.6945,4.08,33.96,18.9
7.246,-12.803,-4.808,1.5281,1.5311,2.5045,5.34,34.38,18.0
7.5593,-12.095,-5.1349,1.3564,0.95936,2.189,6.72,34.8,17.1
7.1098,-11.373,-4.9987,1.1829,0.45876,1.8005,8.16,35.04,16.2
5.9385,-10.583,-5.4481,1.1619,0.035125,1.3992,10.86,35.22,14.64
5.6252,-10.869,-5.8159,1.0996,-0.28619,0.94165,12.18,35.22,13.86
5.4481,-11.264,-6.0883,0.93065,-0.41936,0.52382,13.44,35.22,13.08
4.6582,-11.414,-5.38,0.44379,-0.18418,0.10263,15.42,35.34,11.4
4.2632,-11.986,-5.1485,0.22449,0.13256,-0.13561,16.26,35.34,10.5
4.4539,-12.694,-5.5026,0.18601,0.24557,-0.23763,17.1,35.46,9.78
5.203,-13.648,-6.3062,-0.49724,0.48167,-0.58185,17.82,35.46,9.12
4.8352,-11.128,-4.522,-1.1069,0.58887,-0.85765,18.72,35.58,7.98
4.4811,-9.3163,-3.5277,-1.1579,0.6014,-1.1274,19.08,35.58,7.5
5.775,-12.04,-4.127,-0.82436,0.22877,-1.4377,19.62,35.94,7.14
7.0553,-14.901,-4.7126,-0.90958,-1.0104,-1.8295,19.5,36.06,6.84
7.3005,-16.113,-4.2495,-1.2981,-1.8292,-1.908,19.2,36.24,6.72
7.0009,-16.508,-3.6775,-1.6347,-2.5006,-1.927,18.84,36.48,6.72
4.8216,-16.44,-1.975,-1.9535,-2.9187,-2.0553,17.82,36.96,6.96
3.7184,-15.568,-1.7979,-2.2923,-2.9899,-2.3195,17.04,37.2,7.2
2.1929,-13.43,-1.3484,-2.6081,-2.5452,-2.7382,15.3,37.68,8.28
1.866,-12.898,-1.1169,-2.7526,-1.9838,-2.9734,14.34,37.98,9.24
1.6753,-12.476,-0.89894,-2.8973,-1.4056,-3.1744,13.14,38.22,10.44
1.5255,-11.891,-0.70826,-2.9499,-1.1533,-3.2492,11.82,38.4,11.52
1.757,-11.605,-0.7355,-2.9465,-0.61942,-3.3063,10.44,38.64,12.78
2.3291,-11.713,-0.64016,-2.8989,-0.4948,-3.2516,7.5,38.82,15.36
2.4517,-11.673,-0.6674,-2.8106,-0.52443,-3.0983,6.0,38.7,16.56
2.4789,-11.632,-0.43585,-2.7061,-0.62827,-2.8708,4.62,38.4,18.0
2.2201,-11.4,-0.28603,-2.6295,-0.7309,-2.6017,1.86,37.74,21.06
1.9205,-11.305,-0.068102,-2.5162,-0.67806,-2.1841,0.48,36.96,22.68
1.6072,-10.992,0.10896,-2.4789,-0.46945,-1.934,-0.72,36.12,24.36
1.185,-10.215,0.44947,-2.4059,-0.17776,-1.7187,-3.3,33.9,27.54
1.2258,-9.9565,0.51757,-2.2733,0.11973,-1.456,-4.32,32.82,29.16
1.4165,-9.4253,0.61292,-2.0598,0.35522,-1.2291,-5.52,31.38,30.66
1.471,-9.1937,0.6674,-1.7523,0.46762,-1.0125,-7.26,28.32,32.88
1.3757,-8.7987,0.72188,-1.3861,0.4664,-0.73334,-7.86,26.76,34.08
1.1577,-8.9622,0.76274,-0.69761,0.40073,-0.24526,-8.46,25.02,35.16
0.16344,-8.7034,1.2667,-0.20525,0.48167,0.22846,-9.36,21.9,37.08
-0.01362,-7.7636,1.2258,0.29688,0.7703,0.75839,-9.84,20.46,37.86
-0.32689,-6.9736,0.6674,1.1188,1.0916,1.1096,-10.62,17.88,39.18
0.69464,-9.2755,0.16344,1.3729,1.139,1.3018,-10.8,16.92,39.48
1.5119,-10.706,-0.23155,2.1279,0.72235,1.8344,-11.1,16.26,39.96
1.8387,-11.972,-0.7355,2.5061,-0.026878,2.1475,-11.34,15.78,40.02
1.7706,-13.661,-1.1169,2.795,-0.6973,2.4322,-11.46,15.72,39.84
1.8251,-13.729,-1.1032,2.9355,-1.0287,2.6988,-11.52,15.9,39.48
1.6753,-12.177,-1.185,2.9435,-1.0205,2.8729,-11.4,16.5,39.06
1.2939,-10.624,-1.471,2.8924,-0.72388,2.9502,-11.16,18.42,38.04
0.99429,-9.6977,-2.1112,2.8928,-0.25901,2.9111,-10.86,19.68,37.56
0.89894,-9.3708,-2.4244,2.9297,0.53329,2.6918,-10.44,21.06,36.9
1.3757,-9.902,-2.5879,2.8787,1.0009,2.5348,-9.48,24.12,35.58
1.7162,-10.188,-2.6423,2.7715,1.3463,2.4557,-8.76,25.56,34.92
2.0294,-10.815,-2.6287,2.5867,1.7116,2.5058,-7.86,27.3,34.08
2.9692,-12.272,-3.0373,2.5174,1.6368,2.5452,-5.76,30.66,32.22
3.4187,-13.253,-3.7592,2.3378,1.6664,2.7318,-4.68,32.16,30.9
3.9635,-13.648,-4.2495,2.2113,1.5379,2.8085,-3.48,33.66,29.94
4.304,-13.661,-4.5356,2.0806,1.3625,2.792,-2.28,35.16,28.68
4.7126,-13.212,-5.4209,1.9181,1.2834,2.6762,0.54,37.62,26.22
5.2438,-13.021,-5.9657,1.6784,1.2416,2.1997,1.98,38.7,25.02
6.0747,-12.367,-6.1836,1.4004,1.2532,1.9984,4.74,40.2,22.74
5.9793,-11.931,-6.0202,0.94867,0.95356,1.3381,6.06,40.98,21.48
5.6661,-11.55,-5.8704,0.76664,0.60751,0.83566,7.44,41.64,20.4
5.2575,-11.496,-5.1757,0.62705,0.39615,0.29993,9.84,42.36,18.06
5.0668,-12.054,-4.8352,0.40897,0.32284,-0.080329,10.74,42.72,16.86
5.4073,-13.348,-5.38,0.30757,0.2022,-0.29383,12.24,43.08,15.12
6.1292,-14.506,-6.7012,-0.43738,0.032376,-0.51496,12.84,43.32,14.4
5.5162,-13.253,-6.0611,-1.259,0.10599,-0.63835,13.38,43.56,13.98
4.1133,-10.093,-4.2087,-1.3457,0.2138,-0.85918,13.74,43.56,13.38
4.7535,-10.706,-4.2495,-0.9612,0.0073304,-1.1955,13.98,43.44,13.2
5.9385,-13.416,-5.1349,-0.90622,-0.57849,-1.4566,13.8,43.38,13.38
7.2052,-16.903,-4.2495,-1.2544,-1.2275,-1.5641,13.44,43.14,13.62
6.4288,-17.271,-2.7241,-1.9328,-1.9804,-1.6561,12.6,42.78,14.28
4.8897,-16.889,-2.0158,-2.3216,-2.2568,-1.8616,12.24,42.3,14.76
4.0316,-16.29,-1.5936,-2.6802,-2.1927,-2.1826,11.58,41.7,15.42
2.4925,-13.661,-1.1169,-2.912,-1.883,-2.543,10.26,40.56,17.22
2.0975,-12.667,-1.1032,-3.0232,-1.4368,-2.8537,9.78,39.84,18.36
2.0294,-12.612,-1.1986,-3.0809,-0.95631,-3.1072,8.82,39.24,19.44
1.9613,-11.904,-0.76274,-3.1096,-0.20403,-3.3772,6.84,37.8,21.66
2.0567,-11.101,-0.58567,-3.0113,0.1179,-3.4951,6.0,36.9,22.68
2.2337,-10.774,-0.44947,-2.8598,0.19517,-3.5061,5.04,36.06,23.76
2.438,-10.828,-0.28603,-2.7229,0.09163,-3.4169,3.12,34.08,25.68
2.5334,-10.733,-0.23155,-2.595,-0.14355,-3.2861,2.28,32.88,26.64
2.5742,-10.706,-0.20431,-2.4648,-0.52718,-2.919,1.56,31.56,27.54
2.2882,-10.61,-0.095342,-2.3546,-0.63316,-2.7697,0.06,28.8,29.22
1.9477,-10.515,-0.095342,-2.2703,-0.75747,-2.4774,-0.9,27.48,30.06
1.7025,-10.406,0.12258,-2.1634,-0.75472,-2.0366,-1.5,26.22,30.78
1.2531,-10.215,0.43585,-2.0742,-0.61484,-1.7397,-2.1,24.9,31.32
0.96704,-9.5751,0.61292,-1.9224,-0.39034,-1.4444,-3.3,22.14,32.16
0.8036,-9.2074,0.70826,-1.6945,-0.14722,-1.1506,-3.54,20.7,32.58
0.58567,-7.8998,0.85808,-1.3952,0.11179,-0.81734,-4.02,17.58,33.3
0.29965,-7.6002,1.0624,-0.74098,0.4893,-0.27061,-4.32,16.26,33.72
0.095342,-7.9134,1.1577,-0.4609,0.59987,-0.018631,-4.38,14.88,34.08
0.40861,-7.8317,0.88532,0.38026,1.0605,0.86712,-4.62,12.54,34.5
0.54481,-6.96,0.64016,0.96303,1.3051,1.3436,-4.86,11.52,34.56
0.7355,-7.4367,0.34051,1.5195,1.3815,1.7596,-5.1,10.74,34.68
1.6753,-10.025,-0.40861,2.0421,1.1799,2.1344,-5.52,9.84,34.68
2.3427,-11.754,-1.1713,2.5058,0.60201,2.4438,-5.64,9.48,34.56
2.4789,-13.184,-1.5119,2.8705,-0.26573,2.6985,-5.82,9.42,34.38
1.9613,-15.091,-1.7162,3.1933,-1.2901,3.0953,-6.0,10.02,33.66
1.9477,-15.391,-1.5391,3.1976,-1.5125,3.3564,-6.0,10.5,33.24
1.975,-14.451,-1.4165,3.0494,-1.306,3.5009,-6.0,11.52,32.76
1.2258,-11.605,-2.4789,2.9071,-0.74587,3.5143,-5.76,13.62,31.68
0.8717,-10.746,-3.0918,2.8665,0.039095,3.4037,-5.52,14.88,31.14
0.84446,-10.447,-3.4187,2.7538,1.1304,2.996,-5.28,16.2,30.66
1.4982,-10.447,-2.8739,2.613,1.5421,2.6481,-4.26,18.54,29.94
1.8796,-10.624,-2.7104,2.4129,1.9884,2.4315,-3.54,19.86,29.4
2.6968,-10.964,-2.4925,2.2382,2.0568,2.3653,-2.64,21.12,28.92
3.9635,-12.476,-2.9556,2.106,2.2171,2.3665,-0.72,23.52,27.36
4.4266,-12.939,-3.2144,1.8317,1.8751,2.4135,0.24,24.78,26.46
5.4073,-13.13,-3.9908,1.6753,1.4661,2.3356,1.14,25.86,25.56
5.8023,-12.258,-4.7807,1.5348,1.095,2.1863,3.06,27.6,24.3
5.7342,-11.55,-4.9033,1.4129,0.90408,1.8955,4.02,28.44,23.64
5.3664,-11.005,-4.9169,1.2495,0.78374,1.5443,4.92,28.98,22.98
4.7807,-10.91,-5.4754,1.146,0.562,1.0235,6.66,29.94,21.54
4.8761,-11.182,-5.8976,0.99113,0.3824,0.67837,7.56,30.3,20.82
5.0531,-11.482,-6.0202,0.78252,0.19914,0.44563,8.34,30.6,19.86
5.2575,-11.931,-5.884,0.51832,0.11729,0.27855,9.48,31.44,18.06
4.9578,-12.149,-5.4073,0.20403,0.17807,0.091935,9.9,31.8,17.16
4.9578,-12.926,-5.6524,0.052534,0.16646,-0.092546,10.26,32.1,16.44
5.5162,-13.62,-6.5378,-0.59529,0.097128,-0.44654,10.92,32.58,15.6
4.9033,-12.463,-5.7478,-1.2511,0.22938,-0.78802,11.16,32.52,15.24
3.7728,-9.4117,-4.0044,-1.3522,0.37232,-1.1044,11.22,32.58,15.12
4.1678,-9.6432,-3.6094,-1.04,0.19578,-1.4239,11.34,32.52,14.64
5.4618,-13.103,-4.6582,-0.91019,-0.44135,-1.6408,10.98,32.34,14.52
6.6331,-15.5,-4.8488,-1.1396,-1.2898,-1.6784,10.56,32.04,14.52
6.6467,-18.319,-3.1599,-1.8595,-2.277,-1.5724,9.66,31.62,15.12
5.2575,-18.02,-1.9613,-2.346,-2.6053,-1.5528,9.06,31.14,15.6
4.3177,-17.243,-1.4438,-2.5589,-2.6044,-1.6237,8.58,30.66,16.32
2.547,-14.928,-1.1713,-2.941,-2.0165,-2.1545,8.04,30.06,16.98
1.3893,-12.449,-0.96704,-3.0165,-1.3528,-2.551,7.14,28.56,18.9
1.5527,-11.795,-0.85808,-3.0305,-0.64263,-2.8775,6.6,27.78,19.8
1.7025,-11.482,-0.54481,-3.0287,0.22816,-3.1863,5.22,26.34,21.66
2.3836,-10.706,-0.6674,-2.9138,0.51862,-3.3234,4.62,25.56,22.56
2.8603,-10.746,-0.61292,-2.8359,0.54031,-3.3591,4.14,24.66,23.28
3.0646,-10.787,-0.44947,-2.6848,0.37324,-3.3622,3.6,23.76,24.12
2.9011,-10.869,-0.17706,-2.5003,-0.16066,-3.2077,3.12,21.84,25.56
2.7241,-10.896,-0.054481,-2.4071,-0.52626,-3.0507,2.94,20.82,26.22
2.3836,-10.815,0.19068,-2.3405,-0.77,-2.8598,2.7,19.62,26.7
1.6208,-10.256,0.21793,-2.2211,-0.7926,-2.5122,2.64,17.34,27.6
1.3757,-9.7522,0.29965,-2.1197,-0.6072,-2.2593,2.7,16.32,27.96
1.0624,-9.2482,0.40861,-1.9795,-0.29932,-2.0152,2.76,15.36,28.32
0.81722,-8.8532,0.51757,-1.7761,0.057421,-1.7229,2.64,14.4,28.38
0.76274,-8.1858,0.44947,-1.5,0.36285,-1.3674,2.46,12.48,28.56
0.88532,-7.6546,0.44947,-1.1438,0.52168,-0.99052,2.7,11.46,28.62
0.92618,-6.8647,0.21793,-0.42974,0.44563,-0.31246,2.94,9.72,28.92
0.85808,-7.7091,0.14982,-0.1573,0.35064,0.28008,2.94,8.94,29.16
1.0215,-8.322,-0.1362,0.66248,0.32926,0.91966,3.06,8.4,29.22
1.3893,-7.5729,-0.14982,0.92302,0.33384,1.1655,3.12,7.86,29.28
1.2258,-7.4231,-0.38137,1.6344,0.26695,1.6286,3.24,7.44,29.4
1.2258,-8.9077,-1.0215,2.0806,0.081856,1.9117,3.3,7.26,29.4
1.5936,-11.754,-1.6753,2.4865,-0.20372,2.127,3.36,7.32,29.34
1.5391,-13.77,-2.0158,2.9132,-0.82803,2.4713,3.48,7.86,29.22
1.3757,-14.778,-2.1248,3.0598,-1.0666,2.7687,3.54,8.4,28.98
1.2803,-15.323,-2.152,3.0647,-0.98135,3.0913,3.72,9.18,28.74
1.4438,-14.601,-1.6889,2.9276,-0.52473,3.3665,3.96,10.92,27.72
1.4165,-13.225,-2.0022,2.7642,0.16096,3.5012,4.02,11.94,27.3
1.1986,-10.992,-2.8875,2.6078,1.2932,3.3866,4.56,13.92,26.52
1.3212,-10.46,-3.0373,2.5186,1.8277,3.1368,5.04,14.88,26.1
1.6072,-10.311,-2.8603,2.4593,1.9978,2.9871,5.22,15.6,25.74
2.2882,-10.392,-2.547,2.2544,2.2382,2.686,5.64,16.44,25.5
3.2144,-10.992,-2.5606,2.1191,2.2397,2.5794,6.6,17.76,24.72
3.9363,-11.536,-3.0373,1.9728,2.098,2.5543,7.26,18.6,24.3
4.5492,-11.891,-3.8001,1.7938,1.595,2.613,8.34,19.86,23.4
5.2575,-12.367,-4.4675,1.6988,1.076,2.584,8.88,20.4,22.98
5.1894,-12.095,-4.8761,1.5501,0.66401,2.4603,9.54,20.7,22.62
5.1213,-11.85,-5.0123,1.3729,0.45571,2.2382,10.26,20.88,22.2
5.3119,-11.032,-5.2983,1.1872,0.43494,1.9401,11.58,21.3,21.78
5.1485,-10.896,-5.2983,1.0592,0.48045,1.613,12.3,21.12,21.54
4.9987,-11.387,-5.5435,0.91263,0.45662,1.2654,12.96,21.12,21.12
5.2711,-11.931,-5.4618,0.6295,0.41844,0.67409,13.98,21.24,20.4
5.4073,-11.959,-5.1213,0.30727,0.54642,0.32223,14.76,21.48,19.92
5.2847,-11.822,-4.5356,0.031765,0.68509,-0.0018326,15.3,21.54,19.38
5.6388,-13.062,-5.2847,0.015882,0.64904,-0.29963,16.14,21.78,18.66
6.17,-13.634,-5.9385,-0.2923,0.54703,-0.60781,16.38,22.02,18.18
4.8625,-10.202,-4.1951,-0.91721,0.49388,-0.90744,17.1,22.32,17.7
4.7126,-9.0848,-3.4187,-0.92913,0.30391,-1.27,17.4,22.26,17.4
5.3937,-10.828,-3.9908,-0.68417,-0.23488,-1.5122,17.58,22.44,17.16
6.0338,-12.326,-4.3721,-0.77,-1.1411,-1.6719,17.64,22.5,17.04
7.4912,-15.5,-4.0589,-1.1087,-2.0101,-1.675,17.76,22.56,16.74
7.3822,-16.671,-3.2008,-1.4068,-2.7321,-1.5965,17.88,22.74,16.62
6.5786,-17.543,-1.6753,-2.0024,-3.3869,-1.6475,18.06,23.04,16.44
3.6094,-16.453,-1.1169,-2.4859,-3.2306,-1.8888,18.06,23.22,16.26
2.3836,-14.737,-0.8717,-2.7886,-2.645,-2.2681,18.0,23.28,16.2
1.5391,-13.348,-0.89894,-2.9001,-1.85,-2.6988,17.94,23.52,16.26
1.4574,-12.476,-0.89894,-3.0085,-1.0235,-2.9923,17.34,24.12,16.2
1.7434,-12.326,-0.68102,-3.0791,-0.27581,-3.2006,16.92,24.36,16.26
1.9205,-11.509,-0.40861,-3.0491,0.27978,-3.3802,16.44,24.54,16.38
2.4517,-11.087,-0.38137,-2.8659,0.61148,-3.4929,15.0,25.38,16.5
2.9011,-10.964,-0.29965,-2.6835,0.44318,-3.4462,14.28,25.62,16.62
3.0782,-11.06,-0.34051,-2.5146,0.055894,-3.3115,13.44,25.8,16.74
2.9965,-11.128,-0.21793,-2.3668,-0.38576,-3.1203,11.52,26.16,17.52
2.6287,-10.774,-0.01362,-2.2639,-0.74495,-2.8952,10.38,26.22,17.88
2.1656,-10.542,0.19068,-2.1817,-0.90011,-2.6756,9.12,26.04,18.48
1.4574,-9.8748,0.38137,-2.1154,-0.90622,-2.3375,6.6,25.44,19.86
1.1305,-9.7522,0.36775,-1.9664,-0.62461,-2.1053,5.22,25.2,20.58
0.9398,-9.4798,0.38137,-1.7947,-0.37629,-1.8008,3.96,24.9,21.18
0.88532,-8.9622,0.43585,-1.5317,-0.15913,-1.4636,2.76,24.42,21.9
0.61292,-7.7636,0.46309,-1.1897,0.03207,-1.1008,0.6,23.1,23.34
0.47671,-7.2596,0.57205,-0.75228,0.18265,-0.68936,-0.3,22.5,24.06
0.24517,-7.8589,0.64016,0.057727,0.43707,0.18692,-1.98,21.06,25.56
0.74912,-7.2869,0.28603,0.61087,0.68539,0.78374,-2.64,20.22,26.28
1.1032,-6.3062,0.054481,1.1451,0.84758,1.1967,-3.24,19.56,27.0
1.0624,-6.5105,-0.040861,1.6548,0.79474,1.5217,-3.66,19.08,27.48
1.185,-8.6217,-0.61292,2.1041,0.59223,1.8341,-4.56,18.6,28.38
1.58,-10.283,-0.92618,2.533,0.17074,2.0852,-4.86,18.6,28.44
1.9886,-11.891,-1.6344,2.85,-0.73334,2.4716,-5.16,19.2,28.2
1.8796,-14.288,-1.8251,3.2092,-1.1811,2.7687,-5.1,19.74,27.78
1.9477,-14.669,-1.866,3.3011,-1.3231,3.0479,-4.92,20.22,27.42
2.0294,-14.288,-1.8524,3.2816,-1.1707,3.2538,-4.74,21.12,26.88
1.7025,-12.258,-2.3427,3.2086,-0.78985,3.3182,-3.96,23.1,25.5
1.3484,-11.455,-2.8194,3.1527,-0.25229,3.2608,-3.66,24.18,24.66
1.0896,-10.76,-3.3778,3.0171,0.52473,2.901,-2.4,26.46,22.92
1.3484,-10.91,-3.2008,2.8311,0.88698,2.6267,-1.44,27.54,21.96
1.7706,-10.964,-3.1191,2.602,1.2074,2.4184,-0.42,28.5,20.94
2.2201,-11.169,-3.0918,2.3836,1.5055,2.2984,0.78,29.4,19.92
2.7786,-11.605,-3.3097,2.2055,1.7422,2.266,3.42,30.9,17.46
3.2553,-12.149,-3.6911,2.0055,1.8491,2.2425,4.86,31.62,16.44
3.8682,-12.408,-4.2495,1.7617,1.81,2.1619,6.24,32.16,15.36
4.3313,-11.863,-4.8488,1.5693,1.5259,1.8784,9.0,32.76,13.38
4.3313,-11.863,-4.8488,1.3839,1.5259,1.8784,9.0,32.76,13.38
4.7944,-10.964,-5.1076,1.1454,1.3708,1.5479,11.76,33.0,11.46
5.0259,-11.019,-5.2166,1.0412,1.1918,1.288,13.02,32.88,10.5
5.2711,-11.727,-5.4481,0.92057,0.89217,1.0241,15.9,32.52,9.12
5.1894,-12.217,-5.5435,0.71502,0.61392,0.74556,18.3,32.16,7.5
5.1894,-12.163,-5.4754,0.26237,0.46701,0.343,19.2,32.1,6.84
4.7671,-11.741,-4.7944,0.049175,0.56474,0.07086,20.46,32.04,5.64
4.8625,-12.558,-5.203,0.015577,0.60445,-0.17929,21.6,32.22,4.86
5.7205,-12.817,-6.3607,-0.22633,0.51832,-0.43219,22.38,32.16,4.2
5.2847,-10.924,-5.2847,-0.82222,0.42699,-0.69883,22.86,32.46,3.84
4.7263,-8.7443,-3.7728,-1.0437,0.29322,-0.91019,22.8,32.76,3.84
5.2711,-10.106,-3.514,-0.88545,-0.039401,-1.127,22.56,33.3,4.14
5.8295,-11.727,-3.9635,-0.7309,-1.2737,-1.4502,22.5,33.6,4.08
7.2733,-15.677,-4.413,-1.0021,-2.2315,-1.4826,21.96,34.26,4.44
7.5048,-17.529,-3.4051,-1.4508,-2.934,-1.3827,21.3,35.16,4.8
6.1564,-17.597,-2.3155,-1.9615,-3.3512,-1.3387,20.34,35.88,5.46
3.4732,-15.459,-1.5527,-2.4044,-3.3088,-1.5049,19.32,36.6,6.18
2.4789,-14.451,-1.2667,-2.7923,-2.321,-2.0626,18.78,37.14,6.6
1.1986,-12.503,-1.2258,-2.8735,-1.8552,-2.2914,17.46,37.92,8.1
1.2531,-12.326,-1.0488,-3.1078,-0.11698,-3.0458,16.74,38.46,9.06
1.6889,-12.136,-0.7355,-3.1661,0.23121,-3.1652,15.72,38.88,10.08
1.975,-11.7,-0.70826,-3.2055,0.70372,-3.3973,14.64,39.3,10.98
2.5606,-10.951,-0.53119,-3.1176,0.87293,-3.5607,11.82,39.72,12.78
2.8058,-11.169,-0.42223,-2.9163,0.62522,-3.6142,10.44,39.66,14.1
3.0237,-11.237,-0.38137,-2.759,0.23671,-3.5213,8.82,39.48,15.36
2.656,-11.223,-0.14982,-2.6738,0.021075,-3.4441,7.26,39.0,16.74
2.2882,-10.91,0.068102,-2.4771,-0.50977,-3.1643,4.02,37.62,19.5
1.9341,-10.61,0.23155,-2.3427,-0.63163,-2.9123,2.34,36.84,20.76
1.185,-9.7385,0.38137,-2.2135,-0.5962,-2.6029,-1.02,34.56,23.7
1.0351,-9.4661,0.40861,-2.0464,-0.44593,-2.0699,-2.7,33.24,25.2
0.85808,-9.0575,0.44947,-1.8213,-0.2697,-1.8604,-4.2,31.68,26.52
0.7355,-7.9815,0.51757,-1.3454,-0.0045815,-1.1875,-7.14,28.44,28.68
0.78998,-7.3277,0.43585,-1.1561,0.061087,-0.95845,-8.34,26.76,29.76
0.77636,-6.8374,0.35413,-0.44257,0.18387,-0.25748,-9.24,25.02,30.78
0.65378,-7.9815,0.38137,0.087965,0.21411,0.28527,-10.68,21.6,32.76
0.74912,-8.0905,0.34051,0.87506,0.38882,1.1435,-11.28,20.16,33.36
1.1986,-7.3958,-0.25879,1.1237,0.43799,1.3341,-11.7,18.9,33.9
1.2395,-8.1858,-0.6674,1.5608,0.3821,1.6231,-12.36,16.98,34.68
1.2667,-9.4661,-1.2939,2.1686,0.1179,1.9963,-12.6,16.5,34.98
1.4574,-11.06,-1.3484,2.463,-0.13286,2.2532,-12.72,16.14,35.16
1.58,-14.315,-1.7025,2.664,-0.44471,2.5049,-12.6,16.62,35.1
1.471,-14.887,-1.6753,2.7678,-0.67165,2.9028,-12.24,16.86,34.62
1.471,-15.064,-1.6344,2.7275,-0.44013,3.1731,-11.58,18.54,33.84
1.7025,-13.035,-1.7706,2.6771,-0.22297,3.2715,-11.04,19.68,33.18
1.6072,-11.877,-2.0839,2.5879,0.66065,3.3903,-10.68,20.82,32.58
1.4982,-11.141,-2.4789,2.5614,1.2755,3.2962,-10.26,22.14,31.92
1.7162,-10.025,-2.9284,2.5241,1.7031,3.1062,-9.06,25.14,30.42
2.1112,-9.9973,-2.6423,2.4138,1.9459,2.93,-8.34,26.64,29.76
3.0646,-10.529,-1.9341,2.1738,2.0491,2.7504,-6.6,29.46,28.26
3.4868,-11.155,-2.0022,2.043,1.9862,2.6811,-5.46,30.84,27.48
3.732,-11.577,-2.2201,1.9145,1.8415,2.6942,-4.32,32.1,26.58
4.3858,-12.272,-2.9284,1.8024,1.5785,2.7043,-3.12,33.3,25.68
5.0531,-12.612,-3.8818,1.7654,1.2113,2.656,-0.9,35.04,23.82
5.2575,-12.381,-4.4402,1.7287,0.87995,2.4911,0.24,35.88,23.04
5.9657,-12.013,-5.0804,1.5678,0.59712,2.1875,2.46,37.08,21.18
5.8159,-11.645,-4.9442,1.3912,0.52595,1.8274,3.72,37.62,20.28
5.4481,-11.523,-4.8897,1.3234,0.46487,1.6631,5.16,38.04,19.26
5.38,-11.645,-5.3119,1.1145,0.17623,1.0889,7.56,38.7,17.34
5.8023,-11.959,-5.4754,0.95051,-0.0082467,0.66462,9.0,38.82,16.44
5.7205,-12.081,-5.4073,0.66829,-0.075747,0.33842,10.2,39.0,15.54
5.3119,-12.367,-5.1894,0.27703,-0.045815,-0.057421,12.36,39.6,13.68
5.3528,-13.321,-5.9112,0.080329,-0.014966,-0.30024,13.08,39.72,12.84
5.2575,-13.321,-6.1292,-0.47922,0.050396,-0.57727,13.8,39.78,12.12
4.3449,-10.665,-4.5083,-0.95661,0.18876,-0.85002,14.94,39.9,10.98
4.0861,-9.9565,-3.6775,-1.0284,0.29596,-1.0993,15.36,39.96,10.68
4.4811,-10.678,-3.5277,-0.92027,0.12156,-1.332,15.6,40.14,10.5
6.2517,-13.77,-4.2223,-1.1283,-0.78557,-1.5831,15.84,40.02,10.44
7.246,-14.955,-4.0861,-1.3686,-1.6496,-1.6338,15.6,39.84,10.62
7.6274,-16.304,-3.6366,-1.4716,-2.0559,-1.6316,15.42,39.66,10.86
6.4152,-17.489,-2.438,-1.9584,-3.0525,-1.5586,14.94,39.36,11.82
4.4947,-16.031,-1.5255,-2.3912,-3.2742,-1.6982,14.4,39.18,12.36
3.0646,-14.383,-1.0896,-2.6646,-3.0342,-2.018,13.98,38.94,13.08
1.6481,-12.408,-1.0624,-2.8564,-2.0727,-2.547,12.9,38.22,14.88
1.4165,-11.863,-0.83084,-3.0913,-1.2587,-2.817,12.36,37.92,15.84
1.4165,-11.863,-0.83084,-3.2263,-0.20006,-3.0989,12.36,37.92,15.84
1.4165,-11.863,-0.83084,-3.3142,0.060781,-3.1738,12.36,37.92,15.84
1.471,-11.754,-0.65378,-3.306,0.37538,-3.2941,11.76,37.8,16.86
2.3427,-11.346,-0.35413,-3.2284,0.43677,-3.3384,11.04,37.2,17.94
2.7922,-11.536,-0.10896,-3.0079,0.15455,-3.1997,8.76,35.94,20.28
2.6423,-11.577,-0.14982,-2.8595,-0.14478,-3.0128,7.68,35.04,21.54
2.547,-11.536,0.054481,-2.7819,-0.25687,-2.9001,6.54,33.96,22.74
1.866,-10.828,0.32689,-2.5571,-0.36346,-2.5107,4.5,31.86,25.26
1.5663,-10.256,0.47671,-2.408,-0.23121,-2.2345,3.24,30.72,26.52
1.1305,-9.8475,0.62654,-2.241,-0.029016,-1.9667,2.04,29.46,27.54
0.9398,-8.8532,0.50395,-2.0207,0.19303,-1.6554,-0.36,26.52,29.64
0.91256,-8.4582,0.24517,-1.7065,0.34178,-1.3317,-1.56,25.14,30.66
0.84446,-7.6683,0.10896,-1.3338,0.39645,-0.96242,-2.94,23.52,31.5
0.57205,-7.641,0.32689,-0.6576,0.41508,-0.27794,-4.86,20.34,33.12
0.39499,-8.145,0.34051,-0.15424,0.5339,0.3149,-5.94,18.6,33.96
0.6674,-7.3686,-0.01362,0.35461,0.64843,0.93065,-6.6,17.28,34.62
1.2258,-6.9328,-0.89894,0.894,0.66371,1.3699,-7.56,15.0,35.4
1.2667,-8.1995,-1.076,1.6054,0.30391,1.8876,-8.04,14.22,35.64
1.2258,-9.221,-1.2258,1.8112,0.18448,2.044,-8.28,13.74,35.76
1.4982,-11.346,-1.4165,2.3219,-0.18418,2.4566,-8.52,13.32,36.0
1.4165,-13.743,-1.4165,2.525,-0.40561,2.7156,-8.52,13.2,35.7
1.4301,-14.179,-1.471,2.6371,-0.4667,2.9743,-8.28,13.56,35.52
1.471,-13.688,-1.4165,2.6915,-0.12584,3.2987,-7.86,14.82,34.98
1.8251,-11.972,-1.8524,2.7446,0.26878,3.4477,-7.68,15.84,34.38
1.7706,-11.387,-2.2474,2.824,0.68539,3.4981,-7.26,16.92,33.9
1.8524,-11.06,-2.8194,2.8659,0.86071,3.4822,-7.02,18.3,33.24
2.4789,-10.692,-2.9692,2.8668,1.1594,3.386,-6.18,21.12,32.04
2.9011,-10.842,-2.6832,2.7523,1.1432,3.2852,-5.64,22.62,31.5
3.2553,-10.91,-2.3018,2.4893,0.95203,3.0531,-3.78,25.62,30.12
3.514,-11.346,-2.3836,2.372,0.83994,2.9383,-2.64,26.94,29.28
3.8954,-12.122,-2.6968,2.2697,0.75381,2.8509,-1.38,28.14,28.44
4.1542,-12.517,-2.9284,2.1661,0.66065,2.7046,-0.18,29.34,27.42
4.808,-13.253,-4.3449,2.094,0.5736,2.5039,2.34,31.44,25.56
5.4481,-13.348,-5.0531,2.0284,0.46762,2.2434,3.66,32.34,24.66
5.6797,-12.871,-5.3664,1.8607,0.45479,1.912,5.04,33.24,23.76
4.7671,-11.319,-5.4618,1.467,0.46914,1.4096,7.92,34.32,21.84
4.7399,-10.924,-5.5707,1.3418,0.33353,1.0284,9.24,34.98,21.0
4.808,-10.869,-5.8295,1.2055,0.072693,0.62339,10.68,35.34,20.04
4.9033,-11.482,-6.2926,0.99266,-0.16371,0.35461,13.38,35.94,18.06
4.6854,-11.605,-6.2517,0.66004,-0.2193,0.16921,14.58,36.12,17.04
4.413,-11.836,-6.0338,0.30879,-0.11393,0.0015272,15.54,36.3,16.14
4.6309,-13.729,-6.5241,0.11515,-0.028405,-0.24862,17.1,36.66,14.58
4.7671,-14.111,-6.9736,-0.67073,0.11057,-0.48411,17.64,37.08,13.92
4.3858,-12.612,-6.2245,-1.3799,0.34972,-0.7929,18.18,37.38,13.56
3.5685,-9.7249,-3.9635,-1.5107,0.55436,-1.1005,18.66,37.5,12.78
4.1542,-10.896,-3.3097,-1.2666,0.47464,-1.4395,18.66,37.56,12.54
4.985,-13.062,-3.7592,-1.2135,-0.036957,-1.7514,18.6,37.62,12.42
7.3141,-16.671,-4.0452,-1.4429,-0.86254,-1.9108,17.88,37.74,12.66
7.6138,-17.965,-3.5822,-2.0629,-2.138,-1.8396,17.46,37.62,12.78
7.1371,-18.156,-3.0237,-2.2794,-2.4703,-1.7828,16.92,37.38,13.26
4.4675,-15.568,-1.6344,-2.6289,-2.9752,-1.8424,16.02,37.26,14.4
3.1599,-14.369,-1.2395,-2.7364,-2.7874,-2.0995,15.48,37.26,15.18
2.152,-13.416,-1.0351,-2.883,-2.244,-2.3818,14.88,36.96,16.02
1.6344,-12.449,-0.62654,-3.036,-1.5027,-2.671,13.44,36.72,17.94
1.757,-12.272,-0.64016,-3.2354,-0.48472,-2.9529,12.6,36.36,18.9
1.9477,-11.904,-0.29965,-3.28,-0.23427,-3.0152,11.64,36.06,19.8
2.2746,-11.237,-0.095342,-3.2611,0.19517,-3.1704,9.66,35.4,21.72
2.547,-11.237,-0.095342,-3.1835,0.22358,-3.2058,8.64,34.74,22.68
2.6696,-11.332,-0.027241,-3.0549,0.1124,-3.1408,7.62,34.02,23.7
2.6151,-11.223,0.027241,-2.8124,-0.19517,-2.9276,6.0,32.28,25.62
2.2882,-11.06,0.01362,-2.6429,-0.33384,-2.751,5.22,31.38,26.58
2.1384,-10.842,0.20431,-2.5647,-0.34514,-2.6435,4.2,30.3,27.54
1.6072,-10.256,0.38137,-2.3176,-0.16677,-2.2999,3.18,29.1,28.56
1.185,-9.507,0.49033,-2.1539,0.029322,-2.0513,1.08,26.58,30.24
1.0624,-9.0712,0.53119,-1.9233,0.21411,-1.763,-0.06,25.2,30.9
1.0624,-8.0632,0.42223,-1.4633,0.39615,-1.27,-1.92,22.26,32.28
0.78998,-7.2188,0.36775,-1.2724,0.41264,-1.0889,-2.88,20.7,32.94
0.5993,-7.069,0.49033,-0.56841,0.44104,-0.41905,-3.54,19.14,33.66
0.50395,-7.0281,0.57205,-0.30024,0.48991,-0.14661,-4.14,17.58,34.14
0.64016,-6.5786,0.14982,0.53939,0.74678,0.77366,-5.34,14.88,35.1
0.99429,-5.9112,-0.24517,1.1023,0.93371,1.2627,-5.94,13.86,35.4
1.2803,-6.1155,-0.40861,1.6335,0.87781,1.617,-6.6,12.96,35.58
1.58,-8.5944,-1.2122,2.3512,0.46365,2.0501,-7.74,11.64,35.82
1.9477,-10.692,-1.5936,2.7568,-0.073609,2.3445,-7.92,11.46,35.88
2.152,-12.681,-1.8387,3.0418,-0.67928,2.6408,-8.28,11.46,35.7
2.0567,-14.206,-1.7979,3.2089,-1.1277,2.9563,-8.46,11.64,35.4
1.8115,-14.928,-1.6072,3.2516,-1.2782,3.2611,-8.28,12.9,34.56
1.9613,-14.124,-1.5391,3.1628,-0.89309,3.5806,-7.98,13.74,34.08
1.4982,-12.204,-2.6015,3.135,-0.64385,3.6108,-7.08,16.08,32.7
1.2122,-11.373,-3.2416,3.0974,-0.0076358,3.5653,-6.66,17.46,32.04
1.1169,-11.087,-3.6094,3.0394,0.63316,3.3756,-6.24,19.02,31.38
1.9205,-10.828,-2.9965,2.7455,1.2184,2.9725,-4.8,22.2,30.12
2.3427,-10.869,-2.547,2.5021,1.4972,2.7025,-3.9,23.7,29.4
2.7241,-10.978,-2.2065,2.277,1.7443,2.5088,-1.44,26.52,27.9
3.5685,-12.258,-2.656,2.1121,1.9166,2.3433,-0.24,27.96,27.12
4.2632,-13.035,-3.0918,1.8473,1.9603,2.2211,1.02,29.1,26.16
4.8352,-13.375,-3.6366,1.6637,1.8314,2.0317,2.34,30.06,25.26
5.6116,-12.572,-4.3994,1.5094,1.6503,1.8167,4.92,31.62,23.52
5.3528,-11.509,-4.413,1.387,1.4728,1.5797,5.94,32.16,22.74
5.0395,-10.842,-4.3721,1.2587,1.3024,1.2917,7.08,32.82,21.96
4.9033,-10.651,-4.6037,1.1836,0.84727,0.84147,8.76,33.66,20.52
5.0668,-11.305,-5.1213,1.128,0.42699,0.61545,9.6,34.08,19.74
5.094,-11.632,-5.4209,0.93279,0.043982,0.45998,10.62,34.08,19.08
5.094,-11.632,-5.4209,0.66432,-0.11454,0.35461,10.62,34.08,19.08
5.094,-11.632,-5.4209,0.39798,-0.071166,0.24709,10.62,34.08,19.08
4.3858,-13.089,-5.6116,0.25045,0.043982,0.10324,12.3,34.44,17.34
4.5083,-13.225,-6.674,0.034208,0.14875,-0.065363,13.5,34.86,15.78
4.5083,-11.155,-5.598,-0.59865,0.27367,-0.34025,13.86,34.98,15.18
3.9908,-9.221,-3.7728,-1.127,0.52748,-0.78527,14.34,35.22,14.28
3.9908,-9.221,-3.3506,-1.0418,0.42883,-1.0843,14.46,35.34,13.98
5.2166,-12.572,-4.0316,-0.9218,-0.02474,-1.4154,14.28,35.76,13.32
6.0202,-14.424,-3.9363,-1.106,-0.78069,-1.6573,13.8,35.58,13.5
6.3471,-15.01,-3.5685,-1.4456,-1.5711,-1.6765,13.62,35.58,13.8
6.3062,-16.154,-2.8058,-1.7211,-2.19,-1.5934,12.72,35.4,14.16
5.2166,-16.481,-2.2746,-2.1108,-2.7016,-1.6451,11.64,35.28,15.06
3.6503,-14.928,-1.9613,-2.2379,-2.6921,-1.7248,10.5,34.92,16.08
2.2065,-12.367,-1.4574,-2.4257,-2.215,-2.1112,9.42,34.74,17.82
1.9205,-11.441,-1.0896,-2.4997,-1.6322,-2.4322,8.22,34.44,19.2
2.0294,-10.992,-0.76274,-2.5904,-1.0259,-2.7153,6.9,34.2,20.88
2.1793,-10.542,-0.53119,-2.6912,-0.53329,-2.9083,5.46,34.08,22.08
2.3155,-10.351,-0.46309,-2.7217,-0.17135,-3.0873,4.86,33.84,22.8
2.5606,-10.365,-0.50395,-2.6786,-0.18021,-3.142,3.54,33.24,24.06
2.656,-10.637,-0.46309,-2.6151,-0.3262,-3.0907,2.58,32.28,25.5
2.6015,-10.746,-0.50395,-2.5076,-0.52412,-2.9456,1.86,31.74,26.1
2.3155,-10.678,-0.47671,-2.4068,-0.69608,-2.7559,0.66,30.42,27.78
1.975,-10.719,-0.46309,-2.3167,-0.72846,-2.5571,-0.06,29.58,28.5
1.3757,-10.801,-0.14982,-2.2648,-0.59804,-2.3127,-1.32,27.6,29.58
0.98067,-10.42,0.027241,-2.2092,-0.11576,-1.9688,-2.16,25.44,30.72
0.8036,-10.243,0.17706,-2.1176,0.29535,-1.6933,-2.46,24.24,31.44
0.76274,-9.9973,0.29965,-1.9563,0.62889,-1.4032,-3.3,21.48,32.82
0.89894,-9.0848,0.47671,-1.6622,0.84208,-1.1301,-4.14,18.9,34.08
0.8036,-8.1995,0.57205,-1.2825,0.90744,-0.82986,-4.5,17.58,34.62
0.31327,-8.8124,0.7355,-0.78527,0.84422,-0.44563,-5.22,15.42,35.64
0.054481,-8.4446,0.99429,0.065973,0.84819,0.43891,-5.88,13.56,36.36
-0.054481,-7.355,0.8036,0.65699,0.97677,0.92729,-6.12,12.72,36.54
0.14982,-7.355,0.32689,1.2733,1.0024,1.3158,-6.6,11.58,36.66
0.84446,-9.9292,-0.43585,1.8198,0.83444,1.7034,-7.38,10.8,36.9
1.3348,-11.25,-0.50395,2.3011,0.34789,2.0678,-7.56,10.74,36.72
1.6617,-13.866,-0.92618,2.6243,-0.43402,2.3995,-7.98,11.04,36.24
1.1441,-15.159,-0.99429,2.8543,-1.3796,2.9102,-7.98,12.18,35.52
1.1441,-15.364,-0.98067,2.832,-1.3757,3.3033,-7.74,13.02,35.04
1.3348,-14.192,-1.0351,2.7315,-0.90286,3.6484,-7.32,15.42,34.02
1.2667,-12.463,-1.9886,2.6386,-0.15516,3.8924,-6.66,18.0,33.0
0.7355,-11.591,-2.7786,2.6234,0.83291,3.9612,-5.94,20.58,32.16
0.72188,-11.332,-2.833,2.5895,1.8445,3.8689,-5.4,21.66,31.86
1.7706,-11.536,-1.8932,2.4575,2.5745,3.6588,-4.02,24.12,31.08
2.2882,-11.55,-1.471,2.0873,3.2584,3.3451,-3.12,25.08,30.72
3.6366,-12.0,-1.3893,1.8744,3.5268,3.2009,-1.5,26.94,30.06
5.4481,-13.089,-2.3836,1.6915,3.5332,3.1472,0.3,28.5,29.4
6.3198,-13.634,-3.2689,1.5452,3.1078,3.0155,1.74,29.64,28.44
8.2812,-13.661,-3.4187,1.4148,1.8369,2.7266,2.4,29.94,28.14
8.2812,-12.572,-3.6366,1.3528,1.4022,2.5708,3.84,30.48,27.24
7.3277,-11.305,-4.0044,1.2312,0.30055,2.0638,5.1,30.9,26.16
6.4833,-10.229,-4.3858,1.1994,-0.219,1.6109,6.42,31.38,24.78
5.8704,-9.8339,-4.9033,1.2077,-0.59865,1.1335,7.62,32.04,23.4
5.4345,-9.9156,-5.2166,1.1936,-0.82284,0.75625,8.58,32.7,22.38
5.094,-10.46,-5.5162,1.0678,-0.9331,0.49938,9.0,33.06,21.9
4.9306,-10.624,-5.6116,0.67134,-0.82711,0.25626,10.02,33.6,20.76
4.7671,-10.924,-5.38,0.38393,-0.57788,0.11851,10.44,33.84,20.28
4.8897,-12.19,-5.2575,0.19242,-0.35064,-0.031765,11.52,34.32,19.44
5.4754,-13.607,-6.0066,-0.079412,-0.20922,-0.2303,12.48,34.44,18.9
5.1757,-12.054,-5.2847,-0.70891,-0.052229,-0.55314,13.2,34.8,18.48
4.5628,-10.61,-4.2904,-1.3787,0.24954,-0.95814,13.74,34.8,18.3
3.8682,-8.9622,-2.7241,-1.3341,0.5171,-1.6173,14.16,34.92,18.3
5.0531,-12.204,-3.0918,-1.0721,0.33017,-2.0678,14.34,34.8,18.54
5.7069,-13.838,-3.4187,-1.1008,-0.23182,-2.3243,14.28,34.74,18.72
7.6955,-17.107,-3.6366,-1.4276,-1.0305,-2.3827,13.92,34.56,19.38
7.9679,-18.524,-2.9829,-1.8607,-1.8735,-2.3488,13.62,34.44,19.92
6.9872,-18.66,-2.0839,-2.0806,-2.6096,-2.2593,13.14,33.96,20.82
5.2438,-17.57,-1.471,-2.2242,-3.3695,-2.3995,12.66,33.42,22.02
3.337,-15.732,-0.85808,-2.3738,-3.4129,-2.5925,12.18,32.94,23.4
2.2474,-14.601,-0.72188,-2.5626,-3.0143,-2.7837,11.46,32.28,24.84
1.7298,-13.702,-0.51757,-2.7819,-2.3433,-3.0082,10.74,31.8,25.98
1.7298,-12.844,-0.31327,-2.97,-1.5736,-3.1921,10.26,31.26,26.7
1.7706,-12.204,-0.1362,-3.1145,-0.95051,-3.3182,9.9,30.48,27.42
1.7843,-11.904,-0.054481,-3.2073,-0.33567,-3.4685,9.6,30.12,27.84
1.866,-11.387,-0.054481,-3.146,-0.11148,-3.5149,9.12,29.16,28.62
1.9886,-10.91,0.01362,-3.036,-0.0033598,-3.47,8.4,28.02,29.34
2.1929,-10.637,-0.027241,-2.8717,-0.011912,-3.3433,7.14,26.76,30.0
2.1929,-10.501,-0.054481,-2.6789,-0.10507,-3.1591,6.12,25.14,30.54
1.866,-10.243,0.054481,-2.4945,-0.19853,-2.9377,4.98,23.22,31.32
1.471,-9.6023,0.14982,-2.3363,-0.21961,-2.6686,3.84,21.0,31.98
1.2531,-9.2618,0.44947,-2.1084,-0.14966,-2.1887,3.12,19.92,32.34
0.91256,-8.6762,0.47671,-1.9264,-0.053756,-1.8369,2.04,17.94,32.88
0.31327,-7.8045,0.61292,-1.6756,0.1011,-1.4645,0.78,15.78,33.42
-0.1362,-6.5786,0.76274,-1.3412,0.30146,-1.0409,-0.24,13.92,33.9
-0.35413,-5.8976,0.84446,-0.90042,0.54184,-0.5791,-0.78,13.08,34.14
-0.40861,-5.5162,0.64016,-0.032987,0.87232,0.34392,-1.92,11.4,34.44
0.31327,-5.9657,0.01362,0.62766,1.0238,1.1041,-2.7,9.78,34.56
0.76274,-5.8431,-0.35413,1.262,1.0815,1.7587,-2.94,9.18,34.56
1.5119,-6.3198,-0.76274,1.8457,0.92852,2.2565,-3.42,8.64,34.56
1.9613,-7.75,-1.8387,2.3503,0.50732,2.6484,-3.96,8.52,34.32
2.4653,-11.032,-2.547,2.7831,-0.16738,2.9908,-4.26,8.94,34.14
2.4653,-11.032,-2.547,2.9645,-0.58399,3.1533,-4.26,8.94,34.14
2.152,-15.418,-2.3563,3.4034,-2.1579,3.6951,-3.78,11.04,32.94
1.7025,-16.617,-2.0158,3.3634,-2.4688,3.8918,-3.3,12.0,32.4
1.0896,-16.44,-1.7706,3.1374,-2.1512,4.0629,-1.8,14.28,31.2
-0.21793,-14.369,-2.152,2.8448,-1.1405,4.109,-0.24,17.28,29.88
-1.0624,-13.28,-2.656,2.6625,0.51985,4.0073,0.6,18.78,29.22
-1.2803,-12.381,-2.7513,2.5308,2.4013,3.7443,2.28,21.6,28.14
0.027241,-12.354,-1.471,2.1909,4.631,3.2498,4.2,23.7,27.24
1.2258,-12.449,-0.85808,1.9016,5.6047,3.0171,5.22,24.54,27.0
2.8603,-12.926,-0.34051,1.6154,6.112,2.8527,7.26,25.86,26.46
5.2438,-13.443,-0.69464,1.3482,6.0689,2.7455,8.64,26.58,26.04
7.5865,-13.416,-1.58,1.1286,5.3665,2.7523,9.42,27.12,26.1
9.6704,-12.926,-2.4653,0.99174,3.2416,2.8876,9.66,27.12,26.28
10.311,-12.245,-3.0646,0.94959,1.3216,2.9541,9.66,27.0,26.28
9.4798,-10.692,-3.8682,1.0791,-0.43677,2.8457,9.72,26.7,26.46
8.3765,-10.079,-4.2495,1.2511,-1.657,2.5317,10.08,26.34,26.4
7.1915,-10.324,-4.7126,1.4065,-2.2449,2.2025,10.62,26.34,25.8
6.7012,-10.61,-5.0395,1.4389,-2.3509,1.9178,10.98,26.4,25.38
5.8295,-11.182,-5.6116,1.3204,-2.1225,1.5495,11.7,26.82,24.42
5.5162,-11.169,-5.6116,0.91416,-1.2935,0.87354,12.9,27.18,23.52
5.2983,-10.924,-5.3528,0.60201,-0.63561,0.43219,13.56,27.24,22.98
5.7342,-11.931,-5.3392,0.48808,-0.17501,-0.013134,15.06,27.42,21.96
6.7285,-13.43,-6.2381,0.25229,0.049175,-0.46273,16.74,27.6,20.82
6.5922,-12.994,-5.9385,-0.43799,0.13378,-0.93523,17.52,27.66,20.4
4.9169,-9.5615,-4.0044,-0.94287,0.24557,-1.3463,18.66,27.72,19.44
4.9033,-9.4934,-3.4459,-0.91202,0.26206,-1.7346,19.14,27.84,18.9
5.4481,-11.141,-3.6366,-0.70311,-0.089186,-2.084,19.44,27.84,18.66
7.0826,-14.628,-4.4402,-0.87445,-1.2596,-2.383,19.62,28.02,18.36
8.0496,-16.739,-4.0589,-1.2559,-2.1909,-2.3356,19.5,28.02,18.18
8.0088,-18.265,-3.1599,-1.6851,-3.0,-2.1872,19.26,28.02,18.18
6.3471,-18.878,-1.8115,-2.0275,-3.6383,-2.0885,18.66,27.9,17.88
4.985,-17.843,-1.3348,-2.3442,-3.9422,-2.1658,18.36,27.84,17.76
2.547,-15.214,-0.89894,-2.7532,-3.565,-2.4838,17.76,27.84,17.88
1.5391,-14.056,-0.62654,-2.9813,-2.8146,-2.7852,17.28,27.9,18.12
1.1032,-13.416,-0.6674,-3.1768,-1.8534,-3.0687,16.68,27.9,18.24
1.471,-13.212,-0.17706,-3.364,-0.99052,-3.2507,15.24,28.08,18.66
1.5936,-12.994,-0.01362,-3.5064,-0.083689,-3.3695,14.46,28.38,18.9
2.0294,-12.64,0.095342,-3.4572,0.18173,-3.4053,13.68,28.32,19.08
2.5334,-12.326,-0.01362,-3.302,0.23305,-3.3527,11.94,28.08,19.74
2.6968,-12.231,-0.054481,-3.1072,0.1127,-3.1768,11.1,27.96,20.28
2.7513,-11.986,-0.054481,-2.8799,-0.076664,-2.9453,10.26,27.48,20.64
2.6423,-11.795,0.19068,-2.6777,-0.22938,-2.7037,8.04,26.7,21.9
1.975,-10.433,0.54481,-2.4529,-0.16738,-2.3622,6.84,26.22,22.8
1.757,-9.9292,0.7355,-2.3958,-0.080023,-2.2663,5.64,25.56,23.64
1.3212,-9.1665,0.92618,-2.2761,0.17807,-2.1203,4.38,24.78,24.48
0.98067,-8.1313,0.8717,-2.0076,0.64568,-1.8757,1.56,22.8,26.1
1.1305,-7.5457,0.85808,-1.708,0.7813,-1.6081,0.18,21.72,26.94
1.1032,-6.9191,0.85808,-1.3115,0.77458,-1.2694,-0.9,20.58,27.84
0.70826,-6.3607,0.88532,-0.51252,0.62369,-0.55008,-2.94,17.76,29.64
0.57205,-6.3607,0.89894,0.079412,0.60659,0.13561,-4.08,16.68,30.72
0.54481,-5.9385,0.76274,0.39248,0.63499,0.51252,-5.16,15.6,31.44
0.89894,-5.1894,-0.21793,1.3115,0.80237,1.5269,-6.96,13.56,32.46
1.2531,-5.6661,-0.89894,1.835,0.76908,2.0015,-7.86,12.96,33.12
1.6072,-7.0962,-1.6617,2.2794,0.42211,2.3705,-8.46,12.36,33.48
2.0567,-10.351,-2.3427,2.6588,-0.52351,2.8494,-9.36,12.0,33.9
2.0839,-13.471,-2.3427,3.0134,-1.2202,3.1133,-9.72,12.12,33.9
1.9205,-14.642,-2.1112,3.0473,-1.616,3.3704,-9.78,12.54,33.78
1.2395,-15.759,-1.1577,2.8924,-1.6069,3.5885,-9.24,13.98,33.12
1.3076,-14.969,-1.0215,2.6612,-1.1353,3.6967,-8.76,15.12,32.64
1.1577,-14.043,-1.5119,2.5653,-0.25381,3.7101,-8.28,16.38,32.16
0.58567,-12.463,-3.0918,2.6188,1.4716,3.5311,-6.96,19.5,31.02
0.78998,-12.122,-3.2416,2.6399,2.2865,3.2834,-6.24,20.94,30.24
1.5663,-11.768,-3.0646,2.6114,2.5638,3.1603,-5.34,22.5,29.64
3.2825,-11.891,-1.9613,2.398,2.8802,2.9352,-3.24,25.44,28.38
4.2223,-12.217,-1.7706,2.2122,2.6924,2.7773,-1.98,26.7,27.48
5.0395,-12.64,-1.7434,2.051,2.2232,2.6854,-0.84,27.96,26.76
6.1292,-13.484,-2.5742,1.8332,1.2562,2.627,1.8,30.24,25.02
6.4152,-13.321,-3.0237,1.7523,0.55283,2.4774,3.18,31.26,24.18
6.1836,-12.34,-3.7456,1.7449,0.28161,2.3775,4.5,32.04,23.28
5.2166,-11.278,-4.1678,1.7535,-0.19059,1.9988,6.78,33.24,21.78
4.699,-10.76,-4.0589,1.6979,-0.19884,1.6851,7.98,33.66,21.0
4.2904,-10.624,-4.1542,1.6521,-0.11179,1.4038,9.18,33.9,20.16
4.5901,-11.305,-4.9033,1.5699,-0.071471,1.1185,11.46,34.02,18.24
4.985,-11.605,-5.38,1.2801,-0.17379,0.97464,12.6,34.14,17.28
5.2575,-11.822,-5.5843,1.1664,-0.19364,0.91294,13.86,34.26,16.32
5.9657,-12.926,-5.5571,0.8546,-0.23976,0.71654,15.9,34.62,14.34
6.4833,-14.043,-6.0202,0.70311,-0.36652,0.55711,16.86,34.74,13.56
6.8647,-14.397,-6.6876,0.14997,-0.53878,0.28375,17.82,34.86,12.78
5.7614,-11.496,-5.5162,-0.62186,-0.61423,-0.13286,19.38,35.04,11.22
4.8897,-10.202,-4.5901,-1.1435,-0.51068,-0.7926,19.92,35.16,10.68
4.1814,-10.011,-3.4459,-1.0989,-0.52931,-1.0333,20.34,35.28,10.32
4.9442,-12.245,-4.127,-0.94684,-0.84971,-1.7257,21.0,35.64,9.66
6.0202,-14.724,-4.6445,-1.1771,-1.3836,-1.8491,21.06,35.94,9.48
6.9191,-16.835,-4.304,-1.679,-1.9126,-1.7788,20.94,36.24,9.3
6.3062,-19.355,-2.6696,-2.3094,-2.2779,-1.7052,20.34,36.72,9.72
5.094,-18.673,-1.9886,-3.1059,-2.4346,-1.8466,20.1,36.84,10.14
3.1872,-15.514,-1.5527,-3.2171,-2.3534,-1.985,19.62,36.9,10.8
2.1248,-13.974,-1.2531,-3.2773,-1.7226,-2.4813,18.48,37.08,12.48
1.8115,-13.307,-1.2122,-3.3396,-1.088,-2.7706,17.52,37.14,13.38
1.9341,-13.021,-1.0488,-3.4111,-0.46701,-3.0333,16.5,37.2,14.22
2.0567,-12.313,-0.24517,-3.4505,0.068722,-3.2495,14.4,37.32,16.68
2.261,-12.122,-0.24517,-3.4358,0.51007,-3.3998,13.32,37.26,17.76
2.6287,-11.741,0.24517,-3.4092,0.52901,-3.4462,12.12,37.08,18.84
2.6151,-11.795,0.29965,-3.2477,0.2248,-3.4828,9.72,36.24,21.24
2.656,-11.741,0.23155,-3.1841,0.090713,-3.4199,8.52,35.46,22.5
2.5334,-11.741,0.24517,-2.9373,-0.27336,-3.1457,7.2,34.62,23.88
2.152,-11.182,0.34051,-2.7623,-0.39004,-2.9205,4.5,32.64,26.28
1.8524,-10.815,0.35413,-2.4978,-0.31948,-2.5381,3.12,31.56,27.36
1.2122,-9.7658,0.74912,-2.4108,-0.25779,-2.3863,0.36,29.22,29.34
1.1305,-9.1937,0.77636,-2.109,-0.08491,-1.9319,-0.9,27.84,30.24
0.99429,-8.6081,0.88532,-1.9801,-0.054367,-1.7776,-1.98,26.46,31.08
0.76274,-8.2948,0.96704,-1.4697,0.050091,-1.2556,-3.0,24.96,31.98
-0.027241,-7.2869,1.3893,-1.0391,0.21411,-0.83994,-5.28,21.96,33.36
-0.23155,-7.4231,1.4846,-0.208,0.59254,-0.014966,-6.24,20.46,34.02
-0.19068,-7.0281,1.3076,0.12187,0.7364,0.33292,-7.14,18.96,34.56
0.57205,-6.4424,0.83084,0.80451,0.97738,1.0495,-8.7,16.62,35.46
1.2531,-6.7966,0.29965,1.5232,1.1035,1.6417,-9.48,15.84,35.82
1.7298,-8.0088,-0.17706,2.4847,0.63897,2.3372,-10.02,15.3,35.82
2.3155,-11.387,-0.99429,3.0055,-0.042455,2.6518,-10.86,14.76,35.94
2.3155,-12.994,-1.3348,3.5122,-1.2712,2.9526,-11.22,14.82,35.76
2.0294,-14.383,-1.4301,3.605,-1.5999,3.0543,-11.34,15.18,35.34
1.6208,-15.255,-1.3484,3.6334,-2.0049,3.2513,-11.1,16.74,34.44
1.4301,-14.451,-1.2258,3.5048,-1.982,3.4334,-10.8,17.94,33.84
1.2939,-13.729,-1.3484,3.1808,-1.1912,3.6038,-10.32,19.32,33.06
0.50395,-12.095,-2.261,3.0345,-0.29077,3.6166,-8.88,22.26,31.26
0.095342,-11.782,-2.7241,2.9263,1.343,3.3601,-7.92,23.76,30.36
0.42223,-11.591,-2.6968,2.7813,1.832,3.2284,-5.76,27.24,28.62
1.5119,-11.768,-2.0975,2.4914,3.0855,2.8943,-4.5,28.74,27.72
1.9886,-12.136,-1.8251,2.2672,3.7385,2.8112,-3.06,30.12,26.64
3.3642,-13.212,-1.7706,2.0623,4.1181,2.7504,0.12,32.7,24.66
4.5356,-13.838,-2.2201,1.8466,4.1325,2.7156,1.74,33.96,23.7
5.6661,-14.138,-3.4459,1.6341,3.302,2.6261,4.92,35.76,21.9
8.1858,-13.266,-4.5083,1.4994,2.2694,2.4682,6.42,36.6,21.06
8.4991,-12.612,-4.6718,1.427,1.7685,2.3671,7.68,36.9,20.16
7.8998,-11.482,-4.7126,1.2239,0.86101,2.149,9.12,37.14,19.26
5.9112,-10.243,-4.6173,1.1478,-0.1069,1.6194,11.64,37.5,17.88
5.3664,-10.474,-5.0123,1.1668,-0.4554,1.1869,12.84,37.44,17.22
5.0804,-11.182,-5.2711,1.0745,-0.54672,0.82314,13.92,37.5,16.68
4.6718,-12.395,-5.38,0.65271,-0.24251,0.44074,16.08,37.26,14.88
4.7263,-12.912,-5.2302,0.40317,0.10293,0.2419,16.92,37.26,14.04
5.0259,-13.729,-5.7614,0.14478,0.38729,0.043677,17.76,37.38,13.38
5.6797,-13.498,-6.6331,-0.42761,0.56627,-0.25656,18.96,37.44,12.12
5.1349,-11.005,-5.2847,-1.0033,0.70036,-0.6524,19.5,37.38,11.58
4.4811,-9.4661,-3.9635,-1.1591,0.72998,-1.044,19.92,37.44,11.22
4.8761,-10.61,-3.4459,-0.93371,0.25229,-1.6142,20.34,37.2,10.62
5.8295,-12.98,-3.9227,-0.84299,-0.51588,-1.8781,20.46,37.38,10.5
6.7693,-14.955,-4.1542,-1.1845,-1.4407,-1.8973,20.34,37.56,10.38
7.6955,-17.38,-3.4051,-1.6515,-2.2807,-1.7853,19.86,37.56,10.32
7.2324,-17.516,-2.7377,-1.9991,-2.9645,-1.7342,19.38,37.68,10.5
6.0611,-16.603,-2.0975,-2.277,-3.3417,-1.8396,18.96,37.74,10.74
3.1872,-14.043,-1.0215,-2.5717,-3.1844,-2.2046,17.34,38.04,11.82
2.4789,-13.375,-0.8036,-2.7553,-2.6118,-2.5491,16.5,38.28,12.54
1.6481,-12.667,-0.84446,-2.8399,-2.2529,-2.7431,15.42,38.28,13.44
1.8387,-12.231,-0.64016,-3.1075,-1.0971,-3.1337,13.14,38.34,15.42
1.9886,-12.054,-0.39499,-3.2272,-0.49786,-3.2663,11.88,38.34,16.56
2.0839,-12.027,-0.20431,-3.2782,-0.10415,-3.3872,10.62,38.34,17.58
2.3155,-11.795,0.081722,-3.2254,0.16952,-3.4557,7.98,37.74,19.86
2.4517,-11.972,0.081722,-3.1105,0.14936,-3.3989,6.6,37.08,21.24
2.5198,-12.177,-0.1362,-3.0366,0.095906,-3.3353,5.28,36.42,22.56
2.5334,-12.572,-0.081722,-2.8304,-0.076358,-3.0873,3.78,35.76,23.94
2.2065,-12.34,0.17706,-2.6957,-0.069639,-2.9013,2.34,34.86,25.44
1.6344,-11.141,0.58567,-2.5638,0.052534,-2.7052,-0.72,32.58,28.14
1.3484,-10.678,0.7355,-2.3912,0.1909,-2.4859,-1.98,31.2,29.46
1.2531,-9.5342,0.68102,-2.1802,0.26237,-2.2199,-4.68,28.02,31.86
1.0896,-9.0303,0.77636,-1.6976,0.22846,-1.7718,-5.88,26.34,32.94
0.84446,-8.6081,0.89894,-1.4994,0.21441,-1.5873,-7.2,24.6,33.9
-0.64016,-7.4095,1.5663,-0.79229,0.25687,-0.91141,-9.42,20.88,35.52
-1.6344,-6.9872,1.8115,-0.21166,0.57879,-0.33659,-10.44,18.96,36.3
-2.3836,-6.3471,1.1713,0.43982,1.0153,0.38973,-11.34,17.28,37.02
0.21793,-6.1564,0.32689,1.543,1.5018,1.445,-12.96,14.7,37.86
1.58,-7.6683,-0.35413,2.2297,1.2465,2.0327,-13.62,13.62,38.22
2.3155,-9.398,-0.98067,2.7834,0.40836,2.5513,-14.22,12.9,38.34
2.5334,-12.708,-1.3348,3.1832,-0.81764,2.8928,-15.06,12.3,38.28
2.152,-14.519,-1.1713,3.4257,-1.9032,3.0684,-15.12,12.42,38.1
1.7025,-16.222,-0.83084,3.4642,-2.4642,3.2263,-15.24,13.02,37.74
1.3212,-14.914,-0.7355,3.1618,-2.2837,3.4114,-14.64,14.94,36.78
0.99429,-13.566,-1.0624,2.9416,-1.5623,3.3763,-14.16,16.08,36.24
0.68102,-12.681,-1.5119,2.9031,-1.0635,3.3164,-13.32,17.58,35.58
-0.23155,-11.087,-2.7513,2.8894,0.81215,3.0293,-11.64,21.0,34.26
0.027241,-10.869,-3.0101,2.8766,1.8653,2.7425,-10.62,22.92,33.6
0.89894,-10.896,-2.9011,2.7996,2.5788,2.5134,-9.6,24.78,32.88
2.5061,-11.441,-2.3427,2.573,3.1909,2.4068,-7.26,28.26,31.14
3.2553,-11.85,-2.4789,2.4774,3.229,2.4077,-5.88,30.0,30.18
4.1133,-12.299,-2.6423,2.2822,3.0375,2.47,-4.5,31.5,29.1
5.3937,-12.967,-3.4187,2.0192,2.1463,2.5779,-1.74,34.26,26.94
5.9521,-12.98,-4.2632,1.8668,1.3332,2.5953,-0.3,35.4,25.8
6.0611,-12.599,-4.9442,1.7544,0.60873,2.5244,1.02,36.3,24.72
6.1973,-12.272,-5.775,1.6466,0.06017,2.3176,3.66,37.8,22.5
5.6797,-11.904,-5.7205,1.4542,-0.083689,2.0183,4.92,38.4,21.42
4.8488,-11.809,-5.6661,1.2724,-0.042761,1.6854,6.12,38.82,20.28
4.1678,-12.122,-5.9385,0.9954,0.12065,1.004,8.58,39.54,18.0
4.2495,-12.422,-5.9112,0.76205,0.35491,0.51924,9.6,39.84,16.68
4.4947,-12.653,-5.6388,0.41478,0.6411,0.18051,10.8,40.08,15.48
5.6116,-14.397,-5.9521,0.067195,0.78099,-0.14447,12.72,40.5,13.38
5.9521,-14.587,-6.4697,-0.47067,0.7758,-0.416,13.38,40.74,12.66
5.7205,-13.103,-5.884,-0.89156,0.7703,-0.58124,14.22,40.86,12.06
4.8488,-10.842,-4.6309,-1.4618,0.75686,-1.0727,14.94,41.04,11.64
4.4402,-9.9701,-3.4187,-1.2,0.60781,-1.4099,15.72,41.16,10.92
5.0259,-11.836,-3.6775,-1.0388,0.16738,-1.7171,15.96,41.22,10.86
6.6331,-14.71,-4.0589,-1.2083,-0.551,-1.9224,15.66,41.16,10.98
7.4912,-16.481,-3.5685,-1.741,-1.8045,-1.8879,15.24,41.16,11.04
7.246,-16.93,-3.0782,-2.0907,-2.4978,-1.8088,14.76,41.1,11.4
4.7671,-15.064,-1.6889,-2.3573,-2.9215,-1.8595,13.44,40.98,12.36
3.5549,-13.675,-1.2258,-2.525,-2.9462,-2.076,12.96,40.92,13.14
2.5606,-12.735,-1.0215,-2.6512,-2.6148,-2.3787,12.06,40.74,14.16
1.5663,-12.149,-0.85808,-2.8118,-1.6643,-2.777,10.2,40.5,16.14
1.6072,-12.136,-0.84446,-3.0311,-0.98197,-2.9499,9.18,40.32,17.22
1.7298,-12.0,-0.54481,-3.0983,-0.68722,-3.0076,8.04,40.26,18.24
1.9613,-11.822,-0.49033,-3.1774,-0.069944,-3.1072,6.9,39.84,19.2
2.261,-11.605,-0.19068,-3.1398,0.11179,-3.1249,4.8,39.12,21.48
2.4108,-11.741,-0.14982,-3.065,0.16493,-3.0873,3.66,38.52,22.56
2.4108,-11.741,-0.14982,-2.9511,0.11698,-2.9804,3.66,38.52,22.56
2.4108,-11.754,-0.10896,-2.8204,0.036652,-2.8625,2.58,37.68,23.82
1.8387,-11.196,0.17706,-2.6114,0.067501,-2.6392,1.38,36.6,25.14
1.5391,-10.583,0.44947,-2.4511,0.22541,-2.4789,0.12,35.28,26.52
1.2395,-9.9973,0.54481,-2.2669,0.41111,-2.2825,-2.16,32.4,29.28
1.1305,-9.5887,0.65378,-2.0342,0.52718,-2.0149,-3.3,30.84,30.66
1.2395,-8.826,0.64016,-1.7159,0.52351,-1.7171,-4.62,29.16,31.92
1.0215,-7.5865,0.58567,-1.3146,0.42638,-1.361,-6.96,25.8,33.6
0.81722,-7.1507,0.53119,-0.8265,0.2532,-0.91599,-7.8,24.12,34.56
0.6674,-7.3822,0.55843,-0.26176,0.12462,-0.38668,-8.7,22.14,35.34
0.57205,-6.7421,-0.054481,0.63438,0.14691,0.58582,-10.5,18.66,36.84
0.88532,-6.0747,-0.61292,1.2058,0.25962,1.0577,-11.34,17.28,37.56
0.99429,-6.3335,-0.92618,1.6936,0.1573,1.3796,-12.0,15.96,38.22
0.83084,-8.3901,-1.4165,2.1029,-0.025656,1.6561,-13.02,14.1,39.0
0.8717,-10.202,-1.5936,2.5385,-0.2587,2.0516,-13.2,13.68,39.06
0.91256,-11.959,-1.7025,2.6176,-0.3427,2.1835,-13.38,13.8,39.0
0.85808,-13.757,-1.8387,2.7144,-0.52443,2.6661,-13.44,14.1,38.76
1.1577,-14.737,-1.7843,2.7049,-0.3937,3.0702,-13.14,15.6,37.92
1.3484,-13.838,-1.8796,2.6789,0.0042761,3.4166,-12.78,16.62,37.32
1.4165,-13.171,-2.0294,2.6655,0.87812,3.7025,-12.36,17.7,36.78
1.4165,-13.171,-2.0294,2.6652,1.1979,3.7128,-12.36,17.7,36.78
1.4438,-11.359,-2.8739,2.6047,1.9224,3.5018,-11.88,19.02,36.24
1.9613,-10.283,-2.547,2.4502,2.1118,3.2865,-10.44,22.38,34.86
2.6696,-10.556,-1.7979,2.2556,2.1441,3.0559,-8.58,25.74,33.24
3.1463,-11.359,-1.8524,2.0119,2.1218,2.8552,-6.42,28.62,31.14
3.6366,-12.286,-2.2201,1.8723,2.0433,2.8451,-5.34,30.12,30.18
4.4539,-13.225,-2.9692,1.726,1.8415,2.8491,-3.06,33.12,28.14
5.3119,-13.362,-3.5958,1.6469,1.5153,2.8118,-0.54,35.4,26.16
6.0338,-12.885,-4.3449,1.6182,1.1579,2.7199,1.74,37.02,24.48
6.3743,-12.408,-4.413,1.5363,0.88209,2.47,4.14,38.28,22.8
5.8976,-11.782,-4.3177,1.3622,0.79077,2.0785,6.54,39.06,21.12
5.1213,-11.278,-4.1406,1.1985,0.71624,1.6631,8.58,39.66,19.5
5.0531,-11.223,-4.2768,1.1121,0.59804,1.2446,9.6,39.96,18.9
5.2983,-11.645,-4.7263,0.95814,0.36713,0.56016,11.16,40.5,17.7
5.7069,-12.081,-4.9033,0.74526,0.24862,0.28894,12.72,40.68,16.44
5.993,-13.021,-4.8352,0.57941,0.099266,0.11729,13.8,40.98,15.6
6.4016,-14.124,-5.3937,0.4554,-0.082467,-0.018631,14.28,41.1,15.12
6.1564,-13.062,-5.9385,-0.47464,-0.281,-0.36255,15.06,41.34,14.28
5.1757,-10.706,-4.9578,-0.87384,-0.28588,-0.65271,15.42,41.22,14.16
4.2223,-8.8668,-3.8137,-0.86773,-0.27306,-0.82589,15.72,41.46,14.1
4.7944,-11.101,-3.8001,-0.50091,-0.5736,-1.3277,15.84,41.46,13.86
5.993,-13.566,-4.4811,-0.57727,-1.2208,-1.4868,15.9,41.4,13.8
7.1098,-15.282,-4.7671,-0.98227,-2.065,-1.4737,15.9,41.34,13.8
7.246,-17.162,-3.1872,-1.4294,-2.8149,-1.4032,15.6,41.34,13.68
6.3743,-17.094,-2.5742,-2.0479,-3.4749,-1.4566,15.54,41.4,13.8
4.1951,-15.963,-1.6753,-2.485,-3.3756,-1.6747,15.36,41.28,14.04
1.9477,-13.797,-1.3212,-2.8188,-2.8307,-2.0473,15.12,41.04,14.7
0.99429,-12.258,-1.2531,-3.0134,-2.0375,-2.4881,14.76,41.1,15.18
0.89894,-12.0,-1.1577,-3.1771,-1.1383,-2.821,14.22,41.1,15.84
1.3757,-11.782,-0.92618,-3.3307,-0.32437,-3.1667,13.08,41.16,17.28
1.4438,-11.441,-0.70826,-3.4199,0.5342,-3.3524,12.24,41.1,17.88
1.7979,-11.21,-0.57205,-3.3414,0.75839,-3.4755,11.28,40.86,18.42
2.5334,-11.673,-0.55843,-3.2907,0.75931,-3.4978,10.32,40.56,19.32
2.6015,-11.959,-0.38137,-3.087,0.43646,-3.3817,8.04,39.84,21.18
2.5061,-12.027,-0.34051,-2.9691,0.10629,-3.2025,6.6,39.18,22.26
2.2882,-11.891,-0.19068,-2.8735,-0.14844,-2.985,5.16,38.52,24.54
1.4165,-11.21,0.28603,-2.7318,-0.22602,-2.5705,2.28,36.6,25.74
1.2531,-11.087,0.40861,-2.6768,-0.19853,-2.4215,0.66,35.4,26.94
1.0079,-10.706,0.44947,-2.5439,-0.10324,-2.0821,-0.9,34.08,28.14
0.89894,-9.6977,0.6674,-2.1845,0.078191,-1.5574,-4.2,31.2,30.36
0.76274,-9.2618,0.76274,-1.8253,0.20617,-1.1726,-5.52,29.58,31.2
0.57205,-9.2346,0.78998,-1.3741,0.2981,-0.71746,-8.16,25.86,33.06
0.38137,-9.4117,0.9398,-0.53848,0.5342,0.19884,-8.16,25.86,33.06
0.24517,-6.9328,0.89894,0.098655,0.81306,0.80817,-10.32,22.62,34.86
0.5993,-5.9657,0.38137,0.78741,1.0281,1.2895,-11.4,21.24,35.7
1.0896,-6.4152,-0.23155,1.434,0.95906,1.6689,-12.3,19.92,36.3
1.4029,-7.8317,-0.5993,2.0403,0.57788,1.9682,-13.08,18.9,36.72
1.866,-12.149,-1.3076,2.5265,-0.11912,2.299,-14.16,17.52,36.96
1.7706,-13.511,-1.3348,2.8524,-0.90713,2.4957,-14.4,17.28,37.02
1.4165,-14.274,-1.2258,2.9969,-1.5299,2.6869,-14.52,17.34,36.84
1.1577,-14.056,-1.076,2.8937,-1.4532,2.8869,-14.52,17.82,36.54
1.1577,-11.754,-1.1713,2.7843,-1.0214,3.0629,-13.98,19.32,35.82
0.95342,-10.692,-1.7843,2.7578,-0.36133,3.1594,-13.56,20.46,35.28
0.65378,-10.106,-2.6015,2.7956,0.41203,3.1673,-12.96,21.84,34.68
0.99429,-9.7658,-2.9965,2.814,1.3311,2.9923,-11.7,24.84,33.18
1.6072,-9.9565,-2.6287,2.6903,1.6542,2.9331,-10.98,26.34,32.28
2.2201,-10.147,-2.4108,2.6044,1.7657,2.9166,-10.2,27.96,31.5
2.833,-10.91,-2.0022,2.3457,1.9209,2.9034,-7.74,31.08,29.52
3.3915,-12.408,-2.4789,2.2257,1.9178,2.9731,-6.36,32.64,28.44
3.8546,-13.375,-2.9148,2.0275,1.8418,3.0048,-4.92,34.02,27.66
4.5764,-13.28,-3.8682,1.887,1.7095,2.9239,-1.74,36.42,25.32
4.9033,-13.157,-4.3585,1.8283,1.4954,2.6915,-0.48,37.32,24.24
5.5026,-13.116,-5.0804,1.7923,1.4013,2.5629,0.96,38.22,23.16
6.4424,-12.204,-5.5026,1.46,1.1084,1.9041,3.9,39.6,20.76
5.8976,-11.414,-5.2575,1.1716,0.74495,1.4429,5.4,40.08,19.62
5.3528,-10.869,-5.2166,1.0898,0.30452,0.9951,6.78,40.38,18.48
4.808,-11.509,-5.2302,1.0256,-0.096211,0.49236,9.54,40.8,16.44
4.7399,-11.931,-5.2166,0.74006,-0.30635,0.0082467,10.98,41.1,15.36
4.6037,-12.735,-5.1349,0.59773,-0.29016,-0.065363,12.12,41.22,14.16
4.9033,-14.792,-6.279,0.18876,-0.19303,-0.18418,14.1,41.46,12.3
5.0531,-14.506,-6.8919,-0.49144,-0.09163,-0.32162,14.88,41.52,11.4
4.5628,-11.727,-5.6933,-1.1811,0.088881,-0.551,15.54,41.7,10.68
3.6775,-9.2891,-3.7047,-1.2156,0.26114,-1.0217,16.08,41.82,9.78
4.2223,-11.087,-3.3642,-0.9893,0.065668,-1.4132,16.38,41.94,9.6
4.7126,-12.503,-3.7456,-0.9838,-0.13775,-1.5705,16.44,42.06,9.42
5.9793,-14.928,-4.1542,-1.2208,-0.74556,-1.7309,16.26,42.06,9.3
6.8238,-16.576,-3.3915,-1.8537,-1.6704,-1.7468,15.6,41.94,9.6
5.8295,-16.671,-2.3699,-2.1912,-2.1041,-1.7724,15.0,41.88,9.96
4.6309,-15.582,-1.8387,-2.4651,-2.2877,-2.0327,13.62,41.82,11.04
2.6151,-13.579,-1.5936,-2.6927,-2.0772,-2.3711,12.6,41.7,11.76
2.0431,-12.585,-1.2531,-2.8075,-1.6585,-2.7077,11.82,41.52,12.72
1.8796,-12.245,-1.1713,-2.8588,-1.3748,-2.8488,10.74,41.34,13.74
1.9205,-11.645,-0.72188,-3.0287,-0.55803,-3.1771,8.34,41.04,16.14
2.0158,-11.482,-0.54481,-3.0708,-0.17074,-3.3179,7.26,40.56,17.34
2.1929,-11.441,-0.43585,-3.0742,0.0281,-3.4169,6.12,40.2,18.48
2.4517,-11.496,-0.25879,-3.0045,0.054062,-3.4496,3.66,38.94,20.94
2.4789,-11.319,-0.17706,-2.8399,-0.13347,-3.3616,2.52,37.98,22.32
2.3427,-11.182,-0.12258,-2.7712,-0.22022,-3.2929,1.5,36.96,23.7
1.9068,-10.665,0.040861,-2.533,-0.37324,-2.9871,-0.84,34.68,26.28
1.6208,-10.243,0.19068,-2.3699,-0.33078,-2.7336,-1.86,33.42,27.72
1.3212,-9.6841,0.40861,-2.1854,-0.19731,-2.4364,-2.82,32.1,28.68
0.91256,-8.8941,0.43585,-1.9761,-0.019242,-2.1115,-4.38,29.4,31.14
0.81722,-8.1722,0.44947,-1.7077,0.16371,-1.7614,-5.22,27.9,32.04
0.76274,-7.7364,0.49033,-1.3711,0.29993,-1.3744,-5.88,26.34,32.88
0.62654,-6.3198,0.39499,-0.72021,0.37049,-0.74892,-7.14,23.04,34.38
0.68102,-6.3062,0.31327,-0.17715,0.30543,-0.25229,-7.68,21.48,35.04
0.54481,-7.0281,0.19068,0.38362,0.21716,0.36408,-8.04,20.04,35.7
1.1713,-6.4016,-0.44947,0.94073,0.19853,1.197,-8.46,17.7,36.6
1.2258,-6.2381,-0.84446,1.6542,0.051007,1.4972,-8.7,16.92,36.9
1.1032,-7.3958,-1.1713,1.8567,-0.084605,1.6322,-8.82,16.32,37.08
1.0215,-10.76,-1.362,2.3686,-0.44166,2.0824,-8.64,15.72,37.14
1.1305,-12.667,-1.4438,2.5666,-0.61575,2.3433,-8.52,15.72,36.78
1.1305,-14.356,-1.4301,2.6649,-0.7871,2.609,-8.28,16.08,36.66
1.3076,-16.29,-1.6072,2.7129,-0.6463,3.0931,-7.62,16.98,35.64
1.4301,-15.99,-1.7706,2.693,-0.22663,3.3732,-6.96,17.88,35.1
1.866,-14.192,-2.0567,2.7199,0.33445,3.4929,-6.18,19.02,34.56
1.7979,-12.0,-3.051,2.7571,0.97128,3.4358,-4.86,21.54,33.18
1.7706,-10.706,-3.3097,2.7492,1.4282,3.215,-4.08,23.04,32.64
1.9886,-10.093,-3.1191,2.6402,1.6105,2.8931,-3.42,24.42,31.98
2.6696,-9.8066,-2.4517,2.3573,1.5427,2.4157,-1.62,27.0,30.66
3.0646,-9.9292,-2.2474,2.2009,1.4355,2.2345,-0.6,28.08,29.82
3.2416,-10.202,-2.1929,2.1432,1.3631,2.1979,0.42,29.22,28.98
3.6094,-11.25,-2.6968,1.9813,1.1212,2.1912,1.5,30.3,28.2
4.2768,-12.231,-3.7728,1.817,0.88453,2.2135,3.72,32.4,26.52
4.3313,-11.7,-4.1814,1.7193,0.62339,2.2019,4.92,33.12,25.56
4.304,-11.264,-4.6445,1.7144,0.40073,2.1612,5.94,33.84,24.66
4.0997,-10.733,-5.203,1.646,0.28527,2.0675,7.98,35.04,23.1
4.0997,-10.665,-5.2711,1.4148,0.3488,1.7654,9.0,35.22,22.2
4.3721,-10.719,-5.4618,1.335,0.37446,1.6503,10.2,35.52,21.36
5.0531,-11.836,-5.598,1.109,0.2926,1.2388,12.3,35.88,19.56
5.203,-12.408,-5.7478,0.84758,0.16677,0.93585,13.56,36.12,18.42
5.38,-12.721,-5.1894,0.48808,0.13744,0.58582,14.64,36.3,17.58
5.9249,-14.07,-5.38,0.23518,0.10415,0.24771,16.5,36.78,15.9
6.2245,-14.71,-6.3198,-0.22052,-0.0076358,-0.26206,17.34,36.84,15.24
5.8431,-13.974,-6.17,-0.60476,-0.0088575,-0.47831,18.18,36.9,14.52
3.8409,-9.902,-3.5685,-1.416,0.21655,-1.1075,19.44,36.9,13.62
3.732,-9.5342,-2.942,-1.2724,0.33201,-1.4786,19.8,36.84,13.38
4.2904,-11.101,-3.0101,-1.0351,0.12156,-1.8143,20.22,36.84,13.2
6.1292,-15.255,-3.6503,-1.3118,-0.80634,-2.0156,20.7,36.78,12.9
7.0009,-16.685,-3.6094,-1.5635,-1.1658,-1.9939,20.76,36.96,12.84
7.2188,-17.025,-3.3915,-2.1304,-2.2217,-1.8415,20.64,37.08,12.96
5.3528,-15.105,-2.0567,-2.1793,-2.6899,-1.8421,20.28,37.14,13.56
4.1406,-14.124,-1.5663,-2.2373,-2.8191,-1.9691,19.92,36.9,14.22
2.8739,-13.144,-1.1713,-2.386,-2.6087,-2.2055,19.5,37.08,14.64
1.7706,-11.931,-0.83084,-2.5693,-2.1585,-2.5256,18.48,37.26,16.08
1.6617,-11.836,-0.62654,-2.7556,-1.5186,-2.8433,17.82,37.44,16.74
1.7025,-11.673,-0.53119,-2.9291,-0.89858,-3.029,17.1,37.68,17.52
1.7843,-11.155,-0.24517,-3.0901,-0.29413,-3.2324,15.18,37.8,19.02
1.7979,-11.06,-0.19068,-3.1053,-0.06689,-3.2932,14.28,37.68,19.86
1.8932,-11.155,-0.19068,-3.0476,0.071471,-3.2684,13.38,37.56,20.76
1.9613,-11.169,-0.31327,-2.8439,0.13958,-3.0568,11.04,36.78,22.74
1.9613,-11.032,-0.38137,-2.7593,0.135,-2.9407,9.84,36.12,23.88
1.8251,-10.896,-0.24517,-2.4905,0.09896,-2.565,8.88,35.28,25.02
1.4165,-9.8475,0.19068,-2.3051,0.12492,-2.251,6.48,33.54,27.06
1.2667,-9.4661,0.28603,-2.1112,0.15241,-1.9096,5.22,32.52,28.08
1.185,-9.0575,0.32689,-1.9019,0.15669,-1.5568,3.9,31.38,29.1
0.88532,-8.2131,0.50395,-1.602,0.1744,-1.0342,1.38,28.68,30.9
0.62654,-7.5048,0.5993,-1.065,0.1967,-0.63102,0.48,27.18,31.68
0.61292,-7.069,0.54481,-0.59743,0.22999,-0.18051,-0.6,25.62,32.52
0.28603,-7.5321,0.70826,-0.078496,0.29719,0.416,-1.5,24.18,33.18
0.85808,-7.3141,0.35413,0.46029,0.50793,0.95387,-3.06,21.78,34.5
1.0624,-7.0417,0.35413,0.98227,0.63622,1.295,-3.9,20.76,34.98
1.1441,-9.4117,-0.21793,1.653,0.50885,1.7849,-4.8,19.2,35.52
1.3893,-10.828,-0.38137,2.0229,0.33628,2.0669,-5.04,18.78,35.64
1.6344,-11.768,-0.50395,2.3085,0.023213,2.3137,-5.4,18.6,35.64
1.6753,-14.315,-1.1577,2.5253,-0.26695,2.6008,-5.58,18.72,35.28
1.8387,-14.751,-1.3484,2.6731,-0.39859,2.9239,-5.46,19.02,34.8
2.152,-14.22,-1.3757,2.7245,-0.31857,3.1857,-5.28,19.56,34.32
2.3018,-12.013,-1.8251,2.7562,0.094379,3.3653,-4.5,21.6,33.0
2.0703,-10.883,-2.2201,2.7758,0.47342,3.3142,-4.32,22.68,32.64
1.9613,-10.093,-2.5606,2.7855,0.76144,3.1151,-3.84,23.82,31.98
2.0294,-9.8066,-2.6968,2.7562,0.82161,2.9987,-3.12,24.84,31.38
2.6151,-9.9156,-2.3836,2.5751,0.84269,2.6753,-1.56,27.06,30.06
2.833,-10.215,-2.261,2.4358,0.85338,2.5284,-0.54,28.08,29.22
3.0646,-11.223,-2.8058,2.3198,0.87904,2.4584,0.54,29.28,28.44
3.5004,-11.795,-3.3097,2.1307,0.91935,2.4193,2.88,31.08,26.52
3.732,-12.313,-3.6775,2.0296,0.90011,2.365,4.14,31.92,25.62
3.9363,-12.612,-4.127,1.9435,0.88698,2.2724,5.64,32.64,24.72
4.0589,-12.694,-4.4947,1.7935,0.94745,2.1063,6.9,33.42,23.88
4.6309,-12.081,-5.1485,1.5992,1.0464,1.8546,9.42,34.56,22.14
