Ax,Ay,Az,Gx,Gy,Gz,Mx,My,Mz
0.91256,-8.7987,-2.2065,1.4132,0.68875,2.4233,-10.02,38.16,24.12
1.185,-8.54,-2.3563,1.4523,1.3491,2.3054,-9.36,38.94,23.7
1.7025,-8.7034,-2.5742,1.5049,1.8824,2.1939,-8.46,39.54,23.1
2.5879,-8.8941,-2.7649,1.4508,2.2333,2.0699,-6.72,40.86,22.14
3.0646,-9.1801,-2.7922,1.3042,2.2297,2.0323,-5.64,41.28,21.6
3.5413,-9.8611,-2.9965,1.0947,2.094,2.0052,-4.8,41.82,21.12
4.1814,-9.9701,-3.2553,0.86865,1.7788,1.9154,-2.58,42.54,20.1
4.4811,-10.025,-3.5685,0.82009,1.5476,1.7865,-1.68,42.78,19.74
4.6582,-9.9837,-3.6775,0.82833,1.3256,1.5846,-0.72,42.84,19.38
4.9578,-9.7658,-4.1814,0.84971,1.1231,1.3124,1.68,43.08,18.96
5.1621,-9.7522,-4.3449,0.81489,0.95142,0.96425,2.7,43.08,18.78
5.2438,-9.8475,-4.3449,0.70769,0.78038,0.55894,3.78,42.9,18.48
5.094,-11.019,-3.9771,0.44043,0.43768,0.025045,5.64,43.08,17.82
4.8897,-11.863,-3.6775,0.1909,0.22571,-0.24068,6.48,43.14,17.34
4.7671,-12.844,-3.2144,0.098349,0.14783,-0.34819,7.02,43.26,16.98
4.6173,-14.22,-2.9556,-0.11942,-0.021686,-0.57482,7.68,43.26,16.62
5.0395,-14.383,-3.1599,-0.16616,-0.16402,-0.72693,8.22,43.5,16.02
5.1621,-13.362,-3.0373,-0.18204,-0.40989,-0.94318,8.52,43.62,15.78
5.094,-13.348,-2.2882,-0.33567,-0.80848,-1.2358,8.58,43.56,15.6
4.7399,-14.152,-1.8932,-0.85979,-1.5773,-1.6628,8.88,43.92,15.36
4.3177,-15.268,-1.5936,-1.1939,-2.0168,-1.8396,8.76,44.16,15.42
3.7456,-16.304,-1.2939,-1.325,-2.186,-1.9377,8.52,44.22,15.36
3.1191,-16.413,-0.9398,-1.6707,-2.2831,-2.2532,7.98,44.34,15.3
1.9613,-14.71,-0.24517,-1.8076,-2.0232,-2.5461,6.96,44.64,15.6
1.3893,-13.702,-0.14982,-1.8955,-1.3662,-3.0342,6.42,44.88,15.78
1.1441,-12.79,-0.16344,-1.8928,-1.1426,-3.1918,5.64,45.06,16.08
1.1441,-12.79,-0.16344,-1.8928,-1.1426,-3.1918,5.64,45.06,16.08
1.1441,-12.79,-0.16344,-1.8928,-1.1426,-3.1918,5.64,45.06,16.08
1.2531,-10.992,-0.38137,-1.6402,-0.47831,-3.4157,0.66,45.48,17.34
1.0624,-10.474,-0.17706,-1.6594,-0.60873,-3.2642,-2.28,45.6,18.06
0.53119,-9.5751,-0.054481,-1.7184,-0.70463,-3.0754,-5.4,45.42,19.2
0.35413,-9.1529,-0.054481,-1.7452,-0.83414,-2.8023,-6.78,45.06,19.8
0.10896,-8.7443,0.19068,-1.766,-0.96669,-2.4609,-8.16,44.76,20.28
-0.9398,-7.5865,0.62654,-1.7242,-0.90775,-1.8665,-10.92,43.68,21.66
-1.4846,-7.0553,0.57205,-1.5873,-0.67317,-1.4664,-12.18,43.14,22.32
-1.6753,-6.9328,0.65378,-1.3503,-0.32498,-1.0693,-13.56,42.42,23.04
-1.7979,-7.1507,0.64016,-1.0146,-0.0039706,-0.62278,-16.02,40.74,24.3
-1.58,-7.4231,0.62654,-0.63041,0.19945,-0.12828,-16.98,39.84,25.08
-1.1305,-8.0224,0.70826,-0.24893,0.28741,0.41081,-17.58,38.94,25.68
-0.69464,-8.7306,0.83084,0.28802,0.2813,1.1756,-18.54,37.26,26.94
-0.61292,-9.8203,0.85808,0.62797,0.30482,1.6512,-18.6,36.42,27.6
-0.32689,-10.924,0.91256,0.94837,0.39706,2.1182,-18.72,35.76,28.26
0.43585,-11.509,0.92618,1.2575,0.54306,2.7623,-18.72,34.98,28.86
0.7355,-11.605,0.54481,1.7599,0.65607,2.9984,-18.6,34.8,28.98
1.4165,-11.959,0.01362,1.9285,0.62766,3.0531,-18.48,34.56,29.04
1.9886,-13.648,-1.2531,2.2181,0.45326,3.0519,-18.24,34.68,28.92
1.9886,-14.369,-1.4438,2.3729,-0.009163,2.9157,-17.58,35.46,28.26
1.7706,-14.615,-1.4438,2.1707,-0.20739,2.8286,-17.1,36.18,27.72
1.7025,-14.002,-1.5119,1.8066,-0.18051,2.7587,-16.56,36.96,27.18
1.471,-10.801,-1.8796,1.4102,0.27,2.5687,-15.12,38.52,26.04
1.2939,-9.3844,-2.1248,1.3451,0.87109,2.361,-14.22,39.48,25.32
1.362,-8.3765,-2.152,1.3708,1.2162,2.2535,-13.14,40.32,24.78
2.3018,-7.9951,-2.3427,1.4206,2.0656,1.9594,-11.16,41.94,23.7
2.8467,-8.3357,-2.4653,1.3928,2.2712,1.8357,-10.08,42.6,22.98
3.4459,-8.7715,-2.6015,1.2431,2.2135,1.7923,-9.0,43.26,22.32
4.0725,-9.2482,-2.6423,1.0693,1.9697,1.8014,-6.6,44.22,21.18
4.127,-9.4798,-2.8739,0.84086,1.5849,1.7822,-5.58,44.88,20.82
4.1542,-9.7522,-2.9011,0.78771,1.4539,1.7193,-4.32,45.24,20.22
4.3994,-10.229,-3.3097,0.79382,1.3943,1.6683,-3.12,45.6,19.62
5.1757,-10.474,-3.7456,0.84299,1.1081,1.408,-0.66,46.02,18.84
5.5571,-10.501,-4.0589,0.84177,0.79779,1.1533,0.54,46.08,18.54
5.6524,-11.196,-4.2768,0.78221,0.44104,0.84788,2.7,46.26,17.76
5.4481,-11.918,-4.2495,0.56994,0.018937,0.33414,3.6,46.26,17.34
5.0531,-12.572,-3.909,0.3259,-0.10293,-0.014355,4.32,46.26,16.8
4.7399,-13.498,-3.5413,0.047037,-0.099266,-0.35797,4.92,46.56,16.32
4.6173,-14.478,-3.2144,-0.17623,-0.079107,-0.6744,5.52,46.56,15.84
4.7671,-14.329,-3.0101,-0.30513,-0.14661,-0.95142,6.36,46.62,15.18
5.0531,-13.702,-3.0237,-0.36194,-0.58368,-1.335,6.6,46.68,15.06
5.2847,-13.525,-2.6696,-0.41661,-0.84269,-1.4618,6.66,46.86,14.52
5.2711,-14.056,-2.2474,-0.67317,-1.4386,-1.6918,6.54,47.04,14.46
4.9987,-14.547,-1.7706,-1.2651,-2.2788,-1.974,6.48,46.98,14.52
3.8001,-16.099,-0.95342,-1.6246,-2.5809,-2.1512,5.82,46.62,14.64
3.1872,-15.963,-0.57205,-1.8922,-2.5406,-2.3463,5.4,46.56,14.88
2.5061,-15.159,0.040861,-2.0699,-1.879,-2.7348,4.08,46.2,15.42
1.7025,-13.144,0.39499,-2.0669,-1.2624,-3.0384,3.18,45.96,15.96
1.6753,-12.108,0.23155,-1.956,-0.7703,-3.317,2.1,45.72,16.68
1.6889,-11.387,0.081722,-1.8002,-0.45907,-3.4489,0.84,45.42,17.16
1.7434,-10.379,0.027241,-1.649,-0.33292,-3.4587,-1.44,44.94,17.94
1.866,-9.9973,0.054481,-1.5916,-0.41753,-3.3552,-2.88,44.58,18.42
1.7298,-9.9837,0.095342,-1.5941,-0.69455,-3.189,-5.4,43.68,19.32
1.0215,-9.221,0.095342,-1.6527,-1.1298,-2.8057,-6.72,43.08,19.86
0.55843,-8.7715,0.43585,-1.7055,-1.2963,-2.4679,-7.98,42.3,20.52
0.12258,-8.4855,0.54481,-1.7233,-1.2938,-2.2785,-9.06,41.4,21.0
-0.96704,-7.6683,0.96704,-1.701,-0.96395,-1.7071,-11.34,40.02,22.26
-1.185,-7.4776,0.89894,-1.5262,-0.60659,-1.3305,-12.54,39.18,22.74
-1.1305,-7.3822,0.76274,-1.2306,-0.26664,-0.956,-13.56,38.22,23.4
-0.88532,-8.0632,0.6674,-0.71838,0.044593,-0.34697,-14.88,36.48,24.54
-0.69464,-8.1313,0.64016,-0.54886,0.08827,-0.14783,-15.42,35.58,24.84
-0.58567,-8.1995,0.6674,-0.12645,0.10171,0.44227,-15.72,34.56,25.38
-0.6674,-8.7987,0.7355,0.16646,0.14019,0.82497,-16.62,32.76,26.52
-0.51757,-10.188,0.91256,0.47067,0.24343,1.2507,-16.74,32.04,27.06
-0.28603,-11.046,0.92618,0.79046,0.3708,1.7153,-16.86,31.32,27.42
0.7355,-10.815,0.44947,1.1087,0.47831,2.1197,-16.92,30.06,28.08
1.1169,-10.964,0.054481,1.4181,0.51404,2.368,-16.8,29.82,28.2
1.185,-11.536,-0.19068,1.6869,0.46029,2.4667,-16.8,29.82,28.44
1.4438,-12.926,-0.70826,1.8567,0.31765,2.4963,-16.74,29.76,28.38
1.2122,-13.825,-1.1577,1.8543,0.11087,2.5217,-16.26,30.3,27.72
1.2531,-13.321,-1.2803,1.7367,0.13439,2.6014,-16.2,30.78,27.24
1.2258,-12.136,-1.5391,1.5644,0.45357,2.697,-16.02,31.26,26.7
1.4165,-9.3572,-1.7706,1.5528,0.81703,2.649,-15.48,32.7,25.86
1.6753,-8.4174,-1.9341,1.584,1.2135,2.5565,-14.94,33.42,25.5
1.9068,-8.1177,-2.0158,1.6139,1.5299,2.456,-14.34,34.14,25.02
2.6423,-8.2131,-2.3972,1.5806,1.6698,2.379,-12.9,35.46,24.12
3.1191,-8.4174,-2.547,1.478,1.6414,2.3564,-12.18,36.18,23.64
3.4051,-8.7715,-2.656,1.2355,1.4282,2.3964,-10.2,37.68,22.74
3.7865,-9.7794,-2.6015,1.1561,1.3647,2.397,-9.24,38.28,22.26
3.909,-10.351,-2.7922,0.99052,1.3357,2.3198,-8.16,38.94,21.72
4.1406,-10.828,-3.0373,0.94592,1.4624,2.1762,-7.08,39.3,21.3
4.9169,-11.06,-3.3915,0.95753,1.6075,1.9316,-4.98,39.84,20.82
5.775,-11.387,-3.6775,0.97402,1.613,1.5855,-3.78,40.08,20.4
6.3607,-11.782,-3.9227,0.93279,1.3741,1.1857,-1.62,40.56,19.98
7.069,-12.871,-4.2223,0.73029,0.65179,0.58643,-0.72,40.74,19.5
6.9872,-13.253,-3.8273,0.48075,0.1631,0.16188,-0.72,40.8,19.08
6.4833,-13.729,-3.5549,0.17165,-0.18509,-0.26298,0.84,40.98,18.6
5.3664,-14.737,-3.2144,-0.12401,-0.28314,-0.68447,1.5,41.16,18.24
4.5764,-13.607,-3.2553,-0.28802,-0.16341,-1.0791,2.4,41.58,17.58
4.6718,-12.572,-3.0918,-0.32376,-0.10751,-1.5406,2.46,41.7,17.34
4.9306,-12.776,-2.7513,-0.47861,-0.55253,-1.7764,2.58,41.58,16.92
5.094,-13.362,-2.2882,-0.7871,-1.2168,-1.887,2.4,41.64,16.74
5.0531,-14.152,-1.8387,-1.127,-1.9991,-1.8922,2.04,41.64,16.86
4.2768,-15.514,-0.76274,-1.4557,-2.631,-1.8818,1.44,41.7,16.86
3.2008,-15.895,-0.44947,-1.6677,-2.9288,-1.9303,0.9,41.46,17.22
2.4789,-15.255,-0.44947,-1.8225,-2.8616,-2.0824,0.36,41.28,17.64
1.2531,-12.612,0.10896,-1.9123,-2.2025,-2.4945,-1.02,40.8,18.36
1.0079,-11.645,-0.068102,-1.8543,-1.543,-2.7868,-1.8,40.62,18.9
0.95342,-11.223,-0.14982,-1.7599,-0.97341,-3.0323,-2.7,40.32,19.56
1.1577,-10.501,-0.31327,-1.6808,-0.56444,-3.1298,-4.86,39.72,20.94
1.3484,-10.365,-0.27241,-1.6545,-0.35339,-3.1475,-5.94,39.36,21.48
1.4574,-10.324,-0.25879,-1.7095,-0.37874,-3.0916,-6.9,39.06,22.08
0.92618,-9.4798,0.16344,-1.839,-0.49236,-2.8763,-8.82,38.28,23.22
0.68102,-9.1937,0.34051,-1.8821,-0.51801,-2.7733,-9.84,37.62,23.94
0.42223,-8.8941,0.38137,-1.905,-0.58277,-2.5033,-10.68,36.9,24.42
-0.24517,-8.1313,0.76274,-1.8549,-0.50824,-1.9575,-12.36,35.4,25.68
-0.85808,-7.7908,0.95342,-1.722,-0.31551,-1.5663,-13.14,34.68,26.22
-1.0624,-7.3141,1.0351,-1.5302,-0.052229,-1.168,-13.98,33.72,26.76
-1.185,-7.2869,0.92618,-1.0736,0.31673,-0.52993,-15.48,31.98,27.72
-0.85808,-7.7636,0.91256,-0.69791,0.44288,-0.10996,-16.08,31.08,28.08
-0.62654,-7.9679,0.91256,-0.34086,0.4499,0.28619,-16.68,30.18,28.56
-0.55843,-9.0848,0.95342,-0.020769,0.43219,0.6744,-17.4,28.38,29.28
-0.54481,-9.9565,0.95342,0.2868,0.45479,1.076,-17.7,27.42,29.58
-0.40861,-10.801,1.0215,0.58826,0.51435,1.5217,-18.0,26.46,30.0
0.55843,-10.12,0.64016,0.89583,0.5791,2.1191,-18.48,25.14,30.66
1.0624,-10.311,0.64016,1.4352,0.52168,2.3133,-18.54,24.9,30.84
1.2395,-11.387,-0.34051,1.62,0.44593,2.376,-18.72,24.72,31.02
1.6889,-13.934,-1.1441,2.0507,-0.022907,2.5009,-18.78,24.96,30.78
1.6344,-14.628,-1.4438,2.1509,-0.37904,2.5867,-18.78,25.44,30.6
1.5119,-14.152,-1.7162,2.1264,-0.56108,2.6728,-18.66,25.98,30.18
1.471,-11.727,-2.0294,2.0256,-0.50671,2.6747,-18.24,27.42,29.4
1.3484,-9.9292,-2.1929,1.897,-0.038485,2.5149,-17.88,28.2,29.04
1.4438,-8.4174,-2.4108,1.8821,0.17532,2.4083,-17.58,29.04,28.8
1.9613,-7.4095,-2.7649,1.8415,0.72662,2.1057,-16.2,30.78,28.08
2.261,-7.5321,-2.7786,1.7459,0.91905,1.9991,-15.48,31.8,27.66
2.5742,-7.7227,-2.9011,1.5901,0.97586,2.0131,-14.7,32.82,27.12
3.0918,-8.7987,-3.0101,1.3381,0.85796,2.1753,-12.72,34.8,26.16
3.0918,-9.3436,-3.2961,1.2352,0.83536,2.2883,-11.82,35.64,25.68
3.2553,-10.011,-3.7047,1.1988,0.8491,2.3234,-10.62,36.42,25.2
3.4187,-10.515,-3.9227,1.1634,1.0363,2.3188,-9.6,37.08,24.84
3.9635,-11.182,-4.2087,1.1405,1.2226,2.1539,-8.52,37.8,24.6
5.3528,-11.482,-4.4402,1.0504,1.2459,1.8262,-5.94,38.7,23.82
5.8976,-11.441,-4.522,0.81031,0.92607,1.1219,-4.68,39.06,23.4
6.1564,-12.149,-4.4811,0.70127,0.77427,0.85094,-2.22,39.84,22.44
5.7342,-13.062,-4.2495,0.2755,0.36194,0.027489,-1.08,40.26,21.84
5.4618,-13.729,-3.8818,0.093157,0.28894,-0.21716,-0.18,40.62,21.24
4.5492,-14.873,-2.8603,-0.37293,0.18662,-0.83566,1.32,41.28,20.16
4.3585,-15.391,-2.7104,-0.56261,0.16799,-1.1658,1.86,41.46,19.86
4.2087,-14.601,-2.7377,-0.60262,0.11668,-1.4264,2.28,41.82,19.56
4.6173,-12.354,-2.5742,-0.55711,-0.058643,-1.635,2.82,42.12,18.78
4.6037,-12.408,-2.1248,-0.60506,-0.75839,-1.8934,2.94,42.3,18.6
4.5901,-12.994,-1.8387,-0.7138,-1.0931,-1.934,2.88,42.42,18.48
4.3721,-14.955,-1.3212,-1.1726,-2.2681,-1.9022,2.34,42.66,18.18
3.8682,-15.704,-0.77636,-1.4752,-2.8979,-1.8021,1.74,42.72,18.36
3.0782,-15.187,0.19068,-1.8433,-3.0931,-1.7972,0.66,42.96,18.84
1.471,-13.729,0.50395,-2.0275,-2.6484,-1.9685,-0.06,42.9,19.2
0.64016,-12.286,0.39499,-2.0684,-1.8619,-2.2556,-0.66,42.78,19.56
0.50395,-11.169,0.24517,-2.0409,-1.4138,-2.4261,-1.32,42.84,20.22
0.95342,-9.8066,-0.081722,-1.7984,-0.22694,-2.8585,-2.94,42.78,21.42
1.471,-9.7385,-0.095342,-1.6359,0.15852,-2.9856,-3.9,42.78,21.72
1.8387,-9.8066,-0.081722,-1.5513,0.14019,-2.9929,-5.04,42.54,22.14
1.9477,-9.5479,0.095342,-1.5959,-0.33995,-2.8228,-7.08,42.42,23.4
1.6753,-9.4389,0.31327,-1.6985,-0.73059,-2.6301,-8.16,42.24,23.94
1.2667,-9.3163,0.32689,-1.7843,-0.95723,-2.394,-9.18,41.94,24.48
0.17706,-8.8396,0.64016,-1.8088,-0.97708,-2.1209,-11.22,40.98,25.86
-0.43585,-8.6081,0.88532,-1.7868,-0.77702,-1.8155,-12.0,40.38,26.52
-1.0079,-8.2131,1.0624,-1.6906,-0.42944,-1.4826,-12.72,39.66,27.24
-1.7298,-7.8045,0.92618,-1.4707,-0.018326,-0.97708,-14.52,38.1,28.56
-1.866,-7.8998,0.85808,-0.96944,0.43921,-0.55344,-15.48,37.26,29.16
-1.757,-8.4174,0.6674,-0.57544,0.58826,-0.066584,-16.38,36.18,29.82
-1.4165,-8.1858,0.85808,-0.22602,0.60689,0.44074,-18.06,34.38,30.66
-1.1169,-8.9486,0.89894,0.12034,0.55894,0.92546,-18.6,33.54,31.26
-0.88532,-9.9565,0.8036,0.4496,0.46976,1.3839,-19.02,32.76,31.86
0.12258,-10.869,0.54481,0.97769,0.32437,2.0937,-19.92,31.14,32.76
0.64016,-10.746,0.31327,1.2972,0.22633,2.4477,-20.1,30.6,33.24
0.96704,-10.774,-0.027241,1.4603,0.17898,2.5672,-20.1,30.18,33.6
1.4574,-11.986,-0.8036,1.8778,-0.0012217,2.7043,-20.1,30.18,33.6
1.58,-12.898,-1.3348,2.0724,-0.2251,2.675,-20.04,30.36,33.3
1.4982,-13.607,-1.6072,2.1389,-0.42761,2.6484,-19.92,30.72,33.06
1.3893,-13.484,-1.7979,1.9612,-0.43524,2.6893,-19.26,32.04,32.34
1.4029,-12.408,-1.9613,1.751,-0.19639,2.6805,-18.9,32.88,31.98
1.3757,-11.046,-2.1112,1.6698,-0.024435,2.6371,-18.48,33.9,31.32
1.3757,-9.7522,-2.2882,1.54,0.71441,2.3668,-17.88,34.86,30.84
1.8251,-8.431,-2.3018,1.5146,1.2168,2.1622,-16.02,36.9,29.94
2.3018,-8.5672,-2.438,1.4777,1.5553,2.0082,-15.06,37.92,29.52
2.833,-8.8668,-2.7786,1.3323,1.7248,1.9062,-12.78,39.9,28.44
3.514,-9.221,-2.9011,1.2132,1.6649,1.8775,-11.7,40.74,27.66
3.7184,-9.3708,-3.0237,1.0873,1.5467,1.8152,-10.56,41.7,27.0
3.8954,-9.398,-3.0646,1.033,1.504,1.7477,-9.42,42.3,26.64
4.1542,-9.507,-3.3778,0.92393,1.4416,1.4939,-7.32,43.62,25.56
4.5083,-9.5751,-3.6094,0.87293,1.3644,1.2785,-6.42,44.16,25.08
4.7671,-9.6568,-3.7728,0.83291,1.1738,1.0434,-5.34,44.52,24.66
5.1757,-10.093,-4.1678,0.73701,0.70066,0.72296,-3.18,45.12,23.64
5.1076,-10.801,-4.1814,0.64538,0.38026,0.53054,-2.22,45.36,23.22
4.9987,-11.441,-4.2904,0.51007,0.14386,0.33903,-1.32,45.66,22.56
4.808,-12.83,-3.7456,0.31918,0.018326,0.12401,-0.66,46.02,21.48
4.6037,-13.743,-3.5277,0.14508,-0.0281,-0.14203,0.54,46.08,20.88
4.413,-14.833,-3.4187,-0.010996,-0.041539,-0.40897,1.38,46.56,19.98
4.7126,-13.716,-3.4051,-0.17013,-0.07758,-0.81428,1.56,46.68,19.68
4.8897,-12.449,-3.2961,-0.208,-0.15149,-0.956,1.56,46.8,19.32
4.9306,-12.381,-3.1872,-0.48472,-0.69883,-1.4062,1.62,47.04,18.96
4.9987,-12.994,-2.833,-0.832,-1.3182,-1.6139,1.44,47.1,18.9
4.5764,-14.206,-2.2337,-1.1949,-1.9334,-1.7,1.38,47.04,18.84
3.9635,-15.023,-1.7706,-1.5,-2.3674,-1.7843,1.02,47.16,18.84
2.6015,-15.527,-0.65378,-1.7874,-2.4972,-1.9187,0.6,47.22,19.08
2.0294,-14.942,-0.17706,-2.1026,-2.1026,-2.2562,-0.24,46.98,19.74
1.2395,-13.334,-0.01362,-2.1655,-1.5363,-2.5775,-0.84,46.68,20.34
0.99429,-12.449,-0.027241,-2.0733,-0.89003,-2.9187,-1.62,46.56,20.76
0.98067,-10.706,-0.32689,-1.8815,-0.31368,-3.189,-3.42,46.14,21.96
1.185,-10.256,-0.27241,-1.6912,0.055589,-3.3256,-4.44,45.84,22.38
1.7434,-10.052,-0.14982,-1.5678,0.031154,-3.3262,-6.48,45.06,23.58
1.757,-9.9565,-0.095342,-1.5605,-0.2981,-3.1973,-7.62,44.82,23.94
1.6072,-9.7249,-0.095342,-1.5824,-0.4835,-3.1041,-8.76,44.28,24.48
0.81722,-9.1256,0.068102,-1.6796,-1.0247,-2.7348,-11.1,43.08,25.32
0.16344,-8.7034,0.29965,-1.7031,-1.1927,-2.3921,-12.18,42.24,25.98
-0.54481,-8.2403,0.40861,-1.6609,-1.0925,-1.9881,-13.2,41.4,26.58
-1.5119,-7.2596,0.53119,-1.5736,-0.56841,-1.3803,-15.3,39.66,27.66
-1.8251,-7.2188,0.5993,-1.2312,-0.11973,-0.95997,-16.38,38.82,28.26
-1.7025,-7.4776,0.55843,-0.9166,0.26328,-0.50855,-17.34,37.86,28.68
-1.0624,-8.1722,0.55843,-0.5623,0.49297,-0.025656,-18.78,36.0,29.58
-0.77636,-8.4174,0.47671,-0.21319,0.5226,0.46853,-19.38,35.04,30.06
-0.57205,-9.0167,0.46309,0.13195,0.44196,0.93646,-19.92,34.2,30.6
-0.50395,-10.91,0.74912,0.60628,0.416,1.6273,-20.88,32.58,31.56
-0.095342,-11.032,0.8036,0.90958,0.52015,2.0543,-21.06,31.92,32.04
0.27241,-10.76,0.64016,1.0589,0.57208,2.2217,-21.18,31.44,32.28
0.99429,-10.515,0.068102,1.409,0.59956,2.43,-21.36,31.2,32.58
1.7025,-11.455,-0.8717,1.9068,0.31796,2.4676,-21.3,31.32,32.58
1.7843,-12.34,-1.3757,2.0989,-0.053756,2.4227,-21.24,31.5,32.22
1.58,-13.334,-1.6753,2.1176,-0.38637,2.3894,-21.0,31.92,31.8
1.0215,-13.021,-1.6753,1.9221,-0.49724,2.4309,-20.34,33.24,30.48
0.85808,-11.427,-1.8387,1.4872,-0.093157,2.5388,-20.04,34.14,30.06
0.74912,-10.515,-1.9613,1.3387,0.43371,2.5388,-19.74,35.16,29.34
1.0215,-8.5263,-2.3018,1.3528,1.084,2.4499,-18.54,37.08,28.26
1.5119,-8.1313,-2.3427,1.4322,1.6554,2.3805,-17.76,38.1,27.6
2.0567,-8.1858,-2.6832,1.4832,1.9991,2.3179,-16.8,39.0,27.12
3.2825,-8.8396,-2.6832,1.3879,2.0067,2.3051,-14.76,40.56,25.74
3.7728,-9.1937,-2.6968,1.2144,1.7333,2.3387,-13.68,41.4,25.26
3.8954,-9.6977,-2.7649,1.025,1.4786,2.3821,-12.36,42.12,24.54
4.0997,-10.025,-2.9011,0.90103,1.3299,2.3359,-11.22,42.84,24.0
4.3858,-10.624,-3.1191,0.86101,1.3024,2.2013,-8.76,44.04,22.86
4.7263,-10.896,-3.3097,0.86712,1.3659,1.9597,-7.62,44.64,22.32
5.2575,-11.087,-3.6503,0.88484,1.3952,1.6316,-6.48,44.94,22.02
6.1564,-11.536,-3.8137,0.87293,1.2923,1.0421,-3.78,45.36,20.88
6.6059,-12.095,-3.8546,0.75381,0.79015,0.63072,-2.46,45.54,20.52
6.8102,-12.612,-3.8273,0.54214,0.30971,0.27367,-1.32,45.66,19.92
6.0883,-13.212,-3.4187,0.28833,-0.12492,-0.058338,0.48,46.08,18.78
5.6388,-13.988,-3.5277,0.1011,-0.40317,-0.37324,1.26,46.38,18.18
5.3528,-14.138,-3.8001,-0.080634,-0.59834,-0.81795,1.92,46.74,17.52
5.3256,-12.231,-3.6094,-0.13164,-0.66279,-0.96517,2.76,47.22,16.68
5.2438,-12.98,-3.3642,-0.43188,-1.0699,-1.4096,2.94,47.34,16.5
5.1894,-14.192,-2.9284,-0.62553,-1.3106,-1.5317,3.24,47.4,16.2
5.094,-15.445,-2.4517,-1.2956,-2.1585,-1.7095,3.24,47.52,16.08
4.127,-17.529,-0.84446,-1.7,-2.5904,-1.7736,3.0,47.7,16.02
3.2553,-17.366,-0.38137,-2.0562,-2.6985,-2.08,2.88,47.7,16.02
2.1248,-15.418,0.39499,-2.2932,-2.4163,-2.2599,2.4,47.82,16.26
1.3484,-13.797,0.38137,-2.3729,-1.9044,-2.6896,1.08,47.58,17.28
0.99429,-12.503,0.054481,-2.3082,-1.2856,-3.1738,0.42,47.52,17.88
0.91256,-11.959,-0.14982,-1.9731,-0.37996,-3.7556,-0.54,47.28,18.42
1.1986,-11.032,-0.19068,-1.7727,-0.0054978,-3.9337,-2.94,46.92,19.56
1.5119,-10.896,-0.081722,-1.6671,-0.007025,-3.9868,-4.14,46.56,20.16
1.362,-10.637,-0.027241,-1.6667,-0.16341,-3.9538,-6.84,45.78,21.12
0.9398,-10.27,0.16344,-1.7455,-0.76969,-3.6301,-8.22,45.36,21.66
0.68102,-9.9565,0.21793,-1.8008,-1.0999,-3.2965,-9.66,44.7,22.2
-0.85808,-8.431,0.54481,-1.85,-1.2565,-2.8411,-12.36,42.9,23.58
-1.7706,-7.6274,0.5993,-1.8042,-1.1359,-2.3366,-13.68,42.06,24.3
-2.4925,-6.5105,0.76274,-1.646,-0.80298,-1.8008,-14.94,41.1,24.96
-2.547,-6.4969,0.81722,-1.2178,-0.22755,-0.96395,-17.34,38.94,26.1
-2.3699,-6.96,0.89894,-0.85704,0.045204,-0.40042,-18.36,37.86,26.58
-2.0567,-7.5184,0.99429,-0.66798,0.13653,-0.13806,-19.44,36.78,26.88
-1.7979,-7.8726,1.0624,-0.15058,0.32132,0.57849,-20.16,35.64,27.42
-1.2939,-9.2618,1.0488,0.2361,0.43066,1.0205,-21.3,33.72,28.26
-1.0488,-10.215,1.076,0.61942,0.52168,1.5018,-21.78,32.82,28.74
-0.1362,-10.964,1.0215,0.98258,0.61697,2.0207,-22.08,31.32,29.58
0.53119,-10.896,0.49033,1.4954,0.69486,2.6631,-22.2,30.9,29.82
0.89894,-11.087,0.068102,1.8387,0.56352,2.89,-22.2,30.6,30.0
1.4438,-13.103,-0.95342,2.0995,0.30696,2.9984,-22.08,30.78,29.82
1.3484,-14.356,-1.1032,2.222,0.06353,3.0256,-21.96,31.08,29.46
1.1577,-14.969,-1.1577,1.9755,0.026267,3.0,-21.12,32.34,28.44
0.85808,-13.988,-1.2395,1.682,0.31337,2.9642,-20.76,33.3,27.78
0.96704,-12.476,-1.4846,1.5644,0.52718,2.9334,-20.28,34.26,27.0
1.2395,-10.964,-1.8251,1.4746,1.0345,2.8378,-19.56,35.22,26.4
1.9341,-9.0167,-2.0975,1.5803,1.7233,2.6395,-18.3,37.2,25.2
2.4925,-8.6489,-2.1793,1.6487,1.9878,2.5275,-17.28,38.04,24.54
3.1191,-8.6898,-2.1248,1.5146,1.9239,2.4007,-15.36,39.78,22.92
3.7047,-9.1529,-1.9886,1.2889,1.6805,2.397,-14.4,40.68,22.44
3.8954,-9.5615,-2.0431,1.1741,1.533,2.4181,-13.14,41.4,21.72
3.9227,-9.8203,-2.1248,1.0073,1.303,2.4743,-11.88,42.18,21.0
3.9908,-10.774,-2.5198,0.97097,1.2211,2.4725,-9.3,43.5,19.86
4.3177,-11.019,-2.8739,1.0577,1.3699,2.3604,-8.04,43.98,19.38
4.8625,-11.182,-3.2553,1.1466,1.551,2.1359,-6.72,44.4,18.9
6.3198,-11.441,-3.6775,1.1781,1.4856,1.6267,-4.02,44.88,18.12
6.7421,-11.822,-3.8273,1.1567,1.3112,1.4273,-2.64,45.0,17.64
7.4095,-12.517,-4.1814,1.0153,0.77366,1.0266,-1.32,45.3,17.16
7.3822,-13.539,-4.0044,0.59223,-0.077885,0.416,1.32,45.72,15.84
6.6195,-14.165,-3.6503,0.27061,-0.41203,-0.02474,2.28,45.84,15.18
5.4754,-15.023,-3.4187,-0.030543,-0.44868,-0.50274,3.12,46.26,14.76
5.1894,-14.465,-3.4596,-0.29199,-0.28894,-1.2062,4.8,46.62,13.68
5.4345,-13.675,-3.4187,-0.36621,-0.44593,-1.5785,5.34,46.74,13.26
5.3937,-12.871,-3.1191,-0.52137,-0.87537,-1.8778,5.64,46.8,12.84
5.2166,-13.797,-2.152,-0.84513,-1.511,-2.0885,5.94,46.68,12.12
4.9033,-14.669,-1.7162,-1.2477,-2.2559,-2.1863,5.94,46.74,11.82
4.2904,-15.677,-1.1986,-1.6319,-2.8628,-2.197,5.58,46.86,11.58
2.7104,-15.977,-0.054481,-1.9319,-3.1597,-2.23,4.74,46.92,11.46
2.1248,-15.282,0.28603,-2.1619,-3.0363,-2.3472,4.02,47.1,11.64
1.4301,-14.124,0.47671,-2.2746,-2.5507,-2.584,3.24,46.92,11.94
0.54481,-12.231,0.28603,-2.2327,-1.478,-3.0574,1.02,46.74,12.84
0.54481,-11.713,0.14982,-2.0745,-0.78466,-3.3011,-0.24,46.74,13.38
0.84446,-11.128,0.14982,-1.9035,-0.26848,-3.3946,-1.56,46.44,14.1
1.4165,-10.801,0.21793,-1.7795,-0.065668,-3.3665,-4.8,46.02,15.42
1.5255,-10.542,0.43585,-1.7709,-0.30757,-3.1606,-6.48,45.66,16.26
1.471,-10.42,0.40861,-1.7978,-0.46242,-3.0531,-8.1,45.18,17.04
1.185,-9.9429,0.44947,-1.8552,-0.75014,-2.8246,-9.72,44.7,18.06
0.39499,-9.2482,0.64016,-1.897,-0.91813,-2.3986,-12.66,43.2,20.04
-0.21793,-8.7443,0.99429,-1.8473,-0.79687,-2.0959,-14.04,42.24,21.06
-0.76274,-8.322,1.185,-1.7752,-0.52168,-1.7584,-15.42,41.22,22.02
-1.4438,-7.5729,1.1305,-1.6622,-0.19151,-1.423,-18.06,39.06,24.12
-1.5119,-7.6955,1.0079,-1.4041,0.14813,-1.058,-19.26,37.92,25.08
-1.471,-7.8317,0.96704,-1.0678,0.41875,-0.65637,-20.34,36.54,25.98
-1.1441,-7.9951,0.89894,-0.43402,0.60353,0.014355,-21.24,35.34,27.0
-1.2258,-8.3901,1.0896,-0.014661,0.55589,0.48655,-22.62,32.76,28.38
-1.1986,-9.4798,1.2531,0.39309,0.51832,0.99724,-22.92,31.5,29.1
-0.85808,-10.27,1.4165,0.78435,0.48167,1.5666,-23.4,30.42,29.82
0.57205,-10.011,0.76274,1.2,0.4441,2.1124,-23.7,28.8,30.84
1.2258,-10.093,0.1362,1.6222,0.30971,2.4853,-23.82,28.2,31.14
1.4846,-10.706,-0.35413,2.1973,-0.13317,2.6423,-24.0,28.02,31.38
1.5391,-13.225,-1.3212,2.3747,-0.46517,2.6075,-23.88,28.02,31.26
1.2122,-13.947,-1.4846,2.3359,-0.68753,2.5296,-23.7,28.38,31.02
0.76274,-14.152,-1.4301,1.8473,-0.40836,2.5287,-23.34,28.74,30.48
0.14982,-13.579,-1.2531,1.6487,-0.14905,2.5446,-22.98,29.4,29.94
0.61292,-10.855,-1.7843,1.3558,0.78496,2.5989,-22.14,31.56,28.86
1.1169,-9.6977,-1.9886,1.4364,1.3518,2.5913,-21.66,32.52,28.26
1.6072,-8.9622,-2.1112,1.5766,1.7791,2.5879,-21.18,33.66,27.9
2.5334,-8.3084,-2.1929,1.6585,1.9743,2.5607,-19.8,35.88,26.94
2.8467,-8.5127,-2.1656,1.4868,1.8937,2.5104,-18.78,37.08,26.28
3.3642,-9.1256,-2.2882,1.2715,1.6826,2.5354,-16.86,39.18,24.9
3.623,-9.9701,-2.4108,1.087,1.4997,2.5552,-15.84,40.26,24.36
3.8273,-10.311,-2.6423,1.0189,1.4432,2.5592,-14.76,41.1,23.88
3.9363,-10.61,-2.6968,0.95906,1.4606,2.441,-13.68,41.82,23.4
4.5764,-10.964,-2.9556,0.99602,1.6151,2.2171,-11.4,43.08,22.5
5.2575,-11.169,-3.2825,1.0779,1.6096,1.7352,-10.26,43.74,22.2
6.3198,-11.509,-3.6775,1.0825,1.4853,1.5543,-7.98,44.34,21.48
6.7012,-12.095,-3.6366,0.94257,0.83414,0.99907,-6.78,44.64,21.12
6.8647,-12.476,-3.732,0.72907,0.32376,0.64263,-5.76,44.88,20.4
6.674,-12.98,-3.6639,0.45662,-0.051924,0.2978,-4.5,45.3,19.8
5.6388,-14.56,-3.1735,0.20189,-0.22938,-0.082772,-2.76,45.96,18.6
5.38,-15.255,-3.0237,-0.0281,-0.30116,-0.65332,-2.22,46.02,18.12
5.38,-13.648,-3.1327,-0.16249,-0.32009,-0.82986,-1.08,46.38,17.52
5.3937,-13.362,-2.9692,-0.26939,-0.56383,-1.3525,-0.6,46.5,17.16
5.3392,-13.607,-2.833,-0.5284,-0.9783,-1.6777,-0.36,46.56,16.92
5.4073,-14.928,-1.9613,-0.92118,-1.5809,-1.9053,-0.18,46.5,16.92
5.0259,-15.745,-1.2803,-1.3231,-2.2126,-2.0592,-0.42,46.5,16.86
3.8546,-15.949,-0.16344,-1.7077,-2.6844,-2.204,-0.66,46.26,16.98
2.9556,-15.813,0.19068,-2.0467,-2.8634,-2.5626,-1.26,45.66,17.4
2.2474,-15.05,0.38137,-2.1646,-2.6527,-2.8619,-1.86,45.24,17.7
1.58,-13.77,0.34051,-2.1548,-2.208,-3.1603,-2.28,44.94,18.24
1.0896,-12.612,0.28603,-2.0522,-1.6167,-3.4266,-3.0,44.46,18.9
0.7355,-11.482,0.21793,-1.9395,-1.0678,-3.5965,-4.62,43.32,20.1
0.78998,-10.815,0.28603,-1.8323,-0.41997,-3.6585,-5.46,42.84,20.7
1.1169,-10.27,0.19068,-1.8045,-0.34575,-3.6007,-7.44,41.64,21.84
1.0624,-9.8611,0.1362,-1.7828,-0.49419,-3.4175,-8.28,40.92,22.44
0.99429,-9.6841,0.31327,-1.7816,-0.61972,-3.2889,-9.06,40.26,22.92
0.34051,-8.826,0.89894,-1.8353,-0.98502,-2.7315,-10.62,38.7,24.12
-0.16344,-8.3765,1.2122,-1.8637,-1.0296,-2.2593,-11.22,37.8,24.72
-0.76274,-7.927,1.2803,-1.7889,-0.86834,-1.8005,-11.88,36.96,25.26
-1.3212,-7.6274,1.3893,-1.6038,-0.56566,-1.3561,-13.08,35.1,26.28
-1.2531,-7.8317,1.6617,-1.3635,-0.20831,-0.90897,-13.62,34.02,26.94
-0.98067,-8.2131,1.7843,-1.0736,0.087965,-0.42883,-14.16,33.06,27.36
-0.70826,-8.4174,1.8387,-0.75045,0.20922,0.039095,-14.58,31.98,27.84
-0.40861,-8.5127,1.8115,-0.20678,0.11942,0.65729,-14.82,31.02,28.2
-0.68102,-10.283,1.4574,0.17623,0.077885,1.0073,-15.0,29.34,29.1
-0.8036,-10.951,1.2939,0.71563,0.26634,1.431,-15.0,28.5,29.4
-0.027241,-10.283,0.74912,0.90927,0.38882,1.555,-15.0,27.9,29.82
0.64016,-10.202,0.027241,1.4899,0.60903,1.8521,-14.76,26.94,30.24
0.76274,-10.964,-0.44947,1.668,0.62461,1.9007,-14.52,26.58,30.36
0.8717,-12.994,-1.0896,2.0314,0.50732,1.9548,-14.16,26.64,30.24
0.8717,-13.375,-1.1305,2.0275,0.41905,2.007,-13.98,26.82,30.06
0.83084,-13.634,-1.3893,1.751,0.42883,2.2349,-13.86,27.18,29.64
1.0215,-11.959,-1.9341,1.5696,0.55008,2.4126,-13.56,28.5,28.44
1.3076,-10.542,-2.0839,1.4966,0.70891,2.5705,-13.38,29.28,28.02
1.6072,-9.8066,-2.1384,1.5088,0.84238,2.6487,-13.2,30.12,27.36
2.0839,-8.2131,-2.4244,1.5485,0.97525,2.6841,-12.54,31.74,26.34
2.3427,-8.2812,-2.5061,1.5388,1.0586,2.6756,-12.18,32.46,25.98
2.5606,-8.4719,-2.5061,1.4358,1.0831,2.6554,-11.58,33.24,25.62
3.1191,-9.2482,-2.3699,1.2657,1.0363,2.6618,-10.44,34.56,24.9
3.3506,-9.4798,-2.5061,1.1069,0.99449,2.6606,-9.66,35.16,24.54
3.5413,-9.6704,-2.6968,0.98502,1.1044,2.5733,-8.88,35.7,24.24
3.8273,-9.9973,-2.8058,0.99449,1.3427,2.3793,-7.26,36.48,23.58
4.3994,-10.46,-2.7922,1.0015,1.6399,2.0711,-6.36,36.84,23.34
5.4618,-10.964,-2.9965,0.96731,1.8066,1.6942,-4.26,37.2,23.22
6.279,-11.373,-3.228,0.88728,1.7248,1.3088,-3.18,37.26,23.28
6.5922,-11.945,-3.3778,0.72265,1.1796,0.79168,-2.04,37.32,23.16
6.7421,-12.272,-3.3915,0.6408,0.93371,0.6295,-1.02,37.38,23.04
6.4152,-12.885,-3.2825,0.34606,0.27703,0.20586,-0.06,37.32,22.74
5.2438,-13.035,-2.7649,0.1686,0.14386,-0.11087,1.62,37.5,22.26
4.8625,-13.702,-2.6968,0.1011,0.2926,-0.62033,2.22,37.56,21.96
4.9714,-13.089,-3.1054,0.057421,0.35094,-0.8937,3.42,37.68,21.66
5.2438,-11.591,-2.9011,0.013744,0.17165,-1.1387,3.72,37.74,21.6
5.2302,-11.223,-2.7513,-0.1295,-0.22877,-1.3912,3.9,37.8,21.3
5.1485,-13.007,-2.2882,-0.44379,-0.86407,-1.5763,3.84,37.86,21.3
5.1213,-14.356,-1.757,-0.79748,-1.6735,-1.6026,3.96,37.92,21.24
5.0531,-15.241,-1.2667,-1.117,-2.5357,-1.5171,3.9,37.92,21.36
4.127,-15.99,-0.21793,-1.4145,-3.4804,-1.4487,3.9,38.1,21.54
3.3778,-15.418,0.12258,-1.5736,-3.7186,-1.5601,3.9,38.1,21.6
2.9148,-14.696,0.28603,-1.6573,-3.7049,-1.6619,3.84,38.1,21.84
2.9148,-14.696,0.28603,-1.6573,-3.7049,-1.6619,3.84,38.1,21.84
0.42223,-11.264,-0.19068,-1.861,-2.2626,-2.5311,3.3,38.16,22.38
0.38137,-10.637,-0.24517,-1.8726,-1.3509,-2.8735,3.18,38.34,22.44
0.40861,-10.351,-0.28603,-1.8891,-0.19456,-3.1511,2.34,38.46,22.8
0.70826,-10.065,-0.19068,-1.8903,0.078191,-3.1762,1.92,38.52,22.74
0.83084,-9.9292,-0.027241,-1.9465,0.37629,-3.1466,1.14,38.7,22.86
0.88532,-9.3299,0.24517,-1.971,0.35797,-2.9777,0.12,38.46,22.98
0.6674,-8.6353,0.49033,-1.9758,0.28008,-2.6985,-1.14,38.16,23.16
0.54481,-8.3765,0.76274,-1.9346,0.19242,-2.3161,-1.98,38.1,23.34
0.31327,-7.5457,0.76274,-1.7339,0.16157,-1.6872,-3.84,37.44,23.58
0.095342,-7.4095,0.78998,-1.5159,0.2251,-1.3045,-5.58,36.6,24.24
-0.054481,-7.6274,0.84446,-1.2669,0.30085,-0.94104,-7.44,35.4,25.08
0.081722,-7.6819,0.89894,-1.0299,0.33811,-0.56597,-8.76,34.14,25.8
0.19068,-7.7091,0.92618,-0.77061,0.34758,-0.20097,-10.38,32.88,26.76
0.23155,-7.8453,0.92618,-0.4664,0.28253,0.11148,-11.4,31.5,27.78
0.01362,-8.6625,0.98067,-0.11087,0.19914,0.41814,-12.18,30.54,28.5
0.01362,-9.4661,1.0079,0.49816,0.12431,1.0281,-12.54,30.3,28.92
0.36775,-10.27,0.89894,0.89461,0.072998,1.5134,-13.02,29.58,29.22
0.88532,-10.869,0.61292,1.2556,-0.0079412,1.9313,-12.96,29.34,29.34
1.185,-11.06,0.40861,1.6014,-0.14783,2.1533,-12.78,29.52,29.28
1.8796,-12.544,-0.84446,1.9444,-0.4102,2.1869,-12.54,30.0,28.74
1.866,-13.184,-1.1169,2.2602,-0.95936,2.021,-12.18,30.42,28.38
1.3484,-14.056,-1.1032,2.1377,-1.0855,1.9578,-11.52,31.62,27.42
0.35413,-13.375,-1.076,1.9783,-1.0079,1.9539,-10.92,32.28,26.94
0.24517,-11.632,-1.362,1.5171,-0.25168,2.0788,-10.5,32.94,26.34
0.43585,-9.902,-1.7025,1.4416,0.37507,2.1215,-10.14,33.84,25.8
1.1577,-7.641,-1.9068,1.5043,0.95845,2.1212,-9.3,35.46,24.72
1.5119,-7.3822,-2.0567,1.5809,1.3806,2.1548,-8.7,36.12,24.24
1.9341,-7.464,-2.0839,1.5669,1.6362,2.262,-7.14,37.26,23.58
2.656,-8.1722,-2.2474,1.5198,1.6191,2.3353,-6.36,37.86,23.34
3.051,-8.9758,-2.656,1.3567,1.3604,2.6151,-5.46,38.34,22.98
3.337,-9.4389,-2.7649,1.2367,1.1558,2.7767,-4.56,38.82,22.38
3.6094,-10.569,-2.9692,1.1228,1.0611,2.8359,-2.58,39.36,21.6
3.7865,-11.046,-2.9692,0.99754,1.2254,2.6289,-1.56,39.6,21.18
4.6037,-11.509,-3.3506,0.98135,1.4285,2.2959,0.72,39.66,20.76
5.4481,-11.659,-4.018,0.99418,1.5107,1.8308,1.86,39.48,20.52
5.8976,-11.768,-4.0316,0.98807,1.4658,1.5653,2.94,39.6,20.22
6.2517,-12.177,-4.2495,0.82711,0.92271,0.74923,4.2,39.54,20.04
6.3198,-13.797,-4.1542,0.54642,0.41692,0.25168,6.48,39.36,19.56
5.6661,-14.342,-3.6775,0.14019,0.04612,-0.14447,7.32,39.3,19.08
4.1542,-14.901,-3.2553,-0.22083,-0.055283,-0.51557,8.88,39.48,18.3
3.8682,-14.478,-3.1327,-0.46029,0.10873,-0.85521,9.42,39.54,18.0
3.8546,-13.539,-3.2008,-0.55405,0.36805,-1.1832,9.84,39.54,17.64
4.1814,-11.468,-2.6696,-0.54947,0.43952,-1.62,10.32,39.54,17.64
4.4811,-11.836,-2.3972,-0.64966,0.098349,-1.832,10.44,39.66,17.52
4.6718,-13.035,-1.7706,-0.91294,-0.59071,-1.909,10.38,39.72,17.52
4.7807,-13.811,-1.2939,-1.3555,-1.9224,-1.7746,9.78,40.08,17.58
4.1814,-14.506,-0.76274,-1.5632,-2.6044,-1.6325,9.3,40.32,17.64
3.5958,-14.996,-0.46309,-1.6964,-2.9764,-1.5721,8.82,40.26,17.76
2.3836,-14.043,0.34051,-1.795,-2.9957,-1.6402,7.56,40.32,18.18
1.6753,-12.708,0.38137,-1.8751,-2.6539,-1.8744,6.78,40.38,18.3
1.0624,-11.577,0.1362,-1.8491,-1.9581,-2.2211,6.0,40.38,18.6
0.57205,-10.501,-0.21793,-1.664,-0.70616,-2.7889,4.32,40.86,19.14
0.8036,-10.202,-0.24517,-1.613,-0.3091,-2.9166,3.42,41.04,19.26
1.2667,-10.161,-0.29965,-1.5632,0.12431,-3.1374,2.46,41.4,19.62
1.4846,-9.9156,0.040861,-1.6182,0.13897,-3.2003,0.54,41.58,20.34
1.4438,-9.5751,0.17706,-1.6918,-0.076358,-3.1047,-0.48,41.52,20.64
1.1032,-9.3163,0.14982,-1.7376,-0.35552,-2.8778,-1.68,41.52,21.12
0.31327,-8.6217,0.40861,-1.7446,-0.6017,-2.3472,-3.78,41.16,22.14
-0.29965,-8.0224,0.95342,-1.6646,-0.60292,-1.9019,-4.92,40.98,22.62
-0.64016,-7.7908,1.0896,-1.544,-0.38851,-1.4609,-5.88,40.68,23.22
-1.0215,-7.5321,1.1577,-1.3152,-0.15791,-1.0296,-7.92,39.9,24.36
-0.89894,-7.2733,0.99429,-0.97891,-0.0076358,-0.59956,-8.76,39.48,24.96
-0.83084,-7.6683,0.8717,-0.5452,0.028405,-0.18112,-9.54,39.06,25.5
-0.7355,-8.4719,0.8036,-0.13408,-0.0082467,0.38118,-11.28,37.8,27.0
-0.8036,-9.2618,0.74912,0.36744,0.01405,0.73121,-11.94,37.26,27.72
-0.72188,-10.065,0.57205,0.67684,0.03146,1.1139,-12.54,36.66,28.26
-0.29965,-10.569,0.12258,0.97433,0.050396,1.5101,-13.14,35.76,29.1
0.095342,-10.624,-0.095342,1.2376,0.077885,1.8671,-13.5,35.28,29.52
0.38137,-10.978,-0.38137,1.4697,0.15302,2.142,-13.44,35.1,29.64
0.7355,-11.959,-1.0079,1.6597,0.22816,2.2816,-13.44,35.04,29.46
0.76274,-12.313,-1.2122,1.7993,0.24251,2.3726,-13.26,35.16,29.34
0.8036,-13.116,-1.4438,1.7706,0.2868,2.4245,-13.2,35.58,29.04
0.92618,-13.144,-1.6753,1.6591,0.43127,2.5113,-12.54,36.42,28.26
1.2803,-11.618,-1.6617,1.5488,0.67867,2.5989,-12.18,37.08,27.84
1.471,-10.188,-1.8524,1.4908,0.97158,2.591,-11.88,37.68,27.54
2.0431,-8.3765,-1.8524,1.5061,1.2556,2.39,-10.68,38.88,26.52
2.2882,-7.6819,-2.0158,1.5479,1.5333,2.2083,-9.96,39.54,26.1
2.6287,-7.3822,-2.261,1.5516,1.5543,2.1215,-9.12,40.02,25.56
3.4459,-7.75,-2.6696,1.4664,1.3192,1.9933,-7.38,41.16,24.66
3.6503,-8.1858,-2.833,1.3564,1.0406,1.9978,-6.36,41.82,24.12
3.7184,-8.6217,-3.1872,1.2511,0.74128,2.029,-5.52,42.36,23.76
3.4459,-9.4253,-3.6639,1.1625,0.57727,2.0021,-3.24,43.08,22.86
3.4051,-10.025,-3.7728,1.0864,0.72815,1.8842,-2.16,43.38,22.44
3.337,-10.637,-4.0044,1.0266,1.0067,1.7193,-0.9,43.56,22.08
3.4868,-11.21,-4.0589,0.97616,1.1823,1.6063,0.3,43.8,21.66
4.5764,-11.959,-3.8546,0.81276,1.5754,1.1683,2.7,44.22,20.94
5.2847,-12.762,-4.0589,0.70677,1.5067,0.81459,3.9,44.28,20.34
6.4152,-14.206,-4.2359,0.60781,1.084,0.4725,5.94,44.46,19.32
6.6331,-14.901,-3.8001,0.39034,0.36499,0.000611,6.72,44.58,18.96
5.6388,-15.827,-3.6366,0.27947,-0.32712,-0.14966,7.5,44.88,18.54
5.1349,-15.949,-3.6503,0.0281,-0.70127,-0.48503,8.04,44.88,18.0
4.2904,-13.375,-3.6775,-0.27184,-0.61361,-1.0644,8.94,45.24,17.34
4.1678,-12.054,-3.3234,-0.44379,-0.49572,-1.4899,9.3,45.36,17.1
4.1814,-11.768,-2.9829,-0.686,-0.71716,-2.0223,9.42,45.54,16.98
4.2359,-13.048,-2.2882,-1.1991,-1.2181,-2.1796,9.3,45.54,16.98
4.0725,-13.579,-1.9477,-1.3757,-1.5278,-2.2025,9.06,45.6,17.1
3.8137,-13.934,-1.6617,-1.781,-2.2981,-2.1154,8.58,45.6,17.16
2.8194,-13.988,-0.53119,-1.9774,-2.5369,-2.116,7.26,45.42,17.58
2.2201,-13.866,0.10896,-2.1112,-2.5864,-2.2122,6.54,45.54,18.0
1.6072,-13.934,0.35413,-2.1799,-2.4019,-2.3992,5.82,45.54,18.54
0.46309,-12.503,0.054481,-2.1493,-1.6322,-2.7657,4.02,45.72,19.2
0.25879,-11.536,-0.14982,-1.865,-0.93493,-2.9126,3.06,45.6,19.62
0.28603,-11.223,-0.21793,-1.7391,-0.5678,-2.9609,1.98,45.78,20.1
0.61292,-10.787,-0.19068,-1.5571,0.13775,-3.0635,0.9,45.54,20.46
0.92618,-9.8611,-0.17706,-1.5409,0.14111,-3.0641,-1.62,45.06,21.42
1.0624,-9.2891,0.027241,-1.5803,0.064446,-2.945,-2.82,44.88,21.9
0.96704,-8.322,0.095342,-1.627,-0.21686,-2.6515,-5.4,44.16,22.98
0.40861,-7.9679,0.040861,-1.6032,-0.34636,-2.3271,-6.66,43.56,23.46
0.01362,-7.355,-0.027241,-1.5217,-0.4215,-1.9426,-7.74,43.02,24.06
-0.28603,-6.851,0.081722,-1.4016,-0.37141,-1.5379,-8.94,42.3,24.66
-1.3484,-6.1836,0.28603,-1.2727,-0.12828,-1.1435,-11.04,40.74,25.68
-1.5391,-6.3879,0.25879,-1.0782,0.20983,-0.74709,-12.12,39.9,26.22
-1.4165,-7.0553,0.54481,-0.70127,0.65821,-0.06689,-13.86,37.92,27.24
-0.83084,-7.3686,0.6674,-0.54978,0.76419,0.16952,-14.82,36.84,27.84
-0.61292,-8.0224,0.96704,-0.039401,0.9279,0.96669,-15.48,35.76,28.32
-0.31327,-8.7443,1.4301,0.14813,0.93646,1.2645,-16.2,34.86,28.86
0.31327,-10.951,1.6072,0.77488,0.8717,2.262,-17.46,33.3,29.7
0.8036,-11.032,1.3212,1.2755,0.77458,2.7929,-17.88,32.64,29.94
1.8796,-11.046,0.12258,1.7804,0.5736,3.0833,-18.18,32.22,30.12
2.0567,-12.204,-0.61292,2.3897,0.04612,3.1044,-18.18,32.1,30.0
2.0158,-14.206,-1.1169,2.5507,-0.4441,3.029,-18.0,32.22,29.7
1.9886,-14.833,-1.1032,2.4102,-0.86773,2.9548,-17.82,32.88,29.28
1.471,-15.241,-1.1986,2.0409,-1.0397,2.978,-17.28,34.2,28.2
1.2258,-14.111,-1.3757,1.6331,-0.8885,2.9948,-16.8,34.92,27.6
1.0351,-12.408,-1.6753,1.3873,-0.4496,2.9212,-16.32,35.7,26.94
0.8036,-9.4525,-2.1248,1.3659,0.31276,2.7028,-14.52,37.5,25.98
1.2939,-8.7987,-2.1656,1.496,1.2404,2.4251,-13.62,38.46,25.56
1.757,-8.717,-2.2201,1.6093,2.219,2.076,-12.42,39.3,25.02
3.1191,-9.2074,-2.2201,1.5241,2.4053,1.9319,-9.66,40.98,23.94
3.732,-9.3844,-2.152,1.3262,2.273,1.8833,-8.46,41.58,23.4
4.2904,-9.4525,-2.4108,0.98594,1.814,1.8751,-6.0,42.78,22.5
4.2087,-9.7794,-2.656,0.82711,1.5928,1.8008,-4.8,43.2,22.02
4.2223,-10.12,-2.9965,0.78954,1.5504,1.6612,-3.66,43.62,21.78
4.3585,-10.351,-3.1327,0.7813,1.565,1.5632,-2.28,43.68,21.54
5.0395,-10.351,-3.6366,0.80573,1.5858,1.226,-0.06,43.98,21.0
5.489,-10.283,-3.8682,0.78618,1.4114,0.94928,1.14,44.04,20.64
5.8431,-10.515,-4.0044,0.72082,1.0348,0.64507,2.28,44.04,20.34
5.884,-11.959,-3.9635,0.57055,0.28253,0.23121,3.66,44.22,19.56
5.5299,-12.749,-3.5004,0.2981,0.074831,0.11057,4.08,44.28,19.14
5.203,-13.348,-3.051,-0.11118,-0.30116,-0.29627,4.56,44.46,18.72
4.5083,-14.928,-2.9011,-0.28191,-0.34483,-0.58796,5.04,44.82,18.06
4.3858,-14.179,-2.9148,-0.3372,-0.29108,-0.86773,5.28,45.12,17.94
4.5356,-12.926,-2.8603,-0.32009,-0.31826,-1.1591,5.28,45.24,17.76
4.7671,-13.675,-2.5061,-0.43646,-0.60201,-1.5177,5.1,45.6,17.58
4.9169,-14.002,-2.3427,-0.9389,-1.5299,-1.62,4.98,45.66,17.52
4.9442,-14.86,-1.7162,-1.3259,-2.23,-1.6499,4.44,45.72,17.58
3.7592,-15.772,-0.50395,-1.6664,-2.6502,-1.7214,3.54,45.66,17.88
2.942,-15.105,-0.040861,-1.9413,-2.7553,-1.8949,2.82,45.72,18.18
2.3836,-14.22,0.16344,-2.0962,-2.5824,-2.1512,2.1,45.6,18.6
1.0896,-12.449,0.29965,-2.1331,-1.8604,-2.6924,0.54,45.48,19.74
0.76274,-11.455,0.29965,-2.0168,-1.1759,-3.0659,-0.3,45.36,20.34
0.72188,-11.087,-0.054481,-1.8583,-0.52382,-3.3417,-1.56,45.18,21.06
0.85808,-10.542,-0.081722,-1.7532,-0.047647,-3.4801,-3.96,44.52,22.38
1.1577,-10.338,0.054481,-1.7065,0.17287,-3.5238,-5.28,44.16,22.86
1.2939,-10.161,0.054481,-1.7101,0.064752,-3.4682,-6.42,43.74,23.46
1.0351,-9.4798,0.040861,-1.7535,-0.29138,-3.1417,-9.06,42.6,24.72
0.70826,-9.0848,0.16344,-1.7672,-0.57513,-2.8127,-10.5,41.7,25.44
0.40861,-8.826,0.31327,-1.7688,-0.8042,-2.3998,-11.58,40.92,26.16
-0.14982,-8.3901,0.61292,-1.7639,-0.84452,-2.1713,-12.84,39.96,27.0
-1.4574,-7.6002,0.70826,-1.6252,-0.56077,-1.4807,-15.0,37.62,28.32
-1.6208,-7.3141,0.84446,-1.416,-0.18326,-1.0027,-16.08,36.54,28.98
-1.3212,-7.6274,0.69464,-0.93065,0.40073,-0.28191,-17.88,34.14,29.94
-0.64016,-8.4855,0.8717,-0.59834,0.68295,0.15302,-18.66,32.88,30.42
-0.35413,-8.8805,1.0215,-0.29596,0.86926,0.52931,-19.14,31.68,30.84
-0.28603,-9.2346,0.99429,0.0015272,0.96547,0.90194,-19.62,30.54,31.26
-0.28603,-9.616,0.96704,0.31918,0.97708,1.3195,-20.16,29.34,31.86
0.61292,-9.4389,0.72188,0.66065,0.92546,1.777,-21.0,27.36,32.7
0.89894,-9.507,0.25879,1.1503,0.67745,2.2965,-21.3,26.7,33.0
1.471,-10.733,-0.32689,1.3155,0.57482,2.4056,-21.72,25.86,33.24
1.7434,-11.754,-0.78998,1.6136,0.30574,2.5873,-21.84,25.8,33.24
1.9205,-12.313,-1.3212,1.8586,-0.093462,2.6976,-21.84,25.98,33.0
1.6481,-13.634,-1.7706,2.0873,-0.7196,2.8167,-21.9,26.76,32.52
1.2939,-12.79,-2.0567,2.0647,-0.84666,2.8827,-21.78,27.42,32.16
1.2395,-11.986,-2.1248,1.8955,-0.68539,2.9196,-21.66,28.26,31.74
1.1577,-10.474,-2.2337,1.7061,-0.27519,2.832,-21.42,29.1,31.38
1.3484,-8.3493,-2.4517,1.5064,0.56474,2.5452,-20.4,31.14,30.66
1.6344,-8.1177,-2.547,1.401,1.0489,2.3393,-19.74,32.1,30.36
2.0567,-8.2812,-2.438,1.2816,1.343,2.1881,-18.96,33.06,29.82
2.8875,-9.0575,-2.5061,1.142,1.4878,2.1512,-16.92,35.04,29.1
3.1054,-9.3844,-2.5879,1.0449,1.5101,2.1762,-15.72,35.88,28.74
3.2416,-9.5751,-2.547,0.93279,1.5394,2.1667,-14.64,36.6,28.26
3.7728,-10.324,-2.7241,0.90683,1.566,2.1292,-13.38,37.44,27.78
4.2359,-10.501,-2.8875,0.88789,1.6197,1.985,-10.98,38.58,27.06
4.8216,-10.583,-3.2008,0.92454,1.5568,1.6335,-9.72,39.12,26.82
5.4209,-10.801,-3.4459,0.92027,1.2807,1.3503,-8.64,39.66,26.4
6.0611,-11.373,-3.909,0.87262,0.80634,1.0458,-6.42,40.26,25.74
6.0883,-11.945,-4.1406,0.70066,-0.000916,0.61789,-5.22,40.56,25.32
5.4481,-12.762,-4.0861,0.5959,-0.19975,0.48808,-4.44,40.92,24.84
4.5628,-13.934,-3.3778,0.34086,-0.40531,0.2193,-2.76,41.4,23.76
4.1406,-14.737,-3.1191,-0.08827,-0.17746,-0.27733,-2.04,41.76,23.4
4.127,-14.805,-3.0918,-0.26237,0.10843,-0.64966,-1.5,41.88,22.92
4.7535,-12.858,-3.0237,-0.29963,0.22297,-0.97677,-0.96,42.36,22.32
4.9033,-12.735,-2.9556,-0.45265,-0.15577,-1.4374,-0.66,42.48,22.14
5.1076,-13.511,-2.0839,-0.59101,-0.42302,-1.5669,-0.6,42.6,22.02
5.0259,-14.301,-1.4574,-0.95173,-1.1371,-1.7242,-0.66,42.54,21.84
4.699,-15.268,-1.1032,-1.3042,-1.941,-1.7801,-0.78,42.48,21.9
4.1542,-15.65,-0.64016,-1.6634,-2.788,-1.8589,-0.72,42.42,21.9
2.4517,-14.478,0.19068,-1.7868,-2.8708,-2.029,-1.08,42.3,22.38
1.7162,-13.253,0.31327,-1.8726,-2.2944,-2.4761,-1.38,42.06,22.74
1.1305,-11.959,-0.054481,-1.85,-1.9801,-2.6625,-2.1,41.52,23.34
0.9398,-10.351,-0.28603,-1.733,-1.2953,-3.0106,-2.64,41.16,23.64
1.0624,-10.12,-0.35413,-1.5684,-0.5229,-3.3051,-3.3,40.74,23.82
1.2122,-9.9156,-0.14982,-1.5363,-0.28222,-3.3469,-3.96,40.5,24.12
1.471,-9.9292,-0.068102,-1.573,-0.31673,-3.2984,-5.46,39.72,24.66
1.362,-9.8066,-0.068102,-1.6405,-0.52534,-3.0146,-6.3,39.36,24.9
1.1032,-9.5887,0.1362,-1.7266,-0.73793,-2.8799,-7.08,39.06,25.14
0.28603,-9.2755,0.51757,-1.7767,-0.90255,-2.3576,-8.64,38.22,25.8
-0.21793,-8.9213,0.83084,-1.7755,-0.77427,-1.9569,-9.48,37.74,26.1
-0.78998,-8.7306,1.1169,-1.6994,-0.44838,-1.5632,-10.32,37.14,26.64
-1.0896,-7.7227,1.6344,-1.5724,-0.075136,-1.2058,-12.12,35.58,27.36
-1.0624,-7.7091,1.6344,-1.3173,0.26053,-0.87201,-13.08,34.92,27.6
-0.91256,-7.927,1.5936,-0.70524,0.41325,-0.37141,-13.86,34.08,27.96
-0.83084,-8.0905,1.5119,-0.24129,0.26176,-0.011912,-14.82,33.42,28.26
-1.0624,-8.8941,1.6072,0.19914,0.060781,0.39767,-16.2,32.1,29.16
-1.3757,-10.256,1.4574,0.56627,-0.041844,0.85765,-16.86,31.5,29.52
-1.0351,-11.182,1.2939,0.89339,-0.039095,1.3717,-17.22,30.78,30.0
-0.14982,-11.278,0.70826,1.215,0.020464,1.8598,-17.82,29.88,30.54
0.47671,-11.046,0.12258,1.7,0.04948,2.3424,-17.94,29.52,30.96
0.98067,-11.141,-0.50395,1.8552,0.015272,2.4089,-18.18,29.4,31.2
1.2258,-12.653,-1.5119,2.1261,-0.10965,2.4581,-18.3,29.46,31.02
1.185,-13.375,-1.7434,2.2749,-0.31001,2.4557,-18.0,30.0,30.54
1.0351,-13.688,-2.1248,2.1588,-0.28405,2.5177,-17.76,30.6,30.06
1.0488,-11.959,-2.1793,1.9032,-0.063225,2.6029,-17.16,32.28,29.22
1.1577,-11.005,-2.1793,1.5519,0.53451,2.5977,-16.68,33.06,28.86
1.4982,-8.5808,-2.438,1.5076,0.7813,2.5381,-16.02,33.9,28.56
1.9886,-7.9951,-2.4517,1.4893,1.4609,2.2883,-14.7,35.58,27.72
2.4653,-7.8317,-2.6015,1.5033,1.6924,2.1344,-13.92,36.36,27.42
3.0918,-7.9951,-2.6151,1.4548,1.6893,2.0385,-13.08,37.32,26.7
3.8001,-8.6898,-2.8739,1.3473,1.5363,1.9951,-11.1,38.94,25.74
3.9771,-9.1665,-3.1191,1.1417,1.1927,1.9288,-10.14,39.66,25.02
3.9363,-9.7794,-3.4187,1.0693,1.1109,1.8876,-9.0,40.26,24.54
3.9363,-10.433,-3.6775,0.96883,1.0427,1.763,-6.78,41.22,23.58
4.127,-10.815,-3.9635,0.90927,1.0702,1.5733,-5.82,41.58,23.22
4.3449,-11.087,-4.1678,0.82406,1.1246,1.2178,-4.74,41.88,22.8
5.0123,-11.359,-4.2904,0.74037,1.0858,0.92852,-2.7,42.36,22.02
5.1485,-11.795,-4.3177,0.53695,0.75442,0.45601,-1.74,42.48,21.48
5.4345,-13.579,-4.4402,0.44471,0.56902,0.32345,-0.84,42.72,20.94
5.4209,-14.71,-4.304,0.25168,0.14722,0.12004,0.72,43.26,19.86
5.2438,-15.977,-3.8682,-0.091935,-0.39767,-0.15211,1.32,43.5,19.2
4.9033,-16.726,-3.5413,-0.34117,-0.55589,-0.42333,1.92,43.62,18.84
4.4402,-15.35,-3.3778,-0.52901,-0.49327,-0.77763,2.52,44.04,18.12
4.2768,-13.184,-3.1327,-0.77488,-0.31673,-1.4364,2.64,44.16,17.88
4.1951,-11.223,-2.4244,-0.88575,-0.32926,-1.6753,2.58,44.46,17.7
4.1406,-11.155,-2.0294,-1.2755,-0.64568,-2.2587,2.4,44.46,17.88
3.9363,-11.645,-1.6072,-1.5586,-1.0531,-2.4887,1.98,44.64,18.0
3.337,-12.762,-0.92618,-1.7966,-1.4945,-2.5882,0.66,44.58,18.48
2.9011,-13.021,-0.50395,-1.9737,-1.8228,-2.5788,-0.18,44.28,18.96
2.2882,-13.157,0.027241,-2.0229,-1.9419,-2.5119,-1.92,43.86,20.22
1.3348,-12.299,0.19068,-1.9309,-1.7061,-2.5409,-3.06,43.56,21.0
0.74912,-11.509,0.095342,-1.7627,-1.2831,-2.6249,-4.02,43.2,21.72
0.47671,-11.06,0.095342,-1.6863,-1.0021,-2.6652,-5.1,42.72,22.32
0.8036,-10.433,-0.21793,-1.4523,-0.1066,-2.7804,-7.44,41.88,23.52
1.0215,-10.447,-0.39499,-1.3631,0.081551,-2.8133,-8.58,41.28,24.18
1.0215,-10.27,-0.47671,-1.3601,0.068417,-2.7428,-9.66,40.62,24.72
1.0896,-9.6296,-0.35413,-1.438,-0.11637,-2.4923,-12.0,39.06,25.68
0.81722,-9.2618,-0.40861,-1.4575,-0.21655,-2.3714,-12.96,38.22,26.22
0.50395,-8.7715,-0.29965,-1.463,-0.3934,-2.1112,-13.86,37.26,26.76
-0.081722,-7.641,-0.24517,-1.3916,-0.49144,-1.8176,-14.7,36.42,27.3
-0.081722,-7.641,-0.24517,-1.3916,-0.49144,-1.8176,-14.7,36.42,27.3
-1.076,-6.565,-0.095342,-1.0287,-0.20983,-1.0889,-16.56,33.48,28.44
-1.1169,-6.5786,-0.12258,-0.60873,0.12126,-0.57391,-17.64,31.38,28.8
-0.98067,-7.2869,-0.27241,-0.44807,0.19487,-0.35644,-18.0,30.36,28.92
-0.8717,-7.75,-0.14982,-0.11423,0.29505,0.13928,-18.36,29.34,29.22
-0.84446,-8.4446,0.081722,0.32987,0.43402,0.99266,-18.66,28.38,29.52
-0.57205,-9.9973,0.47671,0.59956,0.53878,1.6396,-19.26,26.58,30.06
-0.095342,-10.746,0.61292,0.88148,0.58124,2.3045,-19.5,25.92,30.18
1.2803,-11.06,0.14982,1.226,0.53817,2.8821,-19.5,25.02,30.48
1.9613,-11.141,-0.36775,1.5898,0.35644,3.2254,-19.56,24.72,30.54
2.3155,-11.768,-1.185,1.9554,0.000305,3.3094,-19.56,24.84,30.3
2.4925,-13.212,-1.7979,2.2388,-0.70616,3.0827,-19.38,24.9,29.82
1.2803,-14.655,-1.6344,2.0491,-0.92821,2.8366,-18.84,25.8,28.92
0.64016,-14.574,-1.471,1.5547,-0.67684,2.6163,-18.66,26.52,28.5
0.28603,-12.217,-1.6208,1.0461,0.0097738,2.3201,-17.82,28.02,27.78
0.53119,-9.9292,-1.9205,0.79596,1.4203,2.1344,-17.4,28.92,27.54
0.92618,-8.9894,-1.9341,0.91233,2.2226,1.945,-16.98,29.76,27.3
1.8387,-7.8726,-1.8932,1.0009,2.5076,1.8857,-16.26,30.54,27.18
2.8058,-8.0088,-1.8387,1.1814,2.7733,1.8085,-15.06,32.1,26.7
3.7047,-8.2812,-1.8796,1.1417,2.5039,1.8747,-14.4,32.76,26.58
4.1542,-8.4855,-2.0839,0.91752,1.6808,2.1166,-13.14,34.14,25.98
4.3858,-9.112,-2.3563,0.78771,1.1264,2.2718,-12.48,34.74,25.62
4.3585,-9.6432,-2.5742,0.70372,0.74495,2.3375,-11.76,35.28,25.5
4.3858,-9.8611,-2.7377,0.68997,0.63377,2.3301,-11.1,35.64,25.32
4.4539,-10.052,-3.2144,0.7816,0.53023,2.0898,-10.44,35.94,25.26
4.9987,-10.379,-3.8546,0.88973,0.59284,1.7804,-8.76,36.48,24.9
5.5571,-10.774,-4.3449,0.94318,0.54459,1.1451,-7.98,36.78,24.54
6.0202,-12.177,-4.5356,0.90561,0.44593,0.91416,-6.66,37.14,24.0
6.0611,-12.871,-4.522,0.70647,0.18326,0.43952,-6.06,37.32,23.52
5.6933,-13.838,-4.0316,0.18112,-0.13867,-0.22022,-5.58,37.68,22.98
4.7535,-15.881,-3.4459,-0.17837,-0.15149,-0.65729,-4.38,38.28,22.2
4.3177,-16.018,-3.2961,-0.43707,0.0085521,-1.0507,-3.9,38.52,21.96
4.4402,-14.192,-3.2553,-0.52198,0.17135,-1.4132,-3.48,38.76,21.66
4.7126,-12.0,-2.6423,-0.56597,0.034819,-1.9575,-3.0,39.12,21.3
4.808,-11.863,-2.1929,-0.73823,-0.35919,-2.2715,-3.06,39.0,21.06
4.6582,-12.095,-1.8387,-0.88117,-0.62827,-2.3928,-3.12,39.18,21.24
4.0725,-13.171,-0.89894,-1.3219,-1.5571,-2.5815,-3.84,38.76,21.24
3.514,-13.307,-0.49033,-1.5455,-2.0382,-2.6209,-4.32,38.58,21.3
2.8603,-13.348,-0.12258,-1.6619,-2.3653,-2.6322,-5.46,37.92,21.84
2.0839,-12.286,0.027241,-1.5382,-2.3796,-2.6194,-6.12,37.5,22.26
1.8115,-11.605,0.027241,-1.3693,-2.2773,-2.6371,-6.78,37.14,22.62
1.5391,-11.182,0.027241,-1.2077,-2.073,-2.6582,-7.56,36.66,22.98
1.1986,-10.801,-0.21793,-1.1283,-1.7877,-2.6472,-9.12,35.88,23.58
1.1305,-10.801,-0.31327,-1.1283,-1.5223,-2.6188,-9.78,35.52,23.7
1.1305,-10.61,-0.31327,-1.2547,-1.3867,-2.5345,-11.16,34.8,24.42
0.8036,-10.243,-0.28603,-1.2938,-1.3195,-2.4887,-11.46,34.26,24.66
0.53119,-9.8884,-0.21793,-1.43,-1.0562,-2.3311,-11.82,33.9,24.96
0.25879,-9.5751,-0.12258,-1.4615,-0.93737,-2.2636,-12.12,33.12,25.2
-0.19068,-8.717,-0.027241,-1.4441,-0.44776,-1.996,-12.48,32.28,25.8
-0.40861,-8.322,0.040861,-1.4041,-0.13439,-1.7639,-12.54,31.62,26.16
-0.70826,-7.8453,0.29965,-1.3442,0.18234,-1.4963,-12.72,31.02,26.4
-1.2258,-7.4231,0.54481,-1.1991,0.6463,-0.99815,-12.96,29.64,26.76
-1.1169,-7.8998,0.57205,-0.96975,0.84574,-0.6127,-13.02,28.92,26.94
-1.1169,-8.1313,0.64016,-0.62919,0.90805,-0.18295,-13.14,28.38,27.18
-1.1577,-8.431,0.5993,-0.2193,0.86773,0.29016,-13.26,27.6,27.24
-1.3484,-9.902,0.70826,0.20464,0.8097,0.82406,-13.62,26.28,27.84
-1.076,-10.392,0.62654,0.60323,0.77916,1.4099,-13.68,25.74,27.9
-0.55843,-10.883,0.027241,0.96395,0.75198,1.9801,-14.1,24.66,28.02
0.65378,-10.883,-0.44947,1.4435,0.55008,2.5439,-14.4,24.42,27.84
1.185,-11.373,-1.1032,1.7315,0.2532,2.7028,-14.58,24.48,27.78
1.3757,-12.286,-1.6072,1.8653,0.067195,2.7306,-14.82,24.54,27.54
1.3076,-13.28,-1.9068,1.9957,-0.43524,2.7324,-14.94,24.54,27.24
0.46309,-13.961,-2.0431,1.7969,-0.4609,2.766,-15.18,25.5,26.46
0.32689,-13.28,-2.152,1.2596,0.11209,2.8198,-15.12,26.28,26.16
0.54481,-10.188,-2.3291,1.1319,0.4047,2.8149,-15.0,26.88,25.8
0.84446,-8.9622,-2.3699,1.0125,1.088,2.7184,-14.7,28.26,25.26
1.2667,-8.1995,-2.4108,1.0302,1.73,2.5571,-14.34,28.98,25.26
1.7843,-8.0088,-2.152,1.0318,2.3216,2.3662,-13.8,29.64,24.9
2.7649,-8.4174,-2.0022,0.9557,2.4395,2.3286,-12.72,30.96,24.42
3.228,-8.6898,-2.0567,0.78741,2.204,2.4257,-12.06,31.62,24.18
3.7184,-9.1256,-2.2065,0.69425,1.8473,2.5268,-10.68,32.46,24.06
4.1951,-9.8475,-2.2065,0.63622,1.5006,2.6017,-10.02,32.7,23.88
4.2904,-10.297,-2.3699,0.61453,1.3622,2.6166,-9.24,33.06,23.76
4.4266,-10.529,-2.5742,0.61697,1.1383,2.4603,-8.46,33.42,23.82
5.3528,-10.665,-3.1054,0.69455,1.095,2.2129,-6.96,33.72,23.64
5.7069,-10.774,-3.2961,0.76816,1.0559,1.8482,-6.06,33.78,23.46
6.1973,-11.319,-3.3915,0.7981,0.91874,1.4172,-5.28,34.08,23.28
6.8102,-12.653,-3.2825,0.73793,0.67806,0.95051,-3.66,34.2,22.68
6.7012,-13.416,-2.7649,0.58887,0.3769,0.45815,-2.94,34.38,22.26
6.4288,-14.315,-2.6151,0.26512,-0.022297,-0.27428,-2.46,34.56,22.02
5.993,-14.914,-2.9692,0.13622,-0.22663,-0.70494,-1.8,34.98,21.24
5.7886,-13.457,-3.1872,0.10629,-0.41875,-1.0846,-1.56,35.22,20.88
5.4345,-12.64,-2.9556,0.048564,-0.67317,-1.4438,-1.38,35.4,20.58
5.2166,-13.266,-2.4244,-0.17043,-1.098,-1.8002,-1.26,35.82,20.22
5.0123,-14.015,-1.9068,-0.54398,-1.6594,-2.0696,-1.32,35.94,20.16
4.6718,-14.615,-1.58,-1.1154,-2.4676,-2.3283,-1.44,35.88,20.1
2.8739,-15.84,-0.34051,-1.3867,-2.7376,-2.4923,-1.8,35.76,20.16
2.4517,-15.704,-0.16344,-1.5721,-2.704,-2.7043,-2.22,35.46,20.4
1.6344,-14.574,-0.027241,-1.6558,-2.241,-3.0442,-2.82,35.04,20.7
1.2667,-13.021,0.16344,-1.6402,-2.0366,-3.16,-3.72,34.62,21.48
1.1577,-12.136,0.054481,-1.6002,-1.6466,-3.3924,-4.44,34.26,21.9
1.1305,-11.605,-0.054481,-1.5067,-1.2614,-3.5943,-5.1,33.84,22.38
1.1577,-11.06,-0.054481,-1.4957,-1.182,-3.58,-6.48,32.82,23.4
0.98067,-10.828,-0.081722,-1.511,-1.0993,-3.4444,-7.14,32.4,23.64
0.76274,-10.161,-0.17706,-1.5345,-1.1387,-3.1588,-8.4,31.32,24.06
0.44947,-9.8748,-0.027241,-1.5635,-1.179,-2.9007,-8.64,30.72,24.36
0.040861,-9.4117,0.054481,-1.5791,-1.1451,-2.7593,-9.06,30.12,24.6
-0.34051,-8.7987,0.27241,-1.6145,-0.90133,-2.2547,-9.48,29.64,24.9
-1.3484,-8.0632,0.57205,-1.6191,-0.60201,-1.8894,-10.08,28.5,25.5
-1.6753,-7.5729,0.6674,-1.5244,-0.23182,-1.5049,-10.5,27.9,25.68
-1.757,-7.5729,0.61292,-1.3173,0.092546,-1.0852,-10.92,26.58,26.16
-1.6344,-7.8589,0.5993,-0.85765,0.3824,-0.3708,-11.04,26.04,26.4
-1.4165,-8.2539,0.6674,-0.52748,0.46212,0.11912,-11.16,25.44,26.52
-1.4438,-8.7034,0.84446,-0.3824,0.46731,0.36835,-11.22,24.9,26.64
-1.2803,-10.311,1.0215,0.070555,0.5061,1.1377,-11.22,23.94,26.94
-0.89894,-11.768,1.1577,0.36224,0.55986,1.6603,-11.22,23.52,27.3
-0.054481,-11.85,0.84446,0.84391,0.6915,2.3356,-10.98,23.04,27.9
0.85808,-11.073,0.24517,1.1942,0.69975,2.5806,-11.04,23.04,28.02
1.4165,-10.896,-0.28603,1.5479,0.54611,2.6276,-11.04,22.98,28.08
1.6753,-11.25,-0.76274,1.7159,0.40836,2.5925,-11.04,22.92,27.96
1.6753,-12.449,-1.471,2.0067,-0.1124,2.4459,-10.86,23.28,27.78
1.1169,-13.634,-1.6617,1.9288,-0.3259,2.4206,-10.74,24.24,27.12
0.8036,-13.021,-1.58,1.4679,-0.084299,2.5724,-10.44,25.08,26.46
0.85808,-10.692,-1.5936,1.2306,0.33842,2.6676,-10.08,26.52,25.56
1.1032,-9.4117,-1.6072,1.1738,0.82956,2.6738,-9.9,27.24,25.08
1.4438,-8.4446,-1.7025,1.2581,1.2773,2.6197,-9.54,27.9,24.66
2.2065,-7.927,-1.8115,1.3683,1.5797,2.5702,-8.46,29.4,24.24
2.8058,-8.1586,-1.8524,1.4206,1.6716,2.5439,-7.8,29.88,23.94
3.3506,-8.3765,-1.8387,1.3705,1.5663,2.5571,-7.2,30.36,23.94
4.1542,-9.3708,-1.9613,1.2089,1.1503,2.6234,-5.82,31.38,23.4
4.413,-10.12,-2.3155,1.1512,0.85582,2.6261,-5.04,31.8,23.28
4.6309,-10.597,-2.6151,1.1466,0.71532,2.5965,-4.2,32.22,23.16
4.9442,-11.278,-3.2008,1.1909,0.47983,2.302,-2.46,32.76,22.98
5.2166,-11.468,-3.5413,1.2162,0.48778,1.9349,-1.5,32.88,22.8
5.4481,-11.536,-4.2904,1.1411,0.48991,1.2013,0.36,32.94,22.44
5.8704,-12.381,-4.522,1.0076,0.37202,0.66554,1.44,33.12,22.32
5.9249,-13.157,-4.5356,0.88973,0.26695,0.41478,2.52,33.3,22.02
5.7342,-13.716,-4.304,0.30849,-0.020464,-0.23793,3.42,33.48,21.78
4.8625,-14.315,-3.6094,-0.074526,-0.021991,-0.62553,4.74,33.78,20.7
4.2223,-14.669,-3.3234,-0.34789,0.1573,-1.0168,5.34,34.14,20.34
4.2087,-13.934,-3.2144,-0.489,0.33445,-1.3665,5.94,34.32,19.68
4.6445,-12.19,-2.9284,-0.52748,0.21472,-1.7856,6.54,34.74,18.9
4.6854,-12.544,-2.5061,-0.55528,0.046731,-1.8903,6.72,35.1,18.48
4.808,-12.994,-2.2882,-0.75289,-0.49999,-2.0412,6.66,35.22,18.0
4.8216,-14.124,-1.6072,-1.2541,-1.719,-2.0714,6.42,35.52,17.76
4.1951,-15.418,-0.8036,-1.5635,-2.5,-2.0134,5.34,35.88,17.34
3.4732,-15.745,-0.20431,-1.7565,-3.043,-1.9435,4.68,36.12,17.28
2.6015,-14.683,0.29965,-1.8521,-3.3185,-2.0024,2.94,36.3,17.58
1.6753,-13.321,0.29965,-1.8305,-3.0076,-2.1793,1.86,36.36,17.82
1.0351,-12.258,0.27241,-1.7868,-2.3903,-2.4789,0.66,36.6,18.06
0.54481,-10.869,-0.10896,-1.7266,-1.5941,-2.7437,-1.62,36.84,18.84
0.44947,-10.379,-0.21793,-1.6921,-0.83505,-2.9346,-2.88,36.78,19.2
0.8036,-10.188,-0.38137,-1.6787,-0.26786,-3.0287,-4.32,36.78,19.68
1.185,-9.9565,-0.054481,-1.7184,-0.10996,-3.0439,-6.84,36.42,20.64
1.0624,-9.7249,0.01362,-1.8176,-0.19334,-2.9123,-8.1,35.94,21.0
1.0079,-9.4389,0.1362,-1.8408,-0.25381,-2.8127,-9.42,35.46,21.66
0.43585,-8.7034,0.83084,-1.8891,-0.42608,-2.3662,-11.22,34.14,22.92
0.17706,-8.2812,1.2667,-1.8964,-0.43005,-1.9914,-12.18,33.36,23.58
-0.095342,-8.1313,1.3757,-1.7636,-0.48564,-1.6109,-12.96,32.52,24.18
-0.64016,-7.7091,1.6753,-1.525,-0.759,-0.96578,-14.46,30.72,25.2
-0.92618,-7.5729,1.7025,-0.95906,-0.82192,-0.46884,-15.06,29.64,25.8
-1.1032,-7.5457,1.6072,-0.43952,-0.70066,0.012523,-15.48,28.5,26.22
-1.2395,-7.8589,1.471,0.10201,-0.43799,0.42272,-16.2,26.4,27.24
-1.0215,-9.0575,1.1713,0.61942,-0.19792,0.78282,-16.38,25.44,27.66
-0.76274,-9.7385,0.89894,1.0388,-0.048258,1.1408,-16.38,24.48,28.02
0.14982,-10.161,0.20431,1.3909,0.042761,1.5061,-16.44,23.1,28.62
0.74912,-10.174,-0.39499,1.8436,0.046426,1.9352,-16.32,22.56,28.86
1.0215,-10.46,-0.81722,2.1044,-0.072998,2.0562,-16.08,22.44,28.8
1.4301,-12.286,-1.7979,2.2538,-0.26206,2.04,-15.9,22.14,28.74
1.3484,-13.007,-1.8932,2.2086,-0.4105,1.9523,-15.6,22.44,28.62
0.84446,-13.375,-1.7706,1.9294,-0.35858,1.8253,-15.48,22.86,28.5
0.19068,-12.313,-1.7298,1.5195,0.21411,1.6671,-15.0,23.94,27.9
0.17706,-11.319,-1.866,1.0861,0.80604,1.6057,-14.7,24.72,27.42
0.35413,-9.6977,-1.9613,1.0498,1.0986,1.5791,-14.7,25.56,27.12
0.83084,-7.9951,-1.8387,1.1643,1.8375,1.5253,-14.52,26.46,26.76
1.5936,-6.9328,-1.6072,1.2914,2.1081,1.5177,-14.1,28.02,26.34
1.9886,-6.9736,-1.7025,1.3653,2.1331,1.5776,-13.98,28.8,26.04
2.4108,-7.1234,-1.7706,1.3583,1.9572,1.7251,-13.56,29.58,25.8
3.1872,-7.7636,-2.0839,1.3137,1.4401,2.0916,-13.08,30.9,25.14
3.4459,-8.4719,-2.3427,1.3045,1.0531,2.3335,-12.72,31.38,24.9
3.6366,-9.4389,-2.6696,1.3005,0.8717,2.4297,-12.36,31.98,24.6
3.9363,-11.114,-3.1872,1.3045,0.45998,2.5452,-11.4,33.18,23.88
4.1814,-11.891,-3.6639,1.2929,0.33078,2.4288,-10.8,33.54,23.4
4.1542,-11.795,-4.0725,1.2523,0.43066,2.1173,-10.2,33.9,22.98
4.0452,-11.959,-4.522,1.149,0.93096,1.3613,-8.82,34.62,22.26
4.304,-12.98,-4.6037,1.0263,1.1429,0.75564,-7.98,34.92,21.96
4.6445,-13.702,-4.6037,0.89278,1.1567,0.49144,-7.2,35.16,21.3
5.0531,-14.737,-3.8137,0.31734,0.89797,-0.082772,-5.82,35.82,19.86
4.8625,-15.364,-3.6094,-0.015577,0.58643,-0.30818,-5.34,36.24,19.2
4.7126,-15.677,-3.6775,-0.23396,0.30574,-0.45754,-4.92,36.6,18.6
4.6445,-12.326,-3.5413,-0.30177,0.11423,-0.71471,-4.32,37.14,17.46
4.6582,-11.128,-3.2144,-0.34697,-0.10232,-0.97372,-4.14,37.32,16.98
4.5764,-11.073,-2.9011,-0.42791,-0.27275,-1.1069,-3.84,37.5,16.5
4.7807,-12.64,-2.4789,-0.85277,-1.1148,-1.3463,-3.9,37.74,15.66
4.7126,-14.288,-1.9886,-1.212,-1.8543,-1.3268,-4.14,37.8,15.3
4.1814,-15.255,-1.5255,-1.5094,-2.4642,-1.2633,-4.32,37.8,15.06
2.9829,-15.772,-0.76274,-1.8204,-2.6866,-1.3454,-5.1,37.62,14.82
2.3699,-14.669,-0.38137,-1.9991,-2.3463,-1.5861,-5.58,37.5,14.76
1.7843,-13.089,-0.068102,-2.0455,-2.051,-1.7608,-6.06,37.32,14.94
1.0896,-11.06,-0.19068,-2.0397,-0.95112,-2.4273,-7.14,36.84,15.42
1.1577,-10.569,-0.20431,-1.9627,-0.31307,-2.8576,-7.74,36.6,15.66
1.3212,-10.433,-0.16344,-1.8775,0.085827,-3.1392,-8.4,36.24,16.02
1.6753,-10.27,0.054481,-1.846,0.2416,-3.2516,-9.66,35.7,16.68
1.7706,-10.025,0.24517,-1.85,0.15119,-3.2681,-10.56,35.46,17.16
1.5119,-9.8748,0.31327,-1.8876,-0.25565,-3.076,-11.4,34.98,17.52
0.99429,-9.4798,0.55843,-1.9099,-0.54886,-2.8326,-12.78,34.08,18.48
0.25879,-8.9622,0.72188,-1.8833,-0.70188,-2.4969,-13.56,33.6,19.14
-0.19068,-8.4991,0.8717,-1.803,-0.63561,-2.0968,-14.22,33.12,19.62
-1.0624,-8.0224,0.89894,-1.5278,-0.24251,-1.5305,-15.72,31.8,20.88
-1.1577,-8.0632,0.8717,-1.2889,0.085827,-1.1545,-16.44,31.08,21.48
-1.0896,-7.9543,0.99429,-1.1726,0.24587,-0.94562,-17.1,30.36,21.9
-0.96704,-8.036,0.95342,-0.89889,0.47922,-0.53787,-17.76,29.58,22.38
-0.84446,-8.2267,0.85808,-0.45112,0.5565,0.032681,-18.84,28.14,23.22
-0.85808,-8.7715,0.6674,-0.10812,0.48594,0.39981,-19.26,27.54,23.7
-1.0079,-9.4253,0.64016,0.23549,0.39828,0.80879,-19.68,26.28,24.42
-0.35413,-9.9837,0.50395,0.75961,0.33384,1.5,-19.86,25.74,24.72
0.095342,-10.474,0.31327,1.2538,0.20861,2.0522,-19.92,25.38,25.08
0.68102,-10.992,-0.21793,1.2538,0.20861,2.0522,-20.1,25.2,25.32
0.98067,-11.468,-0.50395,1.7132,-0.018326,2.3326,-20.1,25.08,25.44
1.3348,-12.381,-1.0896,1.9847,-0.32376,2.375,-19.98,25.08,25.5
1.362,-13.743,-1.8932,2.1603,-0.67134,2.3573,-19.8,25.68,25.2
1.0351,-13.866,-2.4653,2.1628,-0.86376,2.3329,-19.62,26.04,24.84
0.47671,-11.85,-2.438,1.8711,-0.47739,2.3161,-19.08,27.48,23.76
0.40861,-10.161,-2.5061,1.74,-0.19853,2.2849,-18.72,28.32,23.46
0.49033,-8.9622,-2.5879,1.474,0.87415,2.051,-18.3,29.1,23.22
1.2667,-7.1915,-2.5606,1.4102,1.481,1.8192,-17.34,30.66,22.5
1.8115,-7.1098,-2.3972,1.3399,1.8308,1.7294,-16.68,31.5,22.08
2.2882,-7.2869,-2.3155,1.2562,1.9426,1.7526,-16.08,32.1,21.72
2.9011,-7.7772,-2.1656,1.1741,1.8427,1.9138,-14.7,33.48,20.94
3.3778,-8.3765,-2.5334,1.131,1.4239,2.284,-14.04,34.08,20.46
3.5958,-9.0303,-2.7786,1.1701,1.0482,2.4899,-13.14,34.56,20.04
4.2359,-10.637,-3.7184,1.2138,0.64049,2.6072,-11.22,35.52,19.32
4.5356,-11.427,-4.2768,1.1927,0.31887,2.5552,-10.38,35.76,18.9
5.4209,-11.986,-5.0259,1.076,0.10599,2.3402,-8.4,36.3,18.24
5.7069,-12.258,-5.1213,0.76175,0.015272,1.7526,-7.32,36.48,17.88
5.775,-12.708,-5.2575,0.5565,0.046731,1.1842,-6.18,36.72,17.34
5.8704,-13.362,-5.38,0.33292,0.10263,0.58246,-5.22,36.96,16.8
5.6116,-14.574,-4.4539,0.069028,0.2303,-0.000305,-3.24,37.14,15.66
5.2166,-15.364,-3.732,-0.19884,0.39737,-0.54856,-2.34,37.26,15.12
4.7807,-15.391,-3.4868,-0.3882,0.58887,-1.0302,-1.62,37.62,14.82
4.8625,-13.225,-3.4187,-0.46029,0.63683,-1.5733,-0.36,37.8,14.1
4.7944,-12.449,-2.9965,-0.51526,0.38118,-1.8641,0.18,37.8,13.86
4.7944,-12.503,-2.833,-0.71257,-0.12248,-2.0669,0.3,37.92,13.74
4.7535,-13.239,-1.9477,-0.99388,-0.87384,-2.1444,0.3,38.04,13.38
4.413,-13.866,-1.471,-1.2926,-1.7147,-2.1063,0.18,38.04,13.44
3.8273,-14.574,-0.91256,-1.5314,-2.4089,-2.0018,-0.18,38.04,13.56
2.7377,-14.547,-0.32689,-1.7291,-2.8949,-1.9099,-0.96,37.8,14.1
2.0567,-13.484,0.01362,-1.7898,-2.7608,-1.9765,-1.56,37.68,14.52
1.471,-12.681,-0.01362,-1.8201,-2.2452,-2.1756,-2.04,37.56,14.88
0.83084,-11.346,-0.095342,-1.7941,-1.4905,-2.459,-3.48,37.8,15.84
0.68102,-10.256,-0.38137,-1.7428,-0.72968,-2.7498,-4.32,37.8,16.26
1.1169,-10.243,-0.23155,-1.6933,-0.098349,-2.9871,-5.1,37.74,16.5
1.3757,-10.215,-0.1362,-1.7284,-0.04948,-3.0106,-6.66,37.86,17.22
1.2531,-10.011,0.12258,-1.7813,-0.14661,-2.9239,-7.32,37.74,17.58
1.1577,-9.9565,0.20431,-1.8271,-0.34208,-2.7636,-7.98,37.86,17.88
0.24517,-9.2891,0.53119,-1.8439,-0.46517,-2.5171,-9.48,37.68,18.9
-0.57205,-8.7715,0.76274,-1.8308,-0.40164,-2.1951,-10.02,37.44,19.44
-1.6481,-8.0632,1.0624,-1.7608,-0.13042,-1.8262,-10.8,37.2,20.1
-1.8387,-7.2188,1.2122,-1.617,0.24526,-1.4242,-12.18,36.84,21.12
-1.5936,-7.0281,1.185,-1.1524,0.66798,-0.74312,-12.9,36.42,21.54
-1.2803,-7.1643,1.0215,-0.70402,0.64416,-0.2645,-13.74,36.0,22.14
-0.8036,-7.8317,0.96704,-0.25198,0.41875,0.19731,-15.18,35.22,22.86
-0.85808,-8.5536,1.0215,0.13622,0.13347,0.60842,-15.78,34.74,23.34
-0.96704,-11.046,0.96704,0.62553,-0.050702,1.2639,-16.86,33.84,24.24
-0.64016,-11.782,0.81722,0.92546,-0.029322,1.7058,-17.34,33.6,24.6
0.01362,-11.931,0.53119,1.2333,0.044288,2.0898,-17.76,33.42,25.02
0.50395,-11.509,0.27241,1.3763,0.071471,2.2382,-17.94,33.06,25.26
1.2258,-11.182,-0.50395,1.879,-0.027489,2.3873,-18.0,33.0,25.32
1.6344,-12.163,-1.5119,2.1735,-0.28833,2.3014,-17.94,33.42,25.2
1.4438,-12.939,-1.8251,2.2642,-0.55222,2.2159,-17.7,33.84,24.66
0.70826,-13.539,-1.8524,2.1127,-0.63347,2.1631,-17.04,35.1,23.76
0.55843,-12.585,-1.9341,1.7837,-0.41203,2.1805,-16.68,35.88,23.22
0.54481,-11.713,-2.0703,1.4661,0.046731,2.2071,-16.14,36.54,22.68
0.88532,-9.1393,-2.4789,1.3344,0.96914,2.124,-14.76,37.92,21.54
1.3757,-8.2267,-2.6151,1.4154,1.5305,2.0082,-14.1,38.7,21.06
2.0294,-7.9679,-2.6015,1.4878,1.8543,1.9108,-13.38,39.54,20.7
3.1599,-8.1586,-2.6015,1.3754,1.813,1.7932,-11.58,40.86,19.62
3.6094,-8.2131,-2.6696,1.1829,1.5754,1.7688,-10.62,41.46,19.14
3.8818,-8.3493,-2.6423,1.0925,1.4404,1.7648,-9.66,42.0,18.48
4.018,-8.9758,-3.2008,0.9331,1.0449,1.7584,-7.62,42.84,17.28
3.9499,-9.1801,-3.4187,0.92118,0.87476,1.7141,-6.54,43.2,16.74
4.0589,-9.5342,-3.8001,0.94928,0.80634,1.6322,-5.58,43.38,16.32
4.3858,-10.161,-4.2632,0.9334,0.7477,1.4291,-3.36,43.44,15.66
4.5492,-10.433,-4.4402,0.86376,0.68386,1.2504,-2.28,43.5,15.18
4.6037,-10.719,-4.4402,0.80481,0.63774,1.1539,-1.32,43.68,14.7
5.0531,-12.408,-4.7671,0.59987,0.42791,0.81245,0.78,43.62,13.92
5.0531,-13.13,-4.5083,0.37018,0.28008,0.53267,1.8,43.68,13.26
4.7263,-14.029,-3.8001,0.064752,0.21014,0.20189,2.76,43.74,12.54
4.1406,-15.663,-3.4459,-0.23671,0.30146,-0.17562,4.26,43.86,11.64
4.304,-14.587,-3.4459,-0.46548,0.66768,-0.77488,4.8,43.98,11.28
4.5356,-13.579,-3.3234,-0.49205,0.70402,-1.1509,5.22,44.1,11.04
4.7535,-12.435,-2.8739,-0.5791,0.41386,-1.5033,5.4,44.22,10.8
5.0123,-12.599,-2.3972,-0.79046,-0.15699,-1.7611,5.64,44.52,10.56
5.0531,-13.212,-2.0022,-1.084,-0.97677,-1.8573,5.64,44.76,10.68
4.6718,-14.737,-0.89894,-1.481,-2.1484,-1.846,5.04,45.0,10.86
3.4051,-15.2,-0.61292,-1.6683,-2.5647,-1.8283,4.44,45.24,11.22
2.6832,-14.329,-0.24517,-1.7388,-2.6508,-1.8558,3.84,45.3,11.58
2.3018,-13.321,-0.095342,-1.7862,-2.5895,-1.9612,3.06,45.48,12.06
1.1713,-10.91,-0.24517,-1.7083,-1.9352,-2.3185,1.2,45.84,13.44
0.89894,-10.379,-0.31327,-1.6151,-1.2633,-2.6295,-0.06,46.02,14.16
0.85808,-10.161,-0.53119,-1.5507,-0.41294,-2.9538,-2.46,46.2,15.9
1.4165,-10.27,-0.24517,-1.5711,-0.22694,-3.0568,-3.72,46.26,16.62
1.3212,-10.174,-0.1362,-1.6222,-0.23366,-3.0372,-5.1,46.2,17.4
1.1169,-9.9292,-0.095342,-1.6753,-0.30299,-2.9389,-6.48,46.2,18.12
0.85808,-9.6841,-0.01362,-1.6982,-0.43371,-2.751,-7.86,46.02,19.02
0.10896,-8.8668,0.23155,-1.6872,-0.5058,-2.4768,-10.8,45.42,20.7
-0.28603,-8.2676,0.21793,-1.6353,-0.44013,-1.9829,-12.12,44.94,21.72
-1.0624,-7.6546,0.32689,-1.489,-0.14142,-1.6255,-14.64,43.5,23.7
-1.2667,-7.355,0.40861,-1.3186,0.13347,-1.2596,-15.84,42.72,24.6
-1.2395,-7.3822,0.38137,-1.2089,0.25626,-1.073,-16.74,41.82,25.38
-0.83084,-8.4855,0.24517,-0.79993,0.51404,-0.51679,-18.78,39.9,27.06
-0.74912,-8.9894,0.32689,-0.50702,0.58521,-0.14539,-19.56,38.76,27.96
-0.8036,-9.5342,0.49033,-0.22724,0.66981,0.24496,-20.4,37.68,28.5
-0.8036,-10.229,0.65378,0.055589,0.82558,0.72235,-21.9,35.52,29.52
-0.38137,-10.038,0.64016,0.56994,0.99876,1.5916,-22.44,34.62,30.0
0.040861,-9.8748,0.32689,0.96761,0.94012,2.1652,-22.92,33.66,30.6
1.2803,-9.7385,-0.43585,1.3873,0.70036,2.5675,-23.76,32.28,31.26
1.866,-10.324,-1.0488,1.7908,0.27672,2.7978,-23.88,31.86,31.32
2.3563,-11.741,-2.1112,2.1243,-0.30329,2.8714,-24.0,31.74,31.02
1.6753,-12.871,-2.2882,2.2452,-0.87354,2.8289,-24.18,32.16,30.42
0.61292,-13.239,-2.0567,1.9096,-1.0369,2.7996,-24.06,32.88,30.0
0.20431,-12.653,-2.1112,1.4572,-0.55375,2.7681,-24.0,33.48,29.52
0.12258,-11.223,-2.2746,1.1383,0.20495,2.6881,-23.7,34.26,28.86
0.58567,-8.9894,-2.6287,1.08,1.0586,2.5556,-22.74,36.0,27.84
1.4165,-8.2812,-2.4789,1.1347,1.763,2.3851,-22.14,36.9,27.42
1.9613,-7.9951,-2.2746,1.1655,2.2868,2.1609,-20.34,38.7,26.58
2.9011,-8.2948,-2.2746,1.0883,2.3146,2.08,-19.44,39.6,26.1
3.5685,-8.6898,-2.4108,0.98258,2.1093,2.091,-18.36,40.5,25.68
3.8273,-9.0575,-2.4517,0.87659,1.7294,2.1386,-17.16,41.46,25.14
4.3177,-9.7385,-2.7922,0.79382,1.3002,2.1478,-15.0,43.14,24.18
4.304,-9.8475,-2.8058,0.74587,0.97097,2.0925,-13.8,43.86,23.94
4.3313,-10.12,-3.3778,0.75564,0.76633,1.9306,-12.6,44.4,23.52
4.6309,-10.556,-3.6366,0.82467,0.59437,1.5586,-10.14,45.18,22.86
4.7399,-10.787,-3.8137,0.8491,0.54764,1.4184,-8.94,45.54,22.5
5.0395,-11.673,-4.2223,0.85246,0.43433,1.106,-7.92,45.66,22.26
5.2983,-12.735,-4.3177,0.68509,0.1631,0.60231,-5.88,46.2,21.3
5.1621,-13.511,-3.7456,0.44166,0.0036652,0.26756,-5.04,46.5,20.7
4.6445,-14.737,-3.337,0.10537,-0.064141,-0.10934,-4.32,46.86,20.16
4.1678,-14.955,-3.4187,-0.21716,0.15241,-0.73823,-3.18,47.22,19.44
4.3177,-13.552,-3.5413,-0.25565,0.2303,-0.95081,-2.76,47.34,19.2
4.4266,-12.653,-3.4051,-0.31001,0.24099,-1.3302,-2.58,47.4,18.9
4.5628,-12.027,-2.6423,-0.54703,-0.23579,-1.8344,-2.46,47.34,18.72
4.4675,-12.885,-2.261,-0.85827,-0.82436,-2.0635,-2.76,47.1,18.66
4.1678,-14.056,-1.7298,-1.2052,-1.5156,-2.1444,-2.94,46.98,18.66
3.2961,-14.696,-1.185,-1.5507,-2.3097,-2.1414,-3.96,46.08,19.08
2.6151,-14.424,-0.70826,-1.6307,-2.4838,-2.1261,-4.56,45.6,19.44
2.1248,-13.77,-0.40861,-1.6441,-2.335,-2.1991,-5.16,45.18,19.86
1.3757,-12.027,-0.24517,-1.6222,-1.9355,-2.3479,-6.84,44.1,20.7
1.185,-11.196,-0.29965,-1.5766,-1.4395,-2.5751,-7.62,43.26,21.3
1.1169,-10.379,-0.32689,-1.5198,-0.96914,-2.7715,-8.46,42.6,21.96
1.3484,-10.379,-0.32689,-1.496,-0.53267,-2.941,-10.26,41.16,23.1
1.2667,-10.256,-0.10896,-1.5302,-0.46242,-2.9581,-11.1,40.44,23.46
1.2122,-10.256,-0.040861,-1.5519,-0.45082,-2.9383,-11.7,39.54,23.88
1.0215,-9.902,-0.040861,-1.5858,-0.51374,-2.8054,-13.14,37.74,24.6
0.65378,-9.4934,0.01362,-1.5907,-0.60292,-2.6481,-13.68,36.84,25.02
0.24517,-8.9486,0.29965,-1.5663,-0.59712,-2.434,-14.22,35.88,25.5
-0.69464,-7.7091,0.54481,-1.5015,-0.36927,-2.0357,-15.18,33.96,26.28
-1.2122,-7.2188,0.50395,-1.3668,-0.10201,-1.7068,-15.66,33.06,26.64
-1.3348,-6.8374,0.54481,-1.2608,0.034514,-1.5235,-16.02,32.04,26.88
-1.2531,-7.0553,0.24517,-0.82406,0.34056,-0.87751,-16.62,29.94,27.42
-1.1169,-7.6274,0.1362,-0.49388,0.43097,-0.39492,-16.92,29.1,27.66
-0.88532,-8.3493,0.10896,-0.057116,0.44868,0.28161,-17.58,27.24,27.9
-0.8036,-9.2346,-0.095342,0.19792,0.4722,0.7422,-17.76,26.46,28.08
-0.57205,-10.025,-0.095342,0.47189,0.51496,1.2617,-17.88,25.68,28.32
-0.44947,-10.351,-0.054481,0.61545,0.52565,1.5369,-18.0,25.08,28.44
0.32689,-11.06,-0.50395,1.0913,0.5174,2.3485,-18.12,24.12,28.8
0.89894,-11.196,-0.8036,1.4157,0.45968,2.7406,-18.06,23.76,28.74
1.3893,-11.359,-1.2531,1.7187,0.30849,2.9572,-17.94,23.58,28.68
1.7298,-12.476,-2.152,1.9474,-0.13286,2.9691,-17.76,24.06,28.08
1.4574,-12.994,-2.0975,1.9694,-0.34697,2.8796,-17.64,24.48,27.48
1.0896,-13.484,-1.9886,1.7178,-0.31185,2.8063,-17.58,25.02,27.06
0.83084,-13.43,-2.0022,1.3662,-0.018326,2.77,-17.46,25.68,26.7
1.0351,-10.787,-2.1929,1.1347,0.46273,2.7052,-17.34,27.12,25.74
1.3212,-9.398,-2.1929,1.0773,1.0293,2.5888,-16.98,27.84,25.5
1.6617,-7.9543,-2.0567,1.1509,1.7562,2.3237,-15.9,29.4,24.78
2.6287,-7.9679,-2.0839,1.171,1.9734,2.1759,-15.42,30.12,24.54
3.2416,-8.1041,-2.0431,1.1228,1.9001,2.0846,-14.76,30.78,24.3
3.7865,-8.3493,-2.0567,1.0366,1.5895,2.0714,-13.98,31.5,23.88
4.0316,-8.7579,-2.1248,0.93279,1.19,2.0901,-13.32,32.16,23.4
4.2223,-9.5479,-2.5879,0.87262,0.82192,2.0998,-11.94,33.3,22.98
4.3177,-9.8203,-2.9284,0.8769,0.47373,2.0082,-11.16,33.84,22.74
4.5764,-10.351,-3.7047,0.93432,0.41905,1.9367,-9.36,34.38,22.44
4.9987,-10.311,-4.127,1.0327,0.26573,1.5711,-8.4,34.74,22.2
5.2302,-10.202,-4.4947,1.0489,0.18754,1.412,-7.38,35.1,21.96
5.3256,-11.319,-4.6173,0.94592,-0.1124,0.88117,-5.16,35.34,21.48
5.094,-12.286,-4.4675,0.6747,-0.2416,0.47067,-4.38,35.58,21.0
4.9442,-13.157,-4.1542,0.27458,-0.22541,0.067501,-3.72,35.82,20.52
4.2495,-14.642,-3.1463,-0.097128,-0.084605,-0.37751,-2.4,36.12,19.5
3.9635,-15.023,-2.7649,-0.35888,0.13867,-0.81551,-2.1,36.36,19.2
4.018,-14.764,-2.8194,-0.46212,0.3259,-1.2065,-1.68,36.42,18.84
4.4539,-13.171,-2.9284,-0.38943,0.26909,-1.6466,-1.26,36.6,18.12
4.5628,-12.612,-2.8739,-0.39034,-0.050396,-1.857,-1.32,36.72,17.88
4.6037,-12.994,-2.4653,-0.73945,-0.93279,-2.0595,-1.86,36.72,17.7
4.2495,-13.961,-1.4438,-1.1322,-1.6533,-2.105,-2.28,36.54,17.64
3.7456,-14.601,-0.92618,-1.4926,-2.2639,-2.116,-2.76,36.24,17.7
3.2825,-14.86,-0.61292,-1.6313,-2.4691,-2.1142,-3.54,35.82,17.82
2.2746,-14.288,0.095342,-1.8812,-2.638,-2.1875,-4.86,35.22,18.24
1.6753,-13.062,0.16344,-1.8696,-2.4163,-2.3228,-5.64,34.74,18.6
1.1577,-11.877,0.1362,-1.7862,-1.9264,-2.5299,-6.42,34.2,18.9
0.6674,-10.556,-0.081722,-1.562,-0.95417,-2.8986,-8.28,33.3,19.8
0.92618,-10.379,-0.24517,-1.456,-0.39279,-3.036,-8.94,32.7,20.28
1.2803,-10.297,-0.068102,-1.4465,-0.24954,-3.0827,-9.84,32.1,20.58
1.2803,-10.038,0.054481,-1.4746,-0.20892,-3.0904,-11.1,30.72,21.36
1.3076,-9.8066,0.16344,-1.5275,-0.34819,-2.9709,-11.58,29.94,21.66
0.96704,-9.2346,0.28603,-1.5669,-0.54825,-2.7764,-11.88,29.1,21.9
0.01362,-8.5127,0.54481,-1.5458,-0.6466,-2.3152,-12.3,27.24,22.5
-0.47671,-7.75,0.65378,-1.4554,-0.52504,-1.9508,-12.54,26.4,22.8
-0.77636,-7.4776,0.70826,-1.4004,-0.42791,-1.7599,-12.48,25.56,22.98
-1.185,-7.5048,0.68102,-1.0898,-0.043066,-1.1487,-12.6,23.64,23.46
-1.0488,-7.7364,0.6674,-0.80695,0.18937,-0.68845,-12.48,22.8,23.58
-0.8036,-7.9951,0.51757,-0.50793,0.34728,-0.2138,-12.48,21.9,23.88
-0.36775,-8.54,0.39499,-0.2138,0.41539,0.43127,-12.12,20.22,24.0
-0.27241,-9.0167,0.23155,0.22113,0.43677,0.79046,-12.12,19.44,24.18
-0.21793,-9.7794,0.16344,0.50916,0.44899,1.138,-11.88,18.78,24.3
-0.054481,-10.869,0.054481,0.76267,0.47556,1.5351,-11.4,17.76,24.48
0.23155,-11.196,-0.10896,0.97952,0.50702,1.9548,-11.28,17.28,24.54
0.96704,-11.155,-0.68102,1.2019,0.50183,2.3228,-10.98,16.92,24.72
1.6344,-11.305,-1.471,1.4358,0.41539,2.5372,-10.74,17.04,24.12
1.7979,-11.591,-1.9068,1.7544,0.069944,2.6056,-10.5,17.16,23.94
1.6617,-12.313,-2.3155,1.8445,-0.21441,2.5513,-10.2,17.82,23.16
1.1986,-12.776,-2.2746,1.7376,-0.3146,2.5082,-9.96,18.78,22.2
0.96704,-11.959,-2.152,1.4661,-0.13653,2.5036,-9.9,19.74,21.54
1.0488,-10.12,-2.4517,1.1796,0.26512,2.4881,-9.78,20.7,21.12
1.3484,-8.5944,-2.3972,1.033,0.77488,2.4319,-9.96,21.78,20.76
1.6617,-7.9679,-2.1384,0.98624,1.2807,2.3137,-9.9,22.14,20.82
2.1793,-7.8181,-1.975,0.95539,1.7764,2.1588,-9.72,22.74,20.64
2.9556,-8.2131,-1.8524,0.91385,1.8741,2.1331,-9.24,23.04,21.18
3.2008,-8.4446,-1.866,0.86926,1.7556,2.1973,-9.12,23.16,21.24
3.6911,-9.0439,-1.975,0.84574,1.4997,2.3127,-8.58,23.28,21.66
3.9908,-9.5342,-2.2474,0.85857,1.2666,2.3903,-8.04,23.16,22.2
4.5083,-9.9701,-2.5606,0.92699,1.0831,2.4028,-7.68,23.16,22.26
5.5843,-10.651,-3.6639,1.0818,0.71532,2.189,-6.78,23.1,22.44
6.1836,-10.869,-4.0997,1.1054,0.38668,1.8796,-6.3,23.22,22.26
6.3471,-10.992,-4.2087,0.99968,0.045204,1.5003,-5.76,23.28,22.02
6.3743,-12.136,-4.3721,0.80573,-0.21808,1.0556,-4.8,23.52,21.36
5.9249,-12.898,-4.127,0.46853,-0.32223,0.56505,-4.38,23.52,21.12
5.0259,-14.097,-3.3506,0.079107,-0.197,0.058643,-3.84,23.76,20.82
4.6037,-14.574,-3.0646,-0.33048,0.27978,-0.71166,-3.12,24.0,20.16
4.5083,-14.451,-2.942,-0.38546,0.45143,-0.95081,-2.7,24.18,19.92
4.6718,-13.716,-2.9284,-0.36408,0.63652,-1.5198,-2.34,24.3,19.62
4.985,-12.912,-2.9556,-0.34606,0.34667,-1.7681,-1.68,24.24,18.96
5.094,-13.116,-2.4789,-0.49419,-0.22571,-1.9123,-1.5,24.24,18.72
4.8352,-14.247,-1.5391,-1.0324,-1.4029,-1.9584,-1.2,24.36,18.3
4.1951,-14.71,-1.0079,-1.2272,-1.7801,-1.9508,-0.96,24.3,18.18
3.4868,-14.996,-0.57205,-1.5201,-2.3418,-1.9199,-0.9,24.36,18.12
2.6696,-14.056,-0.068102,-1.7074,-2.6221,-1.9691,-0.54,23.76,18.18
2.0294,-12.898,-0.081722,-1.664,-2.4807,-2.0837,-0.54,23.52,18.36
1.7298,-11.85,-0.068102,-1.569,-2.1402,-2.299,-0.48,23.58,18.24
1.2531,-10.964,-0.14982,-1.4707,-1.6869,-2.5775,-0.6,23.52,18.06
1.2667,-10.706,-0.28603,-1.4502,-1.0104,-2.9169,-0.66,23.46,18.06
1.4165,-10.665,-0.35413,-1.4795,-0.87201,-3.01,-0.84,23.46,17.82
1.185,-10.474,-0.14982,-1.6041,-0.69242,-3.1343,-1.2,23.94,17.58
0.95342,-10.188,0.14982,-1.6732,-0.6017,-3.1224,-1.56,24.12,17.52
0.70826,-10.052,0.21793,-1.7083,-0.54703,-3.0366,-1.62,24.18,17.46
0.095342,-9.1937,0.35413,-1.6927,-0.43035,-2.7367,-2.04,24.18,17.28
-0.1362,-8.4991,0.54481,-1.6105,-0.27245,-2.4257,-2.34,24.24,17.28
-0.46309,-8.0088,0.46309,-1.5458,-0.17104,-2.2452,-2.64,24.12,17.1
-0.8036,-7.8181,0.51757,-1.3143,0.17257,-1.6738,-3.12,24.3,17.04
-1.2667,-7.6546,0.57205,-1.1313,0.40348,-1.2474,-4.08,24.36,16.98
-1.3212,-7.8453,0.58567,-0.91385,0.61942,-0.76511,-4.68,24.12,17.1
-1.2258,-7.5184,0.77636,-0.5339,0.83261,0.011912,-5.82,23.7,17.28
-0.84446,-7.7364,0.61292,-0.37018,0.86896,0.25962,-6.42,23.46,17.4
-0.65378,-8.6762,0.46309,0.19639,0.85582,0.98991,-6.96,23.28,17.7
-0.34051,-9.398,0.46309,0.40714,0.82009,1.2291,-7.56,22.86,17.88
0.31327,-10.093,0.12258,0.98594,0.65301,1.9627,-8.4,22.62,18.24
1.0351,-10.188,-0.46309,1.3378,0.45387,2.3714,-8.82,22.62,18.36
1.4982,-10.474,-1.6344,1.8326,-0.059559,2.737,-9.3,22.86,18.24
1.9613,-12.558,-2.3563,2.0898,-0.5455,2.817,-9.54,22.98,18.06
1.5936,-13.607,-2.4653,2.1524,-0.76144,2.8253,-9.54,23.4,17.82
1.2395,-14.029,-2.3972,2.062,-0.97586,2.8262,-9.36,23.7,17.4
-0.081722,-13.675,-2.0431,1.4557,-0.43158,2.7855,-9.36,24.84,16.32
-0.081722,-12.19,-2.0567,1.0608,0.44593,2.6832,-9.24,25.38,15.9
0.36775,-10.61,-2.5061,0.92729,1.3833,2.4844,-9.0,25.92,15.54
1.7025,-8.2539,-2.3563,1.0379,2.4984,2.1728,-8.52,26.82,14.88
2.3427,-7.9679,-2.1384,1.062,2.7458,2.0162,-8.04,27.12,14.64
2.9965,-8.0905,-1.8115,0.95264,2.656,1.9276,-7.44,27.54,14.46
3.9499,-8.4446,-1.4165,0.74984,2.2773,1.9429,-6.48,27.84,14.16
4.3313,-8.9349,-1.4438,0.57299,1.7074,2.0608,-5.94,28.02,14.1
4.3858,-9.1256,-1.58,0.50763,1.1277,2.1887,-5.52,28.08,14.16
4.2087,-9.6023,-2.1384,0.69119,0.5736,2.3033,-4.32,28.14,13.86
4.413,-9.8884,-2.6423,0.89034,0.4215,2.2834,-3.78,27.9,13.98
4.5356,-10.011,-3.0646,0.98899,0.37904,2.2321,-3.24,27.84,14.22
5.1757,-10.447,-3.8273,1.1371,0.31796,1.9154,-1.8,27.48,14.34
5.2166,-11.087,-3.8001,1.0611,0.28527,1.5992,-1.08,27.3,14.46
5.3937,-12.258,-3.8682,0.84666,0.25076,1.1939,-0.3,27.18,14.4
5.5571,-13.825,-3.5277,0.34667,0.2642,0.5287,1.2,27.18,14.04
5.5299,-14.41,-3.0918,0.055283,0.3372,0.032376,1.74,27.18,13.8
5.3119,-14.805,-2.7104,-0.054367,0.39218,-0.21991,2.28,27.18,13.56
5.0531,-14.778,-2.6423,-0.16371,0.49938,-0.91324,3.18,27.48,13.02
5.0259,-13.607,-2.9556,-0.13164,0.4163,-1.2645,3.48,27.42,12.72
5.094,-12.667,-3.0646,-0.14997,0.17043,-1.5336,3.84,27.54,12.3
5.0259,-12.64,-2.4653,-0.48717,-0.57146,-1.8228,4.14,27.84,12.06
4.9169,-13.28,-1.9613,-0.90072,-1.2431,-1.9282,4.14,28.14,11.82
4.5764,-13.866,-1.471,-1.2846,-1.8662,-1.9838,4.02,28.26,11.58
3.514,-13.988,-0.70826,-1.4966,-2.2575,-2.0186,3.78,28.56,11.7
2.9692,-13.838,-0.40861,-1.5739,-2.3818,-2.0937,3.48,28.62,11.88
2.5198,-13.171,-0.20431,-1.5672,-2.2975,-2.2538,3.0,28.92,11.94
1.7298,-11.4,-0.027241,-1.5015,-1.9135,-2.6267,1.92,29.7,12.18
1.4438,-10.787,-0.095342,-1.423,-1.5348,-2.8793,1.32,30.12,12.42
1.2531,-10.488,-0.14982,-1.4004,-1.1646,-3.0809,0.66,30.72,12.6
1.1441,-10.311,-0.20431,-1.4138,-0.8491,-3.1768,-0.06,31.32,12.72
1.2395,-9.9292,-0.040861,-1.4539,-0.66829,-3.1887,-1.86,32.58,13.02
1.0624,-9.7249,0.10896,-1.5052,-0.6466,-3.1374,-2.82,33.12,13.32
0.54481,-9.2482,0.32689,-1.5409,-0.63713,-2.9871,-3.72,33.66,13.8
0.23155,-8.826,0.42223,-1.4911,-0.59743,-2.5711,-5.82,34.44,14.7
-0.14982,-8.3765,0.51757,-1.4166,-0.51618,-2.1832,-6.78,34.68,15.3
-0.28603,-8.0905,0.49033,-1.2788,-0.37996,-1.7394,-7.86,35.16,15.78
-0.53119,-8.1313,0.38137,-1.098,-0.20281,-1.2782,-8.88,35.4,16.32
-0.89894,-8.2131,0.40861,-0.91141,-0.064752,-0.77305,-10.92,35.76,17.4
-0.8717,-8.5263,0.49033,-0.71593,0.046426,-0.26542,-11.94,35.82,18.06
-0.69464,-9.0848,0.53119,-0.49236,0.11362,0.22144,-13.62,35.58,19.44
-0.76274,-9.3163,0.39499,-0.07086,0.18418,0.80268,-14.4,35.28,20.1
-0.7355,-9.6977,0.28603,0.22907,0.25626,1.1368,-15.0,34.98,20.76
-0.40861,-10.842,0.1362,0.49908,0.34667,1.471,-16.14,34.44,21.9
0.054481,-10.61,-0.095342,0.75808,0.41692,1.8039,-16.5,34.32,22.5
0.53119,-10.651,-0.50395,1.0266,0.3824,2.0623,-16.86,34.08,22.8
1.0896,-10.665,-1.2803,1.3833,0.20983,2.2287,-17.16,34.26,23.22
1.2803,-11.155,-1.7025,1.5443,0.043066,2.2455,-17.16,34.32,23.28
1.2258,-11.768,-1.8387,1.6008,-0.040012,2.2251,-17.28,34.44,23.22
0.92618,-12.449,-1.8932,1.5171,-0.12889,2.2626,-17.04,35.4,22.8
0.83084,-11.891,-1.9341,1.3561,0.041539,2.3622,-16.92,35.94,22.56
0.99429,-10.637,-1.9886,1.2223,0.35613,2.4673,-16.62,36.48,22.26
1.5119,-8.2539,-2.0839,1.2,0.92699,2.4764,-15.78,37.8,21.6
1.8932,-7.5321,-2.0158,1.2242,1.2504,2.4086,-15.18,38.52,21.36
2.1248,-7.355,-1.9341,1.2364,1.3576,2.332,-14.46,39.06,21.12
2.9556,-7.6683,-2.0294,1.1985,1.4227,2.2865,-12.6,40.08,20.52
3.228,-8.1313,-2.0703,1.1005,1.2856,2.3106,-11.82,40.56,20.04
3.5004,-8.6762,-2.152,1.0195,1.0974,2.365,-10.68,41.04,19.68
3.7728,-9.9156,-2.4789,0.96211,0.8769,2.3879,-8.34,41.7,18.9
3.7047,-10.202,-2.7649,0.96975,0.78741,2.3118,-7.26,42.18,18.48
3.9908,-10.706,-3.0237,1.0189,0.85979,2.1478,-5.88,42.48,18.24
4.7126,-11.073,-3.4868,1.047,0.91966,1.8735,-3.12,42.72,17.7
5.3937,-11.305,-3.8001,1.0366,0.83689,1.5189,-1.8,42.84,17.46
5.8159,-11.536,-4.127,0.94837,0.56566,1.1023,-0.48,43.02,17.1
5.9657,-12.885,-3.8954,0.64752,0.020159,0.47953,1.92,43.26,16.32
5.5162,-13.579,-3.6366,0.32223,-0.18723,0.072998,3.0,43.26,15.78
5.094,-14.015,-3.4187,0.03207,-0.16371,-0.34575,4.02,43.5,15.36
4.2359,-14.451,-3.3506,-0.13195,0.035736,-0.76725,5.28,43.62,14.64
4.5492,-13.184,-3.337,-0.18631,0.16157,-1.1426,5.88,43.86,14.1
4.8216,-12.558,-3.1872,-0.21869,0.0058032,-1.4157,6.24,44.1,13.68
5.1894,-13.797,-2.7649,-0.55344,-0.8433,-1.6848,6.54,44.52,13.32
5.2302,-14.451,-2.1248,-0.94501,-1.6704,-1.7297,6.54,44.64,13.2
4.808,-15.064,-1.6753,-1.1469,-2.0598,-1.7346,6.12,44.76,13.02
4.0861,-15.445,-0.76274,-1.6585,-2.7907,-1.8463,5.7,45.0,13.02
2.547,-14.955,-0.054481,-1.8552,-2.8301,-2.043,4.56,45.12,13.44
2.0294,-13.757,0.040861,-1.9025,-2.5455,-2.3332,3.78,45.12,13.68
1.5391,-11.387,-0.16344,-1.847,-2.0684,-2.6838,3.0,44.94,14.1
1.0079,-10.896,-0.24517,-1.6365,-1.2028,-3.1912,0.78,44.88,15.18
1.0624,-10.665,-0.27241,-1.5718,-0.75747,-3.4037,-0.48,44.64,15.66
1.1986,-10.569,-0.27241,-1.5372,-0.52473,-3.4774,-1.86,44.64,16.2
1.3893,-10.569,-0.21793,-1.5718,-0.53329,-3.4575,-3.24,44.58,16.68
1.2258,-10.447,-0.095342,-1.6295,-0.68783,-3.3399,-6.18,44.1,18.0
0.8036,-10.174,-0.095342,-1.7055,-0.86193,-2.9966,-7.62,43.62,18.78
0.027241,-9.6704,0.27241,-1.7171,-0.89889,-2.8515,-10.2,42.3,20.4
-0.5993,-9.2482,0.47671,-1.7132,-0.75075,-2.3176,-11.34,41.7,21.3
-1.2667,-8.8668,0.70826,-1.6845,-0.43463,-1.8983,-12.42,40.86,22.14
-1.8387,-8.3765,0.72188,-1.5873,-0.057116,-1.4407,-13.8,39.96,22.92
-2.2201,-7.8045,1.0488,-1.387,0.28527,-0.96975,-15.84,38.1,24.48
-2.0431,-7.9407,1.1169,-1.069,0.51313,-0.49663,-16.86,37.14,25.14
-1.866,-8.036,1.4438,-0.48228,0.59712,0.17685,-17.76,36.06,25.68
-2.1384,-8.2676,1.5119,-0.28314,0.5901,0.39645,-18.9,34.08,26.64
-1.8251,-9.398,1.4438,0.38149,0.55711,1.0815,-19.26,33.06,27.24
-1.2531,-10.093,1.2667,0.8207,0.47556,1.6182,-19.56,32.1,27.78
-0.85808,-10.297,1.0624,1.1723,0.33414,2.1075,-19.74,31.44,28.2
0.44947,-11.427,0.027241,1.4969,0.1741,2.4593,-20.1,30.54,29.1
0.7355,-11.945,-0.31327,1.7795,-0.10018,2.7287,-20.1,30.42,29.22
0.83084,-13.021,-0.6674,1.9737,-0.18937,2.7715,-19.92,30.36,29.28
0.61292,-14.383,-1.3076,2.0458,-0.29016,2.803,-19.86,30.72,28.74
0.65378,-14.274,-1.6344,1.9703,-0.12431,2.846,-19.5,31.32,28.32
0.70826,-13.443,-2.1112,1.8769,0.20342,2.8723,-19.2,31.8,27.84
1.2939,-10.379,-2.5061,1.7868,0.64843,2.8286,-18.36,33.48,26.88
1.58,-9.0575,-2.6287,1.6658,1.3482,2.5488,-17.58,34.32,26.46
2.152,-7.9407,-2.5879,1.606,1.5262,2.4254,-16.98,35.28,26.1
2.7377,-7.7364,-2.6015,1.4471,1.7471,2.1829,-15.42,37.38,25.26
3.1735,-7.6683,-2.6151,1.2749,1.7831,2.0223,-14.52,38.22,24.72
3.4187,-7.6955,-2.8194,1.1078,1.4783,2.0125,-13.62,38.88,24.36
4.0589,-8.9622,-3.5822,1.0883,1.1332,2.1026,-11.52,40.02,22.92
4.0589,-9.4117,-3.7047,1.0391,0.64935,2.2226,-10.44,40.56,22.32
3.8546,-10.515,-4.0316,1.0088,0.59712,2.2318,-9.3,40.98,21.9
3.9771,-11.101,-4.1814,0.95081,0.66584,2.1588,-6.9,41.76,21.06
4.4402,-11.645,-4.2223,0.894,0.87293,1.9642,-5.64,42.12,20.64
4.9714,-12.122,-4.2495,0.75625,1.1417,1.4438,-4.44,42.42,20.22
5.9249,-13.607,-3.7047,0.59132,1.1258,0.97983,-2.1,42.54,19.2
6.2381,-14.152,-3.4732,0.27733,0.83963,0.17837,-1.14,42.66,18.6
6.1292,-14.71,-3.0646,0.18876,0.69883,-0.084299,-0.06,42.84,18.0
5.5707,-15.268,-3.0101,0.045815,0.39187,-0.57818,1.38,43.08,16.98
5.1757,-14.737,-3.1191,-0.06353,0.13989,-0.98807,1.98,43.32,16.68
5.1076,-13.852,-3.2416,-0.19334,-0.22602,-1.4624,2.46,43.5,16.38
4.7535,-13.321,-2.9284,-0.34147,-0.57757,-1.7126,3.0,43.8,16.08
4.5356,-14.056,-2.438,-0.8885,-1.3124,-1.9865,3.12,43.86,15.96
4.0044,-15.296,-1.5391,-1.1066,-1.5724,-2.0253,2.88,43.98,15.84
3.228,-15.772,-0.85808,-1.6542,-2.1215,-2.0721,2.64,43.98,15.84
2.8058,-15.677,-0.40861,-1.8637,-2.164,-2.1463,2.28,43.92,16.02
1.866,-14.124,0.20431,-1.9484,-1.9395,-2.2794,1.08,43.74,16.62
1.6208,-12.612,0.31327,-1.905,-1.5504,-2.5204,0.3,43.68,17.04
1.471,-11.4,0.20431,-1.7654,-1.1533,-2.8118,-0.54,43.5,17.58
1.4846,-10.243,0.01362,-1.5809,-0.7984,-3.0934,-2.52,43.14,18.66
1.471,-10.052,0.01362,-1.4352,-0.6017,-3.2959,-3.66,42.96,19.14
1.7979,-9.8339,0.01362,-1.3686,-0.52137,-3.3445,-4.68,42.72,19.68
1.6208,-9.507,0.17706,-1.3998,-0.74281,-3.3246,-6.96,42.36,20.82
1.2939,-9.2891,0.27241,-1.4532,-0.97861,-3.1915,-8.04,41.94,21.24
0.7355,-8.7306,0.43585,-1.5073,-1.1884,-2.9716,-9.3,41.4,21.78
0.54481,-8.431,0.47671,-1.5305,-1.2886,-2.4407,-11.4,40.32,22.86
-0.8717,-8.0088,0.57205,-1.4655,-1.1026,-1.9981,-12.42,39.6,23.58
-1.1713,-7.7908,0.6674,-1.3467,-0.74495,-1.5357,-13.38,38.82,24.36
-1.9886,-7.927,0.83084,-1.164,-0.2981,-1.0583,-15.12,37.26,25.56
-2.0567,-7.927,0.98067,-0.96944,0.14478,-0.5455,-15.78,36.42,26.1
-1.975,-8.6217,1.0896,-0.69333,0.52168,-0.044899,-16.56,35.64,26.64
-1.4165,-9.4389,1.2531,-0.18357,0.71899,0.68356,-17.7,33.9,27.78
-1.1986,-10.311,1.3484,0.24526,0.61025,1.153,-18.12,32.94,28.32
-1.0624,-10.842,1.4438,0.67989,0.40928,1.628,-18.54,32.04,28.68
-0.44947,-11.686,1.3484,1.1081,0.2532,2.124,-18.78,30.36,29.34
-0.44947,-11.741,0.91256,1.5058,0.082161,2.5107,-18.96,29.94,29.58
0.76274,-11.536,0.027241,1.8735,-0.10812,2.7303,-18.78,29.7,29.82
1.2939,-12.313,-1.1577,2.2006,-0.38393,2.748,-18.54,29.64,29.94
1.0215,-13.77,-1.7706,2.4395,-0.87445,2.6466,-18.18,29.94,29.64
0.7355,-14.206,-1.7298,2.2355,-0.91569,2.5488,-17.88,30.36,29.16
0.7355,-14.192,-1.4982,1.7382,-0.52229,2.5339,-17.34,31.02,28.68
-0.1362,-12.177,-1.5527,1.2425,0.20342,2.5305,-16.5,32.52,27.78
0.12258,-10.624,-1.9341,1.014,1.0434,2.4896,-15.9,33.42,27.24
0.89894,-8.6762,-2.1112,1.1151,2.1994,2.3002,-14.64,35.04,26.4
1.975,-7.5457,-2.0839,1.2465,2.6533,2.1835,-13.8,35.94,25.92
2.7922,-7.5048,-2.0839,1.2657,2.759,2.0638,-12.78,36.9,25.56
3.2144,-7.5729,-2.0839,1.1622,2.5626,1.981,-11.88,37.8,25.02
4.1951,-7.8862,-2.2474,0.96272,2.1423,1.9667,-9.9,39.3,24.06
4.4402,-8.0632,-2.5061,0.78893,1.6707,1.9645,-9.12,39.9,23.64
4.5083,-8.2812,-2.6968,0.68447,1.2697,1.9456,-8.28,40.5,23.28
4.7399,-9.5479,-3.3234,0.69791,0.90897,1.8192,-6.54,41.1,22.56
4.9987,-10.311,-3.6366,0.77152,0.79779,1.6652,-5.7,41.46,22.56
5.2166,-11.032,-3.7728,0.80115,0.75778,1.4328,-4.92,41.46,22.44
5.2847,-11.659,-3.6094,0.74617,0.81215,1.1463,-4.08,41.64,22.26
6.1836,-12.708,-3.6094,0.64202,0.76847,0.77305,-2.46,41.76,21.6
6.3879,-12.871,-3.4459,0.52137,0.58032,0.21961,-1.68,41.88,21.0
6.5378,-13.389,-3.0646,0.38087,0.30207,0.036957,-1.08,42.0,20.52
6.279,-14.805,-3.1872,0.25015,-0.040623,-0.30024,0.06,42.3,19.74
6.1973,-14.383,-3.514,0.10965,-0.54642,-0.78069,0.42,42.48,19.44
6.0202,-13.471,-3.5822,-0.038485,-0.87354,-1.1069,0.72,42.66,19.38
5.5707,-13.92,-2.9011,-0.36744,-1.2236,-1.427,1.2,42.84,18.72
5.2302,-14.737,-2.2201,-0.83261,-1.8613,-1.8051,1.26,42.84,18.54
4.4811,-16.113,-1.2122,-1.2718,-2.0339,-1.8888,1.14,42.9,18.48
4.0044,-16.617,-0.58567,-1.5849,-2.251,-2.0626,1.08,42.9,18.54
3.3778,-16.658,-0.14982,-1.8036,-2.2553,-2.2626,0.78,42.96,18.66
2.4108,-15.023,0.25879,-1.9618,-1.8482,-2.689,-0.12,42.72,18.96
1.9068,-13.906,0.25879,-1.9154,-1.398,-3.0207,-0.78,42.66,19.26
1.6072,-11.931,0.21793,-1.7468,-0.77,-3.5109,-2.22,42.36,20.16
1.5527,-11.387,0.12258,-1.6701,-0.55589,-3.715,-3.12,42.12,20.34
1.5391,-10.828,0.21793,-1.6432,-0.4667,-3.7785,-4.14,41.82,20.76
1.6072,-10.583,0.20431,-1.6423,-0.56047,-3.7703,-5.22,41.52,21.18
1.2395,-10.283,0.21793,-1.6671,-0.83047,-3.6615,-7.56,40.62,21.96
0.76274,-9.9701,0.31327,-1.704,-1.1047,-3.448,-8.64,39.96,22.44
0.21793,-9.6432,0.51757,-1.7486,-1.2767,-3.1368,-9.66,39.36,22.92
-1.3757,-8.8124,0.92618,-1.8072,-1.1894,-2.518,-11.82,37.8,23.82
-2.0431,-8.826,1.1577,-1.7193,-0.80787,-2.0647,-13.02,36.78,24.3
-2.3291,-8.5808,1.2803,-1.5556,-0.32162,-1.5574,-14.16,35.82,24.72
-2.4653,-8.0905,1.4301,-1.2733,0.10568,-1.0547,-16.14,33.78,25.8
-2.3836,-8.2403,1.5936,-0.9108,0.38026,-0.52809,-16.98,32.58,26.28
-1.8932,-8.7851,1.5663,-0.49266,0.46914,0.024435,-17.76,31.5,26.64
-1.5527,-9.8475,1.6617,0.15424,0.32651,0.88973,-19.2,29.28,27.48
-1.5255,-10.351,1.6617,0.56566,0.20983,1.5287,-19.8,28.2,27.84
-0.99429,-11.196,1.6344,0.76938,0.197,1.839,-20.28,27.24,28.32
0.34051,-10.733,0.84446,1.3094,0.25901,2.5702,-20.64,25.92,28.92
0.96704,-10.474,0.01362,1.7132,0.22449,2.7831,-20.76,25.68,28.98
1.3212,-11.223,-0.7355,2.0684,-0.000916,2.7996,-20.82,25.44,29.04
0.96704,-13.579,-1.471,2.2935,-0.41997,2.7455,-20.88,25.68,28.92
0.64016,-14.097,-1.4982,2.0947,-0.46548,2.8094,-20.58,26.22,28.56
0.51757,-13.866,-1.3484,1.7236,-0.20739,2.9514,-20.22,26.82,28.26
0.50395,-12.871,-1.5663,1.3992,0.24312,3.0888,-19.92,27.48,27.84
1.0215,-9.8748,-1.8524,1.2682,0.80848,3.0836,-19.2,29.28,27.06
1.3212,-8.7987,-1.975,1.3066,1.3974,2.9682,-18.6,30.3,26.76
1.7434,-8.1586,-2.0839,1.4936,2.1047,2.7263,-17.22,32.1,25.98
2.438,-8.1586,-2.0839,1.4936,2.1047,2.7263,-17.22,32.1,25.98
4.4675,-8.3493,-2.4108,1.3824,1.8983,2.2932,-14.46,34.5,24.72
4.4675,-8.3493,-2.4108,1.3824,1.8983,2.2932,-14.46,34.5,24.72
5.1213,-9.0575,-2.7649,1.1289,1.1066,2.098,-12.42,35.94,23.7
5.0531,-9.8066,-3.1327,0.98869,0.69852,1.9395,-11.58,36.66,23.28
5.0531,-10.215,-3.4596,0.9279,0.37477,1.6084,-9.48,37.5,22.26
4.7399,-10.719,-4.0861,0.95203,0.43677,1.3528,-8.46,37.86,21.84
4.7126,-11.577,-4.127,0.94898,0.6411,1.0989,-7.44,37.98,21.36
4.9306,-12.081,-4.1951,0.92149,0.74342,0.96364,-6.36,38.16,20.94
5.7478,-12.871,-3.9908,0.70891,0.82894,0.57299,-4.44,38.46,20.1
5.9521,-13.525,-3.5413,0.5226,0.72876,0.31551,-3.66,38.58,19.5
6.1564,-14.533,-3.1327,0.31032,0.51191,0.0562,-2.94,38.94,19.02
6.4833,-14.764,-3.4732,0.17257,0.20892,-0.21136,-1.68,39.48,18.12
6.456,-13.607,-3.5685,0.10996,-0.15211,-0.49633,-1.32,39.78,17.76
6.1973,-13.171,-3.5413,-0.089186,-0.73365,-1.0516,-1.02,40.14,17.28
5.7342,-14.029,-2.7649,-0.45907,-1.175,-1.4087,-0.84,40.32,16.8
5.4754,-14.724,-2.2882,-0.94623,-1.6829,-1.6588,-0.84,40.2,16.68
4.7807,-16.113,-1.2803,-1.3433,-2.1179,-1.8292,-1.2,40.56,16.62
3.6094,-15.99,-0.58567,-1.7434,-2.3359,-2.1487,-1.74,40.68,16.8
2.6832,-15.418,-0.19068,-1.8955,-2.1197,-2.4425,-2.16,40.74,17.04
2.2882,-14.901,-0.19068,-1.9545,-1.9453,-2.6194,-2.64,40.8,17.46
1.4165,-12.449,0.040861,-1.9878,-1.3589,-3.1777,-4.08,40.68,18.18
1.2803,-11.618,0.040861,-1.9013,-0.98471,-3.4654,-4.92,40.68,18.66
1.1986,-11.155,-0.027241,-1.8357,-0.7309,-3.6313,-5.82,40.38,19.38
0.99429,-10.474,0.31327,-1.7446,-0.46212,-3.6081,-7.92,39.84,20.52
1.1305,-10.188,0.28603,-1.7043,-0.47403,-3.4996,-9.06,39.36,21.06
1.0079,-9.9156,0.23155,-1.6912,-0.69272,-3.3185,-10.08,38.82,21.66
0.40861,-9.3844,0.50395,-1.6945,-0.90103,-3.0378,-12.18,37.8,23.04
0.040861,-9.0303,0.5993,-1.7321,-0.95417,-2.6814,-13.08,37.2,23.76
-0.61292,-8.8396,0.7355,-1.7382,-0.85124,-2.2715,-13.92,36.3,24.48
-1.6208,-8.2812,1.185,-1.697,-0.38851,-1.6118,-15.36,34.32,25.98
-1.8387,-7.8045,1.3348,-1.5562,-0.0012217,-1.1707,-16.14,33.24,26.7
-1.757,-7.9951,1.3484,-1.4395,0.16829,-0.93859,-16.86,32.22,27.3
-1.2122,-8.7034,1.6072,-0.9502,0.47709,-0.22022,-17.82,29.94,28.5
-1.0079,-8.5808,1.6344,-0.51252,0.49755,0.24526,-18.06,28.68,29.04
-0.92618,-8.7579,1.5936,-0.027184,0.42516,0.68936,-18.24,27.54,29.4
-0.69464,-10.515,1.471,0.45143,0.32956,1.4001,-18.3,25.32,30.18
-0.38137,-10.842,1.3757,1.0314,0.1967,1.9062,-18.18,24.54,30.48
0.16344,-10.746,1.2531,1.1894,0.13653,2.1322,-18.12,23.94,30.9
0.85808,-11.087,0.24517,1.6478,-0.071166,2.5769,-17.7,22.98,31.38
1.0079,-11.645,-0.19068,1.9206,-0.23824,2.682,-17.4,22.86,31.38
1.0488,-12.817,-0.85808,2.1093,-0.40928,2.7113,-17.04,22.86,31.32
0.7355,-13.797,-1.2258,2.1032,-0.46945,2.7358,-16.44,23.7,30.84
0.70826,-13.375,-1.6072,1.9539,-0.27031,2.7959,-16.08,24.36,30.72
0.83084,-12.64,-1.7979,1.8613,-0.10965,2.8307,-15.78,24.9,30.36
1.1441,-10.719,-1.9886,1.6918,0.28711,2.8534,-15.36,25.62,30.18
1.4438,-8.5944,-2.2882,1.5757,1.0079,2.6921,-14.34,27.54,29.58
1.9068,-8.0224,-2.2201,1.5519,1.4334,2.5128,-13.74,28.5,29.4
2.3427,-7.9134,-2.3699,1.4917,1.7126,2.3369,-12.96,29.52,29.22
2.8467,-8.2131,-2.3836,1.2901,1.7758,2.1948,-12.18,30.48,28.92
3.514,-8.8668,-2.4108,1.2141,1.748,2.1851,-10.5,32.04,28.26
3.9635,-9.2482,-2.6015,1.0736,1.4926,2.2016,-9.72,32.88,27.84
4.4266,-9.902,-2.9965,1.0803,1.1866,2.1982,-8.88,33.54,27.48
5.1894,-10.896,-3.8546,1.1212,0.83872,2.1249,-7.38,34.8,27.0
5.4481,-11.319,-4.2904,1.1741,0.562,1.9532,-6.48,35.1,26.88
5.6797,-11.632,-4.5083,1.0821,0.28039,1.4972,-5.64,35.46,26.58
5.7614,-12.449,-4.5764,0.99938,0.21961,1.3063,-3.54,36.12,25.92
5.7342,-13.253,-4.6445,0.61392,0.11881,0.57666,-2.58,36.36,25.62
5.7069,-13.648,-4.3858,0.2419,0.13592,0.088881,-1.62,36.42,25.26
5.1485,-14.914,-3.5004,-0.087354,0.20708,-0.39554,-0.06,36.9,24.48
4.8625,-15.418,-3.1054,-0.34575,0.30391,-0.85796,0.6,37.14,24.12
4.8352,-13.634,-3.1872,-0.45998,0.36224,-1.2541,1.44,37.5,23.76
4.8488,-12.953,-3.0782,-0.47709,0.13256,-1.7184,1.74,37.68,23.64
4.8625,-13.225,-2.9148,-0.63652,-0.28497,-1.9584,2.1,37.62,23.58
4.8488,-14.192,-2.3018,-1.0085,-0.92913,-2.0922,2.22,37.68,23.46
4.4947,-15.445,-1.2395,-1.4474,-1.6316,-2.1423,2.46,37.74,23.58
3.514,-15.554,-0.43585,-1.8347,-2.1564,-2.1951,2.4,37.68,23.82
2.4517,-15.364,0.19068,-2.1118,-2.3607,-2.3301,2.16,37.32,24.54
1.8387,-13.539,0.34051,-2.0977,-2.2043,-2.5177,1.74,37.08,24.9
1.3484,-12.122,0.24517,-1.9517,-1.8265,-2.7651,1.32,36.9,25.38
0.99429,-11.509,0.20431,-1.7602,-1.259,-3.0305,0.96,36.66,25.92
0.68102,-10.12,0.20431,-1.6029,-0.7419,-3.2486,-0.3,36.24,26.52
0.95342,-9.902,0.027241,-1.5052,-0.32162,-3.3307,-0.78,36.06,26.76
1.3757,-9.4117,0.10896,-1.4939,-0.20433,-3.3347,-1.92,35.46,27.18
1.2531,-9.1665,0.081722,-1.5272,-0.45784,-3.1872,-2.46,35.1,27.36
1.1305,-8.9622,0.17706,-1.5605,-0.68447,-2.937,-3.06,34.74,27.42
0.70826,-8.7034,0.21793,-1.5754,-0.87995,-2.6322,-3.72,34.14,27.78
0.054481,-8.1586,0.35413,-1.5656,-0.93065,-2.2446,-4.92,32.94,28.2
-0.58567,-7.9815,0.5993,-1.5055,-0.7645,-1.8604,-5.52,32.52,28.26
-1.2258,-7.9679,0.7355,-1.4236,-0.45723,-1.4569,-6.12,31.98,28.38
-1.3757,-7.9679,0.72188,-1.288,-0.098044,-1.0409,-7.2,30.78,28.44
-1.2258,-8.4582,0.68102,-0.94043,0.37232,-0.36621,-7.8,30.18,28.38
-1.1305,-8.6762,0.77636,-0.78802,0.47189,-0.14569,-8.28,29.58,28.38
-1.2667,-8.9486,0.96704,-0.3036,0.59804,0.55283,-8.58,28.8,28.32
-1.471,-9.9565,1.2258,0.059254,0.62614,1.0553,-9.36,27.3,28.68
-1.2939,-10.964,1.1169,0.43982,0.68203,1.9065,-9.72,26.64,28.74
-0.28603,-11.141,0.83084,1.0397,0.68081,2.4038,-10.08,25.74,29.04
0.47671,-11.155,0.31327,1.4157,0.56902,2.7147,-10.32,25.5,29.16
1.0896,-11.128,-0.28603,1.766,0.32376,2.8301,-10.2,25.5,28.92
1.5391,-12.34,-1.2667,2.0394,-0.048869,2.8356,-10.2,25.5,28.44
1.3484,-13.348,-1.7298,2.1765,-0.41661,2.7941,-10.14,25.5,28.08
1.1577,-13.688,-1.9341,1.9761,-0.59071,2.857,-9.96,26.4,27.06
0.83084,-12.258,-1.975,1.6771,-0.30452,2.9444,-9.84,27.0,26.7
0.77636,-10.787,-2.0431,1.3861,0.20861,2.9599,-9.48,27.48,26.46
0.92618,-9.9429,-2.1384,1.2553,0.87568,2.8472,-9.18,28.08,26.16
1.2667,-8.6489,-2.0839,1.2318,1.5101,2.6652,-8.64,28.68,25.98
2.1248,-8.2539,-1.9341,1.2504,1.9496,2.5128,-7.38,29.76,25.44
3.0101,-8.5672,-1.9613,1.2303,2.135,2.3735,-6.6,30.24,25.2
3.8682,-9.1937,-1.9205,1.1451,2.0757,2.3613,-5.04,31.2,24.66
4.304,-9.6432,-2.2065,1.0217,1.6759,2.3656,-4.14,31.5,24.48
4.7126,-10.025,-2.438,0.96914,1.3253,2.335,-3.48,31.86,24.36
4.985,-10.501,-3.0101,0.96792,1.0443,2.2232,-1.8,32.46,24.12
5.3528,-11.128,-3.5549,1.0351,0.8717,2.0232,-1.14,32.7,24.06
5.775,-11.441,-3.8273,1.0534,0.72693,1.7397,-0.24,32.76,24.06
6.1836,-12.326,-4.0589,0.94043,0.50213,1.1732,1.44,32.52,23.82
6.1564,-13.144,-4.1542,0.84635,0.40867,0.95326,2.1,32.64,23.58
6.1019,-13.634,-4.0316,0.58521,0.2474,0.4725,3.0,32.64,23.34
5.5707,-13.484,-3.4596,0.1182,0.15241,-0.24984,4.2,32.76,22.62
5.1757,-13.961,-3.4051,-0.040623,0.18509,-0.70769,4.8,32.82,22.32
5.0259,-13.988,-3.8001,-0.12248,0.18601,-1.0956,5.04,33.0,21.96
5.2575,-11.196,-3.5685,-0.1576,-0.076358,-1.518,5.52,33.18,21.18
5.0804,-12.108,-3.1599,-0.30604,-0.50977,-1.7422,5.7,33.3,20.88
4.9987,-13.934,-2.7649,-0.47831,-0.82558,-1.8192,5.76,33.24,20.58
5.1213,-15.473,-1.9613,-1.1475,-2.0192,-1.8662,5.76,33.36,19.98
4.5356,-16.63,-0.92618,-1.5281,-2.6844,-1.7736,5.82,33.36,19.68
3.7728,-16.835,-0.35413,-1.8124,-3.0528,-1.7645,5.58,33.36,19.56
2.7513,-15.514,0.28603,-1.9994,-2.97,-2.0553,5.46,33.48,19.44
2.1929,-14.165,0.31327,-2.018,-2.6188,-2.434,5.28,33.48,19.26
1.4029,-12.64,0.1362,-1.9343,-1.9792,-2.8714,4.68,33.48,19.2
0.54481,-10.869,-0.29965,-1.8079,-1.2422,-3.321,3.6,33.66,19.26
0.62654,-10.787,-0.38137,-1.7349,-0.61484,-3.6001,2.88,33.9,19.2
0.78998,-10.61,-0.29965,-1.7266,-0.23213,-3.7315,2.16,34.02,19.26
0.85808,-10.188,-0.16344,-1.8024,-0.25992,-3.7345,0.24,34.5,19.26
0.68102,-9.9292,0.054481,-1.8802,-0.56352,-3.5366,-0.66,34.74,19.32
0.58567,-9.5342,0.28603,-2.0036,-0.97861,-3.1939,-1.5,34.86,19.56
0.29965,-9.0848,0.6674,-2.0831,-1.2978,-2.7602,-2.46,34.86,19.8
-1.3757,-8.0224,0.81722,-2.0229,-1.2452,-2.2654,-4.62,34.56,20.64
-2.0839,-7.6274,1.0215,-1.8396,-0.84299,-1.7657,-5.52,34.44,21.18
-2.3427,-7.3822,1.1169,-1.5696,-0.3824,-1.2721,-6.66,34.14,21.72
-1.9613,-7.464,1.4165,-1.0779,-0.0045815,-0.44746,-8.88,33.54,22.86
-1.866,-7.9951,1.4438,-0.6576,0.14661,0.090408,-9.84,33.0,23.58
-1.8524,-8.1313,1.6344,-0.22724,0.35094,0.53573,-10.74,32.46,24.18
-1.6753,-8.7851,2.0294,0.24343,0.56963,0.93462,-12.24,31.44,25.56
-1.4438,-10.065,2.1929,0.76297,0.74648,1.3717,-13.08,30.84,26.28
-0.91256,-10.556,2.0294,1.605,0.9499,2.0663,-13.74,29.94,27.72
0.53119,-10.61,0.54481,2.1493,0.83261,2.3934,-14.1,29.7,28.14
1.1032,-11.605,-0.23155,2.5556,0.4777,2.5742,-14.34,29.64,28.26
1.2803,-12.476,-0.62654,2.7028,0.26298,2.6466,-14.46,29.76,28.32
1.2667,-14.356,-0.91256,2.6988,-0.34941,2.7886,-14.52,30.06,28.26
0.64016,-15.8,-0.8036,2.372,-0.48961,2.872,-14.4,31.38,27.42
0.57205,-14.996,-1.1986,1.963,-0.30391,2.9716,-14.22,32.28,26.94
0.92618,-12.095,-2.0567,1.7123,0.073304,2.9975,-13.62,34.08,25.86
1.2803,-10.134,-2.6423,1.7801,0.86926,2.8143,-13.02,35.16,25.26
1.6753,-9.2482,-2.7241,1.9251,1.4148,2.609,-12.3,36.12,24.84
1.8932,-9.0031,-2.8194,1.9145,1.7819,2.3695,-11.58,36.96,24.3
2.833,-8.8805,-2.5334,1.7077,1.9245,2.1524,-9.54,38.82,23.04
3.1599,-9.0031,-2.6015,1.4135,1.9215,2.0528,-8.46,39.6,22.2
3.4323,-9.2482,-2.9284,1.1729,1.8573,2.0348,-7.38,40.38,21.54
3.4323,-9.2482,-2.9284,1.0299,1.7761,2.0638,-7.38,40.38,21.54
4.018,-10.338,-3.4732,0.92729,1.6438,2.0488,-6.24,40.86,20.88
4.1542,-10.569,-3.7184,0.91508,1.66,1.948,-4.98,41.4,20.34
4.4947,-10.815,-3.9771,0.89125,1.6897,1.7657,-3.54,41.7,19.74
6.0066,-11.509,-4.2223,0.82039,1.5996,1.4969,-0.96,42.12,18.9
6.7966,-12.572,-4.2495,0.70158,1.3225,1.1628,0.36,42.12,18.72
7.1507,-13.62,-4.1406,0.3485,0.62705,0.53145,3.0,42.36,18.0
6.7421,-14.547,-3.3234,0.014661,0.21258,0.063225,5.34,42.48,17.04
5.7342,-15.418,-2.9965,-0.30299,-0.023213,-0.47434,7.14,42.78,16.08
5.2847,-15.514,-2.9556,-0.49297,-0.022907,-0.99327,7.8,42.9,15.78
4.8625,-14.22,-3.1599,-0.55558,0.12981,-1.6383,8.52,42.72,15.42
4.9442,-12.612,-2.9284,-0.56444,0.11423,-1.8253,8.52,43.02,15.3
4.9306,-13.157,-2.1929,-0.82894,-0.32956,-2.2816,7.68,43.38,15.54
4.8352,-14.56,-1.4982,-1.1958,-0.94257,-2.4667,6.66,43.68,15.96
4.3994,-15.827,-0.83084,-1.5681,-1.6658,-2.5299,5.4,43.86,16.68
3.6911,-16.004,-0.24517,-1.8555,-2.2373,-2.51,3.6,43.62,17.64
2.9556,-15.023,0.12258,-1.9429,-2.572,-2.5073,1.38,43.44,18.66
2.2474,-13.43,0.40861,-1.8888,-2.6612,-2.5589,-1.08,43.08,19.68
1.8251,-12.572,0.40861,-1.7691,-2.4997,-2.7012,-2.16,42.96,20.34
1.0896,-10.883,0.24517,-1.6393,-2.106,-3.0262,-4.2,42.84,21.54
0.84446,-10.338,0.095342,-1.5235,-1.3402,-3.1954,-6.18,42.48,22.56
0.83084,-10.025,0.14982,-1.5275,-0.93676,-3.2819,-7.14,42.24,23.04
0.99429,-9.6432,0.14982,-1.5568,-0.72601,-3.2898,-9.0,41.46,23.94
0.68102,-9.2755,0.29965,-1.6008,-0.60903,-3.2025,-10.74,40.8,24.3
0.53119,-8.7851,0.44947,-1.6335,-0.53909,-3.0314,-12.42,40.02,24.9
0.28603,-8.5127,0.54481,-1.6493,-0.53512,-2.5922,-13.08,39.54,25.14
-0.081722,-7.7636,0.78998,-1.6118,-0.48686,-2.1719,-14.34,38.46,25.62
-0.50395,-7.6002,0.8717,-1.496,-0.34361,-1.7407,-15.54,37.38,25.86
-1.0624,-7.6002,1.2939,-1.3476,-0.15241,-1.3118,-16.5,35.88,26.4
-1.2258,-7.5184,1.4574,-1.1411,0.084299,-0.88667,-17.22,34.32,27.18
-1.1713,-7.5321,1.4301,-0.86407,0.30391,-0.45693,-17.52,33.48,27.54
-0.88532,-8.1858,1.185,-0.46151,0.39737,-0.040012,-18.36,32.1,28.26
-0.8036,-8.9622,1.1305,0.18051,0.32132,0.60415,-18.9,31.02,29.04
-0.85808,-9.4798,1.1441,0.56383,0.28527,1.0366,-19.02,30.54,29.4
-0.9398,-11.06,1.0351,0.90591,0.33598,1.5064,-19.32,29.88,29.82
-0.068102,-10.964,0.61292,1.1988,0.43799,1.9978,-19.5,29.76,30.06
0.84446,-10.842,-0.43585,1.5186,0.44807,2.3689,-19.2,30.18,29.82
1.0215,-11.523,-0.85808,1.865,0.30268,2.5705,-19.02,30.54,29.52
1.1169,-13.511,-1.3893,2.2101,-0.064141,2.6982,-18.84,31.74,28.5
0.77636,-14.792,-1.4165,2.2009,-0.22938,2.7458,-18.3,33.24,27.3
0.64016,-15.119,-1.4165,1.9841,-0.18387,2.8271,-18.0,34.14,26.7
0.78998,-13.593,-1.8387,1.7291,0.077274,2.9227,-17.22,36.0,25.2
1.0624,-11.359,-2.1793,1.5687,0.43921,2.9419,-16.74,37.8,23.94
1.3348,-9.902,-2.3836,1.5354,0.86865,2.8482,-16.26,38.58,23.28
1.9886,-8.4038,-2.6015,1.6127,1.4071,2.5843,-14.82,40.14,22.44
2.547,-8.0632,-2.6696,1.5815,1.5571,2.3918,-13.26,41.34,21.66
2.7104,-8.0905,-2.5742,1.4264,1.5675,2.2657,-12.42,41.82,21.12
3.0918,-8.4446,-2.5606,1.1985,1.5116,2.2345,-10.56,42.6,20.64
3.5549,-9.3436,-2.8875,1.0159,1.4603,2.2504,-8.52,42.96,20.16
3.9227,-10.052,-3.0101,0.8769,1.3601,2.263,-6.06,43.38,19.86
4.0997,-10.42,-3.0918,0.84208,1.4132,2.189,-4.98,43.44,19.62
4.6718,-10.924,-3.1463,0.84238,1.5675,2.0165,-2.46,43.38,19.02
5.5299,-11.155,-3.5277,0.83078,1.6817,1.722,-0.12,43.38,18.3
6.5514,-11.577,-3.5413,0.78771,1.6038,1.3347,1.68,43.38,17.28
6.851,-12.095,-3.5685,0.70402,1.2645,0.88514,2.46,43.44,16.86
7.1643,-13.157,-3.5822,0.54367,0.73793,0.43768,3.84,43.56,16.26
6.6059,-14.764,-2.9556,0.30849,0.20983,0.018326,5.04,43.8,15.36
5.7205,-15.786,-2.833,-0.074831,-0.29169,-0.55039,5.94,43.98,14.58
5.1894,-15.323,-2.9692,-0.219,-0.35491,-0.93523,6.18,43.92,14.22
4.8625,-13.416,-3.2553,-0.23488,-0.3146,-1.3091,6.54,44.04,13.92
4.7944,-12.585,-2.9284,-0.26328,-0.35216,-1.6851,6.42,44.46,13.56
4.8488,-13.484,-2.4789,-0.46548,-0.64019,-2.0378,6.06,44.7,13.38
4.9169,-14.056,-2.1384,-1.0699,-1.5513,-2.2877,5.82,44.76,13.44
4.4266,-15.636,-1.0624,-1.4972,-2.2504,-2.31,4.98,45.06,13.62
3.3506,-16.263,-0.29965,-1.8213,-2.7016,-2.3167,3.78,45.24,13.98
2.5742,-15.732,0.20431,-2.0079,-2.817,-2.401,2.22,45.24,14.64
1.9477,-14.015,0.29965,-2.0647,-2.6417,-2.5742,1.32,45.3,15.18
1.0215,-11.986,0.31327,-2.0067,-2.2458,-2.8253,-0.72,45.42,16.2
0.69464,-10.978,0.027241,-1.7966,-1.3659,-3.2526,-3.36,45.36,17.58
0.7355,-10.61,0.027241,-1.6729,-0.86926,-3.4266,-4.5,45.42,18.24
0.70826,-9.9565,0.095342,-1.6139,-0.48289,-3.4651,-7.14,45.36,19.26
0.91256,-9.7794,0.25879,-1.6084,-0.2981,-3.4181,-9.78,45.06,20.4
0.83084,-9.6432,0.17706,-1.6185,-0.33506,-3.2981,-11.22,44.76,21.0
0.47671,-8.7443,0.38137,-1.6267,-0.43646,-3.0513,-13.68,44.04,22.14
0.21793,-8.036,0.49033,-1.6231,-0.54459,-2.7242,-16.08,42.9,23.4
-0.38137,-7.5321,0.85808,-1.5595,-0.59956,-2.0895,-18.3,41.52,24.48
-0.76274,-7.3277,0.95342,-1.4438,-0.44868,-1.6475,-19.32,40.68,25.08
-1.1577,-7.0553,1.1577,-1.2761,-0.21136,-1.2126,-20.94,38.88,25.98
-1.362,-7.1507,1.2395,-1.0354,0.032681,-0.75198,-22.2,37.02,26.94
-1.2531,-7.927,1.0488,-0.72021,0.21258,-0.24709,-23.28,35.1,28.2
-0.89894,-8.9622,0.83084,-0.33323,0.30146,0.28986,-23.58,34.14,28.86
-0.85808,-10.052,0.65378,0.16341,0.38882,0.99846,-24.18,32.58,29.88
-0.96704,-10.815,0.72188,0.39492,0.49816,1.398,-24.36,32.04,30.24
-0.76274,-11.196,0.83084,0.59498,0.69028,1.7914,-24.72,31.14,30.96
0.19068,-10.992,0.47671,0.82833,0.87048,2.1741,-24.78,30.72,30.84
0.62654,-11.06,0.14982,1.1533,0.90225,2.4603,-24.84,30.78,30.84
1.2258,-12.027,-0.7355,1.514,0.77152,2.6111,-24.96,31.44,30.66
1.4574,-13.021,-1.3212,1.9245,0.36682,2.7199,-24.84,32.22,29.88
1.3484,-13.866,-1.6753,2.0259,0.06689,2.7752,-24.66,32.76,29.28
1.1169,-14.519,-1.9477,1.9707,-0.050702,2.8714,-24.18,34.32,28.02
1.185,-12.967,-2.0431,1.7593,0.026267,2.9551,-23.52,36.12,26.82
1.3757,-10.896,-2.1248,1.5259,0.27886,3.0155,-22.8,38.04,25.86
1.5936,-9.507,-2.3155,1.3946,0.63591,2.9529,-22.26,38.88,25.32
1.9886,-8.4446,-2.4244,1.3442,1.1426,2.7245,-20.88,40.56,24.48
2.5061,-8.2948,-2.3563,1.2944,1.3467,2.5797,-19.32,41.82,23.82
2.7377,-8.54,-2.2882,1.1701,1.4349,2.4764,-18.3,42.24,23.28
3.2144,-9.1256,-2.2746,1.0101,1.4478,2.4838,-15.9,43.38,22.44
3.7047,-9.9837,-2.3972,0.89767,1.4319,2.5027,-13.56,44.28,21.9
3.8954,-10.283,-2.5061,0.85796,1.4242,2.4658,-12.3,44.58,21.72
4.5083,-10.787,-2.8739,0.88056,1.5153,2.2416,-9.9,45.18,21.06
5.1485,-10.924,-3.1327,0.91508,1.613,1.9532,-7.32,45.36,20.22
5.7478,-11.087,-3.3778,0.89492,1.5467,1.5653,-6.06,45.36,19.68
6.5378,-11.196,-3.623,0.83261,1.2349,1.149,-3.96,45.78,18.48
6.8919,-12.095,-3.7047,0.72846,0.75106,0.7364,-2.1,46.26,17.52
6.4424,-12.871,-3.4868,0.52321,0.24374,0.33934,-0.48,46.62,16.68
5.8295,-13.511,-3.2008,0.12034,-0.18143,-0.22205,0.18,46.74,16.5
5.094,-14.669,-2.833,-0.10018,-0.21044,-0.59956,1.2,47.1,15.9
4.9714,-14.478,-2.9692,-0.21258,-0.14722,-0.9499,1.74,47.1,15.24
5.0804,-13.348,-3.0101,-0.23793,-0.14203,-1.2724,1.92,47.04,15.18
5.1894,-12.245,-2.9556,-0.2303,-0.34636,-1.5864,2.1,47.16,14.94
5.1757,-13.076,-2.5334,-0.42852,-0.80207,-1.9145,1.8,47.28,14.94
4.9033,-14.533,-1.7706,-1.0177,-1.7623,-2.2177,1.02,47.22,15.0
4.4402,-15.459,-1.2122,-1.4322,-2.3451,-2.3185,0.54,47.22,14.94
3.3778,-16.154,-0.47671,-1.7324,-2.6951,-2.4065,-0.72,46.98,15.42
2.9284,-16.018,-0.27241,-1.8958,-2.7669,-2.5296,-1.32,46.86,15.84
1.9205,-14.029,-0.054481,-1.9193,-2.5736,-2.6967,-2.88,46.38,16.74
1.4165,-12.871,-0.01362,-1.8243,-2.2013,-2.8894,-3.96,46.2,17.28
0.95342,-11.591,-0.1362,-1.7129,-1.6933,-3.134,-5.88,46.02,18.42
0.92618,-11.155,-0.16344,-1.6338,-1.2236,-3.3295,-6.96,45.84,18.9
0.91256,-10.924,-0.1362,-1.62,-0.748,-3.3924,-8.22,45.6,19.5
0.96704,-10.433,-0.054481,-1.6457,-0.62675,-3.3201,-10.68,45.0,20.52
0.7355,-9.9292,0.068102,-1.6753,-0.59773,-3.1878,-11.88,44.4,21.0
0.40861,-9.0848,0.14982,-1.6835,-0.55925,-2.9706,-14.1,43.32,22.26
0.1362,-8.4174,0.24517,-1.6548,-0.56139,-2.565,-15.24,42.6,22.86
-0.027241,-7.8589,0.38137,-1.6054,-0.4893,-2.2333,-16.26,41.94,23.58
-0.38137,-7.5321,0.50395,-1.5204,-0.34331,-1.8912,-17.4,41.22,24.36
-0.49033,-7.4776,0.64016,-1.3696,-0.18295,-1.5345,-19.56,39.24,25.68
-0.40861,-7.8317,0.57205,-1.1829,-0.091324,-1.1597,-20.58,38.34,26.4
-0.40861,-8.2131,0.64016,-0.8378,0.012828,-0.47159,-21.42,37.38,27.0
-0.64016,-8.1586,0.58567,-0.70402,0.083689,-0.22571,-22.86,35.16,28.2
-0.72188,-8.5263,0.54481,-0.22663,0.39737,0.48747,-23.4,34.14,28.86
-0.76274,-8.7987,0.51757,0.10812,0.6408,0.94043,-23.94,33.12,29.52
-0.32689,-9.507,0.54481,0.45784,0.82956,1.3891,-24.6,31.02,30.48
0.21793,-9.507,0.38137,0.80634,0.94043,1.8357,-24.72,30.48,30.9
0.77636,-10.093,-0.28603,1.2938,0.86896,2.2987,-24.96,29.28,31.5
1.185,-11.346,-0.89894,1.5797,0.67684,2.4951,-25.02,29.16,31.56
1.2395,-12.286,-1.1305,1.7843,0.37996,2.6628,-25.08,29.22,31.5
1.1032,-14.029,-1.6617,1.8589,0.080329,2.8194,-24.84,29.76,30.66
1.1169,-13.974,-1.7979,1.825,-0.10201,2.9697,-24.6,30.36,30.12
1.2122,-12.967,-2.0294,1.7202,-0.067501,3.0965,-24.36,31.14,29.46
1.2531,-10.161,-2.3018,1.5418,0.36316,3.0742,-23.88,32.88,28.08
1.3348,-9.0439,-2.3155,1.4591,0.82925,2.9056,-23.4,33.96,27.6
1.3484,-8.5536,-2.3836,1.3714,1.3127,2.6851,-22.92,35.1,26.82
1.6617,-8.0905,-2.1929,1.2413,1.6829,2.4865,-22.26,36.12,26.4
2.4789,-8.4174,-1.8932,1.0739,1.9083,2.39,-20.7,38.34,25.26
2.8194,-8.7306,-1.7298,0.9389,1.9703,2.4202,-19.8,39.24,24.66
3.2689,-9.221,-1.7025,0.86773,1.8915,2.5235,-18.9,40.32,24.06
4.5083,-10.447,-2.1384,0.92882,1.5681,2.6942,-16.62,42.0,23.04
5.3119,-10.924,-2.5879,1.0278,1.2529,2.7058,-15.42,42.66,22.5
6.0338,-11.305,-2.9556,1.0779,1.0959,2.6481,-14.28,43.38,22.08
6.4969,-11.441,-3.3234,1.146,0.70952,2.1875,-12.96,43.86,21.54
6.7148,-11.373,-3.7047,1.0644,0.4948,1.6667,-10.14,44.82,20.82
6.5378,-12.0,-3.8818,0.82314,0.29505,0.77336,-8.7,45.18,20.34
6.1836,-13.675,-3.6366,0.68142,0.27122,0.49602,-6.0,45.72,19.26
5.775,-14.424,-3.3234,0.20036,0.25443,-0.18418,-4.8,46.02,18.9
5.6388,-14.764,-3.1327,-0.029627,0.27153,-0.54062,-3.54,46.2,18.24
4.985,-14.887,-3.0782,-0.1292,0.31765,-0.85002,-1.98,46.74,17.22
5.0531,-13.443,-3.2553,-0.096211,0.34667,-1.1454,-1.38,46.98,16.86
5.3119,-12.245,-3.1327,-0.058032,0.16982,-1.4245,-0.84,47.22,16.5
5.5162,-12.286,-2.7649,-0.30024,-0.51832,-1.8338,-0.42,47.28,15.78
5.5162,-13.13,-2.261,-0.47495,-0.8714,-1.9441,-0.36,47.22,15.6
5.3528,-13.688,-1.7298,-0.89339,-1.6634,-2.0705,-0.42,47.16,15.3
4.8488,-14.601,-1.1169,-1.4087,-2.7345,-2.1411,-0.6,47.1,15.48
3.5822,-15.119,-0.44947,-1.5989,-3.0843,-2.1915,-1.56,46.8,15.66
2.8467,-14.683,-0.12258,-1.6869,-3.0018,-2.4001,-2.16,46.74,16.08
1.7298,-13.076,0.25879,-1.7174,-2.835,-2.5107,-3.6,46.44,16.86
0.99429,-11.809,0.027241,-1.737,-1.9761,-2.9047,-4.5,46.2,17.28
0.76274,-11.441,0.027241,-1.7181,-1.3018,-3.1423,-5.58,45.96,17.76
0.53119,-10.583,-0.01362,-1.6689,-0.73059,-3.2755,-7.5,45.36,18.72
0.6674,-10.161,0.21793,-1.6246,-0.25076,-3.2623,-8.52,45.12,19.26
0.83084,-9.7522,0.34051,-1.5711,-0.045509,-3.2098,-9.54,44.82,19.74
0.74912,-8.7851,0.61292,-1.5168,-0.014661,-2.9642,-11.7,44.22,20.7
0.69464,-8.1995,0.8036,-1.4416,-0.11606,-2.6951,-12.66,43.86,21.24
0.50395,-7.8998,0.84446,-1.3934,-0.21961,-2.5333,-13.68,43.5,21.96
0.054481,-7.3141,0.96704,-1.2425,-0.49938,-1.974,-15.6,42.3,23.1
-0.55843,-7.246,1.1713,-1.1029,-0.57055,-1.5522,-16.56,41.64,23.7
-1.1577,-7.5048,1.58,-0.82375,-0.43066,-0.81581,-18.6,39.96,24.66
-1.5119,-7.9679,1.5391,-0.53726,-0.25656,-0.30116,-19.38,39.12,25.14
-1.4574,-8.5127,1.3757,-0.19395,-0.094684,0.21533,-20.1,38.28,25.5
-1.4438,-8.7579,1.3212,0.17043,0.043677,0.69975,-20.64,37.62,25.98
-1.1986,-10.76,1.3484,0.52687,0.19884,1.15,-21.66,36.3,27.0
-0.81722,-11.754,1.2939,0.82314,0.3317,1.6099,-21.96,35.76,27.36
-0.24517,-12.108,0.99429,1.1261,0.41294,2.0455,-22.2,35.28,27.72
0.91256,-11.931,-0.095342,1.4303,0.26053,2.4771,-22.32,34.8,28.2
1.1032,-11.863,-0.54481,1.8973,-0.007025,2.5568,-22.32,34.86,28.2
1.3212,-12.408,-1.185,2.0302,-0.1631,2.5485,-22.2,34.92,27.96
0.85808,-14.124,-1.6889,2.142,-0.55619,2.4755,-21.66,35.7,27.12
0.47671,-14.438,-1.6753,1.9535,-0.4948,2.4954,-21.48,36.3,26.64
0.46309,-13.879,-2.0567,1.6393,-0.20525,2.5314,-21.12,37.2,26.04
0.55843,-10.964,-2.3563,1.2529,0.54947,2.5268,-20.04,38.94,24.96
0.83084,-8.9894,-2.4108,1.1295,1.1958,2.3949,-19.38,39.84,24.48
1.0624,-8.2539,-2.4108,1.1157,1.5098,2.2959,-18.72,40.56,24.06
1.6617,-7.4503,-2.2882,1.0931,2.0262,2.1139,-17.82,41.4,23.64
2.261,-7.4503,-2.0839,0.97586,2.4242,1.9566,-15.66,42.84,22.38
2.6968,-7.5865,-2.0975,0.86254,2.4636,1.9694,-14.64,43.5,21.72
3.2825,-7.8998,-2.1384,0.74312,2.3179,2.0742,-13.5,43.98,21.18
3.8954,-8.7715,-2.3155,0.65912,1.898,2.2736,-11.16,44.88,20.1
4.3858,-9.398,-2.5061,0.65149,1.5626,2.3708,-9.9,45.24,19.74
4.6445,-9.7385,-2.7377,0.68447,1.2938,2.3741,-8.64,45.48,19.32
5.5435,-10.637,-3.1191,0.74984,1.102,2.2483,-5.88,45.84,18.78
6.0338,-11.182,-3.3506,0.80023,0.89614,1.9801,-4.5,45.84,18.48
6.7966,-12.49,-3.5822,0.82467,0.62186,1.5861,-3.12,45.84,18.12
6.9328,-13.43,-3.6639,0.69303,0.1066,0.85368,-0.48,45.9,17.22
6.7148,-14.274,-3.2553,0.46365,-0.14722,0.28772,0.66,46.08,16.68
6.3198,-15.282,-2.9965,0.3149,-0.23549,-0.014661,1.68,46.2,16.08
5.3256,-15.99,-3.0918,-0.097128,-0.3207,-0.89858,3.3,46.32,15.3
4.9987,-15.146,-3.1599,-0.2529,-0.27184,-1.3839,3.84,46.26,14.82
4.7944,-13.471,-3.2008,-0.35033,-0.30391,-1.7962,4.38,46.44,14.46
4.522,-13.253,-2.7513,-0.65118,-0.70647,-2.2584,4.8,46.56,13.98
4.4266,-14.41,-2.0975,-0.82925,-0.93982,-2.3607,4.68,46.62,13.8
4.2359,-15.023,-1.7434,-1.2242,-1.5244,-2.4621,4.5,46.74,13.62
3.2553,-15.732,-0.7355,-1.7642,-2.2907,-2.4551,3.6,46.8,13.68
2.7104,-15.663,-0.23155,-1.9422,-2.4948,-2.4438,2.94,46.62,13.8
2.3155,-14.955,0.16344,-2.0317,-2.4691,-2.5201,2.04,46.62,13.98
1.2531,-12.354,0.32689,-2.0302,-2.0042,-2.8448,-0.3,46.5,14.64
0.89894,-11.387,0.095342,-1.9325,-1.7633,-2.9862,-1.68,46.38,15.06
0.51757,-11.032,0.054481,-1.7999,-1.2373,-3.2477,-3.0,46.2,15.48
0.70826,-10.351,-0.01362,-1.6405,-0.4102,-3.4245,-5.94,46.14,16.5
1.0896,-10.188,-0.01362,-1.5965,-0.21655,-3.4505,-7.44,46.08,17.28
1.0351,-9.8339,0.14982,-1.6319,-0.25137,-3.3964,-8.82,45.66,18.0
0.76274,-9.221,0.24517,-1.646,-0.44196,-3.1377,-11.7,44.58,19.38
0.42223,-8.6762,0.43585,-1.6493,-0.62827,-2.8338,-12.9,43.92,20.1
0.054481,-8.2812,0.51757,-1.624,-0.70097,-2.4331,-14.22,43.08,20.94
-0.7355,-7.6138,0.7355,-1.5317,-0.60018,-1.9875,-15.42,42.12,21.84
-1.6208,-7.5048,0.88532,-1.3793,-0.37935,-1.4994,-17.7,40.32,23.58
-1.757,-7.5184,0.96704,-1.1744,-0.11668,-0.98013,-18.54,39.3,24.48
-1.5527,-7.8317,1.1986,-0.90042,0.14416,-0.40714,-20.16,37.08,26.16
-1.2939,-8.2676,1.3212,-0.3821,0.34117,0.39951,-20.7,36.0,26.88
-1.1986,-9.0303,1.4301,0.010996,0.40836,0.86499,-21.36,34.92,27.54
-1.1713,-9.7658,1.4982,0.20983,0.45907,1.0919,-21.66,33.96,28.2
-0.98067,-11.128,1.58,0.74526,0.63835,1.7883,-22.08,32.94,28.68
-0.095342,-11.836,1.3484,1.0962,0.72235,2.2617,-22.62,31.62,29.52
0.70826,-11.931,0.64016,1.6344,0.61453,2.7611,-22.68,31.2,29.88
1.5527,-12.149,-0.47671,1.8027,0.49938,2.8524,-22.68,30.9,30.18
1.7434,-12.871,-1.2531,2.1053,0.18234,2.9138,-22.5,30.96,30.24
1.58,-13.688,-1.5391,2.2513,-0.33109,2.8634,-22.2,31.44,29.76
0.83084,-14.41,-1.5255,2.0409,-0.40225,2.8243,-21.48,32.64,28.8
0.53119,-13.934,-1.6753,1.6719,-0.13073,2.8338,-21.24,33.48,28.08
0.53119,-12.0,-1.9613,1.3586,0.36499,2.8402,-20.76,34.56,27.42
0.99429,-9.6023,-2.0567,1.2202,1.3564,2.7553,-19.68,36.36,26.28
1.3484,-8.4038,-1.9613,1.2648,1.9783,2.6356,-18.84,37.32,25.86
1.7706,-8.2267,-1.9068,1.2892,2.208,2.5879,-18.06,38.16,25.32
2.833,-8.6898,-1.8251,1.2819,2.5061,2.5226,-16.14,39.84,24.12
3.5549,-9.1256,-1.7979,1.1884,2.4175,2.5711,-15.12,40.38,23.46
4.304,-9.6568,-2.2474,1.0644,2.1228,2.6655,-14.04,41.04,22.92
5.4073,-10.515,-2.547,0.95875,1.6704,2.7263,-11.76,42.12,21.66
5.5435,-10.637,-2.833,0.89125,1.1811,2.5953,-10.56,42.72,21.12
5.9112,-10.924,-3.2416,0.91019,1.0311,2.3414,-9.48,43.08,20.7
6.7285,-11.223,-3.8001,0.94776,0.93096,1.9813,-7.08,43.5,19.92
7.2188,-11.591,-4.127,0.93768,0.80573,1.5488,-5.58,43.68,19.68
7.4912,-11.959,-4.3177,0.85918,0.56749,1.0785,-4.26,43.68,19.2
7.7636,-12.939,-4.1542,0.49877,0.075136,0.34239,-1.8,43.98,18.0
7.3822,-13.648,-3.6503,0.13225,-0.18387,-0.17623,-0.84,44.04,17.46
6.4152,-15.091,-3.2825,-0.2025,-0.2926,-0.67042,0.9,44.34,16.38
5.6116,-14.846,-3.3097,-0.40623,-0.22205,-1.1417,2.28,44.34,15.6
5.5707,-14.152,-3.1872,-0.4893,-0.14569,-1.5715,2.7,44.4,15.42
5.5435,-14.152,-2.7649,-0.53787,-0.26481,-1.9871,3.18,44.58,15.3
5.5435,-15.105,-1.7979,-0.95997,-0.99327,-2.4596,3.54,44.52,15.48
5.1485,-16.521,-0.64016,-1.3916,-1.6927,-2.664,3.36,44.28,15.6
4.1814,-17.597,0.24517,-1.8219,-2.3396,-2.8075,2.4,43.8,16.14
3.1327,-17.434,0.7355,-2.1029,-2.7388,-2.9627,1.32,43.38,17.16
2.2337,-16.426,0.96704,-2.1906,-2.8314,-3.1487,-0.06,42.78,17.94
1.7706,-15.568,0.9398,-2.1102,-2.656,-3.3708,-0.72,42.42,18.6
1.1169,-13.866,0.78998,-1.9584,-2.306,-3.5983,-2.22,41.94,20.1
0.6674,-12.681,0.72188,-1.7605,-1.6515,-3.8955,-3.96,41.34,21.06
0.53119,-11.768,0.31327,-1.708,-1.2785,-3.9645,-5.52,40.92,21.78
0.40861,-11.319,0.24517,-1.7113,-0.9954,-3.9181,-6.6,40.56,22.2
0.38137,-10.774,0.29965,-1.7422,-0.83719,-3.7898,-8.34,40.2,23.1
0.081722,-9.8611,0.32689,-1.7834,-0.73334,-3.5601,-9.78,39.72,23.88
-0.14982,-8.8396,0.58567,-1.7886,-0.61361,-3.2599,-11.22,38.94,24.48
-0.35413,-7.5865,0.6674,-1.7611,-0.53726,-2.66,-12.54,38.28,25.68
-0.85808,-6.8374,0.83084,-1.6606,-0.45632,-2.2428,-13.68,37.38,26.46
-1.0488,-6.6604,0.78998,-1.5003,-0.33567,-1.8112,-14.28,36.78,27.0
-1.4029,-6.2245,0.9398,-1.3198,-0.20617,-1.3699,-15.18,35.4,28.08
-1.6481,-6.279,1.1577,-1.1096,-0.018631,-0.90897,-16.08,33.9,29.34
-1.7434,-6.8919,1.3212,-0.87415,0.22083,-0.42486,-16.38,33.18,30.0
-1.8524,-7.927,1.7025,-0.61056,0.46273,0.078496,-17.04,31.74,31.02
-1.8115,-8.3901,1.6344,-0.31429,0.67592,0.60079,-17.28,31.02,31.44
-1.6072,-9.7522,1.4846,0.25687,0.89522,1.4145,-18.12,29.82,32.22
-1.1305,-10.256,1.076,0.67562,0.96272,1.9948,-18.48,28.98,32.88
-0.28603,-11.196,0.44947,1.0403,1.0003,2.5843,-18.72,28.56,32.88
0.095342,-11.673,0.44947,1.3763,0.96456,3.0635,-18.78,28.44,32.7
0.92618,-12.64,-1.1169,1.6814,0.80268,3.4123,-18.78,28.98,31.92
1.1577,-13.974,-1.8251,1.9664,0.49144,3.6252,-18.48,30.06,30.96
1.0215,-14.805,-2.0567,2.2388,0.052229,3.8414,-18.24,30.66,30.3
0.47671,-16.385,-2.0567,2.2242,0.11545,4.0302,-17.82,32.34,29.16
1.0215,-15.377,-2.3427,2.062,0.41844,4.1634,-17.34,34.44,27.72
1.5119,-14.41,-2.6287,1.8573,0.70585,4.1963,-17.04,35.52,27.24
2.0431,-11.591,-2.8603,1.7248,1.0577,4.0171,-15.66,37.32,26.34
2.7786,-10.515,-2.8875,1.5699,1.5006,3.6346,-13.62,38.94,25.26
3.2416,-10.256,-2.5334,1.3479,1.543,3.3243,-12.54,39.54,24.84
3.7047,-10.515,-2.3427,1.0986,1.4429,3.0659,-10.02,40.74,24.18
4.0452,-10.855,-2.5742,0.88392,1.3204,2.912,-8.58,41.16,24.0
4.5083,-11.073,-3.0646,0.82192,1.3448,2.8451,-5.76,41.58,23.52
4.6582,-10.896,-3.1735,0.79535,1.4557,2.6505,-2.82,42.0,23.22
5.4345,-10.597,-3.1463,0.7648,1.7623,2.3421,-1.32,42.0,23.16
6.0202,-10.447,-3.1191,0.64171,2.073,1.6906,1.62,41.94,23.04
7.0009,-10.243,-3.3234,0.53267,1.9227,1.2236,4.26,41.76,22.62
7.5457,-10.351,-3.2144,0.42699,1.5421,0.79443,6.24,41.88,22.02
7.6002,-11.768,-3.1735,0.30635,1.0574,0.43555,7.38,42.06,21.48
7.5729,-12.258,-3.1463,0.15088,0.53451,0.15944,7.92,42.06,21.3
6.96,-12.721,-2.2337,-0.010385,0.11362,-0.20647,8.52,42.24,21.12
6.3743,-13.375,-1.6617,-0.096517,-0.21777,-0.53237,8.76,42.54,21.06
5.9249,-13.852,-1.58,-0.038179,-0.31918,-0.88117,8.64,42.6,20.94
5.8023,-13.879,-1.8796,0.10996,-0.43585,-1.2147,8.52,42.54,20.76
5.8976,-12.667,-2.5606,0.23366,-0.6298,-1.5143,8.28,42.6,20.52
5.8159,-12.095,-2.4925,0.21197,-1.0058,-1.8094,7.62,42.72,20.64
5.4754,-13.266,-1.8387,-0.2361,-1.8515,-2.2284,6.66,42.84,20.7
5.0804,-14.547,-1.2667,-0.6857,-2.4737,-2.4352,6.18,42.9,20.52
4.1542,-16.167,-0.53119,-1.0971,-3.0128,-2.5772,5.22,43.08,20.64
3.4596,-16.249,-0.027241,-1.3912,-3.3616,-2.7284,4.56,42.96,20.82
2.5334,-16.576,0.24517,-1.5149,-3.4153,-2.8995,3.42,42.78,21.0
1.6072,-14.764,0.40861,-1.5925,-3.2651,-3.1542,2.04,42.6,21.48
1.2531,-13.988,0.39499,-1.649,-2.959,-3.4505,1.14,42.6,21.66
0.32689,-12.476,0.23155,-1.7092,-2.4936,-3.7571,-0.54,42.42,22.32
0.12258,-12.122,0.19068,-1.7611,-1.7123,-4.0424,-2.28,42.36,22.74
-0.081722,-11.591,0.21793,-1.7645,-1.2187,-4.0397,-3.24,42.18,22.98
-0.095342,-10.964,0.12258,-1.7281,-0.821,-3.9169,-5.04,41.76,23.34
-0.054481,-9.902,0.14982,-1.6661,-0.50946,-3.6576,-6.72,40.86,23.82
-0.10896,-9.5206,0.16344,-1.5849,-0.39554,-3.3637,-7.68,40.68,24.0
-0.34051,-8.4719,0.50395,-1.4994,-0.354,-2.9615,-9.48,39.84,24.36
-0.01362,-7.464,1.0351,-1.4639,-0.67317,-2.2889,-11.4,38.64,24.96
-0.5993,-6.6876,1.4846,-1.4398,-1.0821,-1.774,-12.84,37.2,25.44
-1.0624,-6.7012,1.6344,-1.288,-1.2657,-1.1808,-13.26,36.48,25.56
-1.9068,-7.3141,1.757,-0.96272,-1.1518,-0.56872,-14.34,34.92,26.34
-1.975,-8.6353,1.7706,-0.50152,-0.82589,0.057116,-14.7,33.18,27.3
-2.0431,-9.7113,2.0839,-0.038179,-0.39187,0.61697,-14.82,31.8,28.32
-1.9341,-10.161,2.152,0.57635,0.38576,1.3543,-15.0,31.08,28.86
-1.2803,-11.959,2.1112,0.95326,0.80359,1.8421,-15.06,30.0,29.64
-0.58567,-12.667,1.866,1.328,1.0492,2.3396,-14.88,29.58,30.06
0.46309,-12.449,1.0896,1.7022,1.1072,2.7416,-14.52,29.34,30.12
1.4574,-11.85,-0.40861,2.0617,0.9389,2.9557,-13.98,29.52,29.82
1.7025,-12.354,-1.4301,2.3705,0.57146,2.9755,-13.68,29.82,29.64
1.471,-13.198,-1.5255,2.4884,-0.013134,2.8527,-13.32,30.72,28.98
0.8717,-14.342,-1.2531,2.1918,-0.16585,2.8033,-12.72,32.1,27.48
0.7355,-14.152,-1.4029,1.7254,-0.037874,2.8228,-12.54,32.88,27.06
0.84446,-12.0,-1.6344,1.3757,0.30971,2.8869,-12.0,34.44,25.8
1.1713,-10.243,-1.7979,1.288,0.81978,2.8943,-11.1,36.12,24.96
1.7706,-8.9349,-1.9886,1.4768,1.5806,2.7758,-9.84,37.62,24.12
2.3699,-8.7443,-2.152,1.6432,1.8586,2.6478,-9.12,38.16,23.82
3.2144,-8.9894,-2.3018,1.6667,1.8592,2.5177,-7.5,39.24,23.1
3.8137,-9.4253,-2.3155,1.5406,1.664,2.4273,-5.64,39.9,22.56
4.2223,-9.6432,-2.5742,1.3222,1.3839,2.3677,-4.56,40.2,22.32
4.3585,-10.311,-2.9011,1.113,1.0742,2.2889,-2.76,40.68,21.66
4.1814,-10.746,-3.3642,0.97341,0.8882,2.1344,-0.54,40.8,21.18
4.2223,-10.937,-3.6094,0.92913,0.94684,1.7685,0.6,40.68,21.0
4.7263,-11.264,-4.1814,0.9389,1.0605,1.4722,2.7,40.68,20.16
5.1213,-11.319,-4.4811,0.90683,1.0831,1.1558,4.44,40.56,19.38
5.8567,-11.877,-4.7263,0.82009,0.88637,0.8042,5.28,40.56,18.96
6.1155,-12.898,-4.6445,0.60689,0.5397,0.43982,6.48,40.68,17.88
5.8023,-13.402,-4.2087,0.28344,0.15852,0.075442,7.38,40.68,17.16
5.1894,-14.247,-3.7184,-0.053145,-0.15821,-0.5174,7.8,40.74,16.74
4.5356,-14.928,-3.6639,-0.43066,-0.18723,-0.90225,8.52,40.74,16.26
4.4947,-14.029,-3.6366,-0.53603,-0.18815,-1.2428,8.7,40.68,16.2
4.5764,-13.157,-3.4732,-0.59193,-0.30788,-1.5531,8.94,40.68,16.08
4.4947,-14.274,-3.0646,-0.7929,-0.64446,-1.8506,8.76,40.86,16.02
4.0589,-15.486,-2.152,-1.1918,-1.1396,-2.0776,8.4,41.04,16.08
3.7047,-16.181,-1.7706,-1.8711,-1.8344,-2.2767,8.22,40.98,16.02
2.547,-16.876,-0.57205,-2.2642,-2.062,-2.376,7.26,40.98,16.44
1.8524,-15.718,-0.19068,-2.5064,-1.9881,-2.4893,6.42,41.04,17.16
1.2803,-13.484,0.25879,-2.529,-1.6872,-2.6512,5.1,41.1,18.24
1.0896,-12.612,0.25879,-2.3531,-1.2388,-2.8625,4.32,40.98,18.84
0.8036,-10.869,0.040861,-1.9422,-0.49388,-3.2403,2.7,40.92,19.8
1.185,-10.42,-0.040861,-1.7217,-0.14844,-3.3943,1.02,40.92,20.82
1.3484,-10.324,0.01362,-1.6261,-0.078496,-3.4606,1.02,40.74,21.24
1.4846,-10.174,0.027241,-1.6264,-0.22785,-3.4294,-2.04,40.26,22.2
1.362,-9.9292,-0.027241,-1.6698,-0.52046,-3.3237,-4.14,39.84,23.16
1.0624,-9.7522,0.12258,-1.7623,-1.0348,-2.9816,-5.04,39.48,23.52
-0.081722,-8.7987,0.68102,-1.8112,-1.1448,-2.6347,-6.96,38.46,24.48
-0.74912,-8.2267,1.0896,-1.8185,-0.9893,-2.2718,-7.92,37.92,25.08
-1.2258,-7.8045,1.1032,-1.7184,-0.68173,-1.8818,-8.64,37.26,25.56
-2.1384,-7.2188,1.0624,-1.463,-0.3146,-1.4682,-10.32,35.76,26.64
-2.2474,-7.1915,1.076,-1.1069,0.015577,-1.0049,-11.04,34.98,27.18
-1.58,-7.8862,1.1032,-0.70127,0.27245,-0.48869,-11.76,34.02,27.72
