Ax,Ay,Az,Gx,Gy,Gz,Mx,My,Mz
1.8251,-6.3879,-2.3836,0.68631,1.2767,0.90591,-0.6,43.62,16.14
2.2882,-6.8102,-2.547,0.63805,1.2196,0.98166,1.08,43.92,16.08
2.4653,-7.1098,-2.6423,0.63561,0.97952,1.1151,1.8,44.04,16.08
2.6015,-7.927,-2.8194,0.68295,0.62094,1.2779,3.54,44.28,15.72
2.5742,-8.7579,-2.8739,0.74495,0.31979,1.4175,4.86,44.46,15.06
2.5198,-9.6432,-2.9284,0.83261,0.067806,1.5831,6.12,44.88,14.22
2.4244,-10.297,-3.0782,0.81795,0.0076358,1.5898,7.14,45.12,13.2
2.3155,-10.447,-3.0646,0.75656,0.080023,1.4966,8.1,45.66,12.36
2.1112,-9.9973,-2.9284,0.65699,0.25473,1.3182,9.0,46.32,11.34
2.0839,-9.8611,-2.8739,0.53665,0.65515,0.94867,9.42,46.56,10.92
2.3291,-10.147,-2.942,0.5342,0.7419,0.82772,9.84,46.86,10.56
2.6696,-10.665,-3.1463,0.50427,0.74281,0.63225,10.32,47.22,10.14
3.5277,-12.49,-3.3097,0.3937,0.41508,0.50091,10.74,47.46,9.6
3.2416,-11.782,-2.9829,0.22816,0.15699,0.37721,11.7,47.7,8.82
2.5334,-11.373,-2.3563,0.12675,0.11484,0.17471,12.18,48.0,8.4
2.6015,-12.572,-2.942,0.07422,0.27397,-0.018937,12.42,48.12,8.22
2.9829,-12.149,-3.4459,0.027184,0.40897,-0.21502,13.02,48.12,7.74
3.2961,-11.741,-3.228,-0.038179,0.30574,-0.25198,13.2,48.24,7.5
3.514,-11.387,-2.8467,-0.23305,0.0033598,-0.35003,13.26,48.3,7.32
3.6639,-11.577,-1.866,-0.43463,-0.42302,-0.4777,13.2,48.42,6.9
3.5685,-12.027,-1.9205,-0.62583,-0.81337,-0.6524,13.08,48.48,6.9
3.4596,-12.258,-1.8932,-0.74495,-1.1078,-0.7761,12.72,48.54,7.14
2.9829,-12.149,-1.8932,-0.76511,-1.3228,-0.85704,12.54,48.48,7.26
2.656,-11.645,-1.8524,-0.81062,-1.3781,-0.99938,12.3,48.42,7.44
2.261,-10.924,-1.6344,-0.85979,-1.3079,-1.0577,12.12,48.24,7.74
1.7025,-9.6296,-1.3076,-1.0938,-0.85613,-1.3143,11.34,48.0,8.34
1.5663,-8.8805,-1.185,-1.2437,-0.47739,-1.5131,10.92,47.76,8.82
1.866,-7.9407,-1.076,-1.3439,-0.20495,-1.6823,10.44,47.64,9.36
2.0294,-7.8998,-0.99429,-1.4007,-0.019548,-1.8546,9.06,47.34,10.74
2.1112,-8.0632,-0.83084,-1.4105,-0.050396,-1.8879,8.28,47.16,11.4
2.1656,-8.2812,-0.78998,-1.4105,-0.079718,-1.89,7.32,46.92,12.12
2.152,-8.5672,-0.58567,-1.4038,-0.12889,-1.7703,6.24,46.62,12.66
2.1248,-8.7987,-0.57205,-1.3622,-0.15088,-1.6191,4.2,46.14,13.74
2.0294,-8.717,-0.47671,-1.2966,-0.13867,-1.343,3.18,45.78,14.22
1.7979,-8.322,-0.28603,-1.1677,-0.064752,-1.139,0.9,44.82,14.94
1.7162,-8.1177,-0.34051,-1.0602,0.030849,-0.92668,-0.3,44.34,15.36
1.7843,-8.4991,-0.39499,-1.0049,0.080023,-0.81459,-1.38,43.92,15.66
2.1793,-10.025,-0.50395,-0.81642,0.15363,-0.43555,-3.36,43.14,16.26
2.3699,-10.992,-0.58567,-0.69333,0.097738,-0.20922,-4.26,42.72,16.44
2.3699,-10.883,-0.44947,-0.58368,0.035736,-0.027184,-5.1,42.24,16.56
2.2474,-10.065,-0.64016,-0.31368,-0.021075,0.14416,-6.36,41.46,16.62
2.0431,-10.637,-0.57205,-0.083689,-0.059254,0.26909,-6.72,40.92,16.62
1.9886,-11.182,-0.54481,-0.0024435,-0.059559,0.37293,-6.96,40.56,16.56
1.7843,-11.836,-0.42223,0.2135,0.029322,0.75259,-7.14,39.66,16.56
1.7025,-11.414,-0.51757,0.35736,0.16554,0.96486,-7.2,39.18,16.68
1.7025,-10.215,-0.7355,0.58643,0.29322,1.0339,-7.32,38.82,16.8
1.866,-8.7987,-1.3212,0.98166,0.36438,0.94318,-7.14,38.46,17.04
2.0567,-8.8668,-1.5255,1.0919,0.31979,0.88087,-7.08,38.28,17.1
2.152,-9.2346,-1.7025,1.2413,0.14447,0.7761,-7.08,38.16,17.16
2.2882,-9.5615,-1.8251,1.2242,-0.23091,0.72632,-7.02,38.16,17.22
1.7843,-9.2482,-1.9613,1.1072,-0.38087,0.80451,-6.96,38.34,17.28
1.4438,-8.6625,-2.1248,0.97433,-0.33689,0.93279,-6.72,38.46,17.22
1.1169,-7.927,-2.5334,0.905,-0.12187,1.0883,-6.36,38.52,17.22
0.68102,-6.7966,-2.6423,0.94928,0.48839,1.2324,-5.22,39.0,17.4
0.92618,-6.5922,-2.5879,0.98135,0.9334,1.3152,-4.62,39.12,17.52
1.362,-6.674,-2.547,1.0049,1.1973,1.4013,-3.78,39.36,17.4
2.1929,-7.1507,-2.6968,1.003,1.2107,1.4957,-1.98,39.9,17.04
2.7649,-7.4503,-3.0373,1.0003,0.94195,1.6063,-1.08,40.32,16.8
3.0646,-7.9543,-3.1599,1.0198,0.45662,1.7242,-0.36,40.68,16.56
2.8875,-9.0303,-3.4732,1.033,-0.035125,1.7984,1.62,41.46,15.78
2.6832,-9.616,-3.6775,1.014,-0.50519,1.795,2.64,41.82,15.42
2.5334,-10.052,-3.7728,0.92302,-0.53054,1.675,3.78,42.12,14.88
1.8932,-10.433,-3.7728,0.77855,-0.31062,1.4691,5.94,42.84,13.8
1.58,-10.174,-3.6911,0.60018,0.093462,1.1854,6.9,43.08,13.26
1.6889,-10.515,-3.4051,0.45876,0.57238,0.69608,8.7,43.8,11.64
2.3427,-11.891,-3.6094,0.29993,1.047,0.42272,9.42,43.98,10.98
2.6696,-12.599,-3.7184,0.24038,1.0892,0.31551,10.02,44.28,10.32
3.3778,-12.98,-3.6503,0.077274,0.99907,0.16829,10.38,44.64,9.78
3.2961,-12.272,-2.9284,-0.13775,0.64538,-0.072693,11.16,45.0,8.94
3.0101,-12.762,-2.6423,-0.21564,0.48472,-0.25809,11.58,44.94,8.58
2.9965,-13.607,-3.1327,-0.28588,0.44563,-0.42974,11.94,44.88,8.4
2.9965,-13.225,-3.1872,-0.35033,0.3711,-0.55008,12.3,44.88,7.86
2.9556,-11.605,-2.7513,-0.43952,0.24496,-0.6634,12.48,44.94,7.8
3.0646,-11.155,-2.4244,-0.50244,0.13714,-0.72693,12.54,44.76,7.86
3.1872,-11.046,-1.7162,-0.7138,-0.30543,-0.9893,12.42,44.46,8.04
3.2144,-11.291,-1.7706,-0.82925,-0.62858,-1.1564,12.36,44.34,8.1
3.1463,-11.482,-2.0158,-0.86407,-0.96547,-1.2391,11.94,44.22,8.4
2.8739,-11.427,-1.9341,-0.88484,-1.3888,-1.2584,11.04,43.56,9.06
2.4653,-10.678,-1.6481,-0.92729,-1.4132,-1.3164,10.68,43.32,9.3
1.9886,-9.8611,-1.362,-0.95784,-1.3506,-1.3546,10.26,42.96,9.78
1.5391,-9.0848,-1.1577,-1.1286,-0.90286,-1.5748,9.72,42.78,10.26
1.4438,-7.9407,-0.99429,-1.212,-0.55405,-1.7272,8.28,42.24,11.16
1.5391,-7.7364,-0.92618,-1.2746,-0.28863,-1.8616,7.5,41.94,11.46
2.0567,-7.6683,-0.83084,-1.2941,-0.13989,-1.8243,5.7,41.28,12.54
2.1248,-7.9679,-0.83084,-1.2617,-0.21136,-1.7352,4.62,40.98,12.84
2.2201,-8.1177,-0.7355,-1.2171,-0.34056,-1.584,3.48,40.8,13.2
2.2201,-8.7715,-0.47671,-1.1671,-0.47098,-1.3864,1.38,39.84,13.8
1.975,-8.9894,-0.40861,-1.1127,-0.51618,-1.1939,0.3,39.42,14.16
1.7706,-9.1256,-0.28603,-1.0534,-0.42883,-1.0113,-1.44,38.76,14.94
1.7025,-9.3572,-0.31327,-0.92088,-0.16554,-0.78588,-2.28,38.4,15.24
1.7843,-9.2482,-0.38137,-0.86407,-0.085521,-0.7422,-3.12,38.04,15.6
1.9341,-9.2482,-0.44947,-0.75014,0.032987,-0.65882,-3.78,37.56,15.84
2.3155,-10.093,-0.61292,-0.52046,0.0012217,-0.51404,-5.04,36.66,16.26
2.4925,-10.746,-0.62654,-0.37232,-0.16066,-0.38912,-5.46,36.06,16.44
2.438,-10.883,-0.5993,-0.2529,-0.34728,-0.28588,-6.0,35.64,16.8
1.8932,-10.651,-0.40861,-0.057421,-0.44043,-0.12675,-6.48,34.56,17.1
1.7298,-10.801,-0.32689,0.099571,-0.32132,0.072082,-6.48,33.9,17.16
1.4982,-11.278,-0.49033,0.18631,-0.21991,0.20647,-6.6,33.54,17.28
1.6072,-10.746,-0.78998,0.47403,0.099876,0.71227,-6.72,33.0,17.76
1.8387,-9.8884,-0.8036,0.71257,0.22877,0.95661,-6.9,32.7,18.0
1.975,-9.1937,-0.9398,0.93432,0.20556,1.0333,-6.96,32.58,18.18
2.1929,-9.6704,-1.3212,1.1267,0.13134,0.95295,-7.26,32.16,18.3
2.152,-9.902,-1.5391,1.2578,0.041539,0.90897,-7.38,32.04,18.42
2.0431,-10.025,-1.6481,1.2917,-0.036652,0.82528,-7.62,32.1,18.48
1.9886,-9.7658,-1.9886,1.23,-0.15149,0.83505,-7.8,32.22,18.66
1.9341,-9.0848,-2.2474,1.19,-0.19517,0.91355,-7.86,32.64,18.96
1.5255,-7.9543,-2.438,1.1438,-0.15027,1.0107,-7.62,32.82,19.08
1.0215,-6.7148,-2.5742,1.1231,0.030543,1.0605,-7.02,33.54,19.38
0.95342,-6.4152,-2.6696,1.069,0.54703,1.076,-6.54,34.14,19.5
1.0351,-6.4152,-2.656,1.0382,0.88331,1.1084,-6.0,34.44,19.56
1.7843,-6.9328,-2.7513,1.0174,0.98319,1.1377,-5.34,34.8,19.38
2.2746,-7.4095,-2.8603,0.98013,0.94409,1.2877,-4.02,35.7,19.14
2.6423,-7.8998,-3.0782,0.99296,0.63408,1.4514,-3.3,36.06,18.96
2.8194,-9.1801,-3.4459,1.0186,0.080634,1.686,-1.86,37.02,18.66
2.6696,-9.6704,-3.5004,1.0427,-0.19487,1.7788,-1.02,37.32,18.3
2.6696,-10.093,-3.623,1.0235,-0.37874,1.777,-0.06,37.8,17.94
2.3699,-10.256,-3.8001,0.99205,-0.3937,1.7339,1.02,38.16,17.58
2.152,-9.9837,-3.8001,0.82467,-0.22266,1.4636,2.94,38.94,16.44
1.8932,-9.7658,-3.6366,0.7028,0.03146,1.1961,3.96,39.42,15.78
2.2474,-10.937,-3.7728,0.60537,0.281,0.80879,5.64,40.32,14.52
2.8603,-12.544,-4.0997,0.39004,0.40012,0.61575,6.3,40.74,13.98
3.0101,-12.967,-4.1678,0.1295,0.35919,0.45845,6.96,41.16,13.56
2.7922,-12.667,-3.514,-0.022602,0.35919,0.35155,7.5,41.4,13.14
2.4789,-12.122,-2.3972,-0.33017,0.54978,-0.049786,8.64,41.94,12.54
2.4789,-13.035,-2.5061,-0.44318,0.75259,-0.33017,9.12,42.06,12.18
2.8194,-13.457,-2.9011,-0.55772,0.90255,-0.57269,9.66,42.24,11.88
3.1191,-12.163,-2.656,-0.6463,0.92729,-0.81917,10.26,42.66,11.82
3.2416,-11.087,-1.8796,-0.74587,0.74678,-0.97983,10.32,42.72,11.58
3.4459,-10.978,-1.5255,-0.7981,0.59071,-1.0699,10.26,42.78,11.76
3.5413,-11.564,-1.1713,-0.95081,-0.036346,-1.3934,10.14,42.78,11.94
3.5549,-12.286,-1.2258,-1.0003,-0.48381,-1.5299,9.66,42.6,12.18
3.5004,-12.544,-1.4438,-0.94837,-0.93432,-1.5531,9.24,42.42,12.42
3.0237,-11.727,-1.5527,-0.8436,-1.4554,-1.5299,8.16,41.88,13.32
2.547,-10.774,-1.1577,-0.8097,-1.5507,-1.5198,7.8,41.7,13.8
2.0567,-9.8884,-0.99429,-0.82222,-1.5238,-1.5207,7.2,41.58,14.22
1.7025,-9.1393,-0.8717,-0.94318,-1.2022,-1.6255,6.6,41.28,14.82
1.471,-8.036,-0.92618,-1.0305,-0.92149,-1.6875,5.1,40.98,15.84
1.6208,-7.7636,-0.91256,-1.1038,-0.73487,-1.7138,4.14,40.68,16.26
1.7434,-7.7091,-0.85808,-1.1432,-0.61942,-1.6869,3.42,40.32,16.86
1.8387,-7.9679,-0.89894,-1.1863,-0.5733,-1.551,1.68,40.08,17.64
1.7025,-8.1586,-0.84446,-1.2156,-0.51893,-1.4175,0.84,39.96,17.88
1.6208,-8.2267,-0.6674,-1.2291,-0.46823,-1.3485,0.12,39.66,18.12
1.5119,-8.3765,-0.50395,-1.2349,-0.26176,-1.1298,-0.6,39.54,18.42
1.5527,-8.5127,-0.40861,-1.1939,-0.089492,-0.98685,-2.16,39.06,18.9
1.6208,-8.5672,-0.35413,-1.1054,0.058643,-0.7419,-2.7,38.82,19.14
1.7298,-8.7987,-0.44947,-1.0015,0.14966,-0.67501,-3.3,38.64,19.2
2.0431,-10.215,-0.35413,-0.86468,0.17318,-0.49327,-4.74,37.98,19.62
2.1929,-10.924,-0.34051,-0.76022,0.15149,-0.2981,-5.22,37.68,19.56
2.152,-11.087,-0.28603,-0.58185,0.087354,-0.082161,-5.82,37.38,19.74
1.9886,-10.174,-0.19068,-0.38668,0.042455,0.02474,-6.6,36.84,20.04
1.8932,-10.256,-0.19068,-0.1179,-0.0079412,0.14264,-6.84,36.42,20.16
2.0022,-11.536,-0.095342,0.26786,-0.060476,0.46578,-7.14,35.7,20.64
2.1248,-12.04,-0.095342,0.47831,-0.10996,0.73365,-7.26,35.4,20.76
2.2201,-11.918,-0.14982,0.58399,-0.13286,0.85032,-7.5,35.22,20.88
2.152,-10.678,-0.50395,0.94959,-0.25107,0.97525,-7.68,35.04,21.0
1.7979,-9.2482,-0.88532,1.1973,-0.29077,0.88209,-7.8,34.98,21.12
1.5936,-9.3844,-1.076,1.3708,-0.24923,0.68173,-7.8,34.92,21.12
1.2939,-9.8748,-1.5663,1.4074,-0.18998,0.64385,-7.8,35.34,21.06
1.3757,-9.8066,-1.9341,1.3121,-0.052229,0.67928,-7.74,35.58,21.18
1.3484,-9.5887,-2.0703,1.2627,-0.009163,0.7477,-7.92,36.0,21.18
1.3348,-8.7306,-2.2746,1.1383,0.1576,1.004,-7.8,36.36,21.18
1.0624,-7.5048,-2.4517,1.0947,0.3375,1.1515,-7.44,37.26,21.24
0.92618,-6.9191,-2.656,1.0806,0.61514,1.2868,-7.02,37.8,21.18
1.0351,-6.6331,-2.6968,1.0773,0.96761,1.328,-6.6,38.4,21.06
1.4029,-6.7285,-2.8058,1.1026,1.2813,1.4731,-5.88,38.94,20.88
2.3836,-7.5457,-2.9556,1.0919,1.2049,1.5986,-4.32,40.02,20.34
2.6696,-8.0905,-3.1054,1.0962,0.91691,1.7367,-3.42,40.56,20.1
2.8058,-8.5808,-3.3778,1.0916,0.51282,1.8573,-2.58,41.04,19.74
2.7649,-9.6432,-3.7047,1.0898,0.17257,1.9203,-0.96,42.24,18.96
2.6832,-9.9837,-3.7728,1.0455,-0.1295,1.8524,0.12,42.72,18.48
2.4789,-10.379,-3.7728,1.0067,-0.1405,1.7755,1.02,43.14,18.0
2.0703,-10.651,-3.6094,0.8152,0.040928,1.4294,3.42,44.04,16.74
1.9068,-10.297,-3.7456,0.65149,0.32529,1.1063,4.62,44.4,16.02
1.866,-9.8884,-3.5277,0.50977,0.65699,0.75228,6.72,45.24,14.46
2.1793,-10.406,-3.5549,0.40684,0.91202,0.46181,7.5,45.72,13.68
2.6696,-11.414,-3.6503,0.21136,0.97525,0.16096,8.28,46.08,12.96
3.1872,-12.231,-3.6366,0.12309,0.92149,0.10904,8.82,46.32,12.42
3.1599,-11.877,-3.2008,-0.065668,0.76877,-0.0076358,9.6,46.98,11.46
2.9011,-12.149,-2.7649,-0.20372,0.58613,-0.22266,9.9,47.28,11.22
2.942,-13.103,-2.9148,-0.27947,0.52626,-0.35736,10.26,47.76,10.86
3.4187,-13.797,-3.4868,-0.33628,0.43738,-0.45326,10.68,47.94,10.5
3.3234,-12.749,-3.3234,-0.51618,0.17532,-0.58215,10.62,48.06,10.38
3.4051,-11.264,-2.1929,-0.58735,0.064446,-0.64813,10.68,48.12,10.26
3.3097,-11.632,-1.8251,-0.74251,-0.22388,-0.81825,10.08,48.36,10.38
3.1463,-12.04,-1.866,-0.90591,-0.54734,-1.0379,9.84,48.42,10.56
3.0646,-12.095,-1.8387,-1.1356,-0.86957,-1.3598,9.54,48.54,10.86
2.6832,-12.19,-1.6344,-1.2217,-0.97738,-1.4719,8.88,48.24,11.28
2.5334,-11.877,-1.3484,-1.2837,-1.0211,-1.5495,8.34,48.0,11.7
2.0839,-10.624,-1.0896,-1.3433,-0.95723,-1.6163,7.2,47.64,12.66
1.8932,-9.8748,-1.1169,-1.3726,-0.69333,-1.6854,6.66,47.34,13.38
1.7706,-9.4117,-1.0215,-1.3693,-0.46304,-1.7489,6.06,47.04,13.98
1.7162,-8.9077,-0.91256,-1.3717,-0.24557,-1.8021,5.04,46.56,14.82
1.866,-8.2131,-0.72188,-1.3717,-0.11393,-1.8189,3.18,46.02,16.08
2.0567,-7.9543,-0.53119,-1.3693,-0.10049,-1.7672,2.16,45.72,16.8
2.2337,-8.0224,-0.39499,-1.3534,-0.13897,-1.7324,0.06,44.7,18.06
2.152,-8.2267,-0.38137,-1.2801,-0.33872,-1.5611,-1.02,44.34,18.54
2.1929,-8.431,-0.31327,-1.2428,-0.40164,-1.4868,-2.16,43.74,18.96
2.0839,-8.54,-0.27241,-1.098,-0.53237,-1.2196,-4.26,42.6,19.74
1.9477,-8.54,-0.21793,-0.97128,-0.53084,-1.0284,-5.1,42.06,20.34
1.8387,-8.6081,-0.31327,-0.83017,-0.47434,-0.85094,-5.94,41.64,20.64
1.9341,-9.0439,-0.61292,-0.68661,-0.39218,-0.67714,-7.44,40.26,21.3
2.1112,-9.902,-0.64016,-0.49388,-0.35583,-0.38515,-8.1,39.84,21.48
2.1793,-10.42,-0.61292,-0.44104,-0.3769,-0.2865,-8.64,39.24,21.66
2.0022,-10.746,-0.61292,-0.30268,-0.405,-0.037263,-9.06,38.16,21.84
1.7843,-10.229,-0.70826,-0.19487,-0.34483,0.066279,-9.06,37.8,22.08
1.6344,-10.215,-0.89894,-0.036652,-0.1854,0.17715,-9.0,37.26,22.2
1.6753,-10.774,-1.0351,0.20617,0.015272,0.45571,-8.76,36.6,22.5
1.757,-10.924,-1.0215,0.34178,0.068417,0.69547,-8.7,36.12,22.92
1.7025,-10.774,-1.0624,0.39828,0.098655,0.7984,-8.52,35.88,23.16
1.471,-9.793,-1.185,0.57696,0.25412,0.94012,-8.28,35.58,23.34
1.5527,-9.4253,-1.3484,0.71899,0.41294,0.8885,-8.34,35.46,23.4
1.7025,-9.507,-1.5936,0.90958,0.55283,0.75136,-8.34,35.7,23.58
2.0294,-9.7522,-1.757,0.98655,0.54642,0.69425,-8.34,35.94,23.28
2.2474,-9.8339,-1.9341,1.0409,0.38179,0.7086,-8.34,36.0,23.22
2.2474,-9.7658,-1.9886,1.073,0.1573,0.79596,-8.34,36.36,23.1
2.0839,-9.1937,-2.2065,1.1041,0.037874,0.91355,-8.52,36.6,23.1
1.58,-7.8998,-2.2746,1.149,0.050396,1.0354,-8.64,37.14,22.98
1.2939,-7.2869,-2.3836,1.175,0.17165,1.135,-8.52,37.5,22.98
1.2531,-6.5241,-2.3836,1.1866,0.53573,1.2025,-7.92,38.22,22.68
1.5936,-6.6604,-2.5061,1.1854,0.64202,1.2303,-7.5,38.64,22.32
1.9341,-6.9328,-2.5742,1.164,0.76725,1.3451,-6.9,39.12,22.2
2.0839,-7.2188,-2.547,1.1332,0.68325,1.4444,-6.36,39.54,22.14
2.4244,-8.1858,-2.8739,1.1252,0.49511,1.5797,-4.86,40.56,21.36
2.5061,-8.8532,-2.9011,1.1301,0.28314,1.7089,-4.14,41.04,21.0
2.5334,-9.9156,-3.2553,1.1399,0.13256,1.814,-3.36,41.46,20.58
2.5061,-10.188,-3.2825,1.1328,0.0030543,1.8213,-1.14,42.42,19.8
2.4925,-10.229,-3.3097,1.0684,0.033598,1.7031,-0.12,42.96,19.32
2.3836,-10.025,-3.3778,0.99632,0.12798,1.5085,1.14,43.56,18.66
2.261,-10.025,-3.3915,0.91385,0.2813,1.2617,3.3,44.52,17.1
2.5061,-10.583,-3.5549,0.84513,0.41111,1.0079,4.32,45.0,16.2
2.9011,-12.19,-3.9908,0.75961,0.41783,0.78679,6.06,46.02,14.64
3.1872,-13.348,-3.909,0.58246,0.30543,0.61178,6.96,46.44,13.92
2.9148,-12.83,-3.4187,0.19456,0.20892,0.30635,7.62,46.92,13.02
2.6968,-12.681,-3.0918,0.084605,0.22602,0.17623,8.34,47.34,12.24
2.5742,-13.511,-3.0237,-0.17807,0.51557,-0.23732,9.54,48.0,11.28
2.833,-13.552,-3.2416,-0.30452,0.67837,-0.45662,10.08,48.06,10.74
2.9556,-12.762,-3.3778,-0.4215,0.72388,-0.62033,10.62,48.36,10.44
3.0646,-10.42,-2.5061,-0.5507,0.66065,-0.76664,10.8,48.78,9.84
3.2416,-10.42,-2.0022,-0.72907,0.27092,-0.99815,10.8,48.72,9.48
3.4187,-10.924,-1.9613,-0.83872,-0.1347,-1.1377,10.74,48.66,9.48
3.623,-11.536,-2.0703,-0.90744,-0.61728,-1.1918,10.68,48.66,9.6
3.7184,-12.231,-1.975,-0.96211,-1.1148,-1.1796,10.14,48.66,9.9
3.3234,-11.836,-1.866,-1.0379,-1.4618,-1.1765,9.78,48.48,10.2
2.3836,-10.256,-1.4846,-1.088,-1.6451,-1.193,9.18,48.12,10.8
1.8932,-9.4798,-1.3212,-1.1408,-1.5812,-1.3073,8.76,47.82,11.34
1.6889,-9.0575,-1.2258,-1.2352,-1.2825,-1.4697,8.16,47.58,11.82
1.6072,-8.431,-1.0896,-1.3528,-0.72968,-1.711,6.96,47.1,13.02
1.7979,-8.4446,-0.98067,-1.4398,-0.47098,-1.8314,6.12,46.98,13.62
1.8387,-8.3357,-0.9398,-1.4948,-0.33628,-1.8705,5.16,46.68,14.22
2.0703,-8.8941,-0.64016,-1.496,-0.29077,-1.6881,2.22,45.96,15.42
2.0703,-8.8941,-0.64016,-1.496,-0.29077,-1.6881,2.22,45.96,15.42
2.1248,-9.0031,-0.61292,-1.4661,-0.2868,-1.6118,1.2,45.72,15.84
1.975,-9.3708,-0.54481,-1.3402,-0.30268,-1.3912,-0.84,45.0,16.74
1.9068,-9.1393,-0.40861,-1.2462,-0.24709,-1.2917,-1.74,44.7,16.98
1.6208,-8.7579,-0.42223,-1.1555,-0.12462,-1.2074,-2.64,44.28,17.46
1.7298,-8.9349,-0.43585,-1.0614,0.019242,-1.1325,-4.68,43.62,18.12
2.0294,-10.12,-0.47671,-0.94776,0.086743,-0.99632,-5.64,43.26,18.42
2.2201,-10.869,-0.49033,-0.81581,0.029322,-0.77305,-6.48,42.78,18.66
2.2746,-11.564,-0.21793,-0.65454,-0.15547,-0.40989,-8.04,41.82,18.9
1.7979,-10.964,-0.12258,-0.51252,-0.19303,-0.19456,-8.58,41.34,18.9
1.4165,-10.964,-0.054481,-0.31185,-0.1069,0.040317,-9.06,40.74,19.08
1.2258,-11.986,-0.081722,-0.0054978,0.22602,0.49786,-9.54,39.72,19.74
1.1441,-12.068,0.027241,0.087354,0.36957,0.66462,-9.66,39.36,20.04
1.185,-11.468,0.068102,0.27245,0.66584,0.94348,-9.84,38.88,20.22
1.2803,-8.4991,-0.46309,0.65027,0.81581,1.098,-9.96,38.1,20.58
1.362,-7.6955,-0.64016,0.94684,0.69883,1.0669,-10.14,37.8,20.76
1.3212,-8.2676,-0.83084,1.2361,0.4722,0.98746,-10.38,37.86,20.58
1.4165,-9.7658,-1.3212,1.4264,0.039095,0.96486,-10.62,37.68,20.46
1.4029,-10.188,-1.5255,1.4114,-0.22327,1.084,-10.74,37.74,20.46
1.362,-10.038,-1.6753,1.346,-0.35736,1.2663,-10.92,37.98,20.4
1.3212,-9.4117,-1.7298,1.2886,-0.39981,1.4872,-10.86,38.34,20.52
1.185,-8.5127,-2.3155,1.2694,-0.35033,1.6322,-10.5,38.94,20.58
1.0896,-8.0088,-2.656,1.2846,-0.14508,1.6719,-9.96,39.36,20.46
1.0351,-7.5457,-2.9284,1.3314,0.35827,1.6707,-8.7,40.08,20.04
1.185,-7.6546,-2.9284,1.3164,0.69455,1.6512,-7.98,40.68,19.8
1.4438,-7.9134,-2.9011,1.2788,0.82833,1.6509,-7.08,41.16,19.5
1.8251,-8.322,-3.051,1.1274,0.94195,1.6649,-6.36,41.82,18.96
2.2882,-9.2482,-3.2825,1.007,0.8769,1.7086,-4.44,43.14,18.0
2.3427,-9.5615,-3.3506,0.89186,0.79535,1.7532,-3.12,43.62,17.64
2.3155,-9.7249,-3.4596,0.81825,0.77274,1.7801,-2.04,44.28,17.22
2.4108,-10.065,-3.5822,0.73701,0.83475,1.7107,0.3,45.42,16.02
2.4925,-10.174,-3.6775,0.68753,0.90866,1.6096,1.56,45.84,15.54
2.5334,-10.134,-3.5685,0.60842,0.98471,1.4502,2.82,46.2,14.76
2.5061,-9.8748,-3.3506,0.51343,1.0846,1.2355,5.22,46.98,13.44
2.8603,-10.243,-3.3506,0.46212,1.1075,1.0067,6.24,47.34,12.66
3.2961,-11.577,-3.7865,0.42577,0.99663,0.79107,7.74,48.18,11.34
3.7865,-12.544,-3.9227,0.22816,0.65912,0.48686,8.52,48.36,10.74
3.4459,-11.918,-3.3506,0.029932,0.45143,0.24251,9.12,48.66,10.26
3.2144,-11.822,-2.8739,-0.048869,0.39187,0.097738,9.96,48.84,9.84
3.1327,-12.844,-2.656,-0.16646,0.30421,-0.33537,10.44,48.96,9.6
3.1054,-13.934,-3.2008,-0.27855,0.3262,-0.58674,11.04,49.02,9.18
3.1327,-12.735,-3.3506,-0.38637,0.36011,-0.78405,11.34,49.08,9.0
3.0918,-10.61,-2.4789,-0.49877,0.31612,-0.96639,11.64,49.26,8.88
3.2825,-10.297,-1.9341,-0.60628,0.15241,-1.1765,11.88,49.2,8.76
3.4187,-10.842,-1.8932,-0.69578,-0.15821,-1.4248,11.82,49.26,8.76
3.3642,-11.536,-1.9341,-0.821,-0.77488,-1.7568,11.52,49.26,8.82
2.9965,-12.258,-1.7706,-0.95845,-1.0934,-1.9062,10.56,49.02,9.06
2.6968,-11.959,-1.6344,-1.0721,-1.2526,-1.9896,10.08,48.78,9.24
2.1384,-10.746,-1.2803,-1.1325,-1.3106,-2.0403,9.48,48.6,9.54
1.7979,-9.9973,-1.185,-1.1842,-1.1506,-2.1521,8.1,48.18,10.26
1.7298,-9.221,-0.95342,-1.1961,-0.93523,-2.2104,7.2,47.82,10.62
1.6344,-8.7306,-0.83084,-1.201,-0.73304,-2.2397,6.42,47.46,11.04
1.757,-8.3084,-0.8036,-1.1973,-0.58551,-2.2016,4.38,46.74,12.0
1.9205,-8.4855,-0.7355,-1.1802,-0.53787,-2.1276,3.18,46.32,12.3
2.0294,-8.5808,-0.69464,-1.1606,-0.61087,-1.9016,1.8,45.9,12.72
2.1656,-8.8668,-0.51757,-1.1503,-0.65546,-1.8033,-0.9,45.0,13.44
2.1112,-9.0848,-0.58567,-1.0779,-0.79962,-1.4551,-1.98,44.52,13.8
2.0703,-9.221,-0.50395,-1.0037,-0.85307,-1.2416,-3.12,44.1,13.92
1.6889,-9.0575,-0.35413,-0.92668,-0.79565,-1.0751,-5.22,43.32,14.28
1.4982,-8.826,-0.24517,-0.85827,-0.62217,-0.94195,-6.24,42.96,14.52
1.4438,-8.7987,-0.47671,-0.76175,-0.40256,-0.83872,-7.08,42.42,14.82
1.7298,-9.3436,-0.50395,-0.57635,-0.16066,-0.65332,-8.76,41.7,14.94
1.9613,-10.134,-0.64016,-0.50671,-0.12859,-0.57024,-9.48,41.28,15.12
2.0839,-10.665,-0.5993,-0.31734,-0.19395,-0.25656,-10.02,41.04,15.24
1.9613,-10.433,-0.57205,-0.17837,-0.24862,-0.057727,-10.98,40.38,15.36
1.7979,-10.42,-0.50395,-0.01069,-0.26573,0.14813,-11.22,40.02,15.48
1.6889,-11.85,-0.29965,0.146,-0.21991,0.40561,-11.34,39.42,15.72
1.6617,-12.149,-0.28603,0.39218,-0.10721,0.85674,-11.28,39.18,15.84
1.8115,-11.904,-0.31327,0.6243,-0.047037,1.0537,-11.28,39.0,15.9
1.8524,-9.7113,-0.72188,0.91783,-0.064752,1.1023,-11.28,38.76,16.2
1.8251,-8.5944,-0.91256,1.212,-0.1295,1.0095,-11.22,38.7,16.2
1.5936,-8.4991,-1.2122,1.4645,-0.22449,0.84574,-11.16,38.82,16.26
1.6344,-9.5206,-1.3484,1.5696,-0.26909,0.65882,-11.52,39.18,15.96
1.7434,-10.174,-1.4982,1.4844,-0.31001,0.65301,-11.52,39.36,15.96
1.7025,-10.283,-1.5391,1.3277,-0.36255,0.76389,-11.64,39.78,15.72
1.58,-9.4798,-1.8251,1.2129,-0.32742,0.91508,-11.52,40.32,15.54
1.3484,-8.5808,-2.0158,1.1881,-0.20831,1.0959,-11.34,40.74,15.42
1.1577,-7.7364,-2.1384,1.2352,0.034514,1.2254,-11.04,41.16,15.6
1.1169,-7.1098,-2.2474,1.2892,0.57146,1.2969,-9.96,41.88,15.36
1.471,-7.0281,-2.0703,1.2853,0.87751,1.3247,-9.24,42.36,15.42
1.6753,-7.0417,-2.1112,1.2495,1.015,1.3485,-8.46,42.78,15.18
1.9613,-7.464,-2.0567,1.2242,1.0208,1.3653,-7.68,43.14,14.94
2.656,-8.6625,-2.4925,1.1496,0.79657,1.4942,-5.94,44.16,14.1
2.7786,-9.2891,-2.6015,1.1328,0.48533,1.6191,-4.86,44.46,13.56
2.6832,-9.8748,-2.9965,1.1362,0.23274,1.6976,-2.58,45.06,12.66
2.6287,-10.215,-3.1327,1.1472,0.0076358,1.7446,-1.38,45.42,12.12
2.5061,-10.283,-3.1872,1.0938,0.033292,1.6463,-0.06,45.66,11.58
2.3836,-10.188,-3.3097,1.0592,0.083078,1.5733,1.02,46.14,10.8
2.0567,-10.147,-3.3097,0.88728,0.39156,1.2733,3.24,47.04,9.24
2.1248,-10.147,-3.2825,0.76664,0.64294,1.0177,4.38,47.4,8.22
2.547,-10.774,-3.4868,0.67714,0.75625,0.77488,5.34,47.88,7.26
3.2008,-12.572,-3.8954,0.47709,0.5846,0.49541,6.9,48.54,5.22
3.2825,-13.157,-3.7047,0.22663,0.40592,0.33048,7.5,48.96,4.62
3.0918,-12.721,-3.4459,0.084299,0.35491,0.22327,8.22,49.26,3.84
2.4108,-12.735,-2.5606,-0.22052,0.47556,-0.16768,9.3,49.68,3.0
2.4244,-13.062,-2.8603,-0.39126,0.70433,-0.42913,9.66,49.98,2.64
2.6423,-12.967,-3.1054,-0.51282,0.88728,-0.65301,9.96,50.16,2.1
3.1599,-11.632,-2.7922,-0.686,0.8772,-0.86193,10.26,50.46,1.92
3.3778,-11.169,-2.5061,-0.81184,0.57941,-1.0006,10.32,50.52,1.8
3.6911,-10.964,-2.0022,-0.8885,0.34819,-1.0681,10.32,50.46,1.92
3.7456,-11.509,-1.6072,-1.0919,-0.48106,-1.3048,10.02,50.52,2.16
3.4459,-12.558,-1.4029,-1.23,-0.93768,-1.4245,9.48,50.4,2.7
3.0646,-12.449,-1.185,-1.3616,-1.1866,-1.5333,8.88,50.22,3.24
2.3836,-11.346,-1.0896,-1.4419,-1.2529,-1.7397,7.74,49.8,4.98
2.0158,-10.447,-0.98067,-1.4652,-1.0482,-1.9053,7.14,49.5,5.7
1.7298,-9.8203,-0.83084,-1.482,-0.72296,-2.0736,6.18,49.14,6.78
1.7706,-9.1256,-0.47671,-1.5055,-0.43982,-2.2132,4.26,48.36,8.76
1.9068,-9.112,-0.53119,-1.5351,-0.23854,-2.292,3.06,47.82,9.84
2.0975,-9.1665,-0.49033,-1.5571,-0.13714,-2.3109,0.54,46.74,11.94
2.2746,-9.221,-0.21793,-1.5592,-0.18418,-2.2434,-0.84,46.26,12.9
2.2065,-9.0848,-0.21793,-1.5287,-0.23274,-2.1173,-2.28,45.84,13.8
2.1656,-9.0167,-0.16344,-1.4621,-0.24862,-1.9346,-3.42,45.18,14.58
1.9341,-8.6762,-0.095342,-1.3558,-0.20983,-1.722,-6.06,43.8,15.84
1.8524,-8.2403,-0.01362,-1.2419,-0.10965,-1.4951,-7.32,43.14,16.32
1.7434,-7.6683,0.01362,-1.0944,0.037263,-1.2617,-8.34,42.42,16.86
1.8251,-7.8453,0.054481,-0.9331,0.18295,-1.0314,-10.44,40.74,17.22
2.1793,-8.6898,-0.095342,-0.66981,0.30971,-0.60598,-11.34,39.84,17.52
2.3427,-9.3163,-0.23155,-0.58551,0.2865,-0.44043,-12.06,39.12,17.7
2.6832,-10.46,-0.34051,-0.3091,0.059559,0.021075,-12.84,38.28,17.64
2.4517,-10.474,-0.32689,-0.12401,-0.15088,0.27672,-13.74,36.9,17.76
2.0839,-10.896,-0.28603,0.072693,-0.25168,0.53878,-14.04,36.3,17.82
1.8796,-12.0,-0.16344,0.26603,-0.22663,0.84666,-14.16,35.7,17.94
1.866,-12.599,-0.24517,0.59926,-0.045815,1.3213,-14.04,34.8,17.94
2.1112,-11.577,-0.47671,0.87232,0.021075,1.5098,-13.98,34.5,17.94
2.2746,-10.515,-0.78998,1.0452,-0.022602,1.5153,-13.8,34.14,17.82
2.3427,-8.8532,-1.2939,1.5498,-0.40012,1.2929,-13.62,33.9,17.82
2.1656,-9.398,-1.6889,1.8063,-0.67928,1.0519,-13.5,33.84,17.58
1.8932,-10.529,-1.6208,1.8039,-0.87568,0.7871,-13.5,34.02,17.46
1.3484,-10.597,-1.7162,1.5644,-0.92241,0.77061,-13.44,35.04,17.52
1.0624,-10.12,-1.9205,1.1206,-0.6466,0.89339,-13.38,35.52,17.64
0.84446,-9.2618,-2.1384,0.99296,-0.47464,0.97983,-13.02,36.0,17.82
0.54481,-7.5729,-2.5742,0.83139,0.1518,1.2104,-11.94,36.9,18.0
0.50395,-6.8783,-2.7377,0.86987,0.70677,1.3014,-11.16,37.26,17.94
0.69464,-6.5105,-2.6968,0.91691,1.2639,1.3671,-10.26,37.74,18.0
1.4438,-6.7693,-2.5879,0.93096,1.7287,1.47,-8.34,38.52,17.76
2.1248,-7.0962,-2.5606,0.86224,1.722,1.5598,-7.32,38.76,17.64
2.5334,-7.4776,-2.656,0.79382,1.3983,1.6839,-6.3,39.24,17.52
3.0237,-8.2131,-2.7786,0.72846,0.9053,1.77,-5.4,39.66,17.46
2.9284,-8.8941,-2.9148,0.68203,0.46456,1.8265,-3.18,40.32,17.16
2.6151,-9.2755,-3.1054,0.68783,0.18876,1.8234,-1.8,40.68,16.92
2.3563,-10.202,-3.1735,0.68783,0.14203,1.708,0.6,40.98,16.26
2.1248,-10.038,-3.0918,0.66737,0.22663,1.6277,1.92,41.16,15.78
2.0294,-9.6977,-2.9011,0.59773,0.48839,1.4215,3.06,41.46,15.18
2.1929,-10.065,-2.8058,0.55589,0.91538,1.0708,5.04,41.94,13.98
2.7649,-11.155,-3.1191,0.56139,0.96333,0.86957,5.76,42.3,13.38
3.6775,-12.79,-3.4732,0.53176,0.80237,0.73548,6.18,42.48,12.6
4.0997,-14.056,-3.3234,0.39126,0.24557,0.55375,7.32,43.02,11.64
4.0316,-14.41,-3.0646,0.32559,0.063225,0.46059,7.92,43.38,11.34
3.732,-14.833,-2.9284,0.15058,-0.2361,0.21441,8.52,43.5,10.98
2.7922,-14.383,-3.2144,-0.16005,-0.31307,-0.28772,9.6,43.8,10.32
2.3155,-12.612,-3.1872,-0.4444,-0.10996,-0.66737,10.08,43.92,10.26
2.0703,-10.801,-2.6696,-0.68875,0.18387,-1.0421,10.44,43.98,10.08
2.5198,-10.61,-1.8932,-0.94867,0.36927,-1.4804,10.98,44.16,9.96
2.8058,-11.387,-1.8115,-1.1261,0.23274,-1.7449,11.1,44.16,10.02
3.051,-12.027,-1.7298,-1.3066,-0.040317,-1.9264,10.98,43.98,10.08
2.8875,-12.054,-1.4438,-1.4303,-0.29169,-2.0504,10.68,43.86,10.38
2.6423,-11.509,-1.3893,-1.4661,-0.48839,-2.0953,10.32,43.68,10.74
2.2882,-10.283,-1.1441,-1.4536,-0.55344,-2.1325,10.14,43.5,10.98
1.8387,-8.9894,-0.8036,-1.3546,-0.41264,-2.1964,9.18,42.84,12.0
1.7025,-8.7306,-0.7355,-1.3066,-0.2645,-2.2199,8.4,42.42,12.66
1.7298,-8.5944,-0.6674,-1.299,-0.1347,-2.219,7.5,42.12,13.26
1.9068,-8.3765,-0.57205,-1.3045,-0.1011,-2.1673,5.28,41.34,14.52
1.9886,-8.1858,-0.47671,-1.3341,-0.13256,-2.0882,4.08,40.98,15.0
1.9886,-8.0496,-0.35413,-1.3433,-0.15944,-2.0348,2.82,40.56,15.54
1.9068,-8.0088,-0.28603,-1.3134,-0.23763,-1.784,1.56,40.14,15.9
1.7025,-8.3901,-0.24517,-1.1976,-0.22205,-1.4661,-0.96,39.3,16.32
1.6753,-8.54,-0.21793,-1.0815,-0.14416,-1.2495,-1.92,38.88,16.68
1.6481,-8.3357,-0.19068,-1.0296,-0.076053,-1.1307,-3.0,38.4,16.8
1.5391,-7.9679,-0.027241,-0.82222,0.13073,-0.80176,-4.08,37.8,17.04
1.7434,-8.2267,-0.068102,-0.65088,0.22571,-0.57757,-5.76,36.84,17.46
2.2065,-9.7658,-0.19068,-0.48289,0.23091,-0.31001,-6.54,36.48,17.34
2.547,-11.032,-0.19068,-0.3262,0.14172,-0.015882,-7.62,35.7,17.4
2.547,-10.719,-0.040861,-0.094379,-0.067806,0.34178,-7.92,35.34,17.46
2.3972,-10.447,-0.19068,0.015272,-0.13958,0.43768,-8.1,34.98,17.34
2.261,-11.319,-0.38137,0.38973,-0.24587,0.78313,-8.28,34.32,17.28
2.2882,-11.891,-0.43585,0.63163,-0.22877,1.1106,-8.28,34.08,17.22
2.1656,-11.7,-0.54481,0.8436,-0.24038,1.4578,-8.1,33.84,17.34
1.9613,-10.283,-0.64016,1.0318,-0.23488,1.6982,-7.86,33.6,17.58
2.0431,-9.1937,-1.3484,1.3711,-0.36682,1.7342,-7.86,33.6,17.52
1.975,-9.0984,-1.6889,1.4978,-0.43433,1.6799,-7.68,33.84,17.64
1.7025,-10.256,-2.1248,1.7022,-0.56383,1.4887,-7.26,34.08,17.7
1.58,-10.896,-2.152,1.6038,-0.54245,1.4267,-7.02,34.56,17.76
1.5936,-11.06,-2.2746,1.3781,-0.48197,1.4465,-6.6,34.86,17.88
1.4438,-10.052,-2.7104,1.1365,-0.36835,1.5351,-5.58,35.7,18.06
1.4029,-9.0712,-3.0237,0.96181,-0.18784,1.6414,-4.74,36.18,18.06
1.3484,-8.0905,-3.1463,0.9053,0.075136,1.6787,-3.84,36.48,18.06
1.1986,-7.3414,-3.3506,0.95875,0.60262,1.631,-2.76,36.9,17.94
1.6208,-6.7966,-3.228,0.99418,0.87995,1.5773,-0.48,37.8,17.64
2.0022,-7.0417,-3.0646,0.97402,0.96517,1.5605,0.6,38.28,17.28
2.7104,-7.6546,-3.3097,0.91996,0.83383,1.551,3.12,39.0,16.92
3.1327,-8.322,-3.514,0.79871,0.24832,1.609,4.38,39.42,16.62
3.0918,-8.6353,-3.5549,0.75564,0.03543,1.6163,5.7,39.66,16.32
2.8603,-9.0439,-3.6094,0.62156,-0.34422,1.5446,7.02,40.02,15.78
2.438,-9.5342,-3.3915,0.51435,-0.33445,1.3983,9.66,40.44,14.94
2.1793,-9.616,-3.3778,0.43616,-0.13806,1.1897,10.92,40.74,14.46
1.9613,-9.2482,-3.3234,0.34758,0.17929,0.75686,13.02,41.04,13.2
2.1656,-9.1256,-3.1054,0.26145,0.66035,0.44685,13.86,41.22,12.6
2.5334,-9.7522,-3.1327,0.25107,0.73182,0.31398,14.52,41.52,12.24
3.3097,-11.468,-3.2144,0.15974,0.66981,-0.014661,15.78,41.7,11.58
3.5277,-12.0,-3.2144,0.030849,0.43738,-0.18479,16.08,41.82,11.22
3.1463,-11.387,-2.5742,-0.14264,0.23305,-0.42089,16.5,42.0,10.92
2.7649,-12.898,-2.3018,-0.20036,0.1631,-0.76236,17.22,42.24,10.62
2.942,-14.22,-2.833,-0.34758,0.17318,-0.96914,17.46,42.36,10.5
2.942,-14.22,-2.833,-0.41844,0.17471,-1.1255,17.46,42.36,10.5
2.942,-14.22,-2.833,-0.54214,0.11912,-1.2398,17.46,42.36,10.5
2.9829,-12.544,-2.0022,-0.71685,-0.032987,-1.3738,17.52,42.54,10.56
2.9965,-12.871,-1.3893,-0.94165,-0.27367,-1.5644,17.04,42.6,10.92
2.9556,-13.171,-1.3212,-1.146,-0.48167,-1.7874,16.74,42.54,11.04
2.833,-13.321,-1.2531,-1.2819,-0.61636,-1.9627,16.26,42.54,11.34
2.3836,-12.585,-1.1713,-1.368,-0.67256,-2.1698,15.36,42.42,11.88
2.1248,-11.087,-1.1032,-1.3192,-0.60873,-2.2822,14.28,42.18,12.66
1.8115,-9.8066,-0.89894,-1.2254,-0.47312,-2.3781,13.08,41.94,13.56
1.7025,-8.8668,-0.8036,-1.1478,-0.31429,-2.4694,11.22,41.58,14.76
1.7298,-8.2812,-0.72188,-1.1112,-0.18906,-2.5293,8.94,41.4,15.78
1.8251,-7.8181,-0.65378,-1.0916,-0.13256,-2.5326,6.48,40.92,16.5
1.9205,-7.7364,-0.57205,-1.0782,-0.23732,-2.3686,5.16,40.74,16.74
2.0022,-7.7091,-0.69464,-1.0559,-0.3989,-2.1762,2.4,40.62,17.1
2.0158,-7.8726,-0.64016,-1.0119,-0.58124,-1.9196,-0.3,40.32,17.16
1.7706,-7.8998,-0.51757,-0.97464,-0.67989,-1.6533,-2.64,40.2,16.98
1.3484,-7.8998,-0.34051,-0.93218,-0.63499,-1.3635,-4.8,40.08,16.62
1.1577,-7.8998,-0.40861,-0.87232,-0.45601,-1.0806,-6.72,39.84,16.2
1.1169,-7.8998,-0.28603,-0.75106,-0.069639,-0.70677,-7.38,39.6,16.14
1.4301,-8.1722,-0.24517,-0.63561,0.15699,-0.45051,-8.28,39.0,15.66
1.5255,-8.6081,-0.28603,-0.51404,0.28344,-0.14447,-8.58,38.76,15.54
2.1248,-10.093,-0.32689,-0.36469,0.26542,0.20342,-8.7,38.46,15.42
2.438,-10.801,-0.29965,-0.21258,0.14203,0.55436,-8.64,37.92,15.54
2.152,-10.256,-0.28603,0.092241,-0.069028,0.92454,-8.34,37.62,15.96
2.0294,-10.474,-0.23155,0.21319,-0.081551,1.0281,-8.28,37.44,16.2
1.9886,-11.332,-0.44947,0.55864,-0.036957,1.3974,-8.16,37.02,16.32
2.152,-11.509,-0.5993,0.78924,0.048564,1.6878,-8.1,37.02,16.5
2.4517,-11.332,-0.95342,1.0229,-0.009163,1.9276,-7.98,37.14,16.44
2.6015,-10.42,-1.4438,1.2666,-0.21258,2.0226,-7.98,37.56,16.5
2.8194,-9.8884,-2.0294,1.4988,-0.50885,2.0012,-7.8,37.92,16.26
2.4244,-10.324,-2.1929,1.6918,-0.80451,1.894,-7.68,38.4,16.32
2.1248,-10.706,-2.3018,1.7254,-0.98044,1.7278,-7.38,38.76,16.2
1.6344,-10.828,-2.4244,1.5446,-0.90255,1.6435,-6.66,39.48,16.26
1.3484,-10.706,-2.5742,1.3625,-0.68753,1.6338,-5.46,40.2,16.32
1.1577,-9.616,-2.9011,1.1771,-0.34728,1.653,-3.72,40.92,16.56
1.1169,-9.0439,-3.0237,1.0449,0.08094,1.6512,-2.76,41.22,16.5
0.89894,-7.641,-3.2689,0.96517,0.56505,1.6029,-0.54,41.82,16.5
1.2803,-7.2052,-3.1599,0.87201,1.2486,1.482,2.04,42.0,16.14
1.5119,-7.1098,-3.0782,0.81703,1.4945,1.3937,3.48,42.18,16.08
2.2882,-7.5321,-3.051,0.77397,1.4969,1.3311,5.88,42.78,15.54
3.1191,-8.1722,-3.3097,0.69914,1.2346,1.3066,8.22,43.02,15.06
3.337,-8.7579,-3.4187,0.62492,0.79229,1.3234,10.08,43.44,14.28
3.1191,-9.2346,-3.4732,0.54795,0.32467,1.3442,11.7,43.8,13.14
2.833,-9.4117,-3.4459,0.42913,-0.028405,1.2785,12.36,43.86,12.66
2.438,-9.3708,-3.2825,0.33995,0.019853,1.1414,13.44,44.04,11.64
2.2474,-9.2891,-3.3097,0.24801,0.27825,0.92607,13.92,44.04,11.28
1.9341,-8.9622,-2.9965,0.16677,0.65882,0.66248,14.64,44.28,10.56
2.2201,-9.7658,-3.0237,0.13195,1.0098,0.38515,15.24,44.52,10.14
2.7513,-11.032,-2.9965,0.10782,1.1726,0.18357,15.54,44.64,10.08
3.732,-12.749,-3.2008,0.063225,1.109,0.03879,15.96,44.76,9.72
3.8001,-12.217,-2.8875,-0.13134,0.69333,-0.17287,16.8,44.88,9.6
3.4732,-11.4,-2.4789,-0.23366,0.46334,-0.416,16.92,44.88,9.54
2.9556,-11.482,-1.866,-0.21686,0.37813,-0.71257,16.92,44.82,9.72
2.942,-12.572,-2.261,-0.21441,0.29932,-0.98991,16.86,45.0,9.96
3.1327,-12.681,-2.7786,-0.19639,0.20739,-1.1976,16.5,45.36,10.32
3.3234,-12.204,-2.7649,-0.21625,-0.09163,-1.2963,15.78,45.66,10.62
3.4187,-12.149,-2.2337,-0.31521,-0.42974,-1.3018,15.42,45.84,10.8
3.514,-12.708,-1.7025,-0.4893,-0.8601,-1.3241,14.76,46.02,10.98
3.0237,-13.035,-1.4438,-0.72754,-1.2333,-1.3796,13.86,46.08,11.46
2.3836,-12.354,-1.2803,-0.905,-1.3806,-1.4847,12.78,46.02,12.0
2.1384,-11.877,-1.1986,-1.0012,-1.3372,-1.5828,12.48,45.84,12.3
1.8387,-10.583,-1.0896,-1.0217,-1.1637,-1.7083,11.52,45.78,12.9
1.7298,-9.4389,-1.1577,-0.967,-0.82681,-1.9056,10.38,45.48,13.56
1.6617,-8.717,-0.9398,-0.93859,-0.63041,-2.0363,9.0,45.12,14.4
1.7025,-8.3629,-0.95342,-0.9447,-0.47709,-2.127,8.4,44.88,14.82
1.7025,-8.036,-0.83084,-0.95936,-0.41081,-2.1527,6.78,44.64,15.84
1.7979,-7.9543,-0.7355,-0.98471,-0.44135,-2.1011,5.1,44.4,16.68
1.8524,-8.0905,-0.65378,-1.0253,-0.5681,-1.8882,3.12,44.28,17.1
1.757,-8.0632,-0.64016,-1.0412,-0.64568,-1.6484,2.04,44.1,17.22
1.5936,-7.9134,-0.47671,-1.0015,-0.66432,-1.387,1.08,44.1,17.4
1.4438,-7.6955,-0.36775,-0.9612,-0.60445,-1.1188,-1.74,43.74,17.7
1.362,-7.6683,-0.24517,-0.88575,-0.45754,-0.8378,-2.52,43.68,17.82
1.4165,-7.5729,-0.20431,-0.79351,-0.26878,-0.59132,-3.78,43.38,18.0
1.5119,-7.9407,-0.14982,-0.70616,-0.073304,-0.35277,-4.98,42.96,18.0
1.7706,-8.7306,-0.19068,-0.52137,0.063835,0.043371,-5.46,42.6,18.0
2.0975,-10.038,-0.31327,-0.37996,0.016799,0.36377,-6.12,42.12,18.0
2.4653,-11.754,-0.28603,-0.27489,-0.10629,0.67348,-6.24,41.76,17.88
2.0839,-11.223,-0.1362,-0.16493,-0.20586,0.87568,-6.06,41.28,18.3
1.6344,-11.836,0.10896,-0.03879,-0.22938,1.0177,-5.88,40.86,18.48
1.5119,-12.299,0.12258,0.13225,-0.082772,1.1353,-5.64,40.5,18.78
1.7979,-13.212,-0.027241,0.30818,0.3146,1.3845,-5.34,40.32,18.96
2.2882,-12.0,-0.57205,0.66248,0.44471,1.496,-4.92,40.14,19.02
2.4789,-10.951,-0.89894,0.98655,0.29444,1.4658,-4.68,40.32,19.02
2.9284,-9.3708,-1.58,1.296,-0.052229,1.3167,-4.38,40.5,18.96
2.833,-9.8884,-1.866,1.5256,-0.51282,1.077,-3.84,40.8,19.14
2.6015,-10.283,-1.975,1.5754,-0.93004,0.80451,-3.54,40.92,19.08
1.8387,-10.283,-2.0294,1.4239,-1.1212,0.51588,-2.88,41.28,19.26
1.1713,-9.6432,-2.2201,1.0489,-0.93829,0.48075,-1.98,41.58,19.14
0.81722,-8.8668,-2.438,0.80726,-0.52351,0.53787,-1.44,41.76,19.26
0.35413,-7.3822,-2.9556,0.66218,0.04215,0.60659,-0.36,42.36,19.02
0.28603,-6.4424,-2.9692,0.62217,0.69272,0.66706,0.78,42.72,19.02
0.50395,-6.2245,-2.8739,0.62889,1.3186,0.73793,1.62,42.78,18.84
1.3212,-6.2381,-2.6968,0.62889,1.8977,0.88789,3.12,43.14,18.66
2.1929,-6.6331,-2.6423,0.60751,1.938,1.0406,4.68,43.5,18.18
2.4789,-6.8919,-2.6287,0.62247,1.6402,1.2208,5.28,43.56,17.52
3.2961,-7.9543,-3.1599,0.64752,1.1188,1.4334,6.42,43.8,17.1
3.4459,-8.7306,-3.4051,0.68173,0.50457,1.6191,7.56,43.86,16.44
3.0918,-9.3299,-3.623,0.73579,-0.0018326,1.7434,8.46,44.28,15.72
2.6696,-9.6704,-3.6094,0.75686,-0.33384,1.7498,9.36,44.4,15.0
2.3427,-9.616,-3.6366,0.7251,-0.39676,1.5348,9.72,44.58,14.58
2.0158,-9.5479,-3.8001,0.65699,-0.18876,1.2895,10.68,45.0,13.8
1.8932,-9.8066,-3.7865,0.60751,0.087048,1.011,11.22,45.24,13.68
2.1112,-10.91,-3.909,0.53267,0.30329,0.73793,12.0,45.36,12.72
2.7377,-12.64,-4.0316,0.36224,0.43616,0.51313,13.14,45.84,12.0
2.7649,-12.231,-3.6775,-0.064752,0.50121,0.19914,14.1,46.26,11.4
2.6423,-11.741,-3.2553,-0.27275,0.57452,-0.050396,14.64,46.5,11.28
2.5061,-12.449,-2.5198,-0.3769,0.69761,-0.30604,15.36,46.56,10.74
2.7377,-12.953,-2.7104,-0.48533,0.75136,-0.52809,15.78,46.68,10.74
3.051,-13.307,-3.1599,-0.50671,0.72632,-0.68111,15.84,46.92,10.62
3.5549,-12.599,-2.8058,-0.53206,0.55008,-0.7758,15.78,46.98,10.68
3.8682,-12.122,-1.7843,-0.61423,0.22205,-0.87018,15.12,46.8,10.74
3.9635,-12.381,-1.4982,-0.72662,-0.27336,-1.0012,14.94,46.8,11.04
3.8001,-12.463,-1.5119,-0.88942,-1.0785,-1.3008,14.58,46.68,11.4
2.8467,-12.286,-1.5936,-0.98563,-1.3457,-1.4981,13.38,46.38,12.12
2.5061,-11.673,-1.5391,-1.0366,-1.3943,-1.6478,12.78,46.14,12.6
2.1656,-10.774,-1.5119,-1.0849,-1.2953,-1.7657,12.24,45.9,13.14
1.7025,-8.9894,-1.2667,-1.1124,-1.1035,-1.8842,10.92,45.48,13.8
1.6072,-8.2539,-1.1577,-1.1399,-0.87598,-1.9902,10.14,45.18,14.46
1.4438,-7.8998,-1.1713,-1.1997,-0.52321,-2.105,9.3,44.82,15.06
1.4846,-7.5457,-1.0079,-1.2434,-0.33323,-2.1319,7.08,44.16,15.9
1.6072,-7.4776,-0.89894,-1.2752,-0.21441,-2.1072,5.82,43.92,16.32
1.7298,-7.8045,-0.83084,-1.2724,-0.17013,-2.0275,3.54,43.02,17.16
1.8387,-8.2267,-0.7355,-1.2465,-0.19426,-1.7849,2.28,42.72,17.52
1.7979,-8.4991,-0.65378,-1.2019,-0.22388,-1.5601,1.08,42.3,17.82
1.7434,-9.0303,-0.58567,-1.1387,-0.21777,-1.3182,-1.14,41.34,18.3
1.6344,-8.7443,-0.54481,-1.0638,-0.14539,-1.0681,-2.34,40.86,18.54
1.4438,-8.3901,-0.53119,-0.95936,-0.017104,-0.84086,-3.42,40.5,18.9
1.5255,-9.1529,-0.47671,-0.83383,0.13011,-0.61667,-5.76,39.42,19.38
1.8115,-10.637,-0.35413,-0.6692,0.30513,-0.22327,-6.78,38.94,19.74
1.9477,-11.264,-0.19068,-0.58857,0.36713,0.062003,-7.68,38.46,19.74
2.0567,-11.101,-0.081722,-0.54,0.39401,0.19181,-8.4,37.98,19.92
1.9477,-11.387,0.10896,-0.23427,0.45448,0.55894,-9.54,36.84,20.4
2.0567,-11.673,0.14982,0.03879,0.49969,0.86896,-9.84,36.24,20.58
2.1929,-11.7,0.095342,0.37782,0.50702,1.1854,-10.26,35.64,20.82
2.4925,-10.297,-0.39499,0.96211,0.27672,1.4807,-10.98,34.98,21.06
2.7649,-8.8668,-1.0624,1.3891,-0.14875,1.4899,-11.28,34.74,21.3
2.8058,-8.7306,-1.5391,1.7938,-0.71166,1.3763,-11.58,34.68,21.48
2.5061,-10.106,-2.1384,2.04,-1.2285,1.2312,-11.88,34.62,21.66
2.0975,-10.801,-2.0839,2.0201,-1.5715,1.102,-11.94,34.68,21.66
1.6344,-11.182,-2.1929,1.7672,-1.6603,1.0345,-11.94,34.92,21.66
0.69464,-10.215,-2.4653,1.2755,-1.2984,1.0629,-11.52,35.82,21.84
0.31327,-9.2755,-2.8603,1.0287,-0.79687,1.088,-11.1,36.12,22.08
0.10896,-8.3901,-3.3506,0.94898,-0.47159,1.0767,-10.26,36.54,22.08
0.10896,-7.2869,-3.5958,0.86132,0.67012,0.97738,-8.46,37.74,22.14
0.38137,-6.8783,-3.4187,0.81581,1.3806,0.91141,-7.56,38.4,22.08
0.96704,-6.7421,-3.1463,0.76389,1.8289,0.86682,-6.6,39.06,22.08
2.152,-7.1234,-2.8739,0.64966,1.905,0.8714,-4.62,40.14,21.78
2.8058,-7.5729,-3.1054,0.59987,1.7584,0.91966,-3.72,40.74,21.54
2.9965,-7.9815,-3.2144,0.54764,1.2636,1.0501,-2.7,41.34,21.12
3.2553,-8.5672,-3.4187,0.53603,0.3989,1.3103,-1.74,41.82,20.88
2.7786,-9.398,-3.5413,0.55008,-0.0033598,1.4459,0.06,42.84,20.46
2.6287,-9.5479,-3.6911,0.57971,-0.22846,1.5342,1.02,43.2,19.98
2.261,-9.4798,-3.6639,0.59682,-0.21472,1.5033,2.88,43.74,18.96
1.8387,-9.2482,-3.6094,0.52137,0.10293,1.2895,3.78,44.22,18.3
1.6753,-9.0031,-3.4187,0.47525,0.27153,1.1826,4.2,44.58,17.82
1.8387,-9.3163,-3.3506,0.43158,0.70341,0.85765,4.68,44.82,17.16
2.942,-12.0,-3.8001,0.37874,0.72113,0.71624,5.22,45.48,15.84
3.4459,-13.048,-4.0452,0.27092,0.54764,0.63102,5.64,45.72,15.36
3.1872,-12.558,-3.1599,-0.043982,0.26084,0.42822,6.48,46.02,14.7
3.0646,-13.171,-2.7377,-0.1573,0.21594,0.23243,6.96,46.08,14.4
2.942,-13.375,-2.9556,-0.28375,0.22633,-0.033598,7.32,45.96,14.4
2.833,-13.225,-3.3097,-0.3824,0.29902,-0.28924,7.74,45.96,14.28
2.9011,-12.0,-3.1872,-0.48411,0.33414,-0.56047,8.16,45.96,13.98
3.0373,-11.509,-2.4244,-0.64171,0.29016,-0.78679,8.1,45.9,13.98
3.5413,-12.122,-1.6481,-0.832,0.10843,-1.1435,8.04,45.6,14.1
3.5685,-12.435,-1.5527,-1.113,-0.40439,-1.3567,7.86,45.42,14.22
3.5685,-12.503,-1.3484,-1.1869,-0.58215,-1.4435,7.74,45.24,14.46
3.1599,-12.34,-1.2667,-1.2892,-0.93798,-1.6719,7.26,45.0,14.82
2.4789,-11.087,-1.0896,-1.2724,-0.95356,-1.8207,6.66,44.28,15.66
2.0431,-9.4934,-1.1441,-1.2226,-0.80207,-1.9603,6.18,43.92,16.2
1.7162,-8.3629,-0.95342,-1.1515,-0.54275,-2.1197,4.98,43.14,17.4
1.6753,-8.1041,-0.76274,-1.1179,-0.2587,-2.2651,4.26,42.72,17.88
1.6889,-7.8317,-0.68102,-1.1093,-0.028405,-2.3662,3.54,42.36,18.36
1.9886,-8.2267,-0.43585,-1.1167,0.03879,-2.3662,1.68,41.34,19.32
2.1793,-8.3765,-0.40861,-1.1228,-0.059254,-2.2767,0.72,40.8,19.74
2.1929,-8.4719,-0.38137,-1.1008,-0.2135,-2.1096,-1.38,40.02,20.46
2.1384,-8.4582,-0.42223,-1.0318,-0.37293,-1.8851,-2.46,39.48,20.7
2.1248,-8.5263,-0.47671,-0.94043,-0.47647,-1.6423,-3.72,39.12,20.76
1.5936,-8.1995,-0.29965,-0.84574,-0.46823,-1.4218,-5.52,38.04,21.06
1.4165,-7.9951,-0.35413,-0.74373,-0.34239,-1.2226,-6.42,37.62,21.06
1.3757,-7.9679,-0.29965,-0.59651,-0.058338,-0.9444,-7.2,37.08,21.12
1.7162,-9.0439,-0.44947,-0.49694,0.081856,-0.70921,-8.64,36.24,20.88
1.9341,-9.9565,-0.44947,-0.37049,0.093157,-0.42577,-9.42,35.64,20.7
1.8796,-10.42,-0.38137,-0.2587,0.053756,-0.11973,-10.5,35.1,20.22
1.6889,-9.9565,-0.38137,-0.10721,0.0058032,0.16127,-10.68,34.74,20.1
1.4846,-9.9837,-0.40861,0.24954,-0.0088575,0.65088,-10.68,34.44,20.04
1.6072,-11.182,-0.50395,0.52657,0.019853,1.036,-10.98,34.14,19.68
1.9341,-12.149,-0.61292,0.78832,-0.0051924,1.4258,-10.92,34.02,19.56
2.2474,-12.054,-1.3212,1.0455,-0.11026,1.73,-10.86,34.02,19.44
2.6423,-10.624,-1.866,1.4792,-0.54642,1.8005,-10.62,34.08,19.44
2.6423,-10.243,-2.1656,1.7257,-0.98441,1.6063,-10.74,34.26,19.08
2.4653,-10.501,-2.0567,1.7972,-1.171,1.4771,-10.74,34.5,19.08
1.8524,-11.114,-1.9341,1.6634,-1.3799,1.0672,-10.68,34.8,18.96
0.91256,-10.951,-1.9341,1.3613,-1.215,0.8262,-10.14,35.7,18.9
0.47671,-9.6841,-2.0975,1.0308,-0.80634,0.72235,-9.78,36.54,18.84
0.39499,-8.6353,-2.4108,0.69516,0.063225,0.70769,-9.0,37.02,18.96
0.38137,-7.9407,-2.6968,0.65668,0.36011,0.71257,-8.34,37.38,19.14
0.76274,-6.3879,-2.8058,0.70769,1.1558,0.78252,-6.84,38.34,19.08
1.1986,-6.1155,-2.5061,0.75564,1.5482,0.86254,-4.8,38.94,19.02
1.5527,-6.1836,-2.2882,0.75717,1.7245,0.96547,-3.84,39.42,18.96
2.3155,-6.7148,-2.3155,0.74342,1.638,1.12,-1.92,40.26,18.6
3.0237,-7.6955,-2.5742,0.72204,1.306,1.3103,0.06,40.92,18.42
3.2689,-8.6217,-2.7513,0.69486,0.51832,1.6041,2.04,41.4,17.76
3.1191,-9.3844,-2.8875,0.69303,0.051313,1.7568,3.78,41.88,16.92
2.8194,-9.8611,-2.9556,0.71166,-0.23213,1.7874,5.16,42.0,16.2
2.4789,-10.079,-2.9556,0.72815,-0.28497,1.7071,6.3,42.72,15.0
2.0703,-9.9701,-3.0918,0.70433,-0.13347,1.5033,7.14,43.2,13.92
1.866,-9.6977,-3.2008,0.6408,0.16554,1.2217,7.98,43.74,13.14
1.9477,-10.038,-3.1327,0.58246,0.52198,0.89125,8.52,43.92,12.9
2.4789,-11.373,-3.2008,0.46304,0.85216,0.46884,9.42,44.4,12.18
3.0237,-12.612,-3.4051,0.29383,0.83475,0.25045,10.26,44.82,11.58
3.3097,-12.476,-3.2961,0.081856,0.70891,0.095295,11.16,45.3,11.28
3.0782,-12.531,-2.6015,-0.087354,0.56505,-0.084605,11.58,45.72,10.68
3.1463,-13.607,-2.7241,-0.17135,0.44685,-0.25595,11.76,45.84,10.38
3.1872,-13.866,-2.8603,-0.31643,0.32132,-0.49724,11.76,45.9,10.32
3.0373,-12.967,-3.2553,-0.38668,0.24923,-0.61911,11.7,46.02,10.32
3.0101,-11.659,-2.6015,-0.50885,0.14997,-0.74464,11.4,46.26,10.2
3.1872,-11.414,-1.8251,-0.67134,-0.042455,-0.89003,11.16,46.32,10.26
3.3642,-12.04,-1.4301,-0.84269,-0.32742,-1.0736,10.44,46.26,10.56
3.3097,-12.177,-1.3757,-1.018,-0.67012,-1.2431,9.66,45.9,10.98
3.0237,-11.754,-1.2531,-1.1475,-1.1359,-1.397,9.0,45.54,11.52
2.833,-11.414,-1.2803,-1.1649,-1.2346,-1.4352,8.58,45.36,11.88
2.0839,-10.338,-1.185,-1.1738,-1.2303,-1.5611,7.56,45.24,12.66
1.7979,-9.4798,-1.0896,-1.1579,-1.0098,-1.6765,7.14,45.12,13.14
1.4982,-8.4038,-0.83084,-1.1646,-0.67928,-1.8231,6.0,44.64,14.22
1.4982,-7.8317,-0.72188,-1.2049,-0.38179,-1.9545,4.38,44.04,15.3
1.6617,-7.8726,-0.61292,-1.2709,-0.14355,-2.0259,3.3,43.86,15.96
1.8932,-7.9407,-0.61292,-1.277,-0.03879,-2.0308,1.2,43.44,16.98
1.975,-8.2403,-0.50395,-1.2526,-0.099571,-1.897,-1.02,43.14,17.88
2.0158,-8.3901,-0.42223,-1.2034,-0.15944,-1.7462,-2.22,42.96,18.3
2.0022,-8.5127,-0.43585,-1.1286,-0.20953,-1.5397,-4.74,42.48,18.48
1.7979,-8.5127,-0.32689,-1.022,-0.20678,-1.3097,-6.96,41.88,18.72
1.6889,-8.3084,-0.38137,-0.89706,-0.13867,-1.0959,-8.94,41.1,18.78
1.5936,-8.1586,-0.38137,-0.79046,-0.022602,-0.90194,-9.78,40.92,18.78
1.7162,-8.6081,-0.44947,-0.62247,0.1124,-0.60048,-11.46,40.32,18.6
1.975,-10.188,-0.47671,-0.5174,0.11668,-0.35125,-12.18,39.48,18.3
2.1112,-10.801,-0.47671,-0.40684,0.068417,-0.099266,-12.42,39.12,18.3
1.9068,-10.896,-0.44947,-0.31093,0.057421,0.11851,-12.78,38.1,18.18
1.757,-10.392,-0.49033,-0.14386,0.073915,0.31521,-12.78,37.38,18.24
1.8251,-10.828,-0.54481,0.094073,0.099876,0.54642,-12.72,37.02,18.24
2.152,-11.727,-0.77636,0.45296,0.072693,1.0229,-12.54,36.24,18.72
2.2882,-11.673,-1.0215,0.67256,-0.033292,1.3207,-12.66,35.94,18.72
2.2882,-9.8748,-1.6072,0.87812,-0.19212,1.4688,-12.54,35.52,18.6
2.3427,-9.3844,-1.7979,1.0776,-0.38943,1.4426,-12.3,35.52,18.6
2.1793,-9.507,-1.9613,1.2462,-0.5849,1.3103,-12.3,35.7,18.48
1.6753,-10.488,-1.9341,1.2755,-0.67989,1.1408,-12.54,36.0,18.36
1.2667,-10.692,-1.9613,1.051,-0.49694,0.92821,-12.42,36.66,18.48
1.0896,-10.351,-2.1248,0.82803,-0.19639,0.88209,-12.06,36.96,18.54
0.96704,-9.4525,-2.2474,0.63561,0.197,0.9163,-11.52,37.5,18.96
1.076,-8.0905,-2.438,0.54153,0.60934,0.97464,-10.56,38.04,19.5
1.1713,-7.0553,-2.4789,0.55864,0.9725,1.0388,-9.18,38.46,19.98
1.3757,-6.7557,-2.4108,0.61789,1.2694,1.0941,-8.58,38.82,20.22
1.6889,-6.4424,-2.4108,0.67684,1.5363,1.1729,-7.02,39.12,20.46
1.9613,-6.4152,-2.3427,0.6915,1.5046,1.2614,-6.12,39.24,20.64
2.6832,-7.0281,-2.5742,0.70311,1.2565,1.3864,-4.26,39.6,20.58
2.942,-7.5457,-2.833,0.69975,0.83261,1.5186,-2.64,40.02,20.34
2.9692,-8.3765,-3.051,0.72174,0.35369,1.6573,-1.14,40.02,19.68
2.833,-9.1937,-3.1327,0.74617,-0.1631,1.7962,0.36,40.26,19.2
2.6287,-9.7658,-3.0918,0.70952,-0.29047,1.7886,0.96,40.44,18.66
2.3699,-9.8611,-3.0918,0.65301,-0.18998,1.646,1.98,41.1,17.46
1.9613,-9.7794,-3.0782,0.59407,0.08827,1.4251,2.88,41.46,16.56
1.8387,-9.6977,-2.9148,0.53665,0.47953,1.1347,3.72,42.0,15.72
2.1112,-10.501,-3.0646,0.55344,0.82131,0.84299,4.44,42.42,15.12
3.1054,-12.122,-3.4459,0.52901,0.91935,0.58154,5.28,42.72,14.7
3.5822,-12.544,-3.4868,0.35094,0.64996,0.28619,5.88,43.2,14.16
3.6775,-12.572,-2.833,0.18692,0.34667,0.088881,6.54,43.44,13.26
3.3506,-13.362,-2.7104,0.068722,0.07758,-0.13195,7.08,43.8,12.84
2.9556,-13.743,-3.3506,-0.07758,-0.039706,-0.36805,7.44,43.86,12.84
2.547,-12.313,-3.3778,-0.19945,0.011912,-0.58796,7.62,44.04,12.42
2.6287,-10.978,-2.6015,-0.34819,0.10599,-0.78007,7.38,44.1,12.36
2.8739,-11.087,-1.9613,-0.57879,0.027184,-1.0644,6.96,43.92,12.3
3.1327,-11.727,-1.866,-0.77305,-0.22663,-1.2468,6.84,43.98,12.3
3.228,-12.544,-1.8115,-0.93035,-0.56077,-1.3741,6.54,43.62,12.54
2.9011,-12.313,-1.6344,-1.0324,-0.87598,-1.46,5.88,43.14,13.14
2.6968,-11.822,-1.6889,-1.0644,-1.0629,-1.5116,5.52,42.96,13.38
2.2065,-10.106,-1.471,-1.0602,-1.0846,-1.554,4.5,42.36,13.92
1.8387,-9.1801,-1.3348,-1.0122,-0.96486,-1.6148,3.54,41.52,14.64
1.8251,-8.6762,-1.2258,-1.0345,-0.66248,-1.7636,2.94,41.16,15.24
1.7979,-8.1858,-1.1169,-1.0776,-0.49908,-1.8326,1.74,40.32,16.2
1.866,-7.8726,-1.1441,-1.1402,-0.38576,-1.8637,1.14,39.72,16.68
2.0703,-7.8181,-1.0215,-1.1777,-0.38485,-1.8479,-0.42,39.0,17.52
2.0431,-7.8862,-0.92618,-1.2007,-0.45387,-1.7849,-2.1,38.04,18.18
1.9886,-8.2131,-0.7355,-1.2089,-0.50916,-1.6973,-3.12,37.56,18.48
1.8932,-8.4582,-0.7355,-1.171,-0.49847,-1.482,-4.98,36.9,18.78
1.7434,-8.8532,-0.81722,-1.1142,-0.41844,-1.3167,-6.6,36.18,19.02
1.7298,-9.0303,-0.77636,-1.0657,-0.2865,-1.1634,-7.14,35.7,19.02
1.6753,-8.9622,-0.70826,-0.99388,-0.1463,-1.0168,-8.28,34.8,19.08
1.7025,-9.6023,-0.61292,-0.92363,-0.014661,-0.8604,-9.12,33.96,18.84
1.8251,-10.637,-0.50395,-0.84177,0.073915,-0.65179,-9.72,33.12,18.3
1.8387,-11.359,-0.57205,-0.74648,0.1124,-0.38851,-9.84,32.58,18.18
1.8387,-11.155,-0.40861,-0.58551,0.20922,-0.0012217,-10.08,31.68,17.94
1.4982,-10.025,-0.40861,-0.37751,0.26053,0.22633,-10.02,31.14,17.88
1.2258,-9.4117,-0.47671,-0.083994,0.2865,0.45754,-9.72,30.54,17.7
1.362,-10.583,-0.57205,0.20953,0.3204,0.72662,-9.48,29.82,17.76
1.58,-11.019,-0.65378,0.47006,0.29352,1.0134,-9.54,29.58,17.76
1.7162,-10.311,-0.99429,0.75259,0.11484,1.3442,-9.6,29.22,17.82
1.5936,-9.4934,-1.2531,0.91049,-0.03543,1.4111,-9.84,29.22,17.7
1.6889,-9.6568,-1.4301,1.0534,-0.15699,1.3916,-10.02,29.28,17.7
1.7298,-10.351,-1.6617,1.1484,-0.27642,1.3332,-10.08,29.46,17.88
1.5119,-10.964,-1.975,1.1753,-0.32437,1.2636,-9.96,29.88,18.0
1.4438,-10.883,-2.0294,1.1274,-0.29902,1.2178,-9.78,30.12,18.0
1.3076,-10.079,-2.3836,1.0232,-0.12859,1.2639,-9.6,30.66,18.24
1.185,-8.5263,-2.5742,0.96272,0.040012,1.3079,-8.88,31.14,18.6
1.0624,-7.5457,-2.7649,0.94104,0.2532,1.3112,-7.92,31.8,19.14
0.99429,-7.3141,-2.833,0.9444,0.52046,1.2767,-7.26,32.22,19.38
1.1713,-6.9191,-2.8603,0.92424,0.81642,1.2398,-5.64,32.64,19.74
1.4438,-7.0962,-2.7922,0.89034,1.0073,1.2379,-4.86,33.0,19.74
1.9886,-7.4367,-2.8058,0.81245,1.0544,1.2398,-3.12,33.6,19.74
2.3155,-7.9815,-3.0646,0.72326,0.89736,1.2978,-1.56,34.32,19.26
2.4517,-8.3765,-3.2553,0.69089,0.69028,1.3662,-0.72,34.68,19.2
2.4517,-8.8396,-3.2689,0.69303,0.51404,1.4184,0.78,35.28,18.54
2.4789,-9.1393,-3.4323,0.70127,0.38423,1.4383,2.1,35.94,18.18
2.4789,-9.2482,-3.4732,0.7025,0.29871,1.4025,3.3,36.48,16.98
2.3018,-9.221,-3.4051,0.66523,0.28955,1.3143,4.02,36.84,16.56
2.3018,-9.1256,-3.4323,0.61117,0.33842,1.1817,4.44,37.2,15.84
2.3155,-9.8066,-3.4187,0.5681,0.4667,0.94898,5.28,38.04,15.0
2.6015,-10.896,-3.6366,0.53054,0.49969,0.80237,5.58,38.16,14.7
3.0646,-12.653,-4.0316,0.45051,0.44288,0.70372,6.3,38.7,13.92
3.1463,-12.612,-3.7047,0.27458,0.33811,0.57024,6.72,38.82,13.56
2.9692,-12.272,-3.2144,0.098349,0.27825,0.33017,6.96,39.0,13.32
2.6696,-13.116,-2.9829,-0.05284,0.36866,-0.08827,7.5,39.42,12.78
2.8739,-13.402,-3.4051,-0.15791,0.40959,-0.34636,7.68,39.6,12.6
2.9829,-13.389,-3.6094,-0.22755,0.35949,-0.55131,7.92,39.6,12.24
3.3506,-11.536,-3.1327,-0.38362,0.18662,-0.71135,7.86,39.72,12.0
3.4187,-11.032,-2.4653,-0.60384,-0.30452,-0.97189,7.98,39.78,12.12
3.514,-11.85,-2.0158,-0.67837,-0.52718,-1.0742,7.98,39.78,12.0
3.2144,-12.299,-1.9341,-0.93585,-1.1167,-1.3943,7.86,39.78,12.0
2.9284,-12.367,-1.9205,-1.102,-1.2532,-1.5889,7.68,39.6,11.94
2.2201,-11.7,-1.6208,-1.1851,-1.2086,-1.7614,7.26,39.36,12.18
1.8796,-10.924,-1.4301,-1.2636,-1.0113,-1.9346,6.84,39.12,12.54
1.6481,-10.093,-1.2122,-1.2978,-0.7141,-2.1249,6.42,38.82,12.9
1.471,-8.9622,-0.9398,-1.325,-0.24312,-2.3472,5.46,38.1,13.68
1.5391,-8.5536,-0.88532,-1.3109,-0.020464,-2.4279,4.86,37.68,13.98
1.757,-8.3493,-0.89894,-1.2752,0.069639,-2.416,3.96,37.26,14.46
2.0703,-8.4582,-0.81722,-1.2407,0.015272,-2.3509,2.1,36.36,15.24
2.2746,-8.3765,-0.6674,-1.1945,-0.14142,-2.2159,1.14,36.0,15.42
2.0567,-8.4719,-0.46309,-1.1249,-0.40561,-1.9343,-1.2,34.98,15.78
1.9205,-8.4991,-0.44947,-1.0748,-0.48747,-1.719,-2.4,34.32,15.9
1.6889,-8.7034,-0.27241,-0.99724,-0.45173,-1.4859,-3.36,33.6,16.02
1.5663,-8.717,-0.32689,-0.90561,-0.31612,-1.2752,-4.26,33.0,16.14
1.5255,-8.6353,-0.31327,-0.79107,-0.15547,-1.066,-5.16,32.34,16.14
1.6072,-8.7715,-0.28603,-0.66798,-0.031154,-0.85307,-6.78,31.2,16.08
1.7162,-9.616,-0.25879,-0.54184,0.022602,-0.62156,-7.38,30.54,16.26
1.6208,-10.447,-0.1362,-0.37751,0.03146,-0.24068,-8.58,29.22,16.08
1.4301,-10.229,-0.12258,-0.24771,0.075747,-0.0042761,-8.94,28.68,16.2
1.0624,-9.8066,-0.095342,-0.15241,0.10293,0.11973,-9.06,28.32,16.14
0.8036,-10.447,-0.19068,0.22755,0.18998,0.53237,-9.24,27.3,15.96
1.0488,-11.25,-0.29965,0.48503,0.25534,0.90775,-9.06,26.94,16.02
1.4438,-12.286,-0.64016,0.72174,0.26512,1.3393,-8.94,26.64,16.14
1.8524,-11.468,-0.96704,0.9163,0.18876,1.7055,-8.7,26.52,16.02
1.9477,-10.093,-1.5936,1.1616,-0.025656,1.8809,-8.76,26.46,15.96
2.0567,-9.7522,-1.8387,1.4032,-0.32742,1.8781,-8.7,26.4,16.02
1.757,-10.324,-2.3291,1.664,-0.82406,1.6826,-8.64,26.7,16.14
1.471,-10.801,-2.3155,1.6179,-0.95631,1.5266,-8.7,27.12,16.2
0.92618,-10.869,-2.3291,1.4111,-0.90103,1.416,-8.64,27.66,16.2
0.78998,-10.338,-2.5606,0.99999,-0.4945,1.4377,-7.98,28.74,16.62
0.72188,-9.6023,-2.7513,0.76847,-0.059254,1.4905,-7.68,29.04,16.62
0.58567,-8.6353,-2.9284,0.65332,0.48228,1.4841,-7.14,29.34,16.74
0.51757,-7.6683,-2.9148,0.62156,1.1188,1.452,-5.46,30.18,16.74
0.92618,-7.4095,-2.8058,0.63438,1.6924,1.427,-4.68,30.54,16.92
1.4574,-7.4912,-2.4653,0.62797,2.0675,1.412,-3.78,30.84,16.92
2.5198,-7.6683,-2.5061,0.59071,2.1057,1.4496,-2.1,31.38,17.22
3.2825,-8.0905,-2.6696,0.56474,1.7153,1.5281,-1.2,31.62,17.28
3.4596,-8.2676,-2.7786,0.55864,1.4386,1.5647,-0.3,32.04,17.28
3.4187,-8.9622,-2.9556,0.53481,0.57238,1.653,1.38,32.64,17.22
3.1872,-9.1801,-3.1191,0.54398,0.17379,1.6283,2.4,32.82,17.16
2.9556,-9.616,-3.2144,0.5452,-0.0054978,1.5308,3.18,32.94,16.98
2.3836,-9.507,-3.0918,0.49908,0.1127,1.2452,4.68,33.24,16.14
2.261,-9.3572,-3.1054,0.46823,0.2251,1.1182,5.34,33.66,15.78
2.1248,-9.398,-3.0237,0.42974,0.51893,0.83963,5.94,33.96,15.36
2.6696,-10.896,-3.2825,0.41539,0.77091,0.4499,6.66,34.56,14.88
3.2144,-11.863,-3.5685,0.38271,0.67042,0.25229,6.9,34.8,14.52
3.7184,-12.163,-3.4187,0.26084,0.40287,0.09896,7.08,35.22,14.28
3.514,-12.776,-2.7922,0.081551,-0.055283,-0.18387,7.98,35.7,13.8
3.2825,-13.825,-2.9284,-0.065973,-0.25931,-0.38668,8.28,36.0,13.5
3.2008,-13.893,-3.1327,-0.14355,-0.30788,-0.48075,8.64,36.18,13.26
2.8603,-12.149,-3.1327,-0.3427,-0.28344,-0.71288,9.54,36.42,12.96
2.8603,-11.087,-2.5606,-0.50885,-0.27367,-0.88087,9.9,36.6,12.9
2.9965,-10.896,-1.9613,-0.66371,-0.37049,-1.0617,10.14,36.72,12.78
3.4732,-12.231,-1.7025,-0.81428,-0.60292,-1.3018,10.5,36.9,12.78
3.5277,-12.544,-1.7025,-1.0165,-1.1145,-1.4056,10.68,36.78,12.84
3.4051,-12.749,-1.7025,-1.0763,-1.3714,-1.4969,10.68,36.9,12.96
2.6423,-11.85,-1.4846,-1.1451,-1.4276,-1.6231,10.56,36.78,13.32
2.1384,-10.855,-1.2395,-1.1649,-1.3021,-1.777,10.38,36.72,13.44
1.5527,-9.9837,-1.1577,-1.2046,-0.97738,-1.9844,10.14,36.42,13.56
1.5119,-8.9349,-0.9398,-1.2575,-0.45968,-2.2782,9.12,36.06,13.92
1.471,-8.826,-0.91256,-1.3195,-0.22358,-2.4157,8.64,35.94,14.28
1.7843,-8.6762,-0.78998,-1.3253,-0.14325,-2.4639,7.8,35.88,14.7
2.0431,-8.7306,-0.72188,-1.343,-0.18448,-2.4471,5.7,35.7,14.88
2.0567,-8.6081,-0.61292,-1.3182,-0.26084,-2.343,4.5,35.58,14.82
1.9886,-8.5536,-0.44947,-1.2614,-0.33964,-2.1692,3.36,35.4,14.94
1.8524,-8.6898,-0.43585,-1.1594,-0.40592,-1.9474,0.96,35.22,14.94
1.7706,-8.717,-0.34051,-0.97555,-0.41325,-1.5656,-0.3,35.04,14.88
1.6753,-8.5672,-0.31327,-0.84208,-0.36041,-1.3277,-1.68,34.68,14.76
1.58,-8.1995,-0.14982,-0.72021,-0.28863,-1.0919,-3.96,34.08,14.7
1.6208,-8.4855,-0.19068,-0.58949,-0.21625,-0.85368,-5.04,33.78,14.82
1.8387,-9.1665,-0.35413,-0.46242,-0.1967,-0.58613,-6.06,33.36,14.7
2.0431,-10.515,-0.31327,-0.33659,-0.24435,-0.11301,-7.74,32.58,14.76
2.0294,-10.569,-0.14982,-0.1686,-0.29902,0.15577,-8.4,31.98,14.76
1.7706,-10.297,-0.12258,-0.094684,-0.30543,0.29047,-9.06,31.44,14.64
1.4982,-11.182,-0.14982,0.18326,-0.19792,0.70524,-9.78,30.36,14.82
1.4846,-11.768,-0.10896,0.3711,-0.020159,1.0211,-10.08,29.88,15.06
1.5936,-12.054,-0.21793,0.56505,0.17715,1.3289,-10.26,29.46,15.24
1.6072,-11.55,-0.42223,0.78435,0.27794,1.5021,-10.32,28.68,15.72
2.1793,-9.0031,-0.96704,1.2043,0.12187,1.5052,-10.68,28.38,15.78
2.261,-8.8532,-1.2667,1.3512,0.0064141,1.4462,-10.68,28.26,15.96
2.2337,-9.4798,-1.7025,1.5959,-0.27733,1.3259,-10.92,28.2,16.08
1.9886,-10.324,-2.0158,1.6506,-0.62644,1.2132,-11.34,28.5,16.44
1.7298,-10.093,-2.0567,1.5082,-0.75411,1.2352,-11.22,28.86,16.68
1.4438,-9.5751,-2.152,1.2999,-0.72754,1.335,-11.34,29.28,16.86
0.99429,-8.1586,-2.438,1.109,-0.551,1.4722,-10.8,30.0,17.28
0.76274,-7.7364,-2.7241,1.0055,-0.21991,1.5528,-10.26,30.42,17.58
0.70826,-7.5184,-2.8467,0.97402,0.27061,1.5809,-9.48,31.02,17.82
1.0079,-7.3277,-2.9011,1.0018,1.1161,1.6102,-7.98,32.04,17.94
1.5527,-7.5729,-2.8194,1.014,1.4258,1.6472,-7.32,32.4,17.76
2.4517,-8.0769,-2.8875,0.98471,1.4484,1.6985,-6.66,32.88,17.7
3.2553,-8.7987,-3.1599,0.95539,0.89156,1.7956,-4.86,33.78,17.52
3.3097,-9.3163,-3.3778,0.93951,0.61728,1.8149,-3.9,34.26,17.46
3.2553,-9.4253,-3.4596,0.9108,0.1124,1.7944,-2.88,34.68,17.34
3.0782,-9.7522,-3.5685,0.88026,-0.34819,1.6371,-1.86,35.04,16.92
2.5334,-9.9429,-3.6639,0.81551,-0.42394,1.4481,0.36,36.0,16.08
2.261,-9.9156,-3.623,0.73182,-0.31704,1.204,1.44,36.36,15.72
2.0703,-9.8475,-3.6366,0.62339,-0.10324,0.8094,3.18,37.26,14.64
2.2201,-10.379,-3.7728,0.52229,0.13347,0.68447,3.9,37.62,13.98
2.547,-11.291,-3.8682,0.40745,0.3149,0.47739,4.44,37.86,13.44
2.7786,-11.931,-3.8409,0.093768,0.37629,0.22327,4.98,38.22,13.02
2.8603,-11.128,-3.1191,-0.14478,0.39095,0.0012217,6.0,38.82,12.36
2.6968,-11.073,-2.3155,-0.30299,0.46823,-0.27489,6.48,39.0,12.06
2.8875,-12.463,-3.228,-0.28253,0.4835,-0.49938,6.9,39.24,11.94
3.2825,-12.721,-3.4051,-0.43616,0.32162,-0.81428,7.32,39.42,11.7
3.4868,-12.735,-3.2553,-0.41722,0.1127,-0.87568,7.38,39.54,11.58
3.9227,-13.089,-3.051,-0.54367,-0.3204,-0.93737,7.5,39.6,11.52
4.2223,-13.443,-2.5606,-0.75198,-0.89858,-1.0369,7.44,39.36,11.52
3.5685,-13.77,-1.866,-1.0345,-1.3925,-1.2113,7.2,39.06,11.4
3.0646,-13.511,-1.6072,-1.2831,-1.6829,-1.5195,6.84,38.88,11.46
2.1929,-12.885,-1.1577,-1.5589,-1.5852,-1.7355,6.36,38.46,11.76
1.8251,-12.0,-0.92618,-1.6677,-1.3124,-1.9801,5.94,38.16,12.0
1.6481,-11.387,-0.83084,-1.7013,-1.1377,-2.1044,5.28,37.74,12.24
1.2939,-9.8475,-0.65378,-1.7208,-0.51313,-2.4581,3.84,37.14,13.02
1.2803,-9.3436,-0.57205,-1.701,-0.076358,-2.6609,3.06,36.84,13.26
1.3893,-9.0031,-0.27241,-1.6542,0.25443,-2.7816,2.22,36.48,13.32
1.8387,-8.717,-0.16344,-1.6148,0.41539,-2.8259,0.06,35.7,13.86
2.0703,-8.7306,-0.10896,-1.573,0.41692,-2.7972,-0.96,35.16,14.04
2.2065,-8.9349,-0.027241,-1.5058,0.19151,-2.5937,-2.1,34.62,14.16
2.0294,-9.0167,-0.027241,-1.4444,0.0073304,-2.3815,-4.44,33.6,14.22
1.8932,-8.9349,0.054481,-1.3497,-0.11148,-2.1139,-5.4,32.94,14.4
1.7025,-8.5127,0.14982,-1.219,-0.14844,-1.8054,-6.42,32.28,14.58
1.4574,-8.0632,-0.10896,-0.92821,-0.081551,-1.346,-8.64,30.9,15.0
1.5119,-8.0496,-0.19068,-0.70097,-0.040623,-1.0464,-9.54,30.36,14.94
1.6753,-8.3765,-0.27241,-0.47922,-0.040317,-0.71105,-10.32,29.76,15.06
2.0022,-9.1937,-0.35413,-0.2865,-0.14936,-0.33384,-11.16,29.1,14.94
2.1384,-9.5342,-0.55843,-0.2865,-0.14936,-0.33384,-12.06,28.5,14.94
1.9613,-9.3163,-0.61292,0.24679,-0.47861,0.60598,-13.44,26.82,15.3
1.7706,-10.42,-0.88532,0.24679,-0.47861,0.60598,-13.32,26.34,15.3
1.7706,-10.815,-0.88532,0.39309,-0.4554,0.97433,-13.44,26.1,15.42
1.7298,-11.441,-0.88532,0.51618,-0.34208,1.3424,-13.32,25.86,15.54
1.7025,-11.182,-0.92618,0.68417,-0.040012,1.7159,-13.14,25.5,16.02
1.8932,-10.774,-1.2667,0.88575,0.11851,1.7831,-13.08,25.56,16.14
2.2474,-10.12,-1.866,1.1359,0.14264,1.7226,-12.84,25.74,15.96
2.2337,-10.011,-2.0022,1.3919,0.074831,1.6127,-12.72,26.04,15.72
2.2474,-9.8748,-2.0567,1.5363,-0.029627,1.4939,-12.54,26.4,15.72
2.2201,-9.7794,-1.9886,1.5513,-0.16402,1.4151,-12.48,26.76,15.48
2.0022,-9.112,-2.0567,1.4251,-0.35613,1.4172,-11.88,27.96,15.12
1.7025,-8.431,-2.2474,1.3195,-0.32223,1.5018,-11.76,28.62,15.06
1.2258,-7.4503,-2.4517,1.2593,-0.17776,1.5858,-10.92,30.0,15.12
1.1169,-7.2869,-2.5198,1.2339,0.091935,1.6441,-10.5,30.54,15.06
1.2395,-7.3822,-2.656,1.2171,0.45815,1.6903,-9.84,30.96,15.0
1.58,-7.6274,-2.7377,1.2004,0.93554,1.777,-8.34,32.28,14.76
2.0294,-8.1177,-2.8603,1.1887,1.0067,1.8124,-7.44,32.88,14.52
2.3291,-8.4719,-2.9965,1.1423,0.96669,1.9004,-6.6,33.36,14.22
2.6696,-9.2891,-3.1463,1.0977,0.77274,1.9419,-4.86,34.62,13.62
2.7377,-9.9565,-3.3778,1.0165,0.5058,1.8977,-3.9,35.16,13.44
2.6696,-10.365,-3.5685,0.98991,0.43494,1.8384,-1.74,36.12,12.78
2.5334,-10.42,-3.5822,0.89492,0.37965,1.5855,-0.72,36.42,12.48
2.3427,-10.215,-3.6366,0.85949,0.4273,1.4609,0.42,36.72,12.12
2.2201,-10.052,-3.6775,0.79382,0.66218,1.04,2.64,37.02,10.8
2.4517,-10.515,-3.9363,0.76419,0.77244,0.78924,3.48,37.2,9.96
2.9284,-11.7,-4.1678,0.6692,0.72998,0.58613,4.38,37.56,9.36
3.4323,-12.572,-3.8682,0.38698,0.42394,0.38087,5.7,37.98,7.86
3.2553,-12.83,-3.3915,0.15211,0.24893,0.18784,6.36,38.16,7.38
3.0782,-13.239,-3.1872,0.061087,0.18967,0.091019,6.78,38.46,6.96
2.9556,-14.22,-3.228,-0.22358,0.19578,-0.2645,7.14,38.7,6.54
2.9556,-13.825,-3.6639,-0.3934,0.28863,-0.51038,7.74,38.88,5.88
2.8603,-11.959,-3.1327,-0.54336,0.32773,-0.73731,7.86,39.06,5.64
3.1599,-10.924,-2.0703,-0.69791,0.27703,-0.97769,8.04,39.3,5.46
3.4323,-11.346,-1.7298,-0.90255,-0.12614,-1.3677,8.1,39.42,5.22
3.4732,-11.918,-1.6617,-0.98471,-0.32926,-1.4942,7.86,39.36,5.4
3.3506,-12.313,-1.6072,-1.1646,-0.91844,-1.7911,7.74,39.42,5.52
2.7786,-12.313,-1.5527,-1.23,-1.2101,-1.8986,7.2,39.54,6.06
2.4108,-11.496,-1.4982,-1.2733,-1.2999,-2.0024,6.78,39.42,6.36
1.757,-9.793,-1.1032,-1.2391,-1.0687,-2.0562,5.88,39.3,7.32
1.5391,-9.1393,-0.99429,-1.2486,-0.80787,-2.138,5.28,39.24,7.68
1.5391,-8.6898,-0.81722,-1.2654,-0.6747,-2.1686,4.62,39.0,8.4
1.5527,-8.4174,-0.77636,-1.332,-0.35155,-2.2165,3.9,38.76,9.06
1.7706,-8.1858,-0.68102,-1.3451,-0.27855,-2.1673,2.22,38.58,10.5
1.9205,-8.1858,-0.65378,-1.339,-0.28558,-2.0693,1.38,38.22,11.04
1.9341,-8.1041,-0.44947,-1.3271,-0.34819,-1.9264,-0.78,37.74,11.76
1.8932,-8.4174,-0.47671,-1.2752,-0.43555,-1.6496,-1.8,37.56,12.06
1.866,-8.826,-0.54481,-1.2016,-0.45387,-1.4404,-2.7,37.38,12.3
1.7979,-9.2074,-0.50395,-1.1313,-0.40989,-1.2434,-3.54,37.26,12.42
1.5936,-9.2482,-0.39499,-1.055,-0.27428,-1.0534,-5.1,36.72,12.84
1.58,-9.3436,-0.36775,-0.98655,-0.1127,-0.85582,-5.76,36.6,13.08
1.6889,-10.474,-0.28603,-0.84666,0.07422,-0.55619,-6.96,36.24,13.5
1.9341,-10.896,-0.31327,-0.75167,0.15547,-0.35858,-7.56,36.0,13.8
1.8387,-10.842,-0.17706,-0.63744,0.20617,-0.22297,-7.86,35.82,13.74
1.6617,-10.12,-0.068102,-0.45632,0.25992,-0.085827,-8.16,35.58,13.62
1.3484,-9.9429,-0.068102,-0.23152,0.36072,0.092852,-8.46,34.98,13.32
1.3212,-10.733,0.027241,0.015272,0.44563,0.3543,-8.46,34.86,13.44
1.7298,-11.278,-0.12258,0.34636,0.54398,0.86896,-8.22,34.38,13.68
2.2474,-9.9156,-0.47671,0.62705,0.42486,1.1188,-8.22,34.26,13.86
2.3018,-9.112,-0.76274,0.94776,0.21502,1.2165,-8.22,34.14,13.98
2.4244,-8.9894,-0.98067,1.2562,-0.018021,1.1897,-8.28,34.2,14.1
2.6151,-9.7385,-1.4574,1.4899,-0.30696,1.1405,-8.52,34.38,14.1
2.4789,-10.188,-1.7162,1.6118,-0.5623,1.0849,-8.64,34.38,13.98
2.2882,-10.27,-1.9886,1.6029,-0.73182,1.0803,-8.7,34.8,13.98
1.9205,-9.5206,-2.1656,1.4618,-0.84391,1.2083,-8.58,35.28,13.92
1.7162,-8.8941,-2.2882,1.3604,-0.74984,1.2956,-8.52,35.82,13.86
0.9398,-7.355,-2.656,1.2917,-0.45754,1.3347,-7.8,36.6,14.1
0.7355,-7.0281,-2.833,1.2431,0.012217,1.3299,-7.32,37.08,14.04
0.6674,-6.8647,-2.9556,1.2333,0.56108,1.3195,-6.66,37.38,13.98
1.4165,-7.1915,-2.9965,1.2046,1.1655,1.3689,-5.16,38.34,13.38
1.9068,-7.5048,-3.1191,1.1634,1.226,1.4471,-4.2,38.7,13.26
2.4789,-7.8998,-3.3778,1.1484,0.99052,1.5837,-3.18,39.12,12.78
2.8875,-8.4582,-3.5958,1.1475,0.78466,1.6619,-2.1,39.36,12.48
3.0646,-9.6704,-3.9908,1.0928,0.096822,1.8463,0.18,40.2,11.76
2.8875,-9.9701,-4.0861,1.0583,-0.25962,1.8839,1.32,40.68,11.34
2.5334,-10.202,-4.2223,0.956,-0.41264,1.8292,3.84,41.28,10.14
1.7843,-9.9701,-4.1542,0.73793,-0.18662,1.5449,5.04,41.34,9.3
1.5255,-9.8611,-3.9908,0.58643,0.20189,1.2721,6.42,41.46,8.64
1.5663,-10.406,-3.8409,0.53939,0.40989,1.127,7.62,41.7,7.86
2.1384,-12.449,-4.0861,0.33353,0.91202,0.76389,9.42,42.18,6.18
2.6968,-13.416,-4.0725,0.11576,1.0424,0.55894,10.26,42.48,5.4
3.1191,-13.43,-3.3097,-0.15791,1.0739,0.38087,11.16,42.72,4.8
3.3097,-13.607,-2.8603,-0.33353,1.0156,0.1799,12.48,43.14,3.72
3.3642,-14.315,-2.9692,-0.52534,0.89553,-0.19578,12.96,43.5,3.36
3.337,-14.261,-3.051,-0.5849,0.8885,-0.34178,13.56,43.68,3.12
2.9556,-11.836,-2.9965,-0.73731,0.86743,-0.80543,14.4,44.22,2.58
2.8058,-10.433,-2.3836,-0.86896,0.88148,-1.1167,14.58,44.46,2.4
2.8875,-9.9429,-1.866,-0.95509,0.79138,-1.4328,14.52,44.64,2.4
3.3778,-11.577,-1.4029,-1.0351,0.50855,-1.7489,14.22,45.12,2.64
3.4459,-12.367,-1.4165,-1.2159,-0.12492,-2.1307,13.8,45.18,2.94
3.3506,-12.612,-1.3757,-1.2886,-0.57269,-2.2709,13.2,45.36,3.24
2.8739,-11.931,-1.3893,-1.2822,-0.89858,-2.3075,11.64,45.42,4.2
2.6151,-10.924,-1.3893,-1.2153,-1.0699,-2.2944,10.68,45.48,4.92
2.1384,-9.8066,-1.2258,-1.0959,-1.0715,-2.252,9.54,45.54,5.64
1.7979,-8.9622,-1.0351,-1.0033,-0.95997,-2.2162,7.14,45.66,6.96
1.7025,-8.5127,-0.84446,-0.96761,-0.81031,-2.1875,5.88,45.54,7.68
1.7298,-8.3493,-0.8036,-1.0067,-0.67226,-2.1353,4.26,45.48,8.46
1.8115,-8.1586,-0.8717,-1.0638,-0.55405,-1.9923,2.76,45.12,9.12
1.866,-8.1586,-0.83084,-1.0953,-0.54489,-1.8601,0.96,44.88,9.84
1.7706,-8.1177,-0.5993,-1.1173,-0.53115,-1.6924,-2.28,44.4,11.1
1.6072,-8.0632,-0.58567,-1.1188,-0.39248,-1.4083,-3.84,44.04,11.76
1.4165,-7.9815,-0.35413,-1.0977,-0.30207,-1.3008,-6.78,43.62,13.02
1.3893,-7.927,-0.40861,-0.98288,0.000611,-0.99754,-8.04,43.2,13.5
1.4438,-7.8317,-0.27241,-0.86346,0.18143,-0.79779,-9.18,42.78,13.98
1.7434,-8.1858,-0.20431,-0.71899,0.32803,-0.57421,-10.14,42.48,14.46
1.8932,-8.7306,-0.14982,-0.55894,0.38851,-0.31796,-12.12,41.58,15.36
2.1929,-9.9156,-0.19068,-0.40897,0.31551,0.13622,-13.08,41.1,15.84
2.3836,-10.569,-0.027241,-0.25717,0.26848,0.29077,-14.4,40.02,16.5
2.3291,-10.27,0.095342,0.041539,0.094379,0.68722,-14.88,39.84,16.86
2.2474,-10.637,0.1362,0.29658,0.011606,0.9612,-15.42,39.6,17.28
2.3427,-11.387,0.068102,0.57208,-0.047037,1.2572,-15.72,39.3,17.52
2.4244,-11.809,-0.10896,0.84941,-0.083994,1.5809,-15.72,39.0,17.82
2.5606,-9.9973,-0.92618,1.1203,-0.15241,1.8045,-15.9,38.88,18.0
2.6287,-9.2891,-1.2258,1.5174,-0.40623,1.7816,-15.78,38.94,18.18
2.6287,-8.9486,-1.4982,1.6283,-0.53115,1.7071,-15.72,39.0,18.12
2.152,-10.215,-1.7706,1.7743,-0.77977,1.4853,-15.36,39.54,18.48
1.8251,-10.733,-2.0158,1.6958,-0.74587,1.3922,-15.06,39.78,18.48
1.6617,-10.896,-2.3836,1.5605,-0.59743,1.3922,-14.46,40.38,18.54
1.5936,-10.27,-2.9965,1.4197,-0.42669,1.4997,-13.14,41.46,18.6
1.5255,-9.1529,-3.2961,1.2807,-0.1347,1.6496,-12.18,42.06,18.54
1.3757,-8.5672,-3.3097,1.2428,0.10629,1.6582,-11.1,42.66,18.48
1.1577,-7.6955,-3.5004,1.2153,0.2755,1.6344,-9.96,43.02,18.12
1.185,-7.1915,-3.4323,1.1417,0.8491,1.5217,-7.2,44.22,17.64
1.4982,-7.2324,-3.514,1.0919,1.0629,1.4722,-6.06,44.82,17.16
2.0431,-7.6002,-3.4323,0.99846,1.0861,1.4349,-4.68,45.42,16.86
2.6696,-8.322,-3.7047,0.82497,0.72907,1.478,-2.1,46.56,16.14
2.8058,-8.8668,-3.8546,0.6973,0.39584,1.507,-0.78,47.1,15.72
2.6968,-9.1256,-3.8273,0.64232,0.27,1.503,0.48,47.58,15.18
2.3972,-9.6704,-3.7728,0.48472,0.12278,1.4083,3.0,48.54,13.92
2.2201,-9.793,-3.6775,0.39126,0.27794,1.2511,4.14,48.78,13.2
1.9886,-9.5751,-3.4732,0.29383,0.54856,1.0318,5.22,49.08,12.48
2.1793,-9.902,-3.3506,0.20372,0.95448,0.59956,7.02,49.68,10.86
2.5742,-10.733,-3.337,0.18876,1.0113,0.46365,7.74,49.92,10.5
2.9829,-11.891,-3.3778,0.11942,1.0125,0.22663,8.28,50.28,10.14
3.5413,-12.653,-3.2825,-0.11209,0.76175,-0.043982,9.06,50.7,9.36
3.4051,-12.217,-2.6968,-0.31032,0.54,-0.28161,9.36,50.88,9.24
3.1191,-12.626,-1.9205,-0.3879,0.39951,-0.52382,9.66,50.94,9.24
3.0782,-13.797,-2.547,-0.51404,0.26481,-0.87079,9.54,50.76,9.12
2.9829,-13.021,-2.7649,-0.52443,0.24374,-0.96181,9.48,50.58,9.3
2.942,-12.354,-2.6696,-0.51068,0.19212,-1.1781,9.36,50.28,9.42
3.2553,-11.591,-1.6072,-0.56902,0.046426,-1.3158,8.64,49.8,10.02
3.4187,-12.122,-1.1986,-0.68875,-0.24862,-1.485,8.04,49.68,10.44
3.4187,-12.64,-1.2258,-0.83689,-0.63041,-1.6671,7.38,49.26,10.92
3.0646,-12.735,-1.1169,-0.96333,-0.96425,-1.8973,5.7,48.66,12.18
2.7786,-12.313,-0.99429,-1.055,-1.1814,-1.9963,4.98,48.18,12.66
2.4517,-11.441,-1.0215,-1.0586,-1.1377,-2.0892,4.14,47.64,13.32
1.866,-9.5479,-1.0624,-1.0247,-0.97738,-2.1845,2.4,46.32,14.76
1.7298,-8.8124,-0.92618,-1.0024,-0.75228,-2.2859,1.38,45.66,15.54
1.5663,-8.1995,-0.78998,-1.0058,-0.54672,-2.3601,0.24,45.0,16.26
1.6072,-7.8998,-0.69464,-1.0226,-0.32895,-2.3589,-1.98,43.44,17.52
1.7706,-8.1722,-0.57205,-1.0437,-0.31185,-2.2736,-3.18,42.72,18.06
1.9205,-8.3084,-0.57205,-1.0754,-0.33781,-2.1475,-4.38,42.0,18.54
1.8387,-8.145,-0.24517,-1.0608,-0.38698,-1.9493,-6.66,40.5,19.14
1.7298,-8.2131,-0.24517,-1.0272,-0.416,-1.7089,-7.56,39.54,19.2
1.6753,-8.3357,-0.16344,-0.97922,-0.3934,-1.4453,-8.46,38.64,19.38
1.5391,-8.4991,-0.054481,-0.89706,-0.29993,-1.1845,-10.02,36.96,19.62
1.4846,-8.5944,-0.054481,-0.75136,-0.090408,-0.77091,-10.74,36.18,19.68
1.5663,-8.7579,-0.054481,-0.61361,0.026573,-0.47892,-11.52,35.4,19.62
1.7025,-9.3299,-0.01362,-0.47403,0.069028,-0.16402,-12.12,34.62,19.44
1.9886,-10.719,0.054481,-0.33964,0.067195,0.1686,-12.84,33.3,19.32
2.0431,-10.774,0.12258,-0.20708,0.037263,0.46151,-13.08,32.7,19.08
1.9341,-10.569,0.20431,-0.016493,-0.023213,0.69272,-13.2,32.28,18.96
1.7298,-11.605,0.040861,0.32193,-0.029322,1.0525,-13.02,31.38,18.6
1.8387,-12.108,-0.12258,0.57208,0.039706,1.3628,-12.78,31.14,18.42
2.0294,-12.313,-0.38137,0.70677,0.055894,1.5339,-12.6,30.84,18.18
2.3427,-11.591,-0.76274,1.1219,-0.079412,1.8567,-12.48,30.6,18.12
2.6696,-9.221,-1.6889,1.4462,-0.40561,1.8497,-12.18,30.54,17.94
2.7241,-9.1937,-2.0703,1.7459,-0.85094,1.7196,-12.0,30.54,17.88
2.547,-9.8066,-2.261,1.8925,-1.346,1.4975,-11.64,31.08,17.88
1.7298,-10.488,-2.3155,1.8265,-1.4059,1.4398,-11.1,31.38,17.88
1.2803,-10.406,-2.3972,1.5937,-1.3689,1.372,-10.62,31.74,18.0
1.0215,-9.9429,-2.6287,1.1747,-0.95906,1.4322,-9.78,32.16,17.88
0.61292,-8.6217,-3.0918,0.94928,-0.48778,1.4645,-8.1,32.94,18.18
0.32689,-7.5457,-3.2825,0.78924,0.1011,1.452,-7.14,33.36,18.18
0.35413,-6.8238,-3.1872,0.64538,1.1942,1.3369,-4.56,34.32,18.18
0.83084,-6.8374,-3.0373,0.6185,1.5159,1.3131,-3.48,34.56,18.24
1.3348,-7.0962,-2.9556,0.49388,2.1435,1.2281,-2.4,34.98,18.36
1.7162,-7.2733,-2.7377,0.40867,2.2055,1.2175,-1.2,35.52,18.36
2.8739,-8.1177,-2.8875,0.32651,1.9349,1.252,0.9,36.18,18.36
3.1191,-8.6353,-2.9284,0.26756,1.5,1.3002,1.98,36.54,18.12
2.9692,-9.3163,-2.8875,0.2022,0.91416,1.3317,4.14,36.96,17.52
2.8467,-9.3163,-2.9692,0.22266,0.72235,1.2724,4.86,37.14,17.22
2.6832,-9.2618,-3.0918,0.23579,0.68875,1.2248,5.64,37.26,16.92
2.5879,-8.9894,-3.0646,0.32742,0.71074,0.9728,5.94,37.5,16.62
2.6968,-9.398,-3.0237,0.40623,0.71593,0.77427,6.48,37.74,15.54
3.0918,-10.801,-3.1463,0.45357,0.58613,0.60751,6.72,37.92,15.06
3.5413,-12.408,-3.4459,0.36011,0.23854,0.40836,6.54,38.22,14.4
3.1872,-11.972,-3.0373,0.17013,0.053451,0.20617,6.66,38.4,14.04
2.9011,-12.19,-2.3836,0.031154,0.038179,-0.067806,6.66,38.46,13.74
2.7649,-12.803,-2.4108,0.0042761,0.062003,-0.19151,6.72,38.4,13.38
2.8603,-13.607,-3.0237,-0.17837,0.1347,-0.58979,6.9,38.52,13.26
3.0646,-12.735,-3.0918,-0.22907,0.13378,-0.79412,6.9,38.64,12.6
3.2825,-12.027,-2.4789,-0.40195,-0.094684,-1.0345,6.66,38.7,12.48
3.6503,-12.585,-1.6344,-0.48197,-0.25107,-1.1173,6.3,38.52,12.24
3.6366,-13.076,-1.5391,-0.76114,-0.85888,-1.4142,6.06,38.46,12.36
3.3642,-13.13,-1.362,-0.91813,-1.1481,-1.6145,5.82,38.4,12.3
2.9148,-12.626,-1.1986,-0.98197,-1.2963,-1.7782,5.46,37.98,12.36
2.4789,-12.027,-1.2803,-0.99113,-1.3234,-1.9093,5.04,37.56,12.66
2.0158,-10.038,-1.1577,-0.92882,-1.1194,-2.1173,4.08,36.66,13.38
1.8115,-9.2346,-1.0896,-0.90591,-0.88209,-2.2275,3.54,36.12,13.8
1.6753,-8.7034,-1.0624,-0.92485,-0.65057,-2.2956,2.82,35.7,14.16
1.6481,-8.2131,-1.0079,-0.94654,-0.551,-2.3152,2.04,35.28,14.76
1.8796,-7.5729,-0.91256,-1.0046,-0.40225,-2.2578,0.24,34.26,15.72
1.9886,-7.4095,-0.84446,-1.0226,-0.42822,-2.1252,-0.6,33.6,16.2
1.9886,-7.355,-0.89894,-1.0223,-0.52504,-1.9196,-1.44,33.12,16.56
2.0294,-8.0632,-0.88532,-0.98319,-0.72235,-1.5495,-3.18,32.16,16.86
1.7979,-8.2812,-0.85808,-0.97861,-0.72571,-1.3192,-3.9,31.62,16.8
1.5391,-8.3493,-0.58567,-0.97677,-0.66829,-1.1988,-4.5,31.02,16.98
1.3212,-8.1995,-0.50395,-0.97066,-0.33567,-0.91385,-5.1,30.36,17.16
1.3348,-8.5808,-0.57205,-0.92393,-0.046426,-0.76358,-6.18,29.22,17.04
1.5255,-9.3163,-0.55843,-0.83811,0.19028,-0.59376,-6.48,28.56,16.86
1.9068,-10.855,-0.21793,-0.72021,0.34544,-0.26542,-6.9,27.54,16.56
1.9613,-11.019,-0.10896,-0.6805,0.35277,-0.14997,-7.02,27.0,16.44
1.7979,-10.733,-0.054481,-0.56749,0.36346,0.054062,-6.96,26.34,16.38
1.4982,-10.202,-0.12258,-0.20159,0.32559,0.36652,-6.54,25.26,16.08
1.5255,-11.155,-0.23155,0.092241,0.26603,0.64935,-6.24,24.72,15.9
1.7025,-11.809,-0.21793,0.4331,0.18662,1.1118,-5.52,23.7,15.9
1.7162,-11.455,-0.23155,0.60262,0.11301,1.3558,-5.16,23.46,16.08
1.6753,-10.637,-0.29965,0.78832,0.04215,1.4679,-4.92,23.1,16.08
1.7706,-10.052,-0.64016,0.88392,0.0061087,1.4737,-4.68,22.74,16.14
1.9613,-10.161,-1.2531,1.2624,-0.20403,1.3836,-4.44,22.68,16.2
2.2474,-10.665,-1.8524,1.4499,-0.41875,1.3082,-4.32,22.44,16.26
2.1929,-11.141,-1.975,1.5006,-0.64507,1.2746,-4.14,22.74,16.26
1.8932,-10.283,-2.0567,1.4328,-0.81703,1.3375,-4.02,23.1,16.56
1.6889,-9.3436,-2.0839,1.2083,-0.84116,1.401,-3.78,23.34,16.74
1.4982,-8.6217,-2.261,1.1393,-0.77519,1.4151,-3.42,23.52,16.74
1.0351,-7.5729,-2.656,1.0226,-0.2813,1.3696,-2.94,23.76,16.92
0.6674,-6.8783,-2.833,0.98899,0.23182,1.296,-1.44,24.42,17.16
0.70826,-6.8783,-2.8603,0.95295,0.77519,1.2501,-0.78,24.6,17.16
1.7162,-7.3005,-2.8058,0.88575,1.2343,1.2819,0.72,25.2,17.4
2.2065,-7.6955,-2.9011,0.85613,1.2544,1.3237,1.56,25.44,17.34
2.5742,-8.1722,-3.1735,0.81673,1.0989,1.4496,2.34,25.86,17.28
2.9284,-8.6625,-3.3778,0.75014,0.59926,1.6554,3.24,26.22,17.22
2.7786,-9.4798,-3.5277,0.70769,0.31704,1.7184,4.98,26.88,17.04
2.6423,-9.6023,-3.4868,0.63316,0.1909,1.6738,5.82,27.12,16.86
2.3972,-9.1937,-3.2689,0.55008,0.24801,1.5229,6.72,27.36,16.62
2.0022,-8.9077,-3.2553,0.47892,0.45509,1.2908,8.4,27.66,15.96
2.0839,-9.1937,-3.1327,0.43127,0.82711,0.87415,9.0,27.96,15.54
2.5334,-10.093,-3.2825,0.43677,0.87262,0.75564,9.54,28.08,15.06
3.3097,-12.19,-3.7047,0.354,0.75259,0.48442,10.2,28.32,14.58
3.4732,-12.558,-3.4187,0.14325,0.55803,0.3372,10.5,28.44,14.34
3.0373,-12.204,-2.3291,-0.078802,0.43738,0.12584,10.62,28.56,14.1
2.9556,-13.212,-2.5061,-0.21961,0.44318,-0.23488,11.04,28.62,13.5
3.0237,-13.92,-2.7649,-0.36469,0.50335,-0.49236,11.34,28.62,13.44
2.9965,-13.607,-2.8739,-0.40745,0.56474,-0.71257,11.58,28.56,13.26
3.0646,-11.4,-2.5198,-0.47006,0.55467,-0.87476,11.94,28.44,13.02
3.2144,-10.937,-1.9613,-0.55344,0.41936,-1.055,12.06,28.26,13.14
3.732,-12.149,-1.4846,-0.6524,0.098044,-1.2205,12.3,28.2,13.02
3.8954,-12.708,-1.5663,-0.75931,-0.38637,-1.3967,12.42,27.9,12.96
3.6775,-12.735,-1.7706,-0.82406,-0.91813,-1.4997,12.42,27.72,13.02
3.3506,-12.395,-1.7025,-0.86804,-1.5104,-1.6136,12.3,27.72,13.02
2.6015,-10.992,-1.5391,-0.88178,-1.635,-1.6707,12.12,27.66,12.84
1.9341,-10.134,-1.2939,-0.90927,-1.5672,-1.7697,12.06,27.66,13.02
1.58,-9.0848,-1.2122,-0.97983,-1.292,-1.9117,12.18,27.72,13.14
1.3757,-8.145,-1.0215,-1.0492,-0.956,-2.0479,12.06,27.9,13.5
1.4574,-8.0905,-0.9398,-1.1371,-0.66951,-2.1258,11.58,28.02,13.44
1.5391,-8.0769,-0.99429,-1.2202,-0.42944,-2.1279,11.1,28.2,13.62
1.866,-8.3084,-0.95342,-1.2318,-0.3879,-2.0559,9.96,28.56,13.56
1.8796,-8.4446,-0.89894,-1.2291,-0.39004,-1.9114,9.36,28.74,13.32
1.8524,-8.5127,-0.69464,-1.1939,-0.39828,-1.638,8.64,29.04,13.26
1.7843,-8.7034,-0.57205,-1.1442,-0.37721,-1.4432,7.92,29.4,13.02
1.6208,-8.8396,-0.49033,-1.1228,-0.33659,-1.3415,7.38,29.88,12.9
1.5391,-9.0031,-0.61292,-1.014,-0.17104,-1.0589,6.42,30.36,12.48
1.5527,-9.1801,-0.5993,-0.91416,-0.076664,-0.84483,5.88,30.6,12.36
1.5391,-9.4934,-0.55843,-0.79565,-0.01741,-0.61117,5.34,30.78,12.3
1.7434,-10.665,-0.65378,-0.66645,-0.012523,-0.34636,4.08,31.14,11.82
1.8524,-11.373,-0.51757,-0.56719,-0.045204,-0.12431,3.54,31.14,11.7
1.3348,-10.842,-0.23155,-0.46395,-0.040317,0.030849,3.0,31.38,11.28
1.2531,-11.468,-0.027241,-0.32406,0.036957,0.16768,2.82,31.44,11.28
1.0351,-12.217,0.027241,-0.086132,0.32162,0.46059,2.7,31.38,11.16
0.98067,-12.435,0.19068,0.084299,0.6524,0.76633,2.52,31.44,11.1
1.2803,-10.978,0.068102,0.34422,0.87568,1.0223,2.52,31.32,11.1
1.9886,-8.3084,-0.83084,0.9725,0.71746,1.226,2.16,30.9,11.16
2.3699,-8.2812,-1.0488,1.3912,0.30482,1.2462,1.74,30.78,11.28
2.4517,-8.9758,-1.3893,1.5647,0.05681,1.2379,1.56,30.78,11.1
2.4789,-10.147,-1.7706,1.8082,-0.66798,1.2895,1.14,31.02,11.16
2.3018,-10.12,-1.9341,1.7281,-1.0382,1.3766,1.14,31.32,11.16
1.9068,-9.4117,-2.0294,1.5644,-1.2092,1.493,1.02,31.2,11.28
1.185,-8.1177,-2.3155,1.3864,-1.1802,1.6249,1.14,31.44,11.28
0.6674,-7.3958,-2.5742,1.2541,-0.93676,1.6741,1.56,31.56,11.52
0.40861,-7.0826,-2.7922,1.1405,-0.081245,1.6078,2.04,31.62,11.28
0.25879,-6.8919,-3.0237,1.1112,0.66829,1.5684,3.3,31.92,11.1
0.8036,-7.2324,-2.9692,1.0861,1.3182,1.5543,4.26,32.1,11.04
1.4438,-7.6955,-2.9556,1.033,1.653,1.5666,5.16,32.34,10.98
2.7649,-8.8668,-3.1191,0.967,1.5113,1.6924,6.96,32.88,10.62
3.2825,-9.507,-3.2825,0.87445,1.0993,1.7791,7.98,33.12,10.44
3.2825,-9.8748,-3.4459,0.79901,0.66096,1.8118,9.06,33.36,10.26
2.9965,-10.202,-3.3915,0.74373,0.38118,1.763,11.16,33.6,9.48
2.7104,-10.256,-3.5277,0.69822,0.27947,1.6078,12.0,33.66,9.06
2.3427,-9.8748,-3.4323,0.64568,0.37721,1.3717,13.08,33.78,8.64
2.1112,-9.5615,-3.5822,0.60812,0.68845,0.93646,14.52,33.96,7.68
2.5061,-10.583,-3.6911,0.59559,0.81825,0.67073,15.18,34.14,6.96
2.7377,-11.278,-3.732,0.56261,0.82192,0.55772,15.72,34.32,6.6
3.2553,-12.367,-3.8818,0.41386,0.7199,0.38179,16.08,34.44,6.06
3.2825,-12.558,-3.2553,0.07025,0.49266,0.11179,16.68,34.62,5.34
3.0918,-13.184,-2.8058,-0.12706,0.41966,-0.1295,16.86,34.74,4.86
3.0101,-13.893,-2.8739,-0.29932,0.41753,-0.41111,17.22,34.74,4.68
2.6968,-12.871,-3.514,-0.53115,0.52779,-0.85338,17.46,34.86,4.14
2.6151,-11.387,-3.1872,-0.65454,0.60109,-1.1313,17.64,34.86,3.96
2.5742,-10.665,-2.833,-0.72418,0.61423,-1.2611,17.76,34.98,3.9
2.833,-10.706,-2.0158,-0.94562,0.42028,-1.6887,17.82,35.1,3.9
3.0101,-12.422,-1.7979,-1.1228,0.12248,-1.9679,17.52,35.52,3.84
3.0237,-13.675,-1.7298,-1.3063,-0.17868,-2.1704,17.28,35.76,4.08
2.8875,-13.402,-1.6753,-1.4462,-0.42455,-2.2721,16.44,35.94,4.5
2.3291,-12.081,-1.6208,-1.4868,-0.53909,-2.3301,15.72,36.0,4.68
1.9613,-10.91,-1.4438,-1.4444,-0.49297,-2.3387,15.12,36.3,5.22
1.8796,-10.12,-1.2258,-1.2911,-0.22144,-2.357,14.34,36.48,5.46
1.6072,-8.322,-0.8036,-1.2217,-0.0018326,-2.4089,12.42,36.96,6.3
1.5936,-7.9815,-0.61292,-1.1677,0.14966,-2.4315,11.22,37.2,6.66
1.866,-7.4367,-0.50395,-1.1057,0.16738,-2.3512,9.96,37.32,7.14
2.2474,-7.4095,-0.57205,-1.0678,0.08827,-2.2862,6.78,37.86,8.1
2.3427,-7.4776,-0.65378,-0.9893,-0.15699,-2.1173,5.16,38.1,8.46
2.3291,-7.5593,-0.54481,-0.83139,-0.54672,-1.7572,3.54,38.22,8.82
2.1112,-7.7227,-0.35413,-0.71868,-0.73945,-1.4404,0.48,38.4,9.36
1.7979,-7.75,-0.36775,-0.60873,-0.81276,-1.1173,-1.14,38.52,9.48
1.5527,-7.5729,-0.46309,-0.43158,-0.7028,-0.65607,-3.78,38.76,9.9
1.4438,-7.6002,-0.40861,-0.32651,-0.54,-0.36682,-4.92,38.82,10.02
1.58,-7.9815,-0.57205,-0.23274,-0.36377,-0.078802,-6.18,38.82,10.08
1.7298,-8.5808,-0.57205,-0.12065,-0.26634,0.24038,-7.14,38.88,10.38
2.0703,-10.052,-0.72188,-0.037874,-0.25198,0.53451,-8.1,38.88,10.44
2.1248,-10.61,-0.61292,0.041844,-0.21533,0.7761,-9.66,38.82,10.68
1.9886,-10.011,-0.76274,0.135,-0.15638,0.97494,-10.08,39.06,10.74
2.0294,-11.087,-0.98067,0.30421,-0.07086,1.1729,-10.56,38.94,10.8
2.1929,-11.809,-1.0624,0.50305,0.069028,1.5229,-10.68,38.94,10.8
2.3291,-11.809,-1.076,0.57085,0.1069,1.6475,-10.68,39.12,10.98
2.3291,-10.91,-1.3212,0.80176,0.11301,1.8592,-10.5,39.48,11.34
2.4789,-9.9565,-1.9341,1.0128,0.020159,1.825,-10.26,39.6,11.52
2.6151,-9.7385,-2.3291,1.2575,-0.17104,1.7132,-10.08,39.9,11.64
2.547,-10.624,-2.5742,1.4285,-0.38729,1.5663,-9.6,40.56,12.12
2.4517,-11.087,-2.6151,1.4639,-0.68906,1.3332,-9.3,40.74,12.18
2.3291,-11.25,-2.5742,1.3442,-0.82161,1.2254,-9.06,41.1,12.3
1.8387,-10.569,-2.7241,1.1478,-0.82436,1.1689,-7.74,41.7,12.48
1.5391,-9.4798,-2.833,0.95509,-0.63927,1.1264,-6.96,42.06,12.54
1.1305,-8.3493,-3.0646,0.77824,-0.043982,1.0076,-5.1,42.9,12.66
0.7355,-6.8919,-3.0237,0.72846,0.2306,0.95753,-4.02,43.14,12.48
0.92618,-6.6467,-2.9965,0.68447,0.96792,0.8375,-2.82,43.44,12.42
1.3212,-6.8238,-2.7649,0.65607,1.1353,0.81276,-1.74,43.62,12.3
2.1248,-7.3141,-2.7377,0.57513,1.3448,0.8323,0.36,44.22,11.82
2.6696,-7.641,-2.942,0.55833,1.1475,0.91416,1.38,44.52,11.52
2.9829,-7.9815,-3.1054,0.55497,0.79168,1.0278,2.46,44.88,11.22
2.9965,-8.7306,-3.0918,0.55833,0.17196,1.1536,4.32,45.18,10.32
2.7649,-8.7579,-3.1872,0.54795,-0.071777,1.1325,5.34,45.42,9.96
2.6423,-8.7306,-3.1054,0.51985,-0.12981,1.0971,6.3,45.6,9.48
2.3836,-8.6217,-3.1191,0.46334,-0.084299,0.85399,7.08,46.08,9.0
1.9477,-8.7715,-3.2416,0.43371,0.092546,0.62156,8.28,46.5,8.16
1.9886,-9.7658,-3.1191,0.39004,0.29352,0.39004,8.76,46.68,7.56
2.2882,-11.809,-3.4051,0.25656,0.47189,0.17532,9.66,47.1,7.02
2.6968,-12.735,-3.3506,0.19273,0.47647,0.13103,9.78,47.4,6.54
2.5061,-12.027,-2.7786,-0.18143,0.57971,-0.062308,9.9,47.64,6.24
2.2882,-11.278,-2.2201,-0.32406,0.78221,-0.25534,9.96,47.76,6.06
2.3563,-12.531,-1.9613,-0.33628,0.99785,-0.3882,9.9,48.0,5.7
2.833,-12.83,-2.6015,-0.32437,1.0562,-0.49633,9.96,48.06,5.58
3.7728,-11.795,-3.1599,-0.1744,0.89797,-0.48686,9.96,48.42,5.64
3.9499,-11.141,-2.6015,-0.1295,0.28894,-0.45418,9.72,48.48,5.64
4.0861,-10.896,-1.866,-0.26603,-0.32742,-0.4777,9.48,48.66,5.64
4.127,-11.06,-1.3893,-0.4105,-1.0058,-0.58735,9.12,48.42,5.88
3.7728,-11.891,-1.5936,-0.54672,-1.5696,-0.68967,8.34,48.48,6.18
3.3778,-12.313,-1.6617,-0.65363,-1.9392,-0.77122,7.8,48.42,6.54
2.8194,-12.149,-1.6208,-0.70677,-2.1032,-0.91202,6.84,48.12,6.96
2.3155,-11.359,-1.3757,-0.83444,-1.854,-1.0986,6.36,47.82,7.56
1.7434,-10.351,-1.2258,-0.94287,-1.3512,-1.3396,5.94,47.7,7.92
1.2531,-9.0031,-1.185,-1.0415,-0.76205,-1.6002,5.1,47.22,9.06
1.2803,-8.4446,-1.0215,-1.1215,-0.24587,-1.8662,4.62,47.04,9.66
1.6072,-7.9407,-1.0215,-1.2007,0.15882,-2.054,3.84,46.74,10.14
2.1248,-7.9951,-0.76274,-1.2333,0.31887,-2.1466,2.1,46.02,11.34
2.3836,-8.3084,-0.7355,-1.2321,0.20892,-2.0834,1.32,45.66,11.88
2.547,-8.3765,-0.7355,-1.1982,-0.012217,-1.9511,0.24,45.36,12.36
2.6287,-8.6898,-0.7355,-1.1368,-0.27336,-1.7575,-0.72,45.24,12.72
2.3427,-8.9486,-0.50395,-1.0589,-0.46976,-1.5598,-2.7,44.22,13.38
1.9613,-8.9894,-0.54481,-0.97891,-0.5006,-1.4007,-3.6,43.86,13.62
1.7298,-9.0439,-0.53119,-0.89858,-0.41111,-1.2929,-4.74,43.44,13.98
1.5936,-9.8066,-0.35413,-0.80909,-0.11912,-1.1585,-6.72,42.6,14.64
1.7025,-10.379,-0.31327,-0.76022,0.096822,-1.0177,-7.62,42.06,14.88
1.7434,-10.61,-0.27241,-0.66371,0.21075,-0.82345,-8.58,41.58,15.0
1.8932,-10.542,-0.38137,-0.51679,0.24679,-0.58063,-10.14,40.68,15.24
1.9068,-10.134,-0.44947,-0.30665,0.22846,-0.31643,-10.8,40.08,15.48
1.866,-10.12,-0.50395,-0.040012,0.18326,0.016188,-11.34,39.66,15.54
1.866,-10.733,-0.44947,0.32315,0.12126,0.6524,-12.3,38.82,15.6
2.0294,-10.91,-0.57205,0.53787,0.068111,1.0715,-12.48,38.28,15.72
2.1248,-10.379,-0.72188,0.63316,0.016493,1.2339,-12.6,37.62,15.72
2.152,-8.9486,-1.1713,0.93859,-0.16249,1.4395,-12.84,37.2,15.9
2.2882,-8.8532,-1.5255,1.1668,-0.36285,1.4083,-12.96,37.02,15.96
2.2337,-9.4661,-1.7298,1.3262,-0.57085,1.3176,-13.08,37.02,15.78
1.9886,-10.746,-1.9205,1.3497,-0.71044,1.2126,-13.2,37.2,15.78
1.8387,-10.883,-2.1248,1.2327,-0.7251,1.2242,-13.2,37.32,15.78
1.6617,-10.719,-2.1248,1.0617,-0.61087,1.2727,-12.9,37.56,15.72
1.2122,-8.9349,-2.3291,0.90378,-0.35216,1.3436,-12.36,38.1,15.9
0.89894,-7.9543,-2.5061,0.81856,0.027489,1.3809,-11.88,38.46,15.96
0.74912,-7.3958,-2.656,0.78588,0.54062,1.3534,-11.04,38.76,16.14
0.99429,-6.7148,-2.6968,0.79474,1.292,1.2966,-9.36,39.3,16.32
1.3757,-6.7557,-2.438,0.77855,1.5849,1.2984,-8.28,39.72,16.44
1.866,-6.9464,-2.3972,0.76938,1.6509,1.3066,-7.38,40.2,16.38
2.6287,-7.5729,-2.6015,0.73701,1.4224,1.4536,-5.46,40.74,16.14
3.0646,-8.2131,-2.8603,0.73518,0.98838,1.5803,-4.44,41.04,15.9
3.2553,-8.7306,-2.833,0.73243,0.50641,1.6967,-3.36,41.34,15.9
2.8467,-9.507,-3.1054,0.76694,0.011912,1.7724,-1.14,41.88,15.24
2.6151,-9.8475,-3.1463,0.7703,-0.094073,1.719,-0.06,42.24,14.88
2.6151,-9.8475,-3.1463,0.7364,-0.012828,1.5718,-0.06,42.24,14.88
2.1248,-9.8066,-3.228,0.7025,0.19761,1.3586,2.22,42.78,13.86
2.152,-10.474,-3.2689,0.69333,0.45204,1.1365,4.26,43.08,12.66
2.3836,-11.005,-3.5004,0.66157,0.62339,0.90805,5.04,43.26,11.88
3.1599,-12.408,-3.732,0.48778,0.58704,0.61331,6.42,43.92,10.62
2.9965,-12.599,-3.2144,0.38668,0.53512,0.50335,7.5,44.52,9.6
2.9284,-13.661,-2.7104,-0.033903,0.42547,0.0048869,8.76,45.12,8.82
2.9284,-13.879,-2.7513,-0.13622,0.4331,-0.12523,9.3,45.24,8.52
2.9284,-13.661,-3.1872,-0.31857,0.49266,-0.36377,10.38,45.6,7.92
2.7649,-12.0,-3.0918,-0.47709,0.551,-0.58032,10.8,45.66,7.56
2.8058,-11.019,-2.3018,-0.58887,0.5678,-0.78099,10.74,45.66,7.38
3.2689,-11.387,-1.9341,-0.74831,0.31093,-1.1011,10.56,45.66,7.32
3.4323,-12.299,-1.866,-0.88209,-0.072998,-1.3088,10.02,45.66,7.68
3.4187,-12.476,-1.7979,-1.0024,-0.48258,-1.4719,9.84,45.66,8.04
3.0918,-12.19,-1.6753,-1.0705,-0.82345,-1.5797,9.06,45.36,8.46
2.6696,-11.414,-1.6208,-1.1102,-1.0415,-1.6396,8.22,45.0,9.24
2.152,-10.134,-1.471,-1.1011,-1.0736,-1.7071,7.26,44.64,10.26
1.9341,-9.3163,-1.3757,-1.0745,-0.87629,-1.8262,6.06,44.34,10.98
1.7706,-8.7306,-1.1577,-1.1047,-0.69394,-1.93,4.98,43.74,12.06
1.7434,-8.4719,-1.0624,-1.1368,-0.61392,-1.9917,4.38,43.56,12.84
1.7025,-8.2131,-0.76274,-1.2645,-0.39401,-2.0882,2.7,43.32,14.04
1.7298,-8.1177,-0.70826,-1.3036,-0.31521,-2.0864,0.9,42.78,14.88
1.7979,-8.3493,-0.68102,-1.2972,-0.29199,-2.0421,-1.26,42.12,15.54
1.866,-8.4991,-0.70826,-1.2553,-0.27519,-1.9474,-2.1,41.88,15.84
1.7162,-8.6217,-0.5993,-1.2028,-0.24679,-1.784,-4.38,41.28,16.26
1.7298,-8.717,-0.42223,-1.0788,-0.16066,-1.503,-6.36,40.56,16.68
1.6344,-8.54,-0.35413,-0.99021,-0.084299,-1.3002,-8.04,39.72,16.98
1.6753,-8.6353,-0.38137,-0.86346,-0.029322,-1.0876,-8.94,39.3,17.22
1.8387,-9.5479,-0.49033,-0.75228,0.000611,-0.85277,-10.26,38.46,17.28
2.0567,-10.569,-0.39499,-0.6408,-0.0082467,-0.59346,-11.34,37.38,17.22
2.0567,-11.237,-0.25879,-0.54886,-0.039095,-0.31979,-11.94,36.54,17.34
1.9205,-10.924,-0.31327,-0.38179,-0.057421,0.029932,-12.06,36.12,17.46
1.58,-10.106,-0.40861,-0.16921,-0.030849,0.2364,-12.3,35.34,17.82
1.4438,-11.496,-0.35413,0.064752,0.048258,0.47189,-12.3,35.04,18.0
1.5119,-11.7,-0.34051,0.2361,0.20769,0.7761,-12.48,34.38,18.18
1.6208,-11.359,-0.58567,0.39034,0.35675,1.0989,-12.6,34.02,18.36
1.7298,-9.5479,-0.98067,0.55772,0.43341,1.3198,-12.54,33.78,18.36
1.8387,-8.8668,-1.2395,0.90744,0.35247,1.3748,-12.66,33.66,18.6
2.0431,-8.6081,-1.6344,1.1567,0.15363,1.2926,-12.6,33.78,18.66
2.0975,-9.4934,-1.9068,1.3161,-0.066584,1.1949,-12.78,34.08,18.72
2.0294,-10.433,-2.1112,1.3268,-0.26053,1.1353,-12.72,34.38,18.72
1.7298,-10.46,-2.0567,1.226,-0.41905,1.1487,-12.54,34.98,18.54
1.6753,-10.052,-2.1248,1.0641,-0.45296,1.2511,-12.24,35.28,18.66
1.3893,-8.826,-2.4108,0.89461,-0.24862,1.4364,-11.46,35.94,18.9
1.0215,-7.464,-2.8058,0.8882,0.039095,1.4923,-10.26,36.42,19.26
0.85808,-6.9872,-2.9965,0.93585,0.4667,1.4835,-9.66,36.66,19.38
0.98067,-6.674,-2.9148,0.95417,0.93798,1.4587,-8.16,37.38,19.32
1.6753,-6.96,-2.6696,0.96792,1.2456,1.452,-6.36,38.22,19.26
2.2746,-7.4912,-2.8058,0.89889,1.2874,1.4899,-4.5,38.94,18.84
2.6968,-7.9679,-2.9284,0.85735,1.0116,1.5892,-3.6,39.36,18.6
3.0237,-8.7034,-3.1054,0.82986,0.6017,1.697,-1.8,40.14,17.94
2.9692,-9.1529,-3.2144,0.80726,0.23549,1.7944,-1.02,40.32,17.58
2.8875,-9.7522,-3.3778,0.83475,-0.02474,1.8344,0.6,40.98,16.56
2.6423,-10.256,-3.5277,0.84299,-0.14691,1.7846,2.1,41.76,15.36
2.3836,-10.052,-3.6775,0.82009,-0.11118,1.6472,3.42,42.54,14.22
2.2474,-9.7385,-3.5958,0.72021,0.17471,1.2633,4.02,42.84,13.74
2.2201,-9.9565,-3.4732,0.70463,0.39767,0.98319,5.16,43.38,12.42
2.7513,-11.836,-3.9908,0.63347,0.50091,0.70219,6.12,43.68,11.46
3.228,-12.463,-3.8546,0.44746,0.47464,0.43494,7.32,44.04,10.68
3.2961,-12.354,-3.6094,0.146,0.37293,0.17532,7.74,44.28,10.32
3.2144,-12.967,-2.4517,-0.079107,0.23854,-0.1014,8.82,44.7,9.6
3.4187,-14.683,-2.8194,-0.33231,0.041844,-0.49511,9.36,44.88,8.94
3.2825,-14.41,-3.0918,-0.54092,-0.026878,-0.76633,9.42,45.06,8.82
2.833,-12.19,-2.6423,-0.6411,0.0027489,-1.0107,9.6,45.18,8.58
2.9148,-10.992,-1.6344,-0.70524,0.071166,-1.2117,9.36,45.18,8.76
3.1054,-11.21,-1.2122,-0.81276,-0.0042761,-1.4413,9.3,45.18,8.82
3.514,-12.667,-0.99429,-0.90927,-0.27581,-1.6872,8.76,44.94,9.3
3.3778,-13.089,-1.0624,-1.0886,-0.86071,-1.9615,7.92,44.88,9.78
2.9829,-12.776,-1.1305,-1.1631,-1.1564,-2.0745,7.44,44.64,10.14
2.4108,-11.591,-1.0351,-1.2138,-1.2205,-2.1399,6.3,43.98,10.92
1.975,-10.597,-1.076,-1.1945,-1.0751,-2.2028,5.64,43.8,11.46
1.5255,-9.6568,-1.0079,-1.1622,-0.77274,-2.2856,4.26,43.2,12.72
1.4029,-8.7579,-0.91256,-1.1567,-0.41264,-2.3973,2.82,42.36,13.8
1.6072,-8.3765,-0.78998,-1.1729,-0.14936,-2.4731,0.72,41.58,14.76
1.7706,-8.1858,-0.68102,-1.1826,0.0058032,-2.4563,-1.8,40.98,15.54
1.9068,-8.1995,-0.5993,-1.1787,-0.084605,-2.364,-3.0,40.8,15.78
2.1112,-8.4719,-0.5993,-1.1356,-0.26542,-2.2043,-5.52,40.08,16.02
1.9068,-8.4719,-0.51757,-1.0666,-0.42211,-1.9914,-7.92,39.42,16.2
1.9205,-8.4582,-0.50395,-0.97952,-0.53787,-1.726,-8.88,39.0,16.08
1.5255,-8.3765,-0.47671,-0.88056,-0.55558,-1.4523,-10.68,38.16,16.02
1.3484,-8.2403,-0.38137,-0.70708,-0.38026,-1.0855,-12.12,37.32,15.72
1.3212,-8.322,-0.44947,-0.61209,-0.19792,-0.84452,-12.84,36.78,15.54
1.471,-8.7987,-0.46309,-0.5061,-0.033292,-0.60659,-13.74,36.0,15.36
1.7025,-9.4934,-0.40861,-0.405,0.045204,-0.30421,-13.92,35.64,15.24
1.866,-10.161,-0.27241,-0.30727,0.051618,0.023518,-14.04,34.5,15.18
2.0022,-10.215,-0.24517,-0.20525,0.018326,0.33262,-14.1,33.36,15.42
1.8387,-10.27,-0.24517,0.073609,-0.053451,0.75136,-13.98,32.4,15.78
1.9477,-11.223,-0.34051,0.27306,-0.050091,1.062,-13.86,32.1,15.9
1.8524,-11.387,-0.42223,0.44532,0.0058032,1.3665,-13.74,31.5,16.32
1.8932,-11.877,-0.47671,0.60079,0.12309,1.6738,-13.74,31.38,16.26
2.261,-10.719,-0.96704,0.75198,0.20831,1.8537,-13.8,31.44,16.26
2.4108,-10.351,-1.2531,0.97525,0.16035,1.8955,-14.04,31.56,16.08
2.5879,-9.7385,-1.975,1.3509,-0.15211,1.7599,-14.16,31.98,16.02
2.5879,-9.8884,-2.3155,1.5122,-0.40256,1.6377,-14.16,32.82,15.84
2.2337,-9.8475,-2.4108,1.5183,-0.59559,1.5385,-13.68,33.48,15.84
1.975,-9.7385,-2.4517,1.383,-0.69761,1.4838,-13.5,33.96,15.84
1.4438,-8.9894,-2.3018,1.1579,-0.64294,1.4875,-12.84,34.92,16.2
0.89894,-8.036,-2.4925,0.93523,-0.38026,1.5253,-12.36,35.46,16.2
0.74912,-7.75,-2.6015,0.69333,0.35522,1.5681,-10.92,36.12,16.86
0.70826,-7.4776,-2.7649,0.62064,1.0119,1.5971,-9.06,36.78,17.16
1.1713,-7.641,-2.5879,0.60323,1.5846,1.6457,-7.92,37.14,17.28
1.866,-7.9543,-2.4789,0.58887,1.9386,1.6823,-5.88,37.74,17.52
2.9284,-8.4174,-2.4789,0.5846,2.0082,1.7358,-3.84,38.04,17.46
3.2553,-8.6625,-2.6151,0.58521,1.7465,1.777,-2.88,38.22,17.28
3.8137,-9.2891,-2.7649,0.60476,1.2663,1.7862,-1.14,38.82,16.62
3.7047,-9.6568,-2.9148,0.60995,0.48319,1.7129,0.54,39.18,15.96
3.3778,-9.7658,-3.0646,0.60812,0.11301,1.5632,2.04,39.42,15.12
3.228,-9.7385,-3.0918,0.5904,-0.1066,1.3433,2.58,39.6,14.58
2.7377,-9.3027,-3.1599,0.54214,-0.13286,1.0672,3.36,40.2,13.56
2.3836,-9.4117,-3.051,0.49786,-0.0097738,0.74862,3.72,40.86,12.72
2.5198,-10.842,-3.1872,0.43799,0.24404,0.33109,4.38,41.34,12.06
2.8603,-11.931,-3.4459,0.32467,0.35369,0.087965,4.68,41.52,11.64
3.0373,-12.19,-3.6639,0.11606,0.3989,-0.10721,5.16,41.82,11.1
2.9692,-11.605,-2.9284,-0.062614,0.4331,-0.34697,5.46,42.0,10.86
3.0237,-13.239,-2.6015,-0.13989,0.41081,-0.59284,5.82,42.18,10.8
3.1599,-13.484,-2.8467,-0.27794,0.35155,-0.83963,5.82,42.36,10.56
3.0373,-12.98,-3.0373,-0.36469,0.28283,-1.0275,5.76,42.36,10.44
3.0918,-11.741,-2.5606,-0.47678,0.085216,-1.1646,5.4,42.36,10.38
3.4459,-12.0,-2.0294,-0.58246,-0.20495,-1.2294,5.28,42.18,10.56
3.6775,-12.585,-1.6344,-0.74526,-0.65088,-1.3286,4.92,42.3,10.62
3.4732,-13.239,-1.2531,-0.90316,-1.0715,-1.4163,4.2,42.12,10.92
3.1599,-12.912,-1.0896,-1.0232,-1.3628,-1.5018,3.84,42.06,11.04
2.6015,-12.0,-1.0351,-1.0586,-1.4554,-1.5974,3.3,41.82,11.4
2.0975,-10.542,-1.0624,-1.0168,-1.2956,-1.7547,2.28,41.46,12.36
1.7979,-9.4798,-1.0896,-0.96608,-1.0492,-1.8833,1.74,41.1,12.78
1.6889,-9.221,-1.0624,-0.95936,-0.77061,-2.0385,0.96,40.68,13.32
1.6617,-8.4855,-0.76274,-1.0241,-0.55222,-2.1658,-0.54,39.84,14.4
1.7298,-8.1995,-0.58567,-1.1274,-0.33231,-2.2504,-1.44,39.48,15.06
1.8932,-8.1586,-0.50395,-1.1435,-0.31643,-2.2541,-3.36,38.88,16.26
1.9341,-8.3765,-0.40861,-1.168,-0.34575,-2.197,-4.32,38.4,16.68
1.8251,-8.4719,-0.54481,-1.1399,-0.39462,-2.0876,-5.28,37.98,17.04
1.8524,-8.5127,-0.46309,-1.0403,-0.44196,-1.7856,-6.18,37.44,17.46
1.7434,-8.3765,-0.40861,-0.95081,-0.42364,-1.5351,-7.8,36.18,18.18
1.58,-8.3493,-0.34051,-0.81825,-0.28222,-1.1875,-8.52,35.58,18.42
1.3484,-8.2539,-0.16344,-0.7703,-0.20953,-1.0883,-9.18,34.92,18.78
1.3484,-8.6217,-0.24517,-0.71196,-0.019853,-0.89186,-10.5,33.6,19.14
1.6072,-9.5206,-0.28603,-0.64385,0.15821,-0.66768,-11.04,32.94,19.2
1.7434,-10.052,-0.29965,-0.54092,0.29596,-0.25779,-11.46,32.22,19.26
2.0022,-10.746,-0.21793,-0.44227,0.29658,0.021991,-12.18,31.08,19.32
1.9477,-10.365,-0.23155,-0.29169,0.27825,0.39126,-12.3,30.6,19.26
1.9477,-10.174,-0.28603,-0.061087,0.26237,0.52779,-12.48,30.06,19.26
2.0975,-10.842,-0.50395,0.31337,0.24404,0.99999,-12.18,29.1,19.26
2.2337,-10.924,-0.62654,0.44104,0.2138,1.1805,-12.12,28.56,19.32
2.3699,-10.774,-0.8036,0.80787,0.034208,1.613,-11.88,28.32,19.26
2.547,-9.4798,-1.7298,1.0931,-0.2025,1.7315,-11.88,27.84,19.32
2.6015,-9.1393,-2.152,1.3454,-0.67531,1.7037,-12.0,27.72,19.38
2.3291,-9.8339,-2.3972,1.5296,-0.8094,1.6695,-11.94,27.96,19.5
2.0294,-10.46,-2.3018,1.5464,-0.96456,1.6008,-11.88,28.32,19.74
1.8932,-10.665,-2.4789,1.3231,-0.96303,1.5418,-11.76,28.8,19.92
1.5527,-10.678,-2.5061,1.1072,-0.81642,1.5461,-11.4,29.34,19.98
1.0896,-9.4389,-2.8603,0.90316,-0.51343,1.5592,-10.26,30.06,20.34
0.78998,-8.5808,-2.9011,0.75778,-0.062003,1.5287,-9.42,30.42,20.58
0.64016,-7.464,-2.9556,0.66676,0.53848,1.4474,-7.62,31.32,20.88
0.98067,-6.96,-2.7377,0.6185,1.4441,1.285,-6.72,31.68,21.12
1.4165,-7.1507,-2.5061,0.59284,1.8326,1.1939,-5.88,32.22,21.12
2.0158,-7.3005,-2.4653,0.56474,1.9618,1.1377,-4.98,32.7,21.24
3.1872,-8.0632,-2.656,0.53237,1.7483,1.1402,-2.82,33.6,21.36
3.4459,-8.2812,-2.8603,0.53237,1.2614,1.1912,-1.86,34.08,21.36
3.732,-8.826,-2.8603,0.51832,0.38912,1.2752,0.18,34.62,21.0
3.2008,-9.3299,-2.8058,0.51557,-0.0030543,1.2889,1.14,34.92,20.7
2.8058,-9.507,-2.9556,0.51435,-0.11545,1.273,2.1,35.1,20.58
2.5606,-9.4525,-2.9692,0.51679,-0.12065,1.1154,2.76,35.46,20.34
2.1248,-8.826,-2.9692,0.4945,0.1069,0.93523,3.54,35.7,19.92
2.1248,-9.1393,-2.9011,0.50763,0.38912,0.73365,4.5,36.42,19.26
2.3836,-10.12,-3.1191,0.52443,0.59926,0.48136,4.98,36.6,18.9
3.4323,-12.354,-3.6366,0.49877,0.55925,0.41844,5.52,37.32,18.18
3.5277,-12.381,-3.6094,0.30055,0.25626,0.21655,6.06,37.68,17.94
3.3778,-12.177,-3.0646,0.13958,0.086743,0.011912,6.36,37.86,17.7
3.0646,-13.171,-2.656,0.0027489,-0.007025,-0.21625,6.9,38.28,17.22
2.8739,-13.184,-3.0918,-0.14905,0.0067195,-0.46914,7.32,38.52,16.98
2.6423,-11.754,-3.2825,-0.25443,0.18295,-0.78405,7.98,38.94,16.86
2.7649,-11.087,-2.942,-0.36744,0.20097,-0.85613,8.1,39.0,16.8
2.9011,-10.937,-2.5879,-0.47495,0.12889,-1.0079,8.22,39.12,16.74
3.4868,-11.591,-2.0839,-0.70555,-0.37263,-1.23,8.28,39.06,16.74
3.6366,-12.762,-1.8932,-0.82986,-0.89247,-1.3454,8.22,38.94,17.04
3.2008,-12.967,-1.7706,-0.96517,-1.2914,-1.471,8.1,38.76,17.16
2.5334,-11.931,-1.58,-1.0644,-1.4627,-1.6402,7.86,38.46,17.64
2.0975,-11.032,-1.4165,-1.0785,-1.3418,-1.7599,7.74,38.16,17.82
1.6617,-10.093,-1.3757,-1.065,-1.0589,-1.9108,7.32,37.86,18.12
1.5255,-8.9894,-1.1577,-1.0846,-0.75717,-2.0345,6.96,37.14,18.96
1.5391,-8.6898,-0.99429,-1.1234,-0.49602,-2.113,6.6,36.66,19.26
1.6208,-8.4174,-0.91256,-1.1542,-0.32987,-2.1322,6.06,36.18,19.74
1.8932,-8.5127,-0.85808,-1.1872,-0.28955,-2.0363,4.74,35.28,20.22
2.0158,-8.4991,-0.7355,-1.1845,-0.35339,-1.8964,4.08,34.98,20.34
1.9886,-8.5127,-0.76274,-1.1625,-0.42425,-1.7211,3.3,34.56,20.58
1.757,-8.1722,-0.54481,-1.1319,-0.44196,-1.5342,1.98,33.72,20.58
1.58,-8.1177,-0.50395,-1.0699,-0.38729,-1.336,1.32,33.36,20.76
1.4438,-7.9679,-0.54481,-0.99602,-0.26114,-1.175,0.72,33.0,20.7
1.3893,-7.6002,-0.28603,-0.92943,-0.1011,-0.99357,-0.42,32.04,20.52
1.4846,-7.927,-0.17706,-0.80817,0.14722,-0.70341,-0.9,31.56,20.46
1.5663,-8.2812,-0.17706,-0.75472,0.219,-0.58338,-1.32,31.08,20.28
1.7025,-9.0848,-0.12258,-0.64874,0.32406,-0.29108,-1.8,30.72,20.16
2.1248,-10.365,-0.095342,-0.46151,0.39523,0.17257,-2.76,30.18,19.86
2.2337,-10.202,-0.027241,-0.27092,0.3937,0.43799,-3.0,29.82,19.56
2.3427,-10.42,-0.50395,0.0027489,0.31673,0.67073,-3.12,29.58,19.32
2.3836,-11.782,-0.61292,0.3937,0.15577,0.98777,-3.06,28.8,19.08
2.3836,-12.0,-0.6674,0.51924,0.11118,1.1698,-3.0,28.56,19.08
2.2065,-11.727,-0.65378,0.61148,0.135,1.2865,-3.06,28.5,19.02
1.9477,-9.9292,-1.0896,0.70677,0.20433,1.2932,-3.06,28.14,18.66
1.9341,-9.0848,-1.4574,0.90591,0.2248,1.2385,-3.18,28.2,18.54
2.0567,-9.2074,-1.8524,1.1493,0.20342,1.1732,-3.24,28.32,18.42
2.438,-10.161,-2.5061,1.4007,0.000305,1.1084,-3.6,28.86,18.24
2.5606,-10.42,-2.7377,1.4438,-0.28008,1.1344,-3.66,29.04,18.18
2.5198,-10.447,-2.6423,1.423,-0.43433,1.1503,-3.72,29.28,18.0
2.3155,-9.9429,-2.547,1.2507,-0.73579,1.2196,-3.6,29.64,18.0
1.4165,-8.5536,-2.6968,1.1127,-0.71135,1.266,-2.94,30.18,17.94
1.0488,-7.75,-2.9011,1.0308,-0.47037,1.2675,-2.52,30.48,17.88
0.69464,-7.0553,-3.1054,0.98502,-0.027184,1.2559,-1.32,31.32,17.94
0.88532,-7.0145,-2.9965,0.94867,0.49236,1.2532,-0.6,31.56,17.7
1.1441,-7.1371,-2.9148,0.86926,1.0806,1.3048,0.36,31.92,17.76
2.0431,-7.641,-2.9011,0.80512,1.23,1.3824,2.1,32.58,17.58
2.5198,-8.1177,-3.1054,0.7703,1.1429,1.4994,3.06,32.7,17.52
2.8875,-8.8124,-3.3506,0.76877,0.85521,1.631,3.96,32.94,17.34
3.0646,-9.221,-3.5277,0.71807,0.37202,1.7645,4.86,33.18,17.22
3.0646,-9.221,-3.5277,0.69425,0.25901,1.7636,4.86,33.18,17.22
2.3836,-9.8066,-3.2825,0.54703,0.2138,1.5834,5.94,33.42,16.98
2.3836,-9.8066,-3.2825,0.45112,0.45601,1.3399,5.94,33.42,16.98
1.9886,-9.5615,-3.1054,0.42669,0.79107,1.0476,7.08,33.72,16.62
2.438,-10.665,-3.3915,0.45479,1.0101,0.77305,9.18,34.02,15.66
3.3778,-12.054,-3.7456,0.44104,0.98655,0.54245,10.56,34.56,14.88
4.1133,-12.572,-3.6775,0.26084,0.51435,0.29688,11.52,35.04,13.98
4.127,-12.299,-2.7377,0.083994,0.062308,0.094379,12.36,35.28,13.14
3.6094,-13.021,-2.6151,-0.050091,-0.28466,-0.15516,12.9,35.64,12.36
2.9284,-13.675,-3.1463,-0.17868,-0.41966,-0.42791,13.62,35.7,11.88
2.547,-12.721,-3.3915,-0.32742,-0.32498,-0.65882,14.22,35.88,11.46
2.7922,-11.877,-2.7649,-0.45571,-0.13195,-0.83658,14.34,35.94,11.28
3.0646,-11.836,-2.3836,-0.60995,-0.096211,-0.97983,14.22,35.94,11.16
3.4459,-12.286,-1.7162,-0.92424,-0.43768,-1.2538,14.1,35.76,11.1
3.4459,-12.653,-1.5527,-1.0128,-0.61178,-1.354,13.92,35.7,11.04
2.9148,-12.64,-1.185,-1.2737,-1.0244,-1.6875,13.68,35.34,11.1
2.4517,-12.108,-1.0351,-1.3653,-1.0663,-1.8894,13.44,35.4,11.16
1.866,-10.665,-1.1032,-1.3799,-0.81795,-2.1463,12.78,34.98,11.46
1.6072,-9.7658,-0.85808,-1.2941,-0.5342,-2.2972,12.42,34.92,11.76
1.4982,-9.0031,-0.81722,-1.2761,-0.3766,-2.3534,11.76,34.86,12.06
1.5119,-8.4446,-0.72188,-1.23,0.054672,-2.4581,11.1,34.8,12.24
1.7025,-7.7091,-0.28603,-1.2098,0.21166,-2.437,9.42,34.5,12.78
1.9886,-7.5865,-0.054481,-1.1661,0.219,-2.3579,8.28,34.5,12.96
2.0839,-7.5729,-0.027241,-1.0986,0.10263,-2.2116,7.08,34.56,13.14
2.1656,-7.6546,-0.040861,-1.0174,-0.088575,-2.0024,4.62,34.62,13.5
2.1248,-7.8726,-0.054481,-0.91049,-0.30421,-1.7349,3.36,34.56,13.5
1.9886,-8.0769,-0.054481,-0.79626,-0.47495,-1.4441,2.22,34.62,13.62
1.7706,-8.1858,0.040861,-0.66981,-0.49816,-1.0165,1.08,34.44,13.68
1.5119,-8.322,0.054481,-0.61789,-0.36163,-0.7703,-0.9,34.38,13.8
1.4301,-8.5672,0.12258,-0.55497,-0.16432,-0.53909,-1.92,34.44,13.74
1.7706,-9.6432,0.040861,-0.49022,0.037874,-0.30146,-3.66,34.5,13.8
2.0567,-10.392,-0.14982,-0.31948,0.16218,0.097433,-4.44,34.62,13.74
2.3018,-10.746,-0.10896,-0.25504,0.14661,0.21869,-5.1,34.56,13.8
2.2746,-10.515,-0.054481,-0.020769,0.049175,0.51496,-5.7,34.62,13.68
2.0567,-10.787,-0.23155,0.18265,-0.021991,0.71838,-6.48,34.38,13.62
2.0839,-11.536,-0.28603,0.36224,-0.055589,0.94623,-6.48,34.26,13.68
2.1112,-12.0,-0.5993,0.52779,-0.048258,1.226,-6.6,34.26,13.8
2.3155,-11.305,-0.89894,0.76938,-0.040928,1.562,-6.6,34.32,13.98
2.4244,-10.229,-1.2395,0.87812,-0.091324,1.6017,-6.54,34.26,14.16
2.4925,-9.5887,-1.6072,1.2004,-0.36255,1.5366,-6.66,34.44,14.28
2.5742,-9.4798,-1.866,1.4099,-0.60781,1.4099,-6.78,34.68,14.22
2.3836,-10.215,-2.3563,1.5244,-0.80207,1.2788,-6.72,35.1,14.34
2.1248,-10.324,-2.3836,1.4389,-0.95112,1.1487,-6.6,35.34,14.4
1.6753,-9.5615,-2.6015,1.3751,-0.96486,1.1475,-6.06,35.94,14.64
1.6753,-9.5615,-2.6015,1.2895,-0.94837,1.1661,-6.06,35.94,14.64
1.0079,-7.8589,-2.9556,0.97708,-0.49388,1.23,-4.62,36.66,14.76
0.76274,-7.3822,-3.0782,0.88087,-0.047647,1.2382,-3.78,37.02,14.88
0.7355,-6.9191,-3.1327,0.82345,0.5174,1.2159,-2.04,37.68,14.88
1.2122,-6.9464,-3.0101,0.78007,1.0208,1.2398,-0.96,38.16,14.7
1.6208,-7.1371,-2.9965,0.72815,1.3094,1.274,0.12,38.46,14.52
2.6015,-7.641,-2.9284,0.64202,1.3008,1.3671,2.22,39.3,14.16
2.9284,-8.4174,-3.0782,0.60537,1.0055,1.4419,3.36,39.66,14.1
3.1463,-8.8532,-3.1599,0.5565,0.63255,1.4798,4.32,39.84,13.92
2.9556,-9.8066,-3.2008,0.51557,0.38515,1.4548,6.3,40.5,13.32
2.7513,-9.8748,-3.1054,0.45571,0.30329,1.3439,7.32,40.86,12.96
2.4108,-9.616,-3.0373,0.4105,0.38362,1.1509,9.06,41.22,12.06
2.3427,-9.1393,-2.9284,0.35339,0.64996,0.73609,9.6,41.52,11.58
2.3427,-9.221,-2.9284,0.37049,0.72876,0.59132,9.96,41.7,11.1
3.1054,-11.278,-3.3097,0.42058,0.68081,0.21472,10.62,42.3,10.38
3.514,-12.19,-3.4596,0.36011,0.43768,0.063225,10.92,42.48,9.96
3.5549,-12.395,-3.051,0.18845,0.14233,-0.046426,11.28,42.54,9.78
3.1599,-12.762,-2.3018,-0.063225,-0.1014,-0.26664,11.46,43.08,9.6
2.9148,-13.416,-2.2474,-0.21228,-0.1069,-0.45418,11.52,43.2,9.54
2.833,-13.675,-2.5334,-0.33659,0.0054978,-0.6524,11.64,43.44,9.18
2.7241,-12.217,-2.7786,-0.37813,0.12675,-0.83536,11.64,43.8,9.3
2.8603,-11.332,-2.3563,-0.41692,0.15058,-0.9783,11.52,43.86,9.54
3.5277,-11.768,-1.6481,-0.50916,0.0027489,-1.1176,11.28,43.8,9.66
3.7047,-12.435,-1.4165,-0.72143,-0.65393,-1.3363,10.38,43.86,10.08
3.6775,-12.926,-1.3212,-0.84971,-1.1875,-1.4591,9.9,43.92,10.38
3.3234,-12.803,-1.2531,-0.99205,-1.5354,-1.5965,9.48,43.98,10.74
2.2474,-11.605,-0.98067,-1.0757,-1.5797,-1.7199,8.34,43.8,11.52
1.7025,-10.842,-0.98067,-1.1347,-1.3696,-1.8405,7.74,43.56,12.0
1.3212,-10.093,-1.0624,-1.1643,-0.96486,-1.9755,6.96,43.38,12.54
1.2803,-8.9758,-0.85808,-1.1955,-0.48381,-2.0925,5.4,42.9,13.92
1.3893,-8.4855,-0.70826,-1.2223,-0.10721,-2.1713,4.56,42.66,14.46
1.5119,-8.3357,-0.5993,-1.255,0.16921,-2.189,3.42,42.3,15.06
1.7979,-8.0088,-0.40861,-1.2712,0.32223,-2.1206,0.96,41.7,16.08
1.9341,-8.036,-0.31327,-1.2666,0.30665,-1.9887,-0.3,41.4,16.38
1.9886,-8.036,-0.14982,-1.2144,0.22388,-1.8069,-2.76,40.8,17.16
1.9886,-8.1313,-0.095342,-1.0907,0.099571,-1.4487,-3.84,40.38,17.34
1.866,-8.0905,-0.01362,-0.96761,0.036957,-1.1906,-4.92,39.9,17.52
1.8932,-7.927,-0.040861,-0.81184,0.0064141,-0.91844,-5.88,39.54,17.64
1.8387,-7.6002,-0.040861,-0.64232,-0.011912,-0.66309,-7.68,38.76,18.0
1.866,-7.8726,-0.027241,-0.4777,-0.029932,-0.39401,-8.64,38.34,18.06
2.0158,-8.6081,-0.068102,-0.32406,-0.068417,-0.10721,-9.36,38.04,18.12
2.1656,-10.379,-0.081722,-0.14019,-0.14722,0.37904,-10.68,37.38,17.7
2.1929,-10.665,-0.12258,-0.029627,-0.18082,0.6802,-11.22,37.08,17.46
2.2337,-10.515,-0.21793,0.047647,-0.19853,0.80084,-11.64,36.84,17.46
2.0567,-11.087,-0.35413,0.31918,-0.1573,1.1854,-11.88,36.3,17.34
2.2065,-11.577,-0.47671,0.47312,-0.098349,1.4719,-11.64,36.24,17.22
2.4653,-11.782,-0.70826,0.63499,-0.093768,1.7733,-11.46,36.24,17.28
2.8603,-10.815,-1.3212,0.92913,-0.31368,1.9997,-10.98,36.54,17.22
2.9284,-10.093,-1.6344,1.1539,-0.60476,1.9407,-10.68,36.66,17.16
2.9965,-9.2891,-2.0567,1.2703,-0.76419,1.8637,-10.5,36.78,17.04
2.3291,-9.9973,-2.1929,1.4606,-1.1258,1.5351,-9.84,37.14,16.98
2.0294,-10.61,-2.3291,1.4038,-1.1524,1.3069,-9.3,37.56,17.1
1.7434,-10.569,-2.438,1.226,-1.0256,1.1112,-8.7,37.98,16.98
1.2531,-9.8066,-2.7649,0.99571,-0.78038,0.99113,-7.38,38.88,16.98
1.0896,-9.1256,-2.8058,0.67989,-0.17318,0.92363,-6.54,39.36,17.16
0.9398,-8.2267,-2.942,0.60445,0.066584,0.90286,-5.58,39.9,17.04
0.83084,-6.9872,-2.7786,0.48289,0.82925,0.82803,-3.54,40.8,17.04
1.0488,-6.7829,-2.7786,0.44471,1.2846,0.79718,-2.58,41.16,16.98
1.6072,-6.8647,-2.4789,0.41722,1.6084,0.81001,-1.5,41.46,16.68
2.3427,-7.3822,-2.5606,0.40225,1.6997,0.85094,0.54,41.76,16.14
2.9011,-7.8317,-2.6696,0.39859,1.3601,0.967,1.56,42.0,15.84
3.0782,-8.0496,-2.7649,0.40836,1.1585,1.0049,2.46,42.3,15.72
3.0918,-8.4446,-2.8058,0.43494,0.50213,1.0892,4.2,42.84,15.18
2.8603,-8.6081,-2.8603,0.46548,0.22083,1.0669,5.16,42.9,14.7
2.6968,-8.7306,-2.942,0.48014,0.070555,0.96975,5.82,43.08,14.4
2.5879,-8.7987,-2.9692,0.48228,0.060476,0.82161,7.08,43.2,13.44
2.3018,-8.9077,-2.8467,0.48503,0.20342,0.55344,7.56,43.32,12.96
2.3427,-9.3844,-3.0237,0.49327,0.24526,0.47525,8.1,43.38,12.36
2.7649,-10.869,-3.4187,0.50671,0.25901,0.35155,8.52,43.44,11.88
3.1735,-12.64,-3.8954,0.43768,0.043066,0.25748,9.06,43.62,10.86
3.0782,-12.776,-3.5004,0.29505,-0.1127,0.1576,9.3,43.62,10.44
2.8875,-13.484,-3.2144,0.1689,-0.18051,0.0054978,9.6,43.86,10.08
2.4108,-14.669,-3.1599,-0.14691,-0.042455,-0.28711,10.14,44.28,9.54
2.1929,-14.329,-3.5822,-0.31979,0.20617,-0.49175,10.38,44.34,9.18
2.1929,-12.776,-3.6503,-0.40623,0.33475,-0.59284,10.44,44.46,8.88
2.2882,-10.283,-2.7649,-0.65637,0.57574,-0.89889,10.26,44.94,8.46
2.5061,-9.9429,-2.2201,-0.78863,0.5397,-1.1121,10.08,45.0,8.22
2.8875,-10.665,-1.866,-0.8995,0.31062,-1.2819,9.78,45.12,8.16
3.2416,-11.795,-1.8932,-1.0027,-0.07758,-1.3809,9.24,45.24,8.28
3.2553,-11.931,-1.9341,-1.0595,-0.7532,-1.3644,8.7,45.24,8.52
3.1191,-11.7,-1.8387,-1.0489,-0.95387,-1.3347,8.1,45.24,8.7
2.3836,-10.174,-1.5391,-0.95997,-1.2596,-1.2483,6.9,45.06,9.36
1.975,-9.4389,-1.3076,-0.90561,-1.1887,-1.2679,6.12,45.12,9.84
1.6344,-8.7715,-1.2258,-0.89828,-0.9557,-1.3384,5.16,44.94,10.32
1.5936,-7.9407,-1.0624,-0.95997,-0.59376,-1.485,3.06,44.52,11.34
1.6344,-7.8181,-0.96704,-1.0449,-0.42028,-1.5498,1.98,44.4,12.06
1.7434,-7.6546,-0.91256,-1.0776,-0.36377,-1.5617,1.02,44.16,12.6
1.8115,-7.641,-0.78998,-1.1387,-0.32254,-1.5149,-0.3,44.1,13.02
1.7025,-7.641,-0.61292,-1.1335,-0.30849,-1.4288,-2.46,43.32,13.86
1.7025,-7.6274,-0.57205,-1.087,-0.27611,-1.2905,-3.66,42.9,14.34
1.7706,-7.7091,-0.55843,-0.93157,-0.21655,-0.99785,-5.7,42.12,15.12
1.7979,-7.6138,-0.62654,-0.79015,-0.19609,-0.78374,-6.6,41.7,15.42
1.8524,-7.7772,-0.57205,-0.65546,-0.19059,-0.55436,-7.44,41.28,15.84
1.9205,-8.2131,-0.57205,-0.52931,-0.22694,-0.29963,-8.16,41.04,16.2
2.0022,-9.112,-0.57205,-0.41753,-0.2868,-0.01069,-8.82,40.74,16.5
2.1929,-11.768,-0.8036,-0.34117,-0.33872,0.27703,-10.08,39.78,17.1
2.0839,-11.713,-0.74912,-0.28405,-0.30971,0.48533,-10.44,39.42,17.46
1.3484,-11.441,-0.44947,-0.21289,-0.15272,0.61606,-10.74,39.0,17.76
1.3076,-12.068,-0.39499,-0.053756,0.30696,0.77519,-11.34,38.28,18.12
1.5255,-12.217,-0.36775,0.0048869,0.4722,0.81948,-11.16,37.86,18.54
1.8387,-12.027,-0.35413,0.26909,0.85216,0.93554,-10.98,37.62,18.84
2.3427,-9.7249,-0.8036,0.51893,0.86743,0.92149,-11.22,37.32,18.96
2.5742,-9.3844,-1.2395,0.83169,0.65973,0.83475,-11.16,37.2,19.08
2.7241,-10.283,-1.6889,1.1164,0.28283,0.71196,-11.16,37.32,19.26
2.7241,-10.283,-1.6889,1.3014,-0.1127,0.59559,-11.22,37.38,19.32
2.3427,-10.651,-2.0567,1.3317,-0.58918,0.54642,-11.46,37.56,19.38
1.9341,-9.8475,-2.0703,1.2452,-0.73915,0.56536,-11.4,37.74,19.5
1.5391,-8.8668,-2.2065,1.1356,-0.69089,0.63347,-11.22,38.04,19.44
0.85808,-6.8374,-2.6423,1.0498,-0.46945,0.68081,-10.8,38.58,19.32
0.62654,-6.2381,-2.7922,1.0027,0.14478,0.69791,-10.26,38.76,19.32
0.64016,-5.8976,-2.8194,1.0095,0.6295,0.72662,-9.72,39.12,19.08
0.83084,-5.9657,-2.8603,1.0021,0.8265,0.75564,-9.24,39.54,18.96
1.58,-6.3743,-2.6832,0.91783,1.1594,0.92699,-8.22,40.56,18.54
1.9886,-6.8919,-2.7649,0.90103,1.1261,1.1127,-7.5,40.98,18.36
2.3699,-7.5048,-3.3234,0.90378,0.87934,1.3506,-6.84,41.46,18.12
2.9011,-8.7443,-3.6366,0.97952,0.30452,1.6967,-5.34,42.18,17.4
2.9284,-9.2891,-3.8137,1.058,-0.063835,1.8757,-4.56,42.6,17.04
2.9011,-9.6841,-3.9499,1.0968,-0.24404,1.9251,-3.54,43.08,16.56
2.7104,-10.025,-3.9363,1.025,-0.52718,1.8647,-2.52,43.56,15.84
2.0294,-9.6977,-3.7456,0.91141,-0.46395,1.6609,-0.6,44.28,14.4
1.7298,-9.6568,-3.7184,0.78741,-0.25076,1.3845,0.42,44.82,13.62
1.6753,-11.223,-3.909,0.63133,0.16524,0.95264,2.16,45.9,12.18
2.1929,-12.612,-4.1133,0.55375,0.28527,0.80298,2.76,46.38,11.4
2.3972,-13.321,-3.9635,0.12889,0.56505,0.38454,3.78,46.68,10.68
2.4789,-13.416,-3.4459,-0.16768,0.72235,0.087659,4.44,46.86,10.02
2.6015,-14.111,-2.6287,-0.41386,0.87354,-0.20495,5.64,47.4,8.94
2.6015,-14.506,-2.547,-0.62522,0.98349,-0.50091,6.18,47.58,8.52
2.9011,-14.369,-2.8058,-0.79138,1.0394,-0.75625,6.66,47.82,8.16
3.0646,-12.054,-2.2474,-0.87262,0.95234,-1.0812,7.38,47.82,7.62
3.1872,-11.073,-1.6344,-0.91416,0.75136,-1.2642,7.56,47.88,7.8
3.4187,-11.169,-1.2531,-0.99602,0.38149,-1.4591,7.62,47.88,7.8
3.5685,-11.836,-0.89894,-1.08,-0.083078,-1.6478,7.14,47.88,8.34
3.4187,-11.931,-1.0488,-1.0916,-0.55772,-1.7733,6.72,47.64,8.46
2.7513,-11.536,-1.185,-1.0708,-1.0027,-1.8839,5.52,47.16,9.18
2.3563,-10.297,-1.0896,-1.0336,-1.0098,-1.9175,4.86,46.8,9.78
2.152,-9.7385,-1.0351,-1.0058,-0.9612,-1.9258,3.9,46.56,10.32
1.7843,-8.8396,-0.92618,-0.96883,-0.68417,-1.9963,3.0,46.2,10.98
1.7298,-7.9679,-0.74912,-0.98777,-0.51496,-2.044,0.78,45.6,12.24
1.757,-7.6546,-0.69464,-1.0272,-0.39798,-2.0516,-0.42,45.24,12.84
1.9886,-7.5593,-0.64016,-1.0211,-0.37782,-1.9835,-3.06,44.46,14.1
2.152,-7.8181,-0.6674,-1.0015,-0.51985,-1.7938,-4.56,44.16,14.46
2.152,-8.2812,-0.5993,-0.98716,-0.63255,-1.6099,-6.0,43.8,14.7
2.0839,-8.3493,-0.51757,-0.96761,-0.65515,-1.4044,-7.38,43.44,15.24
1.7298,-8.7306,-0.40861,-0.92516,-0.54062,-1.1952,-9.6,42.42,15.72
1.6072,-8.717,-0.38137,-0.86651,-0.36438,-1.0058,-10.74,42.0,16.02
1.58,-8.8668,-0.34051,-0.79107,-0.13836,-0.82436,-11.7,41.58,16.2
1.866,-8.9213,-0.21793,-0.64966,0.12798,-0.55894,-13.74,40.8,16.8
2.0294,-9.3163,-0.21793,-0.50763,0.19212,-0.33689,-14.58,40.38,17.16
2.2337,-9.9565,-0.27241,-0.42883,0.18937,-0.20617,-15.24,39.96,17.34
2.4789,-10.583,-0.28603,-0.20953,0.081856,0.17746,-16.26,38.94,17.34
2.438,-10.229,-0.31327,-0.02138,-0.042761,0.37141,-16.62,38.64,17.4
2.4517,-9.7658,-0.95342,0.36408,-0.29047,0.61606,-17.1,38.04,17.4
2.4108,-10.801,-1.1169,0.58674,-0.41264,0.77366,-17.04,37.8,17.7
2.152,-11.863,-1.0624,0.66218,-0.39095,0.978,-16.86,37.56,17.88
2.1112,-12.054,-0.96704,0.62614,-0.25595,1.1616,-16.74,37.32,17.88
1.7434,-11.468,-1.1305,0.59651,-0.045509,1.252,-16.86,37.32,17.94
1.8251,-9.9973,-1.8251,0.67134,0.15027,1.2489,-16.74,37.32,18.06
2.0703,-9.4525,-2.261,0.86499,0.24496,1.1222,-16.74,37.44,18.0
2.2201,-9.7385,-2.547,1.0763,0.24251,1.0586,-16.44,37.68,17.94
2.3563,-9.9565,-2.5606,1.2101,-0.010996,0.93371,-16.38,37.98,17.82
2.3427,-9.902,-2.547,1.1872,-0.14233,0.9218,-16.14,38.16,17.94
2.0294,-9.0575,-2.3972,1.0058,-0.40348,1.0101,-15.48,39.18,18.18
1.6753,-8.2131,-2.4789,0.91385,-0.39737,1.106,-15.06,39.48,18.48
1.2803,-7.2188,-2.8058,0.84635,-0.25076,1.2004,-14.4,39.84,18.6
0.98067,-6.4969,-2.8467,0.82375,0.025962,1.2239,-12.78,40.5,18.72
1.0896,-6.2517,-2.6423,0.79077,0.42516,1.2364,-11.88,40.74,18.72
1.2803,-6.3743,-2.547,0.78282,0.76908,1.2611,-10.92,41.16,18.72
1.8115,-6.96,-2.5742,0.75411,0.97738,1.347,-9.78,41.52,18.66
2.5198,-7.7364,-2.7649,0.74953,0.85827,1.4618,-7.68,42.36,18.42
2.9148,-8.3493,-2.9556,0.7703,0.54947,1.5736,-6.54,42.78,18.36
2.9556,-9.1256,-3.0373,0.76755,0.20556,1.6625,-4.44,43.68,17.7
2.833,-9.5751,-3.1463,0.7419,-0.1295,1.6637,-3.24,43.92,17.28
2.6423,-9.5751,-3.1463,0.71349,-0.18937,1.5342,-1.8,44.46,16.68
2.4653,-9.4798,-3.1463,0.65149,-0.10049,1.3354,-0.54,44.7,16.08
2.1793,-9.1801,-2.9965,0.58154,0.1011,1.0794,1.62,45.42,14.58
2.152,-9.5887,-2.9965,0.55344,0.3317,0.79199,2.64,45.72,13.86
2.3972,-12.354,-3.3778,0.46242,0.54642,0.39248,4.38,46.62,12.78
3.0646,-13.321,-3.4187,0.27092,0.58551,0.15699,4.92,46.98,12.18
3.1191,-13.375,-3.1191,0.028711,0.59437,-0.11057,5.46,47.28,11.58
2.9965,-13.28,-2.6151,-0.14355,0.60262,-0.38882,6.06,47.52,11.1
2.9829,-13.92,-2.4789,-0.27886,0.58277,-0.6973,7.02,47.82,10.56
2.9148,-13.893,-2.9148,-0.37049,0.56077,-0.95784,7.38,47.94,10.26
2.8058,-11.986,-2.9556,-0.49236,0.48411,-1.2318,7.8,48.12,10.02
3.0237,-11.182,-2.152,-0.562,0.42822,-1.2966,7.74,48.24,9.96
3.2008,-11.509,-1.6753,-0.75442,0.066584,-1.5015,7.44,48.06,10.14
3.3778,-11.931,-1.4846,-0.84269,-0.13378,-1.5837,6.96,48.0,10.44
3.2553,-12.49,-1.185,-1.0779,-0.7535,-1.7969,6.06,47.76,10.86
3.0237,-12.258,-1.1986,-1.1231,-1.0201,-1.8793,5.52,47.58,11.22
2.5742,-11.032,-1.362,-1.0922,-1.1576,-1.9361,4.26,46.98,11.94
2.3836,-9.8203,-1.2531,-0.92943,-1.128,-1.9545,3.48,46.62,12.48
2.1929,-9.3436,-1.1441,-0.85216,-0.97861,-1.9719,2.64,46.14,13.2
1.9886,-8.6217,-0.9398,-0.84147,-0.90683,-1.9774,1.56,45.72,13.92
1.975,-7.9407,-0.83084,-0.87262,-0.66859,-1.9539,-0.42,45.18,15.12
2.152,-7.7364,-0.83084,-0.89522,-0.61392,-1.887,-1.68,44.7,15.6
2.152,-7.7636,-0.83084,-0.95661,-0.66462,-1.7346,-3.84,44.22,16.56
2.1248,-7.8453,-0.65378,-0.99754,-0.65332,-1.5999,-5.1,43.98,16.8
1.7706,-7.9815,-0.57205,-1.015,-0.55528,-1.4407,-6.06,43.74,16.92
1.6753,-8.1586,-0.57205,-1.0131,-0.47373,-1.357,-6.66,43.56,17.04
1.5119,-8.2267,-0.50395,-0.96792,-0.10782,-1.1255,-7.44,43.38,17.28
1.6344,-8.1041,-0.55843,-0.90103,0.13806,-0.98624,-8.88,42.78,17.34
1.7298,-8.1586,-0.54481,-0.82192,0.32803,-0.83841,-9.66,42.72,17.46
1.9341,-8.9349,-0.47671,-0.71624,0.43952,-0.66065,-10.92,42.12,17.46
2.1384,-9.8203,-0.29965,-0.57024,0.46578,-0.30055,-11.46,41.94,17.28
2.2474,-10.447,-0.20431,-0.52382,0.4444,-0.15821,-11.82,41.7,17.1
2.3291,-10.76,-0.12258,-0.31582,0.3094,0.27611,-12.18,41.4,16.86
2.2882,-10.719,-0.38137,-0.089492,0.17623,0.57055,-12.36,40.8,16.68
2.2882,-11.169,-0.44947,0.19761,0.060476,0.93004,-12.36,40.38,16.56
2.3427,-11.659,-0.51757,0.59284,-0.064446,1.5162,-12.3,40.08,16.38
2.4789,-11.836,-0.81722,0.832,-0.15058,1.8784,-12.12,39.84,16.14
2.5742,-11.019,-1.2803,0.94318,-0.21258,2.0061,-12.18,39.66,16.08
2.6968,-9.8339,-1.7434,1.321,-0.57269,2.0855,-12.24,39.54,15.9
2.7104,-9.0439,-2.3427,1.5446,-0.90103,1.9523,-12.18,39.6,15.78
2.261,-9.4798,-2.3291,1.649,-1.1359,1.7758,-12.06,39.78,15.72
1.6617,-10.501,-2.261,1.452,-1.1609,1.5537,-11.46,40.44,15.54
1.1986,-10.324,-2.4108,1.1765,-0.97189,1.4847,-10.92,40.98,15.54
0.95342,-9.9292,-2.4517,0.89767,-0.62797,1.4844,-10.32,41.34,15.6
0.83084,-9.507,-2.6015,0.65393,-0.13439,1.5012,-9.42,41.82,15.6
0.61292,-8.7851,-2.833,0.5174,0.4667,1.4798,-8.58,42.24,15.6
0.61292,-7.355,-2.7922,0.48228,1.1603,1.4447,-6.18,43.2,15.48
1.0896,-7.0962,-2.656,0.49144,1.9777,1.3876,-4.98,43.5,15.48
2.0022,-7.1915,-2.3972,0.49908,2.2055,1.346,-2.34,43.98,15.54
2.6832,-7.355,-2.5334,0.51252,2.0751,1.3412,-1.14,44.28,15.48
3.2825,-7.6274,-2.5742,0.5171,1.8689,1.354,0.12,44.52,15.36
3.8273,-7.9815,-2.7649,0.54428,0.8546,1.3949,1.32,44.82,15.18
3.7456,-8.7715,-2.9284,0.53939,0.12706,1.3848,3.78,45.3,14.7
3.3778,-8.8668,-2.9556,0.52107,-0.53298,1.2498,5.04,45.42,14.4
2.4789,-9.0303,-2.9011,0.49969,-0.61545,1.1613,7.02,45.78,13.44
2.0567,-8.8396,-2.8194,0.44715,-0.5397,0.93798,7.92,46.02,13.08
1.866,-8.717,-2.8058,0.38485,-0.029322,0.51649,8.88,46.2,12.54
2.0158,-9.3163,-2.9556,0.39584,0.36072,0.24862,10.02,46.74,11.64
2.547,-10.324,-3.2825,0.40897,0.55161,0.053451,10.44,46.92,11.1
3.1327,-11.305,-3.6094,0.38973,0.47983,-0.081245,10.8,47.16,10.8
3.4596,-12.204,-2.9829,0.20036,0.1237,-0.2868,11.52,47.64,10.08
3.228,-12.967,-2.5061,0.053756,-0.083383,-0.45479,11.88,47.88,9.78
3.0918,-14.015,-2.4108,-0.036652,-0.15882,-0.55375,12.06,48.12,9.48
2.9692,-14.901,-2.8058,-0.27,-0.21625,-0.82894,12.24,48.18,9.18
2.6423,-13.484,-3.1191,-0.42761,-0.15608,-1.0241,12.3,48.42,8.82
2.547,-12.027,-2.6015,-0.55008,-0.062919,-1.212,12.24,48.48,8.58
2.9011,-12.095,-1.4846,-0.69669,-0.085216,-1.4389,11.94,48.72,8.52
3.0646,-12.803,-1.4301,-0.91996,-0.39492,-1.8448,11.64,48.78,8.52
3.0918,-13.184,-1.362,-0.9954,-0.53726,-1.9566,10.92,48.72,8.64
2.7649,-12.83,-1.4846,-1.0941,-0.96975,-2.1603,9.54,48.24,8.82
2.4653,-12.095,-1.3076,-1.1402,-1.1142,-2.2434,8.64,48.0,9.12
2.0158,-11.101,-1.0488,-1.1606,-1.0501,-2.3057,7.68,47.94,9.36
1.3076,-9.3844,-0.99429,-1.175,-0.82803,-2.3543,5.4,47.46,10.2
1.2258,-8.7443,-0.91256,-1.1823,-0.51893,-2.4224,4.02,47.22,10.62
1.2258,-8.2539,-0.81722,-1.2055,-0.21136,-2.4407,2.64,46.98,11.22
1.58,-7.8998,-0.77636,-1.2178,0.065668,-2.3494,-0.6,46.5,12.24
1.757,-8.0224,-0.81722,-1.2156,0.066279,-2.2141,-2.1,46.2,12.66
1.866,-7.9951,-0.55843,-1.2089,-0.012523,-2.032,-3.96,45.9,12.96
1.8115,-8.1041,-0.40861,-1.1567,-0.17593,-1.6695,-7.08,44.88,13.56
1.6344,-8.1722,-0.34051,-1.077,-0.22144,-1.3894,-8.82,44.28,13.8
1.6072,-8.2812,-0.23155,-0.97525,-0.18387,-1.1029,-10.14,43.74,14.1
1.4846,-8.3084,-0.17706,-0.84819,-0.061392,-0.80909,-11.34,43.38,14.46
1.4574,-8.1313,-0.23155,-0.70066,0.057421,-0.50946,-12.54,42.78,14.76
1.7025,-8.4174,-0.23155,-0.54,0.12339,-0.22724,-14.58,41.82,15.24
1.866,-9.1256,-0.19068,-0.37232,0.091019,0.28222,-15.6,41.4,15.3
2.0567,-10.215,-0.14982,-0.22663,0.0562,0.45693,-16.74,40.38,15.54
2.0294,-9.8884,-0.31327,0.016493,-0.03879,0.90286,-17.22,39.66,15.54
1.9886,-9.6841,-0.47671,0.24832,-0.089186,1.1875,-17.34,39.12,15.6
2.261,-10.529,-0.85808,0.50488,-0.15241,1.5116,-17.46,38.34,15.72
2.4789,-10.964,-1.2258,0.74495,-0.28008,1.8802,-17.1,38.1,15.9
2.5742,-10.801,-1.7298,0.93401,-0.45021,2.1588,-16.98,37.68,16.02
2.5879,-10.161,-1.866,1.1869,-0.80146,2.2914,-16.5,37.8,16.14
2.5061,-10.079,-2.152,1.3118,-1.0052,2.2098,-16.38,37.98,16.26
2.1656,-10.379,-2.3155,1.3439,-1.054,2.1463,-16.2,38.16,16.32
1.4574,-11.319,-2.438,1.292,-0.84483,1.8546,-15.24,38.88,16.38
1.2395,-11.441,-2.5606,1.1753,-0.50335,1.6365,-14.82,39.24,16.62
1.1441,-10.924,-2.7241,0.95264,0.12339,1.4032,-13.32,40.14,16.92
1.3757,-9.6704,-2.8603,0.81428,0.50977,1.3405,-12.3,40.5,16.98
1.362,-8.5263,-2.942,0.73426,0.8152,1.2746,-11.16,41.16,17.04
1.3348,-7.8453,-2.8467,0.70616,0.97005,1.237,-10.08,41.52,17.28
1.2803,-6.8374,-2.7649,0.67989,1.4352,1.1521,-8.82,41.94,17.22
1.6481,-6.2517,-2.547,0.65088,1.6701,1.1188,-6.48,42.84,17.4
2.0839,-6.3607,-2.4517,0.6185,1.7061,1.1237,-5.34,43.26,17.34
2.8058,-7.1779,-2.6968,0.61331,1.6099,1.1469,-4.2,43.56,17.22
3.2825,-7.8589,-2.8875,0.59498,1.2511,1.2413,-1.8,43.92,16.68
3.4868,-8.4991,-2.9556,0.59498,0.76328,1.35,-0.78,44.22,16.5
3.3234,-8.8941,-2.9829,0.59407,0.15211,1.492,0.3,44.58,16.2
2.9284,-9.3844,-3.0646,0.60506,-0.048258,1.4908,2.22,44.88,15.3
2.6015,-9.398,-2.9965,0.58429,-0.021075,1.3891,3.24,45.12,14.7
2.2882,-8.8532,-2.9284,0.54642,0.18754,1.2074,4.62,45.36,13.74
2.2474,-8.9349,-2.8603,0.52107,0.62033,0.81673,5.28,45.54,13.26
2.4789,-9.507,-2.8194,0.54,0.71441,0.69547,5.82,45.78,12.6
3.7047,-12.354,-3.2689,0.5171,0.6072,0.3488,6.48,46.08,11.64
4.018,-13.171,-3.3097,0.40134,0.30757,0.14722,6.78,46.26,11.22
3.8954,-12.967,-3.0918,0.18509,0.039095,-0.096211,7.26,46.44,10.86
3.2553,-13.661,-2.2474,-0.020769,-0.1909,-0.52595,7.8,46.74,10.56
2.9148,-14.029,-2.4653,-0.16768,-0.1573,-0.85246,8.28,46.68,10.5
2.656,-13.702,-2.8058,-0.23152,-0.091324,-0.99021,8.46,46.68,10.26
2.6287,-12.531,-2.7649,-0.33445,0.094379,-1.3182,8.7,46.62,10.14
3.0918,-11.577,-2.1384,-0.41447,0.093462,-1.4636,8.64,46.56,10.14
3.5277,-11.972,-1.6617,-0.52687,-0.18845,-1.6063,8.46,46.32,10.26
3.8954,-13.212,-1.2531,-0.65729,-0.72174,-1.7428,8.04,46.14,10.56
3.5685,-13.13,-1.0896,-0.82467,-1.5806,-1.9416,7.56,45.96,10.74
3.0373,-12.544,-1.0351,-0.86407,-1.7953,-1.9945,7.2,45.72,11.22
2.4925,-11.836,-1.0215,-0.87201,-2.0143,-2.0986,6.96,45.48,11.76
1.8251,-10.215,-0.99429,-0.81886,-1.8781,-2.1414,6.24,44.76,12.42
1.4438,-9.1937,-0.95342,-0.78466,-1.5776,-2.1872,5.76,44.28,13.02
1.4029,-8.5672,-0.77636,-0.80909,-1.237,-2.2318,5.22,43.98,13.62
1.3212,-7.8045,-0.51757,-0.91996,-0.81612,-2.2132,3.54,43.38,14.76
1.5119,-7.7636,-0.39499,-0.95326,-0.69364,-2.179,2.76,43.08,15.36
