Ax,Ay,Az,Gx,Gy,Gz,Mx,My,Mz
0.17706,-10.569,1.8251,-0.36652,1.2706,-0.52412,-30.3,31.08,3.96
0.16344,-12.19,2.0703,-0.54459,1.2807,0.34025,-31.02,29.88,3.36
0.57205,-12.626,2.2474,-0.70952,1.1582,0.99724,-31.26,29.22,3.24
1.2122,-12.476,2.2882,-0.78191,1.102,1.3338,-31.44,28.8,3.24
2.2474,-11.387,1.9886,-0.82436,0.90561,2.156,-31.56,28.32,3.3
3.8001,-9.3436,0.85808,-0.77061,0.63774,2.4914,-31.74,27.96,2.82
4.5764,-9.7794,0.40861,-0.76694,0.20159,2.6976,-31.68,27.96,2.34
5.0259,-11.618,0.35413,-0.85185,-0.40897,2.7642,-31.5,28.26,1.44
4.4811,-13.157,1.076,-1.0629,-1.2223,2.6041,-31.38,28.74,0.9
3.5413,-13.634,1.7298,-1.1518,-1.4713,2.4462,-31.14,29.22,0.48
2.4108,-12.967,2.0839,-1.1026,-1.3781,2.3338,-31.02,29.64,0.3
1.1032,-10.637,1.6481,-0.92241,-0.81673,2.2953,-30.54,30.9,0.3
1.2531,-8.9894,1.0215,-0.69578,0.053145,2.2013,-30.06,31.44,0.48
2.3155,-6.7693,0.14982,-0.48808,1.2028,2.0156,-28.8,32.58,1.56
2.8875,-6.5105,-0.054481,-0.34544,1.4566,1.9725,-28.02,33.36,2.1
3.2553,-6.5514,0.36775,-0.25717,1.7843,1.8864,-27.18,33.9,2.64
4.5083,-7.4231,1.1169,-0.22144,1.9013,1.7929,-25.44,34.86,4.08
4.9033,-7.9543,1.3484,-0.31337,1.5024,1.8152,-24.66,35.22,4.92
5.3119,-8.5808,1.3757,-0.45051,1.0489,1.832,-23.82,35.58,5.76
5.7069,-9.1256,1.2258,-0.60567,0.6182,1.8152,-21.72,36.36,7.5
5.6933,-9.3027,1.1713,-0.74342,0.26237,1.777,-20.58,36.72,8.46
5.5707,-9.2618,1.0896,-0.84941,0.13042,1.7272,-19.44,37.02,9.24
5.6661,-9.1256,1.1032,-0.85307,0.16738,1.5485,-16.68,37.62,10.5
5.5435,-8.8805,1.0488,-0.78466,0.31246,1.358,-15.24,37.98,10.68
5.6797,-9.221,0.89894,-0.67837,0.47159,1.1594,-13.92,38.4,11.04
6.6195,-11.128,1.1577,-0.52657,0.52473,0.81825,-11.7,39.18,11.4
7.0826,-12.149,1.3076,-0.45235,0.3769,0.46181,-10.68,39.42,11.46
6.8919,-12.286,1.5936,-0.34422,0.1854,-0.0281,-9.78,39.66,11.76
4.413,-12.735,1.9068,-0.14508,0.17501,-0.32529,-8.28,40.08,12.24
4.5764,-13.348,1.6208,0.075747,0.50641,-0.54062,-7.5,40.32,12.42
5.4073,-13.13,1.5936,0.3036,0.86346,-0.84208,-7.02,40.5,12.9
5.4073,-10.937,1.7025,0.52504,0.85032,-1.3176,-6.24,40.74,13.32
4.8625,-11.06,1.8796,0.87537,0.38515,-1.4615,-6.18,40.8,13.56
4.8625,-11.373,1.866,1.0577,-0.060781,-1.5305,-5.94,40.92,13.68
5.2166,-12.258,1.9477,1.1139,-0.35247,-1.5403,-6.06,40.86,13.56
5.7614,-14.138,1.9886,1.0852,-1.5269,-1.7055,-6.3,40.98,13.8
5.0531,-15.486,2.0839,0.94318,-2.211,-1.9154,-6.96,40.98,13.5
4.0589,-14.71,2.0567,0.80176,-2.4508,-2.1811,-7.62,41.04,13.2
2.8739,-12.395,1.6481,0.71868,-2.3503,-2.255,-9.06,40.86,12.96
2.8739,-12.395,1.6481,0.70983,-2.084,-2.4083,-9.06,40.86,12.96
1.4165,-8.8396,1.5119,0.80298,-1.5855,-2.5232,-11.22,40.44,12.42
1.362,-8.0496,1.2803,0.90897,-1.1628,-2.6102,-12.42,40.14,12.06
1.4029,-7.8045,1.2531,0.98594,-0.89095,-2.6744,-13.8,39.84,11.58
1.58,-7.7091,1.362,1.0012,-0.79596,-2.7089,-16.8,39.24,10.2
1.6072,-7.7227,1.4165,0.92149,-0.75503,-2.6872,-18.24,39.0,9.42
1.2395,-7.9543,1.4438,0.87354,-0.72998,-2.6606,-21.0,38.16,8.04
1.0624,-8.2812,1.471,0.6295,-0.56749,-2.5406,-22.38,37.86,7.32
0.84446,-8.6353,1.58,0.43616,-0.35858,-2.4056,-23.64,37.44,6.66
0.62654,-8.8668,1.6889,0.26817,-0.1066,-2.2263,-25.02,36.96,6.18
0.21793,-8.5808,1.757,0.12034,0.14752,-1.9997,-27.48,35.7,5.28
0.1362,-8.4174,1.7706,-0.022297,0.51068,-1.5794,-28.68,34.92,4.74
0.20431,-8.717,1.7706,-0.058948,0.62003,-1.4337,-29.7,34.2,4.32
0.42223,-9.616,1.7162,-0.18265,0.88606,-0.94867,-31.44,32.76,3.72
0.25879,-9.9701,1.7162,-0.22235,0.99418,-0.57818,-32.1,32.1,3.48
0.28603,-10.161,1.6889,-0.30604,1.08,-0.085216,-32.76,31.44,3.24
0.85808,-11.782,1.6481,-0.52229,1.0825,0.50855,-33.48,29.94,3.06
1.5119,-12.122,1.7162,-0.7477,0.96975,1.3909,-33.9,29.16,3.18
2.5742,-10.815,1.8387,-0.99663,0.89583,1.9254,-34.38,28.26,3.0
3.0918,-9.0031,1.3484,-0.99785,0.75259,2.2932,-34.56,27.78,2.94
3.3506,-8.7715,0.91256,-0.98838,0.49602,2.6194,-34.44,27.54,2.64
3.9363,-9.1256,0.61292,-1.0571,0.067501,2.8909,-34.38,27.3,2.4
5.3256,-12.354,0.44947,-1.1704,-0.54611,3.0552,-33.9,27.72,1.68
5.775,-13.961,0.96704,-1.2718,-1.4319,2.8692,-33.66,28.2,1.2
4.1678,-13.866,2.1112,-1.2685,-1.7446,2.5898,-33.06,29.58,0.54
2.9692,-12.64,2.0839,-1.073,-1.6936,2.3961,-33.0,30.18,0.48
2.2882,-11.536,1.7025,-0.74495,-1.1756,2.233,-32.76,30.78,0.42
1.9613,-9.0712,0.89894,-0.38026,-0.3937,2.051,-32.22,31.32,0.78
2.5061,-6.5514,-0.38137,-0.081551,0.32315,1.8503,-30.9,32.46,1.92
2.4108,-6.3879,-0.68102,0.088881,1.1463,1.6603,-30.12,33.0,2.58
3.2825,-6.8647,0.25879,0.19364,1.5864,1.5531,-28.26,33.96,3.96
3.9227,-7.246,1.2667,0.21869,1.9771,1.3253,-27.36,34.5,4.74
4.304,-7.4095,1.5663,0.18723,1.788,1.3937,-26.58,34.92,5.52
4.7399,-8.5263,1.471,-0.037263,0.90469,1.518,-24.54,35.64,7.08
4.9578,-8.826,1.3212,-0.21655,0.61697,1.6084,-23.58,35.94,7.92
5.2983,-8.8532,0.96704,-0.41417,0.50793,1.6148,-22.5,36.06,8.76
5.5026,-8.717,0.84446,-0.59926,0.3427,1.6096,-20.04,36.48,10.14
5.2983,-8.5127,0.92618,-0.75259,0.15363,1.5681,-18.72,36.72,10.68
5.203,-8.3901,1.0215,-0.75839,0.13683,1.5525,-17.34,37.02,11.1
5.5299,-9.3844,0.88532,-0.71563,0.19334,1.4807,-14.88,37.86,11.34
6.2654,-10.637,0.84446,-0.68111,0.19548,1.3631,-13.98,38.16,11.34
7.7364,-12.871,1.2803,-0.68295,-0.10232,0.88973,-11.94,38.82,11.34
6.7693,-13.062,1.6753,-0.64538,-0.45723,0.37263,-11.16,39.06,11.4
5.6661,-13.321,1.7706,-0.57299,-0.55436,0.1854,-10.26,39.24,11.52
4.6173,-13.729,1.6072,-0.21655,-0.15211,-0.28619,-9.6,39.3,11.7
4.8625,-12.19,1.1577,0.062614,0.29535,-0.71441,-8.34,39.48,12.18
4.6037,-10.011,1.3212,0.33414,0.39492,-1.1206,-7.92,39.54,12.48
4.0316,-9.7249,1.3757,0.61789,0.19884,-1.3369,-7.68,39.66,12.72
4.3994,-12.0,1.7025,0.92607,-0.17929,-1.4517,-7.56,39.42,13.08
4.9987,-13.539,1.7706,0.94928,-0.56536,-1.5437,-7.5,39.36,13.2
5.3528,-14.547,1.8387,0.90561,-0.82192,-1.6084,-7.62,39.18,13.26
5.0531,-15.936,2.2201,0.61423,-1.5886,-1.8182,-8.16,38.7,13.2
4.413,-14.833,2.152,0.42974,-1.7657,-1.9908,-8.52,38.46,13.2
3.6775,-13.307,1.9613,0.32529,-1.6072,-2.1298,-9.18,38.16,13.26
2.2882,-10.12,1.5391,0.33506,-1.4881,-2.3198,-10.92,37.38,13.02
1.6889,-8.4991,1.4165,0.3879,-1.5745,-2.3509,-12.0,36.96,12.84
1.1441,-7.6002,1.2531,0.55803,-1.0712,-2.4459,-13.08,36.6,12.6
1.1577,-7.0009,1.3076,0.82345,-0.48503,-2.6166,-14.34,36.3,12.42
1.4165,-6.9055,1.3484,0.94959,-0.34728,-2.7028,-17.16,35.22,11.46
1.4846,-7.1098,1.4301,0.99388,-0.32742,-2.737,-18.48,34.74,10.74
1.362,-7.7227,1.4165,0.91385,-0.36957,-2.6805,-20.88,34.02,9.42
1.1032,-8.1858,1.3757,0.76847,-0.34056,-2.6005,-22.02,33.42,8.64
0.95342,-8.3765,1.5255,0.59987,-0.23121,-2.4651,-23.04,32.82,8.1
0.64016,-8.6081,1.7298,0.41478,-0.063225,-2.2425,-25.14,31.5,7.02
0.42223,-8.7034,1.8387,0.24496,0.086437,-1.9752,-26.16,30.9,6.54
0.39499,-8.8668,1.8387,0.064446,0.23671,-1.6558,-27.06,30.24,6.12
0.43585,-9.8339,1.8387,-0.17562,0.46945,-1.1393,-28.56,28.8,5.28
0.39499,-10.079,1.8251,-0.29108,0.61575,-0.79229,-29.22,28.02,4.86
0.21793,-10.556,1.866,-0.40317,0.78588,-0.37171,-29.76,27.3,4.44
0.095342,-11.809,1.8387,-0.57452,0.93004,0.16432,-30.54,26.1,3.9
0.58567,-12.449,1.9886,-0.759,1.0247,0.77946,-30.66,25.56,3.78
1.2531,-12.381,2.0975,-0.9218,1.0724,1.3879,-30.78,24.96,3.84
2.7649,-10.12,1.8115,-0.93493,1.0519,1.8699,-31.26,23.94,3.66
3.5004,-9.4389,1.185,-0.80207,0.75442,2.3445,-31.26,23.58,3.54
4.3858,-9.8066,0.64016,-0.80115,0.27703,2.4621,-31.38,23.46,3.24
5.1213,-12.435,0.40861,-0.84849,-0.39095,2.4545,-31.68,23.64,2.7
4.9578,-13.77,0.83084,-0.93615,-0.9893,2.3225,-31.74,23.82,2.22
4.304,-14.138,1.5663,-0.96883,-1.3952,2.0632,-31.8,24.12,1.86
1.866,-11.686,2.0839,-0.76205,-1.3442,1.8152,-31.92,25.02,1.32
1.2258,-9.9565,1.4846,-0.50793,-0.76053,1.7336,-31.98,25.44,1.44
1.2122,-8.3084,0.7355,-0.37965,-0.3598,1.6878,-31.92,25.86,1.62
1.866,-6.3743,0.054481,-0.054062,0.75961,1.5397,-31.74,26.52,2.04
2.5879,-6.0474,0.054481,0.077885,1.2584,1.4817,-31.68,26.88,2.52
2.4517,-6.1019,0.054481,0.11942,1.3662,1.496,-31.38,27.24,2.94
2.4244,-6.17,-0.054481,0.13561,2.1527,1.5311,-30.54,27.9,3.9
5.5299,-7.8317,1.3484,-0.044288,2.791,1.2782,-30.24,28.26,4.56
6.2517,-7.8726,1.7706,-0.16829,2.2006,1.3916,-29.7,28.56,5.16
6.7421,-7.9134,1.6889,-0.44593,0.69608,1.5476,-29.22,28.8,5.4
5.1076,-8.0632,1.1577,-0.75503,-0.59254,1.6967,-28.14,29.52,6.84
4.7671,-8.1586,0.88532,-0.86621,-0.56108,1.7593,-27.42,29.76,7.38
4.8761,-8.3493,0.91256,-0.92852,-0.46762,1.7483,-26.58,30.24,8.04
5.2438,-9.0303,0.96704,-0.94715,-0.38057,1.7349,-24.42,31.02,8.76
5.5026,-9.5887,1.0079,-0.92882,-0.19823,1.6408,-23.52,31.44,9.0
5.8159,-10.188,0.99429,-0.9163,-0.14875,1.5693,-22.44,31.8,9.24
6.7012,-11.782,1.0624,-0.88331,-0.063835,1.2141,-21.54,32.34,9.48
7.1507,-12.381,1.5119,-0.80084,-0.14355,0.69486,-19.62,33.36,9.78
5.2575,-12.04,1.757,-0.61575,-0.27336,0.22633,-18.84,33.78,10.14
4.4811,-12.803,1.6344,-0.34147,-0.13164,-0.057421,-18.18,34.14,10.32
5.1894,-12.027,1.0351,0.07086,0.58338,-0.63225,-16.98,34.74,11.16
5.094,-11.264,1.4438,0.3372,0.66554,-0.99938,-16.38,34.92,11.88
4.8352,-11.577,1.6344,0.60079,0.42547,-1.23,-15.9,35.04,12.06
4.7944,-13.225,1.9613,0.81673,0.1463,-1.3408,-15.48,35.16,12.78
5.4481,-14.383,2.1384,0.93371,-0.2755,-1.434,-15.36,34.98,12.96
6.1292,-15.35,2.1112,0.90897,-0.88239,-1.6035,-15.6,34.92,13.2
5.3664,-15.091,2.1656,0.76419,-1.7498,-1.945,-16.02,34.8,13.38
4.5492,-13.852,2.0567,0.69089,-1.9242,-2.1484,-16.26,34.74,13.44
3.732,-12.395,1.8251,0.69669,-1.7935,-2.3216,-16.68,34.62,13.44
2.5742,-9.8748,1.4982,0.76938,-1.5898,-2.4719,-18.06,33.84,13.38
1.9341,-8.3765,1.2803,0.88148,-1.303,-2.5937,-18.96,33.42,13.2
1.7162,-7.464,1.3757,0.99968,-0.99754,-2.7138,-19.74,33.0,13.08
1.6344,-7.2324,1.3893,1.1469,-0.71654,-2.8564,-21.96,32.4,12.3
1.6481,-7.3822,1.3893,1.1579,-0.68111,-2.916,-23.16,32.04,11.82
1.5119,-7.6138,1.3484,1.0965,-0.67317,-2.9312,-24.24,31.8,11.22
0.96704,-8.0224,1.2803,0.98746,-0.61087,-2.9239,-26.4,31.26,9.72
0.8036,-8.1586,1.3348,0.83414,-0.43799,-2.8628,-27.48,30.84,9.18
0.51757,-8.1858,1.5119,0.55283,-0.046731,-2.6261,-28.2,30.42,8.58
0.25879,-8.4446,1.6072,0.45815,0.095906,-2.4969,-30.18,29.4,7.5
0.29965,-8.5808,1.6344,0.17685,0.4722,-2.0302,-31.14,28.8,7.02
0.34051,-8.7715,1.7434,0.10324,0.58154,-1.868,-32.04,28.08,6.42
0.44947,-8.8941,1.7843,-0.11545,0.86193,-1.3207,-32.94,27.48,6.0
0.62654,-9.9292,1.6753,-0.26206,0.97464,-0.93279,-34.5,26.34,4.98
0.58567,-10.311,1.6753,-0.36835,1.0635,-0.30849,-35.22,25.74,4.44
0.54481,-11.4,1.58,-0.49358,1.0867,-0.054978,-36.12,24.36,3.6
0.78998,-12.122,1.7298,-0.82131,1.0763,0.81581,-36.48,23.82,3.24
1.0351,-12.122,1.7706,-0.91263,1.0562,1.0864,-36.66,23.22,3.18
1.7025,-11.468,1.8932,-1.1096,1.0626,1.9566,-36.84,22.68,3.18
2.7922,-9.4389,1.3484,-1.08,0.91905,2.3552,-37.26,22.14,2.4
3.8818,-8.8941,0.78998,-1.0342,0.45296,2.7562,-37.32,22.14,1.86
4.9033,-11.128,0.27241,-1.0611,0.20617,2.8469,-37.08,22.74,0.72
5.1894,-13.321,0.54481,-1.2398,-0.65363,2.9065,-37.08,23.28,0.72
4.9033,-14.451,1.1713,-1.3207,-0.90439,2.861,-37.02,23.76,-0.6
4.3177,-14.642,1.7025,-1.4322,-1.332,2.6209,-37.08,24.6,-1.14
2.3155,-12.708,2.1248,-1.3241,-1.2077,2.5846,-36.84,26.16,-1.2
2.1384,-10.924,1.4846,-1.0727,-0.65301,2.5491,-36.6,26.88,-0.9
3.4187,-7.927,0.081722,-0.81153,0.11057,2.4432,-36.12,27.72,-0.54
3.9499,-7.246,-0.081722,-0.61392,0.64416,2.2562,-34.86,29.46,0.42
4.1542,-6.9191,-0.081722,-0.49388,0.82986,2.0632,-34.14,30.18,0.96
4.2632,-7.0553,0.65378,-0.34789,0.89614,1.7837,-33.24,30.96,1.5
4.2495,-7.3686,1.2258,-0.30482,0.80268,1.7028,-31.32,32.58,3.3
4.3449,-7.8045,1.3484,-0.31948,0.67806,1.6405,-30.48,33.06,4.26
4.5628,-8.036,1.2258,-0.41325,0.50457,1.5614,-28.74,34.02,6.42
5.1757,-8.5808,1.1986,-0.46578,0.44074,1.5403,-27.6,34.56,7.56
5.1621,-8.5672,1.1305,-0.56688,0.40653,1.4572,-26.34,35.1,8.52
5.0259,-8.54,1.1032,-0.65301,0.58613,1.3173,-25.02,35.58,9.48
4.8488,-8.3084,1.185,-0.66462,0.76236,1.2388,-22.26,36.48,10.5
5.0531,-8.5944,1.2803,-0.64141,0.87323,1.1735,-20.88,37.14,10.68
5.598,-10.256,1.5527,-0.6014,0.88087,1.0971,-19.74,37.62,10.92
6.2517,-10.256,1.5527,-0.57544,0.82375,1.0308,-18.72,38.1,11.1
7.2733,-12.79,2.2201,-0.48808,-0.033598,0.29871,-16.14,39.54,11.52
7.2733,-12.79,2.2201,-0.42699,-0.22144,0.079412,-16.14,39.54,11.52
5.4073,-13.675,2.2474,-0.21838,-0.35003,-0.22358,-14.76,40.08,11.88
5.1485,-13.607,1.8932,0.051924,-0.1069,-0.56841,-14.22,40.38,12.18
5.1485,-12.762,1.58,0.3485,0.19181,-0.92241,-13.5,40.8,12.24
4.699,-11.278,1.58,0.65851,0.32406,-1.3069,-13.26,40.8,12.36
3.9227,-10.651,1.7843,0.99021,0.30085,-1.5666,-13.14,40.92,12.6
4.1678,-11.264,1.7298,1.398,-0.012523,-1.6903,-13.32,40.98,12.54
4.7399,-12.354,1.8251,1.5024,-0.49205,-1.7199,-13.5,40.98,12.36
5.8431,-14.724,1.9341,1.4294,-1.2324,-1.7675,-14.52,40.86,12.0
5.9112,-15.282,2.0431,1.2361,-2.0733,-1.9086,-15.12,40.74,11.64
4.4811,-14.261,1.866,0.99296,-2.6215,-2.0925,-16.68,40.2,11.04
3.8546,-12.885,1.1713,0.77977,-2.6521,-2.2709,-17.64,39.84,10.86
2.9011,-11.223,1.866,0.57421,-2.7666,-2.4557,-18.78,39.42,10.5
0.96704,-8.9758,1.3212,0.61117,-2.0467,-2.5464,-21.18,38.64,10.02
0.5993,-7.9679,1.1169,0.72907,-1.2917,-2.6735,-22.44,38.04,9.84
0.64016,-7.4095,1.076,0.8546,-0.63958,-2.7535,-23.76,37.68,9.66
1.2122,-7.5865,1.362,0.9447,-0.24587,-2.8741,-26.64,36.78,8.4
1.1305,-8.2267,1.2667,0.93615,-0.11118,-2.9096,-27.9,36.36,7.86
1.0896,-8.4719,1.3076,0.90866,-0.051007,-2.9157,-29.04,35.88,7.38
0.8036,-8.8668,1.4165,0.74984,0.16646,-2.853,-30.18,35.4,6.78
0.42223,-8.9894,1.6072,0.624,0.37782,-2.7144,-32.22,33.96,5.94
0.31327,-8.7715,1.7706,0.49724,0.69822,-2.3824,-33.12,33.06,5.58
0.31327,-8.3901,1.7434,0.3769,0.78771,-2.2345,-34.86,31.44,5.1
0.36775,-8.0088,1.7706,0.20892,0.95936,-1.7452,-35.58,30.54,4.74
0.40861,-7.927,1.6753,0.16127,0.98716,-1.5547,-36.42,29.64,4.2
0.53119,-8.1995,1.5527,-0.0562,1.0168,-0.91202,-37.14,28.56,3.6
0.51757,-9.1801,1.4165,-0.24099,1.0305,-0.44532,-38.1,26.76,2.4
0.40861,-9.7522,1.4574,-0.49633,1.047,0.49297,-38.46,25.8,1.98
1.2122,-11.346,1.9613,-0.8207,1.011,0.87568,-38.94,24.0,1.44
1.6617,-11.591,2.0294,-1.3204,0.81428,2.0229,-39.12,23.28,1.08
2.3836,-11.21,2.0567,-1.518,0.69364,2.7049,-39.24,22.62,0.66
3.0646,-10.297,1.7706,-1.5262,0.51679,3.2171,-39.3,22.32,0.3
3.9635,-9.8339,1.185,-1.4746,0.26848,3.5641,-39.18,22.26,-0.18
5.9657,-11.441,0.24517,-1.4829,-0.16432,3.685,-38.82,23.04,-1.02
6.7693,-13.184,0.14982,-1.6081,-1.2721,3.4465,-38.64,23.46,-1.68
6.17,-14.86,1.866,-1.6631,-1.6924,3.222,-38.04,25.08,-2.52
4.304,-14.097,2.6968,-1.5797,-2.6832,2.5314,-37.86,25.86,-2.52
2.1112,-12.708,2.7922,-1.2712,-2.4706,2.2764,-37.5,26.88,-2.22
0.64016,-11.278,1.8387,-0.86957,-1.3937,2.1295,-37.02,27.84,-1.56
1.1169,-8.7579,0.1362,-0.51862,-0.12737,1.9459,-35.58,29.76,-0.12
1.9477,-7.5048,-0.39499,-0.19945,1.098,1.6826,-34.5,30.66,0.72
2.7786,-6.7148,-0.081722,-0.057727,1.5687,1.5256,-32.58,32.64,2.52
3.1327,-7.0417,0.36775,0.022297,1.985,1.4682,-31.38,33.36,3.66
3.7728,-7.4231,0.96704,0.039706,2.2214,1.4374,-30.48,34.02,4.62
4.5356,-7.8589,1.3212,-0.047647,2.1509,1.4108,-29.58,34.56,5.58
5.8976,-8.4446,1.6753,-0.19517,1.7678,1.3955,-27.9,35.22,7.56
6.2517,-8.3901,1.8115,-0.5174,0.92149,1.299,-26.82,35.7,8.76
5.5707,-8.0496,1.3757,-0.62339,0.67073,1.2602,-24.66,36.3,10.68
5.0259,-8.1722,1.3757,-0.85246,0.26512,1.233,-23.34,36.78,11.16
4.7671,-8.4446,1.471,-0.894,0.25045,1.244,-22.08,37.14,11.52
4.8352,-8.7987,1.5255,-0.93371,0.40561,1.2795,-21.06,37.62,11.64
5.7342,-10.134,1.6072,-0.894,0.56474,1.2532,-19.08,38.4,11.52
7.1371,-11.319,1.8251,-0.77733,0.54062,0.93401,-18.3,38.82,11.46
7.4503,-11.959,2.2882,-0.70799,0.3989,0.72876,-16.62,39.42,11.64
6.3471,-12.149,2.3836,-0.33567,-0.208,0.10812,-16.08,39.84,11.76
5.7342,-12.912,2.1929,0.019853,-0.26695,-0.20708,-15.42,40.08,12.0
5.6797,-13.416,1.8387,0.34575,-0.15333,-0.61636,-14.7,40.32,12.12
5.0531,-12.0,1.6617,0.65821,-0.13134,-1.0412,-13.5,40.74,12.48
4.522,-11.169,1.7706,1.0745,-0.16829,-1.492,-13.2,40.74,12.48
4.413,-11.891,1.7025,1.1863,-0.21869,-1.5721,-12.84,40.92,12.48
4.7671,-12.994,1.6889,1.4239,-0.55314,-1.7758,-12.84,40.8,12.54
5.0259,-13.729,1.7706,1.4355,-0.74648,-1.8396,-12.9,40.74,12.36
5.2847,-15.146,1.8524,1.3155,-1.5501,-2.025,-13.38,40.5,11.94
4.8488,-14.615,1.866,1.1551,-2.0247,-2.1881,-13.8,40.32,11.82
4.127,-13.539,1.1577,0.99968,-2.1958,-2.3421,-14.4,40.14,11.64
2.9284,-11.087,1.58,0.74312,-2.4325,-2.5064,-16.2,39.72,11.04
1.8932,-9.902,1.6208,0.69486,-2.4135,-2.5568,-17.28,39.3,10.68
0.91256,-9.0848,1.4165,0.697,-2.1002,-2.54,-18.36,38.94,10.32
0.62654,-8.1995,1.2395,0.78588,-1.0318,-2.6023,-21.06,38.22,9.36
0.88532,-8.0224,1.2939,0.82436,-0.46304,-2.6622,-22.56,37.98,8.76
1.185,-8.1858,1.6072,0.81917,-0.20861,-2.7165,-23.88,37.68,8.16
1.2258,-8.1858,1.5527,0.78863,-0.13806,-2.6872,-26.34,36.9,6.9
1.0215,-8.0769,1.5119,0.67165,-0.15241,-2.5846,-27.48,36.54,6.3
0.89894,-8.0496,1.4982,0.61239,-0.13195,-2.5326,-28.68,36.18,5.76
0.76274,-7.9407,1.5391,0.42974,0.0082467,-2.3222,-29.7,35.52,5.4
0.6674,-8.3493,1.58,0.28527,0.16493,-2.1191,-31.8,34.08,4.74
0.54481,-8.3901,1.6617,0.14966,0.29841,-1.7477,-32.76,33.24,4.26
0.24517,-8.826,1.866,-0.061697,0.53145,-1.4114,-34.38,31.62,3.54
0.21793,-9.2891,1.9341,-0.21991,0.66859,-1.0354,-35.04,30.9,3.24
0.19068,-9.5615,2.0158,-0.29413,0.74678,-0.83017,-35.58,30.06,2.76
0.16344,-10.052,1.9613,-0.49297,0.99999,-0.1573,-36.48,28.32,2.4
0.28603,-10.637,1.9205,-0.66004,1.153,0.42669,-36.78,27.48,2.4
0.78998,-11.346,1.8932,-0.87048,1.1726,1.077,-36.96,26.82,2.34
2.2882,-11.305,1.7979,-1.1301,1.0122,2.0009,-37.32,25.62,2.16
3.4459,-9.9701,1.6344,-1.1836,0.79657,2.5009,-37.26,25.08,2.1
3.8682,-9.4389,1.3212,-1.1359,0.44899,2.8155,-37.2,24.78,1.86
5.3256,-10.134,0.53119,-1.1252,0.0027489,3.0296,-36.72,25.2,1.14
5.8023,-11.754,0.42223,-1.1686,-0.62614,3.0888,-36.42,25.56,0.72
6.0747,-13.362,0.70826,-1.2572,-1.3054,2.9496,-36.06,26.22,0.24
4.2359,-14.492,2.1929,-1.3033,-2.1182,2.4826,-35.34,27.72,-0.42
2.5606,-13.511,2.4517,-1.1215,-2.1451,2.2626,-34.98,28.5,-0.48
1.6072,-12.599,2.1929,-0.78832,-1.467,2.1447,-34.68,29.28,-0.18
1.3484,-8.8668,0.57205,-0.45112,-0.39156,1.9844,-33.42,30.96,0.48
2.0567,-7.5048,-0.027241,-0.17776,0.55894,1.8079,-32.64,31.68,1.02
2.4789,-6.7148,-0.35413,-0.023518,1.1588,1.6322,-31.86,32.22,1.68
2.942,-6.6331,0.32689,0.074526,1.5229,1.4673,-30.06,33.6,3.18
3.1191,-6.851,0.64016,0.14386,1.9902,1.4325,-29.16,34.26,3.9
3.7728,-7.3822,1.2395,0.12492,2.0485,1.4255,-28.26,34.74,4.74
4.6854,-8.1858,1.4438,-0.038485,1.7761,1.4621,-26.46,35.7,6.42
5.4073,-8.6898,1.5119,-0.22999,1.3448,1.5064,-25.5,36.06,7.26
5.7478,-8.7034,1.471,-0.43646,0.8601,1.5244,-24.6,36.36,8.16
5.9521,-8.6081,1.3484,-0.62522,0.26114,1.5345,-23.64,36.78,8.76
5.9521,-8.4446,1.0215,-0.75533,0.11668,1.5311,-21.12,37.32,9.6
5.775,-8.3493,1.1169,-0.82406,-0.062003,1.5036,-19.86,37.62,9.96
5.775,-8.4446,1.0351,-0.77763,-0.15913,1.3937,-18.6,37.86,10.2
6.3198,-9.6977,0.99429,-0.71654,-0.16768,1.2996,-16.32,38.88,10.26
7.0553,-11.087,1.0896,-0.67287,-0.2474,1.1332,-15.24,39.3,10.2
7.6683,-12.626,1.4165,-0.66126,-0.44166,0.79535,-14.34,39.72,10.2
5.6797,-12.79,1.866,-0.55131,-0.81245,0.032376,-12.42,40.44,10.32
4.413,-13.239,1.8796,-0.35033,-0.6353,-0.29108,-11.52,40.74,10.44
3.9908,-13.348,1.6072,-0.21777,-0.36377,-0.45235,-10.68,40.98,10.44
4.1814,-12.762,1.2531,0.18509,0.55894,-1.004,-10.08,41.16,10.68
4.2768,-10.542,1.4165,0.47159,0.86101,-1.3451,-9.0,41.34,11.1
3.9635,-10.12,1.58,0.77885,0.80543,-1.595,-8.64,41.22,11.4
4.5356,-10.964,1.7298,1.055,0.71013,-1.6191,-8.34,41.1,11.82
5.3528,-12.544,1.8932,1.2547,0.007025,-1.6701,-8.4,41.04,11.76
6.0611,-14.056,2.0022,1.2535,-0.36163,-1.6814,-8.58,41.04,11.58
6.2245,-14.601,2.0975,1.044,-1.6243,-1.8955,-8.82,40.86,11.4
4.6445,-14.342,2.0839,0.84208,-2.1701,-2.0678,-9.84,40.5,10.92
3.6775,-13.375,1.9477,0.67714,-2.1725,-2.2229,-10.5,40.2,10.5
2.2201,-10.746,1.7706,0.57544,-1.9077,-2.2779,-12.3,39.6,10.02
1.6344,-9.6023,1.58,0.60903,-1.5327,-2.3451,-13.5,39.24,9.66
1.3484,-8.9349,1.5391,0.64874,-1.3323,-2.3848,-14.94,38.88,9.18
1.2939,-8.1177,1.4029,0.78466,-0.80604,-2.4838,-16.26,38.46,8.58
1.362,-7.6002,1.471,0.85521,-0.6127,-2.5259,-19.08,37.68,7.02
1.362,-7.5457,1.4029,0.89125,-0.50855,-2.5687,-20.34,37.5,6.24
1.1577,-7.6002,1.362,0.87598,-0.36713,-2.5201,-22.98,36.84,4.68
1.0488,-7.8453,1.362,0.81306,-0.25595,-2.4261,-24.06,36.42,3.96
1.0079,-8.0496,1.4846,0.76969,-0.18692,-2.3579,-25.26,35.88,3.24
0.89894,-7.8726,1.6072,0.62217,-0.030543,-2.0977,-27.6,34.8,2.1
0.77636,-8.0905,1.6344,0.50427,0.063225,-1.8274,-28.62,34.14,1.8
0.70826,-8.0905,1.6889,0.38454,0.12065,-1.5214,-29.82,33.42,1.44
0.70826,-8.6217,1.6889,0.16127,0.21136,-0.98349,-31.8,31.86,0.36
0.78998,-9.3163,1.7025,-0.012523,0.27275,-0.58551,-32.7,31.08,0.36
0.83084,-9.6977,1.7298,-0.1576,0.33811,-0.15669,-33.36,30.36,-0.24
1.0488,-10.106,1.58,-0.24923,0.43066,0.28375,-34.44,28.8,-0.42
1.185,-10.665,1.4846,-0.39554,0.50335,0.75075,-34.86,28.02,-0.42
1.3757,-11.577,1.4301,-0.61881,0.50366,1.2321,-35.34,27.24,-0.42
2.0294,-11.4,1.6072,-0.7813,0.54672,1.8983,-36.06,26.34,-0.48
2.4108,-10.869,1.4301,-0.88209,0.62766,2.2181,-36.3,26.04,-0.42
3.228,-9.5479,1.1169,-0.85002,0.55039,2.3512,-36.36,25.98,-0.72
4.0725,-9.7794,0.50395,-0.87904,0.37965,2.4291,-36.3,26.1,-1.02
4.304,-11.727,0.43585,-0.9725,0.058338,2.4517,-36.24,26.34,-1.44
4.3858,-13.253,0.6674,-1.1057,-0.32101,2.4065,-36.06,26.88,-1.86
2.942,-14.533,1.7025,-1.2532,-0.63041,2.2031,-36.06,28.32,-2.16
2.0975,-13.784,1.9068,-1.1994,-0.41111,2.1557,-35.88,28.92,-2.22
1.8387,-13.021,1.7706,-1.0064,0.1405,2.1215,-35.76,29.34,-2.22
2.6696,-9.4798,0.74912,-0.77122,0.85979,2.0302,-35.04,30.84,-1.68
3.4459,-8.0496,0.44947,-0.54123,1.4862,1.9016,-34.74,31.5,-1.26
3.9363,-7.1915,0.46309,-0.37721,1.7287,1.7721,-33.96,32.16,-0.84
4.522,-7.1234,0.85808,-0.28863,1.6744,1.6945,-32.52,33.12,0.18
4.699,-7.3141,1.0488,-0.23243,1.3656,1.5968,-31.86,33.48,0.66
4.9033,-7.5593,1.3757,-0.24557,1.0919,1.6011,-31.14,33.84,1.5
5.094,-7.9679,1.4438,-0.35247,0.21594,1.6112,-29.58,34.8,2.82
5.0804,-8.036,1.3212,-0.43646,-0.17776,1.5941,-28.74,35.22,3.42
5.094,-8.036,1.076,-0.50641,-0.40714,1.5821,-27.78,35.46,4.14
4.985,-8.0088,0.88532,-0.56016,-0.42883,1.5284,-25.5,35.94,5.46
4.9306,-7.9407,0.92618,-0.59712,-0.22846,1.397,-24.18,36.3,5.94
4.9306,-8.0224,0.92618,-0.60231,-0.11332,1.3463,-22.86,36.78,6.24
5.4481,-8.5808,1.0079,-0.56749,0.13378,1.2382,-21.66,37.02,6.54
5.993,-9.3436,1.0896,-0.53084,0.33628,1.0507,-19.44,37.92,6.84
6.7966,-10.46,1.0215,-0.54275,0.27061,0.83689,-18.6,38.22,7.14
7.2596,-11.618,1.6753,-0.57116,0.050702,0.47892,-16.86,39.0,7.56
5.7205,-12.354,1.8932,-0.47892,-0.2474,-0.17654,-16.14,39.36,7.98
4.5356,-12.871,1.9886,-0.29474,-0.057421,-0.44868,-15.54,39.6,8.22
4.0316,-13.225,1.8115,-0.16982,0.16218,-0.59132,-14.94,39.72,8.52
4.6445,-12.572,1.58,0.23854,0.89492,-1.0559,-14.28,39.84,9.36
4.699,-11.141,1.6072,0.54428,1.1393,-1.3912,-14.1,39.9,9.6
4.1814,-10.215,1.6753,0.85368,1.1332,-1.6258,-13.98,39.84,9.9
4.3177,-11.046,1.8524,1.2727,0.75869,-1.6952,-14.28,39.72,9.96
4.8761,-12.204,2.0158,1.3436,0.50519,-1.6869,-14.7,39.54,10.08
5.4481,-13.825,1.9886,1.383,-0.20159,-1.6805,-15.3,39.36,9.96
5.775,-15.255,2.0703,1.1634,-1.4823,-1.8192,-15.78,39.06,9.9
4.6309,-15.064,2.3018,0.95356,-2.084,-1.9612,-17.22,38.16,9.6
3.8682,-13.77,2.0431,0.78252,-2.2446,-2.0794,-18.06,37.62,9.3
2.261,-10.678,1.7706,0.68295,-2.1841,-2.1942,-20.1,36.3,8.82
1.6344,-9.3708,1.5663,0.75961,-1.6948,-2.3253,-21.24,35.7,8.52
1.2531,-8.4446,1.4165,0.8656,-1.2685,-2.4392,-22.44,35.22,8.22
1.1032,-7.8317,1.2803,0.99571,-0.90072,-2.5256,-23.58,34.44,7.86
1.0488,-7.4776,1.2258,1.1023,-0.624,-2.6114,-25.86,33.3,6.96
1.0896,-7.4776,1.3212,1.1674,-0.41569,-2.6869,-26.88,32.76,6.36
0.8717,-7.4912,1.185,1.1658,-0.16371,-2.6646,-28.68,31.68,5.28
0.88532,-7.5729,1.2258,1.0931,-0.027184,-2.5473,-29.34,31.2,4.86
0.8717,-7.5457,1.3484,1.0354,0.033903,-2.4655,-29.88,30.6,4.62
0.9398,-7.6546,1.362,0.79504,0.20495,-2.1038,-30.48,30.0,4.32
0.95342,-7.6274,1.4438,0.57391,0.28497,-1.8002,-31.5,28.8,3.66
1.0896,-7.5457,1.5119,0.34667,0.33598,-1.4691,-32.1,28.26,3.54
0.83084,-7.7091,1.4846,-0.012217,0.42364,-0.95875,-32.88,27.18,3.0
0.62654,-8.1313,1.4846,-0.25534,0.52076,-0.52595,-33.06,26.52,2.64
0.54481,-8.4991,1.5527,-0.4725,0.61972,-0.0562,-33.24,25.86,2.46
0.5993,-9.9701,1.6072,-0.69058,0.73945,0.49388,-33.36,24.72,2.22
0.92618,-11.223,1.6753,-0.97341,0.8488,1.1243,-33.42,24.18,2.22
1.4438,-12.013,1.866,-1.2346,0.894,1.7388,-33.3,23.82,2.4
2.7377,-11.877,1.757,-1.4499,0.8375,2.5812,-33.12,23.16,2.7
3.3778,-11.346,1.6344,-1.5672,0.62797,2.974,-33.06,22.98,2.64
4.3585,-10.42,1.2395,-1.4978,0.31429,3.135,-32.88,23.1,2.46
5.9521,-10.065,0.38137,-1.4762,-0.10904,3.1148,-32.4,23.76,2.1
6.1428,-11.359,0.38137,-1.5033,-0.73182,2.9245,-32.1,24.42,1.98
5.7342,-13.443,0.96704,-1.5522,-1.4077,2.6124,-31.8,24.96,1.74
4.9578,-14.22,1.58,-1.532,-1.923,2.1506,-31.26,26.04,2.16
0.99429,-14.356,2.3155,-1.215,-1.5217,2.0284,-31.02,26.64,2.58
0.64016,-13.307,1.7979,-0.88667,-0.42974,1.9227,-30.66,27.12,3.12
1.3893,-10.937,0.85808,-0.60659,0.73548,1.7889,-30.12,27.78,3.84
3.1735,-8.2539,0.095342,-0.42913,1.5302,1.5913,-28.98,28.8,5.16
3.6911,-6.9464,0.44947,-0.29566,1.8839,1.3796,-28.44,29.22,6.0
3.8273,-6.565,0.88532,-0.17746,2.0928,1.2538,-27.78,29.52,6.72
4.3177,-6.6331,1.5527,-0.087048,2.1478,1.1686,-26.64,30.12,8.28
4.7263,-6.9328,1.6753,-0.072693,1.9334,1.1194,-25.98,30.3,9.12
4.8216,-7.1371,1.7025,-0.14478,1.4395,1.1307,-25.5,30.54,10.02
5.0259,-7.8317,1.6344,-0.3711,0.51588,1.1668,-24.3,30.42,11.7
4.9714,-7.8998,1.58,-0.53054,0.08827,1.1897,-23.52,30.54,12.42
4.9306,-7.4912,1.2939,-0.66126,-0.091019,1.1866,-22.62,30.78,13.14
4.5628,-7.5184,1.2531,-0.74739,-0.07422,1.1991,-20.88,31.26,13.68
4.6173,-7.6002,1.3484,-0.7813,0.011912,1.1979,-19.98,31.56,13.74
4.7671,-8.0088,1.4029,-0.77763,0.19181,1.1836,-19.26,31.8,13.86
5.7069,-9.6568,1.5255,-0.77,0.20372,1.1188,-17.88,32.46,14.1
6.4833,-11.005,1.7162,-0.76602,0.08827,0.96639,-17.22,32.7,14.16
7.0281,-12.572,2.0431,-0.72785,-0.10599,0.62461,-16.74,33.0,14.28
4.7671,-12.98,2.5061,-0.4664,-0.35552,0.0012217,-15.48,33.54,14.88
4.0589,-13.511,2.2337,-0.13103,-0.1912,-0.23457,-15.12,33.72,15.06
4.1542,-13.484,1.9613,0.054672,0.021075,-0.37568,-14.64,33.78,15.3
4.6718,-12.762,1.58,0.59712,0.49786,-0.80726,-14.22,33.84,15.78
4.9578,-11.046,1.6617,0.91966,0.48564,-1.1069,-13.8,34.14,16.32
4.6037,-10.324,1.7979,1.2245,0.31734,-1.3002,-13.56,34.14,16.62
5.0531,-10.937,1.7706,1.5256,-0.27,-1.4035,-13.44,34.38,17.22
5.3528,-11.945,1.7843,1.5443,-0.99999,-1.4453,-13.56,34.38,17.22
5.7478,-13.225,1.866,1.3998,-1.8747,-1.5073,-13.68,34.2,17.16
5.3528,-14.642,2.0567,1.1668,-2.6237,-1.6472,-14.22,34.14,17.04
4.4675,-14.519,1.9886,0.90713,-2.9361,-1.8317,-14.52,34.08,16.86
3.6911,-13.253,1.3893,0.65393,-2.7703,-1.9933,-14.94,34.02,16.68
2.1248,-10.637,1.7298,0.44654,-2.9135,-2.1243,-16.02,33.66,16.32
1.1169,-9.7658,1.6208,0.48228,-1.9716,-2.2492,-16.62,33.48,16.32
0.095342,-8.0905,1.4029,0.64477,-1.0779,-2.3582,-17.28,33.24,16.14
0.53119,-7.0553,1.1169,0.82039,-0.38149,-2.434,-18.78,33.18,15.42
0.8036,-7.0962,1.3212,0.94287,-0.11179,-2.4844,-19.38,33.18,15.12
1.0079,-7.2733,1.471,1.0095,-0.046731,-2.4972,-20.34,32.94,14.58
0.95342,-7.7091,1.58,1.0137,-0.020464,-2.4621,-21.84,32.82,13.08
0.9398,-7.8726,1.6344,0.89583,0.050091,-2.3216,-22.5,32.82,12.48
0.8717,-8.0496,1.6208,0.83689,0.086743,-2.2452,-23.1,32.88,11.94
0.88532,-8.4174,1.6753,0.57177,0.24954,-1.9752,-24.42,32.76,10.86
0.78998,-8.3493,1.757,0.3821,0.36041,-1.7388,-25.08,32.64,10.26
0.6674,-8.2131,1.7706,0.18082,0.4554,-1.438,-25.62,32.34,9.66
0.42223,-8.6762,1.757,-0.02474,0.54672,-1.08,-26.88,31.86,8.58
0.43585,-9.112,1.757,-0.31704,0.71532,-0.45876,-27.42,31.62,7.8
0.50395,-9.8066,1.7979,-0.38454,0.76969,-0.25687,-27.9,31.44,7.14
0.78998,-10.093,1.5119,-0.54306,0.94379,0.39187,-28.5,30.66,6.24
1.0351,-11.06,1.6344,-0.71502,0.94165,0.89461,-28.86,30.24,5.88
1.4438,-12.027,1.5391,-0.90133,0.86499,1.3848,-28.8,30.0,5.4
2.7649,-11.85,1.5663,-1.0372,0.76908,1.8726,-28.74,29.64,5.04
3.2553,-11.155,1.4165,-1.0586,0.4722,2.3714,-28.62,29.64,4.86
3.7592,-10.978,0.99429,-1.0479,0.34941,2.4676,-28.62,29.7,4.5
4.8625,-13.416,0.54481,-1.1072,-0.15974,2.6567,-28.5,30.0,3.66
5.2438,-14.751,0.57205,-1.1878,-0.64171,2.5565,-28.38,30.18,3.3
5.1757,-15.064,0.7355,-1.2636,-1.0479,2.2648,-28.26,30.72,2.94
2.6832,-12.994,1.7706,-1.2129,-1.1787,1.9862,-27.96,31.56,2.64
1.9341,-11.754,1.6344,-0.87751,-0.56261,1.7529,-27.78,31.92,2.94
1.5255,-7.9815,0.51757,-0.73212,-0.16066,1.6997,-27.48,32.28,3.36
1.9341,-7.0281,0.027241,-0.4328,0.94715,1.5507,-26.76,32.82,4.26
2.2201,-6.6195,0.21793,-0.33872,1.2917,1.4749,-26.22,33.18,4.92
2.3291,-6.2381,0.10896,-0.29444,1.7394,1.4062,-25.74,33.36,5.76
3.8682,-6.7966,1.2531,-0.28253,2.3421,1.2517,-24.84,33.9,6.96
4.6037,-6.8783,1.5663,-0.37904,1.7675,1.3222,-24.3,33.96,7.8
4.9578,-7.246,1.6072,-0.59773,1.106,1.3693,-22.92,34.08,9.42
4.8761,-7.6683,1.5391,-0.73762,0.759,1.4016,-22.26,34.14,10.44
4.9578,-8.0224,1.2531,-0.8937,0.50793,1.449,-21.42,34.32,11.34
5.2166,-8.3357,1.2395,-1.0354,0.20464,1.5119,-20.58,34.38,12.3
5.5571,-8.6353,1.3484,-1.1322,0.013744,1.5043,-18.6,34.5,13.68
5.5162,-8.6489,1.5391,-1.1292,-0.034514,1.3415,-17.64,34.74,14.1
5.0804,-8.6081,1.5391,-1.0901,0.013744,1.2544,-15.54,35.16,14.58
5.1213,-9.0712,1.4574,-0.8656,0.24312,1.0049,-14.64,35.4,14.7
5.38,-9.5615,1.3757,-0.68295,0.36713,0.79748,-13.98,35.58,14.76
6.0202,-10.474,1.4029,-0.52229,0.35308,0.48411,-13.32,36.0,14.88
5.6116,-11.087,1.975,-0.32956,0.17165,0.034514,-11.76,36.18,15.72
4.0861,-11.931,2.152,-0.076664,0.083078,-0.32895,-11.28,36.42,15.96
4.8488,-12.612,1.8932,0.20678,0.34422,-0.44532,-10.56,36.66,16.62
5.6797,-12.354,1.8524,0.56108,0.65943,-0.87598,-10.08,36.72,16.92
5.598,-11.291,1.9205,0.66035,0.60751,-1.0614,-9.84,36.9,17.22
4.6445,-11.496,2.1248,1.0119,0.21136,-1.3335,-9.54,37.02,17.28
4.6718,-12.381,2.1248,1.1793,-0.21105,-1.3494,-9.6,37.02,17.22
5.5026,-14.247,2.3155,1.2679,-0.86193,-1.3387,-9.72,37.14,17.16
6.3062,-16.304,2.3836,1.2226,-1.7196,-1.3983,-10.44,37.32,16.98
5.5707,-16.44,2.438,0.99052,-2.8781,-1.6762,-10.8,37.38,16.86
4.9306,-15.786,2.3427,0.91202,-3.0314,-1.8054,-11.16,37.38,16.62
3.6366,-13.743,2.1793,0.80787,-2.8225,-2.1597,-11.7,37.2,16.44
1.9205,-10.855,2.0294,0.85918,-2.4954,-2.3961,-13.2,37.32,15.6
1.1169,-9.4389,1.5936,0.99815,-2.0073,-2.6774,-14.04,37.14,15.24
0.65378,-7.8317,1.1305,1.1487,-1.4245,-2.7553,-16.02,36.78,14.4
0.84446,-7.5593,1.2122,1.3283,-0.72052,-2.9257,-17.16,36.72,13.74
0.8717,-7.5457,1.1577,1.3561,-0.5455,-2.9535,-18.42,36.72,13.08
1.1305,-7.5184,1.1986,1.3601,-0.15608,-2.9905,-20.7,36.78,11.64
1.1169,-7.6002,1.0896,1.2798,0.034819,-2.9526,-21.66,36.72,10.98
1.0215,-7.7908,1.1441,1.1616,0.21441,-2.8698,-22.68,36.54,10.26
0.85808,-7.75,1.2531,0.8882,0.43371,-2.595,-24.54,36.12,8.88
0.72188,-7.8317,1.3348,0.64874,0.52962,-2.3069,-25.56,35.88,8.22
0.74912,-7.8998,1.3757,0.51496,0.56047,-2.1469,-26.58,35.52,7.62
0.6674,-7.8589,1.471,0.14142,0.60659,-1.62,-27.54,35.22,6.9
0.53119,-8.0905,1.6208,-0.096822,0.64935,-1.2098,-29.58,34.08,5.76
0.49033,-8.5672,1.58,-0.31796,0.73243,-0.76511,-30.48,33.48,5.1
0.49033,-9.2891,1.5119,-0.48106,0.82192,-0.27886,-31.98,32.28,3.96
0.78998,-9.6704,1.362,-0.69639,0.93707,0.551,-32.52,31.56,3.6
1.3348,-10.896,1.2395,-0.9444,0.89706,1.182,-32.76,30.84,3.54
1.7706,-11.414,1.3757,-1.1823,0.76755,1.803,-33.12,30.12,3.3
3.0101,-10.924,1.4165,-1.3564,0.58949,2.3857,-33.6,29.4,3.0
3.7456,-10.215,1.3076,-1.4035,0.34208,2.8268,-33.72,29.28,2.82
4.9306,-10.665,0.46309,-1.4044,0.041233,3.0647,-33.6,29.34,2.46
5.3528,-12.544,0.29965,-1.5302,-0.55925,3.2284,-33.3,30.3,1.86
5.8976,-14.724,0.55843,-1.606,-0.84452,3.2434,-33.0,31.02,1.5
5.884,-15.99,1.2531,-1.7926,-1.7978,2.8579,-32.64,31.62,1.38
3.8682,-15.187,2.2474,-1.762,-2.0733,2.5287,-31.98,33.18,1.32
2.3699,-13.838,2.1248,-1.5262,-1.7199,2.2776,-31.56,34.08,1.62
1.2531,-9.7113,0.61292,-1.1854,-0.75167,2.0189,-31.08,35.04,2.16
1.5391,-8.1586,0.61292,-0.86743,0.41447,1.7743,-29.64,36.12,3.78
1.9068,-7.0281,-0.10896,-0.64691,1.2825,1.5873,-28.98,36.66,4.56
1.8932,-6.96,0.14982,-0.41783,2.2126,1.3616,-28.14,37.08,5.52
2.5334,-7.1098,1.1441,-0.32834,2.7917,1.2929,-26.58,37.68,7.62
3.2689,-7.3141,1.7434,-0.28863,3.1075,1.2483,-25.86,37.62,8.64
4.4402,-7.7227,2.2201,-0.35216,2.9019,1.2288,-24.72,37.68,10.74
5.1894,-7.927,2.2474,-0.4609,2.6463,1.2376,-24.12,37.44,11.94
5.4209,-7.927,2.2882,-0.63347,1.9477,1.2617,-23.52,37.32,12.96
5.598,-7.9951,2.152,-0.90805,0.86101,1.2859,-22.86,37.14,13.8
5.2166,-7.8726,1.7706,-1.0418,0.34972,1.2975,-21.18,36.9,15.36
4.9306,-7.9543,1.7298,-1.0953,-0.012828,1.387,-20.16,36.9,15.84
4.9306,-7.9543,1.7298,-1.0556,-0.069333,1.4175,-20.16,36.9,15.84
5.38,-9.0303,1.866,-1.014,-0.04215,1.416,-19.02,36.96,16.08
5.38,-9.0303,1.866,-0.91905,0.031154,1.347,-19.02,36.96,16.08
6.3062,-10.311,1.8932,-0.73273,-0.10965,1.0168,-18.18,37.14,16.38
7.1371,-11.768,2.4789,-0.55467,-0.47831,0.57574,-16.32,37.92,16.5
5.7478,-11.523,2.7649,-0.27122,-0.85063,0.15638,-15.54,38.22,16.62
4.2904,-12.762,2.1112,0.095906,-0.84086,-0.11637,-14.16,38.52,16.98
4.3858,-12.83,1.7298,0.44838,-0.43097,-0.47678,-13.56,38.82,17.22
4.4402,-12.354,1.5391,0.75167,-0.037263,-0.84941,-13.02,39.0,17.58
4.0316,-10.188,1.757,1.1939,0.21044,-1.2953,-12.0,39.06,18.0
4.0044,-10.542,1.7843,1.4465,0.12584,-1.3775,-11.58,39.0,18.24
5.3119,-12.735,1.7298,1.6139,-0.16616,-1.427,-11.04,39.18,18.3
5.9793,-13.607,1.8387,1.6451,-0.73823,-1.4505,-10.86,39.24,18.3
6.5105,-15.473,2.0431,1.5357,-1.5437,-1.5815,-11.22,39.0,18.06
5.7614,-15.868,2.0975,1.3219,-2.3579,-1.7697,-11.58,38.82,17.7
4.0861,-14.192,1.9068,1.0501,-2.8259,-2.0595,-12.78,38.28,16.8
3.732,-12.871,1.2395,0.90164,-2.6936,-2.2232,-13.38,38.16,16.56
2.4789,-10.515,1.5119,0.74862,-3.2794,-2.328,-14.94,37.8,15.54
1.4165,-9.8339,1.4029,0.71196,-3.3139,-2.4041,-15.84,37.44,15.12
-0.14982,-7.9815,1.0488,0.7813,-2.5003,-2.4578,-18.0,36.72,14.1
-0.24517,-7.6955,0.98067,0.90011,-1.4459,-2.5611,-18.96,36.54,13.62
0.39499,-7.6683,0.8036,0.96761,-0.5733,-2.6053,-20.16,36.3,12.96
1.3212,-7.8726,1.076,0.94287,0.0085521,-2.697,-22.32,35.76,11.64
1.4165,-7.8453,1.185,0.84635,0.10751,-2.6457,-23.28,35.4,10.98
1.4438,-7.927,1.362,0.74067,0.15791,-2.5537,-24.36,35.04,10.32
1.1713,-7.8045,1.362,0.59773,0.17776,-2.3882,-26.16,34.56,9.36
1.0488,-7.8317,1.4165,0.43341,0.19059,-2.1817,-27.06,34.2,8.82
0.9398,-7.9679,1.58,0.23824,0.22419,-1.9145,-27.84,33.66,8.4
0.8717,-8.0088,1.6344,-0.033598,0.25107,-1.4172,-28.68,32.76,7.92
0.89894,-8.431,1.6344,-0.22907,0.25168,-1.0174,-29.46,32.04,7.56
0.8717,-8.9622,1.8115,-0.41997,0.27092,-0.59559,-30.36,31.32,7.2
0.85808,-9.5887,1.8796,-0.60964,0.35339,0.09163,-31.14,30.78,6.78
0.99429,-10.093,1.7025,-0.65057,0.40073,0.33598,-32.22,29.46,6.12
1.3212,-11.305,1.6072,-0.84025,0.4664,1.1054,-32.7,28.8,5.82
1.6072,-11.659,1.5663,-0.95723,0.47892,1.5769,-33.06,28.2,5.76
2.3836,-11.768,1.5391,-1.0372,0.46395,2.0537,-33.54,27.18,5.76
3.3097,-10.365,1.3348,-1.0116,0.37843,2.3631,-33.66,26.58,5.82
4.5492,-10.079,0.70826,-0.93707,0.065668,2.5537,-33.84,25.98,5.88
5.2166,-11.754,0.51757,-0.96547,-0.35919,2.5501,-34.02,25.98,5.88
5.6252,-13.484,0.54481,-1.0165,-0.90713,2.4154,-33.96,26.04,5.76
5.6116,-14.451,0.83084,-1.0712,-1.4013,2.0974,-33.84,26.4,5.82
3.1191,-14.724,1.9613,-1.0198,-1.5705,1.7675,-33.66,27.66,5.64
1.7162,-13.225,1.7706,-0.78771,-1.1555,1.5036,-33.48,28.5,5.76
0.85808,-11.073,1.0215,-0.4496,-0.19517,1.3079,-33.3,28.98,5.94
1.4574,-7.0417,-0.14982,-0.10171,0.91324,1.1732,-33.12,29.82,6.48
2.3427,-6.1292,-0.23155,0.27428,1.9193,1.0562,-32.88,30.18,6.9
2.7513,-5.8567,-0.12258,0.34392,2.036,1.0311,-32.64,30.54,7.32
3.2825,-6.3471,0.50395,0.44257,2.226,1.0079,-32.22,31.14,8.34
3.4459,-6.5922,0.7355,0.36072,2.1664,1.0889,-31.92,31.5,8.76
4.1542,-7.0962,1.4982,0.24251,2.2727,1.0782,-31.5,31.86,9.18
5.38,-7.3277,1.4165,-0.086743,1.5134,1.1484,-30.72,32.16,9.78
5.3664,-7.3822,1.1169,-0.39523,0.7028,1.2804,-30.36,32.34,10.2
5.1076,-7.4231,1.0351,-0.53267,0.43677,1.3299,-30.06,32.46,10.38
4.699,-7.3822,0.78998,-0.89522,0.26328,1.5266,-29.7,32.52,10.62
4.5901,-7.7227,0.72188,-1.0736,0.23152,1.5962,-28.62,32.7,10.86
4.7807,-8.3765,0.92618,-1.204,0.28008,1.6365,-27.9,33.06,10.8
5.0123,-9.507,1.1986,-1.2859,0.41753,1.6344,-26.04,34.14,10.92
5.5162,-10.665,1.1169,-1.3182,0.54978,1.5999,-25.26,34.56,10.8
6.0338,-12.081,1.2803,-1.3283,0.55344,1.4224,-24.54,35.04,10.8
6.8238,-13.253,1.4574,-1.2596,0.42699,1.0437,-23.76,35.64,10.86
5.7069,-12.912,2.1248,-1.0635,0.24618,0.55619,-22.2,36.66,10.98
4.4402,-12.749,2.2201,-0.7138,0.24221,0.22694,-21.6,36.96,11.28
4.5356,-12.749,1.5119,-0.06689,0.80695,-0.19823,-20.52,37.62,11.88
5.2166,-11.741,1.4029,0.30788,1.0498,-0.52443,-19.92,37.8,12.18
5.2575,-10.719,1.58,0.47617,1.018,-0.68845,-19.44,37.98,12.42
4.808,-10.025,1.8796,0.95845,0.61728,-0.95661,-18.84,38.22,12.84
5.0395,-10.869,1.866,1.1481,0.15485,-1.0308,-18.84,38.34,13.08
5.5299,-12.027,2.0703,1.2095,-0.51679,-1.0712,-19.08,38.22,13.2
6.4016,-13.879,2.2474,1.0547,-1.8024,-1.2388,-19.32,37.98,13.08
5.9657,-13.866,2.0567,0.96181,-2.2071,-1.3216,-19.62,37.92,13.08
4.9987,-13.321,1.9886,0.78038,-2.704,-1.5122,-19.92,37.62,12.96
3.5277,-11.591,1.6889,0.60384,-2.5998,-1.8167,-20.94,36.84,12.66
2.4244,-9.9565,1.471,0.59101,-2.2633,-2.0003,-21.66,36.48,12.72
1.7162,-8.8532,1.3212,0.65851,-1.7843,-2.1728,-22.32,36.0,12.36
1.2258,-7.6819,1.076,0.7816,-1.255,-2.35,-24.0,35.04,12.3
1.2803,-7.3958,0.99429,0.89431,-0.81031,-2.401,-24.96,34.5,12.3
1.4438,-7.355,1.076,0.99876,-0.44166,-2.4807,-26.04,33.96,12.18
1.4982,-7.4095,1.2122,0.9954,-0.32651,-2.4777,-28.02,33.0,11.58
1.5391,-7.4503,1.2531,0.94195,-0.23366,-2.4239,-28.92,32.52,11.04
1.5119,-7.6274,1.2803,0.84452,-0.14844,-2.3445,-29.7,32.1,10.44
1.4301,-8.1177,1.5255,0.62583,-0.040317,-2.1151,-31.2,31.02,9.54
1.3757,-8.2131,1.6072,0.53023,-0.029016,-2.0165,-31.86,30.54,9.06
1.2667,-8.322,1.5119,0.34117,0.0082467,-1.7871,-31.86,30.54,9.06
1.076,-8.5127,1.4438,0.059865,0.12339,-1.4001,-33.12,29.4,8.28
1.0215,-9.0984,1.5119,-0.12004,0.2755,-1.1035,-33.66,28.2,7.56
1.0896,-9.9701,1.5391,-0.2755,0.42913,-0.76541,-34.32,27.3,6.72
1.1032,-10.351,1.5391,-0.40928,0.63591,-0.24282,-34.2,26.76,6.18
1.2803,-11.782,1.3893,-0.5174,0.7422,0.14905,-34.32,25.8,5.58
1.6889,-12.735,1.4982,-0.65088,0.7367,0.57085,-33.96,24.84,5.34
2.0839,-12.721,1.471,-0.7703,0.70341,0.9725,-33.6,24.24,5.46
2.7241,-11.509,1.3076,-0.82742,0.69669,1.3363,-33.24,23.82,5.4
3.5004,-9.5751,0.91256,-0.75014,0.59895,1.6005,-32.94,23.58,5.22
4.4266,-9.0848,0.39499,-0.64477,0.39615,1.7749,-32.64,23.82,4.5
4.7944,-10.515,0.19068,-0.61423,-0.20372,1.9007,-32.52,24.48,3.96
4.8625,-11.945,0.25879,-0.6353,-0.46029,1.9028,-32.28,24.72,3.72
4.6309,-12.653,0.44947,-0.7648,-1.0883,1.7321,-32.28,25.26,3.42
3.1191,-13.293,1.2803,-0.82833,-1.1661,1.5739,-32.22,26.16,2.94
2.2882,-12.177,1.3484,-0.7926,-0.86407,1.4306,-32.4,26.52,2.82
1.6072,-9.4117,0.92618,-0.67684,-0.24129,1.3497,-32.58,26.94,3.3
1.6344,-8.3765,0.54481,-0.51404,0.53359,1.2578,-32.58,27.12,3.72
2.152,-6.3743,0.19068,-0.31734,1.5715,1.1261,-32.76,27.42,4.98
2.3291,-6.1428,0.25879,-0.23946,1.9697,1.0702,-32.76,27.78,6.36
2.8194,-6.0883,0.8036,-0.20189,2.1783,1.0635,-32.76,27.9,7.14
3.2825,-6.3879,1.0215,-0.21747,2.2324,1.1124,-32.46,27.72,8.34
4.0452,-6.8783,1.3484,-0.30085,2.051,1.1796,-32.04,27.78,9.36
4.3313,-7.1507,1.3757,-0.45265,1.6759,1.2666,-31.74,27.96,10.38
4.808,-7.6683,1.4982,-0.61331,1.2089,1.35,-30.66,28.02,10.86
4.8625,-7.8862,1.3757,-0.85735,0.54092,1.4725,-29.28,28.62,11.34
4.9306,-7.8726,1.2258,-0.98899,0.22083,1.5547,-28.14,29.28,11.34
4.7263,-8.1995,1.2667,-1.0492,0.058338,1.6331,-27.3,29.58,11.28
4.8352,-8.7306,1.3484,-1.044,0.016188,1.671,-25.86,30.6,10.98
5.598,-9.9973,1.2531,-1.0153,0.020464,1.6994,-24.54,31.32,10.92
6.7966,-11.496,1.2531,-0.96914,0.0085521,1.6561,-23.04,32.34,11.22
7.4095,-12.245,1.2939,-0.9389,-0.24984,1.3219,-22.26,32.76,11.4
7.246,-12.817,1.7979,-0.86163,-0.59346,0.86865,-20.94,33.54,11.88
5.094,-12.585,2.0431,-0.67134,-0.78496,0.45173,-19.68,34.14,12.3
4.1542,-13.171,1.5119,-0.38301,-0.53084,0.19548,-18.42,34.56,13.08
4.3858,-13.076,1.3212,-0.072388,0.054062,-0.13561,-17.1,34.86,13.62
4.7399,-10.515,1.2531,0.21655,0.48258,-0.50427,-16.74,35.16,13.98
4.1542,-9.0575,1.5527,0.6576,0.58154,-0.9615,-16.14,35.46,14.22
4.1542,-9.4117,1.6617,0.94562,0.46762,-1.0507,-15.9,35.52,14.34
4.8625,-11.06,1.7298,1.1307,0.15944,-1.0999,-15.6,35.88,14.22
5.4618,-12.463,1.866,1.2037,-0.40897,-1.1487,-15.78,35.82,14.28
6.3335,-14.342,2.1793,1.1362,-1.1845,-1.2217,-16.2,35.88,14.04
5.8976,-14.233,2.1656,0.99296,-2.0327,-1.3522,-16.74,35.88,13.8
4.4811,-12.422,1.8387,0.76022,-2.7012,-1.6487,-17.52,35.7,13.14
3.8273,-11.523,1.7434,0.697,-2.606,-1.8375,-18.0,35.46,12.9
2.4925,-9.6023,1.58,0.70616,-2.3366,-1.9899,-19.08,35.16,12.6
1.6617,-8.2539,1.2803,0.78252,-1.9019,-2.1225,-20.46,34.8,12.48
1.471,-7.927,1.2122,0.87354,-1.4132,-2.2565,-21.06,34.44,12.06
1.4165,-7.6002,1.1169,0.98685,-0.8262,-2.405,-22.68,33.96,11.82
1.4438,-7.5321,1.2531,1.0177,-0.57177,-2.4792,-24.9,33.36,10.8
1.4438,-7.5457,1.1713,0.99327,-0.38759,-2.5107,-26.82,33.0,9.66
1.3757,-7.6274,1.1577,0.92241,-0.25107,-2.4737,-27.72,32.82,9.12
1.3212,-7.8589,1.2122,0.80054,-0.1069,-2.3906,-29.64,32.4,7.98
1.1305,-7.9543,1.3757,0.66462,0.065668,-2.2626,-31.14,32.04,6.72
1.1305,-8.0905,1.3893,0.51007,0.23702,-2.0678,-31.74,31.62,6.12
1.076,-8.3493,1.4982,0.35339,0.46976,-1.6915,-33.06,30.78,4.74
0.89894,-8.6353,1.6753,0.12217,0.54825,-1.3751,-34.14,29.88,3.78
0.96704,-9.1256,1.6889,-0.040317,0.60934,-1.0058,-34.56,29.4,3.12
1.0896,-9.9292,1.6344,-0.17318,0.64568,-0.64416,-34.98,28.38,2.4
0.89894,-10.447,1.6072,-0.25473,0.69272,-0.2868,-35.04,27.3,2.46
1.0488,-10.542,1.5119,-0.32437,0.74984,0.11393,-35.16,26.7,2.34
1.3484,-11.836,1.5119,-0.47403,0.72876,0.57941,-35.34,25.56,2.34
1.9068,-12.122,1.58,-0.7251,0.58277,1.2843,-35.22,24.9,2.22
2.7377,-11.278,1.5527,-0.82436,0.51007,1.7178,-35.04,24.48,1.86
3.0918,-10.515,1.3484,-0.81428,0.38149,1.9832,-34.92,24.48,1.56
3.8682,-9.7249,0.69464,-0.76755,0.21075,2.1209,-34.8,24.78,0.9
4.522,-11.496,0.38137,-0.79107,-0.04612,2.1893,-34.62,25.5,0.12
4.6309,-12.395,0.46309,-0.87537,-0.65912,2.0727,-34.68,25.74,-0.18
4.1814,-13.634,0.99429,-1.0779,-0.9841,1.8717,-34.56,26.7,-1.02
2.3972,-13.13,1.7162,-1.1096,-1.0079,1.679,-34.44,27.66,-1.32
1.4982,-11.891,1.6344,-1.0134,-0.60751,1.5934,-34.44,28.08,-1.32
1.3212,-9.2346,0.8717,-0.84208,0.13592,1.5357,-34.56,28.8,-0.66
1.6344,-8.322,0.65378,-0.66065,0.98807,1.4566,-34.5,29.04,-0.12
2.4789,-7.1234,0.31327,-0.54734,1.6234,1.3958,-34.44,29.1,1.2
2.8739,-6.6059,0.47671,-0.45998,2.0772,1.3295,-33.9,29.34,2.82
3.3778,-6.7012,0.5993,-0.43188,2.6707,1.2318,-33.54,29.46,3.66
4.699,-6.9191,1.7298,-0.478,2.6942,1.1606,-32.88,29.46,5.34
5.1894,-6.8647,1.7979,-0.59437,1.8549,1.2407,-31.86,29.46,6.72
4.9169,-7.2188,1.6617,-0.7477,0.93798,1.3241,-31.14,29.46,7.32
4.5083,-7.4912,1.7025,-0.86987,0.45051,1.387,-29.82,29.82,8.16
4.6173,-7.6683,1.471,-1.0211,-0.000611,1.4908,-28.32,30.18,8.94
4.6173,-7.9134,1.4029,-1.0739,-0.15363,1.5281,-27.36,30.54,9.12
4.6173,-8.1177,1.6344,-1.0693,-0.15516,1.5391,-25.92,31.5,9.12
5.0395,-9.0439,1.4846,-1.033,-0.048869,1.5443,-24.66,32.34,9.24
5.9657,-10.379,1.58,-0.99082,0.061392,1.5134,-23.58,33.06,9.3
6.5105,-11.223,1.6753,-0.94043,0.039095,1.3784,-22.98,33.42,9.42
7.4095,-12.898,2.1248,-0.85735,-0.23885,0.8885,-21.78,34.02,9.78
6.96,-12.939,2.3427,-0.68692,-0.49541,0.41325,-21.0,34.38,10.08
4.7399,-12.898,2.4517,-0.38026,-0.53481,0.083383,-19.98,34.86,10.92
4.4811,-13.144,1.6208,-0.031154,-0.13531,-0.2025,-19.08,35.1,11.52
4.5764,-12.735,1.5663,0.29749,0.33109,-0.59834,-18.72,35.28,11.76
4.1542,-10.746,1.8796,0.60659,0.49266,-0.93982,-18.12,35.28,12.0
3.8818,-10.515,1.9886,0.92241,0.47831,-1.1506,-18.0,35.28,12.3
4.1814,-10.815,1.8932,1.325,0.24557,-1.2489,-17.94,35.22,12.42
5.598,-12.503,1.8796,1.4371,-0.21991,-1.2813,-18.24,35.04,12.48
6.5922,-13.906,1.9613,1.4248,-0.98991,-1.3341,-18.6,34.74,12.12
6.565,-14.152,2.0158,1.3039,-1.9285,-1.4645,-18.96,34.5,11.94
5.5435,-13.579,1.8932,1.1316,-2.7171,-1.737,-19.92,33.84,11.46
3.7865,-12.095,1.5119,0.98319,-3.0131,-1.901,-21.12,33.0,11.04
2.8194,-10.869,1.3484,0.75564,-3.0076,-2.0443,-22.32,31.92,10.74
2.0839,-9.6977,1.6344,0.70921,-3.0302,-2.1518,-22.92,31.2,10.68
0.8717,-8.4582,1.2939,0.73548,-2.2633,-2.2187,-24.54,30.18,10.5
0.62654,-7.5048,0.92618,0.80054,-1.4813,-2.3271,-25.2,29.58,10.44
1.0488,-7.3822,0.98067,0.8604,-0.85032,-2.4047,-26.7,28.62,10.02
1.1986,-7.246,1.076,0.86834,-0.50916,-2.459,-28.08,27.6,9.6
1.4438,-7.3686,1.185,0.79504,-0.22694,-2.4535,-29.4,26.76,9.0
1.3757,-7.6546,1.2531,0.6805,-0.12278,-2.4132,-29.94,26.46,8.82
0.98067,-7.9679,1.362,0.53939,-0.037263,-2.3118,-30.66,25.98,8.22
0.88532,-8.2131,1.5663,0.37354,0.06017,-2.146,-30.78,25.68,7.92
0.7355,-8.6762,1.6753,0.18601,0.18112,-1.9404,-31.44,25.2,7.44
0.57205,-8.9213,1.7298,0.017715,0.33475,-1.7135,-31.62,24.9,7.14
0.57205,-9.1256,1.7162,-0.13653,0.49602,-1.4169,-31.62,24.48,6.9
0.64016,-9.793,1.8524,-0.35003,0.6918,-0.94684,-31.8,23.64,6.3
0.46309,-10.12,1.8387,-0.43035,0.83322,-0.59956,-32.04,23.1,6.0
0.31327,-10.283,1.8387,-0.48106,0.9954,-0.22144,-31.98,22.62,6.0
0.96704,-11.577,1.6481,-0.58582,1.0873,0.26756,-31.86,21.72,5.94
1.5391,-11.986,1.7162,-0.76694,1.0763,0.78802,-31.74,21.24,5.94
1.8932,-11.904,1.866,-0.91844,1.0214,1.2489,-31.74,20.88,5.94
2.8875,-10.12,1.58,-0.99876,0.88484,1.8256,-31.56,20.22,5.64
3.2553,-9.3572,1.2395,-0.95264,0.69364,2.0183,-31.5,20.1,5.46
3.7456,-10.011,0.85808,-0.93493,0.42852,2.1884,-31.44,20.04,5.28
4.1542,-12.49,0.70826,-0.9838,-0.21411,2.3439,-31.26,20.16,4.44
4.5764,-13.852,1.185,-1.0067,-0.43952,2.3408,-31.2,20.58,4.02
4.3177,-14.438,1.3893,-1.0599,-0.77946,2.2474,-31.26,21.0,3.54
3.1191,-12.245,1.6072,-0.94837,-0.85827,2.0302,-31.32,21.72,3.06
2.7513,-10.529,1.1577,-0.73487,-0.52931,1.9138,-31.26,22.2,3.24
2.7104,-8.7987,0.64016,-0.50121,0.029627,1.7645,-31.32,22.62,3.36
2.8603,-6.851,0.17706,-0.22297,0.75442,1.5238,-30.96,23.4,4.02
2.6968,-6.4424,0.27241,-0.12248,1.0244,1.4111,-30.66,23.82,4.44
2.6015,-6.4969,0.43585,-0.057116,1.2975,1.3552,-30.3,24.18,4.92
2.9965,-6.8102,0.74912,-0.028711,1.6594,1.2761,-29.88,24.54,5.34
3.6366,-7.1098,1.1713,-0.083383,1.5608,1.3271,-29.52,24.9,5.94
4.3449,-7.5457,1.185,-0.21319,1.2126,1.4184,-28.8,25.5,6.84
4.699,-7.8317,1.2258,-0.43463,0.83505,1.5311,-28.26,25.86,7.44
5.38,-8.1041,1.0624,-0.51007,0.72357,1.5601,-26.94,26.4,8.7
5.5435,-8.1177,0.96704,-0.7138,0.33537,1.6112,-26.34,26.82,9.3
5.4754,-8.1586,0.85808,-0.80695,0.11606,1.6414,-25.38,27.06,9.78
5.5843,-8.431,1.0079,-0.85124,-0.034514,1.6518,-23.22,27.96,10.32
6.0066,-9.0984,0.99429,-0.86224,-0.16096,1.6322,-22.2,28.56,10.44
7.3822,-11.577,1.1441,-0.88117,-0.30299,1.4077,-20.46,29.7,10.68
7.8862,-12.681,1.3212,-0.92424,-0.66706,1.0553,-19.74,30.3,10.68
7.3958,-13.048,1.7025,-0.91752,-0.81978,0.7981,-18.96,30.72,10.74
5.5843,-12.844,1.9613,-0.70219,-0.92638,0.093157,-18.3,31.14,10.86
3.2553,-13.389,1.3212,-0.39951,-0.35919,-0.17501,-16.74,31.74,11.28
3.7184,-13.171,1.0079,-0.082161,0.45662,-0.48839,-16.26,32.16,11.64
4.4675,-12.054,0.92618,0.22266,0.99571,-0.84544,-15.78,32.4,11.82
4.1542,-9.7113,1.58,0.53878,1.1197,-1.1781,-14.94,32.76,12.12
4.2768,-9.8066,1.6753,0.86224,1.0098,-1.3387,-14.58,32.82,12.3
4.6037,-10.202,1.757,1.2175,0.43585,-1.3916,-14.46,32.88,12.48
5.993,-12.926,1.8387,1.2758,-0.29535,-1.4337,-14.58,32.76,12.54
6.2517,-14.124,1.7979,1.1686,-1.2138,-1.5611,-14.7,32.58,12.42
4.9033,-14.274,1.9613,0.86193,-2.2956,-1.8063,-15.24,32.16,11.82
3.8954,-13.13,1.8796,0.70127,-2.3973,-1.9633,-15.72,31.68,11.58
2.6968,-11.25,1.7025,0.62858,-2.1735,-2.0898,-16.2,31.32,11.46
2.2201,-10.243,1.6617,0.63316,-2.0235,-2.1359,-16.92,30.84,11.4
1.362,-8.5808,1.2803,0.77091,-1.3662,-2.2385,-17.82,30.3,11.22
1.2667,-7.3277,1.1441,0.90775,-0.95539,-2.3045,-19.86,29.1,10.56
1.5663,-7.2324,1.2258,0.99968,-0.70219,-2.3268,-20.88,28.5,10.32
1.6344,-7.2733,1.2122,1.0394,-0.63622,-2.3613,-22.08,27.9,9.9
1.5255,-7.464,1.2803,1.0299,-0.62156,-2.3622,-24.12,26.88,8.46
1.2531,-7.5457,1.2803,0.92454,-0.61178,-2.3118,-24.9,26.46,7.92
1.1169,-7.6683,1.3757,0.79412,-0.57574,-2.1799,-25.68,26.16,7.32
0.96704,-7.8862,1.3212,0.63163,-0.49083,-1.9966,-26.22,25.8,6.78
0.64016,-8.2131,1.471,0.45051,-0.36499,-1.7446,-27.48,24.72,5.88
0.61292,-8.431,1.5119,0.25656,-0.087659,-1.3326,-28.08,24.3,5.64
0.64016,-8.9486,1.6617,0.070555,0.0067195,-1.1759,-28.86,23.46,4.98
0.64016,-9.507,1.7706,-0.10904,0.22083,-0.84147,-29.1,23.28,4.68
0.57205,-10.079,1.7298,-0.32559,0.47831,-0.31765,-29.28,22.98,4.38
0.40861,-10.447,1.8387,-0.42883,0.64049,0.028405,-29.04,22.56,3.9
0.51757,-10.733,1.6344,-0.50855,0.76969,0.39798,-28.92,22.5,3.84
0.92618,-12.558,1.7979,-0.65546,0.81489,0.84116,-28.74,22.26,4.02
1.4301,-12.422,1.9068,-0.8094,0.86193,1.4404,-28.32,22.02,4.14
2.2201,-10.719,1.7025,-0.77977,0.86743,1.744,-28.14,21.9,4.14
2.5198,-9.793,1.4438,-0.65821,0.76786,1.9022,-28.08,21.9,4.08
3.337,-9.9156,0.58567,-0.58032,0.56994,2.0262,-28.02,22.02,3.66
3.6775,-11.673,0.38137,-0.63499,0.20922,2.1643,-28.02,22.26,3.36
4.127,-14.465,0.57205,-0.85032,-0.33139,2.2217,-28.02,23.04,2.82
4.3585,-15.064,1.2531,-1.0357,-0.51374,2.0736,-28.08,23.58,2.64
3.4732,-14.043,1.6344,-1.095,-0.48778,1.8836,-28.26,23.88,2.52
2.6287,-13.035,1.7025,-0.99602,-0.19273,1.7846,-28.5,24.24,2.64
2.1929,-9.112,0.72188,-0.80451,0.38607,1.6741,-28.62,24.96,3.18
2.3563,-7.4912,0.095342,-0.61575,1.0397,1.5171,-28.5,25.08,3.48
2.4789,-5.884,-0.29965,-0.47892,1.4783,1.3912,-28.2,25.38,3.84
2.9011,-5.9521,0.040861,-0.35827,2.2938,1.1741,-27.66,26.04,4.8
3.6639,-6.2381,1.0896,-0.34941,2.4025,1.0684,-27.18,26.16,5.34
3.9227,-6.3743,1.3484,-0.36224,2.2263,1.1051,-26.76,26.4,5.88
4.3449,-7.1507,1.3757,-0.49969,1.5458,1.2019,-25.8,26.94,7.08
4.7263,-7.4776,1.4301,-0.60995,1.3182,1.2544,-25.2,27.24,7.8
5.1894,-7.8317,1.1169,-0.7364,0.84147,1.2953,-23.88,27.66,8.82
5.2983,-7.927,1.0896,-0.92241,0.49114,1.3292,-23.22,27.84,9.3
5.1621,-8.0905,1.0351,-0.956,0.36835,1.3393,-22.32,28.2,9.66
5.094,-8.3765,0.96704,-0.97983,0.2193,1.3717,-21.36,28.62,9.84
5.3664,-9.507,1.1305,-0.95203,0.21716,1.3659,-19.68,29.46,9.96
5.9657,-10.556,1.185,-0.90927,0.17837,1.3005,-18.9,29.88,9.9
6.7285,-11.741,1.2531,-0.8491,-0.0048869,0.96822,-17.52,30.72,9.78
6.7829,-12.871,1.7843,-0.75442,-0.23946,0.55008,-16.8,31.08,9.78
4.8897,-12.83,1.9886,-0.66829,-0.34575,0.3372,-16.38,31.38,9.84
4.2495,-13.089,1.866,-0.26328,-0.18723,-0.047342,-15.84,31.68,9.96
4.304,-13.266,1.5255,0.042455,0.29413,-0.34331,-15.36,31.92,10.14
5.0531,-11.223,1.362,0.34514,0.59498,-0.68203,-14.52,32.34,10.68
4.808,-10.392,1.5391,0.66126,0.54306,-0.98869,-14.16,32.64,10.98
4.6718,-10.243,1.6072,0.94654,0.2755,-1.1206,-13.86,32.7,11.22
5.4073,-11.863,1.6753,1.1219,-0.15302,-1.1832,-13.32,32.88,11.4
6.1836,-13.688,1.8524,1.1399,-1.215,-1.3118,-13.26,33.0,11.34
6.2517,-14.383,1.9477,1.0012,-2.054,-1.5021,-13.26,33.24,11.34
4.2768,-14.247,2.0158,0.82192,-2.5772,-1.7352,-13.38,33.3,11.16
3.623,-13.375,1.8932,0.69364,-2.5287,-1.9343,-13.8,33.24,10.98
2.7377,-11.768,1.4846,0.67134,-1.8839,-2.2092,-14.28,32.82,10.92
1.4982,-8.7306,1.2531,0.71288,-1.6863,-2.2694,-15.6,32.46,10.62
1.1305,-7.641,0.96704,0.93798,-0.91935,-2.3735,-16.5,32.16,10.5
1.2803,-7.3005,0.9398,1.0928,-0.49938,-2.4187,-17.58,31.74,10.14
1.8932,-6.96,1.0215,1.19,-0.3821,-2.4242,-19.74,31.02,8.94
2.0839,-7.0145,1.185,1.2184,-0.4328,-2.4157,-21.12,30.72,8.04
1.8115,-7.3414,1.3893,1.1387,-0.64385,-2.3699,-23.46,30.0,6.6
1.6753,-7.641,1.3076,1.0131,-0.77885,-2.2782,-24.6,29.52,5.82
1.4846,-7.8453,1.4438,0.82131,-0.8601,-2.1441,-25.68,29.04,5.16
1.0351,-8.4446,1.471,0.60415,-0.84849,-1.97,-27.84,27.78,3.84
0.81722,-8.7987,1.4982,0.36591,-0.71929,-1.7477,-28.86,27.18,3.3
0.51757,-8.8396,1.6344,0.16677,-0.47861,-1.5149,-29.7,26.58,2.94
0.12258,-9.4661,1.7979,-0.0073304,-0.16402,-1.0727,-31.32,25.32,2.04
0.10896,-9.7658,1.757,-0.20464,0.25687,-0.70647,-31.8,24.6,1.62
0.081722,-10.542,1.8932,-0.2584,0.36072,-0.52504,-32.28,23.94,1.2
0.17706,-10.992,1.7979,-0.36469,0.63438,0.10201,-32.58,22.8,0.96
0.54481,-11.523,1.5936,-0.47953,0.72907,0.58215,-32.82,22.08,0.96
1.1169,-12.286,1.58,-0.67317,0.75533,1.1075,-32.76,21.36,1.2
2.5879,-11.659,1.5255,-0.90988,0.66798,1.7287,-32.58,20.16,1.44
3.1191,-10.311,1.3076,-0.90286,0.54214,1.9917,-32.46,19.74,1.56
3.337,-9.4117,1.185,-0.82711,0.36499,2.0452,-32.22,19.44,1.62
3.4323,-9.4253,0.44947,-0.80665,0.26298,2.0675,-32.16,19.32,1.56
3.4868,-11.087,0.40861,-0.87812,-0.1347,2.156,-32.1,19.14,0.96
3.7047,-12.844,0.51757,-1.0033,-0.44838,2.1768,-32.04,19.2,0.6
3.2144,-14.478,1.4165,-1.1585,-0.59895,2.0097,-32.34,19.92,0.12
2.6015,-13.539,1.8932,-1.2068,-0.35705,1.901,-32.4,20.1,0.06
2.0839,-11.972,1.6753,-1.0724,0.20708,1.8176,-32.46,20.52,0.18
2.2474,-8.6898,0.76274,-0.85979,0.956,1.6887,-32.64,21.12,0.72
2.656,-6.674,0.28603,-0.65454,1.5989,1.5324,-32.52,21.42,1.08
2.9148,-6.0883,0.25879,-0.47922,1.9636,1.4407,-32.28,21.72,1.44
3.6094,-6.1564,0.88532,-0.35339,2.058,1.3766,-31.8,22.44,2.22
4.0316,-6.565,1.2122,-0.24007,1.9765,1.3845,-31.56,22.86,2.7
4.3585,-6.7421,1.3348,-0.2642,1.6683,1.3989,-31.38,23.1,3.18
4.985,-7.4367,1.4846,-0.354,1.1661,1.4233,-30.42,23.82,4.32
5.1894,-7.7227,1.471,-0.4777,0.59101,1.4688,-30.0,24.18,4.98
5.38,-7.8453,1.4982,-0.59926,0.0956,1.5015,-29.28,24.42,5.58
5.3664,-7.75,1.2803,-0.66493,-0.22938,1.5189,-28.5,24.66,5.94
5.2166,-7.8862,1.0624,-0.7138,-0.39554,1.5168,-26.76,25.38,6.54
5.2847,-8.1041,1.1441,-0.70983,-0.41478,1.5,-25.68,25.86,6.66
5.5707,-8.6353,1.076,-0.67684,-0.40897,1.4258,-24.6,26.46,6.66
6.8647,-10.828,1.185,-0.67928,-0.43585,1.2767,-22.62,27.54,6.54
7.3822,-12.0,1.4846,-0.67776,-0.54856,0.99296,-21.9,28.02,6.48
7.2324,-12.503,1.8115,-0.64049,-0.75228,0.53145,-21.12,28.62,6.54
4.5492,-12.735,2.1248,-0.36713,-0.79321,-0.050702,-19.62,29.34,6.42
4.2223,-13.225,1.7979,-0.093768,-0.37629,-0.32529,-18.84,29.58,6.6
4.6718,-13.103,1.3893,0.043066,-0.11851,-0.50824,-18.24,29.7,6.66
4.9306,-11.319,1.471,0.44502,0.25076,-1.1047,-16.92,30.0,6.9
4.0316,-10.706,1.7434,0.58551,0.2361,-1.2828,-16.5,30.24,6.9
3.8954,-11.25,1.866,1.2049,-0.45143,-1.5919,-15.36,30.48,6.9
4.8625,-13.471,1.9613,1.2049,-0.45143,-1.5919,-15.36,30.48,6.9
5.3664,-14.438,1.9886,1.2159,-0.70769,-1.6374,-15.3,30.3,6.72
5.3528,-15.99,2.1656,1.1432,-1.3082,-1.7666,-15.42,29.82,6.3
4.6718,-15.132,2.152,0.95326,-2.0391,-2.0275,-15.6,29.46,6.18
4.2495,-14.315,2.0431,0.86315,-2.1344,-2.1747,-15.78,29.1,5.88
2.6015,-11.25,1.8251,0.85032,-1.9658,-2.2944,-16.74,28.2,5.4
2.0431,-9.8611,1.5255,0.90103,-1.6707,-2.3766,-17.34,27.84,5.22
1.5255,-8.0632,1.3348,0.97861,-1.3418,-2.4429,-18.78,27.06,4.8
1.4574,-7.6683,1.471,1.0495,-1.0467,-2.5067,-19.68,26.7,4.38
1.471,-7.5321,1.3893,1.1142,-0.82803,-2.5641,-20.7,26.4,4.08
1.4846,-7.2869,1.3212,1.1038,-0.77488,-2.5812,-22.38,25.68,3.18
1.4165,-7.3277,1.2258,1.0519,-0.74617,-2.5779,-23.28,25.26,2.82
1.0624,-7.4912,1.3212,0.95539,-0.69211,-2.5287,-24.96,24.84,1.98
0.84446,-7.6002,1.4029,0.74862,-0.61728,-2.3063,-25.8,24.54,1.56
0.8036,-7.8589,1.4438,0.66768,-0.58124,-2.2028,-26.46,24.36,1.2
0.55843,-8.3493,1.6344,0.38882,-0.44349,-1.8347,-27.12,24.12,0.78
0.31327,-8.54,1.7298,0.22938,-0.28191,-1.5711,-28.32,23.58,0.42
0.24517,-8.826,1.7434,0.067501,-0.08094,-1.2535,-28.8,23.28,0.36
0.19068,-9.8748,1.9341,-0.092546,0.13164,-0.87995,-29.52,22.68,0.06
0.16344,-10.188,1.9205,-0.26909,0.39981,-0.28497,-29.88,22.26,0.06
0.21793,-10.229,1.8251,-0.33506,0.61881,0.15119,-30.0,21.9,0.24
0.25879,-10.447,1.7025,-0.38729,0.72601,0.40317,-30.0,21.54,0.3
0.9398,-11.632,1.6617,-0.64966,0.88789,1.2312,-30.18,20.94,0.54
1.7025,-11.441,1.7706,-0.79535,0.91844,1.7599,-30.06,20.7,0.72
2.9965,-9.3436,1.3484,-0.85368,0.84269,2.3072,-30.0,20.34,0.9
3.4596,-9.0848,0.95342,-0.8378,0.66523,2.5128,-29.82,20.34,0.96
3.8409,-9.902,0.58567,-0.89186,0.34392,2.6817,-29.58,20.34,0.78
4.1678,-11.536,0.44947,-0.94287,0.12278,2.7385,-29.4,20.58,0.66
4.5901,-13.471,0.54481,-1.164,-0.5681,2.8158,-29.28,20.82,0.36
4.699,-15.445,1.5663,-1.292,-0.88637,2.6169,-29.16,21.78,-0.18
3.7456,-14.383,1.8932,-1.27,-0.95081,2.3644,-28.92,22.2,-0.24
2.1248,-10.392,1.2258,-1.0779,-0.63683,2.1732,-28.8,22.8,0.06
1.9613,-8.4446,0.55843,-0.63683,0.45723,1.8317,-28.2,23.88,0.54
2.0703,-7.1234,0.068102,-0.38026,1.1976,1.6744,-27.78,24.42,0.96
2.261,-6.5378,-0.12258,-0.19426,1.6909,1.58,-27.3,24.96,1.32
3.0237,-6.8919,0.62654,-0.083078,1.9703,1.4923,-26.34,26.04,2.46
3.5685,-7.246,1.0351,-0.032376,2.1594,1.4474,-25.74,26.4,3.0
4.0861,-7.4231,1.362,-0.067195,2.1264,1.4392,-25.32,26.88,3.72
5.2166,-8.0224,1.4982,-0.16341,1.8366,1.4508,-24.6,27.3,4.38
5.6116,-8.1586,1.4165,-0.39584,1.0895,1.4545,-23.4,28.08,5.64
5.8704,-8.1858,1.4165,-0.55222,0.55405,1.4355,-22.56,28.5,6.36
5.7478,-7.9815,1.1577,-0.67623,0.16646,1.4074,-21.6,28.68,7.08
5.38,-8.0224,1.0215,-0.74098,-0.0061087,1.3922,-19.74,29.4,7.86
5.2302,-8.0088,1.1305,-0.74862,-0.04948,1.3714,-18.66,29.64,7.8
5.7342,-9.2618,1.1441,-0.71654,-0.0094684,1.346,-17.04,30.36,7.86
6.6331,-10.542,1.1441,-0.71532,-0.013134,1.3073,-16.08,30.6,7.8
7.4776,-12.122,1.2803,-0.76114,-0.19975,0.97616,-15.24,30.96,7.74
7.2869,-13.253,1.9341,-0.75442,-0.45662,0.49938,-13.68,31.74,7.86
5.38,-13.307,2.2065,-0.60353,-0.59407,0.10812,-12.78,31.98,7.92
4.7944,-13.62,1.7434,-0.32345,-0.30818,-0.19792,-11.88,32.16,8.1
5.4073,-12.803,1.3076,0.17593,0.30971,-0.77488,-10.86,32.34,8.52
5.2166,-10.515,1.4029,0.51435,0.31918,-1.2058,-10.26,32.22,8.88
4.7535,-9.9973,1.5663,0.8601,0.071471,-1.4361,-9.84,32.16,9.06
4.3449,-10.665,1.7298,1.1533,-0.22602,-1.533,-9.54,32.16,9.42
5.2166,-12.667,1.8251,1.3088,-0.69272,-1.6283,-9.06,31.98,9.66
6.1019,-15.228,1.9477,1.2416,-1.7153,-1.7685,-9.0,31.98,9.78
5.993,-16.644,2.0294,1.1475,-2.0974,-1.8751,-8.82,32.04,9.9
5.0531,-15.732,1.9886,0.78374,-2.7556,-2.2297,-8.88,32.04,9.96
3.9908,-14.22,1.8387,0.62644,-2.5162,-2.4487,-9.24,31.98,10.02
2.6832,-11.741,1.2258,0.51313,-2.1997,-2.6392,-10.14,31.5,10.14
1.6753,-9.9565,1.4301,0.55772,-2.0424,-2.7367,-10.86,31.32,10.08
0.51757,-8.3765,1.0896,0.67378,-1.124,-2.8106,-11.82,31.2,10.02
0.89894,-7.4095,0.96704,0.91996,-0.1799,-2.9123,-13.92,31.44,9.3
1.2531,-7.2052,1.1032,1.0165,0.048869,-2.9535,-15.12,31.62,8.76
1.3484,-7.246,1.2667,1.0431,0.10354,-2.9599,-16.2,31.92,8.04
1.58,-7.4776,1.4165,1.0467,0.10996,-2.8882,-17.22,32.1,7.14
1.4438,-7.7091,1.4846,0.99113,0.027184,-2.8017,-19.44,32.46,5.58
1.1986,-7.7772,1.4982,0.88239,-0.13164,-2.5378,-20.4,32.52,4.98
0.89894,-8.1586,1.6072,0.72326,-0.16952,-2.4196,-22.62,32.46,3.72
0.69464,-8.322,1.58,0.5452,-0.19303,-2.1463,-23.82,32.46,3.18
0.50395,-8.4446,1.7298,0.35766,-0.15791,-1.8418,-24.96,32.16,2.58
0.35413,-8.5127,1.6889,0.081245,0.017715,-1.2856,-26.1,31.86,1.86
0.027241,-9.0575,1.866,-0.074526,0.18448,-0.83291,-28.14,31.08,0.72
0.054481,-9.2618,1.866,-0.20159,0.39156,-0.3598,-29.04,30.78,0.12
0.21793,-9.6296,1.6208,-0.29108,0.6243,0.13775,-30.3,29.76,-0.48
0.53119,-10.42,1.6072,-0.52412,0.83139,0.98074,-30.78,29.34,-0.84
0.84446,-11.196,1.6208,-0.74831,0.85307,1.5638,-31.2,28.74,-0.96
1.3348,-11.305,1.7025,-0.92821,0.89339,2.1148,-31.56,28.26,-0.96
2.833,-9.7522,1.4982,-1.004,0.87659,2.5449,-31.92,27.78,-0.84
3.5685,-9.2618,1.0215,-1.0052,0.71563,2.7846,-31.92,27.78,-1.02
4.1406,-9.7658,0.68102,-1.1133,0.28741,2.9984,-31.86,27.84,-1.38
4.8625,-13.266,0.32689,-1.2639,-0.20617,3.0589,-31.38,28.62,-2.22
4.9987,-15.309,0.69464,-1.3543,-0.46029,3.0507,-30.96,29.16,-2.82
4.699,-16.235,1.2531,-1.5779,-1.0287,2.7779,-30.78,30.06,-3.06
2.6423,-14.996,2.1793,-1.5091,-0.9841,2.62,-30.18,31.68,-3.3
2.2746,-12.912,1.6753,-1.2446,-0.44013,2.5177,-29.82,32.4,-3.24
2.8194,-8.9486,0.28603,-0.72907,0.92516,2.2135,-28.5,33.78,-2.34
3.7184,-7.2869,-0.31327,-0.48778,1.4988,2.0171,-27.84,34.32,-1.68
3.8409,-6.9872,-0.43585,-0.34361,1.602,1.8482,-27.12,35.04,-1.14
4.0725,-7.1234,0.65378,-0.23579,1.8164,1.6451,-25.26,36.24,0.3
4.2632,-7.2869,1.3484,-0.16066,1.7361,1.5724,-24.48,36.6,0.96
4.6037,-7.6138,1.4846,-0.16554,1.335,1.5733,-23.58,36.96,1.86
5.38,-8.3084,1.3348,-0.32009,0.74556,1.5681,-21.72,37.38,3.66
5.598,-8.4719,1.3212,-0.48228,0.39279,1.522,-20.76,37.62,4.62
5.8159,-8.4174,1.1713,-0.64446,0.11912,1.4514,-19.68,37.8,5.64
5.2166,-8.1858,0.99429,-0.76236,0.093768,1.3619,-17.1,38.22,7.32
5.0123,-8.0905,1.1713,-0.83322,0.23091,1.2874,-15.72,38.4,7.86
4.6037,-8.0905,1.1713,-0.83963,0.45632,1.2016,-14.4,38.64,8.34
4.9987,-9.0848,1.2803,-0.81398,0.69333,1.1295,-12.06,39.12,8.76
5.4481,-9.8339,1.3757,-0.76267,0.74403,1.0168,-11.04,39.6,8.88
6.7693,-11.7,1.6617,-0.73395,0.54917,0.77702,-9.9,39.96,9.18
7.0009,-13.089,2.4789,-0.64294,0.25045,0.34636,-8.34,40.62,9.48
5.9112,-13.13,2.5606,-0.42913,-0.0030543,-0.081551,-7.62,40.98,9.72
5.094,-13.253,2.3836,-0.099876,-0.0076358,-0.40225,-7.14,41.16,9.96
4.9714,-12.313,1.5663,0.46059,0.25229,-0.91935,-6.3,41.64,10.62
4.9169,-11.032,1.5119,0.79443,0.29383,-1.2682,-6.06,41.88,10.86
4.699,-10.42,1.6753,0.95539,0.25198,-1.4233,-5.88,42.06,11.16
4.2223,-11.319,1.8115,1.3479,0.0088575,-1.6206,-6.12,42.12,11.34
4.5492,-12.558,1.8796,1.4621,-0.35186,-1.664,-6.54,42.24,11.4
5.094,-13.757,1.8932,1.4529,-0.93065,-1.7236,-6.96,42.3,11.34
5.0531,-15.037,2.0567,1.2089,-1.8757,-1.9151,-8.34,42.6,11.04
4.1951,-14.288,1.9886,1.0134,-2.1958,-2.0736,-9.36,42.48,10.86
3.6366,-13.443,1.7843,0.93371,-2.2025,-2.1307,-10.44,42.3,10.68
3.337,-11.959,1.3348,0.81092,-2.0427,-2.2465,-11.7,42.06,10.5
1.866,-9.4525,1.3893,0.76053,-2.073,-2.3094,-14.76,41.04,9.96
1.2939,-8.6081,1.2803,0.8097,-1.5143,-2.3259,-16.44,40.62,9.6
1.4438,-7.6138,1.1577,0.89644,-1.0385,-2.4034,-18.3,39.96,9.3
1.6072,-7.5729,1.3212,0.9557,-0.72937,-2.489,-22.26,38.88,7.92
1.58,-7.6002,1.3757,0.93921,-0.68111,-2.5067,-24.12,38.34,7.08
1.5119,-7.6683,1.4029,0.92332,-0.67165,-2.5107,-25.86,37.74,6.42
1.362,-7.7091,1.3893,0.80481,-0.58796,-2.4456,-27.42,37.14,5.88
0.85808,-7.9679,1.3893,0.69089,-0.51404,-2.3143,-30.48,35.46,4.8
0.83084,-7.9543,1.5255,0.55833,-0.40928,-2.1417,-31.86,34.5,4.44
0.70826,-8.1586,1.58,0.41233,-0.27397,-1.919,-33.96,32.46,3.9
0.64016,-8.4446,1.6344,0.19181,-0.035125,-1.5363,-34.98,31.32,3.66
0.47671,-9.0439,1.6753,0.039095,0.13103,-1.2404,-35.82,30.36,3.54
0.38137,-9.3844,1.7298,-0.11698,0.30665,-0.90836,-36.42,29.34,3.48
0.16344,-10.215,1.9613,-0.21869,0.48045,-0.54336,-37.32,27.42,3.18
0.027241,-10.161,1.9068,-0.27672,0.67531,-0.13286,-37.44,26.52,3.12
0.068102,-10.883,1.5527,-0.35369,0.85368,0.36346,-37.5,25.5,3.06
0.89894,-11.836,1.6208,-0.53054,0.97464,0.93646,-37.38,23.58,3.66
1.5119,-12.027,1.757,-0.80879,1.0699,1.7517,-37.2,22.92,3.9
2.4653,-11.427,1.7298,-0.94012,1.0562,2.229,-37.2,22.26,3.9
3.5685,-9.4798,1.2803,-0.9612,0.87781,2.5021,-36.6,21.66,3.84
4.0452,-9.2346,0.78998,-0.99082,0.58551,2.6832,-36.3,21.54,3.6
4.6582,-9.9156,0.40861,-1.1869,-0.15088,2.7929,-35.88,21.84,2.76
4.8216,-13.443,0.6674,-1.372,-0.67745,2.7807,-35.76,22.32,2.34
4.4811,-15.445,1.5391,-1.5568,-1.0327,2.6377,-35.58,22.5,1.74
3.9908,-15.473,2.0158,-1.5879,-1.1222,2.521,-35.52,22.98,1.44
2.4653,-12.19,1.7843,-1.361,-0.75656,2.2645,-35.16,24.0,1.62
2.3155,-9.8339,1.1577,-1.0266,-0.4047,2.0898,-34.86,24.6,1.92
3.1735,-7.0962,-0.10896,-0.5229,0.98777,1.8234,-34.02,25.8,2.82
3.7184,-6.7421,-0.43585,-0.30604,1.1716,1.6732,-33.48,26.4,3.3
3.8682,-6.9464,-0.081722,-0.16371,1.1869,1.5015,-32.76,26.94,3.84
3.9227,-7.2596,0.76274,-0.049175,1.3054,1.3793,-31.44,27.9,5.28
4.3858,-7.4367,1.1169,-0.0061087,1.2865,1.3283,-30.78,28.26,5.94
4.8352,-7.7091,1.1713,-0.045815,1.0284,1.306,-30.06,28.74,6.72
5.5162,-8.2812,0.95342,-0.16432,0.64843,1.2593,-28.62,29.28,8.46
5.5571,-8.2676,0.83084,-0.39156,0.18295,1.1884,-27.66,29.52,9.36
5.3392,-8.0769,0.8036,-0.54092,0.14142,1.0996,-26.64,30.06,10.2
4.5764,-7.8045,0.8036,-0.65027,0.30391,1.0513,-24.48,30.9,11.22
4.2495,-7.8453,0.96704,-0.70524,0.53206,0.9951,-23.4,31.14,11.34
4.2223,-8.1041,1.0215,-0.73212,0.79657,0.98807,-22.5,31.56,11.34
4.7126,-8.7987,1.076,-0.74984,0.94287,0.97738,-20.88,32.22,11.46
6.279,-11.237,1.3484,-0.79932,0.76236,0.82772,-20.16,32.46,11.52
6.8238,-12.095,1.5527,-0.79382,0.64355,0.70708,-19.62,32.76,11.52
5.9385,-12.408,2.152,-0.66004,0.29383,0.18998,-18.6,33.18,11.52
5.1076,-13.171,2.1112,-0.41447,0.19792,-0.064141,-18.18,33.24,11.76
5.1621,-13.253,1.8932,-0.097738,0.27153,-0.33628,-17.7,33.36,12.0
5.2983,-11.4,1.6072,0.24984,0.34972,-0.69852,-16.86,33.24,12.18
4.8352,-10.229,1.6344,0.79687,0.094073,-1.15,-16.56,33.24,12.18
4.4675,-10.447,1.7706,1.0993,-0.26878,-1.2816,-16.44,33.0,12.36
4.9578,-12.449,1.7706,1.2028,-0.46487,-1.3387,-16.14,32.94,12.48
5.3528,-13.893,1.8796,1.3399,-1.2257,-1.5195,-16.32,32.76,12.66
5.4345,-15.268,1.9341,1.2443,-1.8344,-1.7107,-16.38,32.4,12.66
3.9499,-15.05,1.8796,1.1023,-2.2428,-1.9633,-16.86,31.74,12.72
3.1054,-13.797,1.757,0.94867,-2.036,-2.259,-17.16,31.44,12.54
2.4925,-12.19,1.5119,0.93615,-1.5879,-2.4108,-17.64,30.96,12.36
2.0703,-10.665,1.3484,0.95417,-1.379,-2.4706,-18.24,30.6,12.3
1.7025,-8.5536,1.0488,1.0922,-0.75656,-2.5293,-19.5,29.52,11.58
1.7706,-8.145,1.076,1.1866,-0.4722,-2.5736,-20.4,28.98,11.1
2.0294,-7.8317,1.185,1.2556,-0.41997,-2.5971,-21.24,28.5,10.74
1.9068,-7.6274,1.2803,1.2975,-0.54611,-2.6273,-23.16,27.72,9.18
1.7979,-7.5729,1.362,1.2788,-0.68631,-2.602,-24.06,27.36,8.4
1.5119,-7.641,1.2531,1.2486,-0.74984,-2.5546,-24.9,26.88,7.38
1.3076,-7.6683,1.1441,1.0782,-0.8937,-2.3601,-25.62,26.28,6.42
1.0079,-7.7636,1.2258,0.90897,-0.90805,-2.1637,-26.88,25.08,5.34
0.78998,-7.8589,1.2531,0.69975,-0.83505,-1.9303,-27.42,24.42,4.68
0.38137,-7.7636,1.3484,0.48197,-0.67073,-1.6503,-28.32,22.92,3.78
0.20431,-7.8045,1.4301,0.14997,-0.30299,-1.1564,-28.68,22.14,3.54
0.24517,-8.1313,1.471,0.037263,-0.16554,-0.95936,-28.8,21.42,3.12
0.19068,-8.7443,1.5936,-0.29566,0.20372,-0.33353,-29.1,20.64,3.0
0.14982,-9.2755,1.6344,-0.48747,0.44715,0.12095,-29.4,18.84,2.94
0.27241,-9.8339,1.6344,-0.67409,0.69516,0.62247,-29.34,18.24,3.0
0.51757,-10.787,1.58,-0.94684,0.86773,1.1741,-28.86,16.74,3.6
1.5391,-12.027,1.7706,-1.3354,1.065,1.9878,-28.74,16.14,3.96
2.2337,-11.863,1.866,-1.504,1.1402,2.4716,-28.68,15.54,4.5
2.7513,-11.237,1.8387,-1.5388,1.1124,2.7687,-28.44,15.3,4.74
4.0044,-10.188,1.0624,-1.5122,0.96517,2.9245,-28.26,15.18,4.5
4.6582,-11.032,0.83084,-1.5513,0.63988,3.0287,-28.02,15.3,4.44
5.2847,-12.926,0.74912,-1.6218,0.019548,3.0378,-28.02,15.78,3.96
5.9657,-14.982,0.74912,-1.6967,-0.6576,2.8607,-28.02,15.78,3.96
5.4073,-15.963,1.9205,-1.711,-1.1939,2.4532,-28.02,15.96,3.72
2.7649,-13.552,2.3291,-1.5226,-1.3405,2.0666,-28.14,16.26,4.14
2.0158,-12.054,1.9341,-0.9331,-0.40287,1.6112,-28.14,16.74,4.44
1.2531,-7.464,0.53119,-0.49541,0.66523,1.3842,-27.54,17.4,4.98
1.6072,-6.4833,-0.081722,-0.14478,1.5232,1.2327,-27.24,17.52,5.46
2.7377,-6.7012,0.40861,0.1518,2.1658,1.1212,-26.58,18.12,6.42
3.0918,-6.7829,0.95342,0.26053,2.4456,1.0357,-26.16,18.42,6.9
3.4187,-7.0145,1.1441,0.27947,2.518,1.0134,-25.98,18.84,7.14
4.5764,-7.4776,1.7706,0.21044,2.2394,1.0372,-25.38,18.96,8.28
5.1213,-7.6955,1.7979,0.047647,1.6725,1.106,-25.02,19.02,8.88
5.6252,-7.7227,1.4574,-0.14691,0.95967,1.1509,-24.78,19.14,9.42
5.6252,-7.6683,1.1577,-0.44868,0.091935,1.1991,-23.82,19.32,10.56
5.2983,-7.5048,0.99429,-0.6017,-0.17837,1.2022,-23.22,19.56,10.98
4.9987,-7.4503,0.89894,-0.66004,-0.23396,1.2187,-22.56,19.56,10.98
4.699,-7.5048,0.89894,-0.72632,-0.2303,1.2584,-21.96,19.8,10.92
4.8216,-8.4719,1.185,-0.74587,-0.12553,1.3155,-20.94,20.4,10.68
5.5162,-9.6432,1.0488,-0.76083,-0.081245,1.3173,-20.52,20.82,10.5
6.6195,-10.924,1.2667,-0.81734,-0.19181,1.1762,-20.16,21.12,10.32
6.8102,-12.122,1.8387,-0.8042,-0.59834,0.54,-19.26,21.36,10.2
5.1349,-12.231,2.1656,-0.64966,-0.78282,0.16402,-18.6,21.36,10.44
3.9227,-13.021,2.0158,-0.38118,-0.51924,-0.06353,-18.18,21.42,10.62
4.2359,-12.967,1.58,-0.021991,0.022602,-0.41081,-17.28,21.66,11.04
4.8352,-10.924,1.3484,0.36163,0.35766,-0.8094,-16.86,21.72,11.52
4.2495,-10.828,1.5391,0.89675,0.012523,-1.168,-15.9,21.6,11.94
4.4811,-12.0,1.7025,1.1548,-0.3769,-1.2651,-15.72,21.48,12.18
5.0531,-13.375,1.6753,1.2654,-0.83169,-1.3818,-15.54,21.54,12.3
6.1836,-15.718,1.9341,1.2168,-1.3983,-1.5467,-15.0,21.36,12.72
5.5435,-16.113,2.2201,1.0608,-1.996,-1.7993,-14.82,21.18,13.02
4.5764,-15.037,2.2201,0.91202,-2.2849,-2.0519,-14.7,21.0,13.26
2.8875,-12.83,1.7843,0.80359,-1.9355,-2.2932,-14.58,20.52,13.74
2.4108,-11.278,1.6072,0.82436,-1.5892,-2.4166,-14.46,20.4,13.86
1.9613,-9.9156,1.4029,0.87323,-1.4068,-2.4606,-14.58,20.16,13.86
1.866,-8.2812,1.1441,1.0351,-0.92088,-2.598,-14.88,19.62,13.98
1.9613,-7.8589,1.1577,1.1258,-0.73059,-2.6863,-15.3,19.5,13.98
1.9886,-7.7636,1.1986,1.1842,-0.69608,-2.7626,-15.6,19.38,13.56
1.7706,-7.6683,1.2939,1.1884,-0.748,-2.8283,-16.38,19.68,12.6
1.4165,-7.6955,1.3484,1.1341,-0.76114,-2.8106,-16.5,19.92,12.12
1.1986,-7.7636,1.2939,1.0369,-0.73304,-2.7196,-16.68,20.16,11.52
0.92618,-7.7908,1.3348,0.91966,-0.66676,-2.5858,-17.16,20.88,10.44
0.70826,-7.8589,1.4982,0.74892,-0.55803,-2.383,-17.4,21.06,9.9
0.64016,-8.2267,1.4165,0.54917,-0.3992,-2.1191,-17.64,21.24,9.48
0.44947,-8.6489,1.5391,0.31673,-0.19212,-1.8277,-18.36,21.72,8.46
0.28603,-9.0575,1.6481,-0.021075,0.16616,-1.3051,-18.9,21.72,8.04
0.20431,-9.3163,1.7979,-0.12828,0.28222,-1.1038,-19.08,21.9,7.5
-0.040861,-9.5887,1.975,-0.34758,0.63683,-0.47647,-19.68,22.26,6.72
0.10896,-9.6704,1.6753,-0.42883,0.88209,-0.0058032,-19.8,22.26,6.3
0.29965,-10.379,1.5391,-0.59682,1.0571,0.52046,-19.98,22.26,6.12
0.5993,-11.441,1.5391,-0.81398,1.1613,1.0818,-20.1,22.14,6.18
1.7979,-11.536,1.8932,-1.0223,1.2462,1.8882,-20.04,22.08,6.06
2.5061,-10.202,1.7843,-1.0232,1.1671,2.2877,-20.1,21.9,6.12
3.4868,-9.5887,0.77636,-1.0061,1.0669,2.4551,-20.16,21.78,6.06
4.3994,-10.651,0.35413,-1.0675,0.48503,2.8512,-20.1,21.9,5.52
5.2575,-13.157,0.095342,-1.2046,-0.12737,2.9496,-20.16,22.08,4.98
5.6116,-15.514,0.84446,-1.3906,-0.7083,2.7632,-20.04,22.56,4.02
5.1485,-15.663,1.6208,-1.5782,-1.2492,2.4755,-19.92,23.1,3.66
3.337,-14.342,2.0567,-1.5479,-1.2895,2.3662,-19.98,23.4,3.54
1.7025,-10.351,1.3212,-1.1994,-0.71502,2.1854,-19.8,24.06,3.78
1.757,-8.3493,0.50395,-0.89309,0.14233,2.0168,-19.56,24.36,4.2
2.1248,-7.3005,0.50395,-0.64843,0.96792,1.8256,-19.14,24.48,4.56
2.5061,-6.6604,-0.28603,-0.49175,1.514,1.5834,-18.06,24.72,5.52
2.942,-6.674,0.51757,-0.36499,1.9893,1.4664,-17.76,24.84,6.18
3.1872,-6.7966,1.0215,-0.34056,2.1258,1.4325,-17.22,25.08,6.72
3.5822,-7.1098,1.3484,-0.33659,2.2755,1.3912,-16.92,25.08,7.38
4.6037,-7.7364,1.8115,-0.46517,2.0681,1.3748,-15.96,25.2,8.82
5.1213,-8.1041,1.757,-0.61148,1.6854,1.3955,-15.54,25.14,9.72
5.4345,-8.1858,1.6753,-0.76175,1.2266,1.3897,-14.82,25.08,10.62
5.2302,-8.0769,1.5391,-0.93829,0.71593,1.3552,-13.74,25.14,12.12
4.9578,-8.1995,1.58,-0.98533,0.58032,1.3741,-12.78,25.26,12.72
4.7671,-8.5536,1.7298,-0.99174,0.56872,1.3964,-11.88,25.44,12.96
5.7069,-9.9429,1.7025,-0.94043,0.55803,1.4762,-10.32,25.62,13.08
6.7148,-11.278,1.8796,-0.89186,0.43707,1.4212,-9.72,25.92,13.2
8.0496,-12.817,2.1384,-0.82742,0.15058,1.1771,-9.18,26.16,13.2
7.2869,-13.157,2.8739,-0.58093,-0.52748,0.48564,-8.04,26.52,13.26
5.8159,-13.348,2.5061,-0.42333,-0.68814,0.30421,-7.5,26.7,13.5
5.4481,-13.348,2.2474,-0.053756,-0.67378,-0.076969,-7.02,26.88,13.68
5.1621,-12.994,1.5119,0.52534,-0.23335,-0.70097,-6.6,27.24,13.86
4.6309,-10.42,1.3348,0.90622,-0.077274,-1.1634,-5.58,27.6,14.04
3.8546,-9.793,1.471,1.2456,-0.022602,-1.4484,-5.34,27.78,14.22
4.2495,-11.182,1.4846,1.5296,-0.097433,-1.609,-4.74,28.02,14.1
4.9987,-12.599,1.5936,1.6667,-0.61392,-1.7245,-4.62,28.14,13.86
5.5299,-14.669,1.7298,1.5617,-1.1686,-1.8201,-4.56,28.14,13.74
5.8159,-15.105,1.8524,1.3573,-1.7865,-1.9737,-4.56,28.14,13.56
4.9306,-14.138,1.8115,1.1341,-2.2181,-2.1582,-4.8,28.5,13.08
4.1814,-13.103,1.2803,0.93401,-2.237,-2.3039,-5.22,28.68,12.78
3.4868,-11.346,1.1169,0.70738,-2.273,-2.4215,-6.12,29.1,12.06
1.7434,-9.7249,1.2395,0.52901,-2.748,-2.4221,-6.78,29.28,11.76
0.95342,-9.0575,1.2395,0.56352,-2.0143,-2.4233,-7.5,29.58,11.22
0.24517,-8.1177,0.96704,0.6805,-1.0669,-2.5039,-8.46,29.64,10.74
0.96704,-7.8045,0.92618,0.76908,-0.32009,-2.5507,-10.74,30.3,9.36
1.4574,-7.7636,1.362,0.79321,-0.065973,-2.6454,-11.82,30.72,8.52
1.6344,-7.8453,1.4438,0.76969,-0.04948,-2.6154,-12.9,31.2,7.8
1.471,-7.9407,1.3212,0.66035,-0.053145,-2.5504,-15.18,31.92,6.24
1.2395,-8.0224,1.4165,0.54214,0.010385,-2.4404,-16.32,32.4,5.64
1.0896,-8.0769,1.3757,0.47159,0.064446,-2.3729,-17.52,32.88,5.16
0.95342,-8.4446,1.5119,0.22694,0.35919,-2.0928,-19.92,33.24,4.14
0.88532,-8.4582,1.6072,0.094073,0.57727,-1.872,-21.06,33.18,3.66
0.61292,-8.6081,1.7298,-0.036652,0.75075,-1.5898,-22.32,33.12,3.12
0.40861,-8.9213,1.9205,-0.20525,0.9389,-1.0458,-24.66,32.64,1.98
0.40861,-9.112,1.9613,-0.26603,1.0095,-0.60842,-25.56,32.46,1.56
0.47671,-9.2755,1.8387,-0.28405,1.0318,-0.094684,-26.28,32.16,1.14
1.1577,-9.8611,1.5119,-0.35675,0.96669,0.47739,-27.78,31.44,0.72
1.8387,-10.828,1.2531,-0.5397,0.80543,1.0507,-28.38,30.96,0.42
2.6968,-11.482,1.2939,-0.75472,0.57818,1.5702,-28.92,30.54,0.3
3.5413,-10.311,1.3484,-0.94104,0.1909,2.2462,-29.88,30.0,0.24
3.8273,-8.9622,1.0896,-0.94012,-0.069333,2.4829,-30.06,29.88,-0.06
3.8273,-8.9349,0.8717,-0.94257,-0.18021,2.587,-30.18,29.88,-0.42
4.2632,-11.577,0.57205,-1.0418,-0.63347,2.8246,-30.06,30.48,-1.38
4.5356,-13.525,0.85808,-1.1771,-1.0733,2.8924,-30.0,31.08,-1.86
4.4539,-14.996,1.9477,-1.2868,-1.4707,2.8115,-29.82,31.68,-2.28
2.8603,-14.342,2.1248,-1.2587,-1.5592,2.5464,-29.46,33.24,-2.58
2.1248,-12.612,1.757,-1.0458,-1.0644,2.3753,-29.28,33.66,-2.46
1.7706,-10.501,1.1713,-0.91294,-0.67531,2.2843,-28.98,34.32,-2.1
1.8796,-8.7851,0.55843,-0.50793,0.62644,2.0094,-28.38,34.86,-1.62
2.5061,-6.9872,0.14982,-0.30574,1.2651,1.9007,-26.94,36.0,-0.24
2.9148,-6.8783,0.34051,-0.15272,1.5956,1.8253,-26.16,36.54,0.48
3.7728,-7.4231,1.076,-0.022907,1.7895,1.7272,-24.3,37.5,1.92
4.522,-8.1177,1.4165,-0.024129,1.7251,1.7211,-23.4,37.74,2.82
4.8488,-8.4446,1.3757,-0.17868,1.2404,1.7028,-22.56,38.04,3.66
5.5162,-8.8668,1.5391,-0.35064,0.76969,1.6826,-20.7,38.52,5.58
5.5435,-8.7443,1.5255,-0.53023,0.33414,1.657,-19.62,38.64,6.42
5.2438,-8.4855,1.3212,-0.66218,0.10599,1.6167,-18.48,38.7,7.38
4.7944,-8.1313,1.2258,-0.73823,0.15638,1.5226,-15.84,38.82,8.82
4.699,-8.0632,1.2258,-0.74495,0.24771,1.4862,-14.4,39.24,9.3
4.699,-8.2403,1.1305,-0.68081,0.63041,1.357,-13.08,39.66,9.48
5.094,-8.6353,1.0624,-0.64385,0.73365,1.3182,-11.82,39.9,9.66
6.6195,-10.488,1.3076,-0.57757,0.71624,1.153,-9.66,40.74,9.72
7.5048,-11.591,1.6072,-0.53695,0.44868,0.9053,-8.82,41.04,9.84
7.641,-12.136,1.8932,-0.47709,0.046426,0.47647,-7.98,41.22,9.9
5.8023,-13.321,2.1929,-0.22633,-0.46242,-0.088575,-6.48,41.7,10.14
5.6116,-13.634,1.8932,0.015577,-0.43921,-0.43371,-5.7,41.88,10.44
5.6797,-13.103,1.7025,0.29047,-0.26756,-0.88239,-5.22,42.0,10.56
4.8488,-10.637,1.6208,0.5849,-0.23366,-1.328,-4.56,42.18,10.8
4.0589,-10.515,1.6208,0.89675,-0.40439,-1.5571,-4.38,42.24,10.86
4.4811,-12.367,1.7434,1.1258,-0.68875,-1.6533,-4.56,42.42,11.16
5.1757,-13.825,1.6072,1.2355,-1.2798,-1.8127,-4.98,42.42,11.16
5.6252,-15.636,1.8524,1.1292,-1.7996,-1.96,-5.4,42.24,11.04
5.4345,-16.385,2.0022,1.04,-2.0458,-2.0443,-6.0,42.18,10.92
4.7944,-16.072,1.9886,0.75778,-2.4202,-2.302,-6.66,42.0,10.92
3.7456,-13.688,1.0896,0.62583,-2.2764,-2.4661,-8.58,41.28,10.56
3.4459,-12.708,1.2531,0.43249,-3.1111,-2.6218,-9.66,41.16,10.38
0.70826,-9.7658,1.5391,0.3204,-3.4001,-2.6542,-12.42,40.2,10.08
-0.47671,-8.7715,1.471,0.39645,-2.3451,-2.5959,-14.04,39.66,10.08
-0.85808,-8.2539,1.0896,0.48778,-1.6399,-2.6478,-15.6,39.24,9.9
0.19068,-7.5457,0.88532,0.7254,-0.043066,-2.6909,-18.72,38.28,9.42
0.99429,-7.5184,1.0624,0.80756,0.48228,-2.7657,-20.16,37.92,8.94
1.6481,-7.4503,1.5119,0.81764,0.44868,-2.7275,-21.54,37.62,8.52
1.6753,-7.4095,1.6753,0.79168,0.2138,-2.6377,-23.88,36.6,7.38
1.4029,-7.5457,1.6344,0.62247,-0.1182,-2.4261,-25.02,36.0,7.02
1.1032,-7.5865,1.6344,0.44807,-0.2361,-2.2565,-26.04,35.16,6.84
0.8717,-7.6138,1.5119,0.25198,-0.27611,-2.0125,-27.0,34.5,6.48
0.54481,-7.6002,1.6344,0.054978,-0.22816,-1.7031,-28.02,33.78,6.12
0.1362,-8.1858,1.8932,-0.15058,-0.10812,-1.3103,-29.94,32.04,5.94
0.1362,-8.6762,1.9613,-0.4163,0.17074,-0.60109,-30.54,31.38,5.88
-0.14982,-9.3708,2.2746,-0.47922,0.2868,-0.35522,-31.2,30.66,5.82
0.054481,-9.6023,2.152,-0.53726,0.65729,0.48258,-32.16,29.22,5.46
0.43585,-10.46,1.9886,-0.61087,0.75533,1.0846,-32.28,28.68,5.52
0.89894,-11.536,1.8251,-0.69914,0.74923,1.6594,-32.52,28.02,5.52
2.0431,-11.959,1.6753,-0.72265,0.71685,2.1615,-32.76,26.52,5.76
2.9556,-11.319,1.4438,-0.6692,0.51924,2.6194,-32.88,26.1,5.94
4.3177,-10.583,0.92618,-0.62553,0.38301,2.6683,-32.64,25.98,6.24
4.6718,-11.509,0.57205,-0.62033,-0.1967,2.7019,-32.46,26.22,6.0
4.7126,-12.517,0.69464,-0.67653,-0.76236,2.6114,-32.28,26.52,5.82
4.1133,-14.914,1.3348,-0.76664,-1.2483,2.3946,-31.56,27.6,5.4
2.7377,-14.982,1.8524,-0.77183,-1.4346,2.2113,-31.02,28.44,5.1
1.2258,-12.0,1.6344,-0.41661,-0.87201,2.1331,-30.3,30.0,4.74
1.5255,-10.106,0.85808,-0.25412,-0.51343,2.0953,-29.88,30.72,4.68
1.9613,-8.9077,0.28603,0.065668,0.27184,2.0049,-29.46,31.5,4.92
3.2825,-7.6002,-0.65378,0.32254,1.0024,1.8155,-29.04,32.04,5.22
3.3778,-7.355,-1.4574,0.28283,1.0739,1.6906,-27.66,33.12,6.12
2.9284,-7.3822,-1.3212,0.21014,2.0165,1.5504,-27.0,33.72,6.54
4.8897,-7.6138,1.0624,0.034514,3.2199,0.99754,-25.68,34.56,7.44
5.489,-7.355,2.0158,-0.16066,2.2727,1.1918,-25.14,34.86,7.92
5.3528,-7.3414,1.9613,-0.35308,1.0895,1.2559,-24.48,35.1,8.4
3.9908,-7.641,1.2258,-0.50244,0.47709,1.4029,-22.8,35.46,9.48
3.909,-7.464,0.84446,-0.57238,0.63469,1.4752,-22.02,35.64,9.84
4.3994,-7.4367,0.76274,-0.61972,0.88362,1.4817,-21.18,35.64,10.32
5.2438,-7.641,0.78998,-0.66432,0.79443,1.5107,-19.02,36.0,10.98
5.489,-7.9679,0.8717,-0.69944,0.39859,1.5565,-17.94,36.12,11.28
5.8704,-8.6353,0.92618,-0.71257,0.16829,1.532,-16.74,36.36,11.28
7.246,-11.196,0.95342,-0.75869,-0.024435,1.3784,-14.7,37.02,11.1
7.7364,-12.381,1.2122,-0.83414,-0.26084,1.0849,-13.92,37.26,11.04
7.4367,-12.844,1.5119,-0.85857,-0.52504,0.64355,-13.08,37.56,11.1
4.6445,-13.212,1.8524,-0.75259,-0.66218,0.069639,-11.58,38.1,11.28
4.018,-13.511,1.7843,-0.35033,-0.14997,-0.23396,-10.86,38.28,11.58
4.127,-13.28,1.1986,-0.018631,0.44868,-0.63194,-10.38,38.52,11.82
4.6854,-11.359,1.0624,0.14783,0.64294,-0.83505,-9.84,38.64,12.06
4.2904,-10.174,1.4165,0.6747,0.68753,-1.3573,-9.0,39.0,12.54
4.127,-10.542,1.4574,1.0098,0.49327,-1.5094,-8.88,39.0,12.72
4.8897,-12.313,1.5527,1.2385,0.16005,-1.6008,-9.0,39.0,12.96
5.5843,-13.634,1.5936,1.2975,-0.65485,-1.7443,-9.18,38.88,12.9
6.0611,-14.628,1.757,1.2462,-1.0095,-1.7999,-9.54,38.76,12.84
5.1349,-14.914,1.8524,0.93065,-1.9413,-2.0204,-10.68,38.58,12.66
4.413,-13.729,1.5391,0.70677,-2.1652,-2.1292,-11.28,38.46,12.54
4.2223,-12.286,0.81722,0.42944,-2.3778,-2.1982,-13.14,37.8,12.36
4.1951,-11.986,0.32689,0.018326,-3.5647,-2.2801,-14.1,37.44,12.24
1.4438,-9.2074,2.1793,-0.19151,-4.6093,-2.1014,-15.36,37.14,12.18
-2.4108,-7.4912,0.84446,-0.061087,-2.5858,-1.985,-17.64,36.3,12.24
-2.1656,-6.7829,0.38137,0.1857,-0.42944,-2.04,-18.96,35.94,12.18
-1.58,-6.6604,0.14982,0.37599,1.142,-2.0992,-20.28,35.64,12.24
1.1713,-6.5922,0.92618,0.47739,2.0797,-2.2153,-22.5,35.16,11.58
1.9613,-6.7148,1.5391,0.54581,2.1023,-2.2297,-23.4,34.98,11.16
2.4789,-7.2733,1.8115,0.53451,1.3677,-2.0873,-25.26,34.38,10.38
2.3836,-7.7227,1.9068,0.43005,0.79229,-1.9594,-26.16,33.9,9.9
2.152,-7.9679,1.7843,0.35125,0.53603,-1.8891,-26.94,33.6,9.66
1.9477,-8.036,1.7434,0.097738,0.050091,-1.675,-27.54,33.18,9.18
1.0079,-8.5944,1.7434,-0.08827,-0.08491,-1.4123,-28.86,32.34,8.22
0.53119,-9.2346,1.9341,-0.24648,-0.146,-1.0519,-29.4,31.8,7.62
0.21793,-9.8475,1.9886,-0.35583,-0.13897,-0.62339,-29.64,31.32,7.2
0.24517,-10.025,2.0431,-0.40409,0.15363,0.043982,-30.36,30.42,6.36
0.39499,-10.583,1.7162,-0.38515,0.30299,0.27397,-30.78,29.28,5.64
0.8036,-11.673,1.6072,-0.46609,0.60873,0.97952,-30.9,28.32,5.4
1.4029,-12.435,1.6753,-0.57452,0.65454,1.4111,-30.9,27.72,5.52
1.8796,-12.286,1.7979,-0.66432,0.69608,1.8079,-31.08,27.12,5.4
2.6423,-10.924,1.7434,-0.6634,0.69791,2.091,-31.08,26.94,5.16
3.2961,-9.5751,0.99429,-0.52657,0.50183,2.1841,-30.84,27.0,4.92
3.8818,-10.229,0.44947,-0.5455,0.22694,2.2184,-30.6,27.72,4.2
3.9635,-12.258,0.44947,-0.65179,-0.21472,2.1805,-30.3,28.56,3.24
3.6503,-14.056,1.0351,-0.79382,-0.59682,2.0733,-30.06,29.52,2.52
2.6968,-13.743,1.7979,-0.90469,-0.75839,1.9264,-30.12,30.54,2.1
1.8251,-11.822,1.7706,-0.86865,-0.61636,1.8045,-30.36,31.08,2.22
1.6617,-10.597,1.4438,-0.68111,-0.10721,1.7449,-30.18,31.32,2.76
2.1929,-7.7636,0.47671,-0.43005,0.5846,1.6802,-30.12,31.68,3.78
2.9284,-7.1371,-0.19068,-0.12248,1.3601,1.6319,-29.88,31.68,4.56
3.6094,-7.0962,-0.20431,-0.054367,1.4746,1.5974,-29.46,31.8,5.28
4.5083,-7.4367,0.47671,-0.047342,1.6509,1.5207,-28.5,31.98,6.78
4.7399,-7.5048,0.8036,-0.086437,1.6472,1.4383,-27.84,32.16,7.74
4.9987,-7.4367,1.1441,-0.18051,1.222,1.4459,-27.18,32.22,8.4
4.8216,-7.3822,1.1169,-0.29169,0.50519,1.4594,-25.8,32.4,9.78
4.8352,-7.4095,0.89894,-0.35308,0.21319,1.4465,-24.9,32.4,10.32
4.8897,-7.3822,0.70826,-0.40317,-0.018021,1.4258,-23.88,32.64,10.74
4.9306,-7.5729,0.70826,-0.4386,-0.088575,1.361,-21.72,33.12,11.58
4.808,-7.6683,0.58567,-0.4383,-0.016188,1.2578,-20.58,33.48,11.76
4.5764,-8.0224,0.70826,-0.44318,0.16066,1.1649,-19.56,33.72,11.64
4.8625,-8.9622,0.76274,-0.4496,0.41875,1.0861,-17.4,34.5,11.7
5.5299,-10.065,0.96704,-0.48655,0.46701,1.0259,-16.26,34.86,11.58
6.0747,-10.665,0.92618,-0.53359,0.39584,0.86315,-15.48,35.22,11.58
6.9736,-12.258,1.4438,-0.57085,0.19242,0.54184,-14.1,35.88,11.52
6.2109,-12.612,1.7298,-0.52595,-0.20556,0.033598,-13.5,36.24,11.58
5.3937,-13.893,1.7843,-0.37171,-0.25381,-0.081551,-12.48,36.72,11.94
5.7205,-13.511,1.5119,-0.16493,-0.20556,-0.40287,-11.94,36.96,12.24
5.8431,-12.817,1.4029,0.10507,-0.13347,-0.83658,-11.58,37.2,12.3
4.0725,-11.414,1.5119,0.57024,-0.34147,-1.4255,-11.16,37.14,12.66
3.7047,-12.34,1.471,0.84544,-0.50763,-1.6173,-10.98,37.2,12.66
3.8001,-13.184,1.3893,1.0189,-0.62094,-1.7642,-11.16,37.26,12.78
4.6445,-14.969,1.4165,1.0736,-0.78618,-2.0027,-11.58,36.96,12.72
4.6445,-15.119,1.5936,0.97708,-0.95692,-2.1405,-11.88,36.78,12.72
4.413,-14.601,1.7025,0.92516,-1.0223,-2.1979,-12.42,36.54,12.66
3.9635,-13.661,1.471,0.75045,-1.0614,-2.3082,-13.14,36.3,12.48
4.2768,-11.605,0.40861,0.55161,-1.6787,-2.3445,-14.94,35.58,12.12
3.2144,-10.011,1.1986,0.31093,-3.0097,-2.3836,-16.02,35.1,12.0
-0.64016,-7.5184,0.91256,0.27214,-3.2006,-2.2367,-17.16,34.56,11.82
-0.96704,-6.851,0.61292,0.51099,-1.0171,-2.3005,-19.62,33.48,11.34
-0.51757,-6.3743,0.62654,0.69089,0.29535,-2.3143,-20.88,32.88,10.98
0.57205,-6.3198,0.58567,0.79779,1.1069,-2.4138,-22.02,32.58,10.5
1.3348,-6.4016,1.0624,0.84849,1.1808,-2.3711,-23.28,32.28,9.84
2.1793,-6.8919,1.58,0.82253,0.82589,-2.2483,-25.56,31.62,8.28
2.1384,-7.2596,1.5119,0.64324,0.13592,-2.0424,-26.58,31.26,7.56
1.471,-7.6546,1.6208,0.46456,-0.22816,-1.8845,-28.44,30.48,6.18
1.1169,-7.8317,1.58,0.24404,-0.38546,-1.6698,-29.34,30.0,5.64
0.83084,-7.9679,1.6072,0.041539,-0.3711,-1.4129,-30.06,29.52,5.22
0.43585,-8.4174,1.7162,-0.13622,-0.25656,-1.0525,-30.6,28.98,4.8
0.17706,-8.9213,1.8524,-0.28986,-0.092852,-0.62644,-31.56,27.72,4.02
0.21793,-9.616,1.9613,-0.4047,0.24496,0.062003,-31.98,27.24,3.72
0.47671,-10.311,1.7162,-0.478,0.39737,0.29383,-32.34,26.4,3.18
0.91256,-10.815,1.471,-0.58368,0.82253,0.95051,-32.52,25.98,3.06
1.3212,-11.986,1.4165,-0.79321,0.91019,1.3861,-32.64,25.5,3.12
1.9341,-12.463,1.7843,-0.96731,0.91172,1.7724,-32.52,24.6,3.24
2.3836,-11.7,1.866,-1.0602,0.91049,2.1148,-32.4,24.24,3.3
3.3234,-10.106,1.4165,-1.0195,0.85765,2.3109,-32.28,24.0,3.36
3.6503,-10.283,0.85808,-0.94684,0.5904,2.394,-32.22,24.18,3.24
4.0861,-11.713,0.51757,-0.99052,0.14539,2.449,-32.1,24.48,2.94
4.6718,-13.43,0.47671,-1.0247,-0.12859,2.4285,-32.1,24.84,2.7
4.1814,-15.214,1.4982,-1.1674,-0.8265,2.0937,-32.4,25.8,2.4
2.9148,-14.547,1.9613,-1.1478,-0.87354,1.847,-32.46,26.28,2.4
1.4438,-10.665,1.5391,-0.95234,-0.45662,1.6906,-32.4,26.76,2.4
1.5119,-8.6081,0.83084,-0.67042,0.33353,1.5611,-32.22,27.42,3.0
1.8932,-7.0417,0.47671,-0.26573,1.5834,1.4114,-31.98,27.84,3.36
2.5061,-6.4833,0.16344,-0.17532,1.8601,1.372,-31.5,28.14,3.72
2.9284,-6.3607,0.53119,0.0012217,2.1441,1.2859,-31.26,28.62,4.14
3.7047,-6.6876,1.1577,0.044593,2.1353,1.296,-30.66,29.16,5.28
4.1814,-7.0553,1.362,0.0051924,1.905,1.3161,-30.3,29.46,5.7
4.9714,-7.4503,1.5119,-0.094073,1.4404,1.35,-29.34,29.88,6.84
5.2575,-7.5593,1.4982,-0.32681,0.56505,1.405,-28.8,30.06,7.56
5.2711,-7.641,1.3348,-0.4722,0.086437,1.4261,-28.02,30.36,8.22
5.094,-7.5184,1.1032,-0.5962,-0.14508,1.4248,-27.0,30.66,8.64
4.8488,-7.4503,1.0215,-0.66035,-0.18143,1.4062,-25.92,30.78,9.06
4.699,-7.5321,1.185,-0.67806,-0.12248,1.397,-23.94,31.44,9.48
4.7399,-7.8453,1.1305,-0.63163,0.059865,1.3674,-22.92,31.86,9.54
6.0202,-9.8475,1.0215,-0.61545,0.10446,1.3473,-22.02,32.28,9.66
7.069,-11.373,1.0896,-0.59895,0.010385,1.1286,-20.46,33.24,9.48
8.0224,-12.558,1.3484,-0.61606,-0.31062,0.74739,-19.68,33.6,9.6
7.641,-12.912,1.8387,-0.55772,-0.77733,0.2193,-18.9,33.96,9.6
4.5083,-13.348,1.9205,-0.35216,-0.93676,-0.15852,-17.52,34.62,9.96
3.9908,-13.825,1.5527,0.076358,-0.25992,-0.62644,-16.92,34.86,10.2
4.6718,-12.34,1.0215,0.22663,0.025656,-0.81367,-16.44,35.22,10.62
4.4539,-10.924,1.2258,0.51282,0.36591,-1.1906,-15.78,35.4,11.28
3.9635,-10.569,1.5119,0.80909,0.36285,-1.4734,-15.48,35.28,11.58
3.9908,-10.842,1.5391,1.1732,0.13225,-1.613,-15.54,35.34,11.82
5.203,-12.898,1.6344,1.2993,-0.17593,-1.6457,-15.66,35.1,12.12
5.775,-13.702,1.6889,1.1784,-1.0589,-1.6976,-15.84,34.86,12.06
6.2517,-14.955,1.9341,1.0702,-1.4416,-1.7294,-16.5,34.62,12.06
5.6797,-14.342,1.7162,0.65546,-2.4514,-1.9032,-17.1,34.32,12.12
5.1076,-13.539,0.31327,0.30024,-3.1359,-2.025,-17.76,33.9,12.3
5.3392,-13.184,-0.027241,-0.20464,-4.4004,-2.1322,-18.42,33.48,12.48
1.2531,-9.5206,2.6151,-0.40225,-5.6499,-2.0821,-20.22,32.58,13.02
-1.866,-8.1586,1.4165,-0.33231,-3.069,-2.0308,-21.24,32.16,13.38
-2.547,-6.9328,0.47671,-0.10537,-1.9618,-2.0806,-21.96,31.62,13.5
-1.1577,-6.7693,0.10896,0.15241,0.018021,-2.2061,-23.64,30.84,13.86
0.14982,-6.6059,0.57205,0.31887,1.4129,-2.3137,-24.48,30.6,14.1
0.8036,-6.674,1.1169,0.49694,1.9508,-2.4389,-25.08,30.24,14.04
1.8251,-7.246,2.0567,0.56016,1.646,-2.3271,-26.22,29.64,14.1
2.1793,-7.8045,2.1929,0.54489,0.99632,-2.1539,-26.7,29.34,14.16
2.1656,-8.6353,2.152,0.46059,0.77549,-2.0772,-27.66,28.2,14.28
1.9205,-8.7034,1.8524,0.20311,0.26664,-1.8662,-28.02,27.66,14.4
1.7025,-8.826,1.7843,0.09499,0.18234,-1.7657,-28.38,27.3,14.22
1.1032,-9.1529,1.5527,-0.2193,0.091019,-1.3662,-28.98,26.46,13.8
0.85808,-9.4389,1.6889,-0.40836,0.19028,-1.0146,-29.28,25.86,13.56
0.095342,-9.6023,2.3291,-0.51252,0.4273,-0.6295,-29.58,25.44,13.26
-0.38137,-10.161,2.4244,-0.4612,0.86529,0.18265,-30.12,24.42,12.72
0.14982,-11.06,2.0567,-0.45845,0.92027,0.81734,-30.3,23.88,12.48
0.9398,-11.795,1.757,-0.48167,0.88911,1.1072,-30.54,23.28,12.3
2.4108,-12.34,1.4574,-0.59407,0.80268,1.8201,-30.9,22.32,11.94
3.2144,-11.346,1.2258,-0.61667,0.6411,2.1402,-31.14,22.14,11.64
4.0044,-9.7522,1.0488,-0.54795,0.36316,2.2779,-31.26,22.14,11.58
4.3177,-9.9156,0.55843,-0.52198,-0.17746,2.2969,-31.2,22.38,10.92
4.0725,-11.414,0.50395,-0.57971,-0.63897,2.2281,-31.14,22.68,10.44
3.8001,-12.177,0.58567,-0.62492,-0.83597,2.1866,-31.02,22.98,10.2
3.1599,-13.511,1.1441,-0.79779,-1.1133,2.0003,-31.08,23.34,9.84
1.7979,-12.967,1.7298,-0.79748,-0.87659,1.9108,-30.78,24.36,9.42
1.3757,-10.733,1.4165,-0.6521,-0.24129,1.8488,-30.66,24.72,9.36
1.8796,-8.0496,0.50395,-0.46945,0.58613,1.774,-30.36,25.38,9.66
2.7649,-7.0281,0.095342,-0.18326,1.5507,1.7013,-30.0,25.74,10.08
3.5822,-6.851,0.095342,-0.08827,1.7568,1.6667,-29.64,26.22,10.44
4.0044,-7.0145,0.14982,-0.057727,1.7535,1.6503,-29.1,26.7,10.92
4.8352,-7.6138,0.77636,-0.048564,1.5996,1.6521,-28.14,27.48,12.0
5.2575,-7.6546,1.0215,-0.093768,1.2416,1.7,-27.66,27.72,12.48
5.9657,-7.9543,0.95342,-0.17226,0.68753,1.7119,-27.06,28.26,13.08
5.9521,-7.8181,0.7355,-0.29902,-0.22419,1.6744,-25.86,28.68,14.28
5.8023,-7.8589,0.7355,-0.34941,-0.62247,1.6267,-25.08,28.92,14.88
5.6933,-7.8453,0.61292,-0.36805,-0.80573,1.5434,-24.18,29.16,15.54
5.5299,-7.927,0.42223,-0.35094,-0.80207,1.4361,-22.14,29.7,16.38
5.3937,-7.9815,0.38137,-0.31826,-0.67287,1.2996,-21.12,30.06,16.56
5.3664,-8.8668,0.24517,-0.28802,-0.46181,1.1325,-19.08,31.2,17.04
5.6116,-9.8884,0.21793,-0.30268,-0.16157,0.89156,-18.3,31.5,16.98
5.993,-11.577,0.40861,-0.39309,-0.033292,0.70555,-17.34,31.92,17.04
6.2654,-12.313,0.54481,-0.50305,0.077885,0.36377,-16.38,32.28,17.04
5.203,-12.163,1.2803,-0.52168,0.19761,-0.043982,-14.82,33.0,17.28
4.2223,-12.612,1.4438,-0.42883,0.39492,-0.31398,-14.16,33.24,17.46
4.3449,-13.13,1.1713,-0.14691,0.99815,-0.68661,-12.9,33.48,18.0
5.6388,-12.19,1.2395,-0.03543,1.1625,-0.81642,-12.66,33.42,18.12
5.5843,-10.665,1.185,0.3708,1.1383,-1.3262,-12.36,33.36,18.24
4.8488,-9.8611,1.3484,0.65301,0.87048,-1.5284,-12.12,33.18,18.36
4.2768,-10.91,1.5527,0.93432,0.46731,-1.5543,-12.3,33.06,18.6
4.699,-12.108,1.7706,1.0834,-0.04612,-1.5369,-12.42,32.88,18.78
6.1564,-15.214,1.6344,1.0763,-0.73487,-1.5241,-12.9,32.34,18.42
6.17,-15.827,1.8387,0.76511,-1.9749,-1.6698,-13.2,32.1,18.36
5.3392,-15.241,2.0158,0.48594,-2.5858,-1.8506,-13.68,31.8,18.24
4.6718,-14.601,1.7298,0.37782,-2.6829,-1.9487,-14.16,31.5,18.18
3.6366,-13.171,1.362,0.045815,-3.197,-2.1548,-14.64,31.08,18.06
1.3757,-10.392,1.5391,0.042761,-2.9871,-2.2868,-16.02,30.24,17.88
-0.12258,-8.5808,1.1441,0.14661,-2.0272,-2.4911,-16.74,29.82,17.64
-0.27241,-7.5865,0.70826,0.45387,-0.27947,-2.5806,-18.24,29.04,17.04
0.29965,-7.3141,0.70826,0.62094,0.4948,-2.6964,-19.08,28.86,16.68
0.77636,-7.246,1.1032,0.68478,0.69547,-2.7232,-19.8,28.86,16.08
1.0896,-7.246,1.3076,0.85949,0.93982,-2.6805,-20.34,28.62,15.3
1.4982,-7.2188,1.58,0.90988,0.92729,-2.5974,-21.36,28.2,13.56
1.7298,-7.246,1.5527,0.89889,0.77916,-2.4609,-21.72,28.02,12.66
1.7843,-7.1507,1.471,0.79779,0.50274,-2.3094,-22.5,27.72,11.34
1.58,-7.2596,1.58,0.65027,0.20495,-2.1078,-22.98,27.54,10.68
1.2939,-7.3958,1.4165,0.33964,-0.13378,-1.6429,-23.34,27.18,10.02
0.85808,-7.6138,1.5255,0.12004,-0.24648,-1.2474,-23.76,27.06,9.36
0.36775,-8.0224,1.6344,-0.065668,-0.22571,-0.76144,-24.54,26.52,7.92
0.24517,-8.3765,1.6753,-0.23824,-0.037263,-0.2584,-24.96,26.22,7.26
0.17706,-8.9622,1.5391,-0.35491,0.27672,0.25809,-25.26,25.8,6.24
0.84446,-10.501,1.3484,-0.47709,0.60048,0.83627,-25.38,25.56,5.88
1.3484,-11.278,1.362,-0.68845,0.76236,1.4419,-25.44,25.26,5.82
1.6889,-11.782,1.3893,-1.0531,0.8546,2.2923,-25.38,25.08,5.82
3.1191,-11.959,1.5119,-1.2373,0.84116,2.7794,-25.08,25.2,5.76
4.0044,-11.06,1.3757,-1.2721,0.71105,3.0253,-24.96,25.32,5.76
5.094,-10.447,0.49033,-1.2016,0.34667,3.0614,-24.6,25.98,5.22
5.4481,-11.727,0.1362,-1.2068,-0.13225,2.9441,-24.3,26.52,4.86
5.5435,-12.735,0.081722,-1.2617,-0.80268,2.7055,-24.24,27.12,4.44
4.1814,-14.71,1.3484,-1.3091,-1.3857,2.4074,-24.12,28.2,4.14
2.7922,-14.274,1.9341,-1.2214,-1.5895,2.1927,-23.76,28.8,4.02
1.8387,-12.776,1.9886,-0.97005,-1.1606,2.051,-23.52,29.46,4.32
1.866,-9.1937,0.61292,-0.49052,0.19487,1.8091,-22.86,30.42,5.28
2.2882,-8.2948,0.25879,-0.23488,0.94348,1.6667,-22.2,30.84,6.0
3.0782,-7.4776,-0.068102,-0.14813,1.1509,1.5941,-21.54,31.2,6.6
3.8954,-7.4503,0.24517,0.000916,1.3873,1.4306,-20.46,31.5,8.04
4.018,-7.641,0.5993,0.029016,1.5394,1.3445,-20.1,31.5,8.76
4.3721,-7.7091,1.1169,0.023824,1.5766,1.303,-19.5,31.62,9.54
5.094,-7.8045,1.3212,-0.070555,1.2715,1.266,-18.18,31.68,11.28
5.4481,-7.641,1.1305,-0.16554,0.86224,1.2507,-17.52,31.62,12.24
5.4481,-7.4503,0.96704,-0.26756,0.43707,1.212,-16.62,31.62,13.26
5.2438,-7.246,0.83084,-0.32376,0.10996,1.1787,-14.52,31.56,14.88
4.9442,-7.2188,0.85808,-0.3317,-0.055283,1.1136,-13.44,31.62,15.54
4.7263,-7.3686,0.8717,-0.31582,-0.10232,1.0754,-12.48,31.68,15.78
4.8488,-8.1177,0.91256,-0.29138,-0.092241,1.0275,-10.8,32.28,16.14
5.1213,-9.1529,0.92618,-0.29108,-0.046731,0.95051,-10.08,32.46,16.08
5.6388,-10.188,1.1577,-0.2981,-0.054978,0.89828,-9.48,32.88,16.02
6.2245,-11.659,1.4301,-0.33506,-0.23213,0.59407,-8.1,33.48,16.02
5.8704,-11.863,1.5391,-0.30849,-0.4331,0.27947,-7.5,33.78,16.08
4.699,-12.313,1.8387,-0.19151,-0.52351,-0.0033598,-6.96,34.14,16.2
4.6445,-13.729,1.4165,0.077885,-0.22938,-0.39615,-5.94,34.68,16.32
5.0123,-13.28,1.2531,0.28986,0.045204,-0.74709,-5.7,34.92,16.38
4.985,-12.449,1.2531,0.5455,0.15547,-1.1316,-5.4,35.1,16.5
4.413,-10.992,1.2258,0.68692,0.14478,-1.3018,-5.22,35.34,16.5
3.5277,-11.632,1.2122,1.0504,0.0051924,-1.5834,-5.28,35.88,16.32
3.732,-12.503,1.2531,1.182,-0.085521,-1.6695,-5.34,36.12,16.14
4.699,-13.77,1.2939,1.1582,-0.54856,-1.7193,-6.06,36.48,15.78
5.0259,-14.519,1.471,1.0843,-0.79321,-1.7514,-6.72,36.72,15.42
4.7807,-13.988,1.6208,0.894,-1.2767,-1.806,-7.26,36.72,15.18
4.5356,-13.321,1.1986,0.55741,-1.8372,-1.9059,-8.04,36.84,15.0
5.1621,-12.585,-1.3076,0.065668,-3.2562,-1.9584,-10.32,37.02,14.28
2.7377,-9.7522,2.0975,-0.37263,-5.7522,-1.9673,-11.58,36.9,13.98
-0.25879,-8.1858,2.0294,-0.33567,-5.2983,-1.7437,-12.84,36.66,13.92
-2.9011,-6.9191,0.095342,-0.13347,-2.8295,-1.6273,-15.66,36.24,13.8
-2.2474,-6.5105,-0.01362,0.16249,-0.45265,-1.7321,-17.1,36.12,13.68
-0.7355,-6.4697,0.095342,0.43585,1.9981,-1.9129,-18.6,36.12,13.44
1.58,-6.5105,1.2803,0.52993,2.4865,-2.0311,-21.42,36.0,12.48
2.2474,-6.7693,1.7298,0.57696,2.1475,-2.0156,-22.62,35.76,12.0
2.6968,-7.0962,1.9886,0.54917,1.5592,-1.9419,-23.82,35.7,11.4
2.3699,-7.5321,2.0158,0.3937,0.67867,-1.7935,-25.68,35.34,10.26
2.152,-7.7091,1.9613,0.3146,0.45632,-1.7486,-26.58,35.1,9.66
1.6617,-7.9543,1.8115,0.12614,0.14783,-1.606,-27.54,34.86,9.06
0.92618,-8.2948,1.8251,-0.18906,-0.1069,-1.1933,-28.8,34.08,8.04
0.65378,-9.1801,1.7843,-0.3769,-0.18357,-0.79596,-29.34,33.66,7.62
0.35413,-9.8066,1.975,-0.53573,-0.10904,-0.36163,-29.94,33.48,6.96
0.040861,-10.12,2.1248,-0.562,0.37263,0.32926,-30.6,32.94,5.88
0.31327,-10.529,1.975,-0.53939,0.71502,0.82772,-30.96,32.58,5.28
0.6674,-11.332,1.8251,-0.57269,0.79748,1.0779,-30.96,32.1,4.8
1.7025,-12.98,1.7843,-0.72052,0.86468,1.7498,-31.02,31.26,4.44
2.438,-12.79,1.7979,-0.77855,0.85949,2.1396,-30.96,31.02,4.32
3.8682,-10.637,1.6072,-0.70341,0.69822,2.2794,-30.96,30.54,3.96
4.4402,-9.8475,1.1032,-0.55986,0.41111,2.2465,-30.78,30.54,3.78
4.6718,-10.256,0.57205,-0.49541,-0.019853,2.1325,-30.78,30.6,3.6
4.2904,-12.435,0.61292,-0.51129,-0.60781,1.952,-30.3,31.08,3.36
3.4596,-13.579,1.1713,-0.5849,-1.1139,1.7058,-30.24,31.32,3.3
2.6423,-13.484,1.58,-0.65424,-1.2055,1.3299,-30.12,31.8,3.3
0.38137,-11.618,1.8796,-0.53665,-0.6298,1.2526,-29.76,32.16,3.9
0.42223,-10.297,1.3348,-0.2416,0.93585,1.2013,-29.46,32.4,4.26
2.0567,-8.145,0.29965,-0.14539,1.4444,1.1872,-28.68,33.12,5.34
3.1191,-6.6604,-0.21793,0.034819,2.2593,1.0403,-28.32,33.3,6.06
3.2553,-6.0883,-0.40861,0.066584,2.3876,1.004,-27.66,33.42,6.6
4.5901,-6.0338,0.70826,0.16096,3.324,0.75106,-26.82,33.72,7.8
5.3392,-6.2109,1.3757,0.11973,2.9062,0.67348,-26.28,33.84,8.4
5.5435,-6.7421,1.4846,0.0036652,1.7736,0.85582,-25.26,34.02,9.54
4.808,-7.2188,1.3484,-0.25015,0.32956,0.9612,-24.66,34.02,10.02
4.522,-7.2869,1.362,-0.38912,0.099266,1.0241,-24.0,34.2,10.32
4.2632,-7.3005,0.92618,-0.5058,0.1237,1.0785,-22.56,34.38,11.1
4.3858,-7.4095,0.91256,-0.59743,0.1179,1.117,-21.84,34.5,11.16
4.4947,-7.5184,0.88532,-0.63988,0.10934,1.1374,-21.0,34.86,10.8
4.413,-7.9815,0.96704,-0.63438,0.17562,1.1457,-19.56,35.34,10.38
4.5083,-8.717,0.95342,-0.60231,0.34086,1.1493,-18.84,35.7,10.14
4.8761,-9.9565,1.0351,-0.60353,0.354,1.1267,-18.18,36.12,9.78
6.6059,-12.803,1.3212,-0.62614,0.32345,1.0959,-17.58,36.48,9.6
6.9328,-13.443,1.6753,-0.66187,0.06689,0.71319,-16.26,37.02,9.48
6.4016,-13.729,1.9477,-0.60079,-0.20556,0.37507,-15.54,37.32,9.54
5.2302,-14.192,1.7843,-0.41386,-0.24618,-0.079107,-14.16,37.62,9.96
5.3119,-13.866,1.4982,-0.0097738,0.023824,-0.43127,-13.62,37.86,10.2
5.3119,-12.476,1.1986,0.15638,0.099876,-0.64355,-13.2,37.86,10.5
4.7126,-10.869,1.0896,0.47983,0.13531,-1.0687,-12.72,38.1,10.5
4.127,-11.822,1.1986,1.0192,-0.063835,-1.4652,-11.76,38.4,10.68
4.127,-11.822,1.1986,1.0925,-0.1518,-1.5046,-11.76,38.4,10.68
4.8897,-13.348,1.3212,1.1219,-0.41997,-1.5727,-11.58,38.46,10.74
5.2166,-13.743,1.3348,1.0348,-0.86499,-1.6215,-11.7,38.46,10.56
5.1213,-13.443,1.3484,0.84147,-1.3778,-1.6915,-12.12,38.22,10.38
4.9987,-12.503,0.54481,0.59223,-1.7819,-1.7981,-12.42,38.04,10.2
5.2575,-12.068,-0.040861,0.0033598,-3.1377,-1.9746,-12.96,37.98,10.2
3.8682,-10.338,1.076,-0.18234,-3.901,-1.9926,-13.68,37.86,9.9
2.6696,-9.0575,1.8251,-0.26939,-3.5641,-1.8274,-14.52,37.56,9.72
-1.6344,-6.4424,0.47671,-0.081551,-1.5922,-1.8219,-16.74,37.26,9.24
-1.1305,-6.2517,0.35413,0.14997,0.21533,-1.9181,-17.94,37.08,9.12
0.12258,-6.3062,0.31327,0.28436,1.3851,-1.9771,-19.2,37.02,8.58
1.9886,-6.7285,1.5663,0.38637,1.7807,-2.0974,-21.9,36.72,7.44
2.2201,-7.069,1.7706,0.39492,1.4035,-2.0406,-23.22,36.42,6.84
2.3018,-7.3277,1.9341,0.31765,0.95264,-1.9441,-24.36,36.24,6.3
1.8115,-8.1722,2.0567,0.15302,0.39767,-1.7483,-26.52,35.82,5.4
1.6344,-8.2539,2.0294,0.027184,0.19395,-1.5495,-27.6,35.4,4.92
1.3484,-8.2539,2.0158,-0.036346,0.1292,-1.4361,-28.62,34.92,4.5
0.99429,-8.54,1.9205,-0.19731,-0.059865,-0.97464,-30.54,34.14,3.42
0.8036,-9.0984,1.975,-0.28283,-0.17532,-0.58154,-31.44,33.72,3.12
0.70826,-9.4661,1.8932,-0.33201,-0.2193,-0.17746,-32.28,33.3,2.88
0.42223,-10.079,1.8932,-0.34422,0.014661,0.40775,-33.3,32.22,2.22
0.5993,-10.501,1.7843,-0.29352,0.23396,0.81459,-33.54,31.8,1.8
0.76274,-11.087,1.7979,-0.32101,0.29138,1.0339,-33.72,31.32,1.56
1.471,-12.258,1.8251,-0.41142,0.34911,1.449,-33.84,31.02,1.44
1.9886,-12.299,1.9068,-0.54856,0.51557,1.9743,-34.14,30.42,1.38
2.7377,-11.741,1.7025,-0.56994,0.5678,2.1692,-34.2,30.3,1.44
4.018,-9.6704,0.99429,-0.49205,0.49297,2.1811,-34.26,30.42,1.08
4.2495,-9.5887,0.72188,-0.41905,0.14142,2.1093,-34.14,30.66,1.14
4.5083,-10.365,0.35413,-0.43188,-0.083078,2.0589,-34.2,31.02,0.78
4.1133,-12.967,0.57205,-0.54092,-0.74067,1.7947,-34.02,31.86,0.72
3.0918,-13.866,1.2531,-0.62033,-0.91599,1.5977,-33.84,32.4,0.6
2.1656,-13.539,1.7025,-0.5962,-0.71044,1.4636,-33.72,32.64,0.6
1.7706,-12.626,1.4982,-0.43646,-0.063835,1.346,-33.54,33.12,0.72
1.9886,-8.3901,0.34051,-0.12462,1.2645,1.1976,-32.88,33.78,1.56
2.6015,-7.0417,-0.23155,0.043066,1.8561,1.1765,-32.52,34.2,2.1
2.9284,-6.8102,-0.58567,0.080023,2.0354,1.1842,-32.04,34.44,2.52
3.6911,-6.8238,-0.40861,0.13653,2.9309,1.0272,-31.38,34.68,2.94
5.8295,-6.8919,1.2803,0.058032,2.5412,1.0058,-30.12,35.16,3.84
5.8295,-6.8919,1.4301,-0.0051924,2.0626,1.0718,-30.12,35.16,3.84
5.3937,-6.851,1.2531,-0.22327,0.47067,1.1448,-28.68,35.64,4.68
4.9442,-6.7966,1.0215,-0.34086,-0.11851,1.1609,-27.96,35.88,4.98
4.7399,-6.7966,0.9398,-0.42913,-0.40775,1.1493,-26.94,36.06,5.64
4.699,-7.2324,0.74912,-0.54062,-0.60842,1.1341,-25.14,36.54,6.42
4.4675,-7.3141,0.7355,-0.57727,-0.56047,1.0922,-24.06,36.72,6.78
4.2223,-7.5593,0.7355,-0.58521,-0.33384,1.054,-22.92,37.2,6.96
4.4811,-8.54,0.89894,-0.54153,0.040623,1.0055,-20.76,38.04,7.02
5.0531,-9.6704,0.76274,-0.53817,0.11026,0.98991,-19.92,38.52,6.96
5.8976,-11.182,0.8717,-0.54703,0.12737,0.92454,-18.96,38.82,6.9
6.8102,-12.463,1.0624,-0.5904,-0.1573,0.54428,-18.18,39.18,6.78
6.0066,-13.225,1.6753,-0.55222,-0.45662,0.1179,-16.62,39.78,6.9
4.7399,-13.539,1.7434,-0.43066,-0.54825,-0.1689,-16.02,40.2,7.14
4.4266,-13.77,1.2939,-0.0956,-0.10812,-0.56169,-14.82,40.62,7.86
4.9169,-12.422,1.2395,0.18021,0.21197,-0.90775,-14.52,40.68,8.16
4.8216,-11.25,1.2395,0.31124,0.25259,-1.098,-14.28,40.74,8.58
3.9635,-10.256,1.4438,0.73793,-0.074526,-1.3857,-14.04,40.8,8.88
3.6503,-11.196,1.6481,0.93096,-0.37904,-1.4383,-14.22,40.86,9.24
3.9908,-12.095,1.5936,1.0088,-0.7251,-1.4493,-14.46,40.68,9.12
5.0259,-14.315,1.7434,0.85888,-1.3378,-1.5327,-15.0,40.32,9.0
4.8625,-14.506,1.8387,0.64507,-1.6744,-1.6536,-15.42,40.08,9.06
4.413,-14.097,1.9613,0.53542,-1.7517,-1.6997,-16.02,39.9,8.94
3.3778,-11.931,1.7025,0.31215,-1.6286,-1.8705,-17.4,39.36,8.76
2.3155,-9.902,1.6481,0.29169,-1.4496,-1.9774,-18.36,39.06,8.64
1.6753,-8.7034,1.4438,0.36774,-1.0592,-2.0797,-19.38,38.58,8.52
1.3484,-7.3414,1.185,0.51191,-0.63041,-2.1906,-21.96,37.62,7.92
1.5119,-6.96,1.1169,0.71685,-0.26298,-2.3253,-22.92,37.2,7.5
1.6208,-6.8238,1.2803,0.82375,-0.19303,-2.401,-24.12,36.84,7.02
1.58,-6.8919,1.3348,0.88026,-0.15791,-2.4364,-26.28,36.12,5.76
1.3757,-7.0417,1.3212,0.89247,-0.12553,-2.4303,-27.12,35.82,5.28
1.1441,-7.1643,1.3484,0.85521,-0.083078,-2.3359,-27.96,35.46,4.92
1.0896,-7.8045,1.4029,0.69852,0.041233,-2.0553,-29.88,34.68,3.96
1.1577,-8.0496,1.5119,0.55375,0.11851,-1.8115,-30.9,34.2,3.24
1.1986,-7.9679,1.6072,0.46365,0.13775,-1.6762,-31.8,33.66,2.76
1.2258,-7.9815,1.6753,0.28955,0.15944,-1.3741,-32.58,33.06,2.28
1.0351,-8.4582,1.6481,0.011606,0.15424,-0.83933,-33.96,31.86,1.44
0.99429,-8.8396,1.7979,-0.15424,0.12584,-0.41569,-34.44,31.32,0.9
0.78998,-9.2482,1.8115,-0.28833,0.11942,0.022907,-34.86,30.72,0.78
1.0488,-10.256,1.4982,-0.3989,0.23091,0.77091,-35.4,29.58,0.12
1.4165,-11.278,1.3212,-0.54581,0.29871,1.2682,-35.46,28.98,0.12
1.8387,-12.149,1.362,-0.63255,0.32193,1.5104,-35.52,28.56,-0.12
2.3427,-12.19,1.2395,-0.80848,0.35888,2.1347,-35.52,28.26,-0.18
3.4732,-11.21,1.2667,-0.832,0.3427,2.4206,-35.58,27.84,-0.66
4.3177,-10.447,0.85808,-0.77855,0.23976,2.5045,-35.52,27.78,-0.78
5.094,-10.801,0.081722,-0.75136,-0.12492,2.3867,-35.04,28.5,-1.2
5.0668,-12.204,0.10896,-0.77916,-0.3262,2.2941,-34.86,28.86,-1.44
3.9771,-13.348,0.70826,-0.93432,-0.98746,1.887,-34.68,29.46,-1.56
3.1735,-14.261,1.0079,-1.0183,-1.1167,1.6725,-34.44,29.88,-1.68
0.58567,-13.797,1.6072,-0.9896,-0.72235,1.544,-34.08,30.9,-1.26
0.65378,-12.217,1.3757,-0.85246,0.16921,1.4713,-33.84,31.38,-0.96
1.2667,-10.311,1.0215,-0.53665,1.6872,1.328,-33.48,32.04,-0.36
3.0373,-6.6604,0.43585,-0.43494,2.0754,1.2755,-32.52,33.18,0.6
3.6639,-5.8295,0.32689,-0.17776,2.4706,1.1811,-32.16,33.6,1.08
4.0316,-5.7342,0.31327,-0.10904,2.3198,1.1979,-31.56,34.02,1.68
4.7944,-6.6059,0.85808,-0.11026,2.021,1.1982,-30.36,34.62,3.06
5.1213,-6.8919,0.99429,-0.208,1.5482,1.2248,-29.88,34.8,3.66
5.203,-7.1371,1.4846,-0.35247,0.91905,1.2251,-29.34,34.74,4.32
4.8216,-7.1371,1.5527,-0.59101,0.0064141,1.2517,-27.78,35.04,5.76
4.4811,-7.1098,1.362,-0.7138,-0.26206,1.3127,-26.94,35.16,6.42
4.3858,-7.2324,1.1441,-0.77274,-0.29108,1.3131,-26.1,35.52,6.96
4.3449,-7.3414,0.98067,-0.80329,-0.17623,1.2743,-24.12,36.06,7.56
4.1814,-7.6683,0.96704,-0.78954,0.080634,1.2349,-23.04,36.42,7.62
4.2904,-8.1858,1.1032,-0.7648,0.36011,1.2022,-22.08,36.66,7.68
5.4073,-10.569,1.2258,-0.72907,0.53665,1.1536,-20.58,37.32,7.8
6.2654,-11.863,1.4029,-0.73059,0.43371,1.0055,-19.62,37.8,7.92
6.674,-12.49,1.6072,-0.70708,0.22266,0.67531,-18.78,37.98,8.1
5.3256,-12.422,2.0158,-0.58643,0.0054978,0.27214,-17.34,38.52,8.7
4.2768,-12.898,2.0839,-0.343,-0.037263,0.037263,-16.68,38.94,9.06
4.9306,-12.994,1.5255,-0.036346,0.17165,-0.27153,-15.42,39.42,9.6
5.7342,-12.286,1.4438,0.26542,0.33842,-0.39981,-15.0,39.6,9.84
5.7614,-11.278,1.4574,0.69578,0.04215,-0.92149,-14.58,39.72,10.14
4.5356,-10.093,1.7979,0.99113,-0.30238,-1.1252,-13.98,39.78,10.56
4.4266,-10.869,1.6753,1.2226,-0.68692,-1.233,-13.68,39.84,10.56
4.7126,-11.877,1.6617,1.3271,-1.1512,-1.3219,-13.74,39.84,10.56
5.1213,-14.451,1.5527,1.2966,-1.8833,-1.4423,-13.86,39.84,10.38
4.9987,-14.887,1.6753,1.04,-2.2492,-1.5989,-14.1,39.9,10.38
4.5901,-14.397,1.8251,0.94745,-2.3457,-1.6701,-14.46,39.84,10.32
4.0316,-13.116,1.7298,0.73976,-2.2083,-1.9251,-15.0,39.66,10.26
2.8194,-10.46,1.2122,0.68142,-1.9636,-2.0864,-16.08,39.18,9.96
2.1112,-9.2074,1.1577,0.69639,-1.7477,-2.2318,-16.86,38.82,10.08
1.5391,-8.2812,1.1577,0.7813,-1.3225,-2.3323,-17.76,38.46,9.96
1.471,-7.5457,0.88532,0.91294,-0.7535,-2.4728,-20.04,37.86,9.48
1.5663,-7.464,0.92618,0.96456,-0.51954,-2.5336,-21.3,37.62,9.0
1.58,-7.4095,0.96704,0.96578,-0.43463,-2.5494,-22.5,37.62,8.4
1.4574,-7.3822,1.1305,0.92424,-0.19487,-2.5385,-24.96,37.32,7.2
1.2939,-7.5457,1.1713,0.85613,-0.068722,-2.4596,-25.8,37.2,6.48
1.185,-7.6546,1.2667,0.77091,0.018631,-2.3115,-26.76,37.08,5.88
1.1032,-7.7636,1.2803,0.60201,0.069028,-2.0091,-28.44,36.48,4.62
1.1305,-7.8589,1.2395,0.52504,0.088575,-1.89,-29.28,36.06,4.14
1.0215,-7.9951,1.3484,0.37507,0.12004,-1.609,-30.06,35.82,3.54
0.85808,-8.6489,1.3757,0.12737,0.15058,-1.066,-31.56,35.16,2.4
0.8717,-9.2618,1.4846,-0.040928,0.15058,-0.65546,-32.16,34.74,1.68
0.9398,-9.8203,1.362,-0.22419,0.18601,-0.24312,-32.58,34.38,1.2
0.92618,-10.392,1.3757,-0.47922,0.3766,0.41508,-32.88,33.72,0.42
0.88532,-11.196,1.4165,-0.72326,0.51099,0.93218,-32.94,33.3,0.24
1.1032,-11.918,1.5119,-0.83933,0.57818,1.19,-32.94,32.88,-0.06
1.3757,-12.204,1.6753,-1.1564,0.7929,1.9792,-32.82,32.34,-0.24
2.7649,-10.706,1.6617,-1.2199,0.84208,2.3683,-32.64,31.86,-0.3
3.6094,-10.202,1.0488,-1.1869,0.77794,2.5812,-32.52,31.8,-0.66
5.0259,-11.754,0.27241,-1.1979,0.58002,2.6609,-32.46,31.86,-0.78
5.5707,-13.402,0.27241,-1.3311,-0.18509,2.5244,-32.16,32.4,-1.38
5.3528,-14.833,0.68102,-1.4001,-0.48167,2.4089,-31.98,32.82,-1.5
4.2495,-15.35,1.58,-1.5159,-1.1185,1.9474,-31.86,33.24,-1.62
1.9886,-13.389,2.2474,-1.339,-0.99113,1.7627,-31.5,34.26,-1.32
1.5255,-10.529,1.471,-1.0143,-0.32926,1.617,-31.26,34.68,-1.02
1.6889,-8.5672,0.64016,-0.66065,0.59162,1.4306,-30.96,35.04,-0.48
2.7649,-6.6059,-0.23155,-0.2865,1.5754,1.2184,-29.94,35.76,0.84
3.0918,-6.4833,0.054481,-0.15944,1.8021,1.1051,-29.34,36.18,1.56
3.0918,-6.674,0.38137,-0.076053,2.0238,1.0171,-28.62,36.54,2.4
3.4732,-6.7693,1.1577,-0.033903,2.1573,0.98807,-27.24,36.84,4.02
4.0861,-6.8374,1.3757,-0.053145,2.0681,1.0379,-26.64,36.96,4.92
4.7535,-6.9872,1.3484,-0.13806,1.6839,1.0989,-25.98,37.08,5.7
5.7069,-7.2869,1.0896,-0.27978,1.0993,1.1683,-24.66,37.14,7.02
5.7614,-7.4503,1.0624,-0.53206,0.20464,1.2242,-23.88,37.26,7.68
5.5707,-7.4095,0.8036,-0.60476,-0.0048869,1.2281,-23.04,37.2,8.34
5.0123,-7.4503,0.89894,-0.75931,-0.29322,1.2239,-21.0,37.38,8.94
4.5083,-7.7636,1.0624,-0.80359,-0.27428,1.2095,-19.98,37.74,9.0
4.3449,-8.322,1.1577,-0.82497,-0.13561,1.237,-19.14,38.1,9.06
5.2575,-10.678,1.185,-0.84116,0.12462,1.2599,-17.46,38.7,9.12
6.1973,-11.904,1.2258,-0.85888,0.17898,1.2217,-16.68,38.94,9.18
6.7148,-12.367,1.4982,-0.87109,0.18509,0.97861,-15.96,39.24,9.18
5.4481,-13.157,2.1929,-0.7251,-0.061087,0.38882,-14.64,39.9,9.54
4.8897,-13.852,2.2882,-0.47312,-0.099571,0.12217,-14.04,40.02,9.78
5.2983,-13.021,1.7025,-0.11515,0.12217,-0.20861,-13.5,40.14,10.2
5.4073,-11.223,1.4846,0.47678,0.37721,-0.79626,-12.36,40.38,10.98
4.9442,-9.8748,1.5119,0.87751,0.16585,-1.1078,-11.94,40.44,11.28
4.6037,-10.392,1.6753,1.0501,-0.023518,-1.1863,-11.64,40.68,11.46
4.808,-12.122,1.7706,1.4038,-0.66248,-1.3931,-11.4,40.8,11.76
5.3256,-13.539,1.7979,1.4844,-1.1704,-1.5207,-11.28,40.62,11.7
5.5571,-15.064,1.8387,1.4077,-1.7269,-1.6793,-11.52,40.38,11.46
4.522,-15.146,1.7706,1.1594,-2.288,-1.9881,-11.94,40.2,11.16
3.8001,-13.634,1.4165,1.0088,-2.2116,-2.1557,-12.42,40.02,11.04
3.6775,-12.653,0.96704,0.94379,-2.0681,-2.244,-13.26,39.6,10.86
2.7513,-10.542,1.185,0.83811,-2.0,-2.4404,-14.1,39.24,10.56
1.2258,-8.3765,0.85808,0.90011,-1.4487,-2.4994,-16.44,38.52,9.84
1.2258,-8.3765,0.85808,1.0012,-0.90622,-2.5684,-16.44,38.52,9.84
1.2258,-8.3765,0.85808,1.1139,-0.23488,-2.5998,-16.44,38.52,9.84
1.6344,-7.0553,1.0079,1.1237,-0.17013,-2.6203,-17.82,38.22,9.24
1.58,-7.1915,1.1713,1.1096,-0.18112,-2.5898,-19.2,37.98,8.46
1.4165,-7.246,1.1986,0.99632,-0.22083,-2.4474,-21.96,37.38,6.36
1.2258,-7.4503,1.2395,0.85063,-0.22969,-2.2886,-24.18,36.54,4.56
1.2667,-7.4776,1.2258,0.69425,-0.22999,-2.1112,-24.96,36.18,3.84
0.98067,-7.5729,1.2667,0.40256,-0.19548,-1.7223,-26.94,35.1,2.76
0.8036,-7.7091,1.3893,0.22327,-0.15424,-1.3864,-28.56,33.78,1.8
0.8036,-7.8589,1.3484,0.061697,-0.10843,-1.0165,-29.16,33.24,1.32
0.83084,-8.4038,1.2258,-0.090408,-0.047953,-0.61025,-30.06,32.04,0.6
0.83084,-8.9622,1.2395,-0.26145,0.051924,-0.22022,-30.78,30.96,0.3
0.62654,-9.507,1.3484,-0.40775,0.20189,0.18937,-30.96,29.64,0.3
0.83084,-9.9701,1.2939,-0.52748,0.43158,0.67928,-31.2,28.32,1.14
1.3212,-11.25,1.4029,-0.8436,0.6017,1.4826,-31.62,27.48,1.62
2.0703,-12.04,1.3893,-1.1041,0.65057,1.9865,-31.86,27.12,1.8
2.6832,-11.959,1.4301,-1.3137,0.6692,2.4288,-31.92,27.54,1.62
3.8273,-10.992,1.1577,-1.416,0.64813,2.715,-31.8,28.26,1.5
4.6309,-10.855,0.69464,-1.4352,0.53848,2.7941,-31.68,29.34,1.02
5.0259,-12.708,0.36775,-1.5192,0.14203,2.7913,-31.26,30.48,0.3
5.1757,-13.688,0.40861,-1.6206,-0.3488,2.6432,-30.84,31.08,0.12
5.0531,-14.901,0.85808,-1.6991,-0.83353,2.3421,-30.72,31.74,-0.06
4.0044,-15.405,1.5936,-1.6478,-0.95967,2.0763,-30.6,32.4,-0.12
1.58,-13.416,2.1112,-1.4148,-0.53298,1.8653,-30.18,33.12,0.78
1.2803,-11.128,1.2531,-1.0669,0.35155,1.6087,-29.88,33.48,1.44
1.8115,-7.0962,0.40861,-0.697,1.3491,1.3228,-29.22,33.84,3.18
2.4244,-6.4152,0.20431,-0.24923,2.317,1.2275,-28.8,33.84,4.26
2.9284,-6.4016,0.47671,-0.067501,2.503,1.1493,-28.32,33.78,5.22
3.2008,-6.6059,0.91256,-0.0076358,2.5647,1.128,-27.9,33.84,6.06
4.3177,-7.2188,1.58,0.050396,2.4535,1.1005,-26.88,33.96,7.74
4.8352,-7.3958,1.7298,-0.032376,2.0583,1.1255,-26.4,33.84,8.7
5.3664,-7.4503,1.5663,-0.17868,1.4282,1.1463,-25.74,33.9,9.6
5.2438,-7.246,1.4574,-0.43066,0.46365,1.1933,-24.48,33.72,11.16
5.1757,-7.0826,1.1577,-0.56413,0.05681,1.23,-23.52,33.78,11.7
4.9306,-6.8919,1.076,-0.61667,-0.055283,1.2449,-22.68,33.9,12.24
4.6037,-6.7829,1.0079,-0.69455,-0.1686,1.2859,-21.78,34.08,12.42
4.6854,-7.6138,1.1169,-0.69364,-0.11179,1.3384,-20.16,34.5,12.66
5.1076,-8.4991,1.1577,-0.69547,-0.04612,1.3778,-19.38,34.8,12.6
7.0962,-11.196,1.2531,-0.70341,-0.088575,1.3503,-17.82,35.46,12.54
7.8589,-12.354,1.58,-0.73884,-0.36285,0.96211,-17.22,35.88,12.48
7.7364,-12.653,1.866,-0.72846,-0.52046,0.72632,-16.56,36.0,12.6
5.1076,-13.416,2.3836,-0.45998,-0.91111,0.10415,-15.3,36.48,12.96
4.8352,-14.247,2.0294,-0.1463,-0.69639,-0.19242,-14.58,36.48,13.2
5.1485,-13.934,1.1577,0.23671,-0.27153,-0.6466,-13.92,36.6,13.5
4.6309,-10.42,1.2803,0.61789,-0.026878,-1.1451,-12.78,36.84,14.34
3.8818,-10.597,1.3757,0.99388,-0.081856,-1.4859,-12.6,36.9,14.64
3.8682,-11.754,1.3893,1.2984,-0.22083,-1.6307,-12.12,37.02,14.94
4.7807,-14.356,1.4574,1.565,-0.4725,-1.8002,-11.7,37.14,15.42
5.4618,-15.568,1.58,1.5525,-0.80817,-1.9355,-11.64,37.14,15.48
5.8159,-15.895,1.8932,1.4151,-1.3427,-2.0827,-11.82,36.96,15.48
4.9578,-14.369,1.8387,1.1756,-1.9386,-2.3118,-12.42,36.66,15.36
4.2632,-12.544,0.89894,1.0415,-1.9761,-2.4743,-12.84,36.54,15.42
3.4868,-11.577,1.1032,0.97433,-2.142,-2.4926,-13.44,36.3,15.24
1.5527,-8.9349,1.076,0.95478,-2.1353,-2.5815,-15.12,35.46,14.94
1.1032,-8.145,0.96704,1.0259,-1.6845,-2.6139,-16.26,35.4,14.58
0.84446,-7.5457,0.8036,1.0996,-1.2281,-2.6649,-17.58,35.1,14.28
1.2258,-7.246,1.1577,1.1521,-0.64904,-2.6567,-20.16,35.16,12.84
1.2531,-7.1507,1.0488,1.1075,-0.5681,-2.6206,-21.18,35.16,11.88
1.2803,-7.1507,1.1032,1.0589,-0.53726,-2.5632,-22.5,35.1,10.98
1.1713,-7.0553,1.1986,0.93829,-0.45632,-2.4459,-23.52,35.1,9.96
0.85808,-7.0553,1.2531,0.73915,-0.31582,-2.193,-25.26,34.86,8.28
0.70826,-7.0009,1.3757,0.57299,-0.25717,-1.9627,-26.22,34.62,7.8
0.58567,-7.1507,1.4574,0.38882,-0.19334,-1.6509,-27.18,34.32,7.26
0.53119,-7.5048,1.362,0.13897,-0.093462,-1.1258,-28.92,33.48,6.36
0.44947,-8.0224,1.3757,-0.049786,-0.0042761,-0.73304,-29.64,33.24,6.06
0.55843,-8.7306,1.58,-0.22816,0.10873,-0.31215,-30.18,32.94,5.7
0.54481,-9.4253,1.58,-0.39676,0.27611,0.12675,-30.78,32.82,5.4
0.58567,-10.283,1.471,-0.52779,0.50274,0.60842,-31.2,31.92,4.8
0.7355,-11.196,1.4846,-0.74006,0.69669,1.1564,-31.32,31.5,4.8
1.4438,-12.435,1.6344,-0.99602,0.84116,1.6948,-31.26,30.42,5.52
2.1112,-12.286,1.8387,-1.2993,1.0125,2.4942,-31.14,30.06,5.7
2.7104,-11.809,1.7979,-1.3341,1.0186,2.6954,-31.08,29.7,6.0
4.1133,-10.869,1.1577,-1.336,0.85979,2.9868,-31.14,29.64,5.88
5.5435,-11.727,0.20431,-1.3861,0.52779,2.9483,-30.72,29.94,5.58
6.1564,-13.688,0.095342,-1.4835,-0.36805,2.5812,-30.54,30.42,5.22
4.8488,-15.391,1.1577,-1.617,-0.68264,2.3711,-30.06,31.38,4.92
2.7513,-15.377,2.0567,-1.6313,-1.1652,1.8289,-30.0,31.86,4.92
1.4165,-14.628,2.3427,-1.532,-1.0088,1.7333,-29.82,32.34,5.16
0.054481,-10.351,1.4438,-1.007,0.51221,1.5296,-29.34,33.06,5.76
0.76274,-8.2403,0.81722,-0.61331,1.7312,1.4694,-28.92,33.42,6.36
3.2144,-6.5105,0.1362,-0.31887,2.4994,1.4349,-28.38,33.66,6.96
3.9771,-6.6331,0.39499,-0.16524,2.6802,1.3726,-27.42,34.32,8.1
4.5764,-7.1098,0.99429,-0.093768,2.6096,1.2889,-27.0,34.5,8.82
4.8352,-7.3005,1.2803,-0.11423,2.4978,1.2776,-26.58,34.56,9.42
5.3528,-7.5729,1.6344,-0.26542,1.7901,1.285,-26.16,34.56,10.2
5.7069,-7.6955,1.757,-0.4554,1.0785,1.3039,-25.2,34.5,11.88
5.6252,-7.5457,1.4438,-0.65301,0.36621,1.335,-24.6,34.38,12.72
5.1349,-7.2869,1.2122,-0.81459,-0.06689,1.3619,-23.94,34.38,13.44
4.5628,-7.4095,1.1169,-0.95997,-0.17868,1.3702,-22.38,34.26,14.4
4.3858,-7.7636,1.185,-0.98105,-0.000305,1.3799,-21.48,34.38,14.7
4.4402,-8.0496,1.185,-0.967,0.27855,1.4083,-20.58,34.44,15.06
5.3528,-9.8611,1.3076,-0.92943,0.50427,1.3857,-18.84,35.1,15.24
6.3471,-11.128,1.4301,-0.905,0.58796,1.2984,-18.24,35.34,15.18
7.3414,-12.422,2.0839,-0.86987,0.44227,1.0382,-17.7,35.52,15.24
6.5786,-12.122,2.3972,-0.62003,-0.047037,0.36011,-16.32,36.0,15.42
5.3528,-12.449,2.5061,-0.46395,-0.19151,0.18937,-15.72,36.18,15.66
5.0804,-13.089,1.9886,0.10201,-0.1405,-0.26206,-15.06,36.36,16.02
5.4345,-12.326,1.4165,0.46212,0.036346,-0.65668,-14.22,36.42,16.38
5.0668,-10.447,1.4574,0.82497,0.048564,-1.0861,-13.92,36.36,16.56
4.0861,-9.3436,1.6753,1.3671,-0.18418,-1.398,-13.38,36.36,16.74
4.0044,-10.828,1.5391,1.5928,-0.45326,-1.4725,-13.32,36.3,16.86
4.7126,-12.871,1.5527,1.6435,-0.65301,-1.4939,-13.26,36.24,16.8
5.1621,-14.07,1.6344,1.5485,-1.4099,-1.5418,-13.38,36.18,16.62
5.8567,-15.813,1.8387,1.3042,-2.0088,-1.6829,-13.86,35.7,16.2
5.3528,-15.05,1.8932,1.0311,-2.4257,-1.8573,-14.1,35.58,15.9
3.5822,-12.708,1.3484,0.83047,-2.4202,-2.0708,-14.46,35.28,15.6
2.7513,-11.182,1.0896,0.64843,-2.1582,-2.3042,-15.6,34.74,15.18
1.7706,-9.5751,1.5663,0.62614,-2.3124,-2.3353,-16.32,34.26,14.88
0.76274,-8.6353,1.2395,0.76511,-1.5217,-2.4441,-17.34,33.84,14.52
0.57205,-7.7636,0.9398,0.9166,-0.89431,-2.5259,-19.26,33.12,13.68
0.8717,-7.5865,0.91256,1.0263,-0.42425,-2.5806,-20.4,33.0,13.26
1.4165,-7.5457,1.2803,1.0699,-0.23671,-2.6249,-22.62,32.58,11.82
1.4165,-7.6002,1.3076,1.055,-0.10476,-2.5711,-23.64,32.46,11.04
1.4165,-7.7636,1.3484,0.99418,-0.062308,-2.4893,-24.54,32.28,10.26
1.3212,-7.7772,1.5119,0.89889,-0.08827,-2.3424,-25.26,32.22,9.66
1.2258,-7.8453,1.5119,0.76236,-0.14661,-2.1386,-25.98,31.98,9.18
0.77636,-8.1177,1.5936,0.59865,-0.15394,-1.8918,-27.54,31.32,8.22
0.69464,-8.2131,1.5391,0.43585,-0.098349,-1.4279,-28.32,30.9,7.74
0.6674,-8.431,1.6208,0.26634,-0.06353,-1.2501,-29.04,30.42,7.32
0.57205,-8.8805,1.7162,-0.0012217,0.037568,-0.63102,-30.3,29.88,6.42
0.38137,-9.2618,1.6889,-0.071777,0.089492,-0.40745,-30.72,29.52,6.06
0.38137,-9.4798,1.6344,-0.2587,0.34086,0.32315,-30.96,29.04,5.76
0.61292,-10.828,1.5119,-0.43524,0.51007,0.89278,-31.02,28.2,5.52
1.1305,-11.741,1.6072,-0.67501,0.60873,1.4884,-30.96,27.9,5.52
2.1929,-11.972,1.7162,-0.90378,0.69119,2.0375,-30.6,27.36,5.7
3.2144,-10.828,1.5119,-1.0302,0.72968,2.503,-30.54,27.3,5.88
3.6775,-10.311,1.2803,-1.0431,0.63286,2.7526,-30.42,27.18,5.76
4.7263,-10.924,0.40861,-1.0684,0.29749,2.8643,-30.24,27.54,5.1
4.8352,-12.354,0.27241,-1.1603,-0.18204,2.8048,-30.18,27.9,4.68
4.9578,-14.097,0.40861,-1.3036,-0.71532,2.6808,-30.0,28.32,4.38
3.7592,-15.405,1.8387,-1.4514,-1.2318,2.2547,-29.52,29.22,4.26
2.5061,-14.301,2.1248,-1.4264,-1.2132,2.1163,-29.46,29.58,4.56
1.8524,-13.021,1.7706,-1.0867,-0.33231,1.8002,-29.22,29.94,4.86
1.58,-8.8124,0.64016,-0.78038,0.67287,1.5867,-28.38,30.9,6.0
2.0567,-7.2052,0.17706,-0.50274,1.5076,1.4364,-27.96,31.2,6.48
2.5742,-6.5378,-0.040861,-0.21258,2.0788,1.285,-26.82,31.56,7.92
3.6366,-6.565,0.70826,-0.092241,2.2352,1.2031,-26.22,31.74,8.58
4.1814,-6.8374,1.1577,-0.061697,2.2345,1.1524,-25.62,31.8,9.24
4.4539,-7.0281,1.3212,-0.087965,1.9994,1.1261,-25.26,31.86,10.08
5.2438,-7.4503,1.5255,-0.17471,1.5339,1.1442,-24.0,32.1,12.12
5.5571,-7.641,1.471,-0.31551,0.93982,1.164,-23.22,32.22,13.2
5.7886,-7.6002,1.2803,-0.45723,0.34575,1.189,-22.5,32.34,13.98
5.4754,-7.4231,0.91256,-0.56963,-0.094073,1.1814,-21.06,32.58,15.24
5.2166,-7.4367,0.85808,-0.63163,-0.37507,1.1832,-19.98,32.76,15.42
4.9987,-7.8453,0.85808,-0.63041,-0.38637,1.1759,-18.96,33.3,15.54
5.094,-9.221,0.83084,-0.63408,-0.25962,1.1515,-17.46,33.72,15.6
5.4754,-10.365,0.85808,-0.65851,-0.13103,1.1035,-16.74,34.2,15.78
6.0474,-11.795,0.96704,-0.68325,-0.023824,0.94715,-16.08,34.32,15.66
6.2109,-12.381,1.58,-0.64477,0.043982,0.4554,-14.94,35.1,16.02
4.8761,-12.027,1.8387,-0.47922,0.046426,0.13073,-14.34,35.4,16.14
4.413,-12.354,1.7979,-0.20983,0.17318,-0.069333,-13.68,35.52,16.32
5.2438,-12.817,1.2258,0.090408,0.40409,-0.30849,-12.6,35.58,16.5
6.0066,-11.509,1.2803,0.39462,0.49052,-0.63194,-12.18,35.64,16.74
5.8023,-9.9292,1.5391,0.69486,0.22144,-1.0143,-11.82,35.7,16.86
4.8488,-10.447,1.7025,1.0718,-0.55344,-1.2281,-11.28,35.88,16.8
4.9033,-11.536,1.6753,1.182,-1.1374,-1.31,-11.34,35.94,16.86
5.1894,-13.007,1.6344,1.1353,-1.7504,-1.3879,-11.46,35.82,16.86
5.6661,-15.514,1.7979,0.96883,-2.3149,-1.5482,-11.64,35.88,16.5
5.0259,-15.323,1.9068,0.75381,-2.6353,-1.7761,-11.94,35.52,16.26
4.2223,-14.533,1.866,0.58154,-2.5589,-1.9664,-12.24,35.52,16.08
2.9011,-11.782,1.2803,0.49816,-2.2303,-2.1573,-13.32,34.98,15.42
1.8932,-10.297,1.4438,0.52534,-1.7287,-2.3949,-14.1,34.62,15.18
1.4846,-9.1801,1.2803,0.64324,-1.2657,-2.5275,-15.0,34.32,15.06
1.1441,-7.9951,0.99429,0.79535,-0.81734,-2.6438,-17.04,33.72,14.22
1.2803,-7.7364,1.1441,0.90133,-0.52076,-2.741,-18.18,33.36,13.74
1.362,-7.641,1.1305,0.97464,-0.35827,-2.7868,-19.26,33.06,13.14
1.1713,-7.5593,1.1986,1.0055,-0.21228,-2.7581,-21.3,32.46,11.76
1.0624,-7.5321,1.4165,0.98746,-0.014966,-2.6618,-22.08,32.16,11.1
1.0215,-7.4912,1.4301,0.93157,0.043982,-2.4908,-22.92,31.86,10.38
1.1305,-7.4095,1.4574,0.89706,0.050702,-2.3928,-23.76,31.56,9.84
1.0896,-7.5048,1.4846,0.71074,-0.010996,-2.032,-25.14,30.72,8.7
1.0215,-7.6683,1.2803,0.54398,-0.04948,-1.7468,-25.98,30.06,7.92
0.7355,-8.0632,1.471,0.35003,-0.07025,-1.2511,-27.3,29.1,6.9
0.54481,-8.3629,1.5391,0.05681,-0.0067195,-0.83872,-27.78,28.56,6.3
0.40861,-8.826,1.5391,-0.14142,0.095906,-0.36377,-28.32,28.02,5.82
0.38137,-9.2346,1.5936,-0.21869,0.1686,-0.11881,-28.8,27.54,5.46
0.49033,-10.093,1.4438,-0.46029,0.50702,0.64202,-29.16,26.34,4.8
0.76274,-11.087,1.4165,-0.71685,0.73854,1.2178,-29.22,25.86,4.68
1.1713,-11.809,1.4165,-0.95997,0.89278,1.7489,-29.34,25.38,4.62
2.4653,-11.387,1.6753,-1.1634,1.0098,2.2797,-29.4,24.66,4.68
3.5958,-10.351,1.2803,-1.2391,0.99876,2.6356,-29.28,24.48,4.56
4.127,-10.025,0.91256,-1.2431,0.75992,2.853,-29.34,24.48,4.26
4.9714,-11.822,0.28603,-1.3341,0.35094,2.8714,-29.46,25.08,3.6
5.5162,-14.274,0.28603,-1.4557,-0.25076,2.8167,-29.4,25.5,3.3
5.38,-15.636,0.76274,-1.6383,-1.0641,2.4099,-29.7,26.46,2.94
2.8739,-14.86,2.1656,-1.5824,-1.1936,2.1521,-29.76,26.94,2.94
1.8387,-12.898,2.1248,-1.3082,-0.70402,1.9407,-29.7,27.54,3.06
1.6072,-11.291,1.6072,-1.1267,-0.25443,1.8185,-29.46,28.08,3.54
2.0294,-7.355,0.21793,-0.60781,1.3189,1.5058,-28.92,28.86,4.62
2.4925,-6.6059,0.21793,-0.34606,1.9377,1.3421,-28.62,29.22,5.22
2.8467,-6.3471,0.1362,-0.17501,2.1762,1.2559,-28.2,29.52,5.88
3.5822,-6.8647,1.2395,-0.023518,2.35,1.1655,-27.54,30.0,7.14
3.909,-7.0553,1.4165,-0.032376,2.2336,1.1478,-27.24,30.24,7.98
4.5764,-7.4776,1.6753,-0.076664,2.0727,1.1472,-26.82,30.24,8.7
5.1485,-7.6819,1.6344,-0.29535,1.299,1.1753,-25.98,30.18,10.2
5.38,-7.6002,1.4982,-0.4667,0.71716,1.2004,-25.5,30.18,10.86
5.2302,-7.355,1.2258,-0.62033,0.28466,1.2214,-24.66,30.24,11.46
5.0259,-7.3005,1.0079,-0.73121,0.055894,1.2419,-23.16,30.54,12.42
4.9033,-7.4776,1.1305,-0.81581,-0.079412,1.2703,-22.14,30.48,12.48
4.9578,-7.8589,1.185,-0.83719,-0.079412,1.2788,-21.3,30.84,12.42
