Ax,Ay,Az,Gx,Gy,Gz,Mx,My,Mz
1.3484,-9.902,-2.942,2.4764,0.21014,1.8433,-4.8,24.18,20.34
1.6889,-10.106,-3.6639,2.2813,1.4154,1.7208,-2.7,25.8,18.78
2.2201,-10.379,-4.2904,1.952,2.055,1.7568,-1.62,26.46,17.94
2.942,-10.706,-4.6173,1.7562,2.4285,1.8561,-0.54,27.06,16.98
4.2223,-11.264,-4.9578,1.5782,2.4624,1.9859,1.68,28.2,15.3
4.9987,-11.523,-5.6797,1.4096,2.1533,2.0604,2.94,28.74,14.34
5.1894,-11.264,-6.2517,1.2507,1.6851,2.0369,4.14,29.1,13.44
5.5162,-10.12,-7.355,1.0996,1.2171,1.905,6.3,29.7,11.64
5.7886,-9.616,-7.7636,0.96395,0.40225,1.5327,7.38,29.82,10.86
5.9521,-9.4389,-8.1177,0.84086,-0.26542,1.2269,8.64,30.06,10.2
5.6252,-9.8611,-8.1041,0.64446,-0.89797,0.90286,10.44,30.24,8.52
5.0123,-10.215,-7.641,0.3091,-1.2147,0.59956,11.16,30.36,7.74
4.0861,-10.665,-7.0281,-0.089492,-1.0638,0.30849,12.06,30.42,7.08
3.337,-12.258,-7.246,-0.51252,-0.50763,0.015272,13.32,30.6,5.82
3.5685,-12.286,-6.9055,-1.2205,0.57055,-0.4948,13.74,30.78,5.34
4.3721,-12.49,-6.1019,-1.5369,0.88942,-0.84055,14.16,30.96,4.92
5.5299,-13.321,-4.699,-1.8118,0.8601,-1.204,14.7,31.14,4.14
6.0883,-13.988,-3.9635,-1.9682,0.53023,-1.5366,14.76,31.26,4.08
6.1292,-14.642,-3.5685,-2.0589,0.058338,-1.8182,14.88,31.32,4.02
5.8976,-15.8,-3.0918,-2.1389,-0.4218,-2.047,14.7,31.62,4.26
5.2302,-15.895,-2.7649,-2.4047,-0.76205,-2.3369,14.22,31.92,4.44
4.413,-15.132,-2.3291,-2.5714,-0.59437,-2.5479,13.68,32.22,4.86
3.5413,-13.375,-1.8115,-2.6625,-0.27519,-2.8039,12.9,32.52,5.4
2.942,-11.291,-1.3212,-2.6615,0.018937,-3.0794,10.98,32.94,7.02
2.9829,-10.501,-1.1305,-2.594,0.22724,-3.3298,9.6,33.24,7.92
2.9965,-10.229,-1.0215,-2.4896,0.32376,-3.4993,8.1,33.54,8.88
3.1463,-10.256,-0.54481,-2.3943,0.28986,-3.587,4.74,33.78,10.98
3.0918,-10.433,-0.31327,-2.2626,0.18906,-3.5812,2.94,33.72,12.36
2.9965,-10.474,-0.29965,-2.0983,0.011301,-3.3558,1.08,33.66,13.5
2.5742,-10.188,-0.1362,-2.0125,-0.011606,-3.0708,-2.58,33.24,16.14
2.3155,-9.9429,0.027241,-1.9019,0.043371,-2.7263,-4.68,32.82,17.46
1.7706,-9.6977,0.24517,-1.8069,0.16921,-2.3265,-6.48,32.28,18.66
0.35413,-9.0848,1.2803,-1.5751,0.54062,-1.7,-10.2,30.72,21.0
-0.12258,-9.2482,1.7706,-1.3014,0.80604,-1.2419,-11.82,29.76,22.02
-0.35413,-9.6023,1.9477,-0.98563,0.95967,-0.74526,-13.38,28.74,22.98
-0.14982,-9.1529,1.7298,-0.6689,0.94745,-0.23885,-16.08,26.7,24.66
0.28603,-8.0224,1.3757,-0.27886,0.77549,0.2868,-17.28,25.68,25.26
0.49033,-8.0224,1.471,0.17654,0.37385,0.75808,-18.42,24.48,25.92
0.40861,-10.392,2.0158,0.64843,-0.15485,1.4639,-19.98,22.62,26.88
0.64016,-11.346,1.9205,1.2285,-0.1576,1.9108,-20.52,21.96,27.06
1.2939,-12.204,1.8251,1.635,-0.059865,2.3329,-21.0,21.42,27.24
3.3234,-12.844,0.8036,2.0369,-0.083689,2.6325,-21.54,20.7,27.3
4.1814,-13.362,0.19068,2.4294,-0.37354,2.7862,-21.66,20.7,27.18
4.7671,-13.866,-0.49033,2.748,-0.85277,2.8201,-21.72,20.88,27.0
4.6037,-14.547,-1.4846,2.9554,-1.3689,2.78,-21.12,21.96,26.28
4.3449,-14.315,-1.8932,2.9798,-1.8063,2.682,-20.82,22.68,25.92
3.732,-13.076,-2.7377,2.872,-1.7342,2.6078,-20.34,23.64,25.44
2.6151,-11.4,-3.3506,2.6994,-1.3268,2.522,-18.72,25.68,24.36
1.7706,-10.379,-3.3506,2.5143,-0.64477,2.4089,-17.7,26.7,23.76
1.3484,-9.9973,-3.1872,2.3289,0.20617,2.2947,-16.5,27.9,23.16
1.7979,-9.8339,-3.5549,2.0357,1.4334,2.2272,-13.86,30.36,21.72
2.5061,-10.12,-4.0316,1.8347,2.0046,2.2422,-12.36,31.5,20.88
2.9148,-10.297,-4.1406,1.6118,2.3686,2.3393,-10.86,32.52,20.04
4.3585,-11.128,-4.4402,1.4368,2.4462,2.4517,-7.86,34.44,18.12
4.9714,-11.441,-4.9442,1.2758,2.2364,2.5143,-6.36,35.28,17.22
5.38,-11.25,-5.38,1.1102,1.8751,2.4942,-4.8,36.12,16.38
5.775,-10.093,-6.3198,0.94654,1.5101,2.3677,-1.56,37.32,14.64
6.0611,-9.4798,-6.7148,0.80207,0.88453,1.9581,-0.06,37.86,13.74
6.565,-9.1393,-7.069,0.77183,0.60995,1.7868,1.44,38.16,12.9
7.0553,-9.3708,-7.4367,0.60751,-0.34056,1.2,4.2,39.0,11.28
6.5378,-9.6704,-7.0962,0.36591,-0.84696,0.79596,5.28,39.24,10.5
5.6797,-9.9973,-6.7012,0.05681,-0.98563,0.38026,6.36,39.42,9.6
5.1894,-10.474,-6.5786,-0.26389,-0.69333,-0.058948,7.38,39.54,8.88
4.4266,-11.877,-6.2926,-0.92638,0.22785,-0.74495,9.0,39.6,7.74
4.9987,-12.258,-5.9521,-1.2452,0.56566,-1.1463,9.6,39.6,7.26
6.0066,-13.838,-4.7126,-1.5516,0.60476,-1.4954,10.56,39.66,6.96
6.3879,-14.533,-4.0997,-1.7495,0.36957,-1.8063,10.92,39.54,6.96
6.6331,-15.445,-3.7047,-1.8555,-0.024435,-2.087,11.04,39.36,6.96
6.1292,-16.971,-3.0373,-1.9606,-0.405,-2.328,10.38,39.12,7.74
6.1292,-16.971,-3.0373,-2.029,-0.5342,-2.441,10.38,39.12,7.74
4.1814,-14.71,-2.2882,-2.3253,-0.47403,-3.0299,9.42,38.64,8.76
3.5822,-13.007,-1.8251,-2.3839,-0.25259,-3.4236,8.4,38.22,9.6
3.2553,-11.605,-1.4438,-2.3225,-0.13958,-3.8243,7.56,37.92,10.44
2.9692,-10.896,-1.3757,-2.2605,-0.088575,-4.0937,6.6,37.44,11.34
2.833,-10.283,-1.3348,-2.1854,-0.10537,-4.2415,3.78,36.42,13.44
2.9148,-10.188,-1.185,-2.0751,-0.16432,-4.2641,2.1,35.88,14.58
2.9284,-10.951,-0.76274,-1.9545,-0.29566,-4.1603,-1.38,34.68,16.92
2.8875,-11.291,-0.57205,-1.8555,-0.41692,-3.9441,-2.94,33.84,17.88
2.7922,-11.441,-0.46309,-1.7883,-0.54275,-3.4318,-4.68,33.0,19.02
2.4517,-10.992,-0.10896,-1.7746,-0.56749,-2.9642,-7.92,31.2,20.82
1.7162,-10.379,0.21793,-1.773,-0.5061,-2.4441,-9.42,30.12,21.66
0.31327,-9.6432,1.6344,-1.7013,-0.45571,-1.9184,-12.06,27.78,23.46
-0.28603,-9.6568,2.1248,-1.368,-0.27794,-1.1078,-13.2,26.58,24.06
-0.61292,-9.7249,2.2065,-1.0754,-0.058643,-0.52351,-14.16,25.38,24.6
-0.92618,-8.4174,2.1112,-0.72662,0.18509,0.051313,-16.02,23.16,25.56
-0.69464,-7.9951,2.2746,-0.28986,0.36041,0.57635,-16.5,22.14,26.16
-0.35413,-8.8941,2.6968,0.17104,0.37538,1.0482,-17.04,21.18,26.52
0.35413,-11.141,2.9148,0.80665,0.42302,1.7098,-17.52,19.38,27.12
1.2531,-12.258,2.6015,1.2679,0.47495,2.1472,-17.58,18.54,27.42
2.2882,-12.694,2.0158,1.7269,0.3882,2.4954,-17.76,18.06,27.72
3.7728,-13.579,1.0488,2.2431,0.057727,2.7168,-17.76,17.52,27.9
4.3858,-14.506,0.23155,2.667,-0.39248,2.8366,-17.7,17.64,27.84
4.3585,-14.887,-0.35413,2.937,-0.78924,2.8866,-17.46,17.82,27.6
3.9227,-14.192,-1.5936,3.0617,-1.0205,2.8781,-16.8,18.96,27.18
3.5958,-12.939,-2.4108,2.9853,-1.044,2.7892,-16.5,19.74,26.82
3.337,-11.7,-3.1054,2.865,-0.91874,2.6744,-15.96,20.82,26.34
2.4108,-9.9565,-3.1599,2.6967,-0.63683,2.5091,-14.7,22.74,25.56
1.9205,-9.5479,-2.9556,2.532,-0.21716,2.3509,-14.04,23.82,24.72
1.6344,-9.4389,-2.8194,2.3781,0.33689,2.2462,-13.02,25.14,24.12
2.0294,-10.351,-3.7184,2.2129,0.95051,2.2248,-10.68,27.48,22.68
2.3836,-10.665,-4.0725,1.9429,1.7898,2.3476,-9.48,28.68,21.9
3.2553,-11.25,-4.5492,1.8592,1.9768,2.4199,-8.1,29.76,20.88
4.6309,-12.027,-4.9442,1.5895,2.0717,2.6484,-5.52,31.62,19.02
5.094,-12.054,-5.5571,1.4077,1.7694,2.6658,-4.08,32.4,18.12
5.4345,-11.7,-6.17,1.212,1.3809,2.5476,-2.7,33.18,17.16
6.2109,-10.351,-7.1507,1.0498,0.95387,2.288,-0.12,34.32,15.36
6.4833,-9.9837,-7.7364,0.89767,0.12278,1.6945,1.26,34.74,14.4
6.7693,-9.8475,-8.0905,0.82192,-0.18662,1.4694,2.58,34.98,13.44
5.9657,-10.174,-7.5184,0.60567,-0.73976,0.99968,5.22,35.7,11.52
5.0531,-10.746,-6.851,0.10599,-0.97922,0.33201,6.48,35.88,10.74
4.4402,-11.877,-6.8919,-0.27917,-0.60812,-0.074831,7.38,35.88,9.96
4.2632,-12.803,-7.1371,-0.79687,0.040623,-0.50396,8.22,36.06,9.36
4.2632,-12.803,-7.1371,-1.274,0.64782,-0.94409,8.22,36.06,9.36
5.0259,-12.994,-5.1213,-1.7871,1.0101,-1.5467,8.94,36.12,8.82
5.1349,-13.116,-4.5901,-1.9755,0.93859,-1.9331,9.42,36.18,8.64
5.4345,-13.729,-3.8273,-2.0812,0.69425,-2.2584,9.9,36.24,8.7
5.5707,-14.41,-3.6366,-2.1634,0.33414,-2.5177,10.08,36.24,8.7
5.38,-15.636,-3.0237,-2.2822,-0.027184,-2.7184,9.6,36.06,9.6
4.9169,-15.323,-2.547,-2.4166,-0.26328,-2.8567,9.06,36.0,10.14
4.4675,-14.547,-2.0839,-2.5143,-0.33964,-3.0348,8.4,35.82,10.86
3.9635,-13.484,-1.6481,-2.5293,-0.3375,-3.2464,7.5,35.58,11.82
3.2689,-11.536,-1.2803,-2.445,-0.29047,-3.5794,4.98,34.98,13.8
3.1872,-11.101,-1.1577,-2.3485,-0.24618,-3.7409,3.48,34.44,15.0
3.0101,-10.896,-0.85808,-2.2694,-0.23732,-3.8243,0.42,33.54,17.46
2.9011,-10.869,-0.6674,-2.1716,-0.23335,-3.8204,-1.38,32.94,18.6
2.8058,-10.828,-0.49033,-2.0858,-0.27061,-3.7162,-3.18,32.16,19.86
2.5879,-10.338,-0.38137,-1.9358,-0.27214,-3.3854,-6.66,30.42,21.9
2.5606,-10.12,-0.35413,-1.8042,-0.28863,-3.0446,-8.34,29.4,22.92
2.4244,-10.025,-0.21793,-1.6784,-0.29902,-2.6191,-10.14,28.38,23.94
1.6753,-9.6296,0.43585,-1.5632,-0.33384,-2.1393,-12.96,26.04,25.68
1.0215,-9.1801,1.1032,-1.4294,-0.39706,-1.6386,-14.16,24.78,26.4
-0.068102,-8.7306,1.4438,-1.0321,-0.40653,-0.86499,-16.26,22.26,27.6
-0.6674,-8.5808,1.4438,-0.86896,-0.33567,-0.57941,-16.98,21.0,28.26
-0.81722,-8.3493,1.4438,-0.34392,0.0562,0.26512,-17.52,19.98,28.8
-0.70826,-8.0632,2.0975,0.047647,0.22022,0.74464,-18.6,17.94,29.58
-0.44947,-9.3027,2.4108,0.44043,0.28436,1.2074,-19.02,16.92,29.7
0.054481,-11.223,2.7377,0.79474,0.43433,1.6597,-19.26,15.96,29.94
1.7843,-12.217,2.4108,1.4734,0.62736,2.3314,-19.62,14.88,30.3
3.3642,-13.293,1.5119,1.7086,0.60018,2.5256,-19.68,14.7,30.54
4.1406,-13.974,1.076,2.4798,0.14569,2.9575,-19.62,14.64,30.48
5.1894,-15.35,-0.21793,2.8631,-0.37354,3.0928,-19.32,15.24,30.3
5.1213,-15.364,-0.76274,3.1176,-0.85491,3.1166,-19.2,15.72,30.0
4.8625,-14.71,-2.152,3.1814,-1.3531,2.9413,-18.36,17.58,29.22
4.0725,-12.122,-3.1054,3.0846,-1.4988,2.7257,-17.88,18.54,28.86
3.2553,-10.924,-3.3097,3.0079,-1.4673,2.6072,-17.34,19.68,28.26
2.6696,-10.379,-3.1872,2.8133,-1.1658,2.3601,-16.74,20.82,27.84
1.3484,-9.2482,-2.7649,2.5284,-0.19731,2.0446,-14.94,23.46,26.76
1.2531,-9.3163,-3.1599,2.3488,0.59773,1.9145,-13.8,24.78,26.22
1.5255,-9.7385,-3.732,2.1225,1.4166,1.876,-12.6,26.16,25.5
2.8603,-10.896,-4.4539,1.8155,2.2969,2.025,-10.02,28.86,23.7
3.3778,-11.427,-4.6718,1.5986,2.5033,2.1976,-8.7,29.94,22.74
4.2904,-12.149,-5.2302,1.4676,2.4902,2.2743,-7.44,31.08,21.78
4.6309,-11.754,-5.7614,1.0544,2.2904,2.3909,-4.68,32.82,19.86
4.699,-11.101,-6.1973,0.85765,2.1591,2.3201,-3.24,33.6,19.02
5.7886,-10.188,-7.4095,0.74556,1.9325,2.1502,-0.9,34.68,17.22
6.4288,-10.147,-7.8998,0.64599,1.0669,1.7611,0.3,35.1,16.5
7.1915,-10.12,-8.0905,0.38607,0.20586,1.4361,2.4,36.0,14.82
6.96,-9.9429,-7.355,0.13561,-0.52229,1.0727,3.12,36.36,14.04
5.8295,-9.902,-6.7421,-0.0061087,-0.71441,0.85002,4.08,36.72,13.32
4.4402,-11.06,-6.6195,-0.4328,-0.51129,0.15241,5.46,37.26,12.3
4.3585,-11.237,-6.3471,-0.82222,0.12339,-0.33201,6.0,37.38,11.88
5.1621,-11.632,-5.5299,-1.2627,0.86468,-1.011,6.6,37.38,11.7
5.8704,-12.64,-5.1213,-1.4945,0.88362,-1.3803,7.08,37.5,11.52
6.8919,-13.988,-4.018,-1.668,0.562,-1.6973,7.74,37.68,11.7
7.0281,-14.696,-3.4732,-1.7581,0.052229,-1.967,7.74,37.62,12.06
7.0553,-15.159,-3.1872,-1.806,-0.49847,-2.1759,7.8,37.56,12.54
6.3062,-15.963,-2.7513,-1.9187,-0.95478,-2.3537,7.62,37.32,13.56
5.3664,-15.173,-2.4517,-2.1341,-1.0458,-2.7187,7.2,37.26,14.22
4.0861,-12.926,-1.6617,-2.1863,-0.94501,-2.8564,6.18,36.48,15.84
3.4732,-11.727,-1.4846,-2.2214,-0.58826,-3.4187,5.64,36.18,16.86
3.3097,-10.869,-1.3076,-2.1848,-0.42486,-3.7605,4.74,35.64,17.76
3.3915,-10.706,-1.0624,-2.124,-0.33842,-4.0326,2.4,34.68,19.56
3.337,-11.06,-0.6674,-2.0278,-0.33964,-4.2021,1.14,34.14,20.58
3.0646,-11.387,0.095342,-1.8357,-0.42791,-4.2458,-1.56,32.88,22.56
2.3836,-11.291,0.43585,-1.5241,-0.6521,-3.9831,-3.06,32.1,23.46
1.6344,-10.869,0.54481,-1.3757,-0.68875,-3.5552,-4.44,31.2,24.42
-0.40861,-9.0575,0.84446,-1.2428,-0.5568,-2.967,-6.96,29.22,26.1
-0.96704,-8.4174,0.96704,-1.0461,-0.32284,-2.2883,-8.22,28.32,26.88
-1.0215,-8.1177,1.1169,-0.8207,-0.20433,-1.5715,-9.54,27.3,27.78
-0.50395,-8.9622,1.0624,-0.5849,-0.26298,-0.86987,-11.7,25.08,29.04
0.027241,-9.7794,1.076,-0.31093,-0.60231,0.12584,-12.54,24.24,29.64
0.14982,-10.379,1.2939,-0.19181,-0.70219,0.66951,-13.44,23.34,30.12
0.38137,-10.12,1.866,-0.018326,-0.57238,1.0159,-14.64,21.6,31.14
0.34051,-10.529,2.2474,0.26634,-0.33628,1.2107,-15.06,20.88,31.56
0.53119,-11.25,2.3836,0.52076,-0.039706,1.3305,-15.36,20.1,31.98
1.3212,-11.741,2.9965,0.7648,0.26114,1.4013,-15.48,18.96,32.58
1.7706,-12.272,3.0237,1.2746,0.54581,1.4688,-15.36,18.6,32.88
2.9284,-14.342,2.3427,1.4426,0.54795,1.471,-15.36,18.42,32.94
3.2825,-15.037,1.7979,1.7336,0.50549,1.5269,-15.24,18.48,32.94
3.4868,-15.255,1.58,2.0116,0.66004,1.8066,-15.0,18.78,32.88
3.9771,-13.797,0.32689,2.1176,0.83811,2.051,-14.46,19.86,32.46
4.2768,-12.313,-0.43585,2.2165,0.93585,2.2034,-14.16,20.64,32.22
4.6309,-10.311,-1.5119,2.4013,0.66187,2.2049,-13.74,21.96,31.32
4.5901,-9.5615,-1.7843,2.4651,0.46487,2.1695,-13.44,22.74,30.78
4.413,-9.3844,-1.7979,2.5543,0.032987,2.0901,-13.2,23.58,30.36
3.7047,-9.0848,-2.3155,2.6148,-0.39126,2.0036,-12.0,25.62,29.16
3.5685,-9.1393,-2.7104,2.6252,-0.38729,2.0265,-11.46,26.58,28.56
3.5277,-9.3708,-3.1463,2.6331,-0.20678,2.0598,-10.86,27.78,27.84
4.4402,-10.256,-4.2223,2.6371,0.22052,2.0467,-9.06,30.0,25.86
5.2302,-11.128,-5.094,2.5348,0.37477,1.9374,-8.1,30.96,25.02
5.5571,-11.509,-5.3528,2.3072,0.37996,1.7086,-7.2,31.98,23.76
5.8431,-11.645,-5.6252,2.0443,0.35705,1.4114,-6.18,32.88,22.68
6.0883,-10.842,-6.5378,1.8534,0.36285,1.0311,-4.08,34.44,20.34
6.2926,-10.774,-6.9736,1.7061,0.23396,0.59162,-3.0,35.16,19.08
6.5241,-10.774,-7.5048,1.4539,-0.10904,-0.029932,-1.86,36.0,17.82
5.6661,-10.474,-7.6002,1.0091,-0.6463,-0.30879,0.3,37.38,15.42
4.9987,-10.474,-7.3141,0.82956,-0.76297,-0.41386,1.32,38.04,14.16
4.5356,-11.019,-6.8374,0.27794,-0.97402,-0.59223,2.22,38.52,13.02
4.3177,-12.381,-7.3822,-0.16493,-1.1347,-0.61636,3.42,39.3,10.68
3.7728,-12.803,-6.0747,-0.70647,-1.0999,-0.54275,3.72,39.72,9.66
4.1542,-13.484,-4.4402,-1.1341,-1.1093,-0.39554,3.96,39.9,9.0
4.413,-13.702,-3.6775,-1.5922,-1.6179,-0.26114,4.44,40.26,7.62
4.6718,-14.724,-3.228,-1.7602,-1.9587,-0.16371,4.68,40.44,7.38
4.8897,-15.473,-2.9556,-1.9438,-2.113,-0.053451,4.86,40.44,7.26
8.4855,-15.255,-3.6094,-1.9917,-2.6872,0.19151,5.04,40.62,7.38
6.8647,-16.14,-2.7649,-2.2718,-3.0146,0.066584,5.22,40.62,7.62
2.2065,-13.035,0.62654,-2.653,-2.3179,-0.32987,5.22,40.38,8.7
1.3212,-10.774,-0.10896,-3.0305,-0.91019,-0.60903,5.22,40.26,9.42
1.4165,-10.202,-0.54481,-3.1652,0.26298,-1.1008,5.1,39.96,10.26
1.4846,-9.8611,0.42223,-3.2663,0.70616,-1.2828,5.04,39.66,12.18
1.866,-9.793,1.1169,-3.5134,1.5482,-1.5385,4.74,39.42,13.5
2.4789,-9.8611,1.0896,-3.5595,1.7275,-1.5855,4.56,39.0,14.88
3.0918,-10.515,0.83084,-3.583,1.6835,-1.5769,3.66,38.46,17.64
2.5742,-10.093,1.7706,-3.5323,1.5479,-1.4386,3.12,37.86,19.08
2.2474,-9.7658,2.8875,-3.2852,1.4022,-1.2785,2.46,37.14,20.4
2.4517,-9.2891,2.7377,-2.7865,1.0837,-1.1148,0.84,35.28,23.1
2.1929,-9.3844,2.2201,-2.3176,0.70677,-0.96333,-0.12,34.44,24.3
1.471,-9.4934,3.3097,-1.8864,0.46792,-0.77152,-0.96,33.36,25.68
0.83084,-9.4934,3.5685,-1.4361,0.36133,-0.45876,-2.94,31.38,28.02
0.70826,-9.793,3.2008,-0.72601,0.41508,-0.0054978,-3.9,30.42,29.16
0.38137,-9.4525,2.547,-0.51313,0.45876,0.11729,-4.92,29.4,30.12
0.44947,-9.8611,2.9148,0.076969,0.53787,0.51374,-6.78,27.48,31.98
0.61292,-10.787,2.9692,0.44593,0.60048,0.86071,-7.44,26.46,32.76
1.1713,-11.291,2.7241,0.8604,0.62217,1.1869,-8.1,25.56,33.3
2.4517,-11.496,1.9341,1.3011,0.44349,1.4032,-9.06,24.18,33.84
3.0237,-11.019,1.2258,1.9141,-0.067806,1.4438,-9.48,23.82,34.02
3.4596,-12.449,0.55843,2.1069,-0.27855,1.4004,-9.78,23.64,34.26
3.2008,-14.002,0.01362,2.4838,-0.7871,1.2517,-9.96,23.94,34.02
2.7513,-14.383,-0.21793,2.5601,-0.86834,1.1704,-9.84,24.24,33.96
2.5061,-14.165,-0.74912,2.4618,-0.67348,1.186,-9.84,24.84,33.54
1.9613,-11.291,-2.1112,2.3121,-0.30543,1.226,-9.48,26.04,32.58
1.7025,-9.8611,-2.5742,2.1252,0.3769,1.2947,-9.12,26.76,31.98
1.3484,-8.4174,-2.833,2.0672,0.60262,1.3011,-8.34,28.44,30.84
1.4438,-8.0905,-2.6423,1.9248,0.99938,1.3143,-7.92,29.4,30.18
1.58,-7.9407,-2.7649,1.774,1.3799,1.3555,-7.26,30.36,29.34
2.1384,-8.1313,-3.0237,1.6869,1.5079,1.4508,-6.6,31.2,28.56
3.0918,-8.8805,-3.8273,1.5831,1.4878,1.5617,-5.34,33.06,27.24
3.8273,-9.5751,-4.2359,1.496,1.2712,1.6814,-4.62,33.84,26.34
4.5901,-10.065,-4.8352,1.4459,1.1408,1.7034,-3.06,35.46,24.42
4.9033,-10.256,-5.1485,1.365,0.60079,1.6735,-2.22,36.12,23.7
5.0804,-10.229,-5.7069,1.3295,0.39095,1.6215,-1.38,36.84,22.74
4.9306,-10.134,-6.3471,1.1817,-0.1408,1.3576,0.24,37.86,21.12
4.8897,-10.134,-6.7966,1.087,-0.37385,1.1371,0.96,38.4,20.34
5.0259,-10.924,-7.2869,0.94165,-0.57238,0.91263,1.8,39.06,19.68
4.7944,-11.264,-7.1915,0.5171,-0.82986,0.58246,3.54,39.9,17.82
4.2359,-11.468,-6.4833,0.12553,-0.83444,0.36377,4.32,40.08,16.92
3.9227,-11.836,-6.0747,-0.20708,-0.57238,0.094379,5.04,40.38,16.14
3.6639,-13.116,-7.0009,-0.66065,0.047037,-0.16677,6.36,40.8,14.76
4.2495,-12.967,-6.5241,-1.1426,0.68356,-0.4609,6.9,40.98,14.28
4.7126,-12.762,-5.6933,-1.5073,1.0027,-0.90805,7.44,41.16,13.86
5.1894,-12.585,-4.2359,-1.9093,0.99968,-1.2269,8.04,41.22,13.62
5.3119,-12.708,-3.9227,-2.0385,0.81673,-1.4926,8.28,41.22,13.62
5.5843,-13.184,-3.6775,-2.095,0.53573,-1.6732,8.4,41.04,13.86
6.0747,-14.383,-3.2144,-2.149,0.14019,-1.7507,8.04,40.5,14.64
5.7614,-14.764,-2.4925,-2.2584,-0.25656,-1.8112,7.8,40.02,15.24
5.0259,-13.539,-1.5527,-2.4053,-0.51282,-1.9224,6.6,38.88,16.56
3.7865,-11.332,-1.2803,-2.4615,-0.42577,-2.1823,5.82,38.34,17.4
3.0237,-9.9837,-1.2122,-2.4609,-0.29719,-2.2828,4.92,37.74,18.36
2.9556,-9.5206,-1.1713,-2.4212,0.073609,-2.5284,3.9,37.32,19.44
2.942,-8.8396,-0.85808,-2.3124,0.44746,-2.8793,1.68,35.76,21.42
3.1735,-8.9486,-0.65378,-2.2037,0.51129,-3.0235,0.54,34.86,22.26
3.2416,-9.2618,-0.38137,-2.0629,0.40378,-3.0769,-0.78,33.9,23.28
3.2553,-9.7658,-0.17706,-1.9328,0.19884,-3.0146,-3.42,32.04,24.9
3.228,-9.9565,-0.12258,-1.7006,-0.16952,-2.7,-4.56,30.96,25.56
3.0237,-9.9701,0.081722,-1.6301,-0.29871,-2.5354,-5.82,29.88,26.28
2.1929,-9.7658,0.47671,-1.4606,-0.54367,-1.9163,-7.92,27.72,27.42
1.4982,-9.4661,0.98067,-1.3283,-0.53481,-1.4478,-8.94,26.64,27.78
0.49033,-9.2482,1.7162,-1.0238,-0.29474,-0.75289,-10.5,24.54,28.5
-0.28603,-8.7987,2.1248,-0.74648,-0.070555,-0.28008,-11.16,23.4,28.8
-0.28603,-8.3629,1.8387,-0.56261,0.039095,-0.047037,-11.64,22.44,29.16
-0.068102,-8.2267,1.866,-0.17074,0.19517,0.40531,-12.24,21.48,29.34
0.57205,-10.283,2.3836,0.49266,0.1799,1.0562,-12.96,20.04,29.7
1.0215,-11.264,2.5606,0.90347,0.13714,1.4988,-13.08,19.44,29.88
1.5255,-11.713,2.5061,1.3146,0.093462,1.8595,-13.08,19.2,30.06
3.0918,-11.959,1.3757,2.0116,-0.11057,2.2147,-13.08,18.78,30.24
3.8137,-12.83,0.89894,2.449,-0.4331,2.2816,-13.08,18.78,30.24
4.2223,-13.539,0.12258,2.6273,-0.61331,2.2911,-12.9,18.96,30.0
4.127,-14.696,-0.8036,2.9514,-1.1374,2.2303,-12.18,19.86,29.4
3.8954,-14.451,-1.4029,2.9746,-1.3018,2.1783,-11.7,20.58,29.16
3.4187,-13.035,-2.4789,2.8384,-1.2859,2.0974,-11.22,21.3,28.74
2.6968,-10.883,-3.2553,2.675,-1.0971,1.9117,-9.84,23.28,27.66
2.1929,-9.8203,-3.4596,2.3964,-0.53084,1.7449,-9.18,24.12,27.12
1.5663,-9.2755,-3.4051,2.2324,0.023213,1.5806,-8.4,25.02,26.64
1.2531,-8.7715,-3.5549,2.0589,0.65912,1.4829,-6.36,27.0,25.38
1.6617,-8.9622,-3.9635,1.8555,1.2581,1.4719,-5.4,27.96,24.78
2.2337,-9.0031,-4.3449,1.664,1.6631,1.5446,-4.32,28.74,23.76
3.5413,-9.6023,-4.6309,1.5055,1.8375,1.6454,-1.74,30.24,22.08
3.8546,-9.9292,-4.7535,1.3265,1.6423,1.8476,-0.54,31.02,21.36
4.2904,-10.229,-5.1349,1.2138,1.3341,1.9374,0.54,31.68,20.58
4.7944,-10.052,-6.1292,1.1252,1.0043,1.9749,2.76,32.64,19.26
5.0668,-9.7658,-6.6604,1.0232,0.62522,1.9157,3.84,33.0,18.36
5.6661,-9.6023,-7.2324,0.93859,0.16952,1.7672,4.86,33.18,17.7
6.5105,-9.9973,-7.927,0.82589,-0.43799,1.5366,6.78,33.84,16.26
6.7421,-10.202,-8.0632,0.48503,-1.4722,1.0675,7.8,34.14,15.36
6.279,-10.665,-7.5184,0.32345,-1.7138,0.88453,8.82,34.38,14.64
4.699,-11.727,-6.3743,-0.19853,-1.6331,0.2584,10.56,34.56,12.96
3.9227,-12.735,-6.674,-0.62705,-1.0021,-0.13683,11.34,34.68,12.18
3.8409,-13.443,-5.8159,-1.1417,-0.14478,-0.58063,12.6,34.92,11.1
4.1951,-13.484,-5.3664,-1.5379,0.42761,-0.96883,13.08,35.04,10.8
4.7263,-13.362,-3.9635,-1.982,0.85613,-1.4639,14.1,35.1,10.14
5.2847,-14.601,-3.7728,-2.0889,0.81062,-1.6765,14.22,34.98,9.96
5.5707,-15.132,-3.6639,-2.2571,0.65301,-1.85,14.4,35.04,9.9
5.6252,-15.255,-3.2553,-2.4163,0.4441,-1.9716,14.46,35.1,10.02
5.0259,-14.124,-2.4108,-2.536,0.27489,-2.1105,13.98,35.04,10.68
4.2768,-12.64,-1.8115,-2.5785,0.23549,-2.2959,13.5,35.1,11.16
3.5413,-10.746,-1.362,-2.5488,0.33506,-2.7162,11.7,35.16,12.72
3.3234,-9.8748,-1.2531,-2.4731,0.40439,-3.0171,10.62,35.1,13.5
3.3642,-9.5206,-1.0896,-2.3393,0.38546,-3.2706,9.24,35.16,14.7
3.3642,-9.6296,-0.88532,-2.2009,0.26359,-3.4612,6.0,35.04,16.98
3.2961,-10.161,-0.64016,-2.0675,0.074526,-3.5329,4.26,34.68,18.18
3.1599,-10.42,-0.51757,-1.9652,-0.12248,-3.4862,2.46,34.38,19.44
2.8603,-10.692,-0.40861,-1.85,-0.21808,-3.1768,-1.5,33.6,21.66
2.5879,-10.42,-0.38137,-1.7999,-0.21258,-3.0226,-3.18,33.3,22.86
2.3972,-10.161,-0.23155,-1.6603,-0.16249,-2.4221,-5.04,32.52,23.88
1.2122,-9.0984,0.54481,-1.5418,-0.11454,-1.9875,-8.7,30.72,26.1
0.50395,-8.9622,1.1305,-1.3405,-0.15149,-1.5125,-10.38,29.76,27.06
-0.16344,-9.2482,1.471,-1.0742,-0.27611,-1.0067,-11.82,28.68,28.02
-1.076,-9.0848,1.6344,-0.80084,-0.19242,-0.073609,-14.46,26.28,29.76
-1.1713,-8.8124,1.7298,-0.28375,0.097738,0.56016,-15.54,25.26,30.54
-0.88532,-8.7851,2.0567,0.14569,0.31246,1.1274,-16.44,24.12,31.08
0.095342,-11.06,3.0237,0.60109,0.36346,1.5934,-17.88,22.08,32.1
1.2939,-11.863,2.9284,1.0782,0.35216,1.9856,-18.42,21.36,32.46
2.3836,-11.931,2.3427,1.6215,0.16768,2.2889,-18.84,20.64,32.64
4.018,-12.476,1.1713,2.2245,-0.27153,2.4114,-19.08,19.92,33.12
4.413,-13.675,0.61292,2.9957,-1.2117,2.368,-19.26,19.8,33.18
4.4402,-14.642,0.054481,3.1542,-1.47,2.3375,-19.2,20.04,33.06
3.7728,-14.805,-1.1713,3.277,-1.8201,2.2226,-18.36,21.18,32.7
3.337,-13.675,-2.0294,3.1145,-1.7129,2.167,-17.82,22.08,32.22
3.0101,-12.19,-2.7377,2.8848,-1.4172,2.0699,-17.16,23.04,31.74
1.8251,-10.011,-3.2553,2.6634,-0.66981,1.8622,-15.48,25.32,30.42
1.471,-9.4525,-3.2553,2.3637,0.011912,1.6875,-14.58,26.52,29.76
1.2531,-9.2891,-3.2144,2.1677,0.74923,1.5644,-13.5,27.78,29.16
1.7979,-9.3299,-3.7047,1.96,1.4135,1.5226,-11.1,30.36,27.54
2.3699,-9.507,-4.1542,1.755,1.8769,1.5611,-9.6,31.62,26.64
3.1872,-9.8066,-4.4539,1.5815,2.1279,1.6493,-8.22,33.0,25.68
3.9908,-10.311,-4.6718,1.4215,2.1212,1.7611,-5.64,35.16,23.76
4.3858,-10.42,-4.9714,1.2239,1.7816,1.8567,-4.32,36.06,22.8
4.5083,-10.297,-5.4073,1.1723,1.6377,1.8637,-2.94,37.02,22.08
4.9033,-9.9292,-6.4152,1.0397,1.1524,1.7727,-0.66,38.4,20.16
5.2302,-9.6432,-6.9736,0.97708,0.72021,1.628,0.48,38.94,19.14
5.9249,-9.8748,-7.6138,0.88789,0.15913,1.4496,2.4,40.02,17.46
6.0338,-10.025,-7.8045,0.74281,-0.49266,1.233,3.42,40.38,16.62
5.8704,-10.351,-7.641,0.48411,-1.0528,1.0049,4.26,40.74,15.84
4.522,-10.774,-6.7421,0.10812,-1.2752,0.72174,5.76,41.52,14.28
3.9908,-11.55,-6.6195,-0.27794,-0.96425,0.39554,6.66,41.64,13.74
3.732,-12.0,-6.851,-0.92943,0.10507,-0.17532,7.02,41.88,13.14
4.6854,-12.708,-5.8704,-1.2892,0.65088,-0.60842,8.1,41.88,12.3
5.6252,-13.607,-5.0395,-1.6127,0.79932,-0.99815,8.34,42.06,12.12
6.1428,-14.642,-4.127,-1.8555,0.66615,-1.3528,8.64,42.0,11.94
6.3607,-15.84,-3.5413,-2.0543,0.13958,-1.7477,8.82,41.82,12.12
6.3198,-16.317,-3.3506,-2.1017,-0.049786,-1.8494,8.94,41.64,12.54
5.9793,-16.549,-2.9556,-2.3753,-0.41905,-2.1206,8.64,41.4,13.02
4.3313,-14.274,-2.2201,-2.5504,-0.30879,-2.3851,8.1,40.62,14.22
3.4459,-12.803,-1.7979,-2.6325,0.010079,-2.7321,7.5,40.2,14.88
2.8603,-10.474,-1.471,-2.6353,0.36194,-3.1234,5.88,39.18,16.5
3.0237,-9.8611,-1.2803,-2.6267,0.62797,-3.492,4.8,38.58,17.46
3.1599,-9.8884,-1.185,-2.5122,0.71654,-3.7767,3.3,37.98,18.3
3.337,-10.311,-0.8036,-2.2962,0.49175,-4.0057,0.42,36.54,20.34
3.2961,-10.529,-0.64016,-2.142,0.23976,-3.9722,-1.2,35.88,21.24
3.1872,-10.692,-0.50395,-2.0125,-0.01405,-3.7916,-2.7,34.92,22.14
2.9556,-10.515,-0.35413,-1.8201,-0.26114,-3.2599,-6.12,33.18,23.76
2.7649,-10.379,-0.20431,-1.6918,-0.3656,-2.7642,-7.8,32.16,24.6
2.2882,-10.174,0.24517,-1.6157,-0.38973,-2.2455,-9.48,31.02,25.32
0.77636,-9.4117,1.1032,-1.5226,-0.36316,-1.7492,-12.66,28.62,26.52
-0.32689,-8.826,1.7706,-1.3057,-0.31429,-1.2785,-14.34,27.54,27.0
-0.72188,-8.8396,1.9205,-1.0302,-0.19028,-0.75381,-15.72,26.4,27.6
-0.91256,-8.9349,1.6481,-0.72937,0.042455,-0.18143,-18.12,23.94,28.68
-0.58567,-8.4038,1.6072,-0.18082,0.4386,0.67745,-19.14,22.68,29.16
-0.068102,-8.3765,1.7434,0.25992,0.45571,1.1671,-20.04,21.66,29.64
0.38137,-9.902,2.152,0.69914,0.35033,1.6179,-20.82,20.82,30.06
1.3893,-11.223,1.9886,1.1258,0.25412,2.0217,-21.84,19.32,30.72
2.2474,-11.741,1.7025,1.5553,0.146,2.3769,-22.08,19.02,30.84
3.8682,-12.476,0.44947,2.0082,-0.051924,2.6325,-22.38,18.66,31.08
4.3858,-13.389,-0.054481,2.6173,-0.55711,2.7962,-22.5,18.84,31.08
4.6445,-14.261,-0.47671,2.8879,-0.93126,2.791,-22.32,19.2,30.96
4.4402,-14.683,-1.4301,3.0406,-1.226,2.7623,-21.66,20.52,30.54
4.3585,-13.961,-2.2201,3.0464,-1.372,2.7046,-21.0,21.54,30.18
4.0452,-12.326,-3.2961,2.9566,-1.3906,2.6139,-20.4,22.68,29.7
3.1599,-10.542,-4.0589,2.8112,-1.2605,2.3662,-18.78,25.14,28.8
2.2746,-9.5751,-3.7047,2.5079,-0.6915,2.1597,-17.7,26.58,28.2
1.866,-9.3844,-3.6094,2.306,-0.058948,1.9783,-16.38,27.9,27.36
1.5527,-9.3844,-3.732,2.1179,0.66737,1.8686,-13.44,30.66,25.74
2.0294,-9.8611,-4.3449,1.9013,1.3607,1.8784,-11.88,31.92,24.9
2.6696,-10.311,-4.9578,1.6768,1.8625,1.9728,-10.5,33.0,24.06
4.1542,-10.828,-5.4345,1.485,2.0754,2.1047,-7.38,35.1,22.2
4.4402,-10.801,-5.5026,1.1555,1.8418,2.2382,-5.82,36.06,21.24
4.7399,-10.637,-5.8976,1.0675,1.7043,2.2232,-4.32,36.96,20.28
5.1076,-9.7658,-6.8647,0.82436,1.2483,1.9853,-1.26,38.52,18.48
5.4618,-9.3844,-7.2869,0.72601,0.91141,1.7269,0.12,39.0,17.58
5.993,-9.3436,-7.8862,0.62766,0.43952,1.4273,1.56,39.48,16.68
6.6604,-10.025,-8.1177,0.47067,-0.18021,1.1002,4.2,40.44,14.58
6.4697,-10.215,-7.8181,0.057727,-0.89003,0.54825,5.28,40.68,13.68
5.3937,-10.488,-6.9464,-0.26909,-0.83719,0.16463,6.24,41.04,13.02
4.3313,-12.027,-6.5786,-0.60262,-0.33811,-0.22083,7.86,41.58,11.7
4.4811,-12.217,-6.1155,-1.0391,0.35705,-0.6463,8.4,41.82,11.22
4.9714,-12.313,-5.5571,-1.3286,0.78313,-1.0446,8.88,42.12,10.92
5.8295,-12.98,-4.3177,-1.5647,0.89461,-1.409,9.6,42.48,10.74
6.1019,-13.321,-3.9227,-1.7364,0.53756,-1.8854,9.9,42.42,10.8
6.3879,-14.901,-3.2825,-1.7761,0.07422,-2.1234,9.6,42.42,11.4
6.3879,-14.901,-3.2825,-1.8567,-0.40409,-2.2797,9.6,42.42,11.4
5.8704,-15.268,-2.8194,-1.9966,-0.90133,-2.492,9.24,42.54,11.94
4.808,-13.988,-2.3155,-2.029,-0.95967,-2.5788,8.58,42.3,12.72
4.2223,-12.885,-1.9341,-2.0916,-0.93859,-2.7859,7.68,42.0,13.56
3.6094,-11.605,-1.4846,-2.1108,-0.76236,-3.156,6.54,41.7,14.58
3.3642,-10.678,-1.4165,-2.095,-0.65149,-3.3805,3.96,40.62,16.92
3.0918,-10.515,-1.1986,-2.0861,-0.57879,-3.5339,0.78,39.24,19.08
2.9692,-10.637,-0.99429,-2.0516,-0.48991,-3.6081,-2.64,37.86,21.48
2.7786,-10.896,-0.74912,-2.0064,-0.41814,-3.5849,-6.0,36.18,23.7
2.6696,-10.896,-0.5993,-1.9566,-0.31979,-3.4541,-9.3,34.5,25.86
2.6151,-10.692,-0.50395,-1.9068,-0.19945,-3.2168,-10.8,33.42,26.88
2.4789,-10.093,-0.31327,-1.8335,-0.054978,-2.9117,-13.74,30.9,28.56
2.3836,-9.4253,-0.068102,-1.7025,0.11148,-2.3976,-16.08,28.74,29.7
2.2201,-9.0712,0.34051,-1.5663,0.18051,-2.0714,-18.0,26.52,30.6
1.8387,-9.1256,0.8717,-1.3659,0.18173,-1.751,-19.5,24.54,31.38
1.0351,-9.0439,1.2803,-1.1393,0.046426,-1.4083,-20.7,22.2,32.28
-0.095342,-8.54,1.6072,-0.88728,-0.11423,-0.97555,-21.66,20.04,32.94
-0.6674,-8.3493,1.6753,-0.58765,-0.086743,-0.44104,-22.08,18.9,33.3
-1.2258,-8.1586,2.0294,-0.065668,0.3882,0.43799,-22.86,17.04,33.72
-0.5993,-9.4117,2.1112,0.38179,0.74128,1.0623,-23.28,15.72,33.84
0.62654,-10.188,2.0294,0.80787,0.87568,1.6408,-23.7,14.76,34.02
2.2065,-10.964,1.7706,1.3259,0.71838,2.1072,-24.06,14.34,34.14
2.7513,-11.509,1.5255,1.8796,0.32773,2.459,-24.24,14.52,34.02
4.1406,-13.307,0.64016,2.434,-0.18387,2.6689,-24.3,15.12,33.66
4.5628,-14.669,-0.068102,2.9279,-0.74464,2.7773,-24.0,16.44,33.3
4.7126,-15.35,-0.68102,3.3921,-1.4838,2.8115,-23.76,17.28,32.88
4.6173,-15.037,-1.757,3.4468,-1.8179,2.7837,-23.04,19.5,31.8
4.127,-13.021,-3.1054,3.3527,-1.9792,2.6906,-21.84,22.02,30.72
3.732,-12.217,-3.4596,3.1768,-1.9444,2.5241,-21.36,23.28,30.24
2.656,-10.774,-3.623,2.9523,-1.6637,2.3075,-19.68,26.04,29.16
1.362,-9.8339,-3.4596,2.5864,-0.74281,1.9508,-17.4,28.56,27.84
0.76274,-9.6704,-3.5413,2.3466,0.19334,1.8036,-14.7,31.02,26.64
0.89894,-9.9429,-3.9771,2.0986,1.2385,1.7724,-13.26,32.28,26.1
1.9613,-10.501,-4.5083,1.8317,2.0776,1.8415,-10.44,34.44,24.66
3.3097,-11.128,-5.0531,1.5751,2.6075,1.9908,-7.74,36.24,22.98
3.8818,-11.182,-4.9306,1.3433,2.7046,2.2284,-4.98,37.62,21.48
4.9306,-11.046,-5.5707,1.1072,2.2174,2.2831,-3.72,38.16,20.7
5.2302,-10.215,-6.2654,0.8488,1.762,2.1927,-1.32,39.48,18.84
5.3256,-9.8748,-6.5786,0.74037,1.328,1.9969,-0.12,39.84,18.18
6.0066,-9.5615,-7.2869,0.66126,0.86926,1.726,1.74,40.62,16.56
6.6876,-9.902,-7.7364,0.5507,0.29444,1.4145,3.48,41.4,15.06
6.674,-10.12,-7.7364,0.35186,-0.32406,1.0843,4.14,41.76,14.46
5.5843,-10.392,-6.8238,0.065363,-0.77336,0.71044,5.52,42.06,13.02
4.5492,-10.964,-6.0883,-0.44135,-0.55039,0.090713,6.72,42.3,11.94
4.127,-11.577,-6.1292,-0.78099,0.10354,-0.34178,7.26,42.42,11.7
4.413,-11.577,-5.4481,-1.1658,0.78557,-0.78435,8.16,42.66,11.22
5.1757,-12.163,-4.7807,-1.3943,1.1521,-1.1799,8.76,42.54,11.16
5.5707,-12.463,-4.5356,-1.587,1.1652,-1.5027,8.94,42.3,11.22
6.4016,-13.729,-3.8273,-1.6991,0.86804,-1.7672,8.82,42.12,11.58
6.6467,-14.642,-3.3778,-1.7709,0.032681,-2.0629,8.22,42.0,12.36
6.456,-15.173,-2.9011,-1.8292,-0.55436,-2.1851,6.96,41.58,13.2
5.8431,-14.969,-2.6015,-1.9184,-0.99174,-2.2978,6.48,41.34,13.86
4.8897,-13.961,-2.261,-2.021,-1.1173,-2.4639,4.98,40.68,15.36
3.6366,-12.258,-1.58,-2.0849,-1.0183,-2.6967,2.94,39.78,17.22
3.3506,-11.373,-1.5527,-2.1151,-0.8039,-2.9786,1.86,39.24,18.18
3.2144,-10.61,-1.3484,-2.1188,-0.58368,-3.2471,-0.78,38.34,19.8
3.1872,-10.706,-1.185,-2.0666,-0.42944,-3.5601,-3.3,37.5,21.84
3.0782,-10.855,-0.91256,-2.0531,-0.36682,-3.6453,-4.44,36.96,22.8
2.7649,-10.924,-0.5993,-2.014,-0.31612,-3.6243,-7.08,35.76,24.3
2.6423,-10.774,-0.44947,-1.9725,-0.24099,-3.4957,-9.48,34.08,25.92
2.5061,-10.61,-0.38137,-1.9245,-0.099266,-3.2651,-10.62,33.12,26.64
2.5061,-9.9292,-0.19068,-1.8189,0.047037,-2.9688,-13.14,31.32,28.02
2.4925,-9.2482,0.095342,-1.6319,0.11393,-2.43,-15.3,29.22,29.34
2.1248,-8.8668,0.50395,-1.4731,0.072693,-2.0443,-16.32,28.38,29.88
1.0488,-8.7579,1.1032,-1.2639,-0.040317,-1.6212,-18.0,26.22,31.08
0.19068,-8.8668,1.4846,-1.0095,-0.1179,-1.1545,-19.38,23.76,32.1
-0.068102,-8.8532,1.5255,-0.72052,-0.0054978,-0.61025,-19.92,22.74,32.52
-0.35413,-8.1586,1.2531,-0.41111,0.27825,-0.016799,-20.7,20.58,33.06
0.027241,-7.7227,1.4846,0.16921,0.57085,0.7926,-21.42,18.84,33.72
0.095342,-8.5263,1.8387,0.57727,0.51649,1.2281,-21.6,18.12,33.96
0.78998,-10.256,1.866,0.9221,0.4609,1.639,-21.9,17.16,34.44
1.975,-11.741,1.58,1.2581,0.42211,2.0156,-22.08,16.68,34.5
3.1327,-12.476,1.0351,1.6124,0.34025,2.3601,-22.08,16.8,34.32
3.6639,-12.926,0.8036,1.9939,0.15821,2.6142,-21.96,17.04,34.14
4.6309,-14.465,-0.095342,2.5552,-0.35919,2.8256,-21.84,18.18,33.84
4.985,-15.173,-1.0624,2.8451,-0.76938,2.8622,-21.36,19.92,32.94
5.0531,-14.901,-1.8524,2.9948,-1.1741,2.8503,-21.06,20.88,32.58
4.8216,-13.402,-2.9284,3.0015,-1.5278,2.7474,-20.16,23.16,31.62
3.8954,-11.128,-3.6503,2.9157,-1.7394,2.5815,-18.78,25.56,30.54
3.2144,-10.379,-3.5277,2.78,-1.6906,2.3228,-16.92,27.96,29.34
2.0294,-9.398,-3.4459,2.5143,-0.99113,1.9322,-15.9,29.22,28.68
1.0079,-9.0575,-3.3642,2.3149,-0.17257,1.7706,-13.38,31.5,27.48
1.1713,-9.4661,-3.732,2.1038,0.77672,1.7385,-10.62,33.6,26.04
2.3836,-10.188,-4.5901,1.8708,1.5928,1.8265,-7.92,35.58,24.3
2.9692,-10.542,-4.8625,1.6814,2.0983,1.9899,-6.48,36.36,23.52
4.3313,-10.964,-5.0668,1.4713,2.2468,2.197,-3.78,37.5,21.78
4.8625,-10.951,-5.6388,1.1628,1.8201,2.3622,-1.32,38.52,20.16
5.0531,-10.61,-6.0202,0.97219,1.4319,2.2911,0.06,39.0,19.32
5.203,-9.902,-6.6059,0.81489,1.08,2.0821,2.4,39.96,17.64
5.9249,-9.5479,-7.355,0.71838,0.72052,1.7703,4.26,40.5,16.2
6.2517,-9.5887,-7.6546,0.60537,0.25809,1.4071,5.22,40.92,15.48
6.279,-9.9973,-7.3822,0.40195,-0.27,1.0266,6.72,41.16,14.34
5.2575,-10.474,-6.6331,-0.032987,-0.72357,0.46059,8.28,41.28,13.38
4.5901,-11.073,-6.1019,-0.39156,-0.49786,0.051924,8.94,41.28,13.08
4.304,-11.863,-6.1292,-0.74251,0.075747,-0.35094,10.14,41.52,12.6
4.9987,-12.367,-5.3664,-1.1292,0.66157,-0.76572,11.1,41.58,12.54
5.4209,-12.653,-5.0804,-1.3708,0.91263,-1.1356,11.58,41.64,12.54
6.1292,-13.539,-3.9635,-1.6002,0.86285,-1.4618,12.0,41.22,12.9
6.4424,-14.506,-3.4323,-1.7611,0.32406,-1.8656,12.06,41.16,13.38
6.4424,-15.214,-3.2144,-1.8253,-0.1631,-2.0604,12.06,41.1,13.74
6.1292,-15.609,-2.8875,-1.9331,-0.58765,-2.2101,11.4,40.68,14.58
5.0668,-14.601,-2.3155,-2.0366,-0.81428,-2.3824,10.2,40.38,15.72
4.6445,-13.797,-2.152,-2.1655,-0.72754,-2.7956,9.6,40.32,16.32
3.7592,-12.217,-1.7162,-2.1634,-0.53176,-3.1316,8.82,40.02,17.1
3.1599,-10.637,-1.5663,-2.1524,-0.37049,-3.4499,6.84,39.48,18.54
3.2553,-10.433,-1.4574,-2.1197,-0.27581,-3.678,5.46,39.12,19.38
3.1872,-10.529,-1.3348,-2.0714,-0.29505,-3.8103,4.08,38.82,20.1
3.1463,-10.733,-0.99429,-2.0256,-0.33781,-3.831,1.08,38.1,21.66
2.8058,-10.964,-0.65378,-1.9655,-0.37232,-3.7333,-0.54,37.86,22.5
2.6015,-10.828,-0.57205,-1.9175,-0.36285,-3.4993,-3.96,36.66,24.06
2.4925,-10.433,-0.44947,-1.8054,-0.23396,-2.9526,-7.26,35.1,25.32
2.4108,-10.011,-0.17706,-1.7572,-0.18448,-2.7413,-8.82,34.44,25.98
2.152,-9.7385,0.040861,-1.6542,-0.03146,-2.054,-10.44,33.6,26.46
1.2531,-8.7306,0.76274,-1.5388,0.030849,-1.6582,-13.5,31.68,27.78
0.57205,-8.4855,1.2122,-1.3586,0.065363,-1.2651,-14.82,30.6,28.2
0.57205,-8.5672,1.6072,-1.1026,0.16952,-0.82192,-16.08,29.52,28.62
-0.12258,-9.0167,1.6072,-0.7981,0.35277,-0.31368,-18.24,27.3,29.7
0.054481,-8.6081,1.5255,-0.49144,0.48778,0.20892,-19.08,26.16,30.24
0.027241,-8.826,1.8524,0.071471,0.46578,0.99266,-19.92,25.02,30.6
0.5993,-10.637,2.1929,0.48045,0.4331,1.5094,-21.18,23.16,31.14
1.0896,-11.605,2.2474,0.90591,0.42272,1.9691,-21.66,22.32,31.44
2.0567,-11.836,1.6753,1.6218,0.25565,2.4682,-22.2,21.6,31.74
3.6366,-12.844,0.92618,1.8851,0.091935,2.5644,-22.38,21.42,31.74
4.0997,-14.015,0.47671,2.4212,-0.3766,2.6493,-22.44,21.42,31.68
4.2087,-14.628,0.12258,3.0259,-1.1038,2.6615,-22.2,21.72,31.56
4.2768,-14.996,-1.2122,3.2132,-1.434,2.6878,-21.6,22.86,30.72
4.2904,-13.92,-2.0294,3.2089,-1.679,2.6881,-21.18,23.76,30.3
3.7047,-11.359,-3.3097,3.1001,-1.8384,2.6215,-19.68,25.86,29.28
2.942,-10.501,-3.4596,2.8671,-1.7966,2.3598,-18.84,27.06,28.44
1.8387,-9.9973,-3.4051,2.6618,-1.3958,2.1295,-17.64,28.5,27.78
1.3893,-9.6704,-3.4323,2.4352,-0.65912,1.9432,-16.26,29.76,27.0
0.64016,-9.6432,-3.8273,2.1707,0.3708,1.8366,-13.2,32.46,25.14
1.0624,-10.025,-4.3858,1.9111,1.4966,1.8353,-11.52,33.84,24.12
2.0567,-10.351,-4.8488,1.6542,2.3161,1.9187,-9.9,34.98,22.86
3.8682,-10.569,-5.1757,1.2996,2.7266,2.0779,-6.6,37.26,20.64
4.5083,-10.529,-5.3256,1.0996,2.4893,2.1573,-4.86,38.16,19.62
4.8352,-10.311,-5.7069,0.93157,2.0195,2.1307,-3.36,38.94,18.54
5.1485,-9.5342,-6.3743,0.83933,1.5357,2.0036,-0.3,40.32,16.62
5.5571,-9.5479,-6.9736,0.79229,1.0507,1.8292,1.2,40.8,15.6
6.6059,-10.12,-8.0088,0.71441,0.42822,1.6139,3.96,41.58,13.86
6.8374,-10.556,-8.0224,0.43127,-0.65424,1.223,5.28,41.88,13.02
6.6467,-10.787,-7.7908,0.11942,-1.1023,0.86682,6.54,42.12,12.06
5.0123,-11.577,-6.6604,-0.2303,-1.0244,0.46029,8.52,42.3,10.44
4.4402,-12.408,-6.8374,-0.60201,-0.48655,0.0039706,9.18,42.42,9.78
4.2632,-12.626,-6.4833,-1.0873,0.27306,-0.51771,9.84,42.48,9.3
4.7671,-12.095,-5.0395,-1.4759,0.8604,-1.011,11.04,42.54,8.64
4.9169,-12.108,-4.5492,-1.8476,1.2254,-1.7025,11.4,42.72,8.7
5.3937,-12.612,-3.9363,-1.8995,1.1945,-1.8909,11.52,42.72,8.7
5.884,-14.315,-3.4596,-1.9868,0.79351,-2.3353,11.46,42.54,9.42
6.0474,-15.064,-3.1191,-2.0272,0.36224,-2.5131,11.22,42.54,9.78
5.9249,-15.323,-2.833,-2.0898,-0.050702,-2.624,10.74,42.24,10.44
4.9306,-14.029,-2.2882,-2.1622,-0.34941,-2.7303,9.24,41.7,11.82
4.4266,-12.776,-1.8796,-2.1606,-0.46976,-2.9685,8.1,41.4,12.66
3.8273,-11.877,-1.6208,-2.1249,-0.44746,-3.1832,6.72,40.92,13.56
3.4187,-10.501,-1.4574,-2.0788,-0.42028,-3.394,3.84,39.96,16.14
3.3097,-10.215,-1.2531,-1.9997,-0.43555,-3.5687,2.16,39.36,17.4
3.1599,-10.311,-1.0896,-1.9166,-0.4722,-3.6606,0.54,38.58,18.66
2.9556,-10.583,-0.62654,-1.8305,-0.50977,-3.6673,-3.12,37.02,21.06
2.6968,-10.542,-0.58567,-1.7339,-0.49541,-3.4642,-4.86,35.94,22.26
2.547,-10.392,-0.43585,-1.6698,-0.39095,-3.2153,-6.48,34.92,23.4
2.5061,-9.9565,-0.28603,-1.6017,-0.24954,-2.8772,-9.36,32.82,25.32
2.2882,-9.4117,-0.068102,-1.4945,-0.14447,-2.5265,-10.8,31.56,26.4
1.8932,-8.9349,0.39499,-1.3873,-0.053756,-2.1402,-12.12,30.42,27.3
0.88532,-8.9486,0.9398,-1.215,-0.010385,-1.7532,-14.34,27.9,28.86
0.34051,-9.112,1.185,-0.8885,0.020159,-1.0403,-15.3,26.64,29.58
0.34051,-9.0712,1.3484,-0.6466,0.17654,-0.4667,-16.08,25.56,30.24
-0.62654,-8.4174,1.3212,-0.49816,0.29627,-0.16982,-16.68,24.54,30.84
-0.31327,-7.9543,1.4846,0.012828,0.60109,0.6915,-17.58,22.2,31.68
0.01362,-9.112,1.9205,0.41294,0.5962,1.2031,-18.0,21.36,31.98
0.74912,-10.324,2.152,0.78588,0.49877,1.6218,-18.54,19.8,32.58
1.4029,-10.951,2.0839,1.405,0.30788,2.1313,-18.66,19.38,32.76
2.1929,-11.822,1.7434,1.8482,0.14111,2.4089,-18.6,19.02,32.94
2.8603,-12.871,1.4438,2.0803,0.024129,2.518,-18.6,18.84,32.7
4.304,-15.255,0.19068,2.7177,-0.37385,2.7752,-18.36,19.08,32.52
4.699,-15.813,-0.53119,3.0213,-0.65027,2.8876,-18.18,19.56,32.22
4.8352,-15.636,-1.2803,3.1634,-0.93707,2.9648,-17.94,20.4,31.8
4.7535,-13.593,-2.9829,3.1719,-1.3803,2.8915,-16.86,22.2,30.78
4.4266,-12.476,-3.6639,3.1398,-1.5049,2.817,-16.32,23.16,30.18
3.6503,-11.441,-3.9635,2.9303,-1.5128,2.4994,-15.6,24.24,29.46
2.2474,-10.311,-3.6366,2.7168,-1.1106,2.2581,-13.56,26.76,28.08
1.3484,-9.8748,-3.6639,2.5039,-0.41966,2.0595,-12.24,28.02,27.18
1.1577,-9.9701,-4.0589,2.2736,0.48655,1.971,-10.68,29.28,26.16
1.975,-10.501,-4.8352,1.8699,1.8011,1.9914,-7.74,31.62,24.12
2.7513,-10.774,-5.1485,1.5947,2.2752,2.0971,-6.36,32.7,23.1
3.5004,-10.964,-5.2711,1.4618,2.3796,2.1631,-4.86,33.72,22.02
4.699,-10.801,-5.7614,1.0873,2.2349,2.2779,-1.86,35.46,19.68
4.8625,-10.447,-6.1292,0.86651,1.956,2.2297,-0.24,36.0,18.66
5.1213,-9.9429,-6.3471,0.7199,1.6527,2.0928,1.38,36.54,17.7
6.3062,-9.8066,-7.3005,0.63591,1.2501,1.8766,4.32,37.38,16.14
6.8102,-9.9565,-7.5865,0.42302,0.27275,1.4575,5.76,37.8,15.3
7.2188,-10.12,-7.5593,0.17593,-0.41203,1.1121,7.02,38.16,14.58
6.3607,-10.065,-6.5105,-0.094379,-0.81001,0.69333,9.36,38.58,13.2
5.2983,-10.951,-6.1292,-0.36896,-0.73121,0.21197,10.14,38.7,12.78
4.7535,-11.741,-6.3335,-0.71471,-0.22663,-0.26878,10.98,38.76,12.3
5.094,-12.354,-5.6116,-1.12,0.42425,-0.78557,12.6,38.64,11.76
5.6116,-12.844,-5.1621,-1.5388,0.82925,-1.4392,13.32,38.58,11.52
5.9249,-13.348,-4.4947,-1.7349,0.74281,-1.7972,13.62,38.52,11.58
6.3607,-14.574,-3.623,-1.8506,0.41692,-2.095,14.22,38.22,12.24
6.2109,-15.064,-2.9829,-1.9676,0.057116,-2.3491,14.4,38.16,12.54
6.0338,-15.459,-2.7241,-2.011,-0.26053,-2.5235,14.4,38.04,12.96
5.0531,-14.724,-2.3155,-2.1026,-0.45723,-2.7049,13.8,37.44,14.22
4.6854,-13.974,-2.152,-2.2046,-0.48045,-3.0501,13.56,37.02,14.94
3.9771,-12.381,-1.7025,-2.1771,-0.41294,-3.3491,12.96,36.66,15.72
3.4051,-10.883,-1.3212,-2.1386,-0.38485,-3.6264,10.98,36.06,17.1
3.2689,-10.256,-1.3212,-2.0779,-0.36469,-3.8216,9.9,35.76,17.88
3.3642,-10.488,-1.3212,-1.9832,-0.45632,-3.9422,8.52,35.64,18.9
3.2144,-11.155,-0.85808,-1.8943,-0.5791,-3.9731,5.52,35.16,20.76
3.0646,-11.4,-0.54481,-1.8277,-0.7025,-3.7599,3.84,34.74,21.78
2.9284,-11.591,-0.47671,-1.7736,-0.70402,-3.6362,2.4,34.44,22.74
2.7241,-11.632,-0.21793,-1.701,-0.52137,-3.0665,0.72,33.96,23.4
2.3155,-10.678,-0.054481,-1.6496,-0.35094,-2.6209,-2.46,32.82,25.14
1.3212,-9.6977,0.57205,-1.5925,-0.17318,-2.146,-4.08,31.98,26.1
0.5993,-9.0031,1.1169,-1.4722,-0.013134,-1.719,-5.64,31.26,27.0
-0.28603,-8.54,1.6753,-1.098,0.13073,-1.0305,-8.58,29.64,28.14
-0.50395,-8.7987,1.6753,-0.93859,0.14325,-0.77213,-9.96,28.8,28.92
-0.50395,-8.8396,1.5119,-0.48289,0.21197,0.075747,-11.04,27.84,29.64
-0.31327,-8.3493,1.6889,-0.10476,0.29658,0.63683,-12.84,26.04,30.9
-0.21793,-9.3436,2.2065,0.28161,0.30971,1.1377,-13.5,25.08,31.32
0.027241,-10.433,2.4108,0.6634,0.31582,1.5724,-14.04,24.3,31.8
1.2258,-12.286,2.2474,1.0522,0.36957,1.9676,-14.82,22.86,32.4
2.0567,-12.708,1.9613,1.6915,0.32956,2.5397,-14.94,22.32,32.64
3.5413,-13.212,1.0215,2.1945,0.024435,2.7602,-15.12,22.02,32.82
4.7671,-14.342,0.44947,2.6515,-0.47403,2.8213,-15.0,22.14,32.7
4.9306,-14.805,-0.50395,2.9529,-1.0495,2.7999,-14.82,22.5,32.4
4.5356,-14.192,-1.757,3.1035,-1.507,2.6927,-13.86,23.52,31.68
4.2495,-13.239,-2.261,3.0638,-1.7474,2.5556,-13.2,24.36,31.14
3.1599,-10.583,-3.2144,2.963,-1.7379,2.3753,-12.54,25.38,30.48
2.5061,-9.8475,-3.2689,2.8259,-1.5064,2.1606,-10.8,27.48,29.1
1.757,-9.4117,-3.2144,2.602,-0.74128,1.8011,-9.66,28.5,28.44
1.3212,-9.3708,-3.2416,2.4239,0.039095,1.6451,-8.52,29.46,27.72
1.6344,-9.793,-3.6775,2.2217,0.83933,1.6112,-5.88,31.74,25.98
2.1112,-10.052,-4.1678,1.9954,1.4838,1.6799,-4.5,32.76,25.02
3.4459,-10.665,-4.8897,1.814,1.9001,1.8182,-1.62,34.86,23.04
4.018,-10.896,-4.9987,1.5531,1.9621,2.0546,-0.06,35.7,22.02
4.3177,-10.896,-5.3664,1.3998,1.6842,2.1081,1.38,36.42,21.0
5.0259,-10.447,-6.5241,1.2633,1.2953,2.0513,4.02,37.8,19.02
5.1894,-10.025,-7.1507,1.1206,0.86132,1.8802,5.4,38.34,18.0
5.3528,-9.4525,-8.0905,0.94928,0.099266,1.4823,8.04,39.0,16.38
5.8023,-9.6023,-8.322,0.80237,-0.51649,1.16,9.24,39.36,15.48
5.6661,-10.025,-8.1586,0.51007,-1.0406,0.83841,10.38,39.6,14.7
4.9714,-10.256,-7.5321,0.32009,-1.1652,0.67837,11.28,39.84,13.74
3.5549,-11.645,-6.851,-0.33017,-0.73762,0.22419,13.14,40.14,12.24
3.4459,-12.149,-7.0281,-0.79687,0.044593,-0.096517,13.74,40.26,11.64
4.0316,-12.258,-5.9521,-1.4218,0.97983,-0.63591,14.82,40.2,10.74
5.3664,-12.939,-5.0531,-1.7529,1.128,-0.98594,15.36,39.96,10.62
5.6933,-13.321,-4.0589,-1.9123,1.1145,-1.153,15.54,39.78,10.56
6.0611,-13.934,-3.8954,-2.0027,0.88423,-1.4551,15.72,39.6,10.74
6.4424,-15.922,-3.4868,-2.1664,0.30452,-1.8106,15.84,39.06,11.4
6.3471,-16.44,-2.9829,-2.2822,-0.069639,-1.989,15.72,38.76,11.94
5.8023,-16.126,-2.4925,-2.4416,-0.28008,-2.1854,15.24,38.52,12.42
4.2223,-13.838,-1.7434,-2.551,-0.14386,-2.6411,13.98,37.68,13.98
3.7047,-12.122,-1.5391,-2.5339,0.06689,-3.0106,13.08,37.32,14.7
3.4187,-11.427,-1.5936,-2.5195,0.15791,-3.2015,12.06,36.84,15.78
3.4051,-10.678,-1.362,-2.4108,0.3488,-3.6524,10.8,36.42,16.86
3.4732,-10.597,-1.2667,-2.3045,0.29413,-3.8619,9.36,35.94,17.88
3.3778,-10.855,-0.70826,-2.1997,0.18479,-3.9691,6.3,34.62,19.98
3.2416,-10.992,-0.44947,-2.007,-0.079718,-3.8775,4.74,33.9,21.12
2.7649,-10.801,-0.21793,-1.9578,-0.13836,-3.7837,1.2,32.4,23.04
2.6015,-10.324,-0.17706,-1.759,-0.19761,-3.3252,-0.48,31.62,23.94
2.5061,-10.011,0.027241,-1.6863,-0.21747,-3.134,-2.04,30.72,24.96
1.4438,-9.1937,0.8036,-1.5107,-0.28405,-2.4703,-5.22,28.86,26.64
0.65378,-8.9894,1.0624,-1.3732,-0.29932,-1.9896,-6.54,27.84,27.3
-0.21793,-8.7034,1.5527,-1.0217,-0.19548,-1.2043,-7.92,26.88,27.9
-1.2667,-8.826,1.6753,-0.75106,0.019242,-0.57941,-10.2,24.78,29.1
-1.185,-8.6081,1.6344,-0.49388,0.35766,0.078191,-11.28,23.7,29.64
-1.1169,-8.4174,1.8387,-0.17165,0.62797,0.71716,-12.12,22.56,30.0
-0.8717,-9.4798,2.3427,0.24679,0.75167,1.3091,-13.5,20.82,31.02
-0.19068,-10.515,2.2337,0.64202,0.82925,1.8735,-14.04,20.16,31.32
1.4029,-11.741,1.4165,1.2895,0.73426,2.6124,-14.82,19.2,31.74
3.4459,-12.286,0.85808,1.7889,0.36438,2.9575,-15.18,18.9,31.92
4.4402,-12.939,0.19068,2.2972,-0.24984,3.1359,-15.36,18.84,31.98
5.1076,-13.947,-0.12258,2.6832,-0.95967,3.1786,-15.48,18.9,31.8
5.0804,-15.01,-0.92618,2.9435,-1.584,3.1032,-15.12,19.74,31.38
4.7126,-14.819,-1.471,3.0836,-2.0201,2.9978,-14.82,20.46,31.02
4.3313,-13.825,-2.8194,3.0113,-2.117,2.7825,-13.5,22.14,30.24
3.1872,-11.182,-3.3915,2.8827,-1.832,2.5895,-12.78,23.22,29.76
2.3699,-10.42,-3.4868,2.707,-1.2834,2.354,-11.82,24.36,29.22
1.7979,-10.147,-3.5004,2.4761,-0.49724,2.1331,-10.68,25.56,28.62
1.1986,-9.6977,-3.337,2.2397,0.4383,1.9676,-7.98,27.9,26.94
1.5119,-9.8884,-3.6911,2.0134,1.3482,1.9404,-6.54,28.98,26.16
2.3427,-10.42,-4.1133,1.7413,2.0516,1.9911,-4.98,30.0,25.32
3.514,-10.801,-4.3994,1.4954,2.4939,2.1145,-1.5,31.98,23.52
4.3721,-10.828,-4.522,1.2727,2.6399,2.2739,0.18,32.76,22.68
4.699,-10.787,-4.7671,1.1112,2.4609,2.3616,1.8,33.42,21.72
5.4754,-10.283,-5.7478,0.92027,1.8934,2.3216,4.74,34.74,19.98
5.7614,-9.9156,-6.1836,0.81856,1.4722,2.179,6.0,35.04,19.2
6.2381,-9.6841,-6.6331,0.7364,1.003,1.9432,7.38,35.28,18.6
7.2596,-9.8066,-7.5184,0.59437,0.068111,1.4395,9.78,35.82,17.22
7.3141,-9.9565,-7.4503,0.39798,-0.56902,1.0266,10.92,35.88,16.44
6.9328,-10.011,-7.0009,0.13256,-0.90439,0.56688,11.82,35.94,15.9
5.094,-10.637,-6.1564,-0.15791,-0.75992,0.080634,13.38,36.12,14.94
4.4947,-11.564,-6.456,-0.46029,-0.16005,-0.39798,14.16,36.18,14.4
4.7671,-11.768,-6.0747,-0.89919,0.55619,-0.87293,14.76,36.24,14.04
5.7342,-12.122,-5.1757,-1.3045,0.92424,-1.4465,15.42,36.3,13.5
6.3198,-12.735,-4.3721,-1.4212,0.85246,-1.6145,15.66,36.3,13.44
6.5378,-13.307,-3.9635,-1.551,0.49908,-1.9117,15.84,36.3,13.44
6.5241,-14.928,-3.5277,-1.6475,-0.28497,-2.2407,15.84,36.24,13.98
6.2517,-15.187,-3.2825,-1.7379,-0.74709,-2.4068,15.72,36.18,14.34
5.6661,-14.955,-2.8467,-1.8552,-1.0382,-2.576,15.42,36.12,14.64
4.413,-14.015,-2.2474,-1.9584,-1.0482,-2.8805,14.34,36.0,15.72
3.9363,-13.021,-1.9886,-2.0546,-0.86346,-3.1356,13.32,35.76,16.44
3.732,-12.449,-1.9205,-2.0925,-0.73334,-3.3845,12.42,35.64,17.16
3.3778,-11.237,-1.58,-2.1341,-0.61514,-3.5659,10.02,35.16,18.78
3.337,-10.978,-1.4574,-2.1276,-0.57177,-3.6841,8.58,34.92,19.68
3.1463,-10.896,-1.1713,-2.094,-0.55039,-3.744,7.08,34.68,20.46
2.9011,-11.25,-0.8036,-2.032,-0.48991,-3.6597,4.02,33.84,22.14
2.8058,-11.278,-0.68102,-1.9902,-0.38332,-3.4865,2.4,33.42,23.04
2.5742,-11.141,-0.51757,-1.9648,-0.27886,-3.3543,0.78,32.7,23.88
2.3836,-10.583,-0.25879,-1.8497,0.090103,-2.8958,-2.4,31.08,25.2
2.2474,-10.12,0.44947,-1.7623,0.27886,-2.5406,-3.96,30.24,25.86
1.4574,-9.5615,0.91256,-1.6496,0.39554,-2.1667,-7.14,28.32,27.12
1.1986,-9.4934,1.2122,-1.485,0.42761,-1.7868,-8.52,27.24,27.66
0.72188,-9.616,1.471,-1.2285,0.35827,-1.3268,-9.78,26.1,28.14
-0.068102,-9.221,1.6072,-0.98655,0.21105,-0.79535,-12.0,23.64,28.98
-0.46309,-8.6081,1.6344,-0.74434,0.18082,-0.2135,-13.02,22.5,29.28
-0.61292,-8.3084,1.8932,-0.21044,0.38698,0.65363,-13.86,21.36,29.76
-0.47671,-9.6977,2.3699,0.20372,0.57574,1.2168,-15.3,19.14,30.36
0.28603,-10.515,2.3563,0.61453,0.76205,1.9881,-15.72,18.24,30.66
2.1384,-11.141,1.8932,1.08,0.80054,2.2092,-16.56,16.98,30.84
3.228,-11.768,1.2939,1.5699,0.58796,2.5864,-16.8,16.62,30.84
4.127,-12.735,0.8036,2.3436,-0.16371,2.9239,-16.92,16.38,30.84
5.0531,-14.41,-0.12258,2.7923,-0.76725,3.0296,-17.16,16.5,30.48
5.2438,-14.942,-0.83084,3.113,-1.3442,3.0821,-16.92,16.92,30.18
5.2575,-14.288,-1.866,3.255,-1.8534,3.0659,-16.8,17.52,29.76
4.7807,-12.258,-2.9965,3.2584,-2.4068,2.8127,-15.66,19.2,28.92
4.2359,-11.509,-3.5004,3.157,-2.4465,2.5488,-14.88,20.28,28.32
3.0237,-10.42,-3.5822,3.0684,-2.3094,2.4074,-14.1,21.54,27.72
1.2667,-9.7113,-3.4732,2.7602,-1.3131,2.0055,-12.06,23.88,26.34
0.78998,-9.7794,-3.623,2.5146,-0.32284,1.8283,-10.86,25.14,25.74
1.3484,-10.379,-4.2904,2.0992,1.2978,1.7813,-7.8,27.36,24.24
2.3972,-10.978,-4.9578,1.8274,2.0687,1.8888,-6.24,28.5,23.46
3.2416,-11.305,-5.1213,1.7016,2.3014,1.9597,-4.92,29.58,22.56
3.7728,-11.346,-5.3392,1.4523,2.4276,2.1069,-3.42,30.6,21.6
4.808,-10.706,-5.8023,1.1292,2.0192,2.1765,-0.3,32.22,19.98
4.9987,-10.283,-6.279,0.98563,1.6218,2.0827,1.2,32.94,19.08
5.4073,-9.5751,-6.8783,0.87995,1.2022,1.8702,2.58,33.54,18.24
6.0611,-9.4389,-7.5184,0.759,0.35308,1.4664,4.98,34.32,16.5
6.4833,-9.8339,-7.8045,0.59223,-0.36408,1.1683,6.0,34.62,15.78
6.4016,-10.025,-7.6274,0.47434,-0.69852,1.0091,7.14,34.74,15.18
4.7263,-10.542,-6.4016,-0.058643,-1.0794,0.50366,9.12,35.16,13.86
3.9635,-11.196,-6.2654,-0.4386,-0.60353,0.12248,9.84,35.34,13.2
3.7728,-11.632,-6.2926,-0.87079,0.21869,-0.28527,10.44,35.4,12.66
4.808,-12.108,-5.1621,-1.2501,1.1246,-0.93218,11.16,35.58,11.88
5.2983,-12.435,-4.808,-1.6414,1.2474,-1.3002,11.64,35.64,11.76
5.884,-12.967,-4.2632,-1.7917,1.0412,-1.6209,11.94,35.58,11.82
6.7693,-14.533,-3.4732,-1.8659,0.60048,-1.872,12.18,35.58,12.12
6.8647,-15.214,-3.1327,-1.8888,0.039095,-2.0336,11.88,35.34,12.42
6.7012,-15.691,-2.7786,-1.9346,-0.54672,-2.16,11.64,35.1,12.96
5.5435,-14.669,-2.3155,-2.0415,-1.102,-2.4206,10.92,34.98,14.4
4.9578,-13.866,-2.1112,-2.0711,-1.0989,-2.6927,10.44,34.92,15.18
3.7865,-12.435,-1.8115,-2.1102,-0.88484,-3.0143,9.72,34.74,15.9
3.0101,-10.801,-1.5391,-2.1939,-0.54978,-3.2965,7.74,34.26,17.7
3.0782,-10.61,-1.471,-2.2318,-0.30971,-3.518,6.66,34.02,18.78
3.0646,-10.569,-1.3757,-2.2275,-0.21289,-3.6942,5.34,33.78,19.92
3.0237,-10.828,-0.78998,-2.1802,-0.16066,-3.7315,2.64,32.94,21.9
2.8739,-10.883,-0.65378,-2.1041,-0.1518,-3.6295,1.14,32.46,22.98
2.833,-10.842,-0.47671,-2.076,-0.14172,-3.5314,-0.42,31.86,23.88
2.7104,-10.42,-0.27241,-1.8329,-0.10171,-2.883,-3.3,30.42,25.86
2.6287,-10.243,-0.28603,-1.7602,-0.12859,-2.6686,-4.38,29.58,26.88
2.5061,-10.038,0.36775,-1.6234,-0.25259,-2.1909,-5.58,28.74,27.66
1.5663,-9.902,1.4301,-1.4975,-0.5736,-1.6933,-8.04,26.7,29.22
1.0896,-9.8339,1.8251,-1.2642,-1.0244,-1.1606,-9.3,25.68,30.0
-1.2395,-9.221,2.2201,-0.98838,-1.4007,-0.53756,-11.1,23.4,31.5
-2.2201,-8.4991,2.4517,-0.66798,-1.2697,0.15577,-11.58,22.44,32.04
-2.4789,-8.1586,2.6696,-0.050396,-0.17959,1.1044,-12.0,21.3,32.64
-1.4982,-10.052,3.514,0.39645,0.53787,1.5968,-12.54,19.38,33.6
-0.24517,-10.733,3.4051,0.86132,0.98685,1.9639,-12.78,18.54,34.08
1.7298,-11.591,2.3836,1.3754,1.0599,2.2608,-12.84,17.34,34.68
3.1327,-12.258,1.5663,1.9526,0.82894,2.47,-12.78,16.98,34.8
3.6775,-12.762,1.1577,2.522,0.33598,2.5742,-12.66,16.86,34.74
4.413,-15.037,0.1362,3.1545,-0.52534,2.5931,-12.36,17.28,34.5
4.6173,-15.677,-0.25879,3.412,-0.9447,2.5717,-12.0,17.88,34.38
4.5764,-15.786,-0.83084,3.5369,-1.2089,2.5342,-11.46,18.54,33.9
4.6718,-13.879,-2.5879,3.5968,-1.6234,2.2914,-10.02,20.46,32.94
4.6037,-13.144,-3.3778,3.5623,-1.9487,1.9887,-9.36,21.54,32.46
3.8137,-12.163,-3.9771,3.4798,-2.0589,1.8146,-8.76,22.68,31.8
1.8387,-10.447,-3.3234,3.0901,-1.7849,1.3271,-6.96,25.32,30.06
0.8717,-9.8475,-3.3506,2.8167,-1.0595,1.1292,-5.88,26.52,29.1
0.31327,-9.8066,-4.4811,2.5155,-0.068111,1.055,-3.12,29.1,26.82
0.55843,-9.902,-4.8625,2.0195,1.4841,1.1362,-1.74,30.42,25.8
1.7979,-10.229,-5.38,1.7123,2.2003,1.3274,0.9,32.76,23.4
2.7649,-10.433,-5.5843,1.5708,2.4172,1.4413,2.22,33.66,22.08
3.3778,-10.365,-5.7478,1.1478,2.5568,1.7233,3.36,34.62,21.06
3.7728,-10.215,-5.9249,0.9053,2.343,1.8143,4.62,35.46,19.74
4.304,-9.4934,-6.3607,0.7199,2.0235,1.7935,6.6,36.72,17.4
4.6037,-9.0575,-6.6876,0.61697,1.6622,1.5919,7.62,37.08,16.32
5.7205,-9.1529,-7.6546,0.49663,0.8488,1.3958,9.48,37.98,14.28
6.0611,-9.5751,-7.8998,0.42608,0.48258,1.299,10.26,38.16,13.68
6.1428,-10.052,-7.7636,0.03146,-0.58154,0.91233,10.86,38.52,12.96
5.0531,-12.217,-6.5922,-0.31246,-0.8937,0.58032,11.76,38.82,11.82
4.7944,-12.967,-6.674,-0.71777,-0.75595,0.23702,12.18,38.82,11.4
4.5356,-13.62,-6.3471,-1.482,0.080023,-0.45418,12.6,38.82,10.98
4.9578,-14.056,-4.8897,-1.9016,0.59926,-0.97311,13.26,38.52,10.8
5.1621,-14.342,-4.0316,-2.1799,0.905,-1.5266,13.5,38.4,10.92
5.2847,-14.901,-3.6503,-2.3372,1.0171,-2.0403,13.68,38.34,10.98
5.5843,-15.786,-3.2689,-2.4315,1.0238,-2.4581,13.5,37.74,11.88
5.6797,-16.099,-2.8467,-2.4899,0.89278,-2.7972,13.26,37.44,12.48
5.1349,-15.35,-2.3563,-2.5751,0.53603,-3.2498,12.18,36.48,13.86
4.5901,-13.893,-1.866,-2.5717,0.33353,-3.5155,11.4,36.06,14.76
4.0589,-12.803,-1.6481,-2.5528,0.25473,-3.6346,10.38,35.46,15.6
3.8409,-12.095,-1.6753,-2.4639,0.068722,-3.9715,9.12,34.74,16.44
3.4323,-11.019,-1.4438,-2.3531,-0.043371,-4.1243,6.48,33.42,18.3
3.2825,-11.019,-1.3757,-2.2336,-0.20861,-4.211,4.92,32.76,19.2
3.2553,-11.114,-0.83084,-2.1151,-0.34697,-4.1908,3.24,31.86,20.22
2.8467,-11.223,-0.70826,-1.9765,-0.48472,-3.9462,-0.18,30.3,21.96
2.6015,-10.964,-0.57205,-1.9462,-0.48533,-3.7901,-1.8,29.34,22.86
2.5061,-10.61,-0.44947,-1.8705,-0.44349,-3.423,-3.42,28.32,23.7
1.9886,-9.9156,0.054481,-1.7477,-0.3375,-2.7519,-6.18,26.34,25.08
0.89894,-9.3027,0.50395,-1.7022,-0.22419,-2.2147,-7.5,25.26,25.68
0.28603,-8.4855,0.99429,-1.5574,-0.09896,-1.6948,-8.76,24.06,26.4
-0.36775,-8.2131,1.7434,-1.1588,0.05284,-0.85002,-10.98,21.84,27.18
-0.34051,-8.3765,1.8524,-0.99876,0.12187,-0.54306,-11.88,20.88,27.6
-0.31327,-8.3765,1.8932,-0.63835,0.28619,0.087354,-12.42,19.86,27.96
0.31327,-8.0632,1.7979,0.043066,0.44166,0.93187,-13.5,18.0,28.86
0.83084,-8.322,1.8387,0.53878,0.23396,1.3149,-13.74,17.22,29.22
1.0215,-9.507,2.3155,0.97769,-0.1127,1.6307,-14.04,16.62,29.4
1.0624,-11.305,2.2474,1.4755,-0.27397,2.1838,-14.22,15.6,29.76
1.6072,-12.313,1.9205,1.835,-0.1182,2.5775,-14.34,15.42,29.94
2.3836,-13.171,1.6072,2.1906,0.034208,2.9615,-14.16,15.42,29.94
4.0044,-14.533,0.8036,2.5687,0.032376,3.2364,-13.98,15.84,29.7
4.8625,-15.418,-0.040861,2.9013,-0.14539,3.3958,-13.62,16.2,29.52
5.2983,-15.895,-0.8036,3.1588,-0.50091,3.4123,-13.26,17.1,29.16
5.5843,-15.35,-2.1929,3.3317,-1.226,3.24,-12.24,18.78,28.38
5.5026,-14.451,-3.3642,3.299,-1.6814,3.0342,-11.46,19.8,27.72
4.9033,-13.225,-3.909,3.2428,-1.8344,2.9022,-10.86,20.82,27.0
2.6287,-11.237,-3.4187,2.9056,-1.7773,2.4496,-9.0,22.98,25.5
1.5255,-10.746,-3.1054,2.6887,-1.1979,2.1319,-7.92,24.12,24.78
0.9398,-10.488,-3.6366,2.4157,-0.19731,1.8295,-6.54,25.26,24.12
1.58,-10.678,-5.2438,1.9352,1.741,1.6863,-3.78,27.48,22.38
2.5061,-10.76,-5.4481,1.631,2.7226,1.7892,-2.22,28.44,21.36
3.5685,-10.883,-5.2711,1.3628,3.08,1.9609,-0.96,29.46,20.46
5.0531,-10.746,-5.598,1.1286,2.8515,2.1069,1.86,30.96,18.36
5.6933,-10.501,-6.2245,0.92363,2.2633,2.1658,3.12,31.68,17.52
5.8295,-9.8611,-6.7012,0.75656,1.6347,2.1221,4.5,32.1,16.5
5.8704,-8.8805,-7.1098,0.63713,1.1393,1.9746,7.08,32.94,14.94
6.1155,-8.5672,-7.3958,0.50152,0.47617,1.554,8.16,33.24,14.22
6.5241,-8.7306,-7.6683,0.36011,-0.025656,1.2043,9.48,33.6,13.68
6.8374,-9.5342,-7.0962,0.12492,-0.52046,0.81398,11.4,34.08,12.3
6.3471,-9.8884,-6.5105,-0.17868,-0.78435,0.36194,12.0,34.14,11.76
5.7614,-10.774,-6.279,-0.48289,-0.68539,-0.1182,12.6,34.2,11.22
5.2302,-11.809,-6.0202,-0.86621,-0.20586,-0.613,13.62,34.38,10.32
5.4754,-12.095,-5.6388,-1.3445,0.34972,-1.3201,13.98,34.26,10.14
5.8704,-12.83,-5.1485,-1.5916,0.36469,-1.7168,14.34,34.08,10.08
6.5105,-14.655,-4.2087,-1.7901,0.15302,-2.0241,14.76,33.96,10.44
6.6059,-15.732,-3.7456,-1.9261,-0.20831,-2.2697,14.94,33.9,10.56
6.1836,-16.794,-3.2144,-2.1041,-0.49511,-2.4645,14.88,33.9,10.86
5.5299,-16.957,-2.7786,-2.2407,-0.6524,-2.6264,14.22,33.72,11.82
4.9987,-16.413,-2.547,-2.4661,-0.49908,-2.9431,13.86,33.66,12.3
4.304,-14.724,-2.152,-2.5464,-0.28558,-3.2605,13.08,33.54,13.14
3.8409,-13.375,-1.6617,-2.5522,-0.13225,-3.6194,12.18,33.36,13.98
3.4732,-11.577,-1.362,-2.5238,-0.021991,-3.941,10.08,32.88,15.84
3.5004,-11.441,-1.2939,-2.4181,-0.024435,-4.2006,8.76,32.58,16.86
3.3642,-11.659,-0.92618,-2.2581,-0.11454,-4.3628,5.88,31.86,18.96
3.1735,-12.095,-0.61292,-2.1374,-0.1744,-4.2825,4.2,31.62,20.04
3.0646,-11.972,-0.54481,-2.0934,-0.19609,-4.1878,2.52,31.2,21.0
2.8739,-11.809,-0.5993,-1.9572,-0.21441,-3.7034,0.84,30.54,22.02
2.7377,-10.787,-0.24517,-1.8335,-0.23427,-3.2825,-2.52,29.22,23.94
2.3972,-10.256,0.17706,-1.7455,-0.30543,-2.8298,-4.08,28.32,24.9
1.9341,-9.7658,0.53119,-1.668,-0.35552,-2.3747,-5.52,27.42,25.74
0.25879,-8.9622,1.4982,-1.4313,-0.37202,-1.6973,-8.28,25.38,27.24
-0.35413,-8.8124,1.7298,-1.1664,-0.25168,-1.1765,-9.36,24.18,27.84
-1.4029,-8.6353,2.0567,-1.0241,-0.11484,-0.8717,-10.5,23.1,28.38
-1.5663,-7.9951,2.2882,-0.50793,0.41508,0.1179,-12.12,20.94,29.4
-1.0488,-8.1586,2.6151,-0.08094,0.63927,0.76633,-12.72,19.8,29.88
-0.6674,-9.2346,3.0237,0.36774,0.66218,1.3729,-13.5,18.72,30.3
0.77636,-10.964,3.0237,1.0595,0.62522,2.1976,-14.4,17.04,30.84
1.7706,-11.809,2.6287,1.5482,0.55803,2.7037,-14.64,16.38,31.2
2.4789,-12.027,2.2746,1.8033,0.48533,2.9337,-14.94,16.02,31.2
4.1542,-13.893,0.88532,2.5794,0.040317,3.4438,-15.18,15.78,30.96
4.7944,-14.955,0.054481,3.0476,-0.36011,3.6698,-15.18,15.96,30.84
5.1485,-15.827,-0.65378,3.3393,-0.79718,3.8121,-15.06,16.32,30.66
5.5026,-15.99,-2.6696,3.5073,-1.4985,3.8833,-14.58,17.88,30.0
5.5026,-15.445,-3.3915,3.4856,-1.9117,3.7971,-14.16,19.02,29.52
4.9987,-14.438,-3.9908,3.3115,-2.0476,3.6188,-13.56,20.16,29.04
2.9011,-12.544,-4.0589,3.0485,-1.7266,3.3445,-11.82,22.74,27.6
1.6753,-11.822,-3.8273,2.7672,-0.92516,3.0082,-10.62,24.12,26.76
1.1169,-11.564,-4.0589,2.5085,0.16738,2.6939,-9.06,25.44,25.92
1.4301,-11.673,-4.7944,2.1939,1.3644,2.4581,-5.88,28.02,24.06
2.3699,-11.754,-5.0123,1.6386,2.8414,2.3289,-4.26,29.28,23.1
3.2553,-11.782,-5.0395,1.2905,3.3057,2.306,-2.52,30.42,22.08
4.7807,-11.536,-5.0259,0.97769,3.3503,2.273,0.9,32.34,20.52
5.2438,-10.951,-5.1757,0.71502,3.1276,2.1829,2.52,33.12,19.56
5.5435,-10.27,-5.4754,0.52748,2.77,2.0476,4.14,33.78,18.78
6.2517,-8.6489,-5.9521,0.42486,2.0834,1.7669,7.26,34.68,17.46
6.6059,-8.4038,-6.279,0.41203,1.423,1.5211,8.52,34.86,16.86
7.2596,-8.322,-6.7829,0.36224,0.57208,1.2394,9.78,35.1,16.32
7.8045,-8.5808,-6.7421,0.25381,-0.26848,0.91355,11.88,35.4,15.3
7.0417,-8.9349,-6.1564,0.081856,-0.86804,0.53817,12.66,35.46,15.0
6.565,-10.079,-5.884,-0.13867,-0.98533,0.097128,13.2,35.46,14.7
5.8704,-11.468,-6.17,-0.4441,-0.70799,-0.37538,14.04,35.46,14.28
5.8704,-11.836,-5.6388,-0.98685,0.040012,-1.1863,14.4,35.34,14.22
6.1836,-12.626,-5.0531,-1.1212,0.15913,-1.438,14.7,35.22,14.22
6.5378,-13.797,-4.3449,-1.4789,0.18998,-2.1173,14.94,34.98,14.22
6.6876,-14.982,-3.9499,-1.5962,-0.029016,-2.4462,15.0,35.1,14.46
6.6467,-16.235,-3.514,-1.7174,-0.32681,-2.7248,14.64,34.92,14.88
6.5105,-16.644,-3.2144,-1.8017,-0.62797,-2.9606,14.34,34.86,15.12
5.9249,-16.521,-2.4244,-1.9361,-1.0018,-3.3314,13.32,34.62,15.9
4.7807,-14.764,-2.0567,-1.9896,-1.0458,-3.4804,12.54,34.56,16.5
4.2087,-13.716,-1.58,-2.0525,-1.0718,-3.8054,11.52,34.44,17.16
3.732,-12.871,-1.58,-2.1157,-1.0238,-4.2651,10.38,34.32,17.64
3.0373,-11.959,-1.3484,-2.1539,-0.92149,-4.4599,7.86,34.08,19.02
2.9284,-11.863,-1.185,-2.12,-0.78924,-4.554,6.42,33.72,19.74
2.7513,-12.04,-0.8036,-2.0656,-0.66859,-4.5571,3.24,33.24,21.36
2.7513,-12.04,-0.8036,-2.0012,-0.54245,-4.4046,3.24,33.24,21.36
2.4108,-11.468,-0.65378,-1.8744,-0.35919,-3.9331,-0.18,32.22,22.98
2.3699,-10.447,-0.7355,-1.7956,-0.22297,-3.4761,-1.86,31.5,23.82
2.0294,-9.1937,-0.55843,-1.7019,-0.16157,-2.9593,-5.22,29.94,25.2
1.471,-8.3765,-0.27241,-1.6603,-0.14111,-2.3964,-6.78,29.04,26.04
0.7355,-7.8045,0.054481,-1.5412,0.0015272,-1.5968,-8.22,28.08,26.76
0.040861,-7.5048,0.34051,-1.4526,0.086132,-1.3241,-9.66,27.06,27.54
0.40861,-7.7636,0.14982,-1.1909,0.2584,-0.75717,-12.18,24.84,28.62
0.6674,-7.7636,0.28603,-0.91599,0.36744,-0.17746,-13.08,23.58,29.34
0.83084,-7.5593,0.72188,-0.4441,0.33842,0.58032,-14.1,22.56,29.94
1.3076,-8.8396,1.866,-0.055589,0.26084,0.99205,-15.78,20.52,31.14
1.5663,-9.8611,2.4517,0.54581,0.27122,1.4481,-16.44,19.74,31.44
2.2474,-11.931,2.656,0.77549,0.27336,1.5589,-17.34,18.12,32.04
3.0101,-13.225,2.0567,1.536,0.12981,1.8543,-17.7,17.64,32.34
3.6775,-14.029,1.7162,2.0672,-0.20067,2.0476,-17.88,17.28,32.4
4.9987,-15.119,0.01362,2.4651,-0.64996,2.2623,-18.06,17.16,32.58
4.9714,-14.669,-0.68102,2.6273,-1.0614,2.4978,-17.82,17.46,32.46
4.6445,-12.572,-1.6208,2.6597,-1.3635,2.6789,-17.4,18.6,31.86
3.337,-11.264,-1.975,2.5415,-1.3741,2.7715,-16.98,19.38,31.5
2.656,-10.243,-2.3836,2.4474,-1.022,2.755,-16.5,20.34,31.14
2.0567,-9.5615,-2.547,2.3332,-0.39584,2.7067,-15.96,21.54,30.54
1.362,-9.0303,-2.547,2.1857,0.46365,2.6683,-14.28,23.7,29.4
1.4574,-9.1529,-2.5742,2.0238,1.3934,2.6789,-13.38,24.9,28.86
2.547,-9.9837,-2.942,1.9022,2.1912,2.7413,-12.36,26.1,28.26
3.8273,-10.964,-3.4323,1.8066,2.6609,2.8854,-10.2,28.62,26.88
4.7944,-11.727,-3.8273,1.7098,2.7242,3.0907,-8.88,29.82,26.1
5.7342,-12.258,-4.3313,1.6481,2.339,3.2923,-7.68,31.02,25.32
6.2654,-12.572,-4.7944,1.5437,1.2034,3.4169,-6.24,32.16,24.42
6.5241,-12.681,-6.2517,1.5052,0.4163,3.3005,-3.48,33.9,22.8
6.3198,-12.0,-6.8919,1.4059,-0.10873,2.8637,-1.86,34.56,22.02
6.1836,-11.223,-7.9679,1.3195,-0.38332,2.6591,1.32,35.88,20.28
6.2245,-11.101,-8.2131,1.1747,-0.49083,2.1756,3.0,36.3,19.38
6.1428,-11.06,-8.145,0.73395,-0.53726,1.3555,4.56,36.72,18.54
5.2438,-10.583,-7.2869,0.33323,-0.37354,0.79046,7.56,37.32,16.86
4.6037,-10.869,-6.8374,-0.027489,0.10599,0.27672,9.06,37.44,15.96
4.7399,-11.645,-7.0962,-0.4163,0.72388,-0.18509,10.38,37.56,15.18
5.4618,-11.359,-6.1292,-1.0024,1.3167,-0.75839,12.78,37.86,13.98
5.9657,-11.536,-5.3664,-1.1411,1.3561,-0.90988,13.62,37.92,13.56
6.2381,-11.713,-4.9033,-1.456,0.98716,-1.3515,14.4,37.98,13.26
6.8647,-12.994,-3.9363,-1.5458,0.46976,-1.595,15.3,38.1,13.02
6.9872,-13.757,-3.5685,-1.6115,-0.11057,-1.7767,15.54,37.98,13.2
6.9464,-14.329,-3.2553,-1.6884,-0.65301,-1.9346,15.42,37.98,13.5
5.5571,-13.988,-2.7786,-1.8207,-1.0776,-2.2526,15.0,37.86,14.4
4.7535,-13.007,-2.4653,-1.9206,-1.0021,-2.5659,14.4,37.62,15.12
4.127,-12.19,-2.1793,-1.9438,-0.90561,-2.7596,13.68,37.38,15.9
3.6775,-11.319,-2.0022,-2.0412,-0.53206,-3.3256,11.7,37.02,17.58
3.6094,-11.141,-1.7162,-2.0928,-0.40073,-3.6395,10.38,36.84,18.48
3.6094,-11.387,-1.4982,-2.1011,-0.39859,-3.8698,9.12,36.6,19.26
3.1599,-12.054,-1.1169,-2.0937,-0.4331,-4.0595,6.18,35.88,21.18
3.0373,-12.19,-0.89894,-2.1041,-0.36591,-4.0681,4.74,35.52,22.14
2.8875,-12.108,-0.77636,-2.0965,-0.1686,-3.9581,3.24,35.04,22.98
2.6696,-11.577,-0.57205,-2.0293,0.062308,-3.7437,0.18,34.02,24.84
2.5742,-10.992,-0.50395,-1.8851,0.2303,-3.4181,-1.44,33.36,25.5
2.4789,-10.351,-0.14982,-1.7281,0.26542,-3.0329,-3.06,32.64,26.34
1.471,-9.8203,0.51757,-1.427,0.071166,-2.3356,-6.18,30.78,27.84
0.77636,-9.6704,0.81722,-1.2178,-0.060781,-1.7871,-7.68,30.0,28.38
0.027241,-9.3163,1.2395,-1.0883,-0.06689,-1.4777,-9.12,29.04,28.92
-0.53119,-9.1801,1.58,-0.62736,0.053451,-0.50671,-11.52,27.12,30.0
-0.6674,-9.2346,2.0975,-0.28497,0.1741,0.086437,-12.66,26.22,30.6
-0.92618,-9.8475,2.6287,0.071166,0.27031,0.60964,-13.56,25.2,31.14
-0.83084,-10.665,2.9284,0.62064,0.58063,1.2993,-15.0,23.46,31.98
-0.20431,-11.536,2.7104,1.0211,0.80726,1.74,-15.72,22.74,32.16
0.36775,-11.959,2.5061,1.456,0.86712,2.1191,-16.26,22.02,32.46
2.3972,-13.321,1.4301,1.8876,0.59376,2.3983,-16.86,21.18,32.52
3.2825,-14.124,0.65378,2.2736,0.11423,2.572,-17.1,21.06,32.46
3.9635,-14.601,0.01362,2.6008,-0.43158,2.7049,-17.22,21.24,32.16
4.5628,-14.152,-1.5527,2.7684,-0.88484,2.8155,-16.98,22.2,31.44
4.6309,-13.443,-2.0022,2.8869,-1.3683,2.9395,-16.68,22.8,30.96
4.5628,-11.959,-2.942,2.9157,-1.6231,2.9111,-16.2,23.58,30.54
3.7592,-10.828,-3.6366,2.8787,-1.7135,2.7816,-14.82,25.44,29.28
2.7377,-10.161,-3.8409,2.7364,-1.4792,2.6316,-13.8,26.4,28.62
2.0294,-9.9565,-3.8273,2.5158,-0.88484,2.503,-12.84,27.54,27.9
1.362,-10.188,-4.2223,2.2684,0.035736,2.4303,-10.26,29.88,26.22
1.6208,-10.569,-4.6445,1.8292,1.5589,2.416,-8.64,31.02,25.32
2.0703,-10.733,-4.9578,1.5,2.3479,2.4526,-7.08,32.16,24.36
3.5685,-11.114,-5.2302,1.2358,2.7532,2.4923,-3.78,34.14,22.44
4.2223,-11.25,-5.5162,1.0003,2.828,2.5235,-2.04,35.1,21.36
4.8352,-11.114,-6.0066,0.79596,2.642,2.5201,-0.3,35.94,20.52
5.7069,-10.256,-6.5922,0.64202,2.2446,2.4465,3.18,37.08,18.78
6.1292,-10.093,-6.8238,0.51618,1.3861,2.2138,4.8,37.5,17.94
7.246,-10.106,-7.5593,0.46762,1.0275,2.1084,6.36,37.92,17.28
7.3958,-10.025,-7.2733,0.197,-0.047342,1.6328,9.18,38.46,15.84
6.9464,-9.9973,-6.6059,-0.024435,-0.39462,1.1942,10.44,38.64,15.18
6.3743,-10.46,-6.0611,-0.24496,-0.27703,0.67073,11.64,38.94,14.58
6.0066,-12.013,-6.4152,-0.551,0.19151,0.091935,13.62,38.88,13.68
6.4152,-12.286,-5.884,-0.91202,0.76328,-0.79351,14.28,38.88,13.44
7.0826,-12.79,-4.9987,-1.1808,0.77672,-1.0525,14.88,38.76,13.26
7.1507,-13.239,-4.3721,-1.507,0.46151,-1.7523,15.78,38.52,13.38
7.0417,-13.988,-3.7047,-1.5904,0.07422,-2.1136,16.14,38.46,13.74
6.5105,-15.159,-3.1599,-1.6964,-0.30604,-2.3934,16.08,38.04,14.4
5.993,-15.105,-2.9148,-1.799,-0.61606,-2.6334,15.96,37.92,14.88
4.7807,-13.92,-2.1929,-1.9032,-0.77427,-2.9077,15.54,37.8,15.54
4.2359,-13.007,-1.975,-1.9813,-0.63499,-3.3787,14.4,37.5,16.68
3.7728,-11.768,-1.866,-2.0259,-0.478,-3.7165,13.44,37.44,17.52
3.5958,-11.305,-1.757,-2.0327,-0.37935,-4.0299,12.42,37.32,18.3
3.5413,-11.06,-1.2803,-2.0082,-0.40348,-4.2867,9.54,36.84,20.1
3.2144,-11.182,-1.0896,-1.9575,-0.48411,-4.4251,7.98,36.54,21.0
3.1599,-11.7,-0.99429,-1.9038,-0.54214,-4.4248,4.38,35.94,23.16
3.0237,-11.863,-0.76274,-1.7791,-0.57757,-4.1172,2.46,35.4,24.24
2.9148,-11.768,-0.69464,-1.7019,-0.53909,-3.7498,0.66,34.92,25.26
2.9284,-11.441,-0.35413,-1.6267,-0.48869,-3.288,-3.12,33.42,27.18
2.6968,-11.223,-0.095342,-1.5803,-0.47556,-2.8143,-4.86,32.64,28.08
1.8932,-10.706,0.49033,-1.5956,-0.41081,-2.3372,-6.54,31.5,28.86
0.51757,-9.8611,1.3757,-1.5702,-0.21044,-1.8958,-9.84,29.22,30.6
-0.12258,-9.616,1.7298,-1.3039,0.197,-1.1945,-11.34,28.08,31.56
-0.70826,-9.398,2.0158,-1.1799,0.36621,-0.93493,-12.66,26.82,32.28
-1.2258,-7.9815,2.3699,-0.66065,0.78038,-0.10721,-15.06,24.18,33.72
-1.0896,-7.6546,2.4108,-0.18967,0.82925,0.44929,-15.84,22.92,34.38
-0.24517,-9.2755,2.6696,0.29719,0.67562,1.0095,-17.16,20.4,35.58
0.35413,-10.188,2.6287,0.77672,0.46548,1.5721,-17.7,19.44,35.94
0.96704,-11.264,2.3563,1.5015,0.23976,2.3821,-18.42,18.12,36.12
2.547,-12.081,1.8387,1.7568,0.16585,2.6139,-18.84,17.7,36.3
3.7728,-13.28,1.0215,2.3014,-0.081245,2.9578,-18.84,17.46,36.48
4.3313,-14.138,0.54481,3.113,-0.71166,3.2642,-18.9,17.52,36.42
5.1485,-16.031,-0.8036,3.4914,-1.2422,3.3445,-18.72,18.48,36.12
5.2438,-16.086,-1.7025,3.6664,-1.7752,3.2819,-18.3,19.32,35.82
5.1894,-14.41,-3.4459,3.6356,-2.4676,3.1163,-17.28,21.42,34.8
4.6718,-13.157,-4.0044,3.5528,-2.6313,2.988,-16.5,22.74,34.2
3.6094,-12.054,-4.2087,3.3136,-2.7223,2.6441,-15.36,24.24,33.48
1.0624,-10.488,-3.8954,2.8503,-1.9627,2.0385,-12.78,27.36,31.74
0.19068,-10.147,-3.9499,2.5366,-0.91935,1.7171,-11.22,28.86,30.9
-0.054481,-10.215,-4.8897,2.2055,0.36377,1.5076,-9.36,30.42,30.06
1.0896,-10.379,-5.2302,1.6515,2.1463,1.4294,-5.7,33.36,27.9
1.9341,-10.365,-5.2166,1.3335,2.872,1.4884,-3.78,34.74,26.94
2.5606,-10.27,-5.1757,1.0495,3.1114,1.5895,-1.92,35.94,25.68
3.6503,-10.038,-5.2438,0.81459,2.9453,1.6652,-0.18,36.96,24.6
4.8216,-9.2891,-5.7614,0.6521,2.4966,1.7031,3.06,38.82,22.5
5.2166,-8.7034,-6.2381,0.55772,1.8659,1.7028,4.5,39.48,21.54
5.7342,-8.3493,-6.8647,0.56658,0.71777,1.6023,7.32,40.62,19.74
6.0202,-8.7306,-7.3141,0.53298,-0.14294,1.4667,8.64,40.98,18.9
6.2109,-9.3436,-7.4367,0.46487,-0.56566,1.3833,9.66,41.16,18.18
5.3937,-10.283,-6.7012,0.048869,-1.4102,1.0605,11.46,41.52,16.92
4.7399,-11.414,-6.0747,-0.31734,-1.3244,0.748,12.12,41.7,16.26
4.1133,-12.272,-6.0611,-0.72632,-0.69822,0.37446,12.6,41.58,15.72
4.4539,-12.994,-5.2575,-1.2092,0.61117,-0.44104,13.5,41.34,15.42
4.9306,-13.198,-4.9306,-1.6738,1.0559,-0.99968,14.04,41.04,15.42
5.6252,-13.566,-4.2087,-1.8897,1.1649,-1.5638,14.28,40.86,15.6
6.3471,-14.669,-3.2553,-1.9731,0.94928,-2.0143,14.76,40.26,16.26
6.4016,-15.309,-3.0646,-2.0088,0.53603,-2.3582,14.82,39.96,16.86
6.279,-15.691,-2.833,-2.0889,0.082467,-2.6099,14.76,39.54,17.34
5.2847,-14.901,-2.261,-2.1719,-0.36072,-2.883,14.22,38.46,18.84
4.8352,-14.233,-2.0703,-2.2181,-0.41203,-3.0736,13.8,37.8,19.56
3.9908,-12.64,-1.7162,-2.2132,-0.343,-3.3109,13.14,37.14,20.34
3.4051,-10.692,-1.2531,-2.1579,-0.29077,-3.5348,11.22,35.76,22.32
3.3234,-10.052,-1.2531,-2.1115,-0.281,-3.7235,10.2,35.1,23.28
3.2961,-10.12,-1.0079,-2.0244,-0.36896,-3.8564,8.94,34.44,24.36
3.0646,-10.569,-0.70826,-1.9499,-0.53695,-3.8543,6.3,32.88,26.16
2.942,-10.787,-0.6674,-1.8445,-0.61758,-3.6988,4.86,32.34,27.06
2.8058,-10.801,-0.6674,-1.7853,-0.59498,-3.423,3.54,31.62,27.9
2.6968,-10.733,-0.35413,-1.7095,-0.52382,-3.0421,0.84,30.18,29.22
2.5061,-10.651,-0.23155,-1.6426,-0.4441,-2.6087,-0.3,29.46,29.76
2.2065,-10.188,0.12258,-1.5873,-0.35216,-2.1585,-1.38,28.68,30.36
0.91256,-9.4525,1.2122,-1.5269,-0.23335,-1.752,-3.54,27.12,31.2
0.42223,-9.3163,1.5119,-1.2538,0.000611,-1.1765,-4.56,26.4,31.8
-0.32689,-9.2891,1.975,-0.94867,0.18173,-0.72449,-5.4,25.74,32.4
-0.96704,-8.9349,2.261,-0.6295,0.38087,-0.23702,-6.66,24.36,33.12
-0.91256,-8.6898,2.3155,-0.22144,0.55008,0.29047,-7.38,23.64,33.48
-0.58567,-9.4117,2.6968,0.24038,0.65088,0.85246,-7.98,23.04,33.9
0.42223,-11.319,2.9284,0.71868,0.66768,1.4404,-8.7,22.26,34.68
1.3212,-12.0,2.8194,1.4755,0.54031,2.2006,-9.06,21.72,34.8
2.3155,-11.959,2.3155,1.7394,0.41875,2.3925,-9.36,21.6,34.98
3.8954,-13.334,1.2258,2.5947,-0.26145,2.7052,-9.66,21.84,34.92
4.413,-14.655,0.7355,3.0775,-0.78313,2.7923,-9.72,22.08,34.8
4.4402,-15.35,0.38137,3.3824,-1.1839,2.8393,-9.54,22.5,34.56
4.4811,-15.309,-1.471,3.529,-1.4025,2.8763,-8.82,24.06,33.84
4.4675,-14.506,-2.3291,3.4627,-1.5724,2.835,-8.22,25.08,33.06
4.3177,-12.721,-3.3778,3.3228,-1.6408,2.6979,-7.56,26.1,32.22
3.2825,-11.155,-3.8954,3.102,-1.5452,2.4444,-5.88,28.32,30.42
2.1656,-10.229,-3.5958,2.8146,-1.1493,2.1393,-4.5,29.4,29.46
1.5255,-9.793,-3.4596,2.5699,-0.44563,1.8717,-3.06,30.54,28.32
1.1169,-9.8611,-4.1542,2.3442,0.41753,1.6854,-1.62,32.76,25.92
1.5663,-10.106,-4.699,1.9419,1.7101,1.5708,1.74,33.96,24.72
2.942,-10.529,-5.1485,1.8069,2.0021,1.5828,5.1,35.58,22.08
3.9227,-10.637,-5.2711,1.4462,2.2345,1.6499,6.72,36.18,21.0
4.3858,-10.529,-5.5707,1.2425,1.9963,1.6729,8.46,36.78,19.74
4.6445,-10.243,-6.1564,1.0944,1.6243,1.6481,11.46,37.74,17.58
4.7126,-9.8475,-6.565,0.95814,1.2752,1.5623,12.78,37.92,16.5
4.8897,-9.4117,-6.96,0.78282,0.7199,1.3292,14.1,38.22,15.54
5.4481,-9.6023,-7.464,0.72815,0.46823,1.2434,16.56,38.34,13.74
5.6388,-10.202,-7.5184,0.47709,-0.37843,0.96395,17.58,38.4,13.08
5.4618,-10.529,-7.4776,0.16035,-0.79229,0.75808,18.6,38.64,12.42
4.808,-11.85,-6.7285,-0.18845,-0.85521,0.50671,19.98,38.7,11.1
4.522,-12.721,-6.7966,-0.58185,-0.57177,0.21625,20.58,38.7,10.62
4.5492,-13.116,-6.5786,-1.0754,-0.041233,-0.16799,21.0,38.64,10.14
5.0123,-13.225,-5.1076,-1.6958,0.53054,-0.83291,22.02,38.76,9.66
5.0804,-13.321,-4.2223,-1.9951,0.66615,-1.3103,22.44,38.88,9.54
5.1349,-13.661,-3.732,-2.1692,0.65943,-1.7443,22.62,39.12,9.66
5.3664,-14.873,-3.2825,-2.2675,0.54917,-2.0794,22.74,39.36,10.02
5.4481,-15.568,-3.2008,-2.3845,0.39706,-2.3274,22.56,39.54,10.5
5.2166,-15.895,-2.2474,-2.5369,0.2645,-2.5314,21.72,39.84,11.76
4.4402,-14.601,-1.757,-2.6841,0.23243,-2.8298,20.82,39.96,12.72
3.7728,-12.694,-1.3484,-2.689,0.28863,-3.0562,19.8,40.02,13.74
3.5685,-11.809,-1.2531,-2.605,0.33903,-3.2672,18.48,39.96,14.7
3.5277,-10.106,-1.1305,-2.4538,0.33689,-3.4468,15.42,39.84,17.34
3.5413,-10.038,-1.0624,-2.2804,0.18234,-3.5846,13.56,39.78,18.66
3.5822,-10.106,-0.58567,-2.1334,-0.039401,-3.6438,9.78,39.3,21.24
3.2825,-10.351,-0.35413,-1.9856,-0.44929,-3.5864,7.62,38.82,22.8
3.0237,-10.351,-0.21793,-1.9587,-0.54214,-3.5125,5.46,38.28,24.24
2.6423,-10.256,-0.1362,-1.8314,-0.58093,-3.167,3.36,37.56,25.56
2.5742,-10.202,0.068102,-1.7272,-0.47586,-2.8692,-0.6,36.0,28.2
2.5334,-10.038,0.17706,-1.6121,-0.37599,-2.5323,-2.52,34.98,29.4
1.6072,-9.7113,1.2258,-1.5311,-0.29016,-2.1597,-4.38,33.96,30.42
0.9398,-9.6023,1.7979,-1.2822,-0.18967,-1.5595,-7.68,31.68,32.28
-0.027241,-9.4798,2.1929,-0.99968,-0.11698,-1.0901,-9.0,30.54,33.06
-0.42223,-9.4389,2.2882,-0.65118,0.30085,-0.57757,-10.38,29.46,33.9
-1.1169,-8.5672,2.3018,-0.24099,0.56841,-0.0039706,-12.36,27.18,35.16
-0.85808,-9.1937,2.7104,0.25534,0.7025,0.6127,-13.14,26.16,35.64
-0.44947,-10.215,3.0237,0.88942,0.74281,1.6234,-14.52,24.24,36.48
0.89894,-11.986,2.8058,1.3186,0.73426,2.2232,-15.12,23.7,36.72
1.6617,-12.463,2.5334,1.7874,0.6463,2.6783,-15.48,23.16,36.84
2.2337,-12.612,2.0567,2.292,0.41172,2.9984,-15.72,22.98,36.9
3.2144,-14.369,0.91256,2.7901,0.08827,3.2101,-16.02,22.98,36.6
3.8546,-15.132,0.054481,3.1976,-0.26023,3.3482,-15.96,23.46,36.24
4.7399,-15.732,-1.8796,3.5201,-0.92332,3.4816,-15.18,24.9,35.16
5.3119,-14.887,-2.9284,3.5109,-1.1698,3.492,-14.88,25.98,34.5
5.1757,-13.457,-3.5685,3.3653,-2.0229,3.332,-14.28,27.0,33.48
4.7671,-12.749,-3.6911,3.2959,-2.2532,3.2223,-13.32,28.2,32.46
2.0975,-11.441,-3.8001,2.9205,-1.9798,2.8204,-10.86,30.84,30.48
1.8932,-11.087,-3.5685,2.6038,-1.1781,2.5299,-9.42,32.28,29.34
0.96704,-10.787,-4.0589,2.4007,-0.13073,2.3305,-7.68,33.66,28.2
1.6344,-11.046,-4.7944,2.1014,1.9768,2.2223,-3.78,36.42,25.5
2.4244,-11.182,-4.6718,1.6115,2.7642,2.1542,-1.74,37.62,24.12
3.3778,-11.25,-4.6582,1.4474,2.9557,2.1396,0.18,38.7,22.68
5.0531,-10.896,-5.1349,1.0241,2.8647,2.0763,4.08,40.56,20.34
5.4618,-10.447,-5.6661,0.81306,2.4447,1.963,6.0,41.22,19.08
5.7205,-9.9429,-6.0611,0.6634,1.9755,1.7886,7.92,41.7,17.16
6.1155,-8.9758,-6.6604,0.56902,1.489,1.5412,11.46,42.3,16.38
6.3198,-9.0031,-6.8238,0.46273,0.56719,1.1325,13.2,42.54,15.72
6.7012,-9.4934,-7.0145,0.30818,-0.082772,0.84849,14.58,42.6,15.0
5.9249,-10.161,-6.5241,0.062919,-0.49847,0.52687,17.04,42.6,13.62
5.4754,-10.869,-6.4152,-0.19303,-0.53451,0.17562,18.18,42.48,13.14
5.5026,-11.959,-6.9464,-0.46487,-0.35736,-0.20831,18.96,42.3,12.84
6.1428,-12.735,-6.2926,-0.8604,-0.14997,-0.62736,20.04,42.0,12.48
6.3743,-13.171,-5.9112,-1.3845,-0.3372,-1.2346,20.4,41.94,12.42
6.1836,-13.484,-5.1894,-1.7043,-0.56047,-1.6469,20.88,41.7,12.42
5.4754,-14.86,-4.0044,-1.9377,-0.71166,-1.9878,21.18,41.4,12.6
5.1894,-15.595,-3.6094,-2.1447,-0.72998,-2.2535,21.18,41.22,12.96
5.094,-15.977,-3.1463,-2.3375,-0.65118,-2.4923,21.0,41.22,13.32
4.304,-15.895,-2.3836,-2.5268,-0.44654,-2.7043,20.4,41.1,14.1
4.1133,-15.35,-2.1793,-2.7012,0.0036652,-3.069,19.68,40.98,14.82
3.732,-13.934,-1.7434,-2.7327,0.22083,-3.3533,18.84,40.86,15.6
3.3778,-11.536,-1.0624,-2.6793,0.33628,-3.6029,16.38,40.44,17.28
3.4459,-10.869,-0.98067,-2.5556,0.32529,-3.7886,14.76,40.2,18.24
3.4596,-10.733,-0.9398,-2.4007,0.18082,-3.8961,13.14,40.02,19.08
3.3097,-10.665,-0.61292,-2.2593,-0.047037,-3.9294,9.66,39.3,21.18
3.1599,-10.61,-0.36775,-2.1124,-0.35766,-3.7663,7.8,38.76,22.2
2.8603,-10.501,-0.23155,-2.0122,-0.45296,-3.5219,5.88,38.34,23.4
2.6968,-10.392,-0.20431,-1.9648,-0.47342,-3.3653,3.96,37.56,24.54
1.9613,-9.9292,0.38137,-1.8207,-0.49816,-2.8213,0.12,36.12,26.76
1.3757,-9.9565,0.68102,-1.711,-0.44135,-2.3815,-1.74,35.1,27.9
0.7355,-10.134,1.0215,-1.5873,-0.32956,-1.9325,-3.54,34.02,29.04
-0.17706,-10.351,1.8387,-1.2816,-0.094073,-1.1854,-5.22,32.94,30.06
-0.99429,-10.188,2.5606,-1.1588,0.0039706,-0.9166,-6.66,31.74,30.9
-1.7706,-9.112,2.7377,-0.70219,0.42699,-0.092241,-9.36,29.34,32.46
-1.7298,-8.7987,2.833,-0.25595,0.65607,0.40653,-10.26,28.14,33.24
-1.5119,-9.5615,2.9284,0.26084,0.76602,0.92454,-11.04,27.06,33.84
-0.54481,-11.141,3.0101,0.75381,0.85307,1.463,-12.54,25.2,34.92
0.77636,-12.217,2.833,1.2495,0.88423,2.2801,-13.02,24.3,35.28
2.5198,-12.871,1.866,2.043,0.62614,2.7028,-13.86,23.1,35.7
3.5549,-13.702,1.1577,2.2996,0.42669,2.8521,-14.1,22.92,35.82
4.2904,-14.683,0.64016,2.9642,-0.38057,3.1172,-14.04,22.86,35.88
4.808,-15.922,-0.49033,3.2642,-0.9444,3.2214,-13.74,23.52,35.46
4.8625,-15.827,-1.2395,3.3876,-1.346,3.2779,-13.44,24.18,34.92
4.6445,-13.62,-2.7786,3.3567,-1.7046,3.2428,-12.42,26.04,33.66
4.4402,-12.83,-3.0782,3.1792,-1.7691,3.0659,-11.64,27.18,32.94
3.6094,-11.741,-3.2416,3.0064,-1.4789,2.7776,-10.74,28.56,32.1
1.9068,-10.706,-3.0101,2.824,-0.79015,2.4932,-8.52,31.02,30.18
1.6072,-10.637,-3.3506,2.6093,0.16005,2.2669,-7.02,32.34,29.16
1.8932,-10.774,-3.909,2.3744,1.1756,2.1115,-5.46,33.48,27.84
3.1054,-11.278,-4.5083,1.9887,2.2043,2.0797,-1.92,35.88,25.44
4.018,-11.55,-4.6718,1.7272,2.4157,2.105,-0.06,36.84,24.18
4.4539,-11.618,-4.7263,1.4896,2.3115,2.1069,1.74,37.74,22.92
5.203,-11.373,-5.5571,1.2905,2.0546,2.0794,5.22,39.42,20.28
5.3256,-10.924,-6.1428,1.113,1.7715,1.9865,6.96,40.08,18.9
5.598,-10.42,-6.5378,0.95723,1.4551,1.8124,8.64,40.44,17.82
6.2517,-9.8748,-7.1915,0.82803,1.0638,1.5776,11.76,41.16,15.78
6.456,-9.7385,-7.3005,0.56841,0.29902,1.1536,13.2,41.28,14.94
6.674,-9.7522,-7.2869,0.47281,0.026573,0.98899,14.52,41.46,14.1
5.9657,-10.311,-6.7148,0.075442,-0.5061,0.42608,16.92,41.7,12.6
5.5571,-11.196,-6.6059,-0.22938,-0.44166,0.022297,17.88,41.7,11.94
5.2983,-12.108,-6.5378,-0.63255,-0.1347,-0.39065,19.08,41.94,11.22
5.5843,-12.381,-6.1836,-1.0363,0.16249,-0.83902,19.44,41.94,10.92
5.7069,-12.776,-4.9169,-1.5302,0.19853,-1.4239,20.1,42.12,10.68
5.993,-14.315,-4.1406,-1.6542,0.13775,-1.5907,20.22,42.12,10.68
5.9249,-14.901,-3.5685,-1.8879,-0.039401,-1.9047,20.04,41.94,10.98
5.9112,-15.418,-3.3097,-2.091,-0.33048,-2.2516,19.98,41.82,11.4
5.5299,-15.868,-2.833,-2.2333,-0.45937,-2.4422,18.9,41.64,12.3
5.0668,-15.309,-2.3836,-2.368,-0.48808,-2.7886,18.18,41.46,13.02
3.8001,-12.776,-1.4029,-2.4761,-0.40378,-2.9438,16.26,41.04,14.4
3.4051,-11.673,-1.185,-2.499,-0.25168,-3.2865,14.88,40.68,15.36
3.1463,-11.101,-1.0896,-2.4786,-0.050091,-3.7138,13.44,40.44,16.44
3.2008,-10.283,-1.0215,-2.3824,0.03207,-3.8805,10.02,39.72,18.42
3.228,-10.501,-1.0896,-2.2822,-0.0064141,-3.9801,8.28,39.24,19.62
3.2144,-10.801,-0.8036,-2.2,-0.11484,-3.9596,6.6,38.76,20.7
2.9965,-11.155,-0.42223,-2.1066,-0.28588,-3.6912,2.7,37.38,22.92
2.7922,-11.21,-0.38137,-2.0834,-0.30543,-3.54,0.72,36.6,24.12
2.7241,-11.155,-0.20431,-2.0238,-0.27855,-3.1719,-1.2,35.7,25.02
2.2474,-10.828,0.23155,-1.9319,-0.18234,-2.5091,-5.1,33.6,27.0
1.5391,-10.283,1.0488,-1.8665,-0.040012,-2.0421,-6.78,32.52,27.96
0.99429,-10.256,2.0567,-1.7291,0.053451,-1.6243,-8.28,31.26,28.68
-0.24517,-10.243,2.3427,-1.3375,0.18754,-0.99113,-11.16,28.8,30.18
-0.7355,-9.7385,2.5334,-1.0162,0.4102,-0.51221,-12.54,27.42,30.78
-1.1032,-9.1256,2.4653,-0.55008,0.63744,0.015882,-13.68,26.04,31.32
-0.7355,-9.5206,2.8467,0.027489,0.65027,0.56963,-15.54,23.76,32.4
-0.24517,-10.924,2.9829,0.59468,0.49358,1.182,-16.44,22.62,32.76
0.34051,-11.768,2.9148,1.1008,0.32956,1.7825,-17.16,21.6,33.06
2.0975,-12.64,2.2746,1.8961,-0.081551,2.5128,-18.18,20.16,33.36
2.833,-13.28,1.6889,2.412,-0.45815,2.791,-18.42,19.86,33.3
3.6094,-14.547,0.8036,2.6405,-0.6692,2.8744,-18.54,19.68,33.42
3.732,-14.928,0.38137,3.1609,-1.1634,2.9627,-18.36,19.98,33.12
3.9227,-15.268,-0.8717,3.3222,-1.3182,2.9835,-18.0,21.18,32.58
3.8682,-13.511,-2.3563,3.2852,-1.3561,2.9764,-17.1,23.1,31.68
3.8001,-12.681,-2.8058,3.1591,-1.3039,2.9584,-16.44,24.42,30.84
3.3915,-11.291,-3.3778,2.8518,-1.0895,2.7871,-14.76,27.0,29.52
2.6696,-10.515,-3.2144,2.6392,-0.68936,2.6139,-12.6,29.64,27.96
2.0022,-10.147,-3.0373,2.4141,-0.042761,2.4386,-10.08,31.98,26.64
1.8251,-10.324,-3.3778,2.1841,0.78496,2.3094,-7.32,34.08,25.26
2.8467,-10.828,-3.9499,1.9691,1.5834,2.2675,-4.5,35.82,23.64
3.9363,-11.427,-4.4402,1.7642,2.1304,2.3078,-1.62,37.44,22.08
4.9442,-11.782,-4.6718,1.5693,2.2752,2.3552,1.02,38.34,20.34
5.3528,-11.85,-4.8897,1.3097,1.8815,2.3372,2.28,38.76,19.74
5.775,-11.577,-5.6661,1.1588,1.4801,2.2211,4.5,39.54,18.24
6.0202,-10.869,-6.4833,1.0226,1.0647,2.0207,6.84,40.08,16.68
6.1019,-10.351,-6.8647,0.91111,0.63683,1.7135,7.92,40.26,15.9
6.3335,-9.7113,-7.355,0.77702,0.20525,1.372,9.72,40.74,14.52
6.3471,-9.7113,-7.4095,0.50885,-0.41325,0.8039,10.5,40.98,13.8
6.1019,-9.9292,-7.2052,0.23854,-0.68814,0.42272,11.34,41.16,13.14
5.4754,-11.482,-6.9328,-0.050091,-0.70219,0.057727,12.72,41.58,11.88
5.3119,-12.054,-7.2324,-0.47128,-0.53603,-0.27184,13.08,41.58,11.34
5.2847,-12.054,-6.7148,-0.94684,-0.30574,-0.6353,13.56,41.64,10.92
5.3937,-12.449,-5.2166,-1.3375,-0.2306,-0.98135,14.1,41.82,10.5
5.4754,-12.858,-4.7399,-1.8076,-0.25015,-1.47,14.34,41.94,10.26
5.6524,-14.601,-4.0044,-1.9108,-0.27703,-1.6038,14.4,41.88,10.2
5.598,-15.35,-3.7456,-2.2113,-0.38912,-1.9114,14.1,41.7,10.86
5.4481,-16.222,-3.1191,-2.3686,-0.37965,-2.1017,13.92,41.58,11.22
5.0395,-16.494,-2.7649,-2.5717,-0.23274,-2.2804,13.38,41.46,11.64
4.1678,-14.574,-1.8251,-2.7727,0.07086,-2.5366,11.82,40.98,13.2
3.7184,-12.926,-1.4165,-2.7975,0.49511,-3.0168,10.68,40.68,14.22
3.5004,-11.591,-1.1305,-2.7797,0.59315,-3.1783,9.42,40.26,15.3
3.6503,-10.215,-1.1713,-2.6017,0.70891,-3.5885,6.36,39.12,17.46
3.8137,-10.202,-1.1169,-2.4374,0.54459,-3.7519,4.68,38.52,18.66
3.8954,-10.351,-0.98067,-2.2755,0.24038,-3.8466,2.94,37.92,19.98
3.8954,-11.128,-0.51757,-2.1267,-0.14325,-3.8124,-0.66,36.24,22.26
3.5958,-11.346,-0.40861,-1.9978,-0.58949,-3.5592,-2.64,35.1,23.58
3.1599,-11.591,-0.23155,-1.9603,-0.65301,-3.4153,-6.54,32.82,26.1
2.8603,-11.564,-0.027241,-1.872,-0.68692,-3.0818,-8.28,31.44,27.18
2.5198,-11.332,0.20431,-1.7712,-0.49938,-2.5635,-9.96,30.0,28.26
1.8932,-11.114,0.70826,-1.6967,-0.3091,-2.204,-11.64,28.56,29.1
-0.095342,-10.229,2.1793,-1.5574,-0.099876,-1.8491,-14.34,25.26,30.42
-1.0896,-9.8884,2.5742,-1.2785,0.13378,-1.4212,-15.48,23.58,30.9
-1.9341,-8.7443,2.3563,-0.73945,0.55894,-0.57513,-17.46,20.46,31.86
-1.6481,-8.2267,2.2337,-0.21014,0.78924,0.13073,-18.18,19.14,32.4
-0.61292,-9.6432,2.833,0.076664,0.79993,0.4835,-18.66,17.64,32.64
-0.12258,-10.406,2.8875,0.8604,0.48717,1.5632,-19.2,16.2,32.88
1.362,-11.591,2.547,1.3674,0.22755,2.1347,-19.62,13.86,33.18
2.1656,-11.795,2.1929,1.8686,-0.032681,2.6924,-19.74,13.08,33.06
2.9148,-12.054,1.3076,2.3448,-0.29902,2.7871,-19.86,12.3,32.7
3.4323,-12.776,0.8036,2.7999,-0.56902,2.8973,-19.8,12.42,32.52
3.8409,-13.648,0.28603,3.3448,-0.8885,2.9373,-19.68,12.72,32.1
4.2632,-14.574,-0.9398,3.5858,-1.0473,2.9554,-19.32,13.92,31.44
4.4811,-14.315,-1.7706,3.6493,-1.2242,3.0067,-19.02,15.0,30.84
4.6718,-12.762,-3.6094,3.6368,-1.4914,3.0326,-18.18,17.52,29.7
4.5083,-12.054,-4.0316,3.4303,-1.8876,2.9215,-17.34,18.84,29.04
3.7047,-11.441,-3.8273,3.1899,-1.8424,2.722,-16.38,20.28,28.5
2.7786,-10.855,-3.6366,2.9563,-1.3983,2.4887,-15.3,21.9,27.84
1.2803,-10.665,-4.2768,2.7125,-0.55864,2.2645,-12.48,25.2,26.16
1.2803,-10.992,-4.8488,2.4456,0.50396,2.0681,-11.04,26.88,25.32
1.7979,-11.482,-5.38,2.1356,1.5501,1.9535,-9.48,28.44,24.48
3.6775,-12.054,-5.9793,1.6109,2.3124,1.9099,-6.18,31.32,22.38
4.4402,-11.795,-6.279,1.3011,2.2642,1.8466,-4.5,32.52,21.36
4.985,-11.237,-6.6195,1.04,1.9093,1.7104,-3.0,33.48,20.34
5.3392,-9.9292,-6.9872,0.83414,1.4416,1.4856,0.3,35.28,18.42
5.5026,-9.4117,-7.2596,0.69914,0.95845,1.233,1.86,35.94,17.52
5.5707,-9.6023,-7.5048,0.54947,0.42241,0.97861,3.36,36.54,16.56
5.4754,-9.9565,-7.5184,0.3317,-0.072998,0.72876,5.76,37.38,14.7
5.0668,-10.134,-7.1507,0.035736,-0.41356,0.46334,6.72,37.8,13.8
4.7671,-10.351,-6.7421,-0.29627,-0.43585,0.17593,7.5,38.1,13.02
4.522,-12.0,-6.5514,-0.80451,0.021991,-0.32467,8.64,38.34,11.76
5.094,-12.612,-6.3471,-1.1658,0.28436,-0.6857,9.0,38.4,11.4
5.6116,-13.157,-5.8976,-1.5079,0.27397,-1.0171,9.3,38.34,11.04
6.0066,-14.41,-4.4266,-1.8848,-0.067501,-1.4563,9.66,38.1,11.1
5.9249,-14.778,-4.0861,-2.0959,-0.33323,-1.7394,9.6,37.98,11.16
5.4209,-15.228,-3.5413,-2.1875,-0.4218,-1.8665,9.48,37.86,11.46
4.8625,-15.35,-2.8875,-2.4319,-0.42089,-2.2049,9.06,37.26,12.42
4.413,-14.996,-2.3291,-2.5479,-0.25412,-2.4261,8.64,36.96,12.9
4.1678,-14.247,-1.9613,-2.6368,-0.048258,-2.6768,8.04,36.6,13.56
3.6366,-11.809,-1.3893,-2.6383,0.15638,-3.0525,6.54,35.4,15.3
3.5413,-10.883,-1.2395,-2.5736,0.19548,-3.251,5.64,34.74,16.08
3.5413,-10.447,-1.1169,-2.4661,0.15547,-3.3918,4.44,34.14,16.92
3.514,-10.134,-0.95342,-2.3552,0.019548,-3.496,2.04,32.94,18.96
3.4323,-10.243,-0.5993,-2.2669,-0.14508,-3.5317,0.72,32.22,19.86
3.2689,-10.447,-0.21793,-2.1802,-0.29841,-3.4725,-0.54,31.44,20.76
3.0101,-11.032,0.28603,-2.0125,-0.40073,-3.2532,-3.18,29.76,22.32
2.8194,-11.155,0.28603,-1.9166,-0.43768,-2.999,-4.44,28.74,22.98
2.6968,-11.468,1.1032,-1.8463,-0.45662,-2.8347,-5.64,27.72,23.76
0.96704,-10.774,2.833,-1.6719,-0.71716,-2.1765,-8.16,25.68,25.02
-0.47671,-9.3299,4.0861,-1.3179,-1.0143,-1.6215,-9.18,24.66,25.8
-1.6208,-8.7034,4.1951,-0.82222,-1.1099,-0.95387,-10.2,23.52,26.52
-2.8058,-8.2539,4.3721,0.2306,-0.87201,0.043982,-11.52,21.66,27.48
-2.5742,-8.5536,4.1814,0.88392,-0.67104,0.59743,-11.94,20.76,28.08
-2.2474,-9.3844,4.2359,1.339,-0.46945,1.0687,-12.36,19.8,28.5
-1.5391,-12.367,4.2359,1.6451,-0.13317,1.4713,-12.66,18.42,29.16
-0.6674,-13.484,3.8818,1.9215,0.39492,1.8421,-12.84,17.88,29.52
0.84446,-14.451,3.0646,2.2703,0.84696,2.2028,-12.96,17.64,29.82
3.7592,-15.922,1.4846,2.6872,0.86407,2.4954,-12.72,17.64,30.0
4.5083,-16.399,0.92618,3.1838,0.1854,2.6851,-12.48,17.88,30.0
4.8625,-16.385,0.29965,3.39,-0.46823,2.6493,-12.36,18.3,29.82
4.5901,-16.045,-1.3484,3.514,-1.0073,2.5629,-11.58,19.86,29.16
4.2495,-14.805,-3.0918,3.5357,-1.4004,2.4038,-11.1,20.7,28.56
3.7592,-13.552,-4.0861,3.4453,-1.638,2.2495,-10.5,21.84,27.84
2.3563,-11.564,-4.413,3.2,-1.536,2.0418,-9.18,24.24,26.22
1.5119,-10.583,-3.9635,2.7205,-0.68936,1.6744,-8.28,25.38,25.38
1.0351,-9.9837,-3.9635,2.5699,-0.29993,1.5501,-7.32,26.58,24.54
1.0624,-9.5206,-4.9306,2.1319,0.99754,1.2874,-5.22,28.8,22.62
1.7298,-9.6841,-5.1621,1.828,1.7819,1.1854,-4.02,29.94,21.48
2.3427,-9.5479,-4.9442,1.5085,2.2364,1.1286,-2.88,30.9,20.28
3.3642,-9.7249,-4.985,1.2795,2.3647,1.0892,-0.78,32.46,18.06
3.6911,-9.7522,-5.2575,0.9783,2.1475,1.0302,0.36,33.12,17.04
3.9635,-9.7113,-5.4345,0.89858,2.0171,1.007,1.5,33.72,15.9
4.413,-9.4117,-5.8976,0.74373,1.4997,0.91172,3.66,34.56,14.1
4.6173,-9.4798,-6.3198,0.68783,1.0684,0.8207,4.5,34.92,13.32
4.9033,-9.8066,-6.7693,0.58307,0.55528,0.7138,5.4,35.16,12.54
5.094,-10.283,-7.0553,0.40745,0.03146,0.61117,6.84,35.64,11.22
5.0123,-10.61,-6.8919,0.010385,-0.56902,0.39951,7.26,35.94,10.44
4.3585,-11.754,-6.0066,-0.34239,-0.5901,0.1854,8.16,36.36,9.06
4.127,-12.449,-6.1973,-0.71838,-0.29871,-0.054672,8.34,36.6,8.58
4.1814,-12.49,-6.0202,-1.1582,0.13897,-0.35675,8.52,36.66,8.4
4.413,-12.572,-5.5843,-1.5418,0.42638,-0.69516,8.7,36.78,8.28
4.7671,-13.089,-4.3858,-1.8671,0.50855,-1.0461,9.0,36.84,8.52
4.8625,-13.484,-3.7456,-2.2025,0.45907,-1.5009,8.94,36.96,8.76
5.1213,-14.71,-3.3097,-2.3372,0.33934,-1.711,9.06,36.72,9.78
5.3392,-15.868,-2.8603,-2.4581,0.21655,-1.8405,9.12,36.6,10.26
5.3664,-16.181,-2.5334,-2.6295,0.10385,-1.9532,9.18,36.36,10.74
4.5901,-14.942,-1.8115,-2.8106,0.08491,-2.1276,8.76,35.94,11.94
3.6366,-13.389,-1.4438,-2.8488,0.27611,-2.3753,8.22,35.82,12.84
3.0237,-10.719,-1.1032,-2.8295,0.60262,-2.6844,6.78,35.46,14.34
3.1872,-10.025,-1.0079,-2.6976,0.98227,-3.1967,5.82,35.34,15.24
3.1463,-9.7794,-0.96704,-2.5638,1.0125,-3.4737,4.74,34.98,16.26
3.3778,-9.8475,-0.42223,-2.4273,0.89736,-3.6374,2.52,34.56,18.0
3.337,-10.065,-0.32689,-2.2675,0.64721,-3.6878,1.14,34.32,18.9
3.2825,-10.188,-0.10896,-2.0925,0.37385,-3.6062,-0.24,33.78,19.74
2.7922,-10.243,-0.081722,-1.9114,0.15485,-3.3759,-3.54,32.76,21.3
2.2337,-10.12,0.20431,-1.6808,-0.057727,-2.7868,-5.22,32.28,22.14
1.7025,-9.5479,0.50395,-1.6008,-0.11637,-2.5522,-7.02,31.38,23.04
0.14982,-8.54,1.2939,-1.3241,-0.29138,-1.7681,-10.38,29.88,24.9
-0.64016,-8.4719,1.7025,-1.0712,-0.3207,-1.2181,-12.06,28.98,25.92
-1.58,-8.6625,2.0294,-0.81092,-0.18662,-0.63499,-14.52,26.76,27.6
-1.6344,-8.5536,2.2065,-0.51679,0.072693,-0.024129,-15.6,25.8,28.44
-1.2531,-8.5536,2.4517,0.048564,0.37843,0.83689,-17.4,23.82,30.0
-0.38137,-10.842,2.9556,0.25931,0.40012,1.1115,-18.18,22.68,30.78
0.46309,-12.503,3.1191,0.63835,0.43921,1.671,-18.84,21.9,31.26
1.1305,-13.225,2.9965,1.2905,0.55314,2.5104,-19.38,21.06,31.74
3.2553,-13.579,1.7706,1.7929,0.43433,2.9593,-19.98,20.4,32.22
4.2768,-14.029,1.1169,2.3515,0.030849,3.277,-19.92,20.28,32.52
4.9306,-15.527,0.054481,2.8045,-0.53573,3.3011,-19.5,20.7,32.4
4.9578,-16.222,-0.89894,3.1533,-1.1054,3.2755,-19.08,21.42,32.1
4.6718,-15.868,-1.5119,3.3204,-1.566,3.1573,-18.54,22.2,31.68
4.2087,-13.579,-3.4187,3.2513,-1.8824,2.9529,-17.1,24.06,30.66
3.5413,-12.217,-3.7865,3.0274,-1.8134,2.7987,-16.2,25.38,30.18
2.656,-10.801,-3.4459,2.5928,-1.1716,2.3277,-13.86,27.9,28.8
1.2939,-9.7794,-3.3234,2.4312,-0.5174,1.9951,-12.42,29.22,28.08
0.89894,-9.6432,-3.732,2.2929,-0.090408,1.8928,-10.86,30.78,27.24
1.1441,-9.6432,-3.9908,2.0012,0.90378,1.7193,-9.3,31.98,26.34
2.5061,-9.8748,-4.3177,1.6041,2.0177,1.5928,-5.94,34.44,24.3
3.1735,-10.106,-4.5764,1.3885,2.3518,1.609,-4.2,35.58,23.22
3.9499,-10.379,-4.6445,1.1878,2.3589,1.6487,-2.58,36.48,22.32
4.9306,-10.12,-5.0668,1.0232,1.9309,1.6448,0.42,38.1,20.28
5.0804,-9.9292,-5.3664,0.89309,1.7248,1.6283,1.92,38.7,19.44
5.1757,-9.5342,-5.8567,0.7929,1.3051,1.5406,3.24,39.18,18.66
5.5162,-9.6023,-6.5241,0.67104,0.65027,1.3207,5.76,40.2,17.1
5.8976,-10.065,-6.9055,0.57788,0.1573,1.1487,6.96,40.5,16.32
5.9249,-10.529,-6.96,0.37141,-0.29444,0.93829,7.92,40.68,15.42
5.5707,-11.577,-6.3607,-0.000611,-0.613,0.51557,9.54,41.1,14.22
5.3664,-12.503,-6.6331,-0.27886,-0.5397,0.14875,10.26,41.22,13.74
5.2847,-12.817,-6.7285,-0.72724,-0.2813,-0.27642,10.8,41.34,13.32
5.1213,-12.681,-5.6661,-1.1445,-0.071471,-0.76664,11.88,41.64,12.96
4.8216,-12.231,-4.7126,-1.5333,0.037874,-1.2223,12.18,41.64,12.9
4.5356,-12.245,-3.732,-1.8213,0.15882,-1.6823,12.48,41.64,12.9
4.3994,-12.503,-3.337,-1.9667,0.25168,-2.047,12.78,41.64,13.26
4.7399,-14.342,-3.2008,-2.0956,0.30116,-2.3668,12.84,41.28,14.04
4.985,-15.119,-2.9829,-2.1936,0.20678,-2.4725,12.78,41.16,14.7
4.9987,-15.214,-2.547,-2.3106,0.056505,-2.5381,12.48,40.92,15.42
4.4675,-13.471,-1.58,-2.4016,-0.090713,-2.627,11.1,40.32,17.22
4.0725,-12.122,-1.2667,-2.3827,-0.15119,-2.6954,10.38,39.78,18.42
3.6094,-10.828,-1.076,-2.2764,-0.28772,-2.9767,9.36,39.36,19.44
3.4732,-10.025,-1.1169,-2.1878,-0.31948,-3.0488,6.9,38.34,21.66
3.337,-9.9429,-0.99429,-2.0412,-0.4383,-3.1704,5.7,37.86,22.92
3.2961,-9.9973,-0.83084,-1.9994,-0.47586,-3.1811,4.32,37.2,24.12
2.942,-10.038,-0.49033,-1.9404,-0.49694,-3.1014,2.76,36.54,25.32
2.547,-9.9973,-0.21793,-1.9016,-0.39218,-2.9697,-0.24,34.92,27.48
2.1793,-10.052,0.10896,-1.8225,-0.22785,-2.682,-1.74,34.14,28.32
1.6753,-10.174,0.47671,-1.6988,-0.0039706,-2.4068,-4.74,32.46,30.12
1.1441,-9.8339,0.89894,-1.5889,0.062614,-2.0803,-6.12,31.32,30.9
0.53119,-9.3163,1.2803,-1.408,-0.029016,-1.6829,-7.38,30.24,31.68
-0.24517,-9.3163,1.8251,-1.0696,-0.19853,-1.1906,-9.36,27.9,32.94
-0.55843,-9.8339,2.0567,-0.76664,-0.33506,-0.58002,-10.38,27.0,33.36
-1.1032,-9.4117,2.261,-0.44104,-0.31857,0.030849,-11.22,26.04,33.96
-1.1986,-9.9837,2.7786,0.19731,-0.18631,0.81917,-12.36,24.18,34.74
-0.89894,-11.319,3.1191,0.61911,0.11454,1.2755,-13.02,23.28,35.28
-0.44947,-11.904,3.2144,1.0421,0.47739,1.708,-13.5,22.62,35.58
0.64016,-12.994,2.8875,1.5262,0.64141,2.1338,-13.68,22.02,35.76
2.8875,-13.675,1.6481,2.0803,0.55222,2.4511,-13.92,21.54,36.06
3.5549,-13.988,0.9398,2.642,0.17746,2.6518,-14.04,21.54,36.06
4.2904,-14.574,-0.62654,3.2321,-0.54398,2.737,-13.98,22.14,35.7
4.2223,-14.547,-1.5119,3.4007,-1.0281,2.6954,-13.8,22.86,35.28
4.1133,-13.893,-2.4517,3.3665,-1.3644,2.6078,-13.44,23.76,34.8
3.4732,-12.027,-3.6503,3.1686,-1.5033,2.5027,-12.36,25.92,33.48
2.9965,-11.141,-3.4459,2.9007,-1.3977,2.386,-11.64,27.12,33.0
1.866,-10.256,-2.9284,2.6221,-1.0186,2.2101,-10.74,28.26,32.28
1.0079,-9.7385,-3.1191,2.3503,0.26023,2.076,-8.7,30.72,30.66
1.1169,-9.8066,-3.5004,1.9994,1.2474,2.0152,-7.32,31.8,29.46
1.9341,-10.12,-3.9227,1.8036,2.0589,2.0311,-6.0,32.94,28.38
3.7865,-10.597,-4.4539,1.6078,2.4587,2.1035,-3.18,35.1,26.34
4.7263,-10.964,-4.7671,1.4407,2.3711,2.1686,-1.62,36.0,25.2
5.4618,-11.06,-5.2847,1.2691,1.8482,2.0745,1.5,37.74,22.98
5.598,-10.447,-6.0611,1.1112,0.90286,1.8882,2.94,38.4,22.08
5.4618,-10.134,-6.279,0.97066,0.42028,1.6289,4.5,39.0,21.18
5.2575,-9.902,-6.7421,0.9163,0.056505,1.2975,6.0,39.42,20.34
4.985,-10.637,-7.4912,0.7816,-0.25565,0.93249,8.7,40.02,18.78
4.6718,-10.91,-7.069,0.50396,-0.43952,0.63133,9.9,40.2,17.7
4.0861,-10.869,-6.5514,0.14478,-0.38362,0.38759,10.98,40.38,16.8
3.9363,-11.427,-6.1564,-0.20861,0.027794,0.0067195,12.78,40.8,15.54
4.1951,-11.931,-6.5786,-0.70677,0.26695,-0.23671,13.44,41.1,15.06
4.7671,-11.931,-6.2245,-1.0394,0.38729,-0.4945,14.1,41.16,14.64
5.3664,-12.694,-4.7807,-1.2691,0.26756,-0.74678,14.82,41.4,14.22
5.4754,-12.844,-4.4402,-1.5501,0.0067195,-1.0046,15.12,41.34,14.16
5.2711,-12.898,-3.7728,-1.7926,-0.26359,-1.2743,15.24,41.16,14.1
5.2847,-13.253,-3.4459,-1.9774,-0.59468,-1.5992,15.36,41.1,14.22
4.8761,-14.383,-2.9829,-2.1347,-0.69333,-1.7584,15.18,40.8,14.7
4.5901,-14.097,-2.6696,-2.3106,-0.67592,-1.9221,14.94,40.38,15.18
4.3858,-13.729,-2.4108,-2.4911,-0.51954,-2.1087,14.46,40.14,15.72
3.5685,-11.509,-1.5936,-2.6576,-0.30879,-2.3903,13.14,39.54,17.4
3.2825,-10.42,-1.1986,-2.6912,-0.12431,-2.7602,12.3,39.24,18.24
3.0918,-10.147,-0.92618,-2.6441,-0.015882,-3.1243,11.22,38.76,19.26
3.0918,-10.61,-0.95342,-2.5045,0.047647,-3.5109,8.7,37.92,21.24
3.1191,-11.237,-0.77636,-2.4343,0.015882,-3.58,7.38,37.5,22.38
3.1599,-11.782,-0.58567,-2.3836,-0.018326,-3.4978,5.88,36.78,23.52
2.833,-12.19,-0.5993,-2.3634,0.12431,-3.2742,2.7,35.22,25.5
2.3018,-11.904,-0.40861,-2.3301,0.45051,-3.04,1.14,34.38,26.64
2.0294,-11.25,-0.01362,-2.2648,0.73609,-2.8585,-0.36,33.36,27.6
1.2395,-10.025,1.0624,-2.1973,0.84788,-2.423,-3.54,31.32,29.46
0.64016,-9.3708,1.3212,-1.9975,0.63469,-2.0152,-5.22,30.12,30.36
0.27241,-8.9349,1.4165,-1.6701,0.3656,-1.4655,-6.78,28.8,31.26
-0.85808,-8.3901,1.6072,-1.2266,0.27886,-0.78924,-8.28,27.54,31.86
-1.7025,-7.6819,2.261,-0.76816,0.3708,-0.1069,-10.92,24.96,33.06
-1.362,-8.0905,2.4517,-0.23854,0.42852,0.49541,-12.06,23.58,33.54
-0.8036,-9.4661,2.6696,0.28069,0.46823,1.3179,-13.14,22.32,34.02
0.83084,-11.836,2.6423,0.95173,0.60079,1.8323,-14.88,20.04,34.74
1.3484,-12.299,2.4517,1.3769,0.69455,2.3158,-15.48,19.26,35.04
2.261,-12.463,1.9205,1.8302,0.59987,2.667,-16.08,18.6,35.04
3.9908,-13.212,0.8036,2.3625,0.24343,2.8433,-16.86,18.0,35.1
4.522,-14.015,0.24517,2.8329,-0.35675,2.9016,-17.22,18.06,35.04
4.6173,-14.819,-1.076,3.2348,-1.2917,2.9413,-17.46,18.6,34.44
4.4402,-14.22,-1.9886,3.258,-1.5299,2.9435,-17.16,19.44,34.02
4.3449,-13.511,-2.4517,3.1857,-1.9041,2.9114,-16.62,20.4,33.48
3.5685,-11.373,-2.9692,2.9569,-2.2214,2.7422,-15.12,22.68,32.4
2.6696,-10.392,-2.9692,2.7785,-2.1002,2.5104,-14.28,23.94,31.8
1.8251,-9.8748,-2.942,2.6191,-1.5504,2.2498,-13.14,25.32,31.26
0.96704,-9.7385,-3.8273,2.3369,-0.208,1.8656,-10.26,28.14,29.7
1.2122,-9.902,-4.3721,2.1402,0.79504,1.6628,-8.58,29.28,28.8
1.8932,-10.038,-4.7399,1.9077,1.5834,1.5476,-7.02,30.54,27.84
3.2553,-10.243,-5.2166,1.6738,1.938,1.4997,-3.66,33.06,26.04
4.2359,-10.515,-5.38,1.4658,1.8415,1.47,-2.1,34.08,25.08
4.6445,-10.025,-5.8976,1.2025,1.2831,1.3943,-0.42,35.04,24.06
4.6445,-10.025,-5.8976,1.2025,1.2831,1.3943,-0.42,35.04,24.06
4.699,-9.9292,-6.8238,1.0333,0.77336,1.2853,4.26,37.32,21.36
4.8352,-10.011,-7.0962,0.91385,0.43677,1.201,5.64,37.74,20.4
5.2575,-10.324,-7.4776,0.63255,-0.17074,1.0189,7.68,38.34,18.6
5.2983,-10.569,-7.3141,0.35125,-0.56627,0.85704,8.76,38.7,17.7
4.5356,-10.937,-6.3743,-0.012217,-0.72937,0.60781,10.44,39.18,16.14
4.1814,-11.482,-6.2381,-0.32406,-0.54703,0.28527,11.1,39.24,15.54
3.909,-12.381,-6.6059,-0.70158,-0.09499,-0.055283,11.46,39.48,14.94
4.7671,-12.898,-5.7614,-1.1078,0.39279,-0.45784,12.3,39.54,14.04
5.0668,-13.253,-5.3119,-1.3986,0.56413,-0.81367,12.72,39.48,14.04
5.5843,-13.702,-4.4947,-1.806,0.34361,-1.2996,12.96,39.24,13.98
5.8431,-14.478,-3.6775,-1.9383,-0.029016,-1.5647,13.2,39.0,14.28
5.7069,-15.35,-3.337,-2.0638,-0.40836,-1.8237,13.14,38.7,14.58
4.9987,-15.459,-2.7377,-2.2544,-0.63591,-1.8964,12.96,37.98,15.9
4.3585,-14.342,-2.3836,-2.4505,-0.60048,-2.0708,12.84,37.68,16.74
3.623,-12.762,-1.9205,-2.6878,-0.14691,-2.4893,12.66,37.44,17.58
2.8875,-10.569,-1.4982,-2.66,0.1573,-2.8411,11.22,36.42,19.26
2.8194,-9.9292,-1.3484,-2.5962,0.42333,-3.211,10.2,35.82,20.22
2.9556,-9.8339,-1.2939,-2.5146,0.54734,-3.5171,9.18,35.22,21.36
3.1327,-10.447,-0.96704,-2.4086,0.54,-3.7336,6.78,33.9,23.52
3.2689,-10.896,-0.8717,-2.2645,0.35583,-3.7587,5.52,33.12,24.72
3.1872,-11.005,-0.8036,-2.2297,0.27336,-3.6945,4.02,32.34,25.56
2.8875,-11.032,-0.51757,-2.1783,0.12248,-3.3069,1.14,30.54,27.48
2.4517,-10.61,-0.38137,-2.1005,0.12309,-2.9435,-0.36,29.58,28.44
1.9613,-10.12,0.027241,-2.0336,0.18998,-2.51,-1.8,28.5,29.22
0.50395,-8.7715,1.2122,-1.7987,0.34453,-1.8683,-4.74,26.34,30.48
-0.21793,-8.2539,1.8387,-1.6579,0.33414,-1.6551,-6.18,25.08,31.08
-0.65378,-8.1586,2.0703,-1.2547,0.17746,-1.1756,-7.74,23.82,31.74
-0.95342,-8.4174,2.152,-0.60506,-0.055894,-0.26909,-9.9,21.42,32.88
-0.7355,-8.4446,2.2882,-0.17562,-0.06353,0.39737,-10.86,20.34,33.18
-0.47671,-9.4934,2.6968,0.30727,-0.10293,0.98258,-11.76,19.38,33.42
0.054481,-11.836,3.1872,0.97066,-0.0030543,1.7547,-12.9,17.64,33.9
0.81722,-12.653,2.9829,1.1661,0.13897,1.985,-13.32,16.98,34.08
1.4846,-13.144,2.7786,1.6084,0.41478,2.4331,-13.68,16.44,34.2
3.4187,-13.511,1.471,2.3179,0.41325,2.8958,-13.92,16.02,34.14
4.1133,-13.961,0.85808,2.8194,0.033292,3.0033,-13.86,16.08,34.02
4.5628,-14.601,0.24517,3.1786,-0.51618,2.9981,-13.62,16.44,33.84
4.699,-15.282,-1.3076,3.335,-1.2972,2.93,-13.26,17.76,33.36
4.5764,-14.901,-1.8387,3.1844,-1.6377,2.8341,-12.78,18.78,32.88
4.1678,-13.579,-2.7104,2.9942,-1.7898,2.7022,-12.06,19.86,32.34
3.4868,-12.544,-3.0101,2.7962,-1.6179,2.5134,-11.28,21.06,31.8
1.866,-11.21,-3.2553,2.6047,-1.0284,2.288,-9.3,23.58,30.9
1.3212,-10.815,-3.5685,2.3873,-0.10537,2.0711,-8.1,24.9,30.12
1.3212,-10.542,-3.8682,2.179,0.90958,1.868,-6.78,26.22,29.52
2.4108,-10.202,-4.6718,1.9438,1.7532,1.741,-4.14,28.5,27.6
3.0646,-9.9973,-4.8897,1.5687,2.3818,1.7092,-2.7,29.64,26.88
3.7865,-9.9837,-4.8352,1.3613,2.3256,1.7049,-1.32,30.84,25.98
4.4811,-9.7249,-5.3392,1.1613,2.0629,1.7141,1.32,32.58,24.06
4.6173,-9.221,-5.8023,1.0238,1.7226,1.7443,2.52,33.42,23.22
4.7944,-8.9349,-6.2926,0.89492,1.1588,1.6927,5.04,34.92,21.42
5.2847,-9.3163,-6.7557,0.83322,0.78649,1.6322,6.12,35.28,20.58
5.8023,-9.8884,-7.2188,0.77946,0.57055,1.591,7.32,35.64,19.8
6.1292,-10.229,-7.355,0.48289,-0.19823,1.3879,8.4,35.94,19.14
6.5241,-10.842,-7.2188,0.20586,-0.64049,1.1356,10.02,36.42,17.58
6.4424,-11.7,-7.1507,-0.054672,-0.84116,0.73823,10.74,36.6,17.04
6.5241,-13.089,-7.6546,-0.37324,-0.86468,0.26756,11.76,37.02,16.02
6.8374,-13.906,-6.8238,-0.98716,-0.84147,-0.50213,12.24,37.02,15.84
6.9464,-14.519,-6.3335,-1.4536,-1.0198,-1.0211,12.9,37.14,15.48
6.2926,-15.187,-4.8761,-1.6768,-1.0922,-1.284,13.26,37.2,15.24
5.3664,-16.086,-3.9635,-2.1802,-1.0165,-1.8573,13.86,37.26,15.18
5.0259,-17.38,-3.4596,-2.4138,-0.77274,-2.1032,14.16,37.08,15.48
4.6309,-17.679,-3.0918,-2.7367,-0.37996,-2.3195,14.28,36.84,15.72
3.6094,-14.397,-1.7706,-3.2107,0.51374,-2.708,14.1,36.36,16.74
3.4051,-12.544,-1.2531,-3.2495,0.78007,-2.8643,13.68,36.24,17.4
3.1872,-11.509,-0.9398,-3.2449,1.266,-3.4438,13.02,35.94,18.0
3.4187,-9.8203,-0.65378,-3.1053,1.3137,-3.8249,10.86,35.22,19.74
3.5958,-9.9973,-0.57205,-2.875,1.1634,-4.1105,9.42,34.68,20.76
3.7184,-10.597,-0.14982,-2.521,0.68203,-4.2959,6.54,33.72,23.04
3.7456,-12.013,-0.068102,-2.3414,0.3372,-4.2043,4.68,33.06,24.12
3.6094,-12.367,0.054481,-2.2843,0.20922,-4.0943,2.64,32.16,25.26
3.5958,-12.681,0.29965,-2.0785,-0.091019,-3.6188,0.78,31.08,26.46
3.1872,-12.503,0.85808,-1.9618,-0.30085,-3.2077,-3.0,29.16,28.86
2.3018,-11.387,1.4438,-1.8891,-0.50305,-2.8081,-4.92,27.9,29.82
1.1986,-10.529,1.7979,-1.7031,-0.6072,-2.4199,-6.66,26.7,30.9
-0.54481,-9.4389,2.261,-1.2685,-0.33078,-1.7416,-9.96,24.0,32.34
-1.0079,-9.3844,2.1929,-1.0934,-0.14019,-1.4939,-11.52,22.5,33.06
-1.2803,-9.112,2.0567,-0.759,0.26481,-0.94867,-12.78,21.18,33.72
-1.2258,-8.1177,1.9613,-0.14355,0.86376,-0.065973,-14.64,18.78,34.62
-0.7355,-8.9077,2.152,0.26328,1.0938,0.58154,-15.36,17.64,34.98
0.19068,-9.9429,2.1384,0.66218,1.1496,1.2422,-16.2,16.5,35.4
2.0839,-11.577,1.7979,1.0571,0.91752,2.2095,-17.46,14.76,35.58
2.7786,-11.414,1.5663,1.7333,0.55894,2.6945,-17.76,14.34,35.7
3.8954,-11.223,0.8717,2.2434,-0.014966,2.9761,-18.18,14.16,35.52
4.9169,-12.572,-0.027241,2.7306,-0.7196,3.1072,-18.6,14.28,35.1
5.1485,-13.607,-0.74912,3.1255,-1.4047,3.1573,-18.6,14.7,34.74
5.1757,-13.702,-1.4029,3.3546,-1.9991,3.1435,-18.6,15.42,34.56
4.8352,-12.245,-2.4517,3.4511,-2.4746,3.0916,-17.94,17.52,33.78
4.2768,-11.319,-2.7377,3.3934,-2.7999,2.8622,-17.28,18.78,33.24
3.5277,-10.515,-2.9284,3.332,-2.7498,2.7507,-16.56,20.16,32.64
2.0158,-10.161,-3.2008,3.1145,-2.0409,2.3503,-14.58,23.22,31.38
1.4165,-10.134,-3.4596,2.9074,-1.2367,2.1005,-13.14,24.9,30.72
1.3212,-10.093,-3.7865,2.6793,-0.30238,1.8689,-11.52,26.46,29.82
2.0567,-10.787,-4.699,2.4581,1.003,1.693,-7.8,29.52,27.96
2.5879,-10.896,-5.0804,2.0776,1.4685,1.6817,-6.0,31.02,26.88
3.8001,-11.114,-5.6661,1.8427,1.4859,1.6735,-4.2,32.52,25.92
4.7399,-11.046,-6.3471,1.7242,1.3644,1.6564,-0.48,34.86,23.82
4.699,-10.542,-6.7829,1.3812,0.82772,1.5104,1.26,35.94,22.86
4.6718,-10.256,-7.0553,1.2092,0.47098,1.346,3.06,36.78,21.6
4.5764,-10.379,-7.6002,1.0201,0.16554,1.1423,6.36,38.16,19.44
4.6037,-10.774,-7.7636,0.64019,-0.21136,0.84666,7.68,38.64,18.36
4.304,-11.346,-7.4776,0.4609,-0.28863,0.75198,8.94,39.18,17.34
3.909,-11.25,-6.7966,-0.1909,-0.17898,0.43677,11.1,39.84,15.3
3.2008,-11.359,-6.3335,-0.57788,0.28314,0.16341,11.88,40.14,14.34
3.1191,-11.686,-6.3335,-0.92882,0.89583,-0.13195,12.6,40.38,13.62
4.3177,-11.863,-5.5707,-1.2715,1.284,-0.43677,13.44,40.74,12.6
4.9442,-12.177,-4.8625,-1.6127,1.2217,-0.84513,13.68,40.74,12.54
5.7205,-12.612,-3.3778,-1.719,1.0427,-0.96822,13.98,40.62,12.54
5.9657,-13.402,-2.9965,-1.8665,0.27917,-1.2724,13.98,40.5,12.84
5.8704,-13.988,-2.8467,-1.9642,-0.22907,-1.3912,13.98,40.32,13.02
5.7478,-14.764,-2.4517,-2.0415,-0.60323,-1.4792,13.74,40.2,13.56
5.1894,-14.928,-2.2474,-2.1609,-0.73426,-1.5464,12.78,39.84,15.0
4.6309,-14.056,-1.8932,-2.3384,-0.43005,-1.7648,12.18,39.6,15.72
3.5413,-11.087,-1.1577,-2.3479,-0.27581,-1.8751,11.58,39.18,16.62
3.2416,-9.9292,-1.0215,-2.3243,0.15547,-2.3118,9.84,38.22,18.78
3.0782,-9.1529,-0.85808,-2.2642,0.36774,-2.62,8.76,37.74,19.98
3.2144,-9.0848,-0.98067,-2.1854,0.47037,-2.8845,6.3,36.84,22.32
3.2961,-9.4798,-0.70826,-2.1234,0.50244,-3.0788,4.92,36.3,23.4
3.3778,-9.7658,-0.31327,-1.9963,0.36163,-3.1927,1.98,35.16,25.2
3.1463,-10.229,-0.095342,-1.9215,0.23976,-3.1524,0.6,34.62,26.28
2.9011,-10.243,0.054481,-1.8286,0.18234,-3.0158,-0.78,33.84,26.94
2.5879,-10.011,0.01362,-1.7434,0.22419,-2.7965,-2.22,33.12,27.84
1.9613,-9.3163,0.44947,-1.5965,0.34239,-2.4881,-5.28,31.2,29.16
1.6889,-9.1529,0.6674,-1.3751,0.38485,-2.1151,-6.54,30.18,29.7
0.84446,-9.1937,1.1577,-1.1616,0.34361,-1.7003,-9.42,28.26,31.14
0.46309,-9.3163,1.3757,-0.73457,0.042455,-0.94165,-10.74,27.48,31.62
-0.24517,-9.0984,1.471,-0.57788,-0.065973,-0.66096,-11.88,26.52,31.98
-0.85808,-8.7306,1.6889,-0.071166,-0.23182,0.21105,-13.98,24.6,32.64
-0.8036,-10.61,2.2882,0.29963,-0.15944,0.83505,-15.0,23.76,32.94
-0.24517,-12.108,2.4925,0.7196,0.12706,1.493,-15.72,22.92,33.24
1.8115,-12.912,2.0975,1.4587,0.34728,2.299,-16.86,21.78,33.6
2.7922,-12.354,1.3076,2.0269,0.07758,2.587,-17.22,21.42,33.48
3.4051,-12.367,0.89894,2.3204,-0.18051,2.6457,-17.64,21.36,33.6
4.5764,-13.661,-0.7355,3.1124,-1.1655,2.5611,-17.64,21.84,33.48
4.6718,-14.342,-1.4574,3.4157,-1.795,2.4129,-17.34,22.38,33.12
4.3177,-14.342,-1.8932,3.4386,-2.2541,2.2422,-17.16,23.28,32.82
3.0646,-12.04,-2.4789,3.1783,-2.3094,2.0217,-15.66,25.08,31.68
2.6287,-11.073,-2.6968,2.6982,-1.9697,1.8515,-14.76,26.16,31.08
1.5391,-9.2891,-3.0237,2.4691,-1.335,1.6603,-13.86,27.36,30.54
0.54481,-8.4991,-3.1463,2.2785,-0.489,1.4887,-11.52,29.76,28.92
0.46309,-8.7579,-3.4323,2.0928,0.42638,1.3732,-9.96,30.78,27.96
1.0488,-9.2074,-3.8682,1.8754,1.2926,1.3625,-8.46,32.16,27.06
2.8875,-10.025,-4.7399,1.6646,1.8967,1.4621,-5.28,34.5,24.96
3.7184,-10.447,-4.9033,1.3702,2.1564,1.704,-3.78,35.58,23.82
4.1951,-10.515,-5.0804,1.1781,1.9502,1.8622,-2.1,36.54,22.8
4.6582,-10.27,-5.6252,1.0177,1.5455,1.9224,0.78,38.28,20.7
4.6718,-9.8611,-5.9112,0.88514,1.2104,1.8262,2.1,38.94,19.74
4.6037,-9.4117,-6.2245,0.759,0.9612,1.6313,3.42,39.36,18.84
5.0259,-9.6296,-6.8783,0.68875,0.66523,1.3781,5.76,40.26,17.16
5.2575,-9.9565,-7.0281,0.5339,0.047037,0.98135,6.9,40.68,16.26
5.5571,-10.746,-7.0417,0.3204,-0.3879,0.73793,7.86,40.86,15.42
5.0804,-11.387,-6.5378,0.013439,-0.66126,0.46578,9.72,41.22,14.1
4.5356,-12.272,-6.0066,-0.2697,-0.61148,0.18845,10.26,41.58,13.5
4.3177,-13.171,-6.0611,-0.57849,-0.33567,-0.077274,10.92,41.7,12.96
4.4811,-13.402,-5.8431,-1.0085,0.033903,-0.40897,11.88,41.82,12.18
4.5356,-12.939,-5.2438,-1.5293,0.38759,-0.92974,12.24,41.88,12.18
4.5901,-12.572,-4.0044,-1.77,0.47953,-1.2987,12.84,41.88,11.88
4.699,-12.735,-3.3778,-1.916,0.45601,-1.639,13.02,41.94,11.88
4.7807,-13.43,-3.1599,-2.0042,0.32406,-1.9062,13.08,42.06,12.12
4.9306,-13.852,-3.0373,-2.0934,0.13317,-2.0831,12.96,42.12,12.42
4.9306,-14.111,-2.2065,-2.2043,-0.075747,-2.2049,12.0,41.94,13.56
4.6309,-13.62,-2.0294,-2.3689,-0.33078,-2.3305,11.28,41.7,14.22
3.5685,-11.223,-1.58,-2.3934,-0.34392,-2.3821,10.38,41.64,14.94
3.228,-10.188,-1.3076,-2.379,-0.12737,-2.6295,8.1,41.4,16.56
3.0373,-9.507,-1.1169,-2.2975,0.081856,-2.8259,6.9,41.16,17.64
2.8603,-9.0984,-0.89894,-2.2009,0.27245,-2.9942,5.46,40.98,18.66
2.9829,-9.221,-0.42223,-2.1008,0.36652,-3.1032,2.22,40.44,20.94
2.9829,-9.3436,-0.35413,-1.9462,0.343,-3.1218,0.42,40.02,22.02
3.0646,-9.5751,-0.17706,-1.8915,0.32193,-3.0769,-1.38,39.48,23.22
3.0373,-9.7249,-0.12258,-1.7736,0.28069,-2.9025,-5.1,38.16,25.68
3.0646,-9.7794,0.040861,-1.6496,0.16921,-2.6163,-6.9,37.14,26.82
2.7922,-9.6432,0.19068,-1.4694,-0.065668,-2.1157,-8.7,36.42,27.72
1.4438,-9.1256,0.7355,-1.3213,-0.17104,-1.7248,-11.94,34.68,29.22
0.51757,-9.0303,1.185,-1.1225,-0.13592,-1.3167,-13.68,33.78,29.94
-0.38137,-9.4389,1.6753,-0.84819,-0.030238,-0.88178,-16.38,31.44,31.68
-0.84446,-9.4389,1.7162,-0.56536,0.12095,-0.39126,-17.52,30.36,32.4
-0.83084,-9.0848,1.6481,-0.098044,0.40561,0.41478,-18.66,29.22,32.82
-0.17706,-9.507,2.1112,0.36499,0.39554,0.92454,-20.46,27.12,34.08
0.19068,-10.801,2.4517,0.87048,0.27703,1.467,-21.3,26.28,34.38
0.78998,-11.482,2.3836,1.2749,0.18265,1.9517,-21.78,25.68,34.68
2.6968,-12.354,1.5119,1.8757,-0.043677,2.4777,-22.56,24.84,34.68
3.5004,-12.708,0.76274,2.2868,-0.30207,2.6762,-22.62,24.78,34.5
4.0452,-13.225,0.40861,2.499,-0.46609,2.7196,-22.62,25.14,34.32
4.9033,-14.955,-0.78998,3.0128,-1.102,2.7425,-22.08,25.74,33.84
4.9306,-15.268,-1.471,3.1722,-1.5055,2.6789,-21.66,26.52,33.54
4.7535,-14.914,-2.8603,3.1011,-1.8775,2.529,-19.98,28.56,32.34
3.8818,-12.272,-3.3506,2.8976,-1.8909,2.3305,-18.9,29.76,31.56
3.8818,-12.272,-3.3506,2.7315,-1.5937,2.0721,-18.9,29.76,31.56
2.5879,-10.474,-3.5277,2.6518,-1.3357,1.9172,-17.82,31.02,30.78
0.70826,-8.9622,-3.4868,2.31,-0.1857,1.5058,-16.38,32.46,29.94
0.55843,-8.7851,-3.514,2.0797,0.74281,1.3485,-14.64,33.96,28.74
1.7298,-9.1393,-4.3313,1.8506,1.543,1.3274,-11.04,36.66,26.28
2.2201,-9.3027,-4.5764,1.5348,2.2162,1.4539,-9.3,38.1,25.02
3.3097,-9.6977,-4.808,1.3375,2.2232,1.6136,-7.5,39.36,23.76
4.1951,-9.6977,-5.1894,1.1832,1.9749,1.7572,-4.02,41.4,21.24
4.4675,-9.6023,-5.6252,1.0443,1.5773,1.835,-2.34,42.18,19.98
4.6445,-9.5342,-6.0338,0.92302,1.1982,1.8137,-0.72,43.08,18.78
5.1757,-9.5751,-6.8374,0.82864,0.81825,1.6814,2.64,44.4,16.2
5.6388,-10.025,-7.2869,0.65821,0.13042,1.3839,3.96,44.88,15.06
5.9249,-10.324,-7.5048,0.44257,-0.46395,1.1338,5.52,45.24,13.92
6.0202,-10.992,-7.3277,0.29566,-0.73884,0.98777,6.9,45.48,12.84
4.5901,-11.577,-6.0883,-0.2193,-0.98074,0.44349,9.12,45.9,10.8
3.9363,-12.612,-6.0883,-0.55344,-0.57085,0.013439,9.78,46.02,10.08
3.7728,-12.83,-6.3198,-0.99266,0.1463,-0.45479,10.5,46.02,9.6
4.7671,-12.994,-5.0531,-1.478,0.81398,-1.1322,11.64,46.02,8.76
5.094,-13.253,-4.3449,-1.7443,0.87048,-1.5067,12.12,45.96,8.58
5.38,-13.402,-3.9227,-1.8353,0.77366,-1.6701,12.3,46.08,8.58
5.8023,-14.587,-3.1872,-1.9554,0.21258,-2.0556,12.42,45.84,9.24
5.8023,-15.445,-2.942,-2.0305,-0.22846,-2.1783,12.24,45.72,9.66
5.5571,-15.772,-2.5334,-2.1609,-0.58735,-2.2446,11.64,45.48,10.2
4.413,-14.247,-1.866,-2.3714,-0.78252,-2.4276,10.68,44.76,11.7
3.4596,-12.531,-1.58,-2.4364,-0.6463,-2.645,9.66,44.52,12.66
3.0373,-11.822,-1.4301,-2.4569,-0.36927,-2.9181,8.58,44.22,13.62
2.7922,-10.869,-1.2258,-2.4413,-0.089492,-3.1686,7.2,43.8,14.76
2.9148,-10.079,-1.0215,-2.3827,0.040012,-3.3961,4.38,42.9,17.28
3.051,-10.134,-0.83084,-2.295,0.029627,-3.5241,2.52,42.54,18.42
2.942,-10.351,-0.44947,-2.1881,-0.085216,-3.5583,-0.9,41.28,20.88
2.7377,-10.351,-0.24517,-2.0278,-0.24557,-3.3729,-2.82,40.44,22.08
2.6015,-10.256,-0.19068,-1.9346,-0.22083,-3.1197,-4.44,39.6,23.1
2.4244,-10.052,-0.24517,-1.825,-0.12859,-2.8081,-6.24,38.58,24.06
1.6617,-9.1937,0.35413,-1.7193,0.025351,-2.4187,-9.72,36.18,25.98
1.1986,-8.7443,0.72188,-1.5705,0.20311,-2.014,-11.22,34.92,26.88
0.51757,-8.4174,1.1169,-1.368,0.354,-1.5889,-12.78,33.72,27.66
-0.17706,-8.0496,1.6889,-0.92118,0.43035,-0.87354,-15.66,31.14,28.98
-0.12258,-8.2131,1.7298,-0.7367,0.40042,-0.60048,-16.98,29.94,29.7
-0.12258,-8.2812,1.4438,-0.38301,0.28833,-0.000916,-18.0,28.74,30.06
0.50395,-8.5808,1.6753,0.22205,0.12828,0.9166,-20.1,26.16,30.84
0.8036,-9.9429,2.0839,0.71838,0.018326,1.4594,-20.76,25.14,31.08
1.5119,-12.286,2.3155,1.1377,0.012828,1.9532,-21.48,24.0,31.2
2.7786,-12.79,1.8932,1.763,0.017715,2.521,-22.14,22.68,31.5
3.8137,-12.735,1.0079,1.9801,-0.039401,2.6353,-22.44,22.26,31.56
4.413,-12.967,0.53119,2.4459,-0.36591,2.7254,-22.5,22.26,31.44
4.9306,-14.152,-0.6674,2.9865,-1.1579,2.6301,-22.32,23.16,31.02
4.7944,-14.369,-1.1169,3.1664,-1.6506,2.5082,-21.96,23.88,30.66
4.4402,-13.988,-1.7706,3.1667,-2.0091,2.3821,-21.48,24.72,30.24
3.3234,-11.945,-2.8058,2.9273,-2.12,2.1524,-19.92,27.12,28.92
2.4789,-10.924,-2.9556,2.7321,-1.762,1.9734,-19.08,28.14,28.08
1.9886,-10.501,-3.0237,2.5067,-1.0684,1.7672,-18.0,29.22,27.48
0.89894,-9.507,-3.4459,2.2773,-0.14416,1.5617,-15.36,32.16,25.92
0.85808,-9.2755,-3.7728,2.0592,0.85094,1.4053,-13.92,33.48,25.2
1.5255,-9.3299,-4.1814,1.8531,1.7141,1.3412,-12.42,34.74,24.48
2.6423,-9.3844,-4.3449,1.5653,2.3323,1.3983,-9.42,37.32,22.44
3.6639,-9.6704,-4.6037,1.4896,2.3442,1.4377,-7.8,38.34,21.42
4.0316,-9.7658,-4.8352,1.3769,2.1163,1.5159,-6.36,39.18,20.4
4.5764,-9.4117,-5.6388,1.2333,1.3399,1.6038,-3.3,40.62,18.0
4.6037,-9.1529,-6.1564,1.2025,0.80451,1.5989,-1.92,41.4,17.04
4.8352,-9.221,-6.6059,1.1713,0.22755,1.5339,-0.6,41.88,15.9
5.1485,-10.147,-7.8589,1.0907,-0.70158,1.365,1.8,42.54,13.86
5.1485,-10.529,-8.1177,0.76938,-1.2379,1.2272,3.0,42.96,12.96
4.9033,-11.032,-8.0088,0.57452,-1.4029,1.128,3.9,43.32,12.06
3.1191,-11.591,-6.851,-0.16585,-1.1185,0.75808,5.88,43.68,10.26
2.5742,-12.299,-6.8238,-0.60445,-0.31062,0.42638,6.72,43.8,9.3
2.8194,-12.79,-6.8647,-1.1267,0.66584,0.012828,7.5,44.04,8.58
4.304,-12.898,-5.3528,-1.5449,1.5574,-0.59773,8.82,43.98,7.56
4.7944,-13.007,-4.9033,-1.9786,1.6066,-0.99327,9.24,43.98,7.32
5.6252,-13.511,-4.0725,-2.1005,1.3091,-1.3225,9.54,44.1,7.26
6.2245,-15.01,-3.1872,-2.1939,0.85765,-1.5785,9.9,43.92,8.04
6.2381,-15.8,-3.0918,-2.1787,0.33964,-1.7694,9.84,43.62,8.34
5.9249,-15.99,-2.7513,-2.3109,-0.066584,-1.8888,9.72,43.38,9.06
4.699,-13.443,-1.9886,-2.434,-0.31796,-2.1362,8.76,43.08,10.86
3.9635,-11.85,-1.5527,-2.4468,-0.27978,-2.394,8.16,42.72,12.06
3.6366,-11.087,-1.5936,-2.4291,-0.14478,-2.7022,7.44,42.36,13.2
3.2008,-9.4253,-1.2531,-2.3891,-0.059254,-3.0229,5.16,41.34,15.78
3.1191,-9.2346,-1.0896,-2.314,-0.033292,-3.2968,3.96,40.86,17.1
3.1872,-9.8203,-0.85808,-2.222,-0.091324,-3.4599,2.52,40.38,18.54
3.0373,-10.542,-0.57205,-2.1438,-0.20189,-3.5235,-0.6,38.94,21.36
2.8875,-10.774,-0.58567,-2.0394,-0.26328,-3.3546,-2.1,38.16,22.68
2.5334,-10.787,-0.46309,-2.0091,-0.14294,-3.1075,-5.04,36.18,25.2
2.3291,-10.283,-0.46309,-1.9621,0.057727,-2.7984,-6.54,35.16,26.34
1.8387,-9.6023,-0.01362,-1.8992,0.29016,-2.4569,-7.92,34.08,27.48
1.4982,-8.7715,0.23155,-1.7685,0.50732,-2.1179,-9.24,32.76,28.38
0.46309,-7.9679,0.96704,-1.5437,0.65027,-1.7804,-11.64,29.94,30.24
-0.054481,-7.9543,1.2531,-1.1044,0.77763,-1.1558,-12.84,28.62,30.96
-0.34051,-8.0905,1.2531,-0.93493,0.82131,-0.91263,-13.86,27.24,31.62
-0.58567,-7.9543,1.4165,-0.41325,0.97616,-0.097433,-15.72,24.6,32.58
-0.28603,-8.6898,1.7979,0.020464,1.0156,0.46578,-16.5,23.4,33.06
-0.10896,-9.6977,2.0294,0.47434,0.97433,1.054,-17.4,22.14,33.3
0.74912,-12.286,2.0431,0.84819,0.97891,1.6292,-18.84,20.34,33.84
1.4574,-12.503,1.9341,1.2193,0.90347,2.1493,-19.38,19.62,33.9
3.0646,-12.122,0.96704,1.617,0.64049,2.5571,-20.04,18.78,33.72
3.8137,-12.217,0.5993,2.0467,0.1518,2.8072,-20.28,18.66,33.6
4.304,-12.667,-0.027241,2.6484,-0.76938,3.0146,-20.52,18.84,33.36
4.7944,-13.675,-1.0624,2.9441,-1.3735,3.0827,-20.64,19.92,32.7
4.8352,-13.906,-1.7162,3.1035,-1.868,3.1466,-20.52,20.64,32.1
4.2632,-12.735,-2.7649,3.1117,-2.2138,3.1765,-20.16,21.6,31.62
3.5413,-11.727,-3.2553,2.9667,-2.2284,3.054,-19.08,24.06,30.36
2.7922,-11.06,-3.3506,2.8964,-2.0507,2.9801,-18.06,25.32,29.88
2.0022,-10.665,-3.3642,2.6395,-1.0146,2.5901,-16.92,26.64,29.4
1.2122,-10.311,-3.8409,2.4264,0.009163,2.3069,-13.62,29.34,27.96
1.5119,-10.515,-4.1814,2.2159,1.0605,2.0831,-11.82,30.78,27.12
3.337,-11.182,-5.0123,1.8198,2.0388,1.9218,-8.4,33.54,25.38
4.1814,-11.223,-5.1485,1.5351,2.1347,1.8418,-6.66,34.8,24.42
4.7399,-10.924,-5.4481,1.3005,1.9007,1.7578,-4.8,35.88,23.34
5.0123,-10.256,-6.1564,1.1445,1.5482,1.6402,-1.2,37.86,21.42
5.0259,-9.793,-6.8374,0.99327,1.2031,1.4838,0.54,38.58,20.46
5.094,-9.3436,-7.0962,0.8433,0.88209,1.3027,2.22,39.18,19.62
5.2166,-9.4117,-7.3277,0.61545,0.40806,1.0223,5.16,40.2,18.0
5.3528,-9.8339,-7.4912,0.39798,0.11087,0.85063,6.48,40.68,16.98
5.3937,-10.052,-7.4095,0.096517,-0.13134,0.6576,7.62,40.98,16.08
5.2438,-10.637,-6.9328,-0.065363,-0.18662,0.54642,8.64,41.28,15.24
5.2438,-10.637,-6.9328,-0.69883,0.0956,-0.016188,8.64,41.28,15.24
5.5435,-13.021,-6.565,-0.89309,0.22724,-0.18601,9.36,41.58,14.58
5.8704,-13.484,-5.489,-1.2379,0.4047,-0.57971,10.14,41.82,14.04
5.993,-13.579,-4.7671,-1.6945,0.35736,-1.2636,11.04,41.88,13.32
5.6524,-13.607,-4.3585,-1.8772,0.24557,-1.7098,11.82,41.52,13.56
5.4481,-14.451,-3.6775,-1.9911,0.1405,-2.087,12.06,40.98,14.22
5.4754,-15.364,-3.3097,-2.0284,-0.044288,-2.3372,12.24,40.38,15.12
5.3392,-15.391,-2.9965,-2.1887,-0.24893,-2.5094,12.06,40.2,15.84
4.9033,-14.451,-2.261,-2.3173,-0.44349,-2.6261,11.52,39.42,17.28
4.1678,-12.871,-1.7979,-2.4542,-0.59743,-2.8427,10.14,38.58,19.38
3.6775,-11.754,-1.4438,-2.4984,-0.53237,-3.025,9.06,38.1,20.34
3.1599,-10.637,-1.2258,-2.4813,-0.40592,-3.2382,6.84,37.32,22.14
2.833,-10.161,-0.9398,-2.4499,-0.2645,-3.4383,4.56,36.42,23.76
2.6696,-9.9837,-0.70826,-2.3821,-0.11057,-3.5748,2.04,35.58,25.02
2.5742,-9.9837,-0.43585,-2.3054,0.027489,-3.6178,-0.54,34.68,26.34
2.547,-10.256,-0.25879,-2.1732,0.14447,-3.5623,-3.48,33.48,27.48
2.6151,-10.297,-0.25879,-1.9743,0.22785,-3.2706,-6.24,32.04,28.5
2.6696,-10.093,-0.19068,-1.8207,0.21228,-2.9514,-8.46,30.42,29.46
2.1112,-9.1393,0.38137,-1.7019,0.1295,-2.5394,-10.38,28.56,30.24
1.7025,-8.7034,0.62654,-1.5598,0.062919,-2.106,-11.28,27.48,30.66
0.31327,-8.2131,1.0624,-1.3598,0.04612,-1.6499,-13.08,25.2,31.8
-0.36775,-8.3629,1.3348,-0.93218,0.1857,-0.92485,-13.98,24.0,32.28
-0.64016,-8.4446,1.4165,-0.63561,0.36988,-0.35858,-14.76,22.92,32.58
-0.69464,-8.3765,1.5255,-0.48594,0.47434,-0.071471,-15.36,21.84,32.94
-0.054481,-8.1177,1.5255,0.039401,0.73243,0.80817,-16.56,19.86,33.54
0.40861,-9.0303,1.8932,0.48319,0.68478,1.3534,-16.92,19.02,33.9
1.58,-10.801,2.0158,0.88484,0.59101,1.8476,-18.0,17.82,34.2
2.261,-11.223,1.7025,1.5162,0.39492,2.489,-18.24,17.46,34.26
3.2144,-11.768,1.1986,1.9768,0.12339,2.7923,-18.54,17.22,34.14
4.0452,-12.476,0.81722,2.2232,-0.073304,2.8979,-18.84,17.22,34.02
5.2166,-14.846,-0.24517,2.8717,-0.85246,3.0873,-18.9,17.82,33.66
5.3256,-15.623,-0.8717,3.1536,-1.3867,3.1139,-18.78,18.36,33.48
5.3528,-15.704,-1.7025,3.2901,-1.8809,3.0788,-18.42,19.32,32.94
4.6718,-13.634,-3.0646,3.2055,-2.3586,2.824,-17.28,21.54,31.92
3.7456,-12.0,-3.2961,2.9997,-2.3216,2.5317,-16.5,22.74,31.44
2.6015,-10.665,-3.4187,2.8039,-1.8179,2.1857,-15.42,24.06,30.84
1.0624,-9.5887,-3.3778,2.6008,-0.95661,1.8219,-12.96,26.94,29.4
0.54481,-9.4253,-3.6911,2.3619,0.12095,1.5207,-11.46,28.26,28.62
0.83084,-9.5887,-3.9908,2.1053,1.233,1.3714,-9.96,29.64,27.9
2.4653,-10.106,-4.5356,1.722,2.3521,1.4536,-6.72,32.1,25.92
3.2825,-10.324,-4.6582,1.5015,2.5965,1.6145,-5.1,33.48,25.02
3.8682,-10.379,-4.8625,1.3167,2.4086,1.7944,-3.6,34.56,23.94
4.699,-10.052,-5.5707,1.1643,1.9551,1.89,-0.6,36.6,22.08
4.7671,-9.6432,-6.0202,1.065,1.4529,1.9001,0.78,37.38,20.94
4.9306,-9.3163,-6.4152,0.98563,0.9615,1.795,2.22,38.1,20.04
5.5026,-9.5479,-7.4503,0.93004,0.43677,1.6167,4.8,39.0,18.24
5.8295,-10.025,-7.8181,0.74159,-0.51924,1.3088,5.94,39.36,17.22
6.0883,-10.637,-8.0224,0.45051,-1.0904,1.0739,6.84,39.54,16.38
4.7944,-11.359,-6.9872,0.24984,-1.2413,0.93523,8.52,39.96,14.7
3.514,-12.054,-6.4288,-0.40378,-0.73334,0.39706,9.18,40.32,14.04
3.2416,-12.64,-6.565,-0.83353,0.22663,-0.050091,9.9,40.56,13.32
4.1951,-12.803,-5.7069,-1.3323,1.1289,-0.57941,10.92,40.74,12.84
4.8625,-12.721,-4.8352,-1.85,1.8295,-1.3079,11.28,40.56,12.6
5.4073,-12.762,-4.2359,-1.9658,1.8589,-1.5229,11.64,40.44,12.54
6.0474,-13.348,-3.3778,-2.0867,1.423,-2.0666,11.94,39.96,12.84
6.3198,-13.906,-3.3097,-2.0986,0.8998,-2.2801,12.0,39.78,13.32
6.3743,-15.023,-2.6015,-2.1075,0.3262,-2.4074,11.28,39.24,14.28
6.3198,-15.405,-2.3427,-2.058,-0.22694,-2.4835,10.68,39.0,14.88
5.1621,-14.247,-1.8932,-2.0794,-0.66187,-2.5959,9.9,38.64,15.78
4.4539,-12.681,-1.5391,-2.1173,-0.88881,-2.7535,7.86,37.98,17.64
3.7865,-11.441,-1.2258,-2.0837,-0.94684,-2.9422,6.84,37.5,18.54
3.5277,-10.637,-1.2939,-2.0159,-0.88667,-3.2694,5.58,36.9,19.5
3.2961,-9.902,-1.0624,-1.9966,-0.88698,-3.466,2.82,35.82,21.66
3.1599,-9.9292,-0.77636,-1.9551,-0.87262,-3.5604,1.32,35.34,22.44
2.7377,-10.297,-0.50395,-1.8906,-0.85124,-3.5562,-1.56,34.14,24.06
2.6015,-10.42,-0.38137,-1.8445,-0.75472,-3.3891,-2.94,33.36,24.9
2.4789,-10.433,-0.29965,-1.8072,-0.57605,-3.1285,-4.2,32.52,25.62
1.7706,-10.161,0.054481,-1.7648,-0.32956,-2.7608,-6.9,30.36,26.82
1.0215,-9.7522,0.44947,-1.7083,-0.025351,-2.3188,-8.04,29.4,27.3
0.38137,-9.3844,0.7355,-1.5992,0.23946,-1.8662,-9.18,28.44,27.84
-0.35413,-8.8124,1.3212,-1.394,0.48228,-1.1359,-11.04,26.46,28.68
-0.58567,-8.7987,1.6072,-0.96272,0.56413,-0.56902,-12.0,25.32,29.1
-0.77636,-8.6081,1.9613,-0.81306,0.5962,-0.27214,-13.02,24.3,29.46
-0.69464,-8.4038,2.0022,-0.29077,0.68845,0.53512,-14.58,22.08,29.76
-0.44947,-9.4525,2.5198,0.15791,0.71563,0.9951,-15.18,21.06,30.06
0.55843,-11.141,2.6968,0.58307,0.81031,1.4759,-16.26,19.2,30.3
1.6344,-11.863,2.4517,1.0079,0.8543,2.1728,-16.74,18.54,30.42
3.5004,-12.217,1.4982,1.4618,0.76022,2.3833,-17.28,18.12,30.3
4.3858,-12.858,0.98067,2.2443,0.037874,2.8033,-17.76,17.76,30.12
5.1213,-14.124,0.027241,2.6637,-0.65424,2.9609,-18.06,18.18,29.94
5.3256,-14.492,-0.44947,2.9746,-1.3338,2.9926,-18.18,18.48,29.64
5.0123,-14.41,-2.0839,3.1414,-1.8946,2.9642,-17.94,19.56,28.8
4.4811,-13.362,-2.6968,3.113,-2.2352,2.8311,-17.64,20.4,28.32
2.9011,-11.21,-3.1599,2.89,-2.1087,2.4743,-16.26,22.44,27.3
1.8796,-10.311,-3.1463,2.6973,-1.4514,2.2095,-15.54,23.52,26.82
0.96704,-9.8611,-3.1463,2.4542,-0.43921,1.9572,-14.7,24.72,26.28
0.44947,-9.4253,-3.4459,2.1961,0.76664,1.788,-12.3,27.06,25.26
1.3484,-9.8339,-3.7728,1.9624,1.8717,1.7648,-10.92,28.2,24.72
2.1248,-10.188,-4.0997,1.7251,2.6484,1.8772,-7.92,30.42,23.16
4.0589,-10.91,-4.2904,1.445,2.9315,2.1713,-6.54,31.44,22.38
4.7535,-11.155,-4.6718,1.2984,2.5372,2.3436,-5.1,32.34,21.66
5.0804,-11.237,-4.9169,1.1738,1.948,2.4432,-3.6,33.12,20.88
5.2302,-10.447,-5.7342,1.0647,1.4423,2.4315,-0.54,34.5,19.38
5.4754,-10.093,-6.2245,1.0046,0.95387,2.2834,0.9,34.98,18.66
5.7886,-9.9292,-6.9191,0.96944,0.41722,2.0116,2.1,35.34,17.88
6.4969,-10.719,-7.8998,0.85918,-0.16707,1.679,4.56,35.94,16.26
6.5105,-10.924,-7.7772,0.6353,-0.70921,1.3036,5.76,36.24,15.42
5.8704,-11.155,-7.4095,0.32254,-1.0143,0.87995,6.9,36.36,14.64
4.8352,-12.395,-7.2869,-0.19823,-0.69608,0.17623,8.52,36.72,12.84
4.6718,-13.103,-7.1507,-0.66859,-0.077274,-0.26939,9.3,36.96,12.18
4.8625,-13.021,-5.8704,-1.3589,0.64874,-0.93462,10.44,37.08,11.28
5.0668,-12.354,-4.7263,-1.6866,0.8491,-1.343,10.92,37.14,11.1
5.2983,-12.735,-4.2223,-1.843,0.83811,-1.7083,11.22,37.02,10.92
5.4754,-13.171,-4.2223,-1.9502,0.64599,-1.9884,11.28,36.96,10.92
5.7478,-14.506,-3.5685,-2.0635,0.33262,-2.2003,10.98,36.66,11.34
5.6116,-14.601,-3.051,-2.1524,-0.029932,-2.3546,10.62,36.48,11.58
5.1894,-14.152,-2.5742,-2.2758,-0.4331,-2.602,9.72,35.88,12.66
4.0316,-12.122,-1.7706,-2.3024,-0.54031,-2.806,9.0,35.64,13.26
