Ax,Ay,Az,Gx,Gy,Gz,Mx,My,Mz
4.4266,-7.0281,1.3076,-0.13622,0.15394,-0.13256,-15.12,30.18,19.44
4.7126,-8.5127,1.5936,-0.059559,0.26267,-0.076053,-16.38,30.0,18.84
5.0531,-9.4389,1.4846,-0.054978,0.29352,0.097128,-16.86,29.94,18.48
5.489,-10.161,1.1032,-0.028405,0.24404,0.15455,-18.0,30.0,17.82
5.5707,-10.474,0.78998,0.021075,0.042761,0.32193,-18.54,30.06,17.58
5.5435,-10.488,0.57205,0.0048869,-0.048258,0.40164,-18.96,29.94,17.34
5.2847,-11.087,0.6674,-0.062308,-0.046731,0.53176,-19.44,29.94,17.16
5.2575,-12.898,1.185,-0.24923,0.041233,0.70463,-19.8,29.94,17.04
5.2575,-12.299,1.2258,-0.5003,0.18509,0.8488,-19.86,30.06,16.92
4.9306,-9.6977,0.92618,-0.50671,0.19914,0.81886,-19.98,30.3,16.92
4.413,-8.4446,0.50395,-0.2642,0.16921,0.56841,-19.86,30.48,16.92
3.7865,-8.2403,0.32689,-0.061392,0.21686,0.31246,-19.5,30.72,17.04
3.1735,-9.902,0.095342,0.011301,0.30665,0.11606,-18.9,31.08,17.64
3.051,-10.556,0.054481,-0.079412,0.41386,0.034819,-18.72,31.2,17.82
2.7377,-10.42,0.40861,-0.43646,0.70158,0.074526,-18.42,31.32,18.12
2.2201,-9.0575,0.5993,-0.68997,1.0091,0.14019,-17.4,31.5,18.42
2.3563,-7.927,0.47671,-0.75411,1.3158,0.18051,-17.04,31.56,18.66
2.5879,-7.0281,0.40861,-0.45448,1.3644,0.28008,-16.8,31.56,18.84
3.4051,-5.8159,0.27241,-0.18051,1.2193,0.34422,-15.96,31.74,19.08
3.4868,-5.5707,0.47671,0.12828,0.81092,0.45204,-15.72,31.86,19.08
3.4459,-5.5026,0.46309,0.33445,0.37568,0.52443,-15.48,31.92,19.2
3.0373,-5.5162,0.36775,0.43585,0.016799,0.63347,-14.76,32.1,19.08
2.8603,-5.8976,0.23155,0.45357,-0.08827,0.73365,-14.52,32.1,19.02
2.9284,-6.8647,0.14982,0.4612,-0.037874,0.79779,-14.52,32.04,18.9
3.3915,-8.1177,0.027241,0.3879,0.085216,0.8491,-13.86,32.22,18.42
3.8001,-8.1858,0.01362,0.37446,0.1912,0.90133,-13.5,32.58,18.24
4.3177,-8.7306,-0.095342,0.47189,0.25717,0.92699,-12.96,33.18,17.76
5.3392,-10.842,-0.20431,0.4722,0.26145,0.91569,-12.6,33.36,17.64
5.6388,-11.346,-0.31327,0.44043,0.27,0.89309,-12.18,33.66,17.28
5.8295,-11.496,-0.38137,0.41997,0.29047,0.89492,-11.58,34.08,16.92
6.2517,-11.741,-0.47671,0.38882,0.29658,0.89828,-11.16,34.5,16.44
6.565,-11.972,-0.54481,0.30146,0.12248,0.81245,-10.92,34.8,16.2
6.8919,-12.64,-0.69464,0.24038,-0.046731,0.72174,-10.14,35.4,15.48
6.96,-12.926,-0.69464,0.097433,-0.29474,0.6185,-9.9,35.7,15.24
7.6002,-13.266,-0.70826,0.027489,-0.405,0.58643,-9.06,36.36,14.82
7.355,-12.49,-0.17706,-0.24832,-0.83505,0.28161,-8.58,36.72,14.52
6.0883,-10.992,0.43585,-0.43005,-0.98288,-0.0562,-8.34,36.96,14.34
5.4754,-10.338,0.54481,-0.54275,-0.92302,-0.42974,-7.86,37.2,14.16
4.127,-9.5479,0.77636,-0.59254,-0.71502,-0.74434,-7.32,37.32,14.1
4.0589,-9.8339,0.83084,-0.6295,-0.4102,-0.96578,-7.14,37.38,14.1
4.0997,-10.351,1.0488,-0.66493,-0.35033,-0.98013,-7.08,37.38,14.16
4.1406,-9.1256,1.4165,-0.76541,-0.29871,-0.97525,-6.96,37.44,14.4
4.0044,-8.2539,1.362,-0.78496,-0.39981,-0.93921,-6.96,37.2,15.06
3.7456,-7.2869,1.3757,-0.75045,-0.50549,-0.9841,-7.14,37.08,15.36
3.4868,-6.8783,1.4438,-0.67928,-0.57238,-1.0311,-7.2,36.66,15.96
3.4596,-6.3471,1.2667,-0.54764,-0.686,-1.0223,-7.5,36.48,16.32
3.514,-6.4969,1.1577,-0.47586,-0.77427,-1.0146,-7.92,36.06,16.68
3.4732,-6.7966,0.88532,-0.45968,-0.81153,-1.0128,-8.34,35.82,17.16
3.1735,-6.9191,0.96704,-0.51924,-0.77061,-0.9557,-9.24,35.22,17.76
3.0101,-7.4912,1.0624,-0.59346,-0.61239,-0.87476,-9.96,34.86,18.0
3.1463,-7.8453,1.1032,-0.68173,-0.3989,-0.7929,-10.56,34.44,18.3
3.4732,-8.5808,1.1577,-0.77397,-0.2193,-0.7251,-12.0,33.72,18.6
3.6094,-9.112,1.1986,-0.80023,-0.023518,-0.57757,-12.6,33.36,18.84
3.7047,-9.902,2.1248,-0.81703,0.041844,-0.44593,-13.26,32.94,18.84
3.8682,-10.515,2.1929,-0.78679,0.036957,-0.28283,-13.92,32.58,18.9
3.8682,-10.624,1.9341,-0.65851,-0.019548,-0.13042,-15.24,31.68,19.26
3.9499,-10.12,1.4165,-0.44685,-0.079412,-0.0067195,-15.78,31.32,19.74
3.8954,-10.488,1.362,-0.21961,-0.17623,0.10415,-16.32,30.84,20.04
3.5004,-12.354,2.0431,-0.16646,-0.10904,0.41875,-16.98,30.42,20.7
3.6094,-11.387,1.9341,-0.23946,0.03879,0.63927,-17.1,30.06,21.06
3.623,-10.052,1.6889,-0.22205,0.091019,0.73029,-17.34,29.82,21.54
3.2553,-7.8045,0.8717,0.15608,0.083078,0.75869,-17.28,29.58,21.96
2.8603,-7.8589,0.51757,0.45723,0.048258,0.61545,-16.8,29.52,22.86
2.7649,-8.3901,0.51757,0.70036,0.059559,0.4725,-16.62,29.52,23.34
2.833,-10.311,0.58567,0.71685,0.071166,0.47464,-16.14,29.58,23.88
2.6832,-9.9429,0.39499,0.64752,0.093462,0.51924,-15.18,29.7,24.6
2.5879,-8.8941,0.38137,0.56994,0.14661,0.59865,-14.64,30.06,24.96
2.4925,-8.2676,0.39499,0.57299,0.27855,0.71777,-13.98,30.42,25.14
2.5334,-6.7148,0.12258,0.64752,0.38973,0.74587,-12.78,31.2,24.96
2.6968,-6.4288,-0.01362,0.78741,0.4554,0.73059,-12.18,31.62,24.84
3.4732,-6.5105,-0.21793,0.90836,0.41417,0.71838,-10.98,32.34,24.48
3.7184,-6.4016,-0.47671,1.0394,0.092852,0.69333,-10.44,32.76,24.12
3.8682,-6.4016,-0.7355,1.0733,-0.051924,0.67928,-9.66,33.06,23.7
3.5822,-7.5729,-0.8036,1.1133,-0.40348,0.65027,-8.82,33.78,22.86
3.5413,-8.1995,-0.70826,1.0455,-0.45448,0.65271,-8.4,34.02,22.26
3.5822,-8.4446,-1.1577,0.96333,-0.36927,0.68814,-7.92,34.38,21.6
3.8682,-9.112,-1.1305,0.89125,-0.041233,0.73823,-7.02,35.04,20.52
4.3449,-9.9156,-1.185,0.86743,0.1124,0.74006,-6.48,35.46,19.86
4.808,-10.733,-1.2395,0.77122,0.17532,0.75167,-6.0,35.82,19.32
5.8704,-11.55,-1.3484,0.66004,0.14264,0.74984,-4.98,36.24,18.48
6.5514,-12.0,-1.5119,0.56933,-0.0030543,0.71074,-4.56,36.42,17.94
6.674,-12.217,-1.4029,0.45082,-0.19639,0.5962,-4.26,36.78,17.52
6.4152,-13.906,-1.2258,0.28405,-0.35277,0.41081,-3.66,37.26,16.5
6.9872,-14.478,-1.471,0.18906,-0.37721,0.37354,-3.36,37.38,16.08
7.246,-14.261,-0.96704,-0.16157,-0.60842,0.22266,-3.18,37.38,15.78
6.7966,-13.362,-0.58567,-0.43249,-0.76908,-0.025656,-2.82,37.62,15.48
5.2575,-11.795,0.50395,-0.68447,-0.74098,-0.34178,-2.28,37.56,15.12
4.5356,-11.019,1.0624,-0.86834,-0.57024,-0.65301,-2.04,37.5,15.06
4.1542,-10.542,0.99429,-0.96028,-0.40134,-0.88789,-2.04,37.38,15.18
4.2904,-10.188,0.74912,-0.95142,-0.29688,-1.0336,-1.86,36.84,15.54
4.413,-9.902,0.85808,-0.93921,-0.30055,-1.0641,-1.98,36.42,15.84
4.2904,-9.6704,0.96704,-0.96456,-0.31154,-1.0956,-2.04,36.12,16.14
3.732,-8.0496,1.3484,-1.0125,-0.30543,-1.1848,-2.28,35.04,17.04
3.5413,-7.2324,1.1169,-0.99266,-0.25381,-1.2697,-2.28,34.32,17.46
3.2689,-6.4833,0.64016,-0.90927,-0.22969,-1.3748,-2.58,32.88,18.54
3.2553,-6.8374,0.50395,-0.80054,-0.2868,-1.4865,-2.88,32.28,19.14
3.0782,-6.9055,0.54481,-0.84238,-0.25992,-1.4942,-3.12,31.62,19.5
2.8875,-7.2324,1.0488,-0.8995,-0.20006,-1.4212,-3.9,30.18,20.04
3.051,-7.8045,1.0215,-0.93676,-0.12614,-1.3204,-4.44,29.58,20.16
3.1599,-7.8181,0.88532,-0.94928,-0.12523,-1.2507,-5.22,28.98,20.16
2.8739,-8.2131,1.5255,-0.85094,-0.1518,-1.1066,-6.6,27.66,19.92
2.833,-9.3027,1.9341,-0.80543,-0.11332,-0.92363,-7.32,27.0,19.68
2.9556,-10.27,1.8796,-0.78435,-0.094684,-0.81581,-8.04,26.4,19.32
3.2144,-10.842,1.3757,-0.63499,-0.12645,-0.52412,-9.78,25.32,18.72
2.9965,-10.665,1.2531,-0.49572,-0.14752,-0.32223,-10.56,24.72,18.24
2.833,-10.106,1.1032,-0.38179,-0.12309,-0.1066,-11.52,24.18,17.94
2.6832,-11.441,1.7706,-0.32162,0.028711,0.30635,-13.26,23.34,17.16
2.7649,-12.0,1.9341,-0.36377,0.17746,0.62644,-13.98,22.86,16.86
2.9556,-11.509,1.9613,-0.36011,0.25565,0.78466,-14.82,22.5,16.8
3.2553,-9.6704,1.6481,-0.080634,0.28069,1.1096,-15.6,22.2,16.8
3.2416,-8.1858,1.1577,0.25656,0.24038,1.1161,-17.04,21.66,17.28
3.1463,-8.1995,0.76274,0.56933,0.24038,1.0095,-17.4,21.42,17.46
3.0237,-9.1801,0.40861,0.77916,0.29627,0.88789,-18.36,21.3,18.18
3.1872,-9.7385,0.10896,0.86865,0.43127,0.83414,-18.6,21.24,18.36
3.3915,-9.7658,-0.054481,0.84391,0.4554,0.86193,-18.9,21.36,18.78
3.5685,-9.0575,-0.054481,0.75533,0.45235,0.92974,-19.14,21.66,19.08
3.3097,-7.1234,-0.34051,0.65821,0.42761,1.0421,-19.38,22.2,19.68
3.1872,-6.4152,-0.50395,0.66859,0.43463,1.0565,-19.38,22.56,19.86
3.1872,-5.9521,-0.58567,0.72968,0.45815,1.0027,-19.26,22.92,20.16
3.4051,-6.1155,-1.0896,0.81886,0.50121,0.92302,-19.02,23.82,20.58
3.6775,-6.3062,-1.3757,0.82925,0.49114,0.89492,-18.78,24.36,20.76
4.1678,-6.3471,-1.5936,0.80817,0.44043,0.85521,-18.36,24.9,20.7
4.6309,-6.5786,-1.7843,0.81306,0.18906,0.88973,-18.06,25.38,20.58
5.5435,-8.4174,-2.0567,0.84483,-0.035736,0.94012,-17.22,26.64,20.64
5.8976,-9.2074,-2.0703,0.77519,-0.24343,0.94287,-16.56,27.3,20.4
6.17,-9.7385,-2.0294,0.69119,-0.37721,0.92271,-16.14,27.96,20.22
6.2926,-10.869,-2.1929,0.66951,-0.47647,0.80359,-15.24,29.34,20.1
6.4424,-11.836,-2.1384,0.54367,-0.45173,0.68478,-14.58,29.88,19.92
6.4016,-12.408,-1.8932,0.33292,-0.35827,0.52993,-14.1,30.48,19.68
6.1973,-12.095,-1.3484,0.12859,-0.18631,0.36621,-13.02,31.5,19.14
6.17,-11.986,-0.98067,0.014355,-0.036652,0.18082,-12.48,31.98,19.08
6.4016,-12.994,-0.96704,-0.037874,0.055283,0.03146,-12.18,32.46,18.9
6.7421,-12.898,-0.98067,-0.25107,0.051007,-0.11759,-11.4,33.36,18.6
6.8238,-12.217,-0.54481,-0.37477,-0.12004,-0.23335,-11.16,33.72,18.48
6.6331,-11.809,-0.12258,-0.51954,-0.33567,-0.43127,-10.8,34.02,18.48
5.598,-11.046,0.7355,-0.66371,-0.45876,-0.68356,-10.44,34.2,18.18
5.094,-10.896,0.70826,-0.77885,-0.45601,-0.91477,-10.5,34.32,18.24
4.6309,-10.61,0.57205,-0.85063,-0.38485,-1.098,-10.38,34.2,18.6
4.4402,-10.351,0.95342,-0.91844,-0.21991,-1.2117,-10.56,34.08,18.9
4.4402,-10.351,0.95342,-0.93768,-0.13103,-1.2382,-10.56,34.08,18.9
4.2904,-8.7306,1.58,-0.86804,-0.12248,-1.2932,-11.16,33.6,19.44
4.0861,-7.6002,1.2803,-0.70891,-0.20495,-1.3772,-11.64,33.42,19.86
3.8546,-7.069,0.84446,-0.48991,-0.39279,-1.4713,-12.72,32.7,20.52
3.623,-7.1371,0.64016,-0.3204,-0.58246,-1.5595,-13.26,32.04,21.0
3.3778,-7.0417,0.42223,-0.26206,-0.6857,-1.5488,-13.92,31.68,21.3
3.2825,-7.0553,0.21793,-0.30696,-0.78007,-1.482,-15.36,30.66,22.2
3.1599,-7.1643,0.14982,-0.38332,-0.7761,-1.3796,-16.08,30.18,22.5
3.0782,-7.3958,0.12258,-0.49022,-0.6918,-1.2727,-16.68,29.7,22.86
2.9965,-7.464,0.28603,-0.6182,-0.55131,-1.1567,-18.06,28.62,23.4
2.8603,-7.5321,0.35413,-0.75075,-0.26848,-0.93982,-18.6,28.08,23.46
3.2144,-8.6081,0.095342,-0.79443,-0.078496,-0.75869,-19.56,27.0,23.64
3.3915,-9.4389,0.068102,-0.86712,0.06689,-0.55131,-19.98,26.52,23.76
3.4187,-9.9973,0.42223,-0.96914,0.19853,-0.33537,-20.28,26.16,23.82
3.4323,-10.106,1.185,-1.0211,0.35094,-0.10721,-20.64,25.5,23.94
3.8954,-9.9701,0.9398,-0.97891,0.44593,0.12584,-20.64,25.08,24.0
4.0044,-10.406,0.84446,-0.82589,0.42791,0.33414,-20.52,25.08,24.0
4.0861,-12.054,1.185,-0.63958,0.41844,0.68173,-20.34,24.48,24.06
4.1951,-11.073,1.2531,-0.5736,0.46456,0.89309,-20.16,24.18,24.12
4.1814,-10.147,1.2939,-0.49908,0.46334,0.98166,-19.98,24.0,24.24
4.0589,-8.3493,0.83084,-0.1066,0.42211,1.0076,-19.56,23.7,24.54
3.9635,-8.322,0.55843,0.21777,0.38301,0.90103,-19.38,23.52,24.6
3.8273,-8.5808,0.40861,0.48472,0.31612,0.76755,-19.26,23.34,24.78
3.7728,-9.6432,0.20431,0.69394,0.21777,0.71135,-18.9,23.46,24.96
3.8273,-9.7794,-0.12258,0.71716,0.1628,0.76572,-18.72,23.58,25.08
3.7592,-9.2755,-0.35413,0.70555,0.15974,0.80543,-18.54,23.64,25.26
3.7592,-9.2755,-0.35413,0.70555,0.15974,0.80543,-18.54,23.64,25.26
3.1599,-7.355,-0.46309,0.64446,0.32223,0.89706,-18.24,24.12,25.44
2.8875,-5.7614,-0.40861,0.67806,0.45143,0.86468,-17.82,24.6,25.5
3.0101,-5.6661,-0.54481,0.78221,0.54306,0.88484,-17.52,24.96,25.5
3.4596,-5.9657,-0.85808,0.85185,0.48503,0.92577,-16.92,25.74,25.32
3.6775,-6.1973,-0.96704,0.86468,0.34697,0.97525,-16.62,26.34,25.08
4.0589,-6.6059,-1.3212,0.8491,0.17837,1.0327,-15.96,27.24,24.36
4.5764,-7.4095,-1.58,0.85307,0.040012,1.1014,-15.12,28.32,23.94
4.8897,-8.3493,-1.6344,0.84208,-0.072082,1.1267,-14.22,29.34,23.4
5.2575,-9.1801,-1.58,0.7813,-0.12737,1.1044,-13.14,30.3,22.62
5.5162,-9.9156,-1.7162,0.70738,-0.053451,1.0446,-11.94,31.2,21.96
5.7205,-10.379,-1.7979,0.68478,0.038179,1.0171,-11.46,31.56,21.66
6.6331,-11.577,-1.9477,0.6692,0.038179,0.97189,-10.32,32.64,20.88
7.0281,-12.721,-1.7843,0.5849,-0.015272,0.88942,-9.3,33.48,19.98
6.9328,-12.408,-1.6344,0.46029,-0.047953,0.74464,-8.34,33.78,19.5
6.6331,-12.749,-1.4029,0.37813,-0.07086,0.57452,-7.5,34.44,18.84
7.0145,-13.661,-1.757,0.34483,-0.1069,0.43799,-6.66,35.22,18.3
7.2869,-13.634,-2.1248,0.073304,-0.28191,0.24343,-6.18,35.58,17.94
7.1234,-12.735,-1.7843,-0.18204,-0.50824,0.042761,-5.88,35.88,17.64
5.7614,-11.25,-0.69464,-0.35583,-0.61545,-0.24496,-5.34,36.18,16.98
4.699,-10.542,-0.19068,-0.53023,-0.54398,-0.54306,-5.22,36.3,16.8
4.2087,-10.515,0.095342,-0.67134,-0.34239,-0.821,-5.04,36.36,16.56
4.127,-10.815,0.054481,-0.89492,-0.095906,-0.99876,-5.04,36.24,16.5
4.2087,-10.924,0.095342,-1.0131,0.035736,-1.0574,-5.16,36.36,16.5
4.1542,-10.61,0.35413,-1.0715,0.10751,-1.0956,-5.52,36.18,16.62
3.6639,-9.1801,0.70826,-1.1939,0.35339,-1.2248,-5.88,36.24,16.74
3.2144,-7.2052,0.8036,-1.1567,0.50091,-1.3522,-6.72,36.0,17.16
3.0646,-6.5378,0.65378,-1.0495,0.59834,-1.5168,-7.44,35.76,17.4
3.0646,-6.5378,0.65378,-0.83108,0.57879,-1.6692,-7.44,35.76,17.4
3.6639,-6.9328,0.38137,-0.71716,0.44074,-1.6777,-9.3,35.04,17.94
3.7728,-6.9872,0.25879,-0.66584,0.19578,-1.624,-10.38,34.5,18.12
3.8137,-7.0962,0.25879,-0.61361,-0.079718,-1.5113,-12.54,33.36,18.78
3.6503,-7.2188,0.14982,-0.5849,-0.32101,-1.3919,-14.64,32.4,19.08
3.337,-7.5729,0.095342,-0.5846,-0.45479,-1.2645,-17.1,31.32,19.44
3.1599,-8.1177,0.42223,-0.61117,-0.46548,-1.1298,-19.5,30.12,19.74
3.1191,-8.8805,0.64016,-0.67684,-0.32437,-0.80176,-21.3,29.16,19.92
3.2553,-9.3844,0.5993,-0.7028,-0.21777,-0.54489,-22.86,28.08,20.04
3.5004,-9.793,0.50395,-0.66432,-0.12889,-0.29169,-23.94,26.94,20.34
3.5277,-9.9701,0.50395,-0.57696,-0.051924,-0.051924,-24.36,26.4,20.34
3.5549,-9.9429,0.57205,-0.51374,0.009163,0.14233,-24.84,25.56,20.64
3.4596,-10.501,0.9398,-0.39279,0.09163,0.47067,-25.02,24.9,21.12
3.4868,-11.686,1.1441,-0.36377,0.13592,0.62003,-25.26,24.3,21.36
3.7728,-11.877,1.1032,-0.3375,0.2419,0.94165,-25.26,24.06,21.66
3.9908,-11.141,1.0488,-0.2303,0.28344,1.2767,-25.08,23.82,21.9
3.9908,-8.6353,0.76274,-0.0064141,0.24343,1.3308,-24.72,23.4,22.32
3.8682,-8.145,0.39499,0.26176,0.22785,1.2581,-24.66,23.28,22.68
3.5958,-8.7715,0.14982,0.52504,0.23732,1.1151,-24.42,23.34,23.1
3.5277,-9.507,0.12258,0.68692,0.23579,0.95509,-24.18,23.52,23.28
3.514,-9.9292,0.16344,0.72418,0.24312,0.87018,-24.0,23.64,23.4
3.6366,-9.4117,-0.095342,0.65882,0.24099,0.90805,-23.58,24.0,23.76
3.4732,-8.6762,-0.35413,0.65027,0.25717,0.96822,-23.34,24.18,23.76
3.1872,-7.7636,-0.35413,0.67287,0.31215,0.98777,-23.04,24.54,23.76
2.9556,-6.3198,-0.43585,0.75411,0.52107,0.95387,-22.5,25.02,23.82
3.0646,-6.0747,-0.47671,0.83536,0.62705,0.94715,-21.96,25.32,23.88
3.3097,-5.9793,-0.44947,0.88575,0.63561,0.94226,-21.48,25.68,23.7
3.7047,-6.2654,-0.69464,0.97708,0.44196,0.94257,-20.7,26.52,23.58
4.0316,-6.8102,-0.9398,0.99815,0.20556,0.97616,-20.22,26.82,23.34
4.2904,-7.6683,-1.185,1.011,-0.03207,1.0263,-19.56,27.3,23.1
4.3721,-8.6081,-1.1577,0.95631,-0.22846,1.0776,-18.54,28.14,22.44
4.2768,-8.9486,-1.1577,0.8488,-0.19395,1.0895,-18.06,28.56,22.08
4.5083,-9.4661,-1.2258,0.79901,0.064752,1.0608,-17.34,29.1,21.72
5.5162,-11.713,-1.8115,0.72388,0.23152,1.0018,-16.02,30.06,21.18
5.8704,-12.095,-1.9068,0.59712,0.34728,0.88423,-15.18,30.66,20.94
6.17,-12.122,-1.7706,0.49847,0.37599,0.77397,-14.52,30.96,20.52
6.8783,-12.599,-1.757,0.3934,0.22755,0.56841,-13.32,32.1,19.74
6.8919,-12.926,-1.7979,0.30299,0.045204,0.35888,-12.78,32.52,19.32
6.7285,-13.511,-1.7434,0.21564,-0.13134,0.16341,-12.3,32.94,18.84
6.9872,-13.811,-2.0975,0.033903,-0.28527,0.025351,-11.16,33.72,18.12
6.8647,-13.348,-1.9886,-0.18723,-0.47464,-0.11515,-10.8,34.02,17.58
6.1428,-12.027,-1.4301,-0.45662,-0.64568,-0.39401,-10.62,34.44,17.16
4.4811,-10.256,-0.39499,-0.73793,-0.55986,-0.85918,-9.72,34.62,16.62
4.1542,-10.161,-0.27241,-0.84788,-0.31093,-1.1457,-9.48,34.68,16.5
4.0861,-10.215,-0.21793,-0.97952,-0.082772,-1.3109,-9.48,34.62,16.44
4.2495,-10.215,-0.21793,-1.0403,-0.011301,-1.3534,-9.54,34.44,16.44
4.5901,-9.8611,0.35413,-1.1298,0.066279,-1.3198,-9.96,33.84,16.38
4.6718,-9.2891,0.61292,-1.164,0.018326,-1.262,-10.38,33.54,16.44
4.4811,-8.431,0.8717,-1.1704,-0.097738,-1.2709,-11.16,32.46,16.98
3.8682,-6.9191,1.2939,-1.0996,-0.22358,-1.3744,-11.82,31.86,17.28
3.7456,-6.4833,1.362,-1.0049,-0.31154,-1.434,-12.48,31.08,17.76
3.732,-6.5105,1.2395,-0.93523,-0.36591,-1.4545,-13.26,30.3,18.12
3.5822,-6.8783,0.91256,-0.76419,-0.54703,-1.5098,-14.04,29.52,18.42
3.1191,-7.1915,0.7355,-0.71319,-0.6127,-1.4807,-15.54,27.6,19.5
2.942,-7.5457,0.99429,-0.73609,-0.6017,-1.3931,-16.32,26.64,20.22
2.6696,-8.0905,1.2258,-0.8042,-0.51496,-1.2654,-17.88,24.96,21.0
2.6696,-8.1858,1.2531,-0.87048,-0.34453,-1.0614,-18.48,24.12,21.3
2.5742,-8.3765,1.2258,-0.85979,-0.28619,-0.99968,-18.9,23.28,21.6
2.5606,-8.9486,1.2531,-0.78313,-0.081551,-0.74526,-19.86,21.78,22.26
2.6696,-9.9565,1.4029,-0.72479,0.054367,-0.5171,-20.04,21.0,22.5
2.9284,-10.556,1.471,-0.68295,0.1857,-0.25992,-20.28,20.28,22.68
3.0918,-9.7249,0.99429,-0.61056,0.26909,-0.053451,-20.46,19.08,22.8
2.9829,-10.324,1.0079,-0.46701,0.29413,0.1573,-20.4,18.6,22.92
2.9284,-11.305,1.0896,-0.32284,0.33995,0.41814,-20.34,18.12,22.98
3.2553,-12.149,1.362,-0.31521,0.51435,0.8659,-20.28,17.58,23.1
3.8273,-10.052,1.1713,-0.19731,0.53726,1.0831,-20.04,17.04,23.1
3.8954,-9.0167,0.76274,0.085216,0.45051,1.15,-19.92,16.86,22.98
3.8682,-8.6489,-0.027241,0.4047,0.35919,1.0531,-19.74,16.38,23.22
3.6911,-9.2755,-0.095342,0.74862,0.25137,0.83689,-19.8,16.38,23.28
3.6775,-10.215,-0.23155,0.8039,0.23182,0.78679,-19.8,16.5,23.28
3.8682,-10.978,-0.64016,0.77641,0.26725,0.74526,-19.62,16.68,23.28
3.8273,-10.379,-0.85808,0.6576,0.32681,0.75136,-19.74,16.8,23.28
3.4323,-8.7715,-0.89894,0.59254,0.42577,0.74831,-19.68,16.98,23.28
2.9965,-6.7693,-0.85808,0.57146,0.66309,0.6805,-19.56,17.7,23.46
3.0237,-5.6661,-0.9398,0.6408,0.79596,0.62675,-19.56,18.06,23.52
3.0237,-5.3937,-0.9398,0.70494,0.82009,0.61239,-19.44,18.48,23.52
3.5004,-5.6252,-1.4574,0.83566,0.73334,0.63866,-19.14,19.44,23.76
3.8273,-5.9249,-1.6753,0.84605,0.58429,0.74037,-19.14,19.86,24.0
4.2904,-6.1836,-1.7434,0.83444,0.37293,0.88209,-19.14,20.22,24.06
5.1213,-7.4503,-1.9613,0.83169,0.11515,1.0376,-18.54,21.3,23.82
5.5435,-8.2267,-2.0022,0.76969,0.015577,1.0641,-18.12,21.72,23.88
5.884,-8.9077,-1.9341,0.72937,-0.0061087,1.047,-17.82,22.08,23.94
6.456,-10.093,-1.8387,0.62736,-0.033903,0.99052,-16.8,23.04,23.64
7.1098,-10.91,-1.9205,0.54947,-0.070555,0.94226,-16.32,23.58,23.52
7.5457,-11.891,-2.0431,0.47861,-0.17837,0.85735,-15.72,24.18,23.46
7.5729,-12.095,-1.9613,0.3934,-0.3317,0.74434,-14.52,25.14,23.16
7.355,-12.354,-1.7298,0.27611,-0.47617,0.49175,-13.92,25.68,22.98
7.2052,-12.817,-1.6753,0.25137,-0.5061,0.41539,-13.2,26.22,22.8
7.1915,-14.111,-1.4982,-0.041233,-0.50121,0.19578,-12.42,26.64,22.62
7.3141,-13.906,-1.4846,-0.33231,-0.49114,0.022602,-11.76,27.18,22.38
6.6059,-11.618,-0.34051,-0.59834,-0.5229,-0.23549,-10.08,27.9,21.54
5.9657,-11.005,-0.34051,-0.75075,-0.48503,-0.57208,-9.42,28.2,21.42
4.699,-10.038,0.46309,-0.83078,-0.33598,-0.91752,-8.82,28.26,21.12
4.5901,-10.052,0.57205,-0.85857,-0.12981,-1.2,-7.86,28.5,20.52
4.7807,-10.093,0.35413,-0.85643,-0.050396,-1.3357,-7.62,28.5,20.46
4.9987,-10.052,0.50395,-0.86468,0.020159,-1.3201,-7.68,28.38,20.34
5.0395,-9.3436,0.57205,-0.86773,-0.057421,-1.2715,-7.8,28.08,20.04
4.6173,-8.3084,0.85808,-0.86163,-0.17379,-1.2636,-8.16,27.72,20.04
3.8273,-6.9872,1.0488,-0.85063,-0.23152,-1.3393,-8.82,26.58,19.8
3.6775,-6.4697,1.1986,-0.76022,-0.19823,-1.4407,-9.42,25.92,19.74
3.5413,-6.2381,1.1577,-0.69791,-0.18815,-1.4532,-10.02,25.26,19.62
3.5413,-6.1836,1.0215,-0.50213,-0.2813,-1.4447,-10.86,24.54,19.5
3.8954,-6.565,0.84446,-0.37721,-0.47098,-1.3723,-12.54,22.92,19.38
3.7184,-6.8647,0.8036,-0.2868,-0.67348,-1.2581,-13.44,22.14,19.32
3.5685,-7.3277,0.70826,-0.32559,-0.73731,-1.0669,-14.22,21.24,19.26
3.2416,-7.3005,0.78998,-0.36835,-0.68906,-1.0073,-15.0,20.4,19.26
2.9284,-7.5048,0.83084,-0.46578,-0.3934,-0.82284,-16.26,18.42,19.2
3.0918,-7.927,0.64016,-0.51221,-0.17165,-0.6689,-16.56,17.28,19.14
3.3234,-8.3901,0.57205,-0.52687,-0.040317,-0.49602,-16.74,16.14,19.2
3.732,-9.3027,1.0079,-0.51099,0.013744,-0.28802,-16.92,13.98,19.02
3.7456,-9.6432,1.0624,-0.4441,0.055589,0.025656,-16.92,12.9,19.08
3.9227,-9.902,0.68102,-0.36805,0.10721,0.22602,-16.74,11.1,19.02
3.732,-10.46,0.81722,-0.3204,0.13164,0.32223,-16.5,10.08,19.08
3.5822,-11.101,0.99429,-0.26389,0.33811,0.70188,-16.26,9.06,19.08
3.9771,-11.959,1.4982,-0.29108,0.53481,0.99846,-15.9,7.38,19.26
4.3177,-10.733,1.2667,-0.24984,0.62583,1.2507,-15.84,6.66,19.38
4.4675,-8.1858,0.62654,-0.016799,0.55772,1.3549,-15.66,5.46,19.8
4.3313,-8.0224,0.35413,0.46823,0.32498,1.2611,-15.66,4.98,20.1
4.0997,-8.4038,0.31327,0.70494,0.1854,1.1442,-15.66,4.56,20.64
3.9227,-9.1529,0.24517,0.81581,0.12278,1.051,-15.66,4.32,21.18
3.8137,-9.8339,0.16344,0.79962,0.12126,1.0382,-15.78,4.26,21.66
3.7865,-9.6568,-0.10896,0.70891,0.16341,1.0702,-15.96,4.32,22.8
3.6094,-8.7579,-0.32689,0.65149,0.28466,1.1313,-16.08,4.62,23.4
3.2961,-6.8238,-0.65378,0.66737,0.32345,1.1313,-16.14,5.28,24.72
3.1599,-6.1019,-0.8036,0.71319,0.40623,1.0907,-16.32,5.76,25.38
3.2416,-5.775,-0.83084,0.76114,0.50763,1.0412,-16.14,6.3,26.04
3.4187,-5.8704,-0.8036,0.82192,0.54917,1.0085,-15.78,7.02,26.82
3.9908,-6.565,-0.96704,0.82375,0.45051,1.0003,-15.24,8.52,28.02
4.1542,-6.9055,-1.1169,0.76847,0.219,1.047,-14.7,9.42,28.5
4.5764,-7.7091,-1.3212,0.74617,0.15424,1.0782,-13.56,10.98,29.46
4.7671,-8.2948,-1.5119,0.70585,0.050702,1.149,-12.78,12.0,29.7
5.1213,-9.0984,-1.5527,0.60048,-0.0036652,1.1845,-12.24,13.02,29.7
5.4618,-10.052,-1.3484,0.51282,0.058948,1.1496,-10.8,14.82,29.88
5.8976,-10.529,-1.4301,0.46365,0.15027,1.0797,-10.14,15.78,29.82
6.4969,-11.101,-1.7298,0.46273,0.1576,0.98471,-9.36,16.68,29.82
7.3414,-12.558,-1.7298,0.40775,-0.048258,0.79871,-7.68,18.54,29.64
7.3414,-12.871,-1.6072,0.26176,-0.22388,0.65179,-6.72,19.44,29.4
7.355,-12.721,-1.5255,0.12462,-0.354,0.4444,-5.82,20.28,29.34
7.0417,-13.525,-1.3212,0.096211,-0.43402,0.24251,-4.26,21.84,28.86
7.1779,-14.288,-1.471,-0.032376,-0.45326,0.050396,-3.36,22.56,28.68
7.4231,-14.315,-1.4029,-0.39676,-0.54367,-0.26328,-1.86,23.88,28.08
6.5241,-12.054,-0.20431,-0.49908,-0.61697,-0.40959,-0.96,24.54,27.78
5.5707,-10.774,0.35413,-0.71227,-0.62919,-0.94592,-0.18,24.96,27.36
4.7807,-9.9292,0.57205,-0.73518,-0.57116,-1.1139,0.66,25.32,27.18
4.3313,-9.616,0.69464,-0.7083,-0.40195,-1.5192,1.5,25.62,26.94
4.1814,-10.12,0.89894,-0.69944,-0.35552,-1.6222,2.94,26.1,26.28
4.3313,-10.202,0.9398,-0.71227,-0.35552,-1.6304,3.42,26.34,25.68
4.2223,-8.9077,1.3212,-0.7364,-0.39951,-1.5708,4.2,26.46,24.6
3.8273,-7.8998,1.3757,-0.7083,-0.49175,-1.5033,4.2,26.58,24.0
3.514,-7.4095,1.2803,-0.60598,-0.59559,-1.5049,4.02,26.7,23.28
2.9965,-6.4833,1.0896,-0.53329,-0.56016,-1.5455,3.48,26.76,21.9
3.1327,-6.7421,0.99429,-0.4777,-0.49388,-1.5452,2.7,26.82,21.18
3.3506,-6.9872,0.92618,-0.49266,-0.45571,-1.5391,2.1,26.7,20.34
3.0646,-6.7693,0.99429,-0.5455,-0.48014,-1.4615,-0.12,26.4,18.66
2.9692,-6.9328,1.3076,-0.55711,-0.47709,-1.4077,-1.44,26.34,17.94
2.9011,-7.0553,1.3212,-0.59101,-0.44074,-1.2785,-3.06,26.22,16.92
3.0237,-7.3277,1.2803,-0.56902,-0.40256,-1.0733,-4.5,26.04,16.08
2.6968,-7.7227,1.3348,-0.52382,-0.36621,-0.92638,-7.86,25.44,14.46
2.6151,-8.2267,1.3076,-0.46487,-0.28161,-0.75198,-9.6,24.9,13.92
2.7649,-9.3027,1.7706,-0.41783,-0.13439,-0.39065,-13.08,24.0,13.08
2.8058,-10.42,1.7298,-0.36408,-0.053451,-0.12706,-14.58,23.4,12.78
2.9284,-10.665,1.6344,-0.32895,-0.01741,-0.0058032,-15.96,22.92,12.54
2.942,-9.8611,1.1577,-0.16066,0.094379,0.31887,-18.6,21.96,12.18
2.833,-10.256,1.1713,-0.016188,0.1347,0.58032,-19.68,21.24,12.06
2.7649,-11.291,1.4438,0.019242,0.20892,0.88209,-20.76,20.7,12.12
3.051,-12.068,1.8932,-0.041233,0.30635,1.193,-22.32,19.92,12.3
3.1872,-11.278,1.9613,-0.063835,0.47373,1.5605,-23.04,19.56,12.48
3.2144,-10.12,1.7025,-0.0051924,0.50732,1.6115,-23.46,19.26,12.78
3.2008,-9.1393,1.3484,0.31765,0.56505,1.5473,-24.36,19.08,13.38
3.1463,-9.3163,1.2667,0.57452,0.58063,1.4019,-24.6,19.02,13.92
3.1599,-9.9837,0.77636,0.77488,0.61758,1.2443,-24.66,19.08,14.28
3.5958,-10.474,0.095342,0.88056,0.66493,1.1173,-24.6,19.32,14.88
3.623,-10.283,-0.027241,0.81978,0.66981,1.1044,-24.54,19.56,15.18
3.3506,-9.3708,0.040861,0.76328,0.68447,1.1063,-24.36,19.74,15.42
3.1872,-7.8317,-0.027241,0.61911,0.85613,1.1744,-23.88,20.28,15.9
3.337,-7.0962,-0.19068,0.56963,0.96822,1.2196,-23.46,20.7,16.2
3.6366,-6.4833,-0.31327,0.60292,0.99693,1.2486,-23.16,21.24,16.32
4.7399,-6.4833,-0.54481,0.74953,0.75808,1.2602,-22.38,22.26,16.5
4.9578,-6.9328,-0.8036,0.76664,0.50213,1.2346,-21.84,22.62,16.56
4.9169,-7.2052,-0.64016,0.7648,0.38882,1.208,-21.36,23.1,16.44
5.0668,-7.4367,-0.83084,0.75564,0.13989,1.1222,-20.88,23.46,16.32
5.3937,-8.5536,-1.0215,0.70952,0.040928,1.022,-19.68,24.36,15.84
5.094,-8.7306,-0.76274,0.60689,0.07025,0.88239,-19.14,24.84,15.54
4.9169,-8.9349,-0.76274,0.55833,0.22633,0.74587,-18.54,25.44,15.18
5.3528,-10.433,-0.51757,0.54336,0.40103,0.6185,-17.64,26.4,14.64
5.5299,-11.727,-0.36775,0.50977,0.53023,0.51679,-17.16,26.7,14.4
5.5435,-12.612,-0.12258,0.30849,0.64294,0.33353,-16.8,27.24,14.04
5.5435,-12.122,0.19068,0.15974,0.68875,0.23366,-15.96,27.84,13.56
5.38,-11.645,0.21793,0.12859,0.64691,0.1463,-15.54,28.14,13.2
5.1894,-11.768,0.16344,0.16799,0.55619,0.029932,-15.12,28.44,13.08
5.3664,-12.517,-0.12258,0.13256,0.42394,-0.069639,-14.34,29.16,12.54
5.489,-12.626,-0.054481,0.097128,0.32437,-0.033598,-13.98,29.34,12.48
5.5299,-12.64,0.24517,-0.0082467,0.016799,0.018021,-13.68,29.58,12.18
4.699,-11.441,1.4165,-0.33384,-0.48778,-0.1127,-13.56,30.0,11.94
3.9363,-10.392,1.7025,-0.48106,-0.71257,-0.33109,-13.38,30.06,11.88
3.228,-9.6977,1.4574,-0.49602,-0.8039,-0.57788,-13.32,30.3,11.88
2.3018,-9.8203,1.185,-0.42364,-0.66859,-0.88606,-13.08,30.42,11.82
2.1248,-10.052,1.0215,-0.43005,-0.54947,-0.93951,-12.84,30.6,12.0
2.1248,-9.8066,0.7355,-0.50824,-0.26756,-0.93249,-12.54,30.54,11.94
2.2474,-9.3163,1.076,-0.71288,-0.57116,-0.54978,-12.24,30.54,12.12
1.7025,-7.4912,0.89894,-0.70524,-0.87812,-0.44349,-11.64,30.54,11.88
1.3757,-6.4833,0.77636,-0.65637,-0.79382,-0.44807,-11.34,30.3,11.82
2.3563,-6.3471,1.362,-0.52748,-0.38057,-0.69364,-10.98,30.0,11.7
3.3778,-7.1507,2.152,-0.49144,-0.13561,-0.80023,-10.44,29.52,11.16
3.8001,-7.5593,2.4517,-0.52168,-0.079412,-0.89492,-10.32,29.22,11.04
3.7865,-7.3414,2.6968,-0.54795,-0.11026,-0.90164,-10.14,28.92,10.74
3.5549,-6.565,2.7649,-0.45845,-0.20036,-0.95478,-10.38,28.2,9.78
3.5549,-6.4969,2.3427,-0.31368,-0.25168,-0.94684,-10.68,27.48,9.12
3.4187,-7.5729,1.866,-0.20647,-0.19212,-0.89125,-11.7,26.22,8.04
3.4459,-7.927,1.6072,-0.22999,0.10354,-0.73212,-12.42,25.38,7.5
3.7456,-8.1858,1.3484,-0.26664,0.20189,-0.67501,-13.08,24.6,7.08
4.5901,-9.7794,0.5993,-0.36896,0.23243,-0.45937,-14.88,22.92,6.6
4.5764,-10.801,1.2395,-0.54367,0.10721,-0.37141,-15.72,22.2,6.6
4.2904,-11.264,1.6889,-0.71166,-0.032681,-0.26298,-16.68,21.42,6.72
3.6094,-11.564,1.0351,-0.73701,-0.20372,-0.13744,-18.84,20.46,7.2
3.051,-11.972,1.2258,-0.63652,-0.34331,0.083994,-19.56,19.98,7.5
1.8387,-13.389,1.9886,-0.63347,-0.27611,0.17868,-20.4,19.74,7.92
1.6481,-13.021,2.3291,-0.67073,0.19761,0.43799,-21.84,19.56,9.18
1.4438,-11.21,2.152,-0.58368,0.43127,0.57941,-22.38,19.68,9.72
0.7355,-9.1256,1.7706,-0.29658,0.39218,0.61361,-22.92,19.92,10.56
-0.21793,-8.4719,1.58,0.10599,0.25565,0.48442,-23.34,20.7,12.0
-0.35413,-9.7522,1.471,0.48655,0.20403,0.38729,-23.52,21.3,12.48
-0.12258,-10.774,1.4438,0.53939,0.2868,0.49755,-23.64,22.08,12.96
0.39499,-11.005,1.4574,0.47556,0.46548,0.68478,-23.46,23.76,13.5
0.78998,-10.351,1.5119,0.41111,0.65118,0.90286,-23.4,24.66,13.68
1.4029,-9.0984,1.362,0.4328,0.74067,1.0763,-23.28,25.62,13.74
2.2337,-7.3277,0.76274,0.58704,0.72326,1.1603,-22.56,27.0,13.8
2.6151,-6.8374,0.53119,0.91844,0.4612,1.1872,-22.32,27.72,13.62
3.1599,-6.4152,-0.054481,1.0018,0.31734,1.1927,-21.72,28.32,13.38
3.1599,-6.4152,-0.054481,1.0571,0.16768,1.1884,-21.72,28.32,13.38
3.6366,-7.355,-0.16344,1.047,-0.41569,1.0959,-19.92,29.7,12.36
3.7456,-7.4231,-0.29965,1.0082,-0.45479,1.073,-19.14,30.06,11.76
3.9227,-7.6955,-0.70826,0.95784,-0.47159,1.033,-18.42,30.54,11.22
4.5083,-8.7306,-1.0624,0.90805,-0.44502,0.98227,-16.8,31.26,10.26
4.5764,-8.9213,-0.99429,0.81062,-0.41905,0.89706,-16.02,31.62,9.6
4.9442,-9.6977,-0.84446,0.72113,-0.38332,0.84055,-14.58,32.1,8.58
5.3119,-10.311,-1.1032,0.68111,-0.42974,0.76725,-13.86,32.28,8.16
5.5707,-11.645,-1.1577,0.62247,-0.48136,0.6182,-12.72,32.82,6.9
5.3392,-11.877,-0.96704,0.45723,-0.48045,0.46426,-12.18,33.06,6.42
5.1349,-11.863,-0.50395,0.23793,-0.37568,0.32529,-11.22,33.54,5.52
5.2166,-11.877,-0.32689,0.025656,-0.2193,0.18418,-10.74,33.78,5.04
5.1349,-12.476,-0.23155,-0.11698,-0.083994,0.026878,-10.32,33.84,4.68
5.5162,-13.062,-0.068102,-0.38668,0.026573,-0.15302,-9.84,34.5,4.14
5.9793,-12.817,0.054481,-0.53237,-0.0562,-0.22419,-9.48,34.62,3.96
5.9793,-12.313,0.58567,-0.66554,-0.29596,-0.38851,-9.18,34.74,3.72
5.2166,-11.223,0.89894,-0.8488,-0.60109,-0.81062,-9.0,34.98,3.72
4.8352,-10.855,0.96704,-0.89156,-0.65576,-0.95326,-9.06,35.22,3.78
4.5083,-10.665,1.0624,-0.91447,-0.70097,-1.2089,-8.88,35.22,3.72
4.4402,-11.182,1.3348,-0.92974,-0.74251,-1.398,-9.06,35.28,4.2
4.4947,-10.992,1.4438,-0.94654,-0.82406,-1.4166,-9.12,35.28,4.56
4.5492,-10.61,1.2803,-0.9334,-0.92149,-1.4453,-9.24,35.22,5.1
4.1406,-9.6432,1.1032,-0.9108,-1.0479,-1.6157,-9.84,35.1,6.18
3.5413,-8.826,1.0896,-0.94745,-0.93065,-1.7822,-10.32,34.92,6.78
3.0237,-8.3493,1.0351,-0.97738,-0.62766,-1.9334,-10.86,34.8,7.38
2.6968,-7.5729,1.076,-0.96181,-0.28558,-2.0409,-12.12,34.2,8.76
3.1463,-7.641,1.0215,-0.93432,-0.07422,-2.084,-12.9,33.78,9.48
3.7728,-7.9951,0.98067,-0.86468,-0.11698,-2.0626,-13.74,33.36,10.14
3.9363,-7.927,1.0896,-0.82131,-0.3485,-1.971,-15.42,32.58,11.34
3.7728,-7.8045,1.1169,-0.78832,-0.70311,-1.8659,-16.2,31.92,11.7
3.2144,-8.0905,0.96704,-0.79779,-0.74098,-1.8008,-17.04,31.5,12.24
2.9556,-9.3844,0.96704,-0.87415,-0.66493,-1.5565,-18.78,30.6,12.84
2.8739,-9.9156,1.185,-0.96578,-0.50793,-1.3491,-19.62,30.12,13.32
2.8603,-10.243,1.2122,-1.0088,-0.32254,-1.0989,-20.4,29.7,13.56
3.2008,-11.182,1.1577,-1.003,-0.15699,-0.70952,-21.9,28.8,13.8
3.2008,-11.319,1.3484,-0.97433,-0.089492,-0.52351,-22.38,28.5,14.1
2.9284,-11.237,1.6344,-0.95051,-0.048869,-0.43341,-22.92,28.02,14.28
2.5879,-11.182,1.8796,-0.82925,0.15852,-0.13561,-23.28,27.6,14.34
2.4517,-11.577,1.9613,-0.74862,0.36011,0.14019,-23.94,27.0,14.46
2.547,-10.937,1.866,-0.63469,0.51832,0.40348,-24.24,26.76,14.58
2.6015,-9.9429,1.4438,-0.44502,0.59376,0.60231,-24.72,26.16,14.94
2.3291,-8.5672,1.1577,-0.04215,0.71807,0.77244,-24.96,26.16,15.12
2.3836,-8.6489,0.8717,0.19914,0.85399,0.81948,-25.08,26.04,15.36
2.3972,-9.221,0.55843,0.34972,0.99388,0.88973,-25.2,25.98,15.54
2.7104,-10.188,0.29965,0.38149,1.098,1.0467,-25.44,25.86,15.6
2.8875,-9.9701,0.23155,0.33506,1.1283,1.2425,-25.56,25.92,15.6
2.9965,-9.2346,-0.027241,0.23396,1.1106,1.5293,-25.56,26.1,15.84
2.8875,-8.1586,-0.24517,0.17929,1.1448,1.6704,-25.56,26.28,15.84
3.1191,-7.2869,-0.35413,0.15608,1.2297,1.7627,-25.44,26.52,15.84
3.1599,-6.8919,-0.38137,0.15333,1.3732,1.817,-25.32,26.7,15.78
3.2825,-6.4424,-0.50395,0.17471,1.5311,1.836,-24.96,27.0,15.9
3.9227,-6.3198,-0.55843,0.20647,1.6533,1.8314,-24.12,28.02,15.54
4.6037,-6.0883,-0.54481,0.24801,1.6738,1.8164,-23.58,28.5,15.3
6.3743,-6.5378,-1.2122,0.39126,1.4282,1.7993,-22.5,29.58,14.52
7.1915,-7.2188,-1.5663,0.45662,1.0895,1.7633,-21.84,30.12,14.22
7.5729,-7.8045,-1.8115,0.4496,0.75411,1.679,-21.06,30.78,13.86
7.7636,-8.0905,-1.9613,0.42577,0.53726,1.602,-20.1,31.44,13.62
8.7034,-9.6704,-2.3836,0.43707,0.43707,1.536,-18.24,32.52,13.14
9.1937,-10.542,-2.5742,0.43646,0.41325,1.4563,-17.46,33.12,12.78
9.8611,-11.863,-2.6968,0.26817,0.29688,1.1338,-16.38,33.78,12.36
9.6568,-12.149,-2.0975,0.1127,0.2361,0.82039,-14.4,35.04,11.34
9.1937,-11.904,-1.9341,0.0030543,0.26084,0.46884,-13.44,35.58,10.92
8.7987,-11.945,-1.7979,-0.014661,0.33017,0.11729,-12.6,36.12,10.44
8.5536,-12.803,-1.5936,-0.071471,0.40806,-0.15944,-11.34,37.02,9.78
8.717,-13.157,-1.2395,-0.19517,0.3934,-0.32742,-10.74,37.56,9.42
8.3629,-11.155,-0.91256,-0.31612,0.17257,-0.51618,-9.48,38.4,9.06
7.6274,-9.8475,-0.72188,-0.26359,-0.32681,-0.87934,-9.3,38.58,8.88
6.6876,-9.0439,-0.83084,-0.12492,-0.61209,-1.1689,-9.18,38.7,8.58
6.3198,-9.0031,-0.92618,-0.019242,-0.82436,-1.4276,-9.12,38.88,8.34
5.4754,-9.6568,-0.92618,-0.0042761,-1.0119,-1.5773,-9.24,39.18,7.74
5.38,-9.9292,-0.8036,-0.076664,-1.1454,-1.5904,-9.48,39.18,7.56
5.3664,-9.8884,-0.54481,-0.29566,-1.2614,-1.5015,-10.38,39.0,7.74
4.8625,-8.9349,-0.027241,-0.44593,-1.2963,-1.4368,-11.04,38.64,7.68
4.4402,-8.145,0.19068,-0.52595,-1.2373,-1.4453,-11.94,38.4,7.8
4.1951,-7.5048,0.44947,-0.53451,-1.0757,-1.5116,-12.9,38.28,7.86
4.2904,-6.96,0.51757,-0.49022,-0.91049,-1.5702,-14.94,37.62,8.22
4.4539,-6.9736,0.47671,-0.41447,-0.84513,-1.6105,-16.08,37.08,8.46
4.6718,-7.0281,0.57205,-0.33201,-0.88881,-1.6163,-17.28,36.6,8.82
4.6173,-7.0553,0.74912,-0.29047,-1.0571,-1.5232,-19.8,35.7,9.3
4.5083,-7.3005,0.85808,-0.30604,-1.1057,-1.4591,-21.06,35.28,9.66
4.4266,-7.4503,0.74912,-0.35247,-1.1548,-1.3354,-22.26,34.62,9.9
4.1814,-7.9815,0.69464,-0.46242,-1.1148,-1.146,-24.84,33.48,10.86
3.9635,-8.1177,0.91256,-0.54275,-0.99327,-0.96822,-25.98,33.12,11.4
4.0725,-8.54,0.9398,-0.60231,-0.84483,-0.74862,-27.12,32.64,11.82
4.4947,-9.9292,0.6674,-0.65851,-0.68478,-0.4609,-28.98,31.74,12.78
4.413,-10.025,0.8036,-0.70188,-0.57208,-0.32223,-29.64,31.26,13.32
4.0997,-9.9973,0.92618,-0.73151,-0.39126,-0.208,-30.3,30.72,13.8
3.8682,-9.9292,0.64016,-0.69608,-0.17837,-0.10324,-31.08,29.7,14.76
3.6775,-10.774,0.85808,-0.60842,0.017715,0.046426,-31.5,29.34,15.24
3.7728,-11.632,1.1577,-0.58674,0.20128,0.24251,-31.74,28.8,15.66
3.5413,-10.229,1.1577,-0.46426,0.41356,0.50732,-31.92,27.96,16.68
3.1872,-8.3493,0.76274,-0.20861,0.44838,0.62919,-31.98,27.66,17.22
3.1327,-7.7364,0.47671,-0.032987,0.43982,0.66401,-32.04,27.48,17.7
3.0373,-8.2267,-0.10896,0.52015,0.3711,0.68173,-32.16,26.94,18.48
3.0373,-9.0303,-0.25879,0.7532,0.29688,0.71838,-32.22,26.7,18.84
3.1599,-10.174,-0.28603,0.85888,0.17868,0.82222,-32.1,26.58,19.08
3.2689,-10.229,-0.39499,0.85491,0.066279,0.95936,-31.92,26.28,19.62
3.1872,-9.4798,-0.42223,0.79351,-0.016188,1.0996,-31.98,26.28,19.86
3.1463,-8.9894,-0.57205,0.76816,-0.046426,1.211,-32.04,26.4,20.04
2.833,-7.4503,-0.72188,0.81825,0.025351,1.2511,-32.1,26.88,20.34
2.6423,-6.8647,-0.74912,0.87659,0.1741,1.2285,-31.8,27.06,20.46
2.6015,-6.565,-0.8036,0.93554,0.37263,1.2141,-31.62,27.48,20.52
3.051,-6.5514,-0.70826,0.98074,0.57085,1.2272,-31.2,28.5,20.22
3.6911,-6.8238,-0.61292,1.0119,0.54856,1.2633,-30.78,28.92,20.16
3.9635,-7.0281,-0.70826,1.0113,0.48411,1.2868,-30.42,29.4,20.16
4.7399,-7.8862,-1.0215,1.0305,0.15516,1.4001,-29.28,30.6,19.92
4.8625,-8.3493,-1.0079,1.018,-0.0562,1.4523,-28.62,31.08,19.8
4.9169,-8.7443,-0.88532,1.0049,-0.16371,1.4743,-28.2,31.68,19.56
4.9987,-9.0575,-1.0351,1.0122,-0.045815,1.4694,-27.6,32.46,19.26
6.0474,-11.101,-1.471,1.0076,0.10079,1.4114,-26.1,33.96,18.54
6.5514,-12.0,-1.58,0.97647,0.15547,1.3124,-25.2,34.62,18.06
6.9872,-12.258,-1.5663,0.93126,0.13867,1.2492,-24.36,35.28,17.7
7.1779,-12.136,-1.6208,0.81886,-0.0088575,1.0192,-23.46,36.0,17.22
6.9872,-12.177,-1.9205,0.75381,-0.084299,0.79565,-22.02,37.5,16.08
6.5922,-12.422,-1.8251,0.62919,-0.088575,0.40928,-21.18,37.98,15.78
6.7829,-13.266,-1.975,0.59132,-0.07422,0.31673,-19.8,39.06,14.94
7.3822,-13.253,-2.4108,0.28772,-0.18112,0.17501,-19.2,39.6,14.58
7.5048,-12.64,-2.261,0.16035,-0.29169,0.13408,-18.48,40.02,14.16
7.1507,-12.108,-1.8932,-0.22419,-0.71593,-0.17623,-17.94,40.38,13.8
5.4754,-10.351,-0.78998,-0.41844,-0.83078,-0.46823,-16.92,41.1,13.14
5.0259,-9.9701,-0.6674,-0.53939,-0.77305,-0.76144,-16.56,41.22,12.9
5.094,-10.624,-0.5993,-0.62675,-0.68783,-0.97036,-16.2,41.1,12.96
5.1894,-11.046,-0.36775,-0.79199,-0.68631,-1.0708,-16.08,40.98,13.02
5.203,-10.896,-0.24517,-1.0388,-0.74709,-1.0876,-16.2,40.74,13.08
4.9033,-9.5615,0.38137,-1.1729,-0.75717,-1.12,-16.26,39.84,13.92
4.699,-8.5808,0.64016,-1.2425,-0.7196,-1.2062,-16.38,39.48,14.34
4.4811,-7.9407,0.8036,-1.2498,-0.63163,-1.3772,-16.62,39.0,14.82
4.1678,-7.5457,1.0079,-1.1851,-0.4554,-1.6503,-17.4,37.62,16.08
4.1814,-7.4367,0.92618,-1.1603,-0.40195,-1.7312,-17.76,36.9,16.68
4.1814,-7.4776,0.83084,-1.0095,-0.36682,-1.8802,-18.3,36.18,17.22
4.2223,-7.5729,0.78998,-0.93126,-0.44074,-1.8961,-18.9,35.22,18.0
4.0316,-7.8317,0.7355,-0.88973,-0.53726,-1.846,-20.04,33.48,19.2
3.8682,-7.9951,0.8036,-0.87568,-0.60964,-1.7242,-20.58,32.58,19.74
3.8409,-8.7715,0.8036,-0.87629,-0.60628,-1.6799,-21.54,30.72,21.0
3.7728,-9.2482,0.62654,-0.87781,-0.51374,-1.4792,-22.14,29.88,21.54
3.732,-9.2482,0.58567,-0.87812,-0.41539,-1.3143,-22.56,28.98,22.02
3.7728,-9.507,0.53119,-0.82894,-0.31521,-1.1139,-23.34,27.48,22.62
3.6911,-9.6568,0.49033,-0.79474,-0.23671,-0.91172,-23.58,26.58,22.86
3.6911,-9.7658,0.40861,-0.7138,-0.10843,-0.59193,-23.82,25.14,23.22
3.7865,-9.0575,-0.054481,-0.62156,-0.058338,-0.38087,-23.88,24.6,23.34
3.7456,-9.4798,-0.25879,-0.51618,-0.064752,-0.16341,-23.82,23.88,23.46
3.6775,-9.9292,-0.027241,-0.46792,-0.013439,0.095906,-23.94,23.34,23.64
3.4051,-11.196,0.47671,-0.50702,0.12278,0.36469,-23.52,22.38,23.58
3.3506,-10.42,0.50395,-0.54062,0.35033,0.60201,-23.22,22.14,23.7
3.3642,-8.9622,0.34051,-0.43921,0.53329,0.75075,-23.04,21.84,23.82
3.2825,-6.8102,-0.054481,-0.022297,0.66065,0.77244,-22.68,21.36,23.7
3.3642,-6.7557,-0.14982,0.12431,0.65882,0.75961,-22.5,21.12,23.7
3.4732,-7.4776,-0.040861,0.38759,0.59437,0.72693,-22.32,21.0,23.58
3.5277,-8.9622,0.25879,0.59101,0.39951,0.8094,-22.14,20.82,23.22
3.5685,-9.2618,-0.01362,0.63927,0.22205,0.94715,-22.26,20.82,23.1
3.3915,-8.9894,-0.19068,0.65576,0.098349,1.0913,-22.14,20.82,22.92
2.7922,-7.75,-0.31327,0.70585,0.14264,1.2941,-22.32,21.0,22.5
2.5606,-7.0962,-0.27241,0.71074,0.33628,1.3717,-22.26,21.24,22.38
2.5742,-6.7421,-0.31327,0.71502,0.62217,1.4059,-22.08,21.36,22.2
2.7786,-6.2245,-0.32689,0.76419,0.87262,1.4264,-22.14,21.84,21.96
3.1735,-6.279,-0.40861,0.80176,0.99235,1.4532,-22.08,22.08,21.78
3.5685,-6.5514,-0.50395,0.84177,0.9557,1.4832,-21.96,22.32,21.6
4.3585,-7.3277,-0.64016,0.85552,0.83719,1.5598,-21.72,23.1,21.18
4.5901,-7.6002,-0.49033,0.8433,0.60018,1.6295,-21.54,23.46,20.88
5.1076,-8.4174,-0.85808,0.832,0.54062,1.6487,-21.12,23.88,20.64
5.489,-9.507,-0.92618,0.76236,0.54703,1.6335,-20.34,24.66,20.34
5.6252,-10.161,-0.9398,0.71563,0.759,1.5705,-19.74,25.14,19.98
6.1428,-10.597,-1.1577,0.70005,1.003,1.5177,-19.2,25.56,19.8
7.6002,-11.645,-1.6889,0.74312,1.044,1.4062,-18.0,26.52,19.26
8.1995,-12.081,-1.8387,0.77183,0.77672,1.2972,-17.4,26.94,18.78
8.4174,-12.313,-1.9341,0.76694,0.60048,1.2352,-16.8,27.42,18.36
8.2676,-12.258,-2.0294,0.65424,0.094684,0.95509,-16.26,27.84,17.76
8.0088,-12.245,-1.9341,0.62644,-0.19517,0.76297,-15.66,28.44,17.4
8.3629,-13.811,-2.6423,0.55864,-0.48991,0.60079,-14.34,29.46,16.32
8.6081,-14.056,-3.0373,0.17593,-0.96456,0.34025,-13.74,29.88,15.78
7.7091,-12.354,-2.0294,0.027184,-1.1176,0.19761,-12.66,30.66,15.0
6.456,-11.278,-1.3212,-0.34636,-1.2749,-0.38515,-12.12,30.96,14.7
5.38,-10.719,-0.95342,-0.41997,-1.1915,-0.5849,-11.64,30.9,14.22
5.2166,-10.76,-0.77636,-0.53634,-0.82681,-1.1261,-11.4,31.02,13.92
5.4481,-11.359,-0.61292,-0.64691,-0.77152,-1.3182,-11.34,31.02,13.74
5.6661,-11.605,-0.19068,-0.80512,-0.80634,-1.4157,-11.4,31.02,13.62
5.4345,-10.311,0.24517,-0.95997,-0.95631,-1.4759,-11.7,30.42,13.68
4.9033,-8.8668,0.57205,-1.0052,-1.0275,-1.5675,-12.0,30.0,13.92
4.5356,-8.2812,0.69464,-1.0134,-1.0195,-1.6393,-12.3,29.58,14.28
3.7456,-6.9872,0.92618,-0.97311,-0.82009,-1.8879,-13.14,28.2,15.12
3.732,-6.9872,0.99429,-0.90958,-0.6408,-2.0366,-13.74,27.48,15.66
3.9908,-7.2324,1.0488,-0.8488,-0.51068,-2.1234,-14.46,26.58,16.32
4.3313,-7.4503,0.85808,-0.75259,-0.52107,-2.1331,-15.96,24.78,17.22
4.4266,-7.5729,0.89894,-0.72479,-0.58215,-2.1127,-16.74,24.0,17.82
4.3721,-7.7091,0.7355,-0.67745,-0.7138,-2.0427,-17.4,23.22,18.42
4.3177,-7.927,0.77636,-0.70952,-0.82528,-1.8967,-18.0,22.44,18.9
3.9227,-8.0496,0.74912,-0.7648,-0.80207,-1.7675,-18.78,20.82,19.86
3.9635,-8.3629,0.6674,-0.79229,-0.69516,-1.6078,-19.08,19.86,20.28
3.9908,-9.1937,0.61292,-0.84849,-0.56933,-1.3919,-19.14,18.36,21.12
3.7184,-9.6296,0.77636,-0.90836,-0.41203,-1.1548,-19.08,17.64,21.36
3.6503,-10.011,0.89894,-0.96364,-0.15577,-0.93035,-18.84,16.92,21.66
3.6503,-9.6977,0.70826,-0.97372,0.33811,-0.62369,-18.6,15.6,21.96
3.732,-9.6023,0.53119,-0.87232,0.61453,-0.45509,-18.36,15.0,22.02
3.8273,-10.134,0.6674,-0.69639,0.77946,-0.21991,-17.94,14.58,22.02
4.0452,-10.542,0.6674,-0.54031,0.88453,0.23915,-17.22,13.74,22.26
4.2495,-9.3844,0.44947,-0.3992,0.78557,0.54184,-16.86,13.26,22.14
4.2495,-8.54,0.19068,-0.28772,0.69272,0.67409,-16.62,12.96,22.14
4.018,-7.2052,-0.38137,0.12248,0.3598,0.86834,-16.02,12.42,22.14
3.8001,-7.3958,-0.47671,0.37538,0.19853,0.89125,-15.84,12.18,22.08
3.5413,-7.9407,-0.43585,0.54825,0.10446,0.90866,-15.6,12.18,22.02
3.228,-9.4661,-0.21793,0.60903,0.081856,1.014,-15.6,12.18,21.84
3.1872,-9.6568,-0.38137,0.58185,0.13011,1.1442,-15.66,12.24,21.78
2.9965,-9.2074,-0.53119,0.56994,0.18143,1.2175,-15.84,12.3,21.66
2.7377,-7.8589,-0.7355,0.57879,0.39187,1.4245,-15.66,12.84,21.42
2.5606,-6.9328,-0.64016,0.56474,0.60201,1.5238,-15.66,13.14,21.42
2.656,-6.3471,-0.55843,0.56566,0.71593,1.5516,-15.6,13.5,21.42
2.656,-6.3471,-0.55843,0.59132,1.0305,1.6674,-15.6,13.5,21.42
2.9011,-5.9793,-0.6674,0.61178,1.0043,1.7297,-15.42,13.8,21.36
2.9011,-5.9793,-0.6674,0.62583,0.84758,1.7938,-15.42,13.8,21.36
2.9011,-5.9793,-0.6674,0.63744,0.5901,1.8631,-15.42,13.8,21.36
5.2847,-7.9951,-0.85808,0.65668,0.36621,1.9114,-14.52,14.94,21.54
5.7886,-8.7715,-1.0215,0.70402,0.30177,1.9484,-13.56,16.2,21.54
6.5378,-9.902,-0.99429,0.7364,0.30055,1.9044,-12.48,17.4,21.3
7.0962,-11.005,-1.185,0.7645,0.30238,1.7901,-11.46,18.54,21.24
7.2733,-11.455,-1.3348,0.75472,0.43585,1.566,-10.74,19.08,21.24
7.8453,-12.149,-1.8115,0.74892,0.4948,1.4755,-9.54,20.1,20.94
8.2539,-12.408,-2.0294,0.71532,0.52687,1.193,-8.04,21.18,20.7
8.3084,-12.122,-2.1112,0.61148,0.41722,0.97005,-6.48,22.2,20.4
7.8045,-11.836,-1.9205,0.51679,0.29902,0.71227,-5.58,23.16,19.8
8.2539,-12.967,-2.4517,0.53665,0.035736,0.46487,-4.68,23.58,19.26
9.0575,-13.566,-2.942,0.35155,-0.34514,0.34239,-4.26,23.7,19.08
9.0167,-12.735,-2.8058,0.05284,-0.83261,0.12278,-3.42,24.18,18.66
7.5865,-11.319,-1.866,-0.20678,-1.1774,-0.23243,-2.58,24.72,18.3
5.8023,-10.079,-1.1441,-0.39523,-1.1551,-0.58215,-1.74,25.14,17.82
4.9306,-9.902,-1.0624,-0.49755,-0.87476,-0.94776,-1.26,25.38,17.52
5.2438,-11.005,-0.92618,-0.58032,-0.57757,-1.2159,-0.9,25.5,17.4
5.4073,-11.25,-0.85808,-0.74984,-0.48442,-1.3265,-0.72,25.56,17.28
5.5026,-10.746,-0.21793,-0.95723,-0.48808,-1.3567,-0.48,25.62,17.1
5.3256,-10.188,-0.027241,-1.146,-0.56261,-1.372,-0.48,25.68,17.4
4.7944,-8.6898,0.40861,-1.1704,-0.58551,-1.4404,-0.6,25.74,17.34
4.1678,-7.8181,0.57205,-1.1457,-0.55192,-1.5727,-0.78,25.74,17.52
3.8682,-7.355,0.85808,-1.0974,-0.48106,-1.7135,-1.32,25.56,17.82
3.8682,-7.355,0.96704,-1.0409,-0.37935,-1.8723,-1.74,25.5,18.0
3.8409,-7.2052,1.0215,-0.95203,-0.31185,-1.9966,-2.7,25.56,18.24
3.909,-7.355,0.58567,-0.85888,-0.32712,-1.9746,-3.6,25.56,18.06
3.9227,-7.4912,0.29965,-0.7984,-0.36591,-1.9279,-4.2,25.56,17.82
4.0316,-7.4503,0.054481,-0.7703,-0.44013,-1.8427,-5.46,25.5,17.64
3.8818,-8.2403,0.29965,-0.77366,-0.49633,-1.7162,-6.66,25.32,17.46
3.6775,-9.0984,0.35413,-0.86437,-0.45784,-1.4862,-7.86,25.2,16.98
3.6775,-9.4117,0.24517,-0.93493,-0.37751,-1.2819,-8.52,25.2,16.8
3.6775,-10.27,0.25879,-0.93951,-0.29138,-1.0818,-9.66,25.02,16.5
3.4596,-10.597,0.34051,-0.97005,-0.17196,-0.87659,-10.08,24.78,16.32
3.1054,-9.7794,0.38137,-0.98258,0.0562,-0.67959,-11.04,24.6,15.9
2.9965,-8.7306,0.23155,-0.88301,0.30207,-0.46212,-11.76,24.18,15.66
3.0782,-9.0167,0.081722,-0.68845,0.46365,-0.21044,-12.24,24.06,15.72
3.4459,-10.896,0.054481,-0.44654,0.53206,0.29993,-12.84,23.7,15.84
3.5958,-11.223,0.12258,-0.41722,0.53206,0.63988,-13.2,23.58,15.96
3.623,-9.0031,-0.095342,-0.34544,0.51862,0.90316,-13.38,23.34,16.14
3.4868,-7.246,-0.49033,-0.14508,0.48228,1.0568,-13.68,23.22,16.62
3.4732,-7.1234,-0.58567,0.11148,0.46029,1.1102,-13.8,23.22,16.68
3.6639,-8.5808,-0.6674,0.37843,0.41111,1.1496,-13.98,23.22,16.86
3.7184,-9.9973,-0.57205,0.54886,0.25443,1.2138,-14.22,23.22,16.86
3.8409,-10.379,-0.54481,0.53817,0.146,1.3357,-14.34,23.28,16.74
3.7047,-9.902,-0.53119,0.50488,0.078191,1.4462,-14.52,23.76,16.62
3.2553,-8.2131,-0.69464,0.53787,0.094684,1.4905,-14.34,24.3,16.5
2.942,-7.0826,-0.76274,0.60384,0.20097,1.474,-13.92,24.78,16.5
2.9284,-6.5786,-0.77636,0.68234,0.36805,1.4261,-13.92,25.02,16.38
2.8875,-6.0338,-0.6674,0.75625,0.52351,1.3977,-13.68,25.5,16.38
3.1735,-6.2517,-0.70826,0.81001,0.66584,1.387,-13.08,26.16,16.32
3.514,-6.4833,-0.6674,0.78893,0.66371,1.4187,-12.78,26.4,16.2
4.0589,-6.96,-0.54481,0.76847,0.59743,1.4728,-11.88,27.06,16.02
4.808,-7.9543,-0.69464,0.74739,0.46365,1.5421,-10.92,27.78,15.96
4.9987,-8.3901,-0.8036,0.73579,0.34606,1.6148,-10.32,28.14,15.84
5.3119,-9.1529,-1.0351,0.73701,0.26603,1.6386,-9.3,28.56,15.66
5.5843,-9.6704,-0.9398,0.73793,0.39645,1.5745,-8.1,29.16,15.18
5.7205,-9.902,-0.96704,0.75686,0.58857,1.5116,-7.38,29.46,14.82
6.7829,-11.06,-1.3484,0.79932,0.69394,1.4334,-6.06,30.06,14.16
7.4912,-11.986,-1.7843,0.79993,0.65088,1.3152,-4.74,30.54,13.5
7.8045,-11.959,-2.1248,0.74648,0.51557,1.2019,-3.36,31.26,12.72
7.9951,-11.836,-2.0567,0.65485,0.20831,0.98105,-2.1,31.86,12.06
7.9407,-12.517,-2.152,0.66462,-0.043066,0.82345,-1.5,32.16,11.7
8.4855,-13.838,-2.6423,0.58338,-0.28222,0.69425,-0.36,32.64,11.1
8.826,-13.893,-2.9284,0.32895,-0.5849,0.52504,0.3,32.94,10.68
8.0769,-12.408,-2.5198,0.0082467,-0.88331,0.19975,1.2,33.48,9.84
5.9657,-10.229,-1.471,-0.20953,-0.99602,-0.22938,2.04,33.9,9.06
5.2166,-9.6023,-1.1713,-0.31887,-0.87109,-0.64904,2.82,34.62,8.58
5.4073,-10.283,-1.2667,-0.32467,-0.66493,-1.131,3.12,34.98,8.4
5.9793,-11.482,-1.1577,-0.48045,-0.76755,-1.2355,3.06,35.52,7.98
6.2654,-11.836,-0.85808,-0.6973,-1.003,-1.2318,3.06,35.58,7.86
5.8976,-10.869,-0.19068,-0.90775,-1.2046,-1.2077,2.64,36.06,7.74
5.0531,-9.1393,0.19068,-1.0101,-1.2929,-1.2645,2.04,36.24,8.22
4.6718,-8.54,0.28603,-1.0614,-1.16,-1.551,1.5,36.42,8.46
3.8682,-7.3822,0.40861,-1.0266,-0.93187,-1.7947,0.24,36.84,8.94
3.6094,-7.1915,0.40861,-0.95295,-0.686,-2.0064,-1.38,37.14,9.66
3.6911,-7.3141,0.31327,-0.89217,-0.51465,-2.1383,-2.22,37.2,10.08
4.018,-7.8317,0.31327,-0.84544,-0.47953,-2.189,-4.2,37.38,10.92
3.9771,-8.2403,0.40861,-0.84758,-0.56719,-2.1615,-6.54,37.32,11.64
3.6775,-8.1858,0.47671,-0.85674,-0.67989,-2.0815,-7.8,37.26,12.06
3.3506,-8.1995,0.53119,-0.89278,-0.73365,-1.9581,-10.26,37.32,12.78
2.9692,-8.6762,0.46309,-0.93371,-0.62553,-1.7101,-12.66,37.2,13.38
2.8194,-8.9622,0.44947,-0.98227,-0.45662,-1.5134,-13.74,37.02,13.56
2.8603,-9.5479,0.44947,-1.0168,-0.26634,-1.2639,-16.14,36.54,14.1
2.9965,-10.038,0.46309,-1.0366,-0.082467,-1.0018,-18.0,35.76,14.94
2.9011,-9.9973,0.6674,-1.0369,0.19853,-0.613,-19.56,35.1,15.6
2.9148,-9.5615,0.76274,-0.99327,0.28986,-0.39523,-20.46,34.62,15.96
3.1054,-9.3163,0.47671,-0.73334,0.42272,-0.18387,-21.54,33.78,16.5
3.1872,-10.583,0.57205,-0.50091,0.43402,0.057727,-22.32,32.88,17.34
3.2553,-11.128,0.7355,-0.36102,0.44807,0.35552,-23.1,31.8,17.94
3.2825,-10.597,0.65378,-0.26939,0.4612,0.65149,-23.4,31.26,18.3
3.3506,-8.3901,0.35413,-0.10079,0.42364,0.89095,-24.06,30.6,18.54
3.2553,-7.3822,-0.14982,0.14569,0.36713,1.0146,-24.36,30.12,18.84
3.2825,-7.3686,-0.17706,0.52321,0.33781,1.0678,-24.54,29.94,18.96
3.337,-8.54,-0.17706,0.68173,0.2978,1.0944,-24.9,29.88,18.84
3.4459,-10.093,-0.40861,0.74892,0.24771,1.1307,-24.96,29.76,18.84
3.4868,-10.215,-0.38137,0.7199,0.19456,1.2217,-25.08,29.82,18.72
3.2553,-9.1256,-0.50395,0.6802,0.20403,1.3054,-25.32,30.06,18.54
2.7649,-7.7772,-0.61292,0.67073,0.38301,1.3772,-25.14,30.72,18.36
2.6151,-6.9328,-0.65378,0.69639,0.63194,1.3656,-25.08,31.02,18.36
2.8058,-6.2517,-0.47671,0.74862,0.88545,1.3659,-24.54,31.62,18.24
2.9829,-6.3471,-0.53119,0.81856,1.0321,1.3845,-24.42,31.98,18.18
3.8818,-6.851,-0.76274,0.86193,1.0119,1.4206,-24.0,32.64,17.94
4.6445,-7.3822,-0.99429,0.88453,0.82589,1.4774,-23.34,33.24,17.52
5.2302,-8.4446,-1.1577,0.88178,0.35919,1.569,-22.5,34.02,16.8
5.38,-8.9758,-1.3076,0.84941,0.091019,1.5815,-21.96,34.44,16.62
5.3528,-9.0848,-1.4438,0.79871,-0.026878,1.5195,-20.94,35.4,16.32
5.3528,-9.4798,-1.6344,0.78618,0.071166,1.4285,-20.16,35.82,15.9
5.4209,-9.7249,-1.6753,0.78649,0.31093,1.3115,-19.56,36.18,15.66
6.5514,-11.25,-2.2201,0.76969,0.54795,1.2199,-18.24,36.9,14.64
7.0417,-11.645,-2.3018,0.72479,0.65729,1.1417,-17.58,37.38,14.1
7.7364,-11.986,-2.3836,0.65912,0.57146,1.0504,-16.86,37.8,13.62
8.2131,-11.931,-2.438,0.53176,0.22113,0.85643,-15.24,38.64,12.78
8.2267,-12.626,-2.5061,0.51099,-0.067195,0.70219,-14.34,39.06,12.36
8.5944,-13.729,-2.7649,0.46548,-0.35155,0.57971,-13.74,39.66,12.06
8.9077,-13.484,-2.9284,0.19761,-0.63469,0.43402,-12.36,40.5,11.4
7.9679,-12.354,-2.4517,-0.12156,-0.8995,0.16127,-11.7,40.74,11.1
7.1098,-11.482,-1.9613,-0.35675,-0.9502,-0.24832,-11.22,40.92,10.74
5.2575,-9.9973,-1.2803,-0.57024,-0.56994,-0.86651,-10.26,41.22,10.26
5.3664,-10.161,-1.3076,-0.613,-0.29322,-1.1817,-9.9,41.34,10.2
5.775,-10.61,-1.0624,-0.72907,-0.26542,-1.3421,-9.66,41.4,10.32
6.1019,-10.76,-0.61292,-0.96028,-0.51099,-1.4032,-9.6,41.16,10.5
5.9112,-10.12,-0.19068,-1.0623,-0.72815,-1.4163,-9.66,40.98,10.74
5.5707,-9.1665,-0.027241,-1.0892,-0.87904,-1.4981,-9.9,40.74,10.98
4.7399,-7.9951,0.35413,-1.0892,-0.90836,-1.6487,-10.86,40.08,11.88
4.3177,-7.5457,0.40861,-1.0409,-0.85307,-1.8179,-11.58,39.78,12.42
4.304,-7.5729,0.27241,-0.97922,-0.78741,-1.9917,-12.18,39.3,12.96
4.1133,-7.641,0.16344,-0.9499,-0.76083,-2.1527,-13.86,38.04,14.16
3.8818,-7.8045,0.31327,-0.95112,-0.72021,-2.1228,-14.76,37.44,14.76
3.8409,-8.0496,0.28603,-0.98441,-0.71257,-2.0366,-15.72,36.9,15.36
3.9635,-8.54,0.47671,-1.04,-0.73059,-1.905,-17.64,35.22,16.44
3.8273,-8.6217,0.61292,-1.0996,-0.73212,-1.7743,-18.6,34.5,16.98
3.5277,-8.4174,0.72188,-1.1353,-0.65546,-1.6374,-19.44,33.72,17.4
3.2553,-8.8941,0.7355,-1.1072,-0.35216,-1.3857,-21.06,32.4,18.6
3.3915,-9.507,0.50395,-1.018,-0.16218,-1.1875,-21.66,31.56,19.26
3.7047,-9.7794,0.32689,-0.98013,-0.0956,-1.0812,-22.26,30.72,19.86
3.7456,-9.4798,0.054481,-0.84788,0.024129,-0.75503,-22.8,29.94,20.16
3.6094,-9.0575,-0.095342,-0.74281,0.084299,-0.53298,-23.16,29.04,20.46
3.4868,-9.5206,-0.35413,-0.63163,0.10965,-0.31246,-23.88,27.24,21.36
3.4459,-10.256,-0.12258,-0.53909,0.16341,-0.03207,-24.24,26.52,21.72
3.4732,-10.665,0.21793,-0.53176,0.27489,0.3149,-24.3,25.74,22.02
3.5685,-9.6568,0.20431,-0.43249,0.4554,0.81153,-24.42,24.3,22.62
3.514,-8.2812,0.19068,-0.23427,0.49205,0.978,-24.54,23.94,22.92
3.3506,-7.6138,-0.081722,0.087965,0.50855,1.0177,-24.54,23.52,23.1
3.2961,-7.5593,-0.42223,0.4163,0.49816,1.0021,-24.66,22.62,23.7
3.2689,-8.2539,-0.32689,0.65882,0.47495,0.99021,-24.72,22.2,23.76
3.2553,-9.0575,-0.32689,0.79138,0.42302,1.1328,-24.78,22.02,23.7
3.2825,-9.2346,-0.34051,0.77122,0.40561,1.2245,-24.72,22.26,23.52
3.1191,-8.2812,-0.32689,0.72296,0.39309,1.5342,-24.72,22.32,23.52
2.9556,-7.4503,-0.31327,0.73243,0.44135,1.7006,-24.78,22.62,23.52
2.9284,-6.7966,-0.36775,0.82742,0.58643,1.8109,-24.6,23.04,23.28
3.514,-6.1564,-0.55843,0.87476,0.63744,1.8179,-24.6,23.46,22.98
4.1542,-6.1019,-0.76274,0.99663,0.54978,1.7459,-24.36,23.94,22.92
4.699,-6.456,-0.92618,1.1011,0.45509,1.7043,-24.3,24.48,22.92
5.2575,-7.1643,-1.362,1.1781,0.089797,1.5886,-23.88,25.8,22.44
5.5299,-7.8589,-1.5119,1.1646,-0.097433,1.4975,-23.4,26.52,22.14
5.4073,-8.1313,-1.3893,1.1393,-0.14936,1.4264,-22.98,27.24,21.84
5.2166,-9.0575,-1.5119,1.1255,-0.054062,1.3674,-21.78,28.92,21.24
5.4481,-9.6296,-1.6208,1.117,0.25107,1.2584,-21.18,29.76,20.94
6.2109,-10.964,-1.9205,1.1124,0.33048,1.2364,-20.34,30.42,20.58
7.1915,-12.286,-2.1112,1.0971,0.42333,1.2233,-18.9,31.86,19.92
7.6546,-12.803,-2.152,0.94226,0.36744,1.1179,-18.06,32.58,19.5
7.9407,-12.544,-2.2882,0.79596,0.34086,0.94898,-16.38,34.08,18.54
7.8998,-12.149,-2.3699,0.70066,0.35888,0.69883,-15.36,34.74,18.12
7.8045,-12.381,-2.4108,0.69883,0.29932,0.31887,-14.46,35.28,17.46
8.6898,-13.825,-3.0101,0.64721,0.2361,0.23824,-12.72,36.48,16.2
8.9622,-13.743,-2.9965,0.35583,-0.29322,0.064446,-12.12,37.02,15.66
7.9134,-12.354,-2.5061,0.19609,-0.50977,-0.035125,-11.46,37.26,15.3
6.9328,-11.387,-2.0839,-0.22327,-0.79535,-0.48625,-10.92,37.62,14.88
4.9169,-9.3163,-1.5663,-0.3149,-0.68875,-0.82833,-10.08,38.04,13.92
4.9578,-9.5751,-1.6753,-0.41508,-0.81886,-1.0394,-9.96,38.16,13.62
5.2166,-10.038,-1.0896,-0.50427,-1.4377,-0.91141,-9.9,38.52,13.14
4.6718,-10.896,-0.95342,-0.54795,-1.5345,-0.8998,-9.9,38.52,13.08
4.6718,-10.542,-0.57205,-0.85949,-1.2208,-0.86834,-9.96,38.46,13.2
4.699,-9.7113,-0.19068,-1.0256,-0.97525,-0.98533,-10.02,38.22,13.38
4.6037,-8.3765,0.28603,-1.1487,-0.94287,-1.0424,-10.74,37.8,13.86
4.018,-7.6138,0.19068,-1.1796,-0.65821,-1.2901,-11.22,37.74,14.34
3.8682,-7.1915,0.38137,-1.1509,-0.39034,-1.4438,-12.24,37.08,15.6
3.9771,-7.1098,0.19068,-1.1017,-0.21808,-1.5925,-12.72,36.54,16.14
3.9363,-7.0962,0.14982,-1.0614,-0.11729,-1.6802,-13.44,36.36,16.74
4.2087,-7.5048,0.23155,-1.0507,-0.083994,-1.6912,-15.06,35.46,17.82
4.304,-7.8453,0.16344,-1.0779,-0.13225,-1.6371,-15.9,34.92,18.3
4.3585,-8.0088,0.12258,-1.1481,-0.23121,-1.565,-16.62,34.32,18.78
3.9635,-8.3901,0.054481,-1.1967,-0.32559,-1.4462,-18.06,32.94,19.8
3.8409,-9.1393,0.068102,-1.2507,-0.26481,-1.3405,-18.78,32.28,20.16
3.7592,-9.7385,0.20431,-1.2981,-0.13286,-1.2071,-19.56,31.56,20.4
3.5004,-10.093,0.28603,-1.3256,0.056505,-1.0467,-21.0,30.12,21.18
3.4187,-10.134,0.38137,-1.2969,0.26359,-0.87995,-21.66,29.4,21.48
3.3915,-9.8611,0.61292,-1.1197,0.47098,-0.63713,-22.62,27.66,21.72
3.2553,-9.4389,0.54481,-0.90927,0.49297,-0.44868,-23.16,26.82,21.96
3.2825,-10.202,0.76274,-0.67714,0.48136,-0.15974,-23.7,26.04,22.38
3.2825,-10.801,0.74912,-0.59834,0.47403,0.028405,-24.18,25.26,22.5
3.4459,-10.964,0.83084,-0.4386,0.43799,0.58704,-24.48,24.66,22.68
3.3097,-8.8532,0.57205,-0.27153,0.39156,0.90591,-24.72,23.46,23.16
3.0918,-7.3414,0.28603,-0.03146,0.39584,1.0861,-24.78,22.92,23.28
3.1054,-6.9872,-0.17706,0.24587,0.43463,1.1496,-25.08,22.08,23.76
3.3097,-7.9951,-0.27241,0.63072,0.41722,1.2407,-25.14,21.84,23.94
3.5004,-8.9349,-0.38137,0.70463,0.37568,1.281,-25.2,21.72,24.18
3.6094,-9.4389,-0.47671,0.73029,0.1628,1.4994,-25.2,21.72,24.24
3.6094,-9.3708,-0.58567,0.65118,0.06017,1.6463,-25.14,21.84,24.24
3.2961,-8.6762,-0.61292,0.58399,0.069639,1.7547,-25.14,22.02,24.18
2.9829,-7.9407,-0.8036,0.56658,0.3824,1.7843,-24.72,22.68,24.12
2.8739,-6.9736,-0.83084,0.57727,0.53817,1.7623,-24.24,23.28,23.94
3.0101,-6.8374,-0.81722,0.68325,0.99143,1.6518,-23.88,23.7,23.88
3.3778,-6.851,-0.91256,0.75533,1.1304,1.5831,-23.58,24.24,23.76
4.3449,-7.2324,-1.1577,0.81673,1.0739,1.5379,-22.8,25.44,23.22
4.9306,-7.8589,-1.2122,0.84605,0.83811,1.5299,-22.38,26.1,23.04
5.1757,-8.5808,-1.4029,0.83414,0.51343,1.5455,-21.72,26.88,22.8
5.3528,-8.9622,-1.5119,0.80207,0.16646,1.5681,-20.34,28.14,22.26
5.5162,-9.398,-1.7979,0.81581,0.054062,1.5485,-19.74,28.86,21.84
5.5843,-9.7249,-1.8115,0.83505,0.037263,1.5293,-19.14,29.52,21.48
6.0883,-10.91,-2.3018,0.8543,0.12401,1.4502,-17.58,30.84,20.94
6.5786,-11.346,-2.6423,0.83566,0.17562,1.3674,-16.8,31.38,20.46
7.5048,-12.108,-2.9829,0.75686,0.043677,1.1759,-15.3,32.76,19.56
7.6274,-12.027,-2.9965,0.63255,-0.11057,0.97158,-14.64,33.3,18.9
7.5593,-11.877,-2.9148,0.54245,-0.26848,0.73945,-13.8,33.9,18.42
7.4095,-12.163,-2.7377,0.5681,-0.43188,0.53726,-13.14,34.38,18.06
7.8045,-14.547,-3.5822,0.38943,-0.56597,0.33384,-11.58,35.34,17.34
7.5865,-14.22,-3.5413,-0.029932,-0.66371,0.040623,-10.86,35.64,16.92
5.4209,-11.4,-2.0294,-0.48717,-0.49633,-0.56444,-9.78,36.36,16.14
4.7535,-10.283,-1.5391,-0.59804,-0.17685,-0.97983,-9.42,36.6,15.84
4.6582,-9.9292,-1.4301,-0.61148,-0.039401,-1.1707,-9.0,36.66,15.6
4.8761,-10.297,-1.4438,-0.62125,0.089492,-1.4413,-8.52,36.78,15.24
5.4345,-11.605,-0.95342,-0.76664,-0.11332,-1.646,-8.4,36.84,15.0
5.3937,-11.387,-0.62654,-0.96517,-0.30696,-1.6787,-8.58,36.78,15.06
5.0531,-9.1665,0.24517,-1.1411,-0.42669,-1.6768,-8.76,36.6,15.06
4.2223,-8.0769,0.38137,-1.1038,-0.44563,-1.7743,-9.78,35.88,15.36
3.9908,-7.355,0.40861,-1.0482,-0.41264,-1.8265,-10.32,35.34,15.66
3.9227,-7.0826,0.40861,-0.88789,-0.36682,-1.9367,-10.92,34.86,15.72
4.3449,-7.1643,0.31327,-0.6524,-0.44868,-2.0418,-12.78,33.78,16.44
4.6582,-7.4503,0.16344,-0.52321,-0.66981,-2.0336,-13.74,33.24,16.62
4.7671,-7.641,0.12258,-0.43952,-1.1842,-1.9053,-15.72,31.86,17.28
4.2904,-7.8045,0.14982,-0.44654,-1.3399,-1.8439,-16.62,31.14,17.46
3.8682,-8.1858,0.068102,-0.53603,-1.6188,-1.6335,-17.7,30.42,17.7
3.6366,-8.5944,0.081722,-0.58887,-1.6338,-1.5632,-18.6,29.58,18.06
2.7922,-9.4117,0.12258,-0.73701,-1.5049,-1.4212,-19.44,28.8,18.24
2.4789,-9.4117,0.35413,-0.99449,-0.96944,-1.1503,-20.88,27.42,18.84
2.6015,-9.5751,0.32689,-1.0663,-0.27153,-0.79748,-21.9,25.86,19.38
2.9011,-9.8339,0.21793,-1.0159,0.069333,-0.57085,-22.44,25.2,19.56
3.1872,-9.6023,0.19068,-0.96211,0.20067,-0.48106,-22.86,24.54,19.8
3.4187,-9.221,-0.17706,-0.73457,0.36255,-0.21105,-23.4,23.34,20.4
3.3778,-9.9292,-0.19068,-0.54703,0.34728,0.0033598,-23.52,21.96,20.94
3.2825,-10.992,0.054481,-0.47098,0.34667,0.2926,-23.7,21.0,21.42
3.4187,-10.161,-0.040861,-0.4835,0.41875,0.61087,-24.06,20.1,21.9
3.4459,-8.3629,-0.29965,-0.43463,0.50152,0.86224,-24.24,19.44,22.38
3.4187,-7.3822,-0.50395,-0.11393,0.52137,0.98166,-24.24,18.9,22.8
3.4459,-7.0281,-0.68102,0.17501,0.51068,0.93279,-24.3,18.78,22.92
3.4323,-7.8045,-0.88532,0.41417,0.48594,0.88575,-24.54,18.48,22.98
3.3234,-9.0848,-0.62654,0.52901,0.44318,0.87048,-24.66,18.6,23.1
3.337,-9.7385,-0.64016,0.50977,0.42852,0.92668,-24.9,18.66,23.04
3.2008,-8.826,-0.64016,0.42761,0.43005,1.0327,-25.32,19.02,23.16
2.7649,-7.7091,-0.64016,0.39951,0.57788,1.1768,-25.14,19.32,23.04
2.6287,-6.9328,-0.64016,0.42791,0.80481,1.2025,-25.14,19.56,23.04
2.547,-6.5514,-0.54481,0.49175,1.0724,1.2031,-25.14,19.86,23.04
2.8739,-5.9657,-0.55843,0.59162,1.2721,1.2199,-25.32,20.4,22.8
3.4051,-6.279,-0.76274,0.70311,1.3134,1.2489,-25.32,20.64,22.62
4.0316,-6.8238,-0.8717,0.76541,1.1674,1.2981,-25.32,21.18,22.44
4.6854,-7.4095,-0.96704,0.7761,0.70983,1.4251,-25.08,21.78,22.08
4.808,-7.5457,-0.96704,0.78741,0.44043,1.5055,-24.96,22.2,21.78
4.9578,-8.145,-1.0624,0.79474,0.35247,1.5443,-24.78,22.56,21.48
5.2847,-9.1256,-1.2939,0.83139,0.26848,1.5556,-24.42,23.7,21.0
5.4618,-9.9292,-1.362,0.88178,0.40653,1.5131,-24.06,24.24,20.7
5.8295,-10.597,-1.6344,0.94165,0.62553,1.467,-23.64,24.78,20.58
7.7091,-12.108,-2.2882,0.98685,0.73579,1.3812,-23.16,26.04,19.98
8.3901,-12.408,-2.4789,0.96639,0.53267,1.3036,-22.62,26.7,19.62
8.5944,-12.231,-2.4789,0.93432,0.38087,1.2504,-22.14,27.36,19.26
8.322,-11.85,-2.6015,0.78832,-0.0082467,0.93493,-21.06,28.74,18.3
8.2539,-12.531,-2.656,0.79168,-0.21838,0.7199,-20.46,29.4,17.76
8.5536,-13.443,-3.2553,0.51252,-0.51557,0.46762,-19.2,30.78,16.98
8.7306,-12.939,-3.3097,0.18357,-0.72143,0.25076,-18.66,31.44,16.74
7.9134,-11.931,-2.8058,-0.072998,-0.87568,-0.1066,-18.12,31.86,16.56
6.8374,-10.896,-2.2337,-0.28253,-0.80573,-0.51404,-17.82,32.28,16.38
5.9112,-10.12,-1.9341,-0.40073,-0.57513,-0.89278,-17.34,32.64,16.14
5.9657,-10.379,-1.6753,-0.44563,-0.45265,-1.1493,-16.5,33.06,15.84
6.3471,-11.128,-1.4165,-0.55833,-0.57482,-1.252,-16.32,33.12,15.66
6.4016,-11.223,-0.44947,-0.78985,-0.80054,-1.2721,-15.72,33.06,15.84
5.9521,-10.12,0.027241,-0.99418,-0.99205,-1.2825,-15.72,33.0,16.14
5.3528,-9.0439,0.27241,-1.1041,-1.0467,-1.4581,-15.72,32.76,16.5
4.7671,-8.0224,0.29965,-1.0727,-0.91966,-1.6634,-15.84,32.4,17.1
4.1814,-7.1234,0.46309,-0.96853,-0.7364,-1.865,-16.14,31.44,18.12
4.3585,-7.246,0.49033,-0.83627,-0.60689,-2.0262,-16.44,30.72,18.72
4.5764,-7.7636,0.50395,-0.75869,-0.59834,-2.1072,-17.1,29.46,19.98
4.5356,-7.8998,0.58567,-0.71196,-0.68967,-2.1121,-17.58,28.86,20.34
4.4266,-7.9407,0.64016,-0.71563,-0.82803,-2.0562,-17.88,28.08,20.82
4.0861,-7.8998,0.58567,-0.76267,-1.0263,-1.9071,-18.78,26.64,21.78
3.6503,-8.2539,0.51757,-0.80115,-1.069,-1.7666,-19.14,25.8,22.32
3.3097,-8.7851,0.47671,-0.86346,-0.99388,-1.6176,-19.44,25.08,22.62
2.9556,-9.398,0.50395,-0.96822,-0.67531,-1.3323,-19.98,23.52,23.34
2.8875,-9.6704,0.40861,-1.0348,-0.35644,-1.098,-20.16,22.74,23.52
2.8603,-9.7249,0.50395,-1.0409,-0.20281,-0.97922,-20.22,21.96,23.88
3.0918,-9.4253,0.61292,-0.98105,0.2025,-0.60842,-20.34,20.58,24.36
3.1599,-9.221,0.47671,-0.83689,0.34819,-0.38179,-20.4,19.86,24.72
3.1872,-9.2755,0.53119,-0.63958,0.39004,-0.15058,-20.4,19.32,25.02
3.0646,-10.896,0.74912,-0.45845,0.44349,0.35827,-20.28,17.88,25.32
3.1872,-10.624,0.70826,-0.33537,0.52809,0.72204,-19.98,17.28,25.62
3.3778,-9.2755,0.49033,-0.17685,0.52351,0.99724,-19.8,16.8,25.8
3.4732,-7.246,0.23155,0.092546,0.44166,1.1469,-19.38,15.84,26.34
3.3778,-6.9328,-0.20431,0.38515,0.35827,1.168,-19.2,15.42,26.52
3.2825,-7.7227,-0.32689,0.6185,0.30329,1.1668,-19.08,15.12,26.76
3.2825,-9.4525,-0.31327,0.73854,0.22969,1.223,-18.66,14.88,27.12
3.2825,-9.9837,-0.32689,0.67898,0.21014,1.3323,-18.54,14.88,27.12
3.3234,-9.8066,-0.40861,0.65301,0.21533,1.3861,-18.54,15.0,27.06
3.0237,-8.3493,-0.53119,0.61453,0.33781,1.5669,-18.48,15.54,26.94
2.7649,-7.6546,-0.47671,0.613,0.53634,1.6099,-18.36,15.9,26.82
2.7104,-7.1098,-0.61292,0.63163,0.8265,1.6127,-18.24,16.26,26.76
3.4187,-6.6059,-0.68102,0.68814,1.0724,1.5852,-18.12,17.1,26.82
3.5685,-6.6467,-0.7355,0.79351,1.1561,1.5305,-18.0,17.7,26.82
3.9227,-6.9872,-0.7355,0.8265,1.124,1.5085,-17.94,18.3,26.76
4.4402,-7.7636,-1.185,0.86468,0.9389,1.4444,-17.46,19.56,26.76
4.4811,-7.8862,-1.3212,0.86712,0.82467,1.4557,-17.28,20.34,26.58
4.8488,-8.2539,-1.5255,0.88911,0.78374,1.4951,-16.98,21.0,26.46
6.1019,-9.6568,-1.8796,0.90194,0.75717,1.5171,-16.56,22.56,25.98
6.851,-10.365,-1.9886,0.84208,0.56108,1.5079,-16.26,23.1,25.74
7.3414,-10.706,-2.1248,0.77061,0.36072,1.4881,-15.72,23.82,25.68
7.8589,-10.978,-2.261,0.71319,0.10965,1.4386,-15.18,24.36,25.68
8.54,-12.149,-2.4244,0.64263,-0.14233,1.3091,-14.16,25.68,25.32
8.4446,-12.64,-2.4517,0.51771,-0.29413,1.0907,-13.5,26.28,25.14
7.9543,-12.149,-2.438,0.31612,-0.27184,0.79199,-13.02,27.0,24.84
7.1234,-12.013,-2.1248,0.23396,0.099266,0.3094,-11.76,28.32,24.0
7.6819,-12.64,-2.3155,0.14508,0.28436,0.051618,-10.98,28.8,23.64
8.0632,-12.599,-2.4244,-0.024435,0.20159,-0.15485,-10.56,29.4,23.16
7.927,-10.978,-1.866,-0.1576,-0.16371,-0.38576,-9.48,30.3,22.5
7.0145,-10.297,-1.2803,-0.28497,-0.49786,-0.6634,-8.94,30.72,22.26
6.1292,-9.8748,-0.88532,-0.42516,-0.65301,-1.073,-8.28,31.08,22.14
5.6388,-10.488,-0.74912,-0.5061,-0.74373,-1.2101,-7.74,31.2,22.02
5.6524,-11.359,-0.54481,-0.56841,-0.82894,-1.2272,-7.56,31.32,21.9
5.6388,-11.863,-0.1362,-0.76053,-0.98746,-1.2321,-7.38,31.38,21.9
5.38,-11.686,0.25879,-1.0892,-1.0754,-1.1759,-7.26,31.32,21.9
4.7671,-9.902,0.84446,-1.2104,-0.99357,-1.2211,-7.26,30.78,22.08
4.2904,-8.9349,0.92618,-1.2248,-0.8042,-1.3787,-7.2,30.42,22.08
3.4596,-7.5048,0.76274,-1.1509,-0.56566,-1.5989,-7.44,30.24,22.26
3.228,-7.1507,0.7355,-0.91996,-0.19517,-1.9569,-7.98,29.22,22.8
3.2144,-6.9464,0.70826,-0.75167,-0.043982,-2.0962,-8.16,28.68,22.98
3.3506,-6.9191,0.70826,-0.60567,-0.043677,-2.1429,-8.46,28.14,23.16
3.6366,-7.246,0.5993,-0.49541,-0.20953,-2.0913,-9.48,26.76,23.28
3.6911,-8.0088,0.47671,-0.43921,-0.47342,-1.9694,-9.96,26.16,23.1
3.4732,-8.3765,0.49033,-0.46731,-0.71196,-1.8369,-10.98,25.2,23.04
2.547,-8.322,0.69464,-0.59346,-0.78557,-1.562,-11.46,24.78,22.8
2.3155,-8.6489,0.72188,-0.65118,-0.6466,-1.3149,-11.88,24.18,22.62
2.2474,-9.0303,0.8036,-0.67776,-0.54581,-1.179,-12.3,23.76,22.44
2.3699,-9.6977,0.98067,-0.67867,-0.23518,-0.71929,-13.08,22.92,21.84
2.5198,-9.7522,0.9398,-0.60659,-0.069333,-0.39615,-13.44,22.38,21.66
2.7513,-9.0712,0.55843,-0.46304,0.040317,-0.10171,-13.8,21.84,21.36
2.7649,-9.1937,0.54481,-0.17501,0.10049,0.29963,-14.16,21.42,20.88
2.7241,-9.9292,0.65378,-0.031154,0.16829,0.56994,-14.4,21.0,20.64
2.6968,-10.924,0.74912,0.000305,0.3094,0.91752,-14.64,20.64,20.46
3.1054,-10.896,0.6674,0.0076358,0.43616,1.2599,-14.64,20.46,20.16
3.3234,-9.3844,0.42223,0.061087,0.49205,1.5211,-14.76,20.28,20.1
3.2825,-8.4582,0.25879,0.32284,0.48289,1.6561,-14.88,20.16,20.1
3.3778,-8.2267,-0.081722,0.52993,0.49541,1.6637,-14.76,20.1,20.16
3.6366,-8.8124,-0.14982,0.69761,0.47067,1.6316,-14.64,20.22,20.1
3.8001,-9.3163,-0.21793,0.80359,0.36682,1.613,-14.58,20.22,20.04
4.0725,-10.733,-0.46309,0.82161,0.24343,1.6267,-14.52,20.7,19.92
3.9908,-10.515,-0.42223,0.73793,0.16646,1.6383,-14.4,21.0,19.8
3.7728,-9.7385,-0.43585,0.64416,0.19242,1.6347,-14.16,21.3,19.86
3.2144,-7.9951,-0.65378,0.62308,0.48533,1.5534,-13.8,22.08,19.8
3.2553,-7.3822,-0.81722,0.67348,0.76725,1.4462,-13.5,22.56,19.86
3.3778,-7.0962,-0.96704,0.74617,0.98899,1.343,-13.08,23.1,19.92
3.9908,-7.0826,-1.0079,0.81215,1.0467,1.2517,-12.3,24.06,19.86
4.2904,-7.2733,-1.1441,0.85613,0.93004,1.1994,-11.64,24.54,19.74
4.8352,-7.7636,-1.3757,0.85582,0.66462,1.1768,-11.16,25.08,19.5
5.3937,-8.2539,-1.9613,0.78741,0.16096,1.193,-10.02,25.92,19.14
5.7205,-8.5672,-2.2201,0.75778,-0.000305,1.1976,-9.42,26.34,18.9
5.8295,-8.8805,-2.3699,0.76297,-0.27428,1.1958,-8.88,26.88,18.72
6.0747,-10.365,-2.5334,0.80512,-0.45021,1.0941,-7.44,27.66,18.42
6.3471,-11.06,-2.833,0.74984,-0.4331,0.97983,-6.78,28.2,18.24
6.6604,-11.577,-3.1327,0.65699,-0.40164,0.84055,-6.0,28.62,17.88
6.8919,-12.258,-3.0918,0.44929,-0.41539,0.59773,-4.68,29.4,17.28
6.7693,-12.286,-2.9011,0.2364,-0.40714,0.41753,-4.08,29.7,16.86
6.674,-12.095,-2.7377,0.020769,-0.35369,0.20831,-3.42,30.06,16.38
6.5922,-12.844,-2.547,-0.060476,-0.30604,0.027489,-2.4,30.9,15.66
6.8647,-13.634,-2.438,-0.25748,-0.27733,-0.1292,-1.92,31.08,15.42
7.3005,-13.416,-2.261,-0.57971,-0.46609,-0.42516,-0.96,31.74,14.94
6.3335,-11.509,-0.74912,-0.83963,-0.5959,-0.75045,-0.54,32.1,14.76
5.1349,-10.624,-0.24517,-0.98349,-0.54703,-1.1106,-0.36,32.22,14.52
4.808,-10.542,-0.12258,-1.0156,-0.40103,-1.4087,-0.18,32.34,14.52
4.6309,-10.869,-0.12258,-1.0275,-0.33445,-1.584,-0.12,32.52,14.46
5.0531,-12.177,-0.1362,-1.1246,-0.36194,-1.6582,-0.36,32.76,14.46
5.0804,-12.054,0.14982,-1.2575,-0.41783,-1.679,-0.6,32.88,14.46
4.5764,-10.665,0.62654,-1.3454,-0.41447,-1.6405,-1.26,32.94,14.94
4.0589,-9.5342,0.83084,-1.3732,-0.30329,-1.7217,-1.98,32.88,15.18
3.5822,-8.0224,0.77636,-1.2969,-0.16799,-1.8729,-2.82,32.64,15.6
3.4732,-7.4503,0.7355,-1.2226,-0.11118,-1.9584,-3.66,32.4,16.02
3.3234,-6.6331,0.72188,-0.96028,-0.057116,-2.1652,-5.76,32.22,16.68
3.3234,-6.6331,0.57205,-0.77091,-0.12126,-2.222,-6.96,32.04,16.98
3.2416,-7.1507,0.28603,-0.63774,-0.29352,-2.1841,-8.16,31.68,17.52
3.1735,-7.4367,0.10896,-0.55039,-0.60353,-1.9697,-10.68,30.9,18.24
2.9829,-7.5321,0.12258,-0.55894,-0.73762,-1.7816,-11.88,30.42,18.54
2.6423,-7.5048,0.14982,-0.59407,-0.7703,-1.5559,-13.14,30.06,18.9
2.1793,-7.5729,0.14982,-0.62492,-0.65301,-1.3045,-15.78,28.98,19.56
2.0975,-7.8589,0.054481,-0.6692,-0.41356,-1.0162,-16.92,28.44,19.92
2.3427,-8.5808,0.068102,-0.69608,-0.18234,-0.69639,-18.06,27.72,20.28
2.833,-9.0984,-0.054481,-0.73334,0.069028,-0.20281,-19.98,26.58,20.64
2.942,-9.2618,0.14982,-0.73487,0.21991,0.10568,-20.76,26.04,20.88
2.9556,-9.3299,0.27241,-0.68325,0.35308,0.37935,-21.3,25.68,21.24
2.9965,-10.12,0.76274,-0.56016,0.45693,0.64294,-22.44,24.48,21.72
3.1872,-11.087,0.88532,-0.41692,0.57299,0.98655,-22.92,23.82,21.96
3.3778,-11.155,0.88532,-0.30238,0.68967,1.3155,-23.16,23.4,22.14
3.9771,-9.112,0.35413,0.050702,0.63163,1.701,-23.64,22.8,22.74
4.0316,-8.2812,-0.095342,0.38423,0.49694,1.781,-23.82,22.5,22.92
4.0861,-8.0905,-0.36775,0.5339,0.44013,1.7788,-23.94,22.38,23.1
3.9363,-9.0712,-0.55843,0.85552,0.2981,1.6878,-24.06,22.38,23.28
3.8273,-10.025,-0.57205,0.92852,0.22266,1.5989,-23.88,22.44,23.34
3.6775,-10.733,-0.49033,0.86407,0.22541,1.4826,-23.94,23.1,23.22
3.3642,-10.079,-0.83084,0.67317,0.45845,1.4606,-23.94,23.46,23.16
3.1054,-9.0303,-0.74912,0.63225,0.60598,1.4566,-23.7,23.82,23.22
3.0237,-8.4446,-0.88532,0.61911,1.1316,1.4462,-23.58,24.24,23.28
3.5277,-7.0281,-0.89894,0.70005,1.4065,1.4111,-23.16,25.02,22.98
3.9908,-6.674,-0.96704,0.81092,1.4697,1.3851,-22.8,25.56,22.74
4.7535,-6.7012,-1.2258,0.94898,1.1594,1.3662,-22.2,26.94,22.32
5.1621,-6.7966,-1.3348,0.99266,0.73426,1.3494,-21.84,27.72,22.02
5.2302,-7.1643,-1.58,1.0284,0.27061,1.3494,-21.42,28.38,21.78
5.2711,-7.641,-1.9477,1.0278,-0.057727,1.3305,-20.94,29.28,21.36
5.094,-8.1995,-2.4517,0.94715,-0.19426,1.3008,-19.8,30.66,20.4
5.0123,-8.2267,-2.5742,0.84849,-0.15547,1.2587,-19.26,31.32,20.1
5.3256,-9.0848,-2.6968,0.85094,-0.042455,1.2153,-18.66,31.8,19.68
6.0611,-11.032,-2.9284,0.74678,0.15944,1.1289,-17.22,33.06,18.96
6.3743,-11.673,-2.9556,0.64446,0.25779,1.0892,-16.62,33.78,18.48
6.674,-12.095,-2.7649,0.45296,0.43738,0.95631,-15.9,34.5,18.0
7.5321,-12.286,-2.4108,0.28466,0.47678,0.71166,-14.7,35.76,17.16
7.6274,-12.326,-2.3155,0.19181,0.33659,0.48747,-14.28,36.42,16.86
7.5321,-12.463,-2.1929,0.12798,0.14783,0.25168,-13.62,36.78,16.44
7.9679,-13.893,-2.1248,0.055894,-0.21716,0.035736,-12.48,37.74,15.54
8.3493,-14.124,-2.2337,-0.12126,-0.56444,-0.090713,-11.94,38.04,15.18
8.0224,-13.416,-2.0975,-0.3882,-0.93065,-0.35858,-11.46,38.34,15.0
5.9249,-10.746,-0.84446,-0.60048,-1.0321,-0.73395,-10.68,38.7,14.64
4.9306,-9.7385,-0.46309,-0.68081,-0.88575,-1.1304,-10.38,38.82,14.4
4.7671,-10.093,-0.47671,-0.66859,-0.6411,-1.4536,-10.02,39.0,14.52
5.3937,-12.286,-0.85808,-0.72296,-0.51526,-1.7355,-9.84,38.82,14.58
5.4754,-12.871,-0.64016,-1.0785,-0.51862,-1.7819,-10.02,38.64,14.82
5.4073,-12.517,-0.027241,-1.2062,-0.51893,-1.784,-10.08,38.4,14.94
4.7807,-10.61,0.76274,-1.4713,-0.42364,-1.81,-10.5,37.92,15.6
4.1542,-8.8941,0.85808,-1.4899,-0.29077,-1.9422,-10.86,37.56,15.9
3.7456,-7.9679,0.91256,-1.3625,-0.10721,-2.1292,-11.34,37.26,16.32
3.6503,-7.3686,0.64016,-1.1264,0.02474,-2.3265,-12.54,36.36,17.4
3.7456,-7.3822,0.43585,-0.77702,-0.046731,-2.5168,-13.26,35.82,17.82
3.7728,-7.4095,0.31327,-0.68845,-0.12737,-2.5278,-14.16,35.22,18.18
3.8001,-7.6002,0.14982,-0.49755,-0.47709,-2.4062,-15.0,34.62,18.54
3.5958,-7.641,0.17706,-0.51129,-0.72082,-2.2538,-16.98,33.54,18.78
3.3915,-7.4776,0.38137,-0.57849,-0.89614,-2.0717,-18.0,32.76,18.78
3.0918,-7.7091,0.068102,-0.61728,-0.9951,-1.8586,-18.9,32.22,18.9
2.8194,-8.2539,-0.027241,-0.67653,-0.97066,-1.4658,-20.58,30.96,19.08
2.6696,-8.4719,-0.14982,-0.67898,-0.82284,-1.1383,-21.42,30.24,19.26
2.6015,-9.1665,-0.081722,-0.66157,-0.58887,-0.78466,-22.26,29.64,19.14
2.7922,-9.9292,-0.27241,-0.66157,-0.32987,-0.42974,-23.58,28.26,19.2
2.8603,-9.7522,-0.19068,-0.66004,-0.073915,-0.13225,-24.36,27.54,19.14
3.0918,-9.3027,-0.21793,-0.60079,0.11301,0.13531,-24.78,26.82,19.08
3.2144,-10.038,-0.027241,-0.4835,0.21777,0.39951,-25.74,25.62,19.14
3.3097,-11.101,0.23155,-0.39401,0.31185,0.72785,-25.98,25.08,19.14
3.3642,-10.896,0.23155,-0.37385,0.42822,1.0708,-26.16,24.6,19.26
3.4051,-8.1586,0.14982,-0.22052,0.54214,1.4197,-26.4,23.82,19.8
3.337,-7.1915,-0.040861,0.040012,0.56902,1.5366,-26.52,23.58,20.1
3.3778,-7.069,-0.054481,0.35308,0.58918,1.6093,-26.64,23.46,20.16
3.6503,-8.8668,-0.12258,0.67592,0.55375,1.6787,-26.76,23.46,20.28
3.8001,-9.7658,-0.16344,0.73548,0.51252,1.711,-26.82,23.58,20.28
4.127,-10.038,-0.1362,0.78221,0.32193,1.8784,-26.7,23.76,20.28
3.7865,-9.2618,-0.21793,0.7648,0.23976,1.956,-26.52,24.48,19.74
3.5685,-8.4719,-0.38137,0.79474,0.27428,2.003,-26.34,24.96,19.56
3.4051,-7.4776,-0.57205,0.84177,0.41966,1.9838,-26.16,25.38,19.32
3.4596,-6.6331,-0.61292,0.90805,0.70433,1.9032,-25.62,26.64,18.96
3.7728,-6.7693,-0.53119,0.98624,0.76908,1.8766,-25.32,27.36,18.78
4.0316,-7.1098,-0.47671,1.0553,0.81428,1.8311,-24.96,28.02,18.54
4.7807,-7.7364,-0.92618,1.0348,0.73854,1.7397,-24.18,29.52,17.82
5.0804,-8.0496,-1.3484,0.98869,0.63347,1.6967,-23.52,30.18,17.46
5.1213,-8.5808,-1.6344,0.93096,0.6072,1.6438,-22.86,30.84,17.22
5.1894,-8.7306,-1.4982,0.76633,0.79321,1.522,-21.36,32.34,16.44
5.4754,-8.9486,-1.5391,0.7535,0.93432,1.4572,-20.64,33.06,16.2
6.2381,-9.4525,-1.9886,0.76938,0.97861,1.4117,-19.92,33.72,15.9
7.0962,-10.583,-2.4244,0.75656,0.83689,1.332,-19.14,34.26,15.42
8.3357,-11.863,-2.942,0.74556,0.50702,1.2382,-17.46,35.34,14.76
8.6353,-12.326,-2.9284,0.71563,0.11148,1.1078,-16.62,36.06,14.34
8.6625,-12.653,-2.9148,0.54795,-0.36194,0.75686,-14.94,37.2,13.44
8.0769,-12.721,-2.7649,0.4383,-0.52657,0.42425,-14.22,37.74,13.02
8.036,-13.539,-2.8058,0.39706,-0.6524,0.14172,-13.5,38.34,12.48
8.2403,-14.41,-3.0237,0.16188,-0.8097,-0.097433,-12.9,38.7,12.0
8.1177,-13.471,-2.9011,-0.16738,-1.0354,-0.36072,-11.94,39.6,11.28
7.1915,-12.272,-1.9886,-0.44043,-1.2162,-0.72204,-11.52,40.08,10.8
5.6252,-10.815,-1.076,-0.63225,-1.1191,-1.1359,-11.16,40.38,10.62
4.8352,-10.515,-0.55843,-0.76114,-0.63958,-1.6435,-10.98,40.74,10.14
5.2438,-11.536,-0.44947,-0.85827,-0.49541,-1.8225,-10.92,40.8,10.14
5.5707,-12.04,-0.31327,-0.97738,-0.53084,-1.89,-11.04,40.98,10.32
5.9112,-11.795,0.35413,-1.1035,-0.69883,-1.9022,-11.76,40.98,10.68
5.4073,-10.61,0.70826,-1.1622,-0.85368,-1.9059,-12.3,40.8,11.1
4.9578,-9.5479,1.0896,-1.1374,-0.85582,-2.0559,-13.68,40.26,12.0
3.9635,-7.8045,1.2122,-1.0675,-0.74739,-2.2043,-14.52,39.72,12.48
3.7047,-7.3822,1.076,-0.95356,-0.61423,-2.35,-15.48,39.06,13.08
3.8682,-7.3141,1.0896,-0.83902,-0.55222,-2.459,-16.32,38.58,13.74
3.909,-7.3822,1.0488,-0.72754,-0.61514,-2.4823,-18.48,37.2,14.7
3.8546,-7.6955,0.92618,-0.6353,-0.72357,-2.4227,-19.74,36.24,15.3
3.6775,-7.8862,0.7355,-0.57605,-0.82894,-2.328,-20.94,35.4,15.78
3.2825,-7.6002,0.64016,-0.55283,-0.94043,-2.098,-23.1,33.78,16.74
2.9965,-8.036,0.61292,-0.55955,-0.93859,-1.8763,-24.3,32.88,17.16
2.9965,-8.036,0.61292,-0.55955,-0.93859,-1.8763,-24.3,32.88,17.16
2.9556,-9.1665,0.19068,-0.63499,-0.69914,-1.1359,-26.76,29.88,18.48
2.9692,-9.3572,0.19068,-0.64691,-0.63713,-0.96669,-27.6,28.92,18.84
2.833,-9.6023,0.16344,-0.66554,-0.45632,-0.63622,-28.38,27.96,19.26
2.7241,-9.6432,-0.054481,-0.66798,-0.20556,-0.32712,-29.34,26.16,19.8
2.8739,-9.7249,-0.14982,-0.63377,0.051618,-0.03207,-29.94,25.5,20.16
2.9965,-10.161,-0.14982,-0.54398,0.23152,0.26664,-30.36,24.84,20.46
2.9829,-10.992,0.21793,-0.4722,0.5226,0.82864,-30.9,23.64,21.18
3.2825,-10.065,0.24517,-0.41814,0.72082,1.1759,-31.08,23.22,21.3
3.5685,-8.6217,0.24517,-0.20708,0.73731,1.4337,-31.2,22.8,21.54
3.8546,-7.246,-0.19068,0.12034,0.62889,1.5482,-31.44,22.26,21.9
3.909,-7.4503,-0.38137,0.4948,0.42944,1.5715,-31.44,22.26,21.84
4.1133,-8.7034,-0.38137,0.78466,0.18601,1.5644,-31.44,22.08,21.96
3.8273,-10.174,-0.36775,0.89553,-0.13011,1.5611,-31.5,22.74,21.54
3.5549,-10.12,-0.35413,0.82161,-0.20403,1.6041,-31.38,23.1,21.36
3.2144,-9.4934,-0.39499,0.75411,-0.13958,1.66,-31.26,23.52,21.24
2.6015,-7.8453,-0.43585,0.7309,0.2303,1.7022,-30.96,24.54,20.82
2.4108,-7.069,-0.21793,0.7703,0.61453,1.6848,-30.6,25.2,20.64
2.4517,-6.7421,-0.19068,0.79993,0.81153,1.6784,-30.24,25.86,20.34
3.2689,-6.4424,-0.095342,0.94928,1.146,1.6451,-29.88,26.4,20.16
5.0259,-6.9872,-0.28603,1.0544,1.0376,1.5711,-28.86,27.9,19.92
5.2983,-7.246,-0.38137,1.1457,0.75839,1.4536,-28.38,28.68,19.74
5.4618,-7.4776,-0.6674,1.2113,0.48808,1.2709,-27.66,29.58,19.44
6.0611,-8.0632,-1.5391,1.2477,0.34453,1.2339,-27.0,30.24,19.02
6.4152,-8.826,-2.0839,1.2477,0.2532,1.1942,-25.74,31.86,18.24
6.5786,-9.5751,-2.2201,1.2049,0.16035,1.2428,-25.2,32.64,18.0
6.7693,-10.256,-2.3836,1.1145,0.14111,1.2856,-24.36,33.24,17.52
7.4776,-11.686,-2.8058,0.98869,0.13714,1.3112,-22.5,34.8,16.32
7.641,-12.177,-2.833,0.8601,0.13317,1.2541,-21.54,35.4,15.84
7.9679,-12.953,-2.4244,0.68692,0.083994,1.2055,-20.58,36.24,15.24
7.9679,-12.544,-2.4789,0.489,-0.011606,1.0043,-18.84,37.38,13.92
7.6274,-12.054,-2.5198,0.39981,-0.20525,0.53359,-18.06,38.1,13.2
7.3822,-12.381,-2.6832,0.43188,-0.32132,0.25351,-17.22,38.7,12.36
7.4231,-12.749,-2.9965,0.33292,-0.43555,0.038485,-15.84,39.78,11.04
7.2869,-12.217,-2.7786,0.11301,-0.67226,-0.1854,-15.3,40.2,10.5
6.5786,-11.577,-1.866,-0.16005,-0.91691,-0.2697,-14.64,40.56,9.96
4.7535,-10.692,-0.72188,-0.5006,-0.92882,-0.60353,-13.5,41.1,9.42
4.6037,-10.61,-0.61292,-0.7141,-0.76786,-0.80237,-12.9,41.4,9.12
4.6037,-10.692,-0.50395,-0.87079,-0.64691,-0.87659,-12.6,41.64,9.18
4.9442,-10.964,-0.44947,-1.0379,-0.65454,-0.85002,-12.48,41.64,9.42
5.0668,-10.569,-0.34051,-1.1777,-0.79015,-0.79412,-12.66,41.7,9.54
4.8352,-9.1937,0.24517,-1.2892,-0.82803,-0.78863,-12.9,41.46,10.32
4.127,-8.0496,0.46309,-1.3873,-0.80573,-0.95845,-13.32,41.46,10.8
3.8409,-7.6683,0.64016,-1.3888,-0.64385,-1.1591,-13.62,41.28,11.52
3.5822,-7.5593,0.70826,-1.3439,-0.43402,-1.3806,-14.58,40.56,13.14
3.6775,-7.75,0.50395,-1.2874,-0.25901,-1.6127,-15.3,40.26,13.86
3.7047,-7.6955,0.38137,-1.2022,-0.17532,-1.777,-15.9,39.9,14.76
3.7047,-7.7364,0.44947,-1.0657,-0.21014,-1.8634,-17.46,38.58,16.5
3.6366,-8.1177,0.38137,-1.0064,-0.30146,-1.8619,-18.18,38.1,17.28
3.3778,-8.4719,0.49033,-0.97922,-0.34911,-1.8421,-19.08,37.5,18.06
3.2416,-9.3163,0.38137,-1.0146,-0.39828,-1.6936,-19.8,36.84,18.78
3.0237,-10.093,0.24517,-1.065,-0.31948,-1.5421,-21.18,35.52,20.22
2.8875,-10.828,0.20431,-1.1017,-0.1854,-1.3442,-21.72,34.68,20.82
2.6968,-11.073,0.51757,-1.2187,0.16585,-1.0693,-23.16,33.18,22.02
2.4244,-10.256,0.92618,-1.2236,0.31093,-0.96547,-23.7,32.1,22.32
2.6151,-9.8611,0.7355,-1.0605,0.6579,-0.6634,-24.24,31.2,22.74
2.8603,-9.6977,0.6674,-0.83414,0.72724,-0.47586,-24.54,30.42,23.04
2.9556,-10.801,0.8036,-0.57544,0.71257,-0.23213,-25.26,28.74,23.88
2.9829,-11.496,1.0079,-0.40317,0.69975,0.069944,-25.5,27.9,24.18
3.228,-9.2755,0.84446,-0.16463,0.63377,0.49847,-25.98,26.64,24.54
3.2825,-7.7908,0.54481,0.12217,0.46059,0.67104,-26.16,26.04,24.84
3.1191,-6.96,0.23155,0.44563,0.29658,0.72785,-26.22,25.44,25.02
3.0237,-7.0553,0.12258,0.59132,0.24282,0.74953,-26.46,24.96,25.2
2.8467,-8.54,-0.068102,0.88575,0.15119,0.8094,-26.7,24.3,25.5
2.8875,-8.9894,-0.095342,0.94226,0.13042,0.91813,-26.76,24.24,25.32
3.0237,-9.3299,-0.27241,0.91324,0.13775,1.1903,-26.76,24.24,25.32
2.7649,-8.1041,-0.57205,0.84055,0.23824,1.3665,-26.58,24.48,25.32
2.6015,-7.3141,-0.65378,0.80329,0.39095,1.5027,-26.46,24.72,25.2
2.6015,-6.7421,-0.78998,0.7981,0.62675,1.5876,-26.4,25.14,25.14
2.9011,-6.0611,-1.0488,0.83353,0.85094,1.6298,-25.98,26.22,24.72
3.4868,-6.1155,-1.2531,0.89003,0.92607,1.6527,-25.74,26.82,24.54
4.413,-6.5786,-1.4301,0.94379,0.7816,1.6454,-24.9,28.14,24.18
5.094,-7.6546,-1.6753,0.97128,0.36285,1.6469,-24.36,28.86,23.88
5.3528,-8.5808,-1.9341,0.96333,0.10293,1.6331,-23.82,29.76,23.64
5.4481,-8.8124,-1.9477,0.87384,-0.056505,1.6188,-22.98,30.6,23.28
5.6252,-9.398,-2.2337,0.8543,-0.047342,1.5385,-21.42,32.16,22.2
5.8976,-10.188,-2.3972,0.8656,0.088881,1.4502,-20.52,32.94,22.08
6.3335,-11.319,-2.656,0.86254,0.26817,1.3436,-19.62,33.78,21.66
7.8453,-12.612,-3.0918,0.77946,0.37324,1.2465,-17.88,35.4,20.7
8.4174,-12.653,-3.1054,0.60018,0.18143,1.0733,-16.92,36.12,20.16
8.54,-12.558,-3.1599,0.43249,-0.040623,0.85796,-15.9,36.72,19.56
7.9815,-11.891,-2.9692,0.29016,-0.19945,0.54336,-13.98,37.98,18.3
7.6683,-12.313,-2.7786,0.26786,-0.24068,0.2361,-12.9,38.64,17.58
7.7636,-13.184,-3.1327,0.10018,-0.18326,-0.0067195,-11.1,39.9,16.68
8.54,-12.503,-3.0782,-0.33689,-0.36316,-0.34544,-10.38,40.32,16.2
7.5048,-11.25,-1.975,-0.54123,-0.62675,-0.65882,-9.78,40.68,15.72
6.8102,-10.896,-1.6208,-0.61423,-0.66829,-0.83353,-9.36,41.04,15.42
5.884,-10.842,-1.2122,-0.78771,-0.48594,-1.306,-8.52,41.46,15.12
5.9657,-11.523,-1.0488,-0.87904,-0.40653,-1.4594,-8.4,41.46,15.0
6.3198,-12.381,-0.57205,-1.0208,-0.49175,-1.4954,-8.52,41.4,14.94
6.279,-11.945,-0.095342,-1.2767,-0.7251,-1.5018,-8.52,41.28,14.94
5.6797,-10.801,0.20431,-1.3247,-0.77702,-1.5302,-8.82,41.16,15.12
5.2847,-9.9837,0.44947,-1.3754,-0.69852,-1.7874,-9.36,40.98,15.24
3.7456,-7.6683,0.6674,-1.3005,-0.50121,-2.025,-10.62,40.38,15.9
3.4051,-7.0962,0.58567,-1.1582,-0.26328,-2.2541,-11.58,40.02,16.38
3.3097,-7.0553,0.54481,-0.98502,-0.10415,-2.4184,-12.54,39.48,16.74
3.6775,-7.6683,0.47671,-0.85582,-0.10232,-2.4823,-14.88,38.52,17.46
3.4187,-7.7364,0.57205,-0.79565,-0.21136,-2.4422,-16.08,37.92,17.58
3.3778,-7.6683,0.57205,-0.74984,-0.39523,-2.3207,-17.34,37.26,17.94
2.9284,-7.7364,0.64016,-0.74648,-0.58735,-2.0351,-19.98,35.94,18.36
2.6423,-7.7636,0.5993,-0.74434,-0.65088,-1.8033,-21.18,35.4,18.54
2.3427,-7.8453,0.57205,-0.74709,-0.6295,-1.5369,-22.44,34.68,18.72
2.1248,-8.3765,0.50395,-0.74923,-0.42364,-1.0568,-24.6,33.18,19.38
2.0975,-8.8941,0.50395,-0.74617,-0.23305,-0.67592,-25.74,32.58,19.68
2.0431,-9.1256,0.51757,-0.75533,-0.0067195,-0.27245,-26.64,31.68,19.86
2.1248,-8.9349,0.70826,-0.70677,0.22877,0.1124,-27.48,30.9,20.04
2.5198,-8.3357,0.55843,-0.58002,0.38362,0.47495,-28.8,29.4,20.64
2.6968,-8.8668,0.44947,-0.37202,0.42394,0.81459,-29.46,28.74,20.76
2.8194,-10.488,0.62654,-0.21961,0.45815,1.1845,-30.06,27.78,21.06
3.3506,-10.188,0.6674,-0.11729,0.50457,1.7223,-30.3,27.24,21.48
3.4051,-9.4525,0.50395,0.0082467,0.49663,1.9948,-30.48,26.94,21.66
3.4732,-9.0575,0.35413,0.20678,0.52107,2.105,-30.54,26.82,21.84
3.4868,-8.54,0.081722,0.41264,0.60353,2.1365,-30.36,26.88,22.14
3.514,-8.9486,0.054481,0.62156,0.69944,2.1447,-30.3,26.88,22.2
3.7865,-10.174,-0.19068,0.77885,0.73915,2.156,-30.0,27.36,22.02
4.3585,-11.046,-0.29965,0.87323,0.67776,2.2416,-29.76,27.6,21.9
4.6582,-10.488,-0.44947,0.905,0.52931,2.3198,-29.4,28.26,21.84
4.6173,-10.025,-0.54481,0.95936,0.37965,2.3457,-28.98,28.86,21.48
4.6854,-9.1665,-0.99429,1.0241,0.24465,2.2965,-28.62,29.52,21.24
4.8488,-7.6955,-1.5527,1.0876,0.095906,2.1567,-27.24,31.26,20.7
4.9306,-7.2188,-1.9886,1.1573,-0.17746,1.8732,-26.4,32.1,20.4
4.9442,-7.1915,-2.6151,1.2343,-0.37629,1.6567,-24.72,33.78,19.74
4.9033,-7.6683,-2.9284,1.2175,-0.49877,1.4676,-23.64,34.5,19.32
4.7807,-7.9679,-2.9284,1.1842,-0.51618,1.3668,-22.56,35.22,18.84
4.6037,-8.9213,-3.0237,1.0101,-0.34392,1.1237,-20.4,36.66,18.0
4.7671,-9.2891,-3.3506,0.81734,-0.1069,1.0006,-19.26,37.44,17.52
4.9033,-9.4389,-3.5277,0.64813,0.12217,0.87812,-18.06,38.1,16.92
5.5162,-10.379,-3.4459,0.49175,0.36408,0.74556,-15.66,39.36,15.96
6.3471,-11.4,-3.4868,0.40531,0.37202,0.68997,-14.58,39.84,15.42
6.9055,-11.931,-3.514,0.29688,0.20433,0.62186,-13.68,40.26,15.0
7.464,-12.544,-3.4732,0.14661,-0.09163,0.47831,-12.84,40.86,14.46
7.3005,-12.381,-2.9556,-0.058948,-0.34422,0.26603,-11.28,41.46,13.32
6.6876,-11.536,-2.7104,-0.19059,-0.44227,-0.016493,-10.86,41.58,12.96
5.9657,-12.272,-2.5198,-0.13531,-0.39309,-0.30268,-9.72,41.94,12.3
6.4424,-13.321,-2.9011,-0.1463,-0.21686,-0.64843,-9.42,42.18,11.88
7.1915,-12.967,-2.9011,-0.45754,-0.28741,-0.82772,-9.12,42.36,11.82
7.0553,-12.027,-2.4789,-0.68417,-0.53634,-1.0421,-9.12,42.36,11.64
5.0531,-10.61,-0.96704,-0.72082,-0.68417,-1.3027,-9.12,42.36,11.58
4.8216,-10.842,-0.8036,-0.76511,-0.62033,-1.5681,-9.24,42.42,11.82
4.7399,-11.319,-0.8036,-0.89675,-0.42761,-1.806,-9.6,42.36,11.94
4.9306,-12.762,-0.62654,-0.94837,-0.39218,-1.8399,-10.44,41.94,12.84
4.9442,-12.926,-0.29965,-1.27,-0.30696,-1.876,-10.86,41.7,13.32
4.7807,-12.503,0.21793,-1.441,-0.20525,-1.8885,-11.52,41.22,13.86
4.127,-9.8884,0.57205,-1.4319,-0.098044,-1.9499,-13.02,40.2,15.12
3.7592,-8.717,0.61292,-1.3137,0.023518,-2.069,-13.86,39.78,15.66
3.228,-7.4095,0.64016,-1.124,0.10415,-2.2223,-15.9,38.34,16.92
3.2144,-7.246,0.62654,-0.76969,0.060476,-2.3815,-17.1,37.44,17.64
3.3506,-7.1507,0.36775,-0.67256,-0.0094684,-2.4056,-18.18,36.54,18.12
3.3234,-7.0281,0.36775,-0.48808,-0.37782,-2.31,-20.34,34.74,19.38
3.2144,-6.9872,0.040861,-0.45876,-0.68753,-2.157,-21.48,33.78,19.86
3.0237,-6.8919,0.21793,-0.49205,-0.96395,-1.9621,-22.44,32.7,20.28
2.5061,-6.7557,0.25879,-0.5565,-1.0959,-1.7446,-24.12,30.6,21.42
2.2882,-6.7693,0.24517,-0.62033,-0.99205,-1.3402,-24.72,29.58,21.78
2.0703,-7.1507,0.19068,-0.64385,-0.79107,-0.98288,-25.26,28.38,22.2
2.2337,-8.4719,0.040861,-0.63408,-0.5568,-0.57146,-25.8,26.52,23.1
2.5742,-9.398,0.095342,-0.66706,-0.3094,-0.18601,-26.04,25.62,23.46
2.6015,-9.3572,0.12258,-0.70433,-0.021991,0.14997,-26.22,24.84,24.06
2.8739,-8.2539,0.19068,-0.57391,0.38729,0.53695,-26.28,23.4,24.9
3.1599,-8.4446,0.081722,-0.48961,0.4835,0.64904,-26.04,22.98,25.32
3.4459,-9.9292,0.20431,-0.19853,0.60445,1.0113,-25.8,22.38,25.8
3.4459,-9.9292,0.20431,-0.087354,0.63011,1.3002,-25.8,22.38,25.8
3.8001,-10.542,0.35413,-0.0024435,0.6295,1.6044,-25.14,21.6,26.4
3.8137,-9.2891,0.1362,0.16646,0.58093,1.8283,-24.66,21.24,26.82
3.8001,-7.927,-0.25879,0.40928,0.562,1.9331,-23.88,21.06,27.12
3.8137,-8.2403,-0.58567,0.78649,0.5568,1.9639,-23.52,21.24,27.18
3.9635,-9.112,-0.64016,0.89492,0.52931,1.9673,-23.28,21.48,27.3
4.127,-10.365,-0.62654,1.0458,0.40317,2.014,-22.98,21.9,27.24
4.4811,-11.536,-0.72188,0.99663,0.32132,2.0742,-22.38,22.8,27.12
4.4402,-10.869,-0.74912,0.92821,0.29932,2.1502,-21.96,23.34,27.0
4.1678,-8.9622,-1.0079,0.89889,0.35949,2.1759,-21.48,23.82,26.7
4.2768,-7.927,-1.3484,0.97616,0.53939,2.0669,-20.34,25.38,26.16
4.522,-7.355,-2.0022,1.0424,0.58307,1.9212,-19.62,26.1,25.92
4.7399,-6.9055,-2.4653,1.0629,0.55314,1.8167,-18.96,27.0,25.56
5.0259,-6.7421,-2.9829,1.0681,0.31368,1.5391,-17.58,28.68,24.84
4.9578,-7.1507,-2.9965,1.0131,0.12309,1.3992,-16.8,29.52,24.42
4.985,-8.0224,-2.8603,1.007,-0.011606,1.2914,-16.08,30.36,24.3
5.3119,-9.4934,-3.0782,0.97097,-0.038179,1.1704,-14.4,31.98,23.64
5.4073,-9.4525,-3.4459,0.67653,0.14966,0.97738,-13.38,32.7,23.1
5.6116,-9.3163,-3.4459,0.64599,0.20342,0.90988,-12.48,33.42,22.8
6.1973,-10.447,-3.4596,0.65546,0.25229,0.71074,-10.56,34.5,21.9
6.565,-11.387,-3.623,0.56963,0.2135,0.60751,-9.78,35.22,21.48
7.0417,-12.081,-3.514,0.42761,0.11118,0.49663,-8.94,35.7,21.12
7.3414,-12.313,-3.1735,0.16493,-0.16554,0.32865,-7.2,36.6,20.34
6.9872,-11.85,-2.9148,0.059559,-0.23518,0.2306,-6.66,37.02,19.98
6.5514,-11.346,-2.656,-0.080023,-0.28222,-0.0082467,-6.0,37.38,19.8
6.0202,-12.122,-2.3836,-0.05681,-0.10599,-0.33781,-4.68,38.1,19.38
6.7829,-13.225,-2.7104,-0.17654,0.036346,-0.47861,-4.26,38.4,19.02
7.355,-12.967,-2.7513,-0.43616,-0.066279,-0.60964,-3.9,38.64,18.66
6.4016,-10.474,-1.3212,-0.68997,-0.49327,-0.96761,-3.3,39.0,18.48
5.5435,-10.052,-0.99429,-0.67287,-0.60964,-1.2593,-3.12,39.18,18.6
5.2166,-10.256,-0.85808,-0.67134,-0.61972,-1.3928,-3.0,39.3,18.6
5.094,-11.605,-0.8717,-0.72998,-0.65149,-1.6203,-3.18,39.48,18.6
5.2438,-12.381,-0.72188,-0.82986,-0.75595,-1.6246,-3.48,39.3,18.78
5.3119,-12.749,-0.54481,-1.0461,-0.84238,-1.6008,-3.72,39.18,19.02
4.7126,-11.087,-0.040861,-1.2468,-0.83108,-1.5705,-4.62,38.7,19.44
4.5083,-10.256,0.12258,-1.2666,-0.68936,-1.682,-4.98,38.34,19.74
3.8273,-8.826,0.40861,-1.1698,-0.51007,-1.8747,-5.76,38.1,19.98
3.1872,-7.7227,0.35413,-1.0226,-0.32162,-2.0953,-7.5,37.26,20.64
3.1191,-7.3277,0.31327,-0.84758,-0.15913,-2.2703,-8.28,36.96,21.06
3.1191,-7.2188,0.12258,-0.70677,-0.079718,-2.3686,-9.18,36.48,21.6
3.3642,-7.3686,0.12258,-0.58063,-0.1909,-2.3396,-11.16,35.22,22.14
3.3915,-7.5457,0.16344,-0.53603,-0.37996,-2.2184,-12.24,34.56,22.38
3.3097,-7.5457,0.28603,-0.54184,-0.47678,-2.1292,-13.26,33.78,22.62
2.7513,-7.246,0.35413,-0.58154,-0.68783,-1.777,-15.36,32.34,23.28
2.4653,-7.2188,0.35413,-0.5736,-0.69364,-1.4759,-16.2,31.56,23.64
2.3018,-7.4776,0.32689,-0.56688,-0.58429,-1.1417,-17.04,30.84,23.76
2.3427,-8.2539,0.25879,-0.562,-0.4163,-0.76908,-18.66,29.22,24.24
2.4244,-8.4855,0.31327,-0.56413,-0.11393,-0.18815,-19.5,28.62,24.42
2.5334,-8.5536,0.40861,-0.54856,0.11118,0.15547,-20.04,27.9,24.6
2.8058,-8.322,0.27241,-0.47159,0.27764,0.44379,-20.82,26.52,24.78
3.2008,-8.6353,0.19068,-0.32803,0.35827,0.69333,-21.12,25.68,25.08
3.2825,-9.6023,0.29965,-0.1631,0.38454,0.95478,-21.24,25.14,25.02
3.3778,-10.338,0.28603,-0.075136,0.42791,1.3412,-21.42,24.36,25.2
3.2961,-9.8884,0.34051,0.062308,0.54581,1.5577,-21.42,23.88,25.44
3.2144,-9.3163,0.27241,0.23885,0.63591,1.7031,-21.54,23.76,25.56
3.2825,-8.7034,-0.12258,0.43646,0.77366,1.7767,-21.24,23.52,25.68
3.5413,-8.7034,-0.19068,0.62553,0.88728,1.8298,-21.12,23.52,25.56
3.8954,-9.0575,-0.35413,0.81398,0.89889,1.8732,-21.06,23.52,25.56
4.2904,-9.6841,-0.39499,0.93554,0.78618,1.9145,-20.76,24.18,25.38
4.5356,-10.569,-0.44947,1.0281,0.51801,1.9908,-20.64,24.54,25.2
4.5083,-10.488,-0.54481,1.033,0.45021,2.0113,-20.46,24.84,24.96
4.4402,-9.9156,-0.6674,1.0269,0.36102,2.0391,-20.28,25.38,24.84
4.3177,-8.3629,-0.8717,1.0376,0.34728,2.022,-19.62,26.7,24.3
4.4811,-7.7364,-1.1713,1.0629,0.37446,1.9471,-19.2,27.42,24.0
4.5492,-7.2733,-1.2122,1.1054,0.36438,1.825,-18.72,28.02,23.82
4.8625,-7.6002,-1.471,1.1811,0.32009,1.6787,-17.64,29.58,23.16
5.1349,-8.1858,-2.0431,1.2529,0.22694,1.4985,-16.92,30.12,22.8
5.0668,-8.4446,-2.2882,1.1771,0.16402,1.3402,-16.26,30.9,22.44
5.094,-8.5808,-2.5742,1.0427,0.14172,1.2199,-14.58,32.34,21.66
5.2847,-8.9349,-2.6968,0.94715,0.17715,1.1588,-13.74,33.18,21.3
5.5299,-9.4661,-2.7377,0.86621,0.22235,1.1014,-12.9,33.72,20.76
5.9385,-10.815,-2.9556,0.71105,0.30635,1.0226,-11.04,34.8,19.68
6.3471,-11.237,-2.9965,0.58704,0.32223,0.96303,-10.14,35.34,19.38
6.6604,-11.55,-2.9829,0.53512,0.28711,0.92271,-9.18,35.76,18.9
7.3822,-12.544,-2.8603,0.40012,-0.013744,0.77794,-7.62,36.72,17.94
7.2869,-12.694,-2.7649,0.24312,-0.20953,0.59987,-6.84,37.02,17.58
6.9328,-12.572,-2.4244,0.14325,-0.33353,0.37507,-6.12,37.38,17.1
7.4912,-14.288,-2.5742,0.10201,-0.50091,0.098655,-4.8,37.92,16.26
8.0224,-14.655,-2.6832,-0.13042,-0.7196,-0.1069,-4.26,38.22,15.84
7.8181,-13.906,-2.3155,-0.28405,-0.86193,-0.24709,-3.78,38.46,15.42
5.775,-11.264,-0.9398,-0.62217,-1.0321,-0.83597,-3.12,38.82,15.06
4.4947,-10.215,-0.55843,-0.64232,-0.84941,-1.2529,-2.88,38.76,14.94
4.4266,-10.215,-0.57205,-0.65607,-0.59895,-1.6044,-2.64,38.88,14.94
4.9033,-11.441,-0.68102,-0.68142,-0.53848,-1.8537,-2.7,39.0,14.94
4.9306,-11.836,-0.14982,-0.91355,-0.63255,-1.8986,-2.82,38.94,14.88
4.9578,-11.577,0.17706,-1.0061,-0.68447,-1.8879,-3.06,39.0,14.94
4.6445,-10.597,0.7355,-1.1561,-0.79199,-1.8491,-3.36,38.82,15.12
3.8137,-8.9486,0.98067,-1.2248,-0.88942,-1.8347,-4.68,38.28,15.72
3.4596,-8.4038,1.1169,-1.1985,-0.85674,-1.8912,-5.34,37.86,16.14
3.228,-8.1858,1.2258,-1.1399,-0.77061,-1.9563,-6.18,37.56,16.5
3.0918,-7.8453,1.185,-1.0663,-0.63897,-2.0378,-7.86,36.84,17.46
2.9011,-7.6683,1.2939,-1.0201,-0.5678,-2.0323,-8.82,36.3,18.06
2.7241,-7.5457,1.4029,-0.96242,-0.5229,-1.9627,-9.84,35.64,18.48
2.7104,-7.641,1.3212,-0.9163,-0.50366,-1.8497,-11.64,34.68,19.08
2.6015,-7.5321,1.3893,-0.88148,-0.52076,-1.7297,-12.54,34.02,19.5
2.4925,-7.6138,1.4846,-0.81795,-0.52626,-1.5684,-13.38,33.42,20.16
2.1248,-8.2676,1.6072,-0.74678,-0.42699,-1.2559,-15.0,31.92,21.06
2.0839,-8.6762,1.4165,-0.70219,-0.30604,-0.98441,-15.6,31.2,21.66
2.1929,-8.9213,1.3484,-0.65607,-0.15516,-0.66859,-16.2,30.48,22.14
2.3563,-9.3436,1.3348,-0.57635,-0.015577,-0.34086,-16.98,29.22,22.86
2.5334,-9.4117,1.2939,-0.47678,0.084605,-0.0033598,-17.46,28.74,23.16
2.6968,-9.3572,1.0488,-0.25229,0.14386,0.41966,-18.06,27.54,23.7
2.4925,-10.815,1.185,-0.091324,0.23121,0.71807,-18.3,27.06,24.0
2.6832,-11.523,1.3212,-0.01069,0.39767,1.0537,-18.24,26.64,24.12
3.1054,-11.223,1.1032,0.065668,0.51557,1.3167,-18.18,26.46,24.36
3.3097,-9.9565,0.9398,0.26267,0.5006,1.4484,-18.24,26.34,24.6
3.3097,-8.4719,0.44947,0.54734,0.45296,1.4609,-18.3,26.04,24.9
3.337,-8.6625,0.31327,0.84819,0.40409,1.4166,-18.24,26.04,24.96
3.4323,-9.8339,-0.027241,1.0996,0.34575,1.35,-17.64,26.34,24.96
3.7184,-10.855,-0.38137,1.2575,0.21869,1.3635,-17.58,26.64,24.84
4.018,-10.774,-0.6674,1.223,0.13042,1.4328,-17.4,27.0,24.66
4.0997,-10.351,-0.89894,1.1564,0.034819,1.4865,-17.04,27.36,24.6
3.6366,-8.4038,-1.1169,1.0968,0.019548,1.4771,-16.26,28.44,24.12
3.4868,-7.5048,-1.2531,1.0818,0.12706,1.4233,-16.08,28.92,23.82
3.3506,-7.0281,-1.362,1.0919,0.29596,1.3415,-15.78,29.58,23.64
3.5685,-7.3958,-1.3757,1.1341,0.44013,1.1646,-14.94,30.9,22.92
3.5958,-7.5048,-1.2258,1.0464,0.46365,1.0397,-14.52,31.5,22.74
3.5277,-7.4776,-1.1577,0.9447,0.51496,0.95723,-13.98,31.8,22.32
3.8273,-7.8181,-1.362,0.88301,0.54459,0.93126,-12.78,33.18,21.54
4.127,-8.4174,-1.6753,0.78099,0.54,0.92699,-12.3,33.72,21.0
4.1951,-8.8941,-1.5391,0.65149,0.56841,0.9221,-11.16,34.74,20.04
4.413,-9.7385,-1.2531,0.48747,0.8094,0.88789,-10.38,35.22,19.5
4.9306,-10.706,-1.2803,0.39401,1.0699,0.87965,-9.72,35.64,19.2
5.4073,-11.414,-1.5119,0.33842,1.1814,0.88301,-9.24,36.18,18.72
6.8647,-12.449,-1.8932,0.16616,1.2483,0.88331,-8.16,36.9,17.82
7.246,-12.531,-1.975,0.14997,1.1222,0.8262,-7.5,37.44,17.46
7.3822,-12.408,-1.975,0.14844,0.94592,0.66309,-6.9,37.74,17.04
7.4503,-12.64,-2.0294,0.15577,0.71166,0.34086,-6.0,38.28,16.38
8.0088,-13.307,-2.5334,0.10721,0.45754,0.15363,-5.64,38.46,15.9
8.2948,-13.471,-2.6696,0.027489,0.019853,0.03146,-5.28,38.76,15.66
8.7715,-13.866,-2.7241,-0.16402,-0.52229,-0.14019,-5.22,38.76,15.3
7.3005,-12.177,-1.9613,-0.53145,-0.89858,-0.42394,-4.8,39.12,14.64
5.9385,-10.896,-1.3484,-0.74984,-0.88148,-0.81612,-4.74,39.24,14.64
5.0668,-10.597,-1.3757,-0.8265,-0.55711,-1.211,-4.86,39.24,14.46
5.2983,-11.06,-1.3757,-1.0024,-0.062614,-1.6316,-5.1,39.0,14.34
5.5843,-11.141,-1.185,-1.1057,0.017715,-1.7862,-5.34,38.88,14.34
5.6797,-10.924,-0.76274,-1.2132,-0.053145,-1.8378,-5.64,38.76,14.46
5.3119,-9.6023,-0.31327,-1.3018,-0.16493,-1.872,-6.66,37.98,14.76
4.9169,-8.7715,0.24517,-1.3589,-0.2755,-1.9676,-7.2,37.5,15.0
4.5628,-7.8181,0.64016,-1.3543,-0.2813,-2.0125,-8.7,36.42,15.48
4.4811,-7.5457,0.70826,-1.2733,-0.28253,-2.1112,-9.66,35.94,15.9
4.4402,-7.3414,0.72188,-1.226,-0.29993,-2.1286,-10.56,35.4,16.26
4.2768,-7.0962,0.72188,-1.0748,-0.405,-2.1218,-12.48,33.9,17.04
4.1951,-7.0553,0.6674,-0.96364,-0.53359,-2.0647,-13.56,33.18,17.52
4.0861,-7.069,0.70826,-0.88484,-0.66981,-1.9352,-14.82,32.28,17.7
3.8409,-7.0553,0.64016,-0.86407,-0.80879,-1.777,-17.04,30.36,18.36
3.6094,-7.2188,0.62654,-0.82558,-0.90652,-1.595,-18.0,29.52,18.54
3.4459,-7.355,0.55843,-0.81795,-0.92821,-1.3598,-18.96,28.56,18.78
3.3097,-8.2948,0.40861,-0.84238,-0.81092,-0.93249,-20.58,26.82,19.14
3.5277,-9.0031,0.31327,-0.84727,-0.67806,-0.64813,-21.24,25.92,19.32
3.5685,-9.4389,0.21793,-0.83689,-0.5339,-0.44166,-21.96,25.08,19.44
3.0237,-9.0167,0.054481,-0.81184,-0.14355,-0.2529,-22.74,23.58,20.04
2.7786,-8.6762,0.28603,-0.77152,0.021686,-0.19792,-23.04,22.68,20.28
2.5742,-9.3163,0.76274,-0.56841,0.50977,0.10079,-23.34,22.02,20.46
2.6832,-11.155,1.6344,-0.46884,0.74434,0.52962,-23.7,20.64,21.12
3.4187,-9.8611,1.2803,-0.31001,0.85796,0.91935,-23.88,20.1,21.12
3.8954,-7.9679,0.51757,0.079412,0.68722,1.2434,-23.94,19.74,21.36
4.3858,-6.6331,-0.38137,0.85613,0.054367,1.5131,-24.18,19.14,21.78
4.3994,-7.3141,-0.54481,1.0406,-0.16157,1.5275,-24.3,19.02,21.96
4.0861,-8.4174,-0.50395,1.2596,-0.50366,1.5253,-24.3,18.9,22.08
3.2416,-9.9292,0.10896,1.2486,-0.71716,1.4694,-24.3,18.96,22.38
2.9148,-10.161,0.095342,1.0968,-0.59773,1.4294,-24.3,19.08,22.5
2.5742,-9.8748,0.095342,0.90316,-0.27245,1.4065,-24.24,19.38,22.62
2.0839,-8.6762,-0.31327,0.78679,0.49877,1.3799,-24.06,20.4,22.5
2.0567,-7.9815,-0.27241,0.82803,1.0968,1.3836,-23.88,21.06,22.32
2.2882,-7.3277,-0.28603,0.9334,1.5937,1.3928,-23.76,21.6,22.26
2.9284,-6.9736,-0.34051,0.99999,1.7627,1.4062,-23.58,22.26,22.2
4.6037,-7.3414,-0.54481,1.1707,1.7486,1.4939,-23.16,23.7,21.84
5.0804,-7.5593,-0.72188,1.2171,1.3424,1.5437,-22.8,24.48,21.78
5.5162,-8.0632,-0.83084,1.2425,0.76755,1.5879,-22.44,25.32,21.54
5.6661,-9.1937,-1.2122,1.1371,0.0097738,1.6429,-21.42,26.88,20.82
5.38,-9.4798,-1.5663,1.0443,-0.20281,1.638,-20.94,27.72,20.7
5.3937,-9.8066,-1.6753,1.0195,-0.17532,1.5794,-20.4,28.56,20.4
5.4481,-11.427,-2.2474,1.0156,0.064752,1.4914,-19.2,29.94,19.68
5.8159,-11.809,-2.547,0.94928,0.41661,1.3717,-18.54,30.72,19.08
6.4152,-11.959,-2.6287,0.8998,0.65118,1.2407,-18.0,31.32,18.54
8.0632,-12.912,-2.7649,0.8488,0.43891,0.99754,-16.44,32.46,17.28
8.1313,-12.871,-2.547,0.76877,0.2697,0.89706,-15.78,33.12,16.86
8.0224,-12.503,-2.438,0.59315,-0.059559,0.63744,-15.0,33.78,16.08
7.5729,-12.803,-2.6015,0.51068,-0.42699,0.28253,-13.44,34.92,15.12
7.9679,-13.471,-3.051,0.35094,-0.61087,0.12431,-12.84,35.4,14.58
8.0905,-12.912,-2.8603,0.062614,-0.83444,-0.0018326,-12.0,35.94,14.22
6.8374,-11.959,-2.0022,-0.40531,-1.0266,-0.35797,-10.92,37.02,13.56
5.7342,-10.869,-1.2803,-0.697,-0.81337,-0.73976,-10.38,37.26,13.14
5.0259,-9.902,-1.0215,-0.87109,-0.48075,-1.1026,-10.02,37.5,12.9
4.8625,-9.6704,-0.76274,-0.9331,-0.22694,-1.3955,-9.72,37.74,12.78
5.4754,-10.733,-0.38137,-1.0266,-0.15547,-1.5556,-9.6,38.1,12.9
6.0066,-11.182,0.12258,-1.1609,-0.27061,-1.5711,-9.78,38.04,13.14
6.1836,-10.215,0.7355,-1.306,-0.66462,-1.504,-10.38,37.92,13.98
5.6933,-9.1393,0.81722,-1.3164,-0.81367,-1.503,-10.8,37.8,14.22
5.0395,-8.3084,0.89894,-1.2346,-1.0901,-1.6448,-11.34,37.5,15.0
4.4811,-7.8589,0.96704,-1.1484,-1.0944,-1.7819,-12.0,37.2,15.48
4.0316,-7.7772,1.0079,-1.1005,-0.96731,-1.9022,-13.32,36.48,16.86
3.8954,-7.7636,0.92618,-1.0831,-0.77794,-1.9813,-14.22,36.06,17.46
3.9227,-7.7091,0.96704,-1.047,-0.59651,-1.9881,-15.18,35.46,18.12
3.9227,-7.6274,0.8717,-1.0479,-0.59559,-1.938,-17.1,34.26,19.62
3.8954,-7.6683,0.9398,-1.0388,-0.61942,-1.8689,-17.88,33.66,20.28
3.7865,-7.8998,0.64016,-1.0525,-0.61239,-1.763,-18.78,33.0,20.88
3.3778,-8.4991,0.7355,-1.0928,-0.54428,-1.6335,-20.4,31.5,21.84
3.2825,-8.6353,0.61292,-1.1277,-0.44166,-1.4704,-21.12,30.84,22.26
3.1735,-9.221,0.57205,-1.1463,-0.31368,-1.2697,-21.78,30.18,22.62
2.9556,-9.5342,0.47671,-1.1429,-0.019242,-0.94257,-23.04,28.38,23.4
2.8058,-9.7385,0.62654,-1.1109,0.24251,-0.7309,-23.52,27.66,23.64
2.833,-9.6568,0.55843,-1.0449,0.49297,-0.53726,-23.94,26.82,23.88
2.7377,-9.6977,0.8717,-0.91294,0.6692,-0.3207,-24.6,25.26,24.12
2.6015,-10.447,1.3212,-0.76602,0.80084,-0.011301,-24.9,24.48,24.42
2.7922,-10.774,1.58,-0.64049,0.90958,0.39676,-25.14,23.46,24.66
3.2553,-8.9622,0.99429,-0.34697,0.9444,0.95845,-25.44,22.92,24.72
3.3097,-7.7636,0.69464,0.045204,0.80146,1.2669,-25.68,22.32,24.72
3.3915,-7.2324,0.42223,0.49938,0.6014,1.4297,-25.98,21.9,24.78
3.4187,-8.0496,0.027241,0.87018,0.42028,1.5333,-26.1,21.36,24.66
3.5685,-9.0848,0.17706,1.0928,0.22816,1.6383,-26.22,21.24,24.66
3.6911,-10.501,-0.10896,1.182,0.016493,1.7602,-26.52,21.18,24.24
3.7728,-10.256,-0.1362,1.113,-0.24007,1.9361,-26.46,21.42,23.94
3.5685,-9.6023,-0.43585,1.0663,-0.31001,2.0046,-26.46,21.84,23.64
3.3234,-8.8941,-0.61292,1.0534,-0.2364,1.9984,-26.4,22.32,23.34
2.7922,-7.8589,-0.84446,1.0571,0.024129,1.9276,-26.04,23.28,22.8
2.6832,-7.3958,-0.81722,1.0562,0.44318,1.8289,-25.68,23.88,22.44
2.8739,-7.2869,-0.8036,1.0559,0.89522,1.7254,-25.2,24.54,22.2
4.2359,-7.355,-0.99429,1.0999,1.2251,1.5928,-24.18,25.74,21.54
4.699,-7.5048,-1.0488,1.1222,1.1319,1.5314,-23.52,26.4,21.3
5.2438,-7.8998,-1.2258,1.131,1.0189,1.5101,-22.8,27.18,20.76
6.1564,-8.7034,-1.7979,1.0785,0.56383,1.4917,-21.48,28.56,20.1
6.5105,-9.1937,-1.9341,1.0424,0.26512,1.4395,-20.7,29.4,19.68
6.5786,-10.351,-2.3018,1.0177,0.092546,1.361,-19.74,30.0,19.44
6.851,-11.032,-2.6696,0.93982,0.16616,1.1964,-18.12,31.68,18.6
7.2188,-11.673,-2.7786,0.82772,0.26389,1.0611,-17.16,32.16,18.12
7.6002,-12.108,-2.8603,0.76633,0.28466,0.98013,-16.38,32.64,17.64
8.0769,-12.217,-2.8739,0.52046,0.26634,0.73029,-14.82,33.72,16.8
7.9951,-11.741,-2.6696,0.35125,0.23427,0.51313,-14.1,34.14,16.2
7.8589,-11.414,-2.261,0.25351,0.07758,0.14539,-12.72,35.1,15.0
8.7443,-13.157,-2.6423,0.20953,-0.083994,-0.025962,-12.18,35.46,14.4
9.4798,-13.457,-2.833,-0.037874,-0.42394,-0.1573,-11.58,35.82,13.8
9.507,-13.089,-2.7104,-0.31979,-0.91752,-0.36469,-11.04,36.12,13.5
7.0962,-11.319,-1.3076,-0.53451,-1.1988,-0.69425,-10.32,36.78,12.6
6.1564,-10.746,-0.8717,-0.69394,-1.1371,-1.0666,-10.02,36.9,12.3
5.5435,-10.896,-0.72188,-0.83536,-0.89522,-1.3775,-9.72,37.02,12.06
5.6388,-11.945,-0.49033,-0.97097,-0.71166,-1.5601,-9.36,36.84,11.88
5.8704,-12.217,-0.10896,-1.1594,-0.66126,-1.6386,-9.42,36.72,12.06
5.8567,-11.891,0.12258,-1.3295,-0.6692,-1.6955,-9.6,36.42,12.24
5.3256,-10.365,0.61292,-1.4581,-0.68142,-1.8103,-10.14,36.12,12.72
4.5356,-9.0848,0.8036,-1.4563,-0.59865,-1.9829,-10.56,35.82,13.14
3.8954,-8.2131,0.95342,-1.3836,-0.42699,-2.1997,-11.16,35.34,13.62
3.514,-7.5048,0.89894,-1.1979,-0.15119,-2.4725,-12.66,34.32,14.82
3.4323,-7.0417,0.76274,-1.0641,-0.091324,-2.5397,-13.38,33.9,15.48
3.5822,-6.9872,0.70826,-0.99907,-0.12217,-2.5247,-14.34,33.36,15.9
3.7865,-7.7364,0.69464,-0.83017,-0.42119,-2.3592,-16.2,31.98,16.98
3.6503,-8.0769,0.64016,-0.81856,-0.67592,-2.1805,-17.16,31.44,17.52
3.3097,-8.1313,0.74912,-0.84544,-0.77549,-2.0669,-18.18,30.84,17.88
2.7377,-8.1177,0.99429,-0.94287,-0.85827,-1.715,-19.14,30.06,18.42
2.3972,-8.54,0.88532,-0.99938,-0.64294,-1.3033,-21.0,28.74,19.44
2.3836,-8.6625,0.6674,-0.9783,-0.41692,-1.0244,-21.6,28.08,19.74
2.3155,-8.7715,0.64016,-0.94562,-0.28924,-0.87751,-22.26,27.24,20.04
2.3563,-9.0167,0.76274,-0.84208,0.13744,-0.43219,-22.86,26.4,20.46
2.6151,-8.7715,0.85808,-0.73304,0.38943,-0.13897,-23.88,24.9,21.3
2.6968,-8.7579,0.92618,-0.49144,0.52107,0.31948,-24.18,24.18,21.54
2.7104,-10.869,1.3212,-0.38698,0.51832,0.51526,-24.42,23.52,21.9
2.9556,-10.951,1.4029,-0.24709,0.54489,1.0015,-24.9,22.14,22.62
3.2144,-9.6977,1.1169,-0.17898,0.60262,1.4193,-24.9,21.6,22.98
3.3778,-8.7715,0.81722,0.20433,0.51191,1.9377,-24.9,21.24,23.34
3.6366,-7.6002,0.14982,0.54856,0.41417,2.0632,-24.84,20.7,23.76
3.6094,-7.927,0.081722,0.96914,0.28527,2.1163,-24.78,20.64,23.94
3.8682,-9.2755,-0.10896,1.0562,0.22419,2.1108,-24.78,20.58,23.94
4.1542,-10.801,-0.1362,1.1231,0.075136,2.0977,-24.66,20.76,24.18
4.1542,-10.883,-0.31327,0.9893,-0.075747,2.0892,-24.48,21.06,24.12
3.9908,-10.147,-0.34051,0.85032,-0.03146,2.065,-24.24,21.48,24.06
3.3778,-8.6489,-0.50395,0.77855,0.19731,2.0101,-23.82,22.74,23.64
3.1191,-7.7364,-0.61292,0.75961,0.82039,1.8827,-23.46,23.46,23.58
3.5685,-7.3414,-0.85808,0.81123,1.0305,1.8182,-22.5,25.2,23.4
4.304,-7.4367,-1.0351,0.96669,1.3073,1.6548,-21.96,25.98,23.22
4.9306,-7.5184,-1.3484,0.99113,1.2733,1.6066,-21.42,26.76,22.92
6.0066,-7.6683,-1.7434,1.0562,0.79901,1.5379,-19.98,28.26,22.5
6.8647,-8.431,-2.5606,1.1029,0.26695,1.5052,-19.32,28.86,22.2
6.8783,-9.7249,-3.1054,1.0669,-0.20922,1.4022,-17.82,30.42,21.66
6.2245,-10.011,-2.8058,0.85307,-0.38637,1.2523,-16.98,31.14,21.3
5.7478,-10.283,-2.5061,0.76847,-0.088575,1.0803,-16.02,31.92,20.88
5.884,-10.91,-2.6832,0.73793,0.12798,1.0061,-15.18,32.64,20.58
7.2052,-12.136,-3.228,0.50091,0.60903,0.77427,-13.38,33.66,19.98
7.7636,-12.272,-3.1735,0.32223,0.62339,0.61514,-12.6,34.38,19.62
7.9951,-11.618,-2.547,0.1686,0.46914,0.47189,-11.76,34.92,19.14
7.8317,-11.577,-2.2201,0.014355,0.17013,0.22327,-10.44,35.64,18.18
7.9543,-12.381,-2.2065,0.036957,0.0018326,0.059865,-9.78,36.06,17.88
8.2539,-13.239,-2.5061,-0.015577,-0.079412,-0.018631,-9.3,36.36,17.46
8.3765,-12.667,-2.2882,-0.38026,-0.48075,-0.31276,-8.46,36.9,17.04
7.2324,-11.101,-1.3076,-0.56719,-0.71166,-0.64263,-8.16,37.2,16.74
6.2109,-10.569,-0.70826,-0.6524,-0.71441,-1.003,-7.8,37.44,16.56
5.4754,-10.569,-0.54481,-0.74739,-0.53573,-1.4694,-7.44,37.56,16.56
5.6252,-10.924,-0.40861,-0.78435,-0.51526,-1.5605,-7.44,37.56,16.62
5.7205,-11.305,-0.28603,-0.84788,-0.57024,-1.6713,-7.44,37.44,16.74
5.7205,-11.387,0.12258,-1.0672,-0.75839,-1.7162,-7.98,37.2,17.1
5.3664,-10.515,0.57205,-1.1756,-0.84055,-1.7691,-8.34,36.78,17.46
4.8761,-9.507,0.77636,-1.1735,-0.84269,-1.8702,-8.82,36.48,17.88
3.8682,-7.927,0.91256,-1.0531,-0.66523,-2.0861,-9.72,35.52,18.96
3.732,-7.641,0.8036,-0.9389,-0.53145,-2.2342,-10.5,35.04,19.32
3.7592,-7.6002,0.76274,-0.82375,-0.46945,-2.313,-11.94,34.08,20.04
3.7184,-7.8453,0.74912,-0.74251,-0.48747,-2.3173,-13.08,32.88,21.0
3.5549,-8.036,0.77636,-0.68845,-0.54703,-2.2303,-14.82,31.68,21.66
3.3778,-7.8317,0.77636,-0.6805,-0.62247,-2.1102,-16.5,30.3,22.08
3.2553,-7.5865,0.8036,-0.66798,-0.7138,-1.9496,-18.06,29.1,22.38
2.9148,-7.9679,0.6674,-0.64904,-0.7813,-1.762,-19.26,27.96,22.86
2.8058,-8.1858,0.5993,-0.6353,-0.73365,-1.423,-19.86,27.36,22.92
2.6423,-8.6217,0.51757,-0.66004,-0.6185,-1.1396,-20.94,26.52,22.8
2.547,-9.3708,0.54481,-0.68081,-0.43738,-0.83291,-21.3,25.56,23.1
2.547,-9.7658,0.8036,-0.70952,-0.21961,-0.5171,-21.96,24.6,23.64
2.7377,-9.0575,0.92618,-0.7028,0.018937,-0.22388,-22.44,24.0,24.06
2.7513,-8.717,0.89894,-0.47922,0.2138,0.15455,-22.44,23.58,24.36
2.8467,-8.9213,0.83084,-0.25443,0.25901,0.43127,-22.56,23.28,24.6
2.7649,-10.637,1.0624,-0.11057,0.34728,0.75625,-22.56,22.74,25.26
2.9556,-9.9292,1.1713,-0.055894,0.46517,1.0843,-22.56,22.68,25.44
2.9692,-8.7579,0.95342,0.10324,0.5287,1.3393,-22.62,22.44,25.5
2.8603,-8.0905,0.53119,0.35766,0.57941,1.503,-22.74,22.26,25.5
2.9556,-8.431,0.40861,0.74556,0.71716,1.5715,-22.68,22.14,25.5
3.1191,-9.0031,0.35413,0.8601,0.74312,1.6014,-22.5,22.2,25.56
3.5685,-10.188,0.081722,1.0876,0.64843,1.7761,-22.5,22.32,25.38
3.9499,-10.678,-0.20431,1.1649,0.42791,1.9371,-22.56,22.5,25.26
4.0589,-9.5479,-0.62654,1.1903,0.16921,2.0507,-22.38,23.16,24.9
3.9363,-9.0575,-0.7355,1.1915,0.022297,2.0922,-22.26,23.64,24.72
3.5277,-8.0905,-0.8036,1.1774,0.033903,2.0705,-22.14,24.12,24.42
3.0782,-7.464,-0.83084,1.1561,0.32406,1.952,-21.42,25.32,24.0
3.1735,-7.355,-1.0215,1.157,0.61361,1.8534,-21.06,26.16,23.58
3.7184,-7.6546,-1.076,1.1866,0.81215,1.7016,-20.46,26.76,23.22
4.7671,-8.2131,-1.7706,1.1753,0.86101,1.5547,-19.32,28.26,22.44
5.1485,-8.5127,-1.866,1.1655,0.82039,1.46,-18.48,29.04,22.26
5.6252,-9.0303,-2.0839,1.1136,0.57635,1.3683,-17.76,29.88,21.9
6.1836,-10.011,-2.3018,1.0504,0.46976,1.3402,-16.38,31.68,21.18
6.1292,-10.351,-2.2882,0.92118,0.28253,1.2572,-15.54,32.46,20.76
6.0747,-10.597,-2.438,0.77244,0.26023,1.0183,-14.7,33.18,20.28
7.2188,-11.822,-2.8467,0.67134,0.39554,0.88148,-12.9,34.62,19.2
7.9407,-12.381,-3.0918,0.50091,0.41692,0.78527,-12.12,35.22,18.66
8.6081,-12.286,-2.656,0.1912,0.22449,0.57879,-10.38,36.3,17.7
8.3765,-11.877,-2.3836,0.079107,0.14386,0.47464,-9.78,36.66,17.16
8.1995,-12.231,-2.1929,-0.0085521,0.014966,0.23457,-9.18,36.9,16.56
8.6353,-13.076,-2.4108,-0.11515,-0.20464,-0.082772,-8.58,37.38,16.02
9.3436,-13.157,-2.4517,-0.35308,-0.50977,-0.31429,-7.68,37.98,15.66
8.1586,-11.795,-1.6344,-0.61758,-0.86437,-0.64019,-7.44,38.28,15.18
5.9249,-10.76,-0.81722,-0.78252,-0.91905,-1.0266,-6.9,38.46,14.58
5.3937,-10.883,-0.70826,-0.94684,-0.48411,-1.5519,-6.9,38.52,14.52
5.5707,-11.332,-0.54481,-1.0583,-0.28497,-1.7376,-6.9,38.64,14.58
5.8023,-11.863,-0.51757,-1.1949,-0.29413,-1.8042,-6.96,38.64,14.82
6.1564,-12.258,0.35413,-1.3943,-0.42791,-1.7966,-7.5,38.34,15.36
5.8431,-11.577,0.8036,-1.533,-0.53817,-1.7962,-7.74,38.1,15.66
5.2847,-10.665,0.99429,-1.562,-0.5171,-1.8818,-8.34,37.98,16.02
4.2087,-8.8396,1.0624,-1.5107,-0.39554,-2.051,-9.78,37.2,16.8
3.7592,-8.0496,0.99429,-1.2908,-0.14355,-2.3705,-10.56,36.84,17.46
3.4868,-7.641,1.0079,-1.0956,-0.05284,-2.54,-11.58,36.3,17.94
3.4732,-7.4367,1.0079,-0.90713,-0.093157,-2.6026,-13.62,35.04,18.66
3.5549,-7.6002,0.83084,-0.74098,-0.26848,-2.5479,-14.58,34.5,19.08
3.5685,-7.7636,0.64016,-0.63072,-0.53298,-2.3976,-15.72,33.78,19.56
3.2144,-7.5048,0.68102,-0.60812,-0.96059,-2.105,-17.76,32.28,20.34
2.7513,-7.3958,0.70826,-0.62094,-1.0895,-1.8647,-18.78,31.44,20.76
2.4517,-7.4231,0.8036,-0.65515,-1.0412,-1.5947,-19.8,30.48,20.88
2.0294,-7.8589,0.47671,-0.67165,-0.85002,-1.2807,-21.54,28.92,21.54
2.0431,-8.2539,0.24517,-0.67348,-0.61758,-0.94409,-22.32,28.2,21.9
1.9886,-8.7851,0.28603,-0.70127,-0.22205,-0.42211,-23.4,26.52,22.44
2.2065,-9.0303,0.38137,-0.74067,0.075747,-0.090713,-23.94,25.86,22.86
2.3427,-8.6762,0.28603,-0.71257,0.31796,0.2022,-24.3,25.14,23.22
2.4517,-8.8396,0.49033,-0.61636,0.48258,0.53481,-24.54,24.54,23.46
2.6696,-10.61,0.98067,-0.51038,0.62705,0.94898,-24.84,23.46,24.12
3.0237,-11.06,1.0624,-0.44318,0.79168,1.3647,-25.08,22.92,24.48
3.5004,-9.9565,0.8036,-0.29383,0.86987,1.6536,-25.14,22.56,24.78
3.732,-7.6819,0.20431,0.19761,0.74128,1.9041,-25.26,22.08,25.26
3.8818,-7.6002,0.20431,0.56413,0.60659,1.949,-25.26,22.02,25.5
3.9771,-8.0905,-0.12258,0.73151,0.51191,1.9551,-25.32,22.2,25.68
4.2904,-9.2346,-0.081722,0.94959,0.29047,1.967,-25.38,22.2,25.74
4.3721,-10.583,-0.19068,1.0128,-0.031765,1.9548,-25.44,22.38,25.74
4.0861,-10.828,-0.28603,0.894,-0.11606,1.9679,-25.2,22.92,25.38
3.6503,-9.9565,-0.44947,0.77,0.10751,1.9203,-24.96,23.46,25.26
3.0646,-8.2267,-0.62654,0.75381,0.28375,1.8909,-24.48,24.78,24.84
3.0373,-7.6546,-0.76274,0.77733,0.93035,1.7504,-24.3,25.38,24.72
3.2825,-7.2324,-0.98067,0.86101,1.2065,1.6725,-23.94,26.04,24.6
4.4811,-7.1507,-1.1441,0.95356,1.2416,1.6429,-23.1,27.66,24.0
4.8488,-7.5457,-1.3757,1.011,1.077,1.6503,-22.5,28.44,23.7
5.6388,-8.0224,-2.1248,1.0061,0.60873,1.6658,-22.08,29.22,23.34
6.1019,-8.6762,-2.5061,0.967,0.34453,1.6564,-20.64,30.9,22.44
5.9112,-9.0303,-2.547,0.89034,0.23427,1.6341,-19.92,31.62,22.08
5.8704,-9.3299,-2.4517,0.84544,0.22449,1.5928,-19.02,32.46,21.72
6.0202,-9.8203,-2.3836,0.74587,0.33872,1.4917,-18.06,33.24,21.24
7.0009,-11.564,-2.6832,0.57238,0.46181,1.4132,-16.5,34.62,20.58
7.6002,-12.013,-2.7649,0.29352,0.47953,1.2492,-15.72,35.22,20.1
8.3357,-12.476,-2.5061,0.1631,0.39218,1.0873,-13.98,36.36,19.08
8.322,-12.272,-2.3155,0.016493,0.30604,0.85155,-13.14,37.02,18.66
8.0905,-11.959,-2.0839,-0.058032,0.24435,0.54398,-12.3,37.56,18.18
8.1177,-12.572,-1.8251,0.026878,0.13806,0.2697,-10.68,38.4,17.58
8.6353,-13.225,-2.152,-0.037568,-0.050702,-0.0064141,-10.14,38.76,17.28
9.0848,-11.754,-1.7298,-0.33872,-0.59926,-0.4441,-9.0,39.42,16.74
7.1371,-10.61,-1.1577,-0.42608,-0.88148,-0.81062,-8.64,39.6,16.8
6.0066,-10.011,-0.6674,-0.45357,-0.8882,-1.1826,-8.22,39.84,16.86
5.5707,-9.9973,-0.62654,-0.46304,-0.83322,-1.3485,-7.98,39.84,16.8
5.6388,-11.046,-0.47671,-0.53237,-0.80207,-1.649,-7.74,39.96,17.04
5.9521,-12.054,-0.38137,-0.63774,-0.94104,-1.7141,-7.92,39.78,17.16
6.0474,-11.972,0.10896,-0.86437,-1.0965,-1.7,-8.16,39.72,17.46
5.1485,-10.569,0.42223,-1.0681,-1.1805,-1.73,-8.82,39.3,18.12
4.522,-9.6023,0.54481,-1.0907,-1.0812,-1.846,-9.12,38.94,18.48
4.1542,-9.0303,0.70826,-1.0562,-0.87506,-2.0531,-9.6,38.64,18.84
3.5277,-8.0632,0.61292,-0.96364,-0.63835,-2.2358,-10.68,37.8,19.62
3.514,-7.8726,0.54481,-0.87079,-0.47281,-2.3928,-11.4,37.32,20.04
3.5277,-7.9543,0.53119,-0.79412,-0.4554,-2.4651,-12.0,36.78,20.4
3.4187,-8.3629,0.7355,-0.74159,-0.53909,-2.4596,-13.56,35.58,21.12
3.228,-8.4446,0.69464,-0.73457,-0.66126,-2.375,-14.4,34.92,21.3
2.9965,-8.2403,0.65378,-0.76205,-0.74587,-2.2538,-15.18,34.26,21.6
2.5879,-7.8589,0.62654,-0.74006,-0.72846,-2.0201,-15.9,33.6,21.78
2.0567,-8.2267,0.5993,-0.71349,-0.58796,-1.7923,-17.34,32.16,22.44
1.9886,-8.7715,0.57205,-0.7025,-0.39951,-1.379,-17.88,31.38,22.8
1.9886,-9.5479,0.76274,-0.7254,-0.2025,-1.2196,-18.96,29.82,23.58
1.9886,-9.616,1.0896,-0.79138,0.087965,-0.65851,-19.56,28.98,23.82
2.0294,-9.4661,1.2395,-0.80023,0.17623,-0.45998,-20.16,28.26,24.12
2.261,-8.8805,1.2258,-0.66829,0.36072,0.098655,-21.18,26.76,24.3
2.3155,-9.9973,1.2939,-0.45845,0.43494,0.52137,-21.6,25.98,24.3
2.4925,-11.06,1.3484,-0.30604,0.54489,0.93035,-22.02,25.2,24.6
2.9965,-9.4117,1.0215,-0.035125,0.64996,1.4358,-22.44,23.94,25.14
3.2144,-8.145,0.70826,0.24007,0.58674,1.6499,-22.56,23.46,25.44
3.2825,-7.4503,0.42223,0.39737,0.53665,1.6939,-22.68,23.1,25.5
3.4459,-7.9951,0.10896,0.82986,0.37507,1.7593,-23.16,22.74,25.74
3.514,-9.0167,0.027241,1.0205,0.22358,1.7776,-23.22,22.62,25.62
3.6911,-10.515,-0.040861,1.0989,0.091935,1.8014,-23.46,22.68,25.62
3.8001,-11.087,-0.38137,1.076,0.011301,1.8381,-23.58,23.04,25.2
3.5822,-10.215,-0.54481,1.0165,0.0067195,1.8781,-23.46,23.52,24.96
3.4187,-9.6977,-0.64016,1.0024,0.10782,1.8912,-23.16,23.94,24.9
3.1327,-8.0905,-0.7355,1.0122,0.47464,1.8448,-22.8,24.96,24.66
3.3097,-7.5593,-0.89894,1.0482,0.74128,1.7996,-22.44,25.68,24.6
3.7592,-7.2733,-1.0624,1.1185,0.85277,1.7492,-22.02,26.52,24.24
4.8761,-7.4095,-1.6481,1.2034,0.73334,1.7123,-21.24,28.2,23.76
5.2302,-7.6683,-1.6753,1.2764,0.2361,1.6826,-20.7,29.1,23.52
5.4345,-8.0632,-1.866,1.2926,0.051924,1.6759,-20.16,30.0,23.34
5.5707,-8.4719,-1.9613,1.2355,-0.37996,1.6527,-19.26,30.9,23.04
5.598,-8.7987,-2.0839,1.1701,-0.45693,1.5886,-18.24,31.74,22.62
5.5707,-10.052,-2.3563,1.0892,-0.3207,1.4655,-16.56,33.36,21.84
5.884,-11.032,-2.7104,0.95967,-0.0045815,1.3167,-15.48,34.26,21.54
6.8374,-12.0,-2.9965,0.81673,0.33567,1.1777,-13.5,35.7,20.76
7.6138,-12.544,-3.1054,0.65027,0.54,1.0354,-12.66,36.48,20.28
8.2812,-13.103,-3.0101,0.37446,0.43799,0.77672,-11.7,37.26,19.74
8.4446,-13.144,-2.6015,0.11454,0.22694,0.52076,-9.78,38.58,18.78
8.322,-13.375,-2.3018,0.0094684,0.020159,0.26237,-8.94,39.18,18.36
9.1529,-14.601,-2.9284,-0.24435,-0.343,-0.11606,-7.56,40.32,17.28
9.1937,-14.124,-2.833,-0.53848,-0.69608,-0.46304,-7.08,40.5,16.86
8.322,-12.544,-2.1384,-0.67134,-0.85185,-0.67287,-6.54,40.8,16.62
5.5026,-10.311,-0.68102,-0.82436,-0.84177,-1.3708,-6.12,41.28,16.68
5.0259,-10.379,-0.64016,-0.87445,-0.51862,-1.7556,-5.94,41.34,16.74
5.1349,-11.101,-0.70826,-0.93859,-0.30299,-1.9975,-5.94,41.4,16.86
5.6252,-11.836,-0.40861,-1.0611,-0.29108,-2.0898,-6.66,41.16,17.28
5.6116,-11.509,0.10896,-1.2572,-0.48045,-2.0443,-7.26,40.8,17.64
5.4754,-10.896,0.40861,-1.3192,-0.55955,-2.0107,-8.04,40.26,18.0
4.5356,-8.9349,0.8717,-1.4019,-0.74037,-1.982,-9.66,39.12,19.2
4.0044,-8.0496,1.0079,-1.3741,-0.72846,-2.0595,-10.68,38.46,19.92
3.7184,-7.3822,1.0896,-1.2868,-0.65271,-2.109,-11.7,37.74,20.76
4.0589,-7.6955,0.89894,-1.1469,-0.59804,-2.153,-13.68,35.82,22.14
4.127,-7.9134,0.77636,-1.0159,-0.69119,-2.1692,-14.64,34.98,22.68
4.0861,-8.2131,0.76274,-0.9783,-0.79626,-2.1249,-15.66,33.9,23.22
3.7184,-8.2267,1.0215,-1.0003,-0.8604,-2.0449,-17.7,31.5,24.24
3.3506,-8.0224,0.92618,-1.0269,-0.86224,-1.9267,-18.54,30.3,24.72
2.942,-8.0088,0.88532,-1.0137,-0.77855,-1.7871,-19.2,29.04,25.2
2.6696,-8.4855,0.7355,-0.9838,-0.63286,-1.6212,-20.28,26.58,25.86
2.5742,-8.7715,0.76274,-0.95234,-0.32406,-1.2727,-20.58,25.32,26.34
2.6832,-9.3436,0.62654,-0.94898,-0.2193,-1.1396,-20.7,24.3,26.7
2.547,-9.6841,1.1169,-0.9444,-0.012523,-0.85613,-20.82,23.22,26.94
2.6423,-9.2074,1.2531,-0.85552,0.26237,-0.41783,-21.0,20.88,27.3
2.7649,-9.0167,1.0351,-0.65821,0.33475,-0.11362,-20.94,19.92,27.48
2.7649,-9.5615,1.1032,-0.41478,0.35858,0.23946,-20.64,18.12,28.02
2.9011,-10.665,1.2395,-0.14783,0.47067,0.75778,-20.52,17.28,28.26
2.9284,-9.6841,1.185,-0.03543,0.49847,0.91049,-20.34,16.62,28.5
2.8739,-7.6274,0.9398,0.26176,0.47892,1.1558,-20.22,15.9,28.62
2.8467,-7.2052,0.24517,0.80207,0.4383,1.3137,-19.98,15.0,28.92
2.9556,-8.2812,0.095342,1.0821,0.42974,1.4129,-19.86,14.76,28.92
3.2144,-9.507,-0.027241,1.2223,0.36499,1.5266,-19.8,14.7,28.92
3.5822,-10.787,-0.38137,1.2178,0.22724,1.7962,-19.68,14.82,28.74
3.4868,-10.311,-0.50395,1.1322,0.17593,1.9383,-19.56,15.0,28.74
3.3097,-9.3163,-0.70826,1.0873,0.1912,1.9838,-19.5,15.24,28.74
2.9148,-7.6955,-0.85808,1.0486,0.40867,2.0275,-19.14,16.5,28.26
2.7104,-7.3141,-0.88532,1.0757,0.68753,1.9984,-19.02,16.98,27.9
2.8603,-7.246,-0.89894,1.1267,0.95295,1.9789,-18.84,17.7,27.54
4.0316,-7.7772,-1.2258,1.1683,1.0785,1.9655,-18.36,19.14,27.24
4.6582,-7.927,-1.4574,1.1609,0.894,1.9786,-18.06,19.92,27.0
5.1894,-8.0769,-1.7434,1.1836,0.58582,2.0165,-17.64,20.82,26.58
5.8976,-8.9349,-2.1384,1.2156,0.27489,2.0305,-16.74,22.62,25.92
6.1836,-9.7658,-2.3018,1.2129,0.037568,2.0275,-16.2,23.46,25.68
6.456,-10.842,-2.4925,1.1875,-0.085521,1.9682,-15.6,24.18,25.44
7.0962,-12.476,-2.9011,1.0046,-0.036957,1.8311,-14.1,25.56,24.84
7.5865,-12.694,-3.228,0.83719,0.080329,1.7089,-13.38,26.4,24.42
8.0632,-12.694,-3.4868,0.7645,0.09896,1.6179,-12.42,27.18,23.94
8.3765,-12.844,-3.5413,0.5733,0.011912,1.2737,-11.58,27.78,23.58
8.4174,-12.817,-3.1599,0.38729,-0.10354,0.94165,-9.48,28.92,22.98
8.4719,-13.484,-2.8603,0.28344,-0.22297,0.59773,-8.4,29.4,22.56
8.9349,-14.506,-3.2961,0.10354,-0.34178,0.3036,-7.32,29.88,22.14
8.7034,-13.484,-2.833,-0.53848,-0.58429,-0.23366,-5.4,30.66,21.3
7.3686,-11.713,-1.9886,-0.78893,-0.64721,-0.7367,-4.38,31.02,21.18
5.9657,-10.351,-1.185,-0.87048,-0.4383,-1.2104,-3.48,31.38,20.88
5.1485,-10.065,-0.72188,-0.86285,-0.135,-1.5977,-1.92,31.68,20.52
5.5162,-10.61,-0.8036,-0.88453,-0.054367,-1.8228,-1.26,31.8,20.28
6.1292,-11.25,-0.54481,-0.97616,-0.2306,-1.9184,-0.84,31.98,20.22
6.4969,-11.536,0.23155,-1.1671,-0.73884,-1.8699,-0.3,32.16,20.22
5.8704,-10.597,0.47671,-1.2117,-0.91172,-1.8555,-0.24,32.04,20.28
5.4481,-9.9837,0.70826,-1.273,-1.2147,-1.9196,-0.36,31.92,20.4
4.5628,-8.826,0.9398,-1.2407,-1.2016,-2.0436,-0.66,31.86,20.58
3.7865,-8.1995,0.96704,-1.1863,-1.0678,-2.1719,-1.56,31.8,21.0
3.5413,-8.0905,0.8717,-1.1325,-0.88911,-2.3042,-2.34,31.74,21.24
3.3778,-8.0088,0.83084,-1.0559,-0.71135,-2.3555,-3.78,31.5,21.84
3.4187,-8.1177,0.83084,-1.0348,-0.68906,-2.3405,-4.62,31.32,21.96
3.3506,-8.145,0.77636,-0.99479,-0.68264,-2.2568,-5.4,31.26,22.26
3.2689,-8.0224,0.91256,-0.98471,-0.73976,-2.1451,-6.36,31.08,22.5
2.9965,-7.8998,1.0079,-0.94898,-0.79626,-1.8604,-7.44,30.9,22.8
2.547,-8.5808,1.0351,-0.91569,-0.76877,-1.6179,-9.42,30.42,23.52
2.438,-8.8805,0.99429,-0.86376,-0.63286,-1.2077,-10.32,29.88,23.88
2.4108,-9.616,1.1169,-0.83108,-0.55894,-1.0531,-12.0,29.4,24.66
2.3155,-10.025,1.0896,-0.76114,-0.2642,-0.59529,-12.72,29.1,25.08
2.4108,-9.7113,1.185,-0.6915,-0.047647,-0.33414,-13.56,28.56,25.56
2.3836,-9.4389,1.0896,-0.54581,0.10721,-0.071777,-14.04,28.2,25.92
2.4517,-10.91,1.362,-0.35522,0.22663,0.21472,-15.06,27.36,26.82
2.6287,-11.387,1.4029,-0.16952,0.40103,0.6915,-15.6,27.0,27.18
3.0237,-9.3436,1.0624,-0.083383,0.43219,0.81825,-16.62,26.28,28.08
2.8739,-7.9543,0.8036,0.29932,0.38576,1.0259,-16.92,25.92,28.62
2.6696,-7.4776,0.54481,0.45723,0.37538,1.0504,-17.22,25.68,28.98
2.6968,-7.8317,0.29965,0.87537,0.44135,1.0708,-17.28,25.5,29.34
2.8603,-9.0848,0.25879,1.0391,0.49144,1.1362,-17.46,25.56,29.64
3.1054,-10.215,-0.040861,1.1011,0.4835,1.376,-17.46,25.74,29.7
3.4051,-10.093,-0.25879,1.0837,0.46609,1.4694,-17.7,26.16,29.64
3.2825,-9.0984,-0.46309,1.0321,0.43463,1.7281,-17.76,26.4,29.34
3.0918,-8.2539,-0.64016,1.0269,0.45265,1.774,-17.7,26.88,29.22
2.9965,-7.8453,-0.70826,1.0498,0.65332,1.8213,-17.7,27.3,29.04
2.9965,-7.246,-0.92618,1.0944,0.82833,1.8115,-17.4,28.5,28.32
3.3506,-7.4776,-0.9398,1.1875,0.98013,1.7795,-17.16,29.16,28.02
4.413,-8.1858,-1.3757,1.2007,0.94776,1.7639,-16.26,30.36,27.3
4.8352,-8.322,-1.6344,1.2211,0.62827,1.7944,-16.02,31.08,26.76
5.0531,-8.6081,-1.6889,1.2175,0.49236,1.825,-15.48,31.92,26.4
5.3937,-9.3572,-1.9205,1.1368,0.11057,1.8937,-15.0,32.76,25.98
5.6524,-9.9837,-1.9477,1.0345,-0.012523,1.8668,-13.74,34.08,25.08
6.1019,-10.937,-1.9886,0.98074,0.056505,1.7055,-13.02,34.8,24.6
6.9328,-11.904,-2.4108,0.90988,0.10812,1.609,-11.22,36.24,23.58
7.3141,-12.0,-2.5742,0.72326,0.20403,1.2911,-10.14,36.96,23.28
7.6002,-12.122,-2.7377,0.70188,0.20311,1.1652,-9.18,37.68,22.74
7.7636,-12.354,-2.8603,0.55039,0.16035,0.7703,-8.28,38.28,22.08
7.4503,-12.231,-2.8194,0.39676,0.18021,0.50946,-6.3,39.24,21.18
7.5184,-12.544,-2.8875,0.31857,0.19761,0.28955,-5.34,39.84,20.52
8.6353,-13.988,-3.337,0.19639,0.11362,0.15455,-4.62,40.32,19.98
8.9486,-13.579,-3.1599,-0.062919,-0.135,0.037263,-2.94,41.28,19.08
7.9679,-12.326,-2.6968,-0.61667,-0.60506,-0.3824,-2.34,41.52,18.6
6.5105,-10.815,-1.8115,-0.82009,-0.58185,-0.82009,-1.74,41.88,18.3
4.9578,-9.5206,-1.3076,-0.82803,-0.30177,-1.2361,-1.02,42.3,18.0
5.2847,-10.147,-1.2803,-0.83139,-0.047037,-1.5595,-0.9,42.36,18.0
6.1155,-11.577,-1.1577,-0.97097,-0.10599,-1.7975,-0.96,42.42,18.18
6.565,-11.795,-0.64016,-1.0327,-0.23793,-1.8069,-1.26,42.42,18.36
6.456,-11.237,-0.054481,-1.2187,-0.57727,-1.7865,-1.56,42.3,18.54
5.993,-10.474,0.21793,-1.3757,-0.99113,-1.8115,-1.92,42.12,18.9
4.7399,-8.7306,0.40861,-1.3909,-1.0321,-1.9429,-3.18,41.76,19.8
4.1542,-8.2812,0.47671,-1.3479,-0.94043,-2.1176,-3.96,41.34,20.58
3.8954,-8.0224,0.44947,-1.2871,-0.73884,-2.2755,-5.52,40.68,21.84
3.9635,-8.145,0.44947,-1.2587,-0.62675,-2.3457,-5.52,40.68,21.84
3.9635,-8.1995,0.54481,-1.1756,-0.38362,-2.437,-7.62,39.54,23.1
3.8682,-8.1858,0.54481,-1.16,-0.38882,-2.4013,-8.76,38.94,23.52
3.6775,-8.1858,0.69464,-1.1548,-0.42638,-2.3072,-9.72,38.52,23.88
