Ax,Ay,Az,Gx,Gy,Gz,Mx,My,Mz
4.0044,-10.569,-0.8036,-0.0085521,-1.127,-0.66584,-13.92,36.72,19.44
3.7456,-10.174,-0.69464,-0.11423,-0.97128,-0.75381,-14.04,36.66,19.56
3.3506,-9.0439,-0.46309,-0.23549,-0.60537,-0.9499,-14.1,36.6,19.56
3.2689,-8.6081,-0.32689,-0.27917,-0.38943,-1.0916,-14.28,36.54,19.62
3.337,-8.2539,-0.35413,-0.29902,-0.32101,-1.1655,-14.34,36.48,19.56
3.4187,-8.2267,-0.31327,-0.32681,-0.22694,-1.3299,-14.58,36.3,19.92
3.1872,-8.4174,-0.054481,-0.33689,-0.20556,-1.4044,-15.3,35.88,20.28
3.0918,-8.3765,0.16344,-0.34606,-0.16341,-1.4575,-15.66,35.7,20.4
2.9148,-8.3901,0.24517,-0.33323,-0.12431,-1.4563,-16.2,35.34,20.64
2.833,-8.3493,0.21793,-0.29993,-0.072998,-1.4212,-17.28,34.86,20.7
2.8739,-8.1722,0.25879,-0.28314,-0.094379,-1.3696,-17.76,34.5,20.88
2.7104,-7.8998,0.24517,-0.2532,-0.089492,-1.2795,-18.48,34.14,20.82
2.5061,-7.6683,0.19068,-0.26206,0.01405,-1.1701,-19.26,33.84,21.0
2.3699,-7.4503,0.14982,-0.29993,0.1573,-1.0055,-20.88,33.12,20.94
2.4244,-7.6138,0.19068,-0.34117,0.30268,-0.75778,-21.78,32.52,20.94
2.5742,-8.2539,0.040861,-0.3711,0.40103,-0.28802,-23.34,31.56,20.7
2.8058,-8.8396,0.17706,-0.35491,0.41142,0.1014,-24.24,31.2,20.58
2.8058,-9.2482,0.1362,-0.28497,0.39401,0.51985,-24.9,30.84,20.28
3.2144,-10.134,-0.29965,-0.1628,0.32284,0.91263,-26.28,30.36,19.92
3.4459,-11.509,-0.49033,-0.027184,0.16493,1.3689,-26.88,29.94,19.8
3.9227,-12.313,-0.83084,0.17685,-0.025351,2.0406,-27.66,29.58,19.68
4.0861,-11.768,-1.0624,0.34453,-0.23671,2.357,-27.84,29.52,19.68
4.4811,-11.346,-1.5527,0.46762,-0.57391,2.5372,-28.08,29.46,19.68
4.7399,-10.542,-1.9205,0.54581,-0.94195,2.4166,-28.14,29.52,19.74
5.1894,-8.717,-2.9011,0.56505,-1.3057,2.1289,-27.42,29.94,20.04
5.0123,-8.431,-2.9284,0.48778,-1.4771,1.7862,-26.82,30.36,20.28
4.7399,-8.9349,-2.7922,0.33811,-1.3439,1.1915,-25.32,31.14,20.82
3.7184,-9.6977,-2.5742,0.059865,-0.37232,0.80848,-24.36,31.5,21.24
3.6775,-10.188,-2.4925,-0.12645,0.54581,0.50702,-23.28,31.92,21.78
3.8273,-10.365,-2.2474,-0.18265,0.95997,0.35949,-22.26,32.22,22.08
4.2632,-10.379,-1.8115,-0.27917,1.7065,-0.015577,-21.18,32.58,22.38
4.8488,-9.6568,-1.4301,-0.2364,1.7849,-0.19609,-19.2,33.36,22.8
4.808,-8.3493,-1.2803,-0.16188,1.317,-0.36805,-18.3,33.6,22.86
4.7535,-6.8374,-1.1305,-0.057116,1.0724,-0.39431,-16.8,34.08,23.16
4.4947,-6.2245,-1.076,0.091324,0.28711,-0.4215,-16.14,34.38,23.28
4.1542,-5.9657,-1.0624,0.13531,0.078191,-0.416,-15.54,34.56,23.4
3.6094,-5.9249,-1.1032,0.219,-0.22724,-0.30207,-15.0,34.62,23.28
3.4051,-6.1292,-1.185,0.2532,-0.23213,-0.19151,-15.0,34.68,23.04
3.4051,-6.3198,-1.185,0.25626,-0.20617,-0.1124,-14.88,34.68,22.86
3.5822,-6.674,-1.2395,0.28405,-0.13806,0.20556,-15.06,34.86,22.74
4.0044,-7.2869,-1.471,0.30879,-0.12584,0.27794,-15.54,34.86,22.2
4.3994,-7.3958,-1.6208,0.35125,-0.19578,0.40073,-15.78,34.98,22.02
4.3449,-7.3141,-1.7298,0.3992,-0.29902,0.40561,-15.96,34.92,21.78
4.3721,-7.4503,-1.9886,0.45479,-0.45021,0.34117,-16.2,35.1,21.42
4.3721,-7.8453,-2.1793,0.48075,-0.65973,0.29413,-16.14,35.22,21.36
3.9908,-8.7987,-2.9011,0.405,-0.83627,0.24526,-15.96,35.4,21.18
4.0044,-9.7794,-2.9965,0.27703,-0.46212,0.19731,-15.72,35.46,21.12
4.4402,-10.515,-2.6287,0.1182,-0.10324,0.072998,-15.54,35.52,21.06
4.6718,-10.896,-2.2882,-0.020769,-0.0094684,0.036346,-15.36,35.7,21.06
4.6037,-11.7,-1.7025,-0.13439,0.063835,-0.031765,-15.3,35.82,21.06
4.2495,-13.797,-1.5936,-0.16035,0.2474,-0.078496,-15.0,36.06,21.06
4.413,-14.233,-1.4574,-0.2419,0.81734,-0.11209,-14.7,36.18,20.82
4.9714,-12.354,-1.8387,-0.23121,0.87293,-0.19975,-14.28,36.24,20.76
5.1485,-11.795,-1.9341,-0.23732,0.8094,-0.17868,-14.28,36.24,20.82
4.8352,-10.515,-1.58,-0.32101,0.6973,-0.28466,-14.22,36.3,20.94
4.6718,-9.6704,-1.3076,-0.32895,0.62156,-0.36652,-14.16,36.24,21.0
4.9033,-9.0303,-1.2531,-0.29932,0.41233,-0.36805,-14.4,35.94,21.0
4.985,-9.1937,-1.0624,-0.2306,0.046731,-0.44868,-14.52,35.76,21.06
5.0123,-9.4389,-0.99429,-0.12248,-0.38882,-0.46242,-15.06,35.58,21.06
4.9987,-9.7794,-0.89894,-0.030849,-0.8488,-0.45876,-15.24,35.4,21.0
4.808,-9.8884,-0.68102,0.0067195,-1.2318,-0.45479,-15.48,35.22,20.94
4.2495,-10.379,-0.49033,-0.034819,-1.3726,-0.45082,-15.54,35.16,20.94
3.6503,-9.7658,-0.34051,-0.10018,-1.1979,-0.53695,-15.72,34.8,21.12
3.4732,-9.1529,-0.27241,-0.19303,-0.81703,-0.6915,-15.84,34.44,21.3
3.4459,-8.2948,-0.12258,-0.20189,-0.70983,-0.74709,-16.14,33.78,21.66
3.4323,-8.036,-0.054481,-0.21991,-0.56719,-0.86896,-16.2,33.42,21.84
3.514,-7.8589,0.027241,-0.2193,-0.53084,-1.0088,-16.32,33.06,22.02
3.2689,-8.0632,0.095342,-0.21686,-0.53756,-1.0589,-16.5,32.64,22.2
3.051,-8.1586,0.12258,-0.21808,-0.50457,-1.0867,-16.68,32.4,22.38
3.0373,-8.145,0.054481,-0.22205,-0.40959,-1.1041,-16.74,32.16,22.44
3.0373,-7.9543,0.14982,-0.21869,-0.26481,-1.0406,-17.04,31.5,22.62
2.9965,-7.6955,0.095342,-0.20189,-0.23091,-0.98349,-17.34,31.2,22.74
3.0918,-7.5729,0.054481,-0.17746,-0.25412,-0.91049,-17.52,30.72,22.86
2.9284,-6.9328,-0.027241,-0.14325,-0.2981,-0.82497,-18.12,29.82,22.92
2.8058,-6.8919,-0.17706,-0.11393,-0.33323,-0.72754,-18.54,29.34,22.92
2.833,-7.4231,-0.27241,-0.11851,-0.28619,-0.45143,-19.26,28.86,22.68
2.7377,-9.2755,-0.31327,-0.15241,-0.16952,-0.20281,-19.68,28.38,22.5
2.7377,-10.256,-0.25879,-0.20006,0.019242,0.082772,-19.86,28.08,22.32
2.8603,-10.855,-0.29965,-0.21869,0.13256,0.23763,-20.34,27.66,22.14
3.051,-10.842,-0.58567,-0.1967,0.42547,0.66981,-20.88,27.0,21.84
3.5277,-12.054,-0.64016,-0.10568,0.41264,1.0394,-21.12,26.7,21.66
4.0589,-12.286,-0.83084,-0.011912,0.33811,1.4206,-21.48,26.64,21.6
4.3585,-10.815,-1.7706,0.13134,0.15791,1.6637,-21.6,26.34,21.42
4.7126,-10.351,-2.2337,0.29322,-0.20647,2.0198,-21.54,26.28,21.48
4.7944,-9.5887,-2.5879,0.32345,-0.32559,2.0033,-21.54,26.28,21.42
4.4675,-7.8317,-2.9284,0.33445,-0.59804,1.7526,-21.36,26.1,21.24
4.127,-8.2812,-2.6015,0.30788,-0.72204,1.5391,-20.82,26.58,21.36
4.0589,-9.6432,-2.5742,0.19151,-0.68386,1.2679,-20.28,26.7,21.48
3.6366,-10.964,-2.1929,0.064141,-0.36713,0.93798,-19.14,27.06,21.84
3.2961,-11.237,-1.8932,-0.17807,0.45326,0.53603,-18.42,27.36,21.84
3.4596,-10.733,-1.7025,-0.28894,1.0119,0.26176,-17.76,27.6,21.96
3.6503,-10.351,-1.7162,-0.27519,1.3528,0.040623,-16.98,27.78,22.08
4.2223,-8.54,-1.9068,-0.21014,1.4481,-0.11973,-15.84,28.02,22.44
4.6037,-7.5593,-1.8115,-0.079412,1.2819,-0.24282,-15.42,28.08,22.62
4.5901,-6.7285,-1.3348,0.040928,0.71899,-0.25504,-14.34,28.2,22.86
4.3313,-6.1973,-1.3348,0.040928,0.71899,-0.25504,-14.34,28.2,22.86
3.4732,-5.489,-1.1577,0.11545,0.099266,-0.13286,-13.8,28.56,22.68
3.4732,-5.489,-1.1577,0.11545,0.099266,-0.13286,-13.8,28.56,22.68
3.5004,-5.7614,-1.1713,0.15882,0.028711,0.050702,-13.5,28.68,22.74
3.6366,-6.0883,-1.2803,0.19395,0.047342,0.20433,-13.32,28.86,22.74
3.9227,-6.7421,-1.4438,0.24893,0.047953,0.38271,-13.68,28.86,22.2
4.0861,-7.1234,-1.4301,0.29444,0.0094684,0.53787,-13.86,28.8,22.2
4.2495,-7.355,-1.6208,0.36194,-0.073609,0.61881,-14.04,28.92,21.9
4.3858,-7.641,-1.7706,0.42913,-0.2135,0.63163,-14.34,29.1,21.6
4.4675,-7.7636,-1.9613,0.47281,-0.30055,0.57574,-14.34,29.22,21.48
4.5492,-8.6762,-2.0839,0.51435,-0.33598,0.47709,-14.34,29.52,21.0
4.699,-9.0848,-2.1656,0.51862,-0.33353,0.37049,-14.4,29.64,20.7
4.9169,-9.6977,-2.2882,0.49175,-0.32406,0.25381,-14.28,29.76,20.52
5.0259,-11.427,-2.0567,0.35766,-0.23457,0.10263,-13.98,30.12,20.4
4.8761,-12.108,-1.8387,0.22083,-0.074831,-0.069944,-13.86,30.36,20.46
4.5356,-13.362,-1.7298,0.12126,0.19853,-0.23121,-13.62,30.54,20.4
4.5356,-14.056,-1.6072,-0.065057,0.69547,-0.39828,-13.56,30.66,20.28
4.413,-13.116,-1.3212,-0.13439,1.0947,-0.66371,-13.44,30.66,20.22
4.7399,-12.667,-1.2531,-0.16493,1.2758,-0.66493,-13.5,30.78,19.92
4.8216,-10.692,-1.0624,-0.15333,1.2978,-0.76419,-14.04,30.84,19.8
4.9033,-9.3299,-1.1305,0.0076358,0.86804,-0.85124,-14.22,30.84,19.68
5.0531,-9.0167,-1.0896,0.13347,0.26237,-0.80848,-14.58,30.72,19.38
5.0668,-8.9077,-1.0896,0.25076,-0.41539,-0.76694,-15.0,30.66,19.38
4.6582,-8.5944,-0.96704,0.33139,-0.98716,-0.66951,-15.9,30.36,19.08
4.2223,-8.7306,-1.0215,0.37263,-1.361,-0.62217,-16.32,30.12,18.96
3.7047,-9.3844,-0.89894,0.3653,-1.5452,-0.51221,-17.28,29.52,18.78
3.8273,-9.793,-0.78998,0.27978,-1.5324,-0.37324,-17.76,29.28,18.54
3.7047,-9.8884,-0.70826,0.10782,-1.3265,-0.18876,-18.3,28.92,18.54
3.5004,-9.5479,-0.49033,-0.018326,-1.1246,-0.15058,-19.2,28.32,18.78
3.3915,-9.0303,-0.32689,-0.1347,-0.86163,-0.20036,-19.56,28.08,18.84
3.3234,-8.54,-0.17706,-0.23427,-0.5678,-0.34422,-19.86,27.72,19.14
3.4459,-8.0496,-0.068102,-0.25473,-0.52198,-0.4102,-20.28,27.3,19.56
3.4187,-7.8998,-0.054481,-0.28772,-0.45143,-0.57055,-20.52,27.06,19.8
3.3642,-7.8862,-0.095342,-0.30482,-0.42913,-0.64874,-20.76,26.88,20.04
3.0101,-7.9815,0.027241,-0.32956,-0.33323,-0.71563,-21.0,26.46,20.4
2.9556,-7.9951,0.054481,-0.36682,-0.21105,-0.7871,-21.24,26.34,20.7
2.9965,-7.7772,0.21793,-0.38851,-0.084605,-0.83658,-21.66,26.1,21.18
2.9556,-7.7227,0.19068,-0.40684,0.0067195,-0.88514,-21.84,25.98,21.42
2.9284,-7.8589,0.24517,-0.3934,0.0097738,-0.87568,-22.14,25.62,21.54
2.9011,-7.927,0.14982,-0.37171,-0.027489,-0.80481,-22.44,25.38,21.72
2.9556,-8.6081,0.027241,-0.34911,-0.069639,-0.65424,-22.68,25.14,21.72
2.9965,-10.297,-0.027241,-0.36591,-0.04948,-0.41966,-23.34,24.72,21.9
2.8875,-10.869,-0.040861,-0.39218,0.080329,0.0048869,-23.76,24.6,21.72
2.9011,-10.529,-0.14982,-0.3882,0.26053,0.13867,-24.42,24.12,21.66
2.9556,-10.964,-0.20431,-0.32284,0.46578,0.60048,-24.72,23.88,21.66
3.2553,-11.918,-0.21793,-0.29658,0.48533,1.0623,-24.84,23.7,21.72
3.8818,-10.542,-0.6674,-0.22174,0.48197,1.3515,-25.38,23.46,21.72
4.0997,-9.8611,-1.076,-0.10721,0.35766,1.6289,-25.44,23.34,21.72
4.413,-9.2891,-1.866,-0.01069,0.17623,1.8033,-25.62,23.34,21.66
4.2495,-7.4776,-2.2474,0.10079,-0.1066,1.6319,-25.5,23.34,21.66
4.2223,-8.1858,-2.3972,0.11606,-0.30818,1.5305,-25.38,23.46,21.84
4.2768,-9.0439,-2.3563,0.057116,-0.39126,1.379,-25.2,23.76,22.02
4.2495,-11.278,-2.1248,-0.076664,-0.24435,1.1432,-24.66,24.36,22.32
3.8682,-12.027,-1.7843,-0.23518,0.15088,0.91233,-24.18,24.54,22.44
3.4868,-11.577,-1.6208,-0.3711,1.0855,0.39126,-23.16,25.14,23.1
4.0316,-10.025,-1.7434,-0.31368,1.4502,0.082161,-22.8,25.32,23.34
4.3313,-8.4446,-1.8387,-0.20892,1.5168,-0.15699,-22.38,25.56,23.46
4.5492,-7.641,-1.7706,-0.072693,1.303,-0.34056,-22.02,25.86,23.58
4.6582,-6.1428,-1.185,0.0067195,0.89217,-0.41264,-21.36,26.28,23.82
4.2223,-5.7614,-0.98067,0.022602,0.45754,-0.41875,-21.06,26.58,23.88
3.6366,-5.5026,-0.91256,0.018021,0.22327,-0.41722,-20.82,26.76,24.0
3.2144,-5.5026,-0.95342,0.029932,0.23518,-0.3036,-20.76,27.0,23.82
3.2553,-5.5162,-1.0215,0.063225,0.29413,-0.15577,-20.7,27.0,23.76
3.3778,-5.6524,-0.99429,0.10079,0.31368,0.025045,-20.7,27.06,23.64
3.8409,-6.2654,-1.1986,0.14539,0.28466,0.23396,-20.94,27.0,23.52
3.9635,-6.5378,-1.0896,0.22113,0.19456,0.41997,-21.18,27.12,23.34
4.0589,-6.6604,-1.3076,0.33567,-0.041539,0.5736,-21.66,27.06,22.74
4.304,-7.069,-1.4438,0.41875,-0.21808,0.61606,-21.6,27.3,22.5
4.3585,-7.4912,-1.7843,0.48686,-0.40042,0.63194,-21.78,27.42,22.38
4.4811,-8.1858,-1.9613,0.51496,-0.49175,0.63194,-22.02,27.6,22.26
4.6445,-8.9758,-2.1929,0.51496,-0.66859,0.62492,-21.96,27.9,21.96
4.5901,-10.46,-2.1384,0.44929,-0.69242,0.61881,-21.66,28.38,21.9
4.5356,-11.25,-2.152,0.35613,-0.59315,0.57482,-21.36,28.68,21.84
4.2223,-13.688,-1.9613,0.17776,-0.15485,0.44532,-20.82,29.4,21.72
4.3585,-15.159,-2.0431,0.050396,0.3036,0.36805,-20.58,29.76,21.66
4.413,-13.838,-1.58,-0.038179,0.6017,0.27397,-20.28,30.12,21.54
4.4539,-13.321,-1.4574,-0.095295,1.1781,0.015577,-20.04,30.48,21.42
4.9306,-12.939,-1.3893,-0.1011,1.262,-0.10599,-19.74,30.9,21.12
4.9578,-10.515,-1.2531,-0.033903,1.1029,-0.31582,-19.26,31.68,20.82
5.094,-9.4253,-1.3076,0.12248,0.39034,-0.48991,-19.08,31.98,20.76
5.0804,-9.3572,-1.1305,0.2138,-0.25229,-0.56108,-18.9,32.4,20.64
4.6445,-9.2346,-1.1441,0.24435,-0.74556,-0.61239,-18.78,32.7,20.58
4.2359,-9.0575,-1.2395,0.25045,-1.0223,-0.58551,-18.84,32.82,20.46
4.0861,-9.4798,-1.362,0.20953,-1.1466,-0.49327,-19.2,32.82,20.22
3.9363,-9.6432,-1.2258,0.12737,-1.1536,-0.405,-19.5,33.0,20.1
3.7047,-9.7385,-1.0351,0.002138,-1.0602,-0.29413,-19.62,33.0,20.22
3.6094,-9.2346,-0.76274,-0.18754,-0.81092,-0.2529,-20.04,33.18,20.16
3.5822,-8.826,-0.53119,-0.23732,-0.72479,-0.27092,-20.16,33.18,20.28
3.5549,-8.4719,-0.47671,-0.33445,-0.50946,-0.38851,-20.28,33.0,20.4
3.5277,-8.0224,-0.35413,-0.35277,-0.43402,-0.49908,-20.46,33.0,20.58
3.514,-7.9407,-0.25879,-0.35552,-0.40378,-0.61972,-20.7,33.0,20.7
3.5413,-8.0088,-0.095342,-0.36285,-0.4047,-0.70127,-21.0,33.06,20.94
3.2553,-7.9407,-0.027241,-0.37049,-0.41844,-0.83169,-21.48,33.06,21.18
3.1327,-7.927,-0.01362,-0.38118,-0.3934,-0.89675,-21.66,32.82,21.54
3.0782,-7.8726,0.1362,-0.39279,-0.34178,-0.93859,-21.96,32.7,21.84
2.9148,-7.641,0.19068,-0.39401,-0.27703,-0.95417,-22.62,32.34,22.14
2.7922,-7.5184,0.10896,-0.39859,-0.21747,-0.94715,-22.8,32.22,22.44
2.8603,-7.5048,0.095342,-0.3937,-0.19884,-0.8543,-23.22,32.04,22.56
2.8194,-8.9213,0.054481,-0.39584,-0.19578,-0.79321,-23.64,31.8,22.62
2.7649,-9.7385,0.027241,-0.42791,-0.15394,-0.60964,-24.54,31.32,22.68
2.6423,-10.501,0.095342,-0.47434,-0.0067195,-0.40623,-24.96,31.2,22.74
2.6151,-10.992,0.095342,-0.52443,0.34331,-0.037568,-25.56,30.84,22.68
2.9284,-10.774,-0.081722,-0.5171,0.54581,0.22052,-26.64,30.24,22.92
2.9692,-10.937,0.027241,-0.43952,0.56536,0.50824,-27.0,29.76,22.86
3.8954,-12.136,-0.054481,-0.36346,0.46304,0.97891,-27.66,29.16,22.8
3.9499,-10.76,-0.20431,-0.10965,0.24526,1.4062,-28.02,29.04,22.86
4.0725,-10.297,-0.39499,-0.012828,0.11484,1.5724,-28.2,28.74,22.92
4.5764,-8.7715,-1.3076,0.33445,-0.37232,1.7593,-28.2,28.74,23.22
4.4539,-7.8998,-1.7979,0.51771,-0.72754,1.6026,-28.14,28.68,23.1
4.304,-8.0632,-2.2337,0.58918,-1.0296,1.4221,-27.96,28.74,23.16
4.0452,-9.6841,-2.1656,0.42089,-1.1719,1.0128,-27.3,29.16,23.7
3.3506,-10.583,-1.8251,0.20953,-0.87659,0.71593,-26.82,29.4,23.94
3.0918,-10.801,-1.58,-0.0088575,-0.28863,0.46701,-26.28,29.7,24.12
2.656,-9.9973,-1.6617,-0.15363,0.43035,0.18754,-24.78,30.3,24.42
2.9556,-9.4934,-2.0022,-0.20861,1.0825,-0.064752,-24.0,30.72,24.72
3.4323,-8.6081,-2.1793,-0.17104,1.4212,-0.26848,-23.28,31.2,24.96
4.413,-6.96,-2.0294,-0.0562,1.4591,-0.3937,-22.14,31.98,25.38
4.6173,-6.456,-1.6753,0.070555,1.1689,-0.43219,-21.54,32.16,25.38
4.5356,-6.1564,-1.4301,0.15516,0.61606,-0.36744,-21.24,32.7,25.32
3.7184,-5.5707,-1.4029,0.25045,-0.16463,-0.25381,-20.76,33.12,25.38
3.4596,-5.598,-1.4846,0.29047,-0.38179,-0.14783,-20.58,33.42,25.32
3.2961,-5.8159,-1.6481,0.32467,-0.41233,-0.0073304,-20.34,33.54,25.38
3.4187,-6.4833,-1.8387,0.35552,-0.33903,0.2193,-20.16,33.66,25.26
3.5549,-6.8102,-1.757,0.37599,-0.27917,0.34331,-20.22,33.84,24.96
3.6775,-7.0281,-1.7979,0.38087,-0.27061,0.42791,-20.4,33.84,24.9
3.8137,-7.246,-1.7706,0.39737,-0.31673,0.45693,-20.52,33.78,24.72
4.0316,-7.464,-1.8115,0.41539,-0.38943,0.41478,-20.88,34.14,24.24
3.9908,-7.7227,-1.9068,0.44685,-0.48991,0.34697,-20.94,34.26,24.06
3.9363,-8.9894,-2.261,0.43768,-0.63958,0.26359,-20.94,34.5,23.58
3.8818,-9.9565,-2.6015,0.36377,-0.60842,0.25168,-20.76,34.8,23.4
3.9635,-10.61,-2.6015,0.30207,-0.49327,0.23335,-20.46,34.86,23.28
4.1678,-11.618,-2.2474,0.089797,-0.13928,0.10751,-19.92,34.92,23.1
3.3778,-12.149,-1.7706,-0.054672,0.17623,0.03543,-19.38,35.34,23.04
3.3506,-12.98,-1.7025,-0.16127,0.64813,-0.064141,-19.2,35.58,22.8
3.7456,-13.797,-1.58,-0.31093,1.3436,-0.19059,-19.2,35.76,22.62
4.3858,-11.891,-1.3484,-0.32132,1.5406,-0.22907,-18.9,36.12,22.26
4.808,-11.4,-1.2531,-0.27153,1.4728,-0.16799,-18.78,36.24,22.14
4.9987,-10.828,-1.1986,-0.23579,1.3259,-0.17654,-18.72,36.54,22.14
5.1485,-9.9565,-1.1305,-0.073304,0.54825,-0.22999,-18.72,36.54,21.96
5.3528,-10.501,-0.9398,0.013134,-0.10904,-0.1912,-18.72,36.66,21.78
5.0531,-10.665,-1.0215,0.066279,-0.68203,-0.24526,-18.78,36.54,21.72
4.3721,-10.542,-1.0896,0.135,-1.0953,-0.34667,-19.26,36.48,21.72
4.0316,-10.392,-0.98067,0.14844,-1.1075,-0.43768,-19.5,36.36,21.72
3.9227,-10.351,-0.76274,0.14783,-1.0864,-0.45601,-19.86,36.36,21.66
4.0452,-9.9565,-0.65378,0.13775,-1.0803,-0.47861,-20.34,36.12,21.6
4.018,-9.3436,-0.58567,0.13011,-1.1906,-0.53298,-20.52,36.0,21.54
3.8137,-8.7443,-0.50395,0.12126,-1.2733,-0.6295,-20.58,36.0,21.54
3.1872,-7.927,-0.43585,0.059559,-1.1796,-0.7761,-20.88,35.7,21.72
2.9556,-7.7227,-0.44947,-0.0076358,-1.0278,-0.87109,-21.06,35.52,21.78
2.9148,-7.5593,-0.47671,-0.092546,-0.83627,-0.93676,-21.12,35.22,21.9
2.833,-7.4776,-0.42223,-0.17226,-0.63102,-0.96914,-21.36,35.04,22.14
2.7241,-7.6274,-0.49033,-0.27061,-0.42119,-0.96822,-21.96,34.62,22.68
2.656,-7.6274,-0.39499,-0.36682,-0.20403,-0.96853,-22.26,34.56,22.86
2.6015,-7.3822,-0.24517,-0.46609,0.024129,-0.94592,-22.56,34.26,22.92
2.5742,-6.9464,-0.20431,-0.53909,0.28741,-0.91813,-23.1,33.84,23.16
2.6151,-6.8919,-0.068102,-0.54214,0.37935,-0.87659,-23.7,33.66,23.34
2.7649,-7.1643,-0.081722,-0.52962,0.405,-0.77733,-24.12,33.36,23.22
2.7649,-7.6683,-0.054481,-0.48625,0.36591,-0.61117,-24.66,33.06,23.04
2.8058,-9.2074,0.054481,-0.46059,0.32742,-0.35369,-25.62,32.22,23.22
2.9556,-10.079,0.19068,-0.40653,0.32712,0.16157,-26.34,31.86,23.04
3.2689,-10.774,0.10896,-0.37568,0.34239,0.33017,-27.36,31.38,22.68
3.2416,-10.76,-0.027241,-0.23763,0.32895,0.82161,-27.84,31.08,22.5
3.3506,-11.673,-0.027241,-0.12767,0.19853,1.2404,-28.26,30.96,22.32
3.9227,-12.054,-0.61292,-0.014355,0.12401,1.5653,-28.74,30.54,21.9
4.0044,-11.7,-0.77636,0.12339,-0.0024435,1.7724,-28.86,30.36,21.78
4.2904,-11.291,-1.471,0.30207,-0.23549,1.9367,-28.8,30.36,21.72
4.4402,-8.8668,-2.3427,0.33872,-0.3091,1.8763,-28.5,30.48,21.78
4.4266,-8.322,-2.7241,0.3708,-0.63652,1.5705,-28.08,30.54,21.9
4.2223,-8.54,-2.7377,0.3036,-0.82681,1.3271,-27.6,30.66,22.14
3.7728,-9.8203,-2.4789,0.10232,-0.76175,1.0321,-26.16,31.26,22.5
3.3097,-10.556,-2.0839,-0.086132,-0.38973,0.7477,-25.26,31.68,22.68
2.7513,-11.073,-1.757,-0.27733,0.25259,0.50152,-24.3,32.1,22.98
2.9556,-10.406,-1.8796,-0.47983,1.4212,0.053145,-22.38,32.82,23.64
3.5004,-9.3844,-2.0294,-0.49052,1.8885,-0.1857,-21.66,33.24,23.88
3.6775,-8.6353,-2.0022,-0.4105,2.0556,-0.36408,-20.88,33.54,24.06
4.1133,-7.6138,-1.7843,-0.26145,1.857,-0.50396,-20.22,33.9,24.18
4.6582,-5.993,-1.3212,-0.12675,1.3412,-0.50946,-19.14,34.5,24.0
4.5083,-5.5707,-0.96704,-0.015577,0.39828,-0.44227,-18.78,34.8,24.0
3.4323,-5.2575,-0.92618,0.0051924,0.16738,-0.41569,-18.36,35.04,23.82
3.1191,-5.2711,-0.95342,0.03879,-0.042455,-0.26909,-18.36,35.28,23.76
2.9692,-5.5435,-1.0351,0.046731,0.04948,-0.10965,-18.36,35.28,23.64
2.9556,-5.7342,-1.076,0.077885,0.20433,0.048564,-18.54,35.34,23.4
3.3778,-6.5514,-1.1441,0.1127,0.33017,0.22266,-19.38,35.28,23.1
3.7184,-6.8919,-1.1713,0.19517,0.30299,0.44135,-19.74,35.16,22.98
3.9771,-7.069,-1.2939,0.23091,0.24465,0.48167,-20.52,34.98,22.5
4.0861,-7.2052,-1.5936,0.30299,0.076053,0.51985,-20.82,34.92,22.2
4.0589,-7.3958,-1.6072,0.38362,-0.075747,0.50305,-21.06,34.86,21.96
4.2359,-8.4719,-2.0294,0.47709,-0.33475,0.45265,-21.18,34.98,21.66
4.413,-9.4253,-2.152,0.48717,-0.48625,0.44502,-21.18,35.04,21.42
4.4266,-11.618,-2.5334,0.42333,-0.58582,0.50855,-21.0,35.4,21.06
4.3858,-12.953,-2.2337,0.24404,-0.41783,0.47464,-20.82,35.46,20.82
4.1814,-13.484,-2.2065,0.13011,-0.1518,0.42058,-20.34,35.64,20.52
3.8818,-14.996,-2.0703,0.061392,0.064141,0.45204,-20.22,35.94,20.28
4.018,-14.152,-1.8387,-0.15638,0.99693,0.31948,-19.56,36.3,19.86
4.4947,-13.348,-1.7979,-0.18662,1.3693,0.21655,-19.38,36.48,19.62
5.0123,-12.381,-1.8387,-0.14478,1.3751,0.027489,-18.66,37.08,19.14
5.1757,-9.3027,-1.7025,-0.043371,1.0064,-0.16218,-18.6,37.14,18.84
5.5162,-9.0848,-1.5663,0.015577,0.72082,-0.21105,-18.3,37.32,18.78
5.6116,-9.3436,-1.58,0.09896,0.000305,-0.28924,-18.24,37.68,18.6
4.9442,-9.4253,-1.6753,0.12523,-0.92118,-0.41447,-18.18,37.92,18.12
4.413,-9.5751,-1.6617,0.089492,-1.1909,-0.45845,-18.24,38.1,18.12
4.1542,-9.8611,-1.471,0.017715,-1.2343,-0.478,-18.24,38.28,17.82
3.9227,-10.161,-1.2803,-0.13592,-1.0275,-0.47128,-18.3,38.28,17.82
3.8682,-9.9292,-1.076,-0.25137,-0.82803,-0.47128,-18.42,38.22,17.76
3.8818,-9.5342,-0.96704,-0.32498,-0.70066,-0.5116,-18.6,38.16,17.82
3.8273,-8.4038,-0.65378,-0.37049,-0.63835,-0.59101,-18.9,38.04,18.0
3.7865,-8.0905,-0.5993,-0.39615,-0.62064,-0.67959,-18.96,37.92,18.0
3.6094,-8.036,-0.36775,-0.42302,-0.60812,-0.78863,-19.32,37.8,18.3
3.2553,-8.0088,-0.29965,-0.46029,-0.54214,-0.96242,-19.68,37.56,18.84
3.1872,-7.9679,-0.19068,-0.5171,-0.33995,-1.0571,-19.98,37.32,19.02
2.9829,-7.927,-0.081722,-0.5507,-0.19426,-1.1267,-20.16,36.84,19.26
2.9011,-8.1177,0.081722,-0.57605,-0.044288,-1.1686,-20.64,36.24,19.86
2.833,-8.036,0.14982,-0.58002,0.07758,-1.197,-20.94,35.88,20.1
2.833,-7.8317,0.068102,-0.57208,0.15974,-1.2071,-21.18,35.28,20.46
2.9284,-7.641,0.16344,-0.51618,0.13592,-1.139,-22.02,34.62,20.64
2.9284,-8.0632,0.095342,-0.47281,0.071166,-1.0143,-22.56,34.2,20.82
2.9011,-8.9894,0.01362,-0.46731,0.020159,-0.82894,-22.98,33.84,20.88
2.9011,-9.507,-0.01362,-0.45845,0.024435,-0.72082,-23.52,33.3,20.94
2.7377,-10.651,-0.095342,-0.47312,0.18906,-0.29444,-24.54,32.4,20.88
2.7513,-10.365,-0.14982,-0.44868,0.38423,-0.02474,-24.9,31.92,20.7
2.9148,-11.305,-0.095342,-0.37538,0.49388,0.25473,-25.8,31.32,20.52
3.5277,-12.095,-0.14982,-0.30665,0.5061,0.69425,-26.22,31.08,20.34
3.7592,-10.951,-0.43585,-0.11057,0.44349,1.1747,-26.76,30.9,20.4
3.9227,-10.42,-0.89894,-0.018021,0.36377,1.314,-27.18,30.66,20.4
4.2223,-9.2346,-1.471,0.23457,0.042455,1.5467,-27.54,30.12,20.34
3.9499,-8.6625,-1.7706,0.37477,-0.16952,1.4239,-27.78,30.24,20.4
3.8409,-8.7306,-2.0567,0.46976,-0.40378,1.2868,-27.66,30.18,20.52
3.9363,-9.8748,-2.0294,0.43952,-0.7477,0.94501,-27.3,30.18,20.64
3.4459,-10.855,-1.7162,0.3879,-0.7535,0.83414,-27.06,30.24,20.76
3.2008,-11.155,-1.6072,0.26114,-0.55467,0.67501,-26.58,30.54,20.82
2.833,-11.032,-1.4438,0.055589,0.18998,0.48594,-26.1,30.72,21.0
2.9011,-9.4117,-1.9205,0.047037,0.75167,0.37202,-24.96,31.2,21.18
3.2825,-8.4719,-2.261,0.13897,1.1206,0.27825,-24.48,31.32,21.24
3.9635,-6.8238,-1.9613,0.22327,1.0733,0.25962,-23.28,31.74,21.36
3.9908,-6.1564,-1.7706,0.2474,0.967,0.26512,-22.56,32.1,21.3
3.9499,-5.8567,-1.6344,0.28497,0.65057,0.30146,-21.96,32.52,21.24
3.7047,-5.2575,-1.7298,0.3149,0.2022,0.38973,-20.88,33.3,21.0
3.5413,-5.1894,-1.8387,0.3259,0.035125,0.49358,-20.4,33.54,20.88
3.6094,-5.4481,-1.975,0.32284,-0.018021,0.62766,-19.92,33.78,20.52
3.7047,-6.3607,-1.9613,0.31551,0.029932,0.80665,-19.14,34.38,19.86
3.8954,-6.8102,-2.0294,0.32315,0.068417,0.89553,-18.72,34.92,19.56
4.0997,-7.1643,-2.0294,0.32376,0.074526,0.93707,-18.36,35.16,19.26
4.5083,-7.3414,-2.2065,0.33934,-0.030238,0.94898,-17.88,35.7,18.48
4.6445,-7.4095,-2.3018,0.38057,-0.18143,0.88606,-17.46,36.06,18.12
4.6445,-7.7364,-2.3836,0.41142,-0.35858,0.7761,-17.16,36.54,17.82
4.7535,-9.112,-2.6968,0.39767,-0.5849,0.58826,-16.26,37.14,17.1
4.8216,-10.215,-2.6423,0.31246,-0.62705,0.4945,-15.72,37.32,16.68
4.7535,-11.128,-2.7377,0.15821,-0.51924,0.41386,-15.18,37.74,16.26
4.6445,-12.503,-2.3972,-0.043066,-0.22449,0.28741,-14.64,38.04,15.96
4.018,-13.076,-2.0703,-0.22174,0.281,0.086743,-13.8,38.7,15.36
3.9499,-14.22,-2.0158,-0.31979,0.87904,-0.11698,-13.44,39.0,15.18
4.6445,-13.961,-1.4846,-0.46029,1.6527,-0.38454,-12.72,39.48,14.94
4.9306,-12.313,-1.2258,-0.41478,1.8842,-0.51129,-12.54,39.54,14.7
5.4345,-11.741,-1.2122,-0.3317,1.7113,-0.53237,-12.54,39.66,14.58
5.5435,-10.488,-1.0896,-0.20983,1.2327,-0.67165,-12.54,39.78,14.4
5.3664,-9.1256,-1.0488,-0.060476,0.57605,-0.79504,-12.72,39.84,14.22
5.4209,-9.0303,-0.8036,0.068417,-0.18998,-0.83078,-12.9,39.9,13.86
5.1213,-9.5479,-0.83084,0.13225,-1.1448,-0.88575,-13.2,39.84,13.8
4.413,-10.42,-0.99429,0.13622,-1.3201,-0.90103,-13.98,39.72,13.68
4.0044,-10.733,-0.9398,0.06689,-1.4798,-0.94928,-14.4,39.42,13.74
3.732,-10.706,-0.83084,0.032376,-1.4239,-0.96639,-14.88,39.24,13.8
3.3915,-10.474,-0.76274,-0.11912,-1.0653,-0.95997,-15.84,38.82,13.86
3.2961,-10.093,-0.70826,-0.20647,-0.77702,-0.97097,-16.44,38.58,13.98
3.3506,-9.3572,-0.5993,-0.27733,-0.54428,-0.99602,-17.1,38.28,13.98
3.4323,-8.7034,-0.47671,-0.30788,-0.42638,-1.0482,-18.24,37.56,14.46
3.3915,-8.2812,-0.38137,-0.34086,-0.40531,-1.1524,-18.78,37.32,14.58
3.2961,-7.9815,-0.34051,-0.34056,-0.43799,-1.215,-19.32,36.84,14.82
3.0782,-7.8317,-0.1362,-0.33689,-0.45143,-1.2675,-20.52,36.0,15.48
3.0101,-7.6274,-0.23155,-0.34239,-0.44196,-1.2926,-21.3,35.52,15.72
2.8194,-7.3822,-0.19068,-0.33231,-0.40287,-1.3024,-22.02,35.04,16.08
2.7377,-7.1915,-0.054481,-0.33109,-0.34606,-1.2648,-23.52,34.26,16.26
2.5879,-6.8238,-0.027241,-0.32926,-0.29474,-1.2046,-24.36,33.9,16.38
2.5334,-6.6059,-0.054481,-0.32132,-0.23732,-1.1139,-25.26,33.24,16.44
2.547,-6.674,-0.027241,-0.29902,-0.19151,-0.96211,-26.82,32.22,16.68
2.6423,-7.2052,-0.068102,-0.29169,-0.18295,-0.72143,-27.6,31.68,16.68
2.7104,-8.036,-0.12258,-0.30604,-0.17043,-0.40225,-28.32,31.08,16.74
2.656,-9.9292,-0.10896,-0.35125,0.017104,0.16524,-29.82,30.18,16.68
2.6696,-10.42,-0.095342,-0.36744,0.24526,0.54489,-30.42,29.76,16.74
2.8467,-10.447,-0.25879,-0.32956,0.43158,0.89706,-30.84,29.4,16.68
3.3642,-12.422,-0.25879,-0.25443,0.45937,1.332,-31.74,28.8,16.8
4.0589,-12.898,-0.31327,-0.14386,0.44227,1.7648,-31.92,28.5,16.98
4.2495,-11.482,-1.2395,0.03879,0.30604,2.0067,-32.1,28.2,16.98
4.6173,-10.283,-1.6889,0.33109,-0.047647,2.2791,-32.16,27.84,17.4
4.6854,-9.0439,-2.2882,0.47709,-0.36194,2.1255,-31.92,27.9,17.7
4.6445,-8.7987,-2.4925,0.51649,-0.65882,1.908,-31.56,28.02,17.88
4.2495,-10.025,-2.5061,0.45296,-0.84788,1.6472,-30.66,28.44,18.36
3.9908,-10.637,-2.1793,0.26817,-0.78252,1.3014,-30.12,28.8,18.72
3.5413,-11.046,-1.6753,0.073304,-0.41081,0.96944,-29.46,29.22,19.02
2.8194,-11.032,-1.4846,-0.17654,0.60995,0.53237,-27.9,29.94,19.74
2.9556,-10.379,-1.7298,-0.23854,0.99388,0.36713,-27.12,30.18,20.04
3.337,-9.9973,-1.8796,-0.25412,1.5663,0.12065,-26.4,30.54,20.4
4.2495,-8.0632,-1.8932,-0.13775,1.8405,-0.10812,-25.14,31.32,20.7
4.6854,-7.0962,-1.7706,0.016799,1.5886,-0.18112,-24.48,31.8,20.76
4.8216,-6.3607,-1.471,0.12798,1.0712,-0.12523,-23.88,32.28,20.82
4.0589,-5.3392,-1.1441,0.2361,0.23976,-0.036041,-22.92,33.0,20.76
3.7184,-5.1621,-1.0624,0.2697,-0.03879,0.033903,-22.62,33.06,20.64
3.4459,-5.094,-1.1577,0.29596,-0.10049,0.091935,-22.44,33.24,20.46
3.4051,-5.38,-1.3757,0.33506,-0.12614,0.31398,-21.96,33.48,20.16
3.5004,-5.7614,-1.5119,0.35858,-0.086743,0.47892,-21.78,33.42,19.74
3.732,-6.1292,-1.4982,0.39004,-0.075442,0.66157,-21.78,33.54,19.56
4.127,-7.1371,-1.6208,0.42028,-0.1408,0.87018,-21.78,33.78,19.14
4.3585,-7.3277,-1.7706,0.45296,-0.24801,0.90713,-21.6,33.9,18.84
4.4675,-7.3686,-2.0022,0.47128,-0.30574,0.88759,-21.6,34.02,18.42
4.5083,-8.0496,-2.2882,0.53817,-0.54703,0.75808,-21.06,34.2,17.82
4.6582,-8.7306,-2.4244,0.551,-0.70341,0.64752,-20.76,34.44,17.64
4.699,-9.6568,-2.6696,0.50641,-0.79382,0.53481,-20.4,34.44,17.34
4.6718,-12.027,-2.5061,0.30971,-0.67348,0.41936,-19.62,34.74,17.1
4.1814,-12.967,-2.2882,0.12767,-0.32193,0.26114,-19.2,35.1,17.04
3.909,-14.043,-2.1656,0.047953,-0.069333,0.19456,-18.72,35.34,16.92
3.9635,-15.037,-1.7298,-0.17013,0.59498,0.088881,-18.42,35.4,16.92
4.2087,-13.702,-1.2803,-0.40531,1.6893,-0.25656,-17.82,35.64,16.86
4.522,-13.089,-1.0351,-0.40745,2.1005,-0.37782,-17.58,35.76,16.74
5.0259,-10.924,-1.0215,-0.32009,2.0724,-0.67714,-17.28,35.64,16.26
5.4073,-9.8066,-1.0215,-0.040928,1.2367,-0.81398,-17.34,35.76,16.08
5.7886,-9.3844,-0.89894,0.14019,0.26573,-0.81673,-17.28,35.82,16.08
5.6116,-9.6977,-0.68102,0.25992,-0.75381,-0.82864,-17.52,35.82,15.96
4.8625,-9.5751,-0.53119,0.32193,-1.4817,-0.86896,-17.64,35.58,15.9
4.1678,-9.5615,-0.58567,0.32559,-1.847,-0.87109,-17.88,35.52,15.78
3.3778,-9.5342,-0.55843,0.28039,-1.8048,-0.88392,-18.48,35.1,16.02
3.1872,-9.4934,-0.64016,0.15638,-1.5156,-0.84696,-18.9,34.8,16.08
2.9829,-9.0848,-0.64016,0.057116,-1.175,-0.81825,-19.26,34.5,16.32
3.0646,-8.54,-0.65378,-0.03146,-0.89064,-0.79657,-19.92,34.08,16.56
3.1599,-8.2267,-0.44947,-0.12248,-0.69394,-0.81978,-20.04,33.84,16.62
3.1735,-7.8998,-0.40861,-0.18876,-0.59071,-0.82833,-20.22,33.66,16.8
3.2008,-7.8726,-0.16344,-0.24007,-0.55741,-0.83994,-20.94,33.18,17.4
3.1463,-7.9951,-0.095342,-0.31643,-0.50702,-0.83108,-21.24,32.94,17.7
3.0918,-8.2812,-0.027241,-0.33659,-0.4725,-0.82833,-21.42,32.46,18.0
2.8058,-8.1177,0.10896,-0.39554,-0.30299,-0.84605,-21.96,31.92,18.54
2.8467,-7.9543,0.14982,-0.41233,-0.18723,-0.87323,-22.26,31.8,18.78
2.833,-7.7227,0.068102,-0.39248,-0.12156,-0.91385,-22.8,31.44,19.2
2.8467,-7.7772,0.095342,-0.36224,-0.10843,-0.95142,-23.16,31.14,19.32
2.8603,-7.8998,0.14982,-0.30299,-0.14936,-0.90286,-23.34,30.84,19.32
2.8058,-8.54,0.095342,-0.29169,-0.16829,-0.85155,-24.0,30.18,19.38
2.8058,-9.5751,-0.027241,-0.28741,-0.18601,-0.6802,-24.3,29.94,19.38
2.7649,-9.9701,-0.081722,-0.32681,-0.067195,-0.30482,-24.84,29.58,19.44
2.6968,-10.869,-0.095342,-0.35491,0.10965,-0.015577,-25.38,28.98,19.32
2.7241,-10.583,-0.14982,-0.35033,0.30238,0.27092,-25.44,28.8,19.26
3.1327,-12.313,-0.068102,-0.30604,0.3879,0.6408,-25.62,28.5,19.26
3.7047,-11.55,-0.21793,-0.22358,0.44807,1.2004,-26.1,28.32,19.2
3.7456,-10.665,-0.64016,-0.0956,0.35827,1.4438,-26.16,28.02,19.32
3.9363,-10.161,-1.0624,0.029932,0.24221,1.6393,-26.1,27.78,19.44
4.0725,-8.1858,-1.5119,0.15699,0.12065,1.5455,-25.86,27.42,19.44
3.8682,-7.8589,-1.8932,0.21961,-0.051924,1.4071,-25.62,27.42,19.44
3.8954,-9.6704,-2.0431,0.16707,-0.2529,1.197,-25.02,27.48,19.74
3.9908,-10.774,-1.8932,0.0076358,-0.23518,0.97464,-24.48,27.54,20.04
3.6094,-11.795,-1.471,-0.18784,0.030849,0.80512,-24.0,27.72,20.34
3.3097,-11.632,-1.3212,-0.37385,0.52626,0.57818,-23.34,28.08,20.58
3.1191,-10.379,-1.3484,-0.41692,0.83322,0.45387,-22.86,28.14,20.82
3.1191,-10.379,-1.3484,-0.38973,1.5357,0.13561,-21.96,28.56,21.3
4.0316,-7.355,-1.7025,-0.27245,1.6787,-0.078191,-21.54,28.74,21.48
4.304,-6.6331,-1.58,-0.072082,1.4151,-0.11698,-21.12,28.86,21.6
4.3449,-5.8295,-1.1441,-0.01069,1.0162,-0.080023,-20.76,28.98,21.84
3.8273,-5.1621,-0.69464,0.032987,0.63225,-0.045509,-20.04,29.34,21.84
3.623,-4.9714,-0.68102,0.057421,0.36591,0.020464,-19.74,29.52,22.02
3.514,-4.985,-0.76274,0.079107,0.2022,0.15913,-19.5,29.64,22.08
3.4459,-5.5162,-0.95342,0.11668,0.10629,0.31429,-19.08,29.94,21.96
3.6366,-5.993,-1.0079,0.16707,0.12156,0.57727,-19.08,30.18,21.84
3.8409,-6.2245,-1.185,0.19273,0.12737,0.66279,-19.02,30.3,21.84
4.0725,-7.1234,-1.3757,0.24282,0.13011,0.85888,-18.9,30.36,21.42
4.2223,-7.3414,-1.4301,0.27855,0.11362,0.90225,-18.9,30.54,21.24
4.3858,-7.6002,-1.6072,0.32926,0.030238,0.91447,-18.84,30.72,21.06
4.9442,-9.221,-2.0703,0.3766,-0.25351,0.91202,-18.36,31.02,20.82
5.1757,-10.542,-2.4108,0.40317,-0.45112,0.89675,-18.0,31.26,20.76
5.2711,-11.223,-2.4789,0.3879,-0.52687,0.88301,-17.52,31.5,20.58
5.3119,-12.108,-2.5061,0.30757,-0.55772,0.81612,-17.22,31.68,20.46
4.9033,-13.076,-2.152,0.15119,-0.20739,0.53054,-16.86,31.98,20.46
4.7671,-15.146,-1.8524,0.036346,0.21716,0.34086,-15.9,32.58,20.28
4.8216,-13.634,-1.5391,-0.099266,0.7364,0.029322,-15.42,33.06,20.34
5.1076,-12.0,-1.1986,-0.10293,1.0498,-0.21472,-14.88,33.42,20.4
5.2575,-11.128,-1.0896,-0.069333,1.0996,-0.31918,-14.22,33.78,19.98
5.4073,-9.9973,-0.95342,0.057727,0.63469,-0.57055,-13.92,33.96,20.04
5.5707,-9.5751,-0.89894,0.18112,0.0097738,-0.60079,-13.56,34.08,19.92
5.7342,-9.6432,-0.77636,0.28222,-0.76114,-0.58582,-13.2,34.38,19.98
5.2575,-9.5206,-0.85808,0.34056,-1.4728,-0.61697,-13.26,34.56,19.86
4.7399,-9.6841,-0.9398,0.33201,-2.065,-0.63102,-12.96,34.62,19.98
3.8954,-9.9701,-0.7355,0.29169,-2.131,-0.64752,-12.96,34.68,19.86
3.5413,-9.8748,-0.64016,0.093768,-1.8592,-0.67562,-12.78,34.62,19.98
3.3642,-9.5479,-0.64016,-0.07025,-1.438,-0.71105,-12.66,34.68,20.04
3.0646,-8.6081,-0.64016,-0.21197,-0.9838,-0.74862,-12.96,34.44,20.16
3.1599,-8.2812,-0.49033,-0.31765,-0.55803,-0.82192,-13.14,34.2,20.22
3.2825,-7.9951,-0.40861,-0.416,-0.22602,-0.94776,-13.56,33.96,20.7
3.6775,-7.9134,-0.24517,-0.42791,-0.20281,-0.98471,-13.44,33.84,20.94
3.5822,-8.1177,-0.21793,-0.478,-0.26176,-1.0763,-13.62,33.54,21.18
3.4596,-8.2948,-0.1362,-0.49541,-0.28008,-1.1054,-13.98,33.48,21.48
3.0237,-8.431,-0.1362,-0.54825,-0.20678,-1.2058,-14.4,33.06,21.72
2.9284,-8.4174,0.027241,-0.57299,-0.073304,-1.2495,-14.64,32.76,21.84
2.8194,-8.1586,0.10896,-0.57544,0.074526,-1.2935,-15.0,32.52,21.84
2.833,-7.7364,0.10896,-0.57085,0.20006,-1.339,-15.96,32.16,22.14
2.8603,-7.6002,0.054481,-0.53267,0.17226,-1.3124,-16.44,31.98,22.32
2.8739,-8.4174,0.040861,-0.51862,0.10079,-1.2159,-17.16,31.68,22.32
2.9284,-9.3436,0.040861,-0.52534,0.056505,-1.0366,-17.76,31.38,22.26
2.7241,-10.324,0.14982,-0.55436,0.10873,-0.78588,-18.9,30.78,22.38
2.6287,-10.828,0.23155,-0.54642,0.32926,-0.32101,-19.98,30.0,22.08
2.6423,-10.624,0.28603,-0.4722,0.44868,-0.0094684,-20.58,29.7,22.02
2.6423,-10.733,0.21793,-0.35339,0.43799,0.3934,-21.54,29.1,21.66
3.4051,-11.931,0.19068,-0.23549,0.38882,0.96761,-22.2,28.5,21.66
3.6775,-10.202,-0.44947,-0.07422,0.32865,1.3506,-22.62,28.02,21.6
3.4732,-9.5751,-1.0896,0.086743,0.30696,1.7721,-22.86,27.6,21.42
2.9692,-8.4719,-1.6889,0.19853,0.57544,1.9731,-23.1,27.3,21.24
2.9284,-8.322,-1.9068,0.25045,1.0424,1.9065,-23.04,27.42,21.36
3.1872,-8.8396,-1.7979,0.17562,1.2871,1.7266,-22.92,27.6,21.36
4.2223,-10.351,-1.4982,0.0051924,1.1102,1.5696,-22.5,28.02,21.66
4.7535,-12.027,-0.92618,-0.20128,0.86346,1.4126,-21.84,28.5,21.6
4.5901,-12.095,-0.61292,-0.42272,0.71716,1.2562,-21.24,28.86,21.84
4.2223,-10.61,-0.89894,-0.47556,0.68203,1.0357,-20.94,29.52,21.9
4.3449,-10.025,-1.1577,-0.31093,0.6295,0.71441,-20.58,29.94,22.02
4.4266,-8.1995,-1.471,-0.075442,0.50213,0.54764,-20.46,30.06,22.02
4.6718,-6.6467,-1.4982,0.14233,0.30452,0.50946,-19.74,30.54,22.2
4.6582,-6.279,-1.3757,0.27214,0.024435,0.52229,-19.26,30.72,22.32
4.3585,-6.0066,-1.2803,0.30085,-0.25137,0.48808,-18.78,30.9,22.32
3.8273,-5.6116,-1.1169,0.26603,-0.3989,0.47189,-18.18,31.26,22.08
3.7456,-5.5435,-0.98067,0.20372,-0.41203,0.51649,-17.76,31.44,21.96
3.6366,-5.6116,-1.0624,0.17654,-0.3653,0.54275,-17.58,31.62,21.9
3.8001,-6.2517,-1.4301,0.14569,-0.18692,0.64996,-16.98,31.92,21.9
4.1814,-6.7557,-1.4846,0.15699,-0.13653,0.70891,-16.62,32.22,21.84
4.3585,-6.9872,-1.58,0.17318,-0.15913,0.7477,-16.14,32.58,21.72
4.6718,-7.4776,-1.6344,0.20403,-0.26176,0.72815,-15.06,33.06,21.78
4.7535,-7.7227,-1.7025,0.24282,-0.39187,0.65454,-14.7,33.18,21.66
4.699,-8.54,-1.9886,0.28344,-0.50824,0.54672,-13.62,33.78,21.6
4.8897,-9.7522,-2.3836,0.30635,-0.58857,0.44502,-13.14,34.08,21.6
4.9033,-10.311,-2.4517,0.24862,-0.50824,0.32193,-12.6,34.44,21.54
4.6718,-11.863,-2.3972,0.14997,-0.29047,0.2022,-11.7,34.98,21.36
4.4402,-12.217,-2.0703,0.020159,0.11362,0.015882,-11.16,35.22,21.3
3.9499,-13.103,-1.866,-0.10934,0.83383,-0.2642,-10.8,35.52,21.36
4.6445,-14.192,-1.4982,-0.25168,1.3014,-0.44043,-10.14,35.82,21.24
4.7535,-12.708,-1.2667,-0.27672,1.5314,-0.58918,-9.84,36.18,21.18
4.9306,-11.931,-1.1577,-0.22358,1.4383,-0.60353,-9.78,36.24,21.0
5.2575,-10.283,-1.1441,-0.12737,1.0507,-0.71135,-9.84,36.42,20.88
5.2847,-9.9973,-1.0896,0.0073304,0.42058,-0.79412,-10.14,36.54,20.7
5.4618,-10.706,-1.0215,0.10782,-0.29627,-0.77916,-10.38,36.6,20.64
4.699,-11.032,-1.0215,0.17898,-1.087,-0.88575,-10.98,36.6,20.34
4.018,-11.169,-0.98067,0.18998,-1.2486,-0.97128,-11.34,36.6,20.16
3.8273,-11.046,-1.0624,0.1741,-1.1997,-1.0669,-11.88,36.54,20.16
3.5685,-10.311,-1.0079,0.13286,-1.0354,-1.0959,-12.72,36.24,20.04
3.5413,-9.5479,-1.0896,0.094684,-0.8769,-1.1136,-13.26,36.0,20.16
3.4596,-8.4174,-1.0488,0.054672,-0.8039,-1.1093,-13.86,35.82,20.16
3.3915,-7.6002,-0.8717,0.0073304,-0.80237,-1.1387,-14.94,35.52,20.22
3.2689,-7.1915,-0.83084,-0.06017,-0.82864,-1.2147,-15.54,35.34,20.28
3.1054,-7.1234,-0.85808,-0.1292,-0.80665,-1.2764,-16.14,35.16,20.58
2.9556,-7.2324,-0.92618,-0.2135,-0.73945,-1.3222,-17.4,34.62,20.7
2.7649,-7.3005,-0.77636,-0.31124,-0.61239,-1.3592,-18.0,34.38,20.76
2.6287,-7.3822,-0.7355,-0.40714,-0.45143,-1.3821,-18.54,34.38,20.82
2.4653,-7.5457,-0.50395,-0.50305,-0.22419,-1.3787,-19.86,33.96,21.12
2.4108,-7.6683,-0.35413,-0.62094,0.12706,-1.3225,-20.58,33.66,21.12
2.438,-7.75,-0.32689,-0.67195,0.29841,-1.2233,-21.24,33.36,21.06
2.4653,-7.8589,-0.38137,-0.70616,0.40103,-1.0479,-22.02,33.06,20.94
2.6015,-8.1995,-0.24517,-0.73609,0.45632,-0.79321,-22.74,32.76,20.82
2.7241,-8.9894,-0.24517,-0.75259,0.49694,-0.29016,-24.12,32.34,20.58
2.7513,-9.2346,-0.12258,-0.73823,0.55955,0.090713,-24.72,31.92,20.52
2.9011,-9.5479,-0.10896,-0.71777,0.58704,0.28344,-25.44,31.5,20.46
3.1054,-9.1937,-0.20431,-0.56933,0.57177,0.81276,-26.76,30.66,20.16
3.4459,-11.196,-0.17706,-0.44074,0.41478,1.285,-27.24,30.36,20.1
3.8682,-11.55,-0.21793,-0.31521,0.30696,1.7459,-27.48,30.18,19.92
4.1814,-10.733,-0.7355,-0.16005,0.17562,2.0604,-27.9,29.58,19.98
4.4402,-9.9973,-1.1032,0.10568,-0.033903,2.3436,-27.96,29.46,19.92
4.413,-9.4798,-1.6753,0.25901,-0.22083,2.2153,-27.9,29.28,20.04
4.2768,-9.5206,-2.1384,0.3091,-0.31673,2.1426,-27.72,29.4,20.22
4.4539,-11.863,-2.2746,0.29596,-0.58307,1.7972,-26.76,29.64,20.88
4.2223,-12.572,-1.8251,0.13744,-0.47128,1.4856,-26.34,29.76,21.36
3.7184,-12.163,-1.185,-0.084605,-0.04215,1.1374,-25.8,29.94,21.72
3.1191,-10.42,-1.0215,-0.19364,0.58124,0.7926,-24.42,30.54,22.44
3.4323,-9.4934,-1.5255,-0.17898,1.3864,0.3488,-23.64,30.84,22.8
3.9499,-7.7772,-1.4846,-0.065057,1.6301,0.13836,-22.62,31.26,23.22
4.3313,-7.069,-1.5255,0.098349,1.5586,0.079107,-21.9,31.8,23.58
4.985,-5.9793,-1.0624,0.21319,1.1335,0.13897,-20.4,32.46,24.06
4.6854,-5.5162,-0.6674,0.32009,0.57177,0.23121,-19.68,32.82,24.24
4.4539,-5.2438,-0.61292,0.37232,0.053451,0.34331,-19.08,33.12,24.36
4.0589,-5.489,-0.88532,0.4554,-0.44104,0.55558,-18.06,33.66,24.54
3.9908,-5.8976,-1.185,0.50457,-0.52962,0.71624,-17.52,33.9,24.54
4.0861,-6.3335,-1.3212,0.5284,-0.53787,0.85338,-17.16,34.08,24.36
4.4811,-6.8238,-1.7025,0.54275,-0.53909,0.94898,-16.56,34.74,23.82
4.7399,-7.0417,-1.9477,0.5452,-0.6072,0.99357,-16.2,34.98,23.52
4.9169,-7.2596,-1.9886,0.52687,-0.74648,0.91202,-15.78,35.28,23.34
4.8897,-7.9543,-2.2882,0.52931,-0.79626,0.85063,-15.12,35.76,22.8
4.8488,-8.3765,-2.3836,0.49022,-0.88606,0.59376,-14.76,36.12,22.5
4.9714,-8.8805,-2.5742,0.46731,-0.90927,0.49877,-14.28,36.36,22.26
5.38,-11.032,-2.9284,0.3259,-0.9499,0.26176,-13.38,37.14,21.96
5.1621,-12.149,-2.7922,0.14691,-0.84238,0.082161,-12.9,37.44,21.9
4.8897,-12.83,-1.9477,-0.065668,-0.51038,-0.16921,-12.3,37.8,21.84
3.8682,-13.484,-1.6344,-0.26909,0.32712,-0.67378,-11.16,38.46,21.54
3.9227,-14.506,-1.5255,-0.37415,0.90194,-0.91508,-10.8,38.64,21.48
4.2359,-13.348,-1.1577,-0.4328,1.3347,-1.1668,-10.5,38.82,21.42
4.7671,-11.332,-0.8717,-0.34086,1.4655,-1.2737,-10.38,38.82,21.6
5.1485,-10.583,-0.8036,-0.22938,1.2303,-1.2541,-10.38,38.82,21.6
5.2847,-9.7249,-0.68102,-0.078802,0.64202,-1.2813,-10.8,38.76,21.54
5.1485,-9.8339,-0.36775,0.078802,-0.089492,-1.1658,-11.52,38.64,21.24
4.9578,-9.902,-0.24517,0.18387,-0.83719,-0.99754,-12.06,38.28,21.36
4.699,-9.7522,-0.21793,0.28741,-1.7034,-0.79351,-12.6,38.1,21.36
4.0044,-10.243,-0.49033,0.29749,-1.9731,-0.63438,-13.5,37.5,21.42
3.8137,-10.515,-0.61292,0.25351,-2.0498,-0.53512,-13.98,37.2,21.48
3.7728,-10.637,-0.57205,0.15821,-1.9334,-0.44288,-14.52,36.9,21.36
3.4187,-10.12,-0.54481,-0.040928,-1.4963,-0.44502,-15.54,36.3,21.6
3.2825,-9.5751,-0.49033,-0.10721,-1.3063,-0.46945,-15.96,35.88,21.84
2.9965,-8.9622,-0.40861,-0.23152,-0.94287,-0.5904,-16.44,35.64,22.02
3.0373,-8.4038,-0.39499,-0.35308,-0.45968,-0.8375,-16.92,35.04,22.2
3.2144,-8.2539,-0.44947,-0.40561,-0.25443,-1.004,-17.04,34.74,22.38
3.2825,-8.3357,-0.21793,-0.45051,-0.14813,-1.1374,-17.04,34.5,22.56
3.051,-8.2812,-0.01362,-0.50641,-0.058338,-1.3195,-17.28,33.72,23.04
2.9011,-8.0905,0.095342,-0.51679,0.018021,-1.4218,-17.52,33.48,23.16
2.8058,-8.036,0.12258,-0.51862,0.058948,-1.4554,-17.82,33.12,23.16
2.8467,-7.6546,0.095342,-0.48045,0.094684,-1.5088,-18.24,32.82,23.16
2.7649,-7.3822,0.068102,-0.43402,0.055589,-1.4795,-19.32,31.92,23.22
2.6151,-7.3414,0.040861,-0.37996,-0.012523,-1.3974,-19.74,31.62,23.22
2.7513,-7.8045,-0.01362,-0.36377,-0.065973,-1.2248,-20.34,31.08,23.16
2.6015,-8.7443,-0.040861,-0.38485,-0.055589,-0.80543,-21.66,30.12,22.74
2.6015,-9.6432,-0.027241,-0.40561,0.048564,-0.43768,-22.26,29.58,22.68
2.5742,-9.8339,-0.040861,-0.40042,0.19303,-0.050702,-22.86,29.04,22.5
2.6832,-9.7522,-0.42223,-0.35155,0.30574,0.35216,-24.12,27.96,22.26
2.8603,-11.06,-0.40861,-0.28008,0.32193,0.8714,-24.78,27.6,22.2
3.5685,-10.678,-0.78998,-0.14722,0.35155,1.6011,-25.86,26.82,21.84
3.8409,-10.161,-1.2531,-0.010385,0.26878,2.0137,-26.16,26.58,21.66
4.2223,-10.011,-1.7979,0.1179,0.089186,2.3506,-26.28,26.4,21.72
4.4675,-9.221,-2.1656,0.18143,-0.002138,2.4123,-26.4,26.16,21.66
4.3177,-8.0632,-2.6696,0.25351,-0.40561,2.3466,-26.34,26.1,21.6
4.2768,-8.8124,-2.8875,0.22907,-0.75869,2.2046,-26.1,26.22,21.78
4.3177,-9.902,-2.833,0.10201,-0.84574,1.8473,-25.92,26.58,22.08
3.5685,-11.931,-2.3155,-0.076358,-0.6744,1.7208,-24.96,27.0,22.8
3.0237,-11.85,-2.1248,-0.34972,0.40775,1.2465,-24.18,27.36,23.1
2.8875,-11.441,-1.975,-0.43677,1.3937,0.89614,-23.64,27.78,23.34
3.6775,-10.256,-1.9613,-0.40409,2.1105,0.61178,-22.38,28.62,23.94
4.1814,-9.1937,-1.9613,-0.29688,2.4651,0.38118,-21.66,28.86,24.24
4.7944,-8.0769,-1.471,-0.063835,2.1197,0.19395,-20.52,29.64,24.9
5.2575,-6.5378,-1.2395,0.039706,1.4215,0.16432,-20.04,29.82,25.08
4.9578,-5.9793,-1.1032,0.090408,0.66065,0.15577,-19.68,30.06,25.2
4.5356,-5.6388,-1.0215,0.11209,0.12767,0.17287,-19.14,30.3,25.38
3.6094,-5.3256,-1.1032,0.1347,-0.034819,0.23976,-18.72,30.66,25.5
3.4459,-5.3937,-1.1032,0.15944,0.034208,0.36011,-18.6,30.72,25.68
3.5413,-5.6252,-1.2939,0.20067,0.1854,0.49877,-18.42,30.66,25.56
4.1542,-5.9657,-1.4438,0.30299,0.21441,0.72174,-18.36,30.78,25.02
4.5764,-6.4288,-1.6753,0.36866,0.047037,0.85216,-18.66,30.84,24.78
4.7263,-6.6467,-1.7298,0.43799,-0.18357,0.91752,-18.66,30.96,24.6
4.8625,-7.069,-2.0158,0.50121,-0.38943,0.93676,-18.84,31.14,24.3
4.8897,-7.927,-2.4244,0.54275,-0.56291,0.89492,-18.72,31.62,23.58
5.0123,-8.9077,-2.833,0.55711,-0.70127,0.79535,-18.66,31.8,23.22
5.0668,-10.256,-3.0237,0.49511,-0.77274,0.60506,-18.18,32.58,22.86
5.094,-11.169,-3.0237,0.39309,-0.70616,0.46304,-17.82,32.94,22.74
4.9987,-12.013,-2.9692,0.24129,-0.47556,0.28497,-17.58,33.36,22.62
4.3449,-12.612,-2.4517,0.1014,-0.028405,0.026878,-16.92,34.08,22.26
4.0589,-14.192,-2.4108,0.0076358,0.51191,-0.20892,-16.62,34.38,22.02
4.6718,-14.029,-2.2201,-0.15913,1.0925,-0.46823,-16.38,34.74,21.84
4.6854,-11.877,-1.7025,-0.15699,1.5647,-0.73548,-16.08,35.22,21.72
5.3528,-11.196,-1.6344,-0.10812,1.4597,-0.82009,-15.96,35.46,21.66
5.3528,-10.338,-1.6344,-0.012217,1.0715,-0.99266,-16.08,35.58,21.54
5.4481,-9.7385,-1.4574,0.11393,0.43402,-1.0382,-16.62,35.76,21.42
5.5435,-10.215,-1.471,0.21625,-0.32529,-1.0064,-16.92,35.7,21.36
5.3528,-10.597,-1.471,0.24038,-1.0253,-1.0064,-17.34,35.7,21.42
4.4675,-10.964,-1.3212,0.18906,-1.5956,-0.93615,-18.36,35.28,21.24
4.0452,-10.842,-1.3212,0.15547,-1.6729,-0.92821,-18.9,35.04,21.42
3.6775,-10.651,-1.2258,0.0058032,-1.5363,-0.90897,-19.5,34.74,21.36
3.228,-9.9292,-1.0896,-0.11729,-1.2184,-0.94195,-20.46,33.9,21.66
3.051,-9.2482,-0.99429,-0.22541,-0.82131,-1.0015,-21.0,33.42,21.84
3.0918,-8.4038,-0.8036,-0.2981,-0.46365,-1.091,-21.6,32.94,22.02
3.1463,-7.6002,-0.58567,-0.34208,-0.2416,-1.2336,-22.74,32.1,22.26
3.2144,-7.4776,-0.70826,-0.36957,-0.16952,-1.2892,-23.4,31.68,22.38
3.2553,-7.5593,-0.50395,-0.38271,-0.18051,-1.3234,-24.06,31.2,22.44
3.0373,-7.5048,-0.20431,-0.41447,-0.20556,-1.3677,-25.26,29.94,22.98
2.833,-7.4367,-0.14982,-0.43707,-0.16646,-1.3534,-25.86,29.22,23.16
2.7922,-7.4095,-0.14982,-0.43371,-0.10721,-1.3063,-26.46,28.68,23.16
2.7786,-7.4503,-0.027241,-0.43066,-0.036041,-1.1689,-27.6,27.48,23.52
2.6423,-7.2596,0.1362,-0.39126,0.022907,-1.0553,-28.14,26.88,23.46
2.5742,-7.2188,0.21793,-0.35705,0.058338,-0.98166,-28.68,26.28,23.52
2.5606,-7.2869,0.12258,-0.27275,0.095295,-0.64904,-29.22,25.8,23.28
2.9556,-8.1041,0.027241,-0.20708,0.034208,-0.33323,-30.48,24.96,22.92
2.9965,-8.7306,-0.040861,-0.12828,-0.036957,0.035125,-30.96,24.48,22.74
3.2008,-9.4117,-0.21793,-0.053145,-0.12126,0.45601,-31.44,24.0,22.68
3.4323,-9.6023,-0.55843,0.082161,-0.25076,1.0867,-32.1,23.28,22.32
3.623,-9.398,-0.88532,0.18662,-0.38668,1.4364,-32.22,22.98,22.32
3.8273,-10.433,-1.0215,0.26634,-0.59865,1.847,-32.34,22.92,22.14
4.2632,-12.463,-1.3212,0.29199,-0.6689,2.2248,-32.1,22.98,22.08
4.304,-12.108,-1.7025,0.30604,-0.6805,2.3381,-31.86,22.92,22.2
4.4402,-10.992,-1.9886,0.28191,-0.60537,2.3909,-31.5,22.92,22.08
4.0316,-9.6432,-2.0158,0.25473,-0.46945,2.0711,-30.66,23.34,22.5
4.1542,-9.1256,-2.1384,0.23671,-0.54611,1.6457,-30.18,23.58,22.62
4.5764,-9.616,-2.3427,0.14936,-0.57666,1.2065,-29.58,24.0,22.92
4.9578,-11.414,-2.8875,0.012828,-0.43555,0.74831,-27.72,24.72,23.82
4.2904,-11.741,-2.6015,-0.14844,0.016493,0.31643,-27.0,25.08,24.24
3.5004,-11.441,-2.1656,-0.27214,0.77855,-0.084605,-26.04,25.5,24.54
3.5413,-10.011,-1.6344,-0.29566,1.7672,-0.59193,-24.3,26.1,25.68
3.7865,-8.9894,-1.4438,-0.23274,2.0598,-0.759,-23.64,26.34,25.98
4.1133,-7.7772,-1.2531,-0.13073,1.9697,-0.85582,-22.98,26.58,26.28
4.3177,-6.8374,-1.076,-0.044593,1.5473,-0.85674,-22.44,26.76,26.52
4.0861,-5.3937,-0.74912,0.026267,1.0186,-0.78618,-22.02,27.12,26.64
3.9227,-4.985,-0.76274,0.083078,0.52229,-0.66798,-21.9,27.12,26.52
3.4459,-4.5628,-0.8036,0.14416,0.11881,-0.48014,-21.78,27.06,26.4
3.2825,-4.7671,-0.8717,0.20159,-0.10812,-0.24068,-21.84,26.94,26.16
3.2553,-5.0123,-1.1032,0.30635,-0.28711,0.15394,-21.96,26.88,25.98
3.2416,-5.4073,-1.2258,0.34422,-0.32559,0.41966,-22.26,26.7,25.92
3.5277,-5.9657,-1.4982,0.38271,-0.36255,0.66187,-22.44,26.64,25.56
3.9227,-7.1234,-1.866,0.38179,-0.39279,0.86865,-22.8,26.7,25.02
4.0316,-7.4503,-1.9613,0.35552,-0.37171,1.0195,-23.04,26.58,24.66
3.8137,-7.5729,-2.0567,0.34208,-0.33475,1.0189,-23.16,26.88,24.0
3.8001,-7.9951,-2.1656,0.34636,-0.24862,0.95723,-22.98,27.0,23.82
3.9227,-8.4582,-2.3018,0.3207,-0.26725,0.91019,-22.74,27.24,23.82
4.5764,-10.774,-2.9965,0.25107,-0.22358,0.89461,-21.9,27.6,23.82
5.0259,-12.136,-2.8058,0.15027,-0.21655,0.83108,-21.36,28.02,23.94
4.8761,-12.858,-2.4789,-0.080329,-0.009163,0.66981,-20.28,28.74,24.06
4.0589,-15.377,-1.8932,-0.17837,0.46609,0.5678,-19.68,29.1,24.06
4.2359,-14.955,-1.6617,-0.27519,0.8094,0.46976,-19.08,29.34,24.12
4.413,-12.612,-1.2531,-0.37171,1.6579,0.036957,-18.6,29.7,24.06
4.6582,-12.054,-0.99429,-0.30391,1.8555,-0.086132,-18.42,29.94,24.0
5.38,-10.161,-0.96704,-0.18631,1.6335,-0.27733,-17.94,30.42,23.7
5.6524,-10.025,-0.92618,0.032376,0.64049,-0.38332,-17.7,30.78,23.52
6.1428,-10.283,-0.68102,0.093462,0.19212,-0.35827,-17.4,30.84,23.34
5.5162,-9.9565,-0.65378,0.18204,-0.67806,-0.34819,-17.16,31.08,23.16
4.8897,-9.9292,-0.69464,0.23824,-1.5488,-0.37446,-17.1,31.14,22.8
4.4811,-9.8611,-0.7355,0.23335,-1.7404,-0.3937,-17.04,31.2,22.68
4.2223,-9.9837,-0.77636,0.1854,-1.6826,-0.39951,-16.98,31.26,22.62
3.8546,-9.3027,-0.85808,0.10293,-1.3677,-0.45051,-17.04,30.9,22.44
3.6911,-8.9349,-0.85808,-0.045204,-1.113,-0.55039,-16.98,30.84,22.38
3.623,-8.1313,-0.74912,-0.12309,-0.88606,-0.69364,-17.16,30.78,22.32
3.5004,-7.3277,-0.55843,-0.1909,-0.73212,-0.85796,-17.46,30.72,22.32
3.4732,-7.0553,-0.40861,-0.23457,-0.63499,-1.0171,-17.4,30.72,22.32
3.4596,-7.0281,-0.40861,-0.27061,-0.58704,-1.157,-17.46,30.66,22.38
3.2689,-7.8998,-0.32689,-0.30757,-0.54092,-1.233,-17.64,30.36,22.62
3.0237,-8.0088,-0.27241,-0.37904,-0.32376,-1.3653,-17.82,30.24,22.68
2.8739,-8.0905,-0.23155,-0.40103,-0.23518,-1.3967,-18.0,30.0,22.74
2.942,-8.2812,-0.17706,-0.44227,-0.016493,-1.4306,-18.36,29.82,22.98
2.9284,-8.5944,-0.14982,-0.45479,0.073304,-1.4276,-19.14,29.46,23.16
2.9011,-8.6762,-0.14982,-0.46212,0.12065,-1.398,-19.74,29.16,23.16
2.9148,-8.9077,-0.14982,-0.4444,0.12126,-1.2831,-20.28,29.04,23.1
2.8603,-10.188,-0.23155,-0.45479,0.1741,-0.92271,-21.48,28.68,22.92
2.9965,-10.801,-0.21793,-0.45326,0.20831,-0.77824,-22.14,28.32,22.86
3.0918,-11.06,-0.29965,-0.41753,0.31673,-0.28436,-22.98,28.08,22.68
3.228,-10.12,-0.58567,-0.35705,0.31918,0.029627,-24.12,27.24,22.56
3.2961,-10.706,-0.47671,-0.26359,0.17501,0.40042,-24.84,26.82,22.56
3.7728,-11.85,-0.55843,-0.1854,0.03879,0.84147,-25.5,26.46,22.38
3.5685,-9.8884,-0.98067,-0.02474,-0.066584,1.1637,-26.52,26.1,22.44
3.8682,-9.2074,-1.4438,0.083383,-0.11942,1.3158,-26.94,25.86,22.44
3.8818,-8.5672,-1.7025,0.13103,-0.16493,1.3051,-27.36,25.74,22.26
3.4868,-8.4582,-2.152,0.1799,-0.33017,1.1365,-27.6,25.38,22.2
3.5549,-9.6023,-2.1929,0.14447,-0.35125,1.0944,-27.66,25.44,22.14
3.5549,-10.637,-2.0567,-0.002138,-0.2193,1.0116,-27.6,25.5,22.26
3.1463,-11.727,-1.6344,-0.17715,0.081245,0.91783,-27.36,25.56,22.62
2.9011,-11.25,-1.4574,-0.34819,0.58246,0.81489,-27.0,25.62,22.92
3.1191,-10.542,-1.5119,-0.39065,1.1521,0.64446,-26.76,25.74,23.04
3.6094,-9.793,-1.7706,-0.27092,1.569,0.44807,-26.58,25.98,23.16
4.2632,-7.3822,-1.9613,-0.093157,1.5,0.35583,-26.04,26.4,23.28
4.699,-6.5514,-1.8387,0.058338,1.1646,0.3317,-25.74,26.52,23.46
4.413,-5.6388,-1.4165,0.17868,0.36255,0.38332,-25.14,26.58,23.64
3.8137,-5.1485,-1.1441,0.20708,-0.034514,0.38637,-24.84,26.94,23.7
3.5958,-5.0259,-1.1032,0.22205,-0.19334,0.4444,-24.54,27.06,23.76
3.3097,-5.4209,-1.2531,0.25137,-0.17715,0.52626,-24.06,27.48,23.64
3.4459,-5.8023,-1.3757,0.26664,-0.1066,0.65515,-23.88,27.6,23.64
3.6366,-6.2245,-1.4029,0.29169,-0.055283,0.79504,-23.7,27.66,23.58
4.1406,-6.8647,-1.5663,0.31429,-0.072693,0.95112,-23.52,28.08,23.34
4.2495,-7.0826,-1.7025,0.36591,-0.17623,1.1041,-23.34,28.44,23.16
4.2495,-7.0826,-1.7025,0.36591,-0.17623,1.1041,-23.34,28.44,23.16
4.3449,-7.5321,-1.9613,0.41111,-0.25534,1.0733,-22.68,28.86,22.92
4.413,-7.927,-2.0567,0.43097,-0.27,0.98869,-22.26,29.34,22.86
4.8625,-9.793,-2.3836,0.43524,-0.33811,0.89461,-21.36,30.0,22.62
5.0259,-10.406,-2.5742,0.40256,-0.40684,0.81428,-21.06,30.42,22.5
5.0531,-11.482,-2.6696,0.31246,-0.43891,0.71929,-20.46,30.96,22.44
4.522,-12.177,-2.1248,0.13134,-0.10507,0.4441,-19.56,31.62,22.38
3.9635,-12.762,-1.8932,0.041233,0.36224,0.22052,-19.02,31.86,22.38
4.127,-14.083,-1.9613,-0.061697,0.85216,0.079718,-18.54,32.22,22.38
4.7399,-12.898,-1.5527,-0.1744,1.2984,-0.1689,-17.7,32.76,22.32
5.1349,-11.768,-1.4029,-0.17013,1.5382,-0.31307,-16.98,33.12,22.2
5.3256,-10.733,-1.2667,-0.10263,1.2779,-0.47739,-16.86,33.12,22.08
5.1621,-9.4525,-1.1577,-0.000916,0.82986,-0.6408,-16.92,33.3,22.02
5.3256,-9.6977,-1.1305,0.12034,0.19456,-0.66065,-16.92,33.36,21.9
5.6797,-10.637,-1.185,0.17837,-0.4945,-0.70799,-17.04,33.18,21.78
5.0259,-11.087,-1.2803,0.19914,-1.0256,-0.79535,-17.34,32.94,21.54
4.4402,-11.21,-1.185,0.1854,-1.2703,-0.85582,-17.52,32.7,21.42
3.909,-11.032,-1.0624,0.13073,-1.325,-0.93218,-17.82,32.04,21.24
3.6639,-10.678,-0.89894,0.045815,-1.2159,-0.9838,-18.06,31.8,21.3
3.5413,-9.8475,-0.96704,-0.064752,-0.92485,-1.0803,-18.42,31.56,21.24
3.4187,-8.431,-0.9398,-0.1014,-0.78618,-1.131,-19.14,30.6,21.24
3.337,-7.8317,-0.85808,-0.13256,-0.72204,-1.193,-19.5,30.18,21.24
3.3506,-7.3686,-0.81722,-0.15058,-0.72296,-1.2456,-20.28,29.34,21.18
3.0918,-7.2733,-0.69464,-0.21044,-0.7645,-1.2917,-20.58,28.74,21.24
3.0101,-7.2596,-0.57205,-0.2755,-0.73823,-1.2993,-20.94,28.08,21.3
2.942,-7.2869,-0.5993,-0.30727,-0.70463,-1.2993,-21.36,27.48,21.36
2.6423,-7.3958,-0.50395,-0.4215,-0.52198,-1.2697,-22.08,26.46,21.48
2.6423,-7.4912,-0.36775,-0.49358,-0.36163,-1.2318,-22.56,25.92,21.66
2.6015,-7.7091,-0.35413,-0.55131,-0.18234,-1.1726,-22.86,25.56,21.9
2.5198,-7.5865,-0.14982,-0.60628,0.069639,-1.0531,-24.0,24.78,21.6
2.5334,-7.8045,-0.12258,-0.61392,0.13103,-0.98807,-24.6,24.06,21.42
2.6696,-8.2131,-0.19068,-0.61087,0.21625,-0.72265,-25.14,23.58,21.24
2.7513,-9.3163,-0.12258,-0.61575,0.24068,-0.4612,-26.1,22.68,21.12
2.7377,-9.9156,-0.040861,-0.60018,0.30116,-0.12645,-26.58,22.14,20.94
2.9692,-10.392,-0.081722,-0.57208,0.37813,0.2306,-27.0,21.6,20.82
3.4732,-10.215,-0.39499,-0.44013,0.4102,0.73121,-27.84,20.82,20.82
3.514,-10.896,-0.46309,-0.32193,0.26359,1.1515,-28.14,20.52,20.64
4.1678,-12.626,-0.38137,-0.27703,0.23671,1.3601,-28.44,20.16,20.46
4.3994,-11.223,-0.85808,-0.04612,0.090408,1.675,-28.62,19.62,20.34
4.8352,-10.964,-1.4846,0.11515,-0.076053,1.8237,-28.74,19.38,20.22
4.985,-10.12,-2.1112,0.27733,-0.30849,1.7119,-28.68,19.08,20.16
4.6445,-9.7249,-2.7241,0.35491,-0.60598,1.3131,-28.38,18.72,20.46
4.4539,-9.9973,-2.6696,0.28863,-0.81245,1.0253,-28.08,18.9,20.64
4.1406,-10.27,-2.4653,0.20892,-0.75503,0.84788,-27.72,18.9,20.94
3.1191,-10.134,-1.6889,-0.050091,-0.17654,0.4273,-26.82,19.2,21.54
2.7377,-9.7385,-1.5936,-0.18998,0.45235,0.23732,-26.34,19.32,21.96
2.9011,-9.0848,-1.6072,-0.26084,1.0675,0.087354,-25.86,19.56,22.32
3.4051,-7.8589,-1.6617,-0.30329,1.4887,-0.0024435,-24.84,19.98,22.86
3.5822,-7.2869,-1.58,-0.17746,1.7229,-0.031765,-24.36,20.22,23.22
4.0861,-6.1564,-1.4438,-0.11209,1.6487,-0.0039706,-23.94,20.46,23.58
4.304,-5.1485,-1.0488,0.12553,1.0198,0.18082,-23.34,20.94,23.88
4.2768,-5.0531,-1.0624,0.25381,0.4496,0.31001,-22.98,21.18,24.06
4.1678,-5.1076,-0.92618,0.33231,-0.07086,0.45418,-22.74,21.48,24.12
3.6366,-5.5299,-1.2531,0.39156,-0.39584,0.60995,-22.32,21.96,24.06
3.623,-6.0883,-1.3757,0.43249,-0.46426,0.80512,-22.2,21.96,24.06
3.6775,-6.4697,-1.5391,0.43616,-0.37141,0.88911,-21.9,22.2,24.0
3.7184,-6.8102,-1.5936,0.44135,-0.3094,0.91721,-21.9,22.26,23.64
4.1542,-7.2324,-1.8387,0.44257,-0.16799,0.96303,-21.42,22.68,23.28
4.3449,-7.2596,-1.8932,0.45143,-0.18082,0.93676,-21.48,22.86,23.16
4.3994,-7.4095,-2.0158,0.4612,-0.26176,0.86224,-21.18,23.16,22.92
4.4811,-8.7306,-2.1248,0.49022,-0.42791,0.70921,-20.52,23.7,22.5
4.6445,-9.8475,-2.2474,0.47922,-0.46853,0.6744,-20.1,24.12,22.44
4.7807,-11.06,-2.4789,0.41905,-0.50824,0.613,-19.56,24.36,22.32
4.7126,-12.572,-2.4517,0.23274,-0.35247,0.50457,-18.54,25.02,22.14
4.3449,-12.572,-2.0567,0.058032,-0.035736,0.34941,-18.12,25.44,22.02
3.9499,-12.803,-1.8932,-0.058643,0.65057,0.090103,-17.04,26.1,22.02
4.7126,-14.533,-1.866,-0.18784,1.0757,-0.032681,-16.68,26.64,21.84
4.9306,-12.299,-1.8251,-0.21105,1.3057,-0.24129,-16.44,26.82,21.84
5.0395,-11.727,-1.6617,-0.16707,1.2642,-0.28436,-16.14,27.18,21.78
5.4754,-11.032,-1.6344,-0.12859,0.94287,-0.40164,-16.14,27.48,21.72
5.2847,-10.011,-1.3757,-0.06353,0.44135,-0.5681,-15.6,27.9,21.54
5.38,-11.073,-1.2803,-0.023824,-0.079107,-0.61636,-15.66,27.96,21.36
4.8897,-11.536,-1.1986,-0.048258,-0.53115,-0.7138,-15.6,28.08,21.42
4.018,-11.019,-1.0079,-0.07758,-0.76786,-0.92454,-15.72,28.14,21.18
3.8682,-10.61,-1.0488,-0.076358,-0.69364,-1.0754,-16.02,28.14,21.18
3.7865,-10.501,-0.96704,-0.081245,-0.60292,-1.1512,-16.14,27.96,21.18
3.8137,-9.7794,-0.91256,-0.091019,-0.57452,-1.2043,-16.44,27.66,21.18
3.8682,-9.2482,-0.92618,-0.09896,-0.59926,-1.2364,-16.8,27.42,21.12
3.5004,-8.1995,-0.62654,-0.11087,-0.67348,-1.2526,-17.1,27.12,21.24
3.2825,-7.7091,-0.64016,-0.16982,-0.75533,-1.288,-17.52,26.4,21.36
3.0237,-7.5048,-0.65378,-0.22694,-0.72265,-1.3143,-17.76,26.04,21.54
3.0101,-7.3958,-0.5993,-0.2755,-0.63835,-1.321,-18.0,25.62,21.54
2.7377,-7.1234,-0.5993,-0.33811,-0.51618,-1.3033,-18.78,24.96,21.66
2.6423,-6.8238,-0.42223,-0.39706,-0.38057,-1.2758,-19.2,24.48,21.66
2.5879,-6.8919,-0.40861,-0.44654,-0.26298,-1.215,-19.68,23.94,21.66
2.6287,-7.0145,-0.34051,-0.51068,-0.10232,-1.0855,-20.46,22.92,21.78
2.5879,-6.9736,-0.28603,-0.53817,-0.020769,-0.97372,-20.7,22.44,21.72
2.6015,-7.0145,-0.25879,-0.54275,0.0088575,-0.84574,-21.18,22.08,21.48
2.6832,-7.8726,-0.38137,-0.53665,0.0033598,-0.64813,-22.26,21.12,21.06
2.833,-8.5944,-0.32689,-0.54611,-0.010079,-0.40287,-22.68,20.64,20.82
2.942,-10.161,-0.39499,-0.562,-0.007025,-0.099266,-23.7,19.74,20.16
3.2144,-10.61,-0.47671,-0.58185,0.080329,0.24923,-24.12,19.38,19.8
3.2961,-10.665,-0.58567,-0.5229,0.28955,0.70188,-24.48,19.02,19.56
3.337,-11.645,-0.50395,-0.46426,0.35491,1.0751,-24.78,18.6,19.26
4.2359,-12.83,-0.51757,-0.37415,0.44776,1.4508,-25.08,17.7,18.96
4.5356,-11.536,-0.74912,-0.22113,0.3934,1.6667,-25.08,17.4,18.96
4.9714,-10.896,-1.2258,-0.012523,0.17746,1.9035,-25.14,17.22,18.84
5.0668,-8.4446,-2.1112,0.32926,-0.35369,1.7831,-25.14,16.8,18.84
4.8352,-8.4446,-2.3699,0.4945,-0.78252,1.5666,-25.02,16.74,18.96
4.7263,-8.826,-2.5334,0.52565,-1.1087,1.3112,-24.9,16.62,19.08
4.0452,-9.8066,-2.3427,0.41905,-1.146,0.96608,-24.18,16.92,19.86
3.4732,-10.243,-1.975,0.2361,-0.84452,0.70494,-23.64,17.04,20.28
2.9829,-10.365,-1.5936,0.059254,-0.25504,0.51832,-23.22,17.22,20.7
2.7377,-9.616,-1.6889,-0.072388,0.49786,0.36499,-22.14,17.58,21.72
3.0646,-9.3027,-1.7979,-0.14508,1.4419,0.22785,-21.48,17.82,21.96
3.8001,-8.1995,-2.0294,-0.088881,1.7291,0.14752,-20.94,18.0,22.26
4.4675,-6.4424,-2.0567,0.03879,1.6738,0.11301,-20.1,18.54,22.56
4.6854,-5.7614,-1.7843,0.18204,1.2966,0.12645,-19.74,18.78,22.62
4.4811,-5.5435,-1.4438,0.29291,0.78099,0.17715,-19.32,19.02,22.68
3.9499,-5.598,-1.1577,0.39095,0.17196,0.23305,-18.66,19.56,22.68
3.732,-5.3528,-1.2939,0.4444,0.017104,0.31276,-18.42,19.62,22.56
3.732,-5.2575,-1.3757,0.48197,-0.032376,0.36713,-18.18,19.92,22.56
4.1814,-5.6116,-1.866,0.59651,-0.20495,0.60689,-18.0,20.04,22.38
4.5764,-6.0747,-2.0294,0.67073,-0.40714,0.7422,-18.0,20.16,22.08
4.7671,-6.6467,-2.5198,0.7028,-0.65393,0.83383,-17.82,20.28,21.78
4.699,-7.3141,-2.8739,0.66706,-0.7981,0.86254,-17.76,20.58,21.24
4.5356,-7.5321,-2.9829,0.60934,-0.80329,0.79932,-17.64,20.76,21.12
4.2223,-8.0224,-3.1054,0.51832,-0.73212,0.71257,-17.46,21.24,20.94
4.018,-9.3027,-3.337,0.30757,-0.36316,0.55741,-16.8,21.96,20.76
4.6173,-10.379,-3.0918,0.16157,-0.13867,0.35797,-16.44,22.32,20.7
5.0259,-11.686,-2.7104,-0.0054978,-0.071471,0.16218,-16.2,22.74,20.64
4.1542,-12.585,-2.1384,-0.219,0.24221,-0.062308,-15.36,23.34,21.0
3.7047,-13.457,-1.9341,-0.24984,0.48686,-0.16738,-14.94,23.76,21.12
3.9499,-15.8,-1.8387,-0.34758,1.0733,-0.33201,-14.7,23.94,21.24
4.699,-13.471,-1.3484,-0.4609,1.7217,-0.56169,-14.1,24.54,21.3
4.8625,-12.544,-1.2803,-0.39187,1.8137,-0.57605,-14.04,24.78,21.48
4.9169,-11.25,-0.92618,-0.29535,1.5947,-0.67501,-13.98,24.9,21.54
5.0804,-9.0575,-0.84446,-0.045204,0.67042,-0.87568,-13.92,25.14,21.66
5.2575,-9.7249,-0.8036,0.081245,-0.14447,-0.87201,-14.22,25.14,21.72
5.0804,-10.161,-0.7355,0.1179,-0.52351,-0.88148,-14.4,24.96,21.84
4.4811,-10.283,-0.61292,0.11148,-1.1576,-0.92027,-14.7,24.96,21.9
3.5413,-10.433,-0.57205,0.062003,-1.2336,-0.92454,-15.36,24.66,21.84
3.228,-10.515,-0.54481,-0.015272,-1.0699,-0.91966,-15.48,24.48,21.9
3.0101,-10.161,-0.50395,-0.10934,-0.54825,-0.89461,-16.32,24.24,21.78
3.0237,-8.6217,-0.35413,-0.14019,-0.26084,-0.8769,-16.68,24.12,21.72
3.1872,-7.7908,-0.61292,-0.135,-0.15485,-0.90133,-16.98,24.06,21.72
3.4051,-7.2188,-0.51757,-0.11179,-0.21747,-0.92729,-17.28,23.7,21.72
3.3506,-6.7693,-0.44947,-0.090713,-0.3766,-0.95326,-17.7,23.4,21.6
3.2416,-6.6604,-0.57205,-0.075747,-0.54581,-0.96059,-18.06,23.28,21.48
2.9692,-6.8919,-0.50395,-0.11057,-0.64904,-0.97616,-18.54,23.16,21.3
2.6151,-7.2188,-0.40861,-0.18082,-0.5736,-0.96364,-18.78,23.1,21.12
2.5198,-7.2869,-0.39499,-0.23732,-0.37782,-0.93493,-19.08,23.1,20.82
2.5334,-7.3958,-0.36775,-0.28802,-0.16218,-0.86651,-19.38,23.04,20.7
2.6151,-7.3958,-0.43585,-0.30543,0.0036652,-0.75442,-20.04,23.1,20.22
2.8058,-7.5321,-0.38137,-0.2978,0.080329,-0.6182,-20.52,23.1,19.92
2.833,-7.7091,-0.38137,-0.29291,0.08491,-0.42364,-20.82,22.98,19.62
2.8603,-8.717,-0.39499,-0.29169,0.064446,-0.002138,-21.48,22.98,18.72
3.0918,-9.4798,-0.40861,-0.28558,0.072693,0.35277,-21.84,22.92,18.24
3.1872,-10.229,-0.50395,-0.28894,0.096822,0.54367,-22.14,23.16,17.88
3.3778,-10.719,-0.57205,-0.28008,0.18479,1.0855,-22.44,23.22,17.4
3.514,-10.501,-0.72188,-0.23854,0.20036,1.3717,-23.1,23.22,16.74
3.6775,-12.163,-0.57205,-0.17837,0.12278,1.777,-23.46,23.22,16.32
4.5356,-12.313,-0.69464,-0.13011,0.11637,2.1765,-23.76,23.22,16.14
4.9169,-11.795,-1.4301,0.084605,-0.13408,2.5085,-23.7,23.34,16.2
5.3937,-11.223,-1.9477,0.25962,-0.46792,2.5531,-23.58,23.4,16.2
5.3256,-9.0575,-2.9965,0.35949,-0.82864,2.2911,-23.16,23.46,16.26
5.094,-9.3844,-2.9829,0.32681,-1.1115,1.9945,-22.74,23.64,16.5
5.0123,-10.215,-2.1929,0.055283,-1.0354,1.3903,-21.9,24.18,16.98
4.2223,-10.692,-1.4982,-0.14691,-0.5455,0.88331,-21.24,24.3,17.16
3.5549,-10.447,-1.0215,-0.2248,-0.19914,0.61697,-20.46,24.54,17.52
3.2416,-10.229,-0.92618,-0.31551,0.56077,0.13714,-19.92,24.66,17.82
3.6094,-9.8203,-1.1032,-0.39401,1.4817,-0.5171,-18.78,25.08,18.66
3.7592,-8.8124,-1.1305,-0.3821,1.8964,-0.80237,-18.3,25.38,18.96
4.6173,-7.5729,-1.1441,-0.26389,2.0296,-0.99327,-17.7,25.56,19.26
5.094,-6.3471,-0.70826,-0.0058032,1.4704,-1.0284,-16.86,25.8,19.26
4.699,-5.6797,-0.21793,0.13653,0.83933,-0.95661,-16.62,25.8,19.26
4.4947,-5.4754,-0.095342,0.20678,0.49327,-0.91385,-16.56,25.8,19.14
4.018,-5.1485,-0.21793,0.35797,-0.41814,-0.73029,-16.74,25.86,19.08
3.7184,-5.2711,-0.49033,0.42455,-0.77427,-0.53848,-16.92,25.8,19.02
3.6094,-5.4618,-0.7355,0.47434,-0.96975,-0.33445,-17.4,25.62,18.84
3.3778,-6.2245,-1.1577,0.51038,-0.99205,-0.031154,-18.3,25.2,18.78
3.4732,-6.5922,-1.3212,0.489,-0.88759,0.11759,-18.84,25.02,18.48
3.5685,-6.8919,-1.471,0.4667,-0.73731,0.16799,-19.26,24.78,18.42
3.6094,-7.4503,-1.6072,0.44593,-0.59376,0.16829,-19.92,24.36,18.12
3.6094,-8.0224,-1.866,0.4102,-0.57605,0.1689,-20.28,24.18,18.12
3.9635,-9.8475,-2.3155,0.27855,-0.77519,0.19364,-20.7,24.12,18.0
3.514,-11.564,-2.438,0.12278,-0.25687,0.25045,-21.18,23.94,18.18
3.9635,-12.231,-1.866,0.033598,0.24404,-0.000305,-21.54,24.0,18.36
3.909,-12.231,-1.471,0.010079,0.48472,-0.018326,-21.72,24.06,18.54
3.6911,-12.217,-1.185,-0.0281,0.87781,-0.1741,-21.78,24.0,18.78
4.1542,-13.321,-1.0215,0.0048869,0.9725,-0.24954,-21.84,23.94,18.78
4.7126,-12.585,-0.88532,0.020464,0.81795,-0.24404,-21.84,24.06,18.84
4.5901,-10.774,-0.8036,0.081245,0.65546,-0.12401,-21.96,24.18,18.84
4.7944,-10.474,-0.77636,0.17685,0.22663,0.14325,-22.14,24.06,18.9
4.8352,-10.106,-0.7355,0.21105,0.019242,0.18815,-22.44,24.24,18.72
4.8761,-10.351,-0.78998,0.30055,-0.63347,0.42974,-22.62,24.3,18.66
5.1621,-10.42,-0.88532,0.34789,-1.0537,0.49266,-22.68,24.42,18.6
4.8897,-10.256,-0.98067,0.38607,-1.3836,0.47098,-22.56,24.54,18.48
4.6854,-10.174,-1.0079,0.38423,-1.5632,0.34422,-22.56,24.6,18.48
4.6173,-10.215,-1.0215,0.29932,-1.6301,0.24587,-22.2,24.66,18.48
4.6037,-9.9973,-1.1169,0.25229,-1.6075,0.18906,-21.96,24.78,18.48
4.3721,-9.5206,-0.96704,0.12675,-1.4771,0.047647,-21.78,24.84,18.42
3.732,-8.2812,-0.7355,-0.060781,-1.1008,-0.24709,-21.36,25.14,18.42
3.5549,-7.5048,-0.69464,-0.15302,-0.81948,-0.45754,-21.0,25.14,18.54
3.5958,-7.3141,-0.64016,-0.22052,-0.58246,-0.66432,-20.64,25.26,18.42
3.732,-7.2869,-0.69464,-0.30513,-0.38851,-0.89339,-19.92,25.5,18.72
3.6094,-7.3141,-0.55843,-0.3653,-0.32284,-1.0223,-19.44,25.44,18.84
3.4596,-7.3686,-0.40861,-0.43585,-0.21289,-1.1493,-19.2,25.56,18.84
3.0646,-7.4776,-0.19068,-0.50366,-0.055589,-1.2156,-19.2,25.56,18.84
2.9829,-7.5048,-0.081722,-0.54947,0.11606,-1.2746,-19.26,25.5,18.78
3.0373,-7.5184,-0.16344,-0.57635,0.25504,-1.3033,-19.38,25.38,18.54
3.0237,-7.6138,-0.16344,-0.58246,0.32712,-1.2886,-19.68,25.26,18.3
2.9965,-8.3765,-0.054481,-0.58307,0.34025,-1.2156,-20.04,25.2,18.12
2.9556,-8.8668,-0.040861,-0.59376,0.33048,-0.9615,-20.82,24.78,17.4
3.0646,-9.6432,0.12258,-0.58704,0.35033,-0.70036,-21.42,24.54,17.16
3.0646,-10.433,0.12258,-0.58551,0.43219,-0.38973,-21.84,24.24,16.86
3.1735,-10.311,-0.068102,-0.53726,0.55436,-0.092852,-23.04,23.64,16.08
3.2553,-10.038,-0.21793,-0.36774,0.55192,0.37171,-23.7,23.28,15.54
4.0589,-12.476,-0.14982,-0.31093,0.46609,0.60292,-24.48,23.1,15.06
4.3177,-12.068,-0.24517,-0.092546,0.22113,1.1759,-25.68,22.56,14.34
4.2087,-11.032,-0.50395,0.069028,0.026267,1.3451,-26.16,22.26,14.04
4.2359,-10.583,-0.96704,0.22602,-0.12798,1.4245,-26.64,22.14,13.74
3.9635,-8.7443,-1.58,0.34697,-0.28802,1.2911,-27.24,21.84,13.5
3.5685,-8.7306,-1.8251,0.41203,-0.44654,1.0922,-27.42,21.78,13.32
4.018,-10.556,-1.7025,0.37965,-0.46456,1.0461,-27.36,21.78,13.5
4.018,-11.223,-1.6753,0.17318,-0.33201,0.82589,-27.3,21.78,13.68
3.7456,-11.414,-1.471,-0.0085521,-0.002138,0.70188,-27.06,21.9,13.74
3.1599,-10.91,-1.2531,-0.12889,0.50549,0.52718,-26.82,22.02,13.92
3.4187,-9.793,-1.3484,-0.13011,0.97402,0.34147,-26.22,22.44,14.4
3.7047,-8.2948,-1.5119,0.0088575,1.2022,0.13622,-25.74,22.74,14.64
4.2359,-6.5922,-1.471,0.083078,1.1527,0.10049,-25.02,23.34,15.12
4.3313,-5.9249,-1.3348,0.2135,0.87659,0.052534,-24.66,23.52,15.36
4.2904,-5.4345,-1.1305,0.32559,0.18509,0.078191,-24.18,23.88,15.54
3.732,-5.094,-1.076,0.34361,-0.18937,0.11637,-23.4,24.3,15.72
3.4459,-5.1757,-1.1032,0.36102,-0.3656,0.1799,-23.04,24.66,15.66
3.2689,-5.2847,-1.2122,0.34972,-0.3769,0.29444,-22.62,24.9,15.9
3.2416,-6.279,-1.9886,0.24771,0.12492,0.49388,-22.02,25.14,15.84
4.2495,-6.7012,-1.7162,0.21319,0.11729,0.49297,-21.72,25.38,15.84
4.2904,-6.7285,-1.8387,0.19395,-0.06353,0.60537,-21.42,25.5,15.84
3.7865,-7.4095,-1.8115,0.18448,-0.01741,0.67226,-21.06,25.8,15.6
3.8273,-7.5865,-1.6889,0.19426,0.048869,0.57879,-20.76,26.04,15.3
4.0316,-8.0496,-1.6753,0.219,-0.025656,0.54398,-20.46,26.16,15.3
4.3449,-10.215,-2.438,0.17654,-0.063225,0.58124,-19.5,26.7,15.0
4.6445,-11.101,-2.438,0.10599,0.027794,0.5678,-19.14,26.94,14.88
4.8488,-11.605,-2.1248,0.069944,0.030238,0.5171,-18.78,27.12,14.64
4.6854,-11.795,-1.7298,-0.048564,0.096517,0.40592,-18.42,27.36,14.4
3.6366,-13.511,-1.5391,-0.13683,0.45448,0.33659,-17.58,27.72,14.28
4.127,-14.764,-1.2939,-0.24099,0.95264,0.27214,-17.4,27.9,14.1
4.7126,-14.124,-0.96704,-0.33964,1.3277,0.13195,-16.98,28.26,14.04
5.0531,-12.64,-0.96704,-0.30604,1.5113,0.12339,-16.68,28.74,13.56
5.38,-11.768,-0.76274,-0.26817,1.4349,0.08094,-16.44,28.92,13.44
5.4754,-10.774,-0.77636,-0.06353,0.79321,-0.11332,-16.26,29.1,13.32
6.0474,-10.746,-0.8717,0.096822,0.084605,-0.14813,-16.2,29.34,13.32
5.7205,-10.529,-1.0624,0.18357,-0.66309,-0.27306,-16.08,29.58,13.14
4.7671,-10.324,-1.1032,0.22633,-1.1906,-0.42028,-16.26,29.64,13.14
4.1951,-10.093,-1.1032,0.20159,-1.3708,-0.56627,-16.38,29.7,13.14
4.0861,-9.9156,-1.1441,0.074526,-1.3152,-0.69914,-16.38,29.64,13.2
3.9908,-9.6432,-1.0215,-0.052229,-1.2022,-0.77733,-16.5,29.7,13.5
3.6366,-8.2267,-0.85808,-0.16127,-1.0898,-0.87079,-16.8,29.76,13.74
3.5685,-7.6819,-0.8717,-0.25107,-0.98807,-0.98166,-16.98,29.76,13.92
3.4323,-7.3958,-0.68102,-0.32345,-0.90286,-1.0828,-17.16,29.58,14.1
3.1463,-7.3958,-0.50395,-0.38149,-0.8094,-1.1768,-17.4,29.34,14.64
3.1599,-7.3822,-0.50395,-0.44807,-0.69883,-1.2511,-17.64,29.22,14.88
3.1191,-7.3822,-0.42223,-0.52473,-0.53237,-1.3192,-17.82,29.04,15.3
2.8603,-7.641,-0.21793,-0.56841,-0.40775,-1.3378,-18.48,28.86,15.96
2.7649,-7.9679,-0.1362,-0.60934,-0.2584,-1.3268,-18.96,28.74,16.26
2.6832,-7.927,-0.19068,-0.66615,-0.020769,-1.3204,-19.38,28.56,16.44
2.6968,-7.8589,-0.054481,-0.66279,0.029932,-1.3127,-19.92,28.32,16.74
2.6968,-7.8589,-0.054481,-0.66615,0.1182,-1.2013,-19.92,28.32,16.74
2.7241,-8.3493,-0.081722,-0.65882,0.15485,-1.0495,-20.34,28.02,16.98
2.8058,-9.6432,-0.12258,-0.66126,0.20983,-0.82803,-21.3,27.54,17.04
2.8467,-10.311,-0.1362,-0.66065,0.33628,-0.36469,-21.84,27.24,17.22
2.9284,-10.556,-0.24517,-0.64294,0.37996,-0.19945,-22.38,26.94,17.28
2.942,-9.902,-0.35413,-0.52779,0.49633,0.25595,-23.22,26.28,17.04
2.9284,-10.311,-0.44947,-0.4102,0.43982,0.6918,-23.58,25.92,17.04
3.9635,-11.986,-0.50395,-0.30299,0.3766,1.186,-24.12,25.44,16.92
4.0589,-11.087,-0.64016,-0.16768,0.281,1.4737,-24.3,25.38,16.74
4.2632,-9.7658,-1.6072,-0.0061087,0.12889,1.7828,-24.3,24.78,16.5
4.1133,-8.6762,-2.1929,0.13989,0.021686,1.8274,-24.18,24.6,16.5
3.7592,-9.0575,-2.4517,0.22724,-0.095906,1.6509,-23.82,24.78,16.68
3.7728,-10.256,-1.9886,0.2138,-0.18204,1.4004,-23.28,24.96,17.16
3.909,-11.087,-1.4982,0.088881,-0.17807,1.1866,-22.56,25.32,17.58
3.514,-11.482,-1.4029,-0.092241,-0.0085521,0.96181,-21.66,25.92,18.0
3.4051,-11.237,-1.4438,-0.25107,0.42333,0.78527,-21.42,26.28,18.3
3.2961,-10.256,-1.6617,-0.28619,0.95173,0.56963,-20.46,26.88,18.84
4.0316,-7.9679,-1.9068,-0.1628,1.2941,0.39431,-19.74,27.54,19.56
4.5083,-6.5105,-1.9341,0.16463,1.2495,0.25076,-19.08,27.96,19.74
4.5764,-5.6116,-1.6753,0.32101,0.86957,0.23946,-18.24,28.26,20.22
4.3994,-5.2302,-1.4438,0.41539,0.38485,0.24526,-17.88,28.5,20.1
3.8818,-4.5764,-1.2803,0.45418,0.019853,0.26023,-17.52,28.92,20.04
3.5822,-4.4402,-1.2531,0.47831,-0.20006,0.32681,-17.28,29.1,19.98
3.5685,-4.8488,-1.58,0.48503,-0.31185,0.42638,-16.74,29.58,19.8
3.6366,-5.5162,-1.757,0.48472,-0.32437,0.65454,-16.44,29.82,19.98
3.7728,-5.8976,-1.7979,0.47342,-0.2926,0.77733,-16.14,30.0,19.74
4.2087,-7.0553,-1.9886,0.47709,-0.28986,0.87109,-15.54,30.54,19.2
4.4402,-7.5048,-2.2065,0.48655,-0.32895,0.92577,-15.18,30.72,18.9
4.6718,-7.8181,-2.4244,0.51282,-0.39554,0.86712,-14.94,30.9,18.72
4.6854,-8.3493,-2.6015,0.53267,-0.50183,0.78313,-13.92,31.8,18.36
4.7671,-9.221,-2.7922,0.49847,-0.70188,0.65301,-13.44,32.16,17.88
4.7944,-10.202,-2.7786,0.40928,-0.71777,0.57024,-12.9,32.52,17.7
4.7535,-10.992,-2.6423,0.23885,-0.55894,0.49938,-12.36,32.82,17.4
4.0861,-12.612,-2.261,0.032376,-0.13592,0.37721,-10.98,33.6,16.92
3.6911,-13.362,-1.9886,-0.14722,0.48991,0.19364,-10.38,33.9,16.74
4.018,-14.805,-1.9613,-0.38729,1.4138,0.07422,-9.9,34.38,16.44
4.9714,-13.77,-1.5119,-0.48136,1.6631,-0.009163,-9.0,34.74,15.9
5.0531,-12.817,-1.2258,-0.49877,2.0189,-0.22938,-8.58,35.1,15.78
5.3937,-12.381,-1.1577,-0.41081,1.8726,-0.38851,-8.4,35.34,15.48
5.2302,-9.9156,-0.98067,-0.21747,1.4361,-0.69211,-8.22,36.06,15.12
5.4073,-9.8203,-0.85808,0.026267,0.72479,-0.82131,-8.22,36.48,14.82
5.9112,-10.46,-1.185,0.29016,-0.59895,-0.88239,-8.46,36.84,14.58
5.2575,-10.202,-1.3757,0.37782,-1.3482,-0.93371,-8.76,37.02,14.52
5.2575,-10.202,-1.3757,0.37385,-1.7941,-0.91935,-8.76,37.02,14.52
3.9908,-10.637,-1.1305,0.2865,-1.9456,-0.92332,-9.72,37.26,14.34
3.4596,-10.801,-1.0896,0.12065,-1.7559,-0.90561,-10.26,37.26,14.22
2.9011,-9.7658,-0.99429,-0.055589,-1.3186,-0.93921,-11.52,37.26,14.16
2.9011,-9.2755,-0.95342,-0.27306,-0.55467,-0.97586,-12.18,37.14,14.28
2.9965,-7.9951,-0.8036,-0.32223,-0.36255,-1.0217,-12.96,37.08,14.16
3.0918,-7.4776,-0.72188,-0.39309,-0.076969,-1.1869,-14.52,36.84,14.22
3.2008,-7.1915,-0.50395,-0.39645,-0.073304,-1.2837,-15.3,36.72,14.46
3.2553,-7.0281,-0.42223,-0.38882,-0.14539,-1.3558,-16.14,36.6,14.64
3.0373,-6.7693,-0.24517,-0.38607,-0.23366,-1.419,-18.06,35.7,15.0
2.9011,-6.7829,-0.28603,-0.38637,-0.30238,-1.4499,-19.08,35.4,15.12
2.7241,-6.8238,-0.054481,-0.39615,-0.32223,-1.4493,-20.1,34.92,15.12
2.4789,-6.9328,-0.054481,-0.41233,-0.27122,-1.4041,-22.02,34.26,15.42
2.4517,-7.2052,-0.040861,-0.43402,-0.17043,-1.3167,-22.98,33.84,15.66
2.4108,-7.4912,-0.095342,-0.4667,-0.0076358,-1.0489,-24.12,33.36,15.72
2.6015,-9.0575,-0.21793,-0.50335,0.085827,-0.78466,-26.1,32.58,15.78
2.5606,-9.8611,-0.17706,-0.51618,0.20189,-0.45387,-27.0,32.22,15.84
2.7786,-10.447,-0.095342,-0.53451,0.31948,-0.066584,-27.84,31.8,16.08
3.1735,-9.9701,-0.39499,-0.49572,0.40409,0.31704,-29.52,31.08,16.32
3.1735,-10.365,-0.50395,-0.33445,0.31215,0.87812,-30.3,30.72,16.38
3.3778,-11.659,-0.47671,-0.22663,0.11698,1.431,-31.02,30.24,16.44
4.2087,-12.258,-0.57205,-0.093768,0.037874,1.7636,-31.8,29.82,16.44
3.9635,-11.305,-0.83084,0.088881,-0.045204,1.9878,-32.1,29.64,16.5
3.7184,-9.6568,-1.185,0.39706,-0.10904,1.846,-32.16,29.52,16.98
3.3506,-9.6568,-1.1441,0.58063,-0.34514,1.5937,-32.04,29.4,17.52
3.2416,-10.147,-1.2939,0.63041,-0.46029,1.4966,-31.86,29.52,17.58
3.9227,-11.959,-1.9886,0.55008,-0.54886,1.2382,-30.84,29.88,18.3
3.5549,-11.959,-1.8524,0.28894,-0.27061,1.1066,-30.42,30.3,18.72
2.942,-11.169,-1.3484,0.03543,0.2981,1.0379,-29.76,30.54,19.14
2.5879,-9.0575,-1.3348,-0.10415,1.2581,0.90713,-28.32,31.32,19.92
3.1872,-8.0632,-1.6344,-0.12339,1.69,0.78924,-27.54,31.62,20.28
3.732,-7.0962,-1.8387,-0.071471,1.8555,0.68814,-26.76,31.98,20.52
4.5083,-5.6661,-1.7706,0.019548,1.6945,0.68906,-25.26,32.94,20.94
4.699,-5.1894,-1.4438,0.12889,1.281,0.71471,-24.54,33.36,21.06
4.7126,-5.0123,-1.2395,0.24862,0.72846,0.77366,-23.88,33.84,21.18
4.5764,-5.1621,-1.076,0.34789,0.05284,0.90713,-22.98,34.56,21.0
4.5901,-5.3937,-1.185,0.46273,-0.30299,0.99632,-22.44,35.04,20.76
4.6445,-5.6661,-1.2803,0.50213,-0.45448,1.0385,-21.84,35.34,20.58
4.6173,-6.4424,-1.471,0.54428,-0.74098,1.0996,-21.24,35.7,20.4
4.7399,-7.3686,-1.7025,0.54917,-0.80909,1.058,-20.34,36.24,19.8
4.699,-7.8045,-2.0294,0.51557,-0.71532,0.94379,-20.1,36.66,19.5
4.5901,-8.3765,-2.0294,0.48839,-0.51252,0.74373,-19.44,37.26,18.78
4.6037,-9.3436,-2.0975,0.42669,-0.3094,0.38423,-19.14,37.74,18.36
4.9169,-10.433,-2.3155,0.34483,-0.25992,0.18448,-18.84,38.1,18.12
5.1621,-11.182,-2.4517,0.22205,-0.19181,0.023518,-18.48,38.46,17.88
4.9306,-12.531,-2.4925,0.042455,-0.025656,-0.13042,-17.82,39.0,17.58
4.3177,-12.79,-2.3155,-0.13653,0.39615,-0.32865,-17.52,39.06,17.46
3.6639,-12.612,-1.9341,-0.29902,0.99938,-0.56872,-17.28,39.24,17.4
4.3449,-14.301,-1.471,-0.48197,1.7743,-0.68295,-17.1,39.48,17.28
4.8625,-12.871,-0.91256,-0.54886,2.0253,-0.78832,-17.22,39.42,17.16
5.0395,-11.509,-0.81722,-0.49663,1.8573,-0.78954,-17.64,39.3,17.1
5.38,-10.556,-0.88532,-0.39095,1.3754,-0.81337,-18.3,38.94,17.04
5.2438,-10.542,-0.83084,-0.2306,0.69455,-0.91141,-18.66,38.58,16.98
5.3119,-11.25,-0.76274,-0.018937,-0.32742,-0.87965,-19.86,37.86,16.8
4.8897,-12.054,-0.50395,0.061697,-0.83841,-0.95112,-20.4,37.32,16.74
4.1406,-11.577,-0.50395,0.11637,-1.1002,-1.0727,-20.94,36.72,16.92
3.9499,-11.291,-0.35413,0.13928,-1.1616,-1.2223,-21.66,36.06,16.8
3.5822,-10.733,-0.35413,0.1292,-1.139,-1.2999,-22.98,34.86,16.8
3.5549,-10.161,-0.35413,0.07422,-1.058,-1.3686,-23.64,34.32,16.92
3.3097,-9.6432,-0.36775,0.023213,-0.9783,-1.4239,-24.3,33.54,17.04
2.9556,-8.2676,-0.16344,-0.078802,-0.82925,-1.5259,-25.44,31.92,17.28
2.8058,-7.7091,0.095342,-0.12675,-0.72265,-1.5742,-25.98,31.2,17.58
2.7513,-7.3141,-0.054481,-0.15302,-0.67623,-1.5724,-26.46,30.48,17.76
2.7377,-6.9872,-0.054481,-0.21808,-0.60415,-1.5449,-27.06,29.7,18.0
2.6832,-6.851,0.040861,-0.24862,-0.57299,-1.4966,-28.02,28.02,18.72
2.6423,-6.7966,0.068102,-0.2923,-0.5003,-1.3787,-28.44,27.18,18.96
2.3972,-6.5786,0.10896,-0.33781,-0.39401,-1.3299,-29.16,25.62,19.5
2.438,-6.5378,0.081722,-0.35522,-0.22999,-1.1634,-29.82,25.02,19.62
2.5334,-6.7421,0.081722,-0.34819,-0.20159,-1.0953,-30.24,24.3,19.86
2.6287,-7.1915,-0.01362,-0.32773,-0.2193,-0.81917,-30.96,22.8,20.28
2.6287,-7.4776,-0.16344,-0.31643,-0.26267,-0.56139,-31.38,22.02,20.4
2.6696,-7.9815,-0.27241,-0.30788,-0.20586,-0.080023,-31.92,20.88,20.4
2.9556,-9.6977,-0.19068,-0.30391,-0.087354,0.32223,-32.04,20.4,20.4
3.2008,-10.351,-0.32689,-0.28802,-0.01405,0.53176,-32.22,20.04,20.34
3.3915,-10.188,-0.47671,-0.2361,0.1066,0.89156,-32.22,19.62,20.22
3.6366,-10.243,-0.7355,-0.095906,0.054367,1.383,-32.1,19.08,20.1
4.4539,-12.503,-0.8036,-0.040623,-0.10415,1.9233,-32.04,18.9,20.04
4.8761,-12.531,-0.9398,0.03146,-0.16249,2.2611,-31.8,18.84,20.04
4.5901,-10.855,-1.5119,0.16371,-0.26206,2.3451,-31.44,18.96,20.16
4.699,-10.025,-1.8932,0.20006,-0.27794,2.2813,-30.9,18.96,20.28
4.4675,-9.4117,-2.0158,0.27611,-0.38179,1.9594,-30.42,19.14,20.4
4.2904,-11.169,-2.0294,0.28283,-0.54336,1.5293,-29.1,19.8,20.76
4.5764,-12.149,-2.0022,0.14722,-0.45112,1.2679,-28.32,20.22,20.94
4.2087,-12.381,-1.6344,-0.060476,-0.13958,1.015,-27.66,20.7,21.3
3.0373,-11.155,-0.99429,-0.31826,0.8262,0.67042,-26.16,21.54,21.84
3.0918,-10.256,-1.076,-0.33598,1.4725,0.405,-25.26,21.96,22.26
3.5549,-9.0167,-1.2531,-0.25687,1.8329,0.1857,-24.66,22.5,22.62
4.1951,-7.0145,-1.3484,-0.11087,1.8433,0.052229,-23.22,23.34,22.98
4.6173,-5.8295,-1.1169,0.038179,1.5311,-0.014355,-22.68,23.58,23.04
4.6445,-5.1621,-1.1441,0.14813,1.0122,-0.010079,-22.08,23.94,23.04
3.9908,-4.6037,-0.88532,0.25443,0.30146,0.059559,-21.18,24.48,22.92
3.9908,-4.6037,-0.88532,0.27458,0.14508,0.10079,-21.18,24.48,22.92
3.5685,-4.8488,-1.2803,0.31704,-0.093462,0.33078,-20.52,25.14,22.74
3.5413,-5.203,-1.3212,0.31215,-0.10721,0.50732,-20.1,25.26,22.62
3.7184,-5.7342,-1.5119,0.29383,-0.04948,0.66401,-19.8,25.44,22.08
4.0044,-6.5241,-1.6072,0.26542,-0.009163,0.80115,-19.56,25.8,21.48
4.127,-6.6059,-1.6344,0.25931,0.002138,0.83047,-19.56,26.1,20.76
4.2904,-7.1915,-1.6481,0.27214,-0.014355,0.81917,-19.38,26.1,20.34
4.6445,-8.5808,-1.9613,0.32559,-0.19028,0.82681,-19.08,26.34,19.86
5.1757,-10.556,-2.3699,0.33109,-0.35155,0.84269,-18.72,26.64,19.32
5.1757,-12.0,-2.3836,0.28711,-0.4496,0.85307,-18.3,27.06,19.02
4.7399,-12.49,-2.0294,0.19242,-0.34117,0.74862,-17.7,27.12,18.54
4.5492,-12.435,-1.7979,0.086743,-0.000916,0.53237,-17.58,27.24,18.36
4.0589,-12.79,-1.362,0.013744,0.416,0.281,-17.28,27.54,18.24
4.9033,-14.669,-1.5391,-0.026573,0.79932,0.067806,-16.86,27.54,17.88
5.5162,-13.348,-1.3212,-0.086743,1.0079,-0.092546,-16.62,27.48,17.76
5.3119,-11.945,-1.2531,-0.053756,1.0128,-0.18754,-16.8,27.54,17.58
5.3392,-11.441,-1.1032,0.011912,0.81001,-0.2416,-16.92,27.6,17.34
5.0531,-10.093,-0.99429,0.11454,0.4383,-0.45968,-16.92,27.54,16.98
5.2711,-10.488,-0.9398,0.25076,-0.3207,-0.56902,-16.98,27.36,16.74
5.7069,-10.842,-0.88532,0.27275,-0.62308,-0.60109,-17.1,27.3,16.44
4.8216,-10.924,-0.7355,0.28894,-1.1955,-0.7141,-17.22,27.06,16.38
4.0861,-11.06,-0.49033,0.23763,-1.5849,-0.87537,-18.0,26.64,16.14
3.8409,-11.155,-0.29965,0.1573,-1.5516,-0.98258,-18.3,26.34,16.14
3.623,-11.101,-0.38137,0.059254,-1.3809,-1.0708,-18.84,25.8,15.96
3.1327,-9.4117,-0.027241,-0.056505,-1.0247,-1.2511,-19.08,25.32,16.08
3.0646,-8.826,-0.040861,-0.099876,-0.81428,-1.3751,-19.38,24.9,16.08
2.9284,-7.8317,-0.027241,-0.11454,-0.68417,-1.4746,-19.68,24.48,16.14
2.9556,-7.3822,-0.054481,-0.12584,-0.61881,-1.5336,-19.92,24.0,16.14
3.0782,-6.8374,-0.14982,-0.13744,-0.64935,-1.533,-20.34,22.74,16.62
3.0918,-6.5922,-0.068102,-0.15547,-0.71685,-1.5235,-20.7,22.08,16.98
3.1735,-6.8919,-0.027241,-0.21747,-0.80756,-1.4597,-21.48,20.64,17.82
2.6287,-7.1234,0.01362,-0.30391,-0.82956,-1.2966,-21.9,19.86,18.24
2.6151,-7.2188,0.01362,-0.35888,-0.65027,-1.1564,-22.26,19.26,18.6
2.5606,-7.1371,-0.040861,-0.36866,-0.37996,-0.9951,-22.56,18.54,19.14
2.9692,-6.9328,-0.31327,-0.343,-0.17593,-0.83444,-23.04,17.28,19.56
3.1327,-7.2188,-0.23155,-0.28222,-0.10171,-0.64691,-23.22,16.62,19.8
3.4459,-7.7091,-0.27241,-0.22541,-0.20586,-0.3094,-23.46,16.08,19.92
3.6094,-9.8339,-0.31327,-0.22083,-0.26695,-0.16371,-23.58,15.24,19.98
3.6775,-10.706,-0.40861,-0.24648,-0.27336,0.24771,-23.52,14.76,20.04
3.6094,-10.964,-0.54481,-0.25809,-0.15149,0.45448,-23.34,14.52,19.92
3.6775,-11.169,-0.83084,-0.27642,-0.039401,0.65088,-23.34,14.28,19.92
4.0316,-13.947,-0.72188,-0.32651,0.10415,0.9615,-23.04,13.86,19.98
4.0316,-12.83,-0.65378,-0.36163,0.35949,1.1075,-22.8,13.68,19.86
3.9227,-10.42,-0.76274,-0.27489,0.55436,1.1399,-22.14,13.56,19.92
4.2495,-8.5536,-1.3893,-0.21014,0.5568,1.1234,-21.72,13.38,19.92
4.2632,-8.036,-1.5936,0.026573,0.2022,0.88789,-21.36,13.44,19.8
4.6309,-9.7385,-2.0294,0.11606,-0.12248,0.86407,-20.46,13.38,19.92
4.7399,-10.733,-2.0431,0.10201,-0.37507,0.78527,-20.1,13.5,20.16
4.3721,-11.346,-1.866,-0.022907,-0.44257,0.66035,-19.62,13.62,20.4
2.9556,-10.569,-1.2531,-0.22571,0.034208,0.38332,-19.2,13.8,21.0
2.6832,-9.8339,-1.2531,-0.30818,0.58979,0.20739,-18.78,14.1,21.42
2.7377,-9.221,-1.3757,-0.29749,1.0599,0.018021,-18.72,14.04,21.84
3.3915,-7.2188,-1.3484,-0.23335,1.2886,-0.090713,-18.0,14.52,22.32
3.732,-6.2517,-1.3757,-0.13867,1.2679,-0.1179,-17.7,14.52,22.56
3.909,-5.6116,-1.3212,-0.058643,1.0293,-0.10476,-17.22,14.76,23.1
3.6366,-5.0259,-0.85808,0.014966,0.53481,0.019853,-16.92,14.82,23.16
3.337,-4.9033,-0.85808,0.065668,0.28588,0.11729,-16.8,14.94,23.4
3.3097,-4.9306,-0.92618,0.083689,0.20495,0.18815,-16.38,15.0,23.58
3.2553,-5.1076,-1.1441,0.11576,0.092546,0.45479,-16.14,15.0,23.7
3.2825,-5.598,-1.362,0.12339,0.10873,0.5455,-16.02,15.18,23.82
3.337,-5.884,-1.3484,0.13439,0.21716,0.80237,-15.72,15.12,23.82
3.6094,-6.3743,-1.5391,0.15944,0.26206,0.97922,-15.12,15.24,24.0
3.9908,-6.8374,-1.7298,0.16982,0.23274,1.0272,-14.7,15.36,23.88
4.2223,-7.5593,-1.866,0.20647,0.12065,1.138,-14.52,15.3,23.76
4.6718,-9.4661,-2.2337,0.21197,-0.086437,1.3033,-13.8,15.72,23.82
4.7263,-10.61,-2.3291,0.16799,-0.15394,1.3857,-13.44,15.9,23.76
4.7671,-11.645,-2.2474,0.043371,0.05284,1.358,-12.48,16.56,23.58
4.4266,-12.83,-1.6617,-0.047342,0.40989,1.2333,-12.06,16.86,23.58
4.8352,-14.669,-1.757,-0.068111,0.57391,1.1918,-11.58,17.28,23.64
5.3937,-14.996,-1.6753,-0.15363,0.92424,1.0739,-11.04,17.76,23.4
5.775,-12.286,-1.3484,-0.1689,1.2367,0.6918,-10.2,18.54,23.34
6.2109,-11.686,-1.2939,-0.07422,1.0589,0.5058,-9.66,18.96,23.34
6.3471,-11.645,-1.1986,0.040012,0.55955,0.22327,-9.3,19.44,23.34
6.9328,-12.149,-1.1169,0.19487,-0.41508,-0.071777,-8.52,20.28,22.92
6.5922,-11.673,-1.0215,0.24893,-1.0455,-0.25901,-8.1,20.7,22.68
5.9657,-11.21,-1.1713,0.26023,-1.2694,-0.36346,-7.68,21.18,22.5
4.8897,-10.134,-1.2395,0.26206,-1.5177,-0.65301,-6.78,21.78,22.26
4.699,-9.902,-1.3348,0.22694,-1.4743,-0.79199,-6.42,22.02,22.02
4.5764,-9.4117,-1.2531,0.15547,-1.3717,-0.89828,-6.12,22.32,21.9
4.0589,-7.9951,-1.076,0.025656,-1.2004,-1.0629,-5.58,22.68,21.6
3.9499,-7.6002,-0.96704,-0.059254,-1.1075,-1.1875,-5.34,22.86,21.6
3.7047,-7.1098,-0.8036,-0.099571,-1.0595,-1.2596,-5.28,23.1,21.54
3.4459,-6.7693,-0.72188,-0.19273,-0.89461,-1.4346,-5.22,23.58,21.18
3.3234,-6.8783,-0.69464,-0.25626,-0.80054,-1.5241,-5.22,23.64,21.06
3.2416,-7.1643,-0.65378,-0.32529,-0.70311,-1.5834,-5.16,23.94,20.94
2.9692,-7.7364,-0.43585,-0.44654,-0.48655,-1.6493,-5.58,24.18,20.88
2.833,-7.8181,-0.34051,-0.53084,-0.28558,-1.6551,-5.88,24.18,20.88
2.7241,-7.8589,-0.24517,-0.60384,-0.071166,-1.6686,-6.24,24.3,20.7
2.6968,-7.8317,-0.16344,-0.62339,0.029322,-1.668,-6.54,24.3,20.58
2.8058,-8.6353,-0.12258,-0.66035,0.21014,-1.5867,-7.8,24.48,20.22
2.7377,-9.2346,-0.12258,-0.68111,0.26237,-1.4697,-8.46,24.36,19.98
2.7922,-10.025,-0.027241,-0.68845,0.31521,-1.2688,-9.18,24.48,19.8
2.942,-11.4,0.24517,-0.67959,0.38179,-0.98227,-10.5,24.66,19.2
3.0101,-11.21,0.25879,-0.63652,0.45143,-0.65454,-11.04,24.6,18.96
3.1463,-10.474,0.068102,-0.51954,0.50091,-0.31704,-11.7,24.36,18.78
3.4459,-11.727,-0.23155,-0.27855,0.30177,0.33598,-13.2,24.36,18.12
3.9635,-12.272,-0.19068,-0.13561,0.15516,0.81245,-13.98,24.06,17.88
3.8273,-10.896,-0.7355,0.040317,0.053451,1.066,-14.4,23.94,17.7
3.8818,-9.398,-1.7434,0.24343,-0.014355,1.336,-15.3,24.12,17.1
3.5413,-8.7443,-2.1112,0.32498,-0.046426,1.2474,-15.48,24.06,17.1
3.4732,-8.8805,-2.3291,0.31093,-0.072388,1.1768,-15.72,24.18,17.1
3.8954,-10.91,-2.261,0.23152,-0.1011,1.095,-15.9,24.24,16.98
4.0316,-11.863,-1.9613,0.080023,-0.072998,0.9838,-15.84,24.36,16.98
3.6503,-11.904,-1.6344,-0.17868,0.26786,0.7926,-15.48,24.6,17.34
3.1191,-10.27,-1.6617,-0.22938,0.69058,0.66768,-15.36,24.78,17.4
3.3506,-9.2482,-2.0022,-0.19853,1.0287,0.54092,-15.12,24.96,17.58
3.6639,-8.3493,-2.0975,-0.14508,1.0993,0.48747,-14.76,25.2,17.82
3.9771,-6.4424,-2.3155,0.043982,1.0107,0.41936,-14.46,25.44,18.12
4.1814,-4.9578,-1.6753,0.11576,0.72357,0.47128,-13.8,25.98,18.42
3.8682,-4.5628,-1.4438,0.15547,0.35858,0.53206,-13.62,26.28,18.48
3.5958,-4.3177,-1.2258,0.16799,0.067806,0.59407,-13.14,26.34,18.6
3.514,-4.5628,-1.2395,0.18387,-0.1014,0.69822,-12.42,26.88,18.78
3.5685,-4.9306,-1.2395,0.21716,-0.18509,0.91752,-12.3,27.24,18.9
3.7184,-5.4618,-1.4574,0.24709,-0.2193,1.0715,-12.12,27.48,18.96
4.0861,-6.6331,-1.6617,0.27061,-0.24129,1.2141,-11.4,28.08,19.02
4.2359,-7.355,-1.8115,0.281,-0.21472,1.328,-11.04,28.38,18.84
4.3313,-7.7091,-1.9205,0.27978,-0.10812,1.3152,-10.8,28.68,18.78
4.4811,-7.9951,-1.9613,0.30024,-0.071471,1.2382,-10.44,28.98,18.78
4.699,-8.7987,-2.152,0.30116,-0.135,1.1561,-9.84,29.34,18.66
5.203,-10.896,-2.4653,0.28069,-0.22907,1.0504,-8.64,30.12,18.36
5.4209,-11.959,-2.5606,0.22358,-0.27184,0.92607,-7.98,30.42,18.18
5.3528,-12.79,-2.4244,0.13378,-0.19059,0.75411,-6.72,31.2,18.0
4.6582,-12.463,-1.7706,0.047953,0.15699,0.46701,-5.46,31.92,17.88
4.413,-13.579,-1.6208,0.051007,0.83689,0.0036652,-4.2,32.58,17.46
5.1621,-13.702,-1.6344,0.0033598,1.1811,-0.19212,-3.18,33.42,17.16
5.4618,-11.673,-1.471,0.034208,1.3338,-0.41966,-2.4,33.96,16.92
5.993,-11.005,-1.185,0.075442,1.1472,-0.46151,-1.92,34.56,16.56
6.1564,-10.515,-1.0896,0.12278,0.61911,-0.52626,-2.16,34.74,16.44
5.6252,-10.447,-0.96704,0.1909,-0.032987,-0.63713,-2.52,35.34,16.32
5.5571,-11.223,-1.1169,0.23579,-0.62583,-0.63835,-3.0,35.88,16.14
4.9987,-11.427,-1.1305,0.23854,-1.2211,-0.73915,-3.6,36.48,16.14
4.3177,-11.223,-0.9398,0.21075,-1.2978,-0.83017,-4.38,36.9,16.02
4.1406,-11.032,-0.92618,0.1631,-1.2404,-0.94409,-4.92,37.02,15.96
3.8001,-9.8066,-0.78998,0.1066,-1.0974,-1.0513,-5.88,37.14,15.9
3.7184,-8.8396,-0.76274,0.065973,-0.96669,-1.1536,-6.42,37.14,15.84
3.6775,-8.0905,-0.7355,0.034208,-0.84635,-1.3018,-7.56,37.32,15.9
3.514,-7.1234,-0.68102,0.0073304,-0.84269,-1.3433,-8.22,37.32,16.02
3.4596,-7.0281,-0.69464,-0.039401,-0.8375,-1.4749,-8.7,37.32,16.02
3.4051,-7.1507,-0.62654,-0.093462,-0.81703,-1.5485,-9.42,37.2,16.2
3.0918,-7.1234,-0.53119,-0.1573,-0.77519,-1.6105,-10.08,37.02,16.26
2.8467,-7.2188,-0.28603,-0.22205,-0.686,-1.6481,-11.76,36.78,16.38
2.7649,-7.641,-0.34051,-0.31001,-0.51618,-1.6307,-12.72,36.6,16.44
2.6832,-8.1177,-0.36775,-0.33964,-0.44624,-1.6105,-13.86,36.36,16.5
2.5879,-7.9951,-0.29965,-0.4047,-0.17623,-1.5339,-15.12,36.12,16.56
2.547,-7.9543,-0.19068,-0.41203,-0.03879,-1.4242,-17.34,35.7,16.44
2.5879,-8.2948,-0.24517,-0.40409,0.051924,-1.2492,-18.42,35.34,16.38
2.6287,-8.717,-0.28603,-0.40042,0.10782,-1.0351,-19.38,35.1,16.26
2.833,-9.616,-0.27241,-0.37813,0.14386,-0.51282,-21.6,34.5,16.2
2.9829,-10.093,-0.27241,-0.343,0.14569,-0.10263,-22.62,34.14,16.14
3.0646,-10.052,-0.28603,-0.3094,0.14264,0.10782,-23.64,33.9,16.02
3.2689,-9.0575,-0.76274,-0.15302,0.061697,0.69791,-25.38,33.36,15.72
3.2553,-10.025,-0.88532,-0.026573,-0.095906,1.1185,-26.28,33.12,15.48
3.6366,-11.673,-0.8717,0.0076358,-0.16218,1.6301,-26.88,32.94,15.24
3.732,-10.61,-1.2395,0.066584,-0.0956,1.9926,-27.78,32.52,15.06
3.8001,-9.7658,-1.7706,0.087048,0.031154,2.0812,-27.96,32.4,15.0
3.6639,-9.398,-1.9613,0.097433,0.079107,2.0488,-27.96,32.28,14.88
3.5277,-10.706,-1.9068,0.081551,0.1631,1.8094,-27.9,32.28,15.06
3.8682,-12.081,-1.8796,0.022602,0.23549,1.6503,-27.66,32.4,15.24
4.1814,-13.021,-1.7843,-0.12187,0.43097,1.4566,-27.54,32.4,15.48
3.7047,-12.258,-1.1986,-0.34208,1.0046,1.1203,-26.7,32.7,15.72
3.732,-11.25,-1.1169,-0.37232,1.1994,1.0018,-26.28,32.7,16.08
3.9771,-10.134,-1.1577,-0.3372,1.4725,0.72479,-25.68,32.88,16.38
4.0861,-6.9872,-1.6481,-0.17532,1.5605,0.41081,-24.66,33.18,16.92
4.2359,-5.993,-1.3348,-0.092241,1.4294,0.32223,-24.06,33.24,17.16
4.0997,-5.2575,-0.8717,-0.064446,1.2239,0.30665,-23.58,33.42,17.4
3.5685,-4.522,-0.61292,-0.045815,0.9838,0.34392,-22.62,33.72,17.7
3.623,-4.3449,-0.55843,-0.054978,0.91385,0.38301,-22.2,33.9,17.88
3.7047,-4.4539,-0.50395,-0.052229,0.73609,0.49602,-21.84,34.08,18.12
4.0316,-5.2166,-0.65378,-0.047647,0.44532,0.74159,-21.36,34.2,18.3
4.1814,-6.2109,-0.81722,-0.040012,0.28161,0.91416,-21.18,34.32,18.24
4.3313,-7.0281,-1.0624,-0.034819,0.18448,1.0568,-21.0,34.38,18.18
4.304,-7.069,-1.1713,0.022297,0.13225,1.0687,-20.52,34.56,18.0
4.3994,-7.4776,-1.2258,0.088575,0.12095,1.0421,-20.22,34.74,17.82
4.522,-8.1177,-1.471,0.12065,0.09163,1.0318,-20.04,34.8,17.7
4.9578,-9.8066,-1.7843,0.18906,-0.091019,0.96578,-19.68,34.98,17.46
5.4618,-11.891,-2.1929,0.16554,-0.197,0.93096,-18.96,35.28,17.16
5.4481,-13.184,-2.1112,0.08094,-0.15852,0.82925,-18.6,35.46,17.1
5.0123,-13.443,-1.7162,-0.045815,0.17562,0.56994,-17.88,35.82,16.92
4.1133,-14.547,-1.076,-0.12339,0.95142,0.11209,-17.52,36.0,16.68
4.7671,-13.498,-1.1577,-0.19303,1.3754,-0.20586,-17.16,36.12,16.68
4.9033,-11.931,-1.0079,-0.17043,1.5006,-0.36591,-16.8,36.3,16.5
5.1894,-11.836,-0.89894,-0.052229,1.3393,-0.44074,-16.44,36.48,16.38
5.9112,-11.877,-0.64016,0.036957,0.82436,-0.51924,-16.14,36.66,16.44
5.9249,-12.027,-0.65378,0.14386,0.1069,-0.47953,-16.14,36.78,16.2
5.9521,-11.931,-0.74912,0.28283,-0.967,-0.4105,-16.26,36.66,16.2
5.0531,-10.91,-0.6674,0.31612,-1.2578,-0.43035,-16.44,36.6,16.32
4.6309,-10.488,-0.65378,0.38271,-1.7804,-0.52229,-16.68,36.42,16.38
4.413,-10.12,-0.6674,0.34483,-1.8552,-0.6411,-16.86,36.48,16.44
3.7592,-8.9486,-0.70826,0.27489,-1.7694,-0.80695,-17.28,36.12,16.56
3.4596,-8.2539,-0.74912,0.17837,-1.5718,-1.0153,-17.4,35.94,16.8
3.0237,-7.3141,-0.46309,0.07422,-1.2874,-1.2101,-18.0,35.34,17.1
2.8467,-7.1507,-0.39499,-0.022297,-1.004,-1.3928,-18.36,35.16,17.1
2.8739,-6.96,-0.38137,-0.12126,-0.75075,-1.5244,-18.6,34.62,17.4
2.9284,-7.069,-0.32689,-0.2419,-0.52168,-1.6145,-18.96,34.14,17.52
2.9011,-7.2869,-0.095342,-0.31612,-0.43463,-1.6237,-19.5,33.42,17.94
2.8194,-7.4095,0.027241,-0.38698,-0.35339,-1.5971,-19.68,32.88,18.3
2.6015,-7.5457,0.38137,-0.43127,-0.26603,-1.5519,-19.98,32.58,18.66
2.5334,-7.464,0.40861,-0.47128,-0.12737,-1.4609,-20.7,31.62,19.02
2.5879,-7.3822,0.35413,-0.47464,-0.058338,-1.3833,-21.3,31.14,19.32
2.6151,-7.4776,0.24517,-0.46517,-0.041233,-1.2608,-21.72,30.54,19.5
2.7922,-8.54,0.29965,-0.46487,-0.06017,-1.0849,-22.86,29.4,19.8
2.7786,-9.2074,0.24517,-0.46945,-0.078496,-0.85521,-23.46,28.74,19.92
2.7513,-10.42,0.21793,-0.48747,-0.058643,-0.38851,-24.0,28.32,19.98
2.8058,-11.319,0.14982,-0.47739,0.064141,-0.073915,-25.14,27.36,20.16
2.8603,-11.073,0.095342,-0.41844,0.12614,0.2306,-25.68,27.0,20.1
2.8194,-12.217,0.14982,-0.37874,0.11851,0.45723,-26.16,26.58,20.22
3.5958,-12.177,0.054481,-0.23702,0.20128,1.1771,-27.0,25.74,20.22
3.6094,-10.774,-0.44947,-0.051618,0.16829,1.4609,-27.42,25.56,20.28
4.127,-9.3163,-1.6617,0.15882,0.050091,1.8042,-27.54,25.26,20.1
4.2768,-9.0303,-2.3427,0.43646,-0.3766,1.7837,-27.66,25.08,20.22
4.3858,-10.025,-2.8875,0.49388,-0.68356,1.7126,-27.48,25.2,20.16
4.5356,-11.455,-2.9965,0.37385,-0.86529,1.5125,-27.3,25.38,20.16
3.6639,-12.926,-2.0431,0.14203,-0.70647,1.2214,-26.64,25.8,20.64
2.9148,-12.286,-1.1577,-0.092546,-0.22235,0.88362,-26.22,25.92,20.82
2.656,-10.161,-1.5391,-0.1854,0.39951,0.57544,-25.86,26.04,21.06
2.9556,-8.8668,-1.8524,-0.21441,0.97464,0.30085,-24.66,26.64,21.42
3.5549,-6.6876,-2.0975,-0.10721,1.4178,-0.034819,-24.12,26.94,21.72
3.8137,-5.7342,-2.0839,-0.036041,1.4132,-0.083994,-23.7,27.3,21.9
4.5083,-4.699,-1.866,0.18662,0.89828,-0.067501,-23.34,27.48,21.96
4.2223,-4.3177,-1.362,0.27397,0.35705,0.002138,-22.5,28.26,21.96
3.8954,-4.4402,-1.2258,0.34758,-0.37965,0.12095,-22.2,28.68,22.02
3.5822,-5.1894,-1.3484,0.35888,-0.53237,0.17257,-21.6,29.04,21.9
3.514,-5.2302,-1.471,0.37232,-0.72662,0.27458,-21.36,29.1,21.9
3.3778,-5.3528,-1.757,0.3824,-0.82528,0.35919,-21.18,29.22,21.96
3.2825,-5.6388,-1.9613,0.37415,-0.76083,0.48808,-20.76,29.34,21.78
3.3097,-5.9112,-2.0294,0.34758,-0.63163,0.57024,-20.52,29.52,21.72
3.4732,-6.3062,-2.0975,0.32742,-0.4554,0.65607,-20.28,29.82,21.66
3.7047,-7.8045,-2.152,0.2532,-0.20647,0.83383,-20.04,30.12,21.48
4.0589,-9.1937,-2.261,0.22144,-0.13928,0.89278,-19.86,30.24,21.36
4.2223,-10.038,-2.2882,0.14752,-0.041844,1.007,-19.5,30.42,21.24
4.5628,-12.626,-2.5061,-0.0039706,0.09896,1.087,-18.6,31.02,21.3
4.5083,-13.171,-2.2201,-0.11179,0.35705,0.98624,-18.12,31.14,21.36
4.2632,-13.144,-1.9068,-0.20678,0.74495,0.77244,-17.64,31.38,21.54
4.7126,-14.819,-1.6072,-0.23976,1.2129,0.49114,-16.8,31.98,21.54
5.0123,-13.239,-1.5255,-0.2474,1.4612,0.17104,-16.32,32.46,21.48
5.094,-12.354,-1.6617,-0.208,1.4832,0.058338,-16.02,32.64,21.36
5.9112,-11.346,-1.3348,-0.092241,1.0812,-0.12492,-15.48,33.12,21.12
5.8704,-11.264,-1.1032,0.0051924,0.46426,-0.31093,-15.48,33.42,20.88
6.0883,-11.931,-0.92618,0.12034,-0.55497,-0.44135,-15.42,33.54,20.58
5.3937,-11.346,-1.0488,0.18204,-1.1011,-0.5846,-15.48,33.6,20.52
4.7126,-10.556,-1.0079,0.21808,-1.281,-0.65088,-15.42,33.66,20.46
4.4811,-10.42,-0.99429,0.29627,-1.5592,-0.82864,-15.48,33.66,20.34
4.0044,-9.6023,-1.0215,0.2868,-1.5684,-0.90897,-15.78,33.36,20.04
3.909,-8.9758,-1.0351,0.25076,-1.5073,-0.97219,-15.96,33.36,19.98
3.8001,-8.3493,-1.0488,0.17654,-1.4282,-1.0174,-16.2,33.24,19.92
3.4732,-7.4095,-1.0215,0.043371,-1.317,-1.1411,-16.62,32.82,19.98
3.3915,-7.0553,-0.98067,-0.05681,-1.2275,-1.2544,-16.86,32.52,20.16
3.051,-6.96,-0.92618,-0.10415,-1.1704,-1.3076,-17.1,32.28,20.34
2.9284,-6.96,-0.9398,-0.2645,-0.91966,-1.4529,-17.4,32.16,20.46
2.5742,-7.2324,-0.68102,-0.37629,-0.66493,-1.5156,-18.12,31.56,21.12
2.5334,-7.3277,-0.61292,-0.47495,-0.36621,-1.5345,-18.3,31.2,21.3
2.5742,-7.6546,-0.57205,-0.56016,-0.096822,-1.5134,-18.66,30.78,21.48
2.6832,-8.3493,-0.35413,-0.66584,0.20433,-1.4203,-19.62,29.88,21.96
2.6151,-8.2131,-0.16344,-0.70036,0.33231,-1.3503,-20.04,29.46,22.26
2.6287,-8.2539,-0.1362,-0.7196,0.40012,-1.226,-20.64,29.04,22.44
2.6423,-8.8941,-0.095342,-0.71135,0.42669,-1.0531,-21.54,28.2,22.8
2.6968,-9.6296,-0.095342,-0.70402,0.45082,-0.80909,-22.08,27.6,22.74
2.6968,-9.6296,-0.095342,-0.70402,0.45082,-0.80909,-22.08,27.6,22.74
2.9829,-10.243,-0.040861,-0.56383,0.50519,0.0051924,-23.28,26.58,22.68
2.9556,-10.665,-0.081722,-0.49144,0.48319,0.17165,-23.94,26.1,22.44
3.0646,-11.713,-0.14982,-0.28314,0.30391,0.95051,-24.54,25.56,22.38
3.8001,-10.365,-0.64016,-0.10171,0.23885,1.3066,-25.38,24.54,22.08
3.8818,-9.4934,-1.4029,0.11362,0.1014,1.6066,-25.68,24.18,21.9
4.127,-8.8941,-2.0431,0.27458,-0.03879,1.7391,-26.04,23.94,21.9
3.7592,-9.6023,-2.7922,0.38026,-0.22419,1.6689,-26.28,23.7,21.48
3.909,-10.855,-2.942,0.38546,-0.38301,1.5751,-26.16,23.58,21.42
3.9771,-11.931,-2.9284,0.24435,-0.43646,1.4193,-26.1,23.52,21.42
3.7184,-13.402,-2.2882,-0.12492,-0.07422,1.1002,-25.92,23.52,21.36
2.6287,-11.605,-1.6344,-0.29841,0.54978,0.80817,-25.56,23.76,21.54
2.7377,-10.351,-1.8932,-0.343,1.1964,0.41081,-25.32,23.94,21.6
3.4051,-7.9134,-2.4789,-0.27458,1.6212,0.28314,-24.72,24.3,21.84
3.9771,-5.993,-2.4244,-0.14416,1.748,0.094379,-24.24,24.48,22.02
4.2632,-5.2575,-2.1793,0.064141,1.372,0.033292,-23.88,24.84,22.08
4.4947,-4.4675,-1.6072,0.13714,0.88026,0.11057,-23.52,25.02,22.02
3.8273,-3.8954,-1.0215,0.18173,0.37507,0.18418,-23.22,25.56,22.14
3.4459,-3.7728,-0.96704,0.219,-0.0042761,0.2813,-22.92,25.8,22.08
3.3506,-3.8818,-1.1577,0.27367,-0.27184,0.52626,-22.56,26.28,21.9
3.4187,-4.3449,-1.3757,0.31704,-0.34361,0.71074,-22.44,26.52,21.66
3.5413,-4.7807,-1.471,0.32162,-0.35155,0.81306,-22.26,26.64,21.54
3.8137,-6.0883,-1.7706,0.343,-0.30329,1.0632,-22.08,26.94,21.24
3.9499,-6.7012,-1.8932,0.33781,-0.24312,1.1664,-21.9,27.24,20.94
4.1678,-7.7227,-1.9613,0.35003,-0.19364,1.2184,-21.54,27.54,20.82
4.5356,-9.6977,-2.2746,0.36744,-0.22083,1.2559,-20.94,28.26,20.22
5.3119,-12.258,-2.8603,0.36805,-0.28069,1.2669,-20.58,28.62,20.16
5.5843,-13.321,-2.9284,0.31093,-0.39462,1.2471,-20.22,28.98,20.1
5.2711,-13.579,-2.4517,0.14172,-0.30024,0.94867,-19.14,29.82,19.86
4.6309,-13.184,-2.0567,0.047647,0.083689,0.6017,-18.66,30.3,19.62
4.3585,-14.669,-1.9068,0.047647,0.44715,0.27825,-18.18,30.66,19.5
4.9987,-13.593,-1.866,-0.11026,1.0498,-0.25351,-17.22,31.26,19.44
5.0531,-12.19,-1.5936,-0.12767,1.2205,-0.39706,-16.92,31.62,19.32
5.4618,-11.863,-1.4301,-0.10599,1.2175,-0.54245,-16.74,31.86,19.02
5.3937,-10.351,-1.1986,-0.04612,0.81612,-0.72846,-16.44,32.28,18.84
5.4481,-10.542,-1.3757,0.033598,0.24526,-0.81459,-16.44,32.34,18.72
5.6388,-10.746,-1.3484,0.072082,-0.36835,-0.86071,-16.5,32.34,18.48
4.808,-10.569,-1.3757,0.072998,-0.85888,-0.96547,-16.86,32.46,18.6
4.3177,-10.637,-1.2667,0.06353,-1.2022,-1.0067,-17.1,32.22,18.48
4.0861,-10.692,-1.3212,0.037568,-1.23,-1.0363,-17.34,31.98,18.3
3.4732,-9.7522,-1.2939,-0.087965,-1.1295,-1.1054,-18.06,31.38,18.24
3.2689,-9.0303,-1.1305,-0.16463,-0.88606,-1.1582,-18.48,30.96,18.36
3.1191,-8.3357,-0.9398,-0.24435,-0.59223,-1.2254,-18.9,30.78,18.42
2.9965,-7.0826,-0.70826,-0.29749,-0.34789,-1.3861,-19.98,30.0,18.48
2.9556,-6.8647,-0.57205,-0.33781,-0.1628,-1.4951,-20.64,29.52,18.78
2.9829,-7.0009,-0.46309,-0.34086,-0.14142,-1.5449,-21.12,29.16,18.96
3.0101,-7.0553,-0.34051,-0.36041,-0.13439,-1.5977,-21.78,28.68,19.08
2.9148,-7.3141,-0.29965,-0.38332,-0.16921,-1.6194,-23.22,27.54,19.56
2.9011,-7.5729,-0.24517,-0.39859,-0.19303,-1.5727,-24.0,27.06,19.56
2.6832,-7.8317,0.081722,-0.41294,-0.17104,-1.4878,-25.5,25.68,19.68
2.6015,-7.7908,-0.14982,-0.41936,-0.085521,-1.3274,-26.16,25.2,19.62
2.6423,-7.9815,-0.31327,-0.41997,-0.058948,-1.2666,-26.94,24.66,19.74
2.547,-8.1995,-0.31327,-0.43463,-0.0058032,-1.1051,-27.66,24.18,19.62
2.3291,-8.4719,-0.21793,-0.45632,0.12187,-0.7477,-28.38,23.58,19.62
2.438,-8.9486,-0.17706,-0.47983,0.24862,-0.41111,-29.1,22.92,19.38
2.5742,-9.616,-0.20431,-0.48167,0.37507,0.18204,-30.54,21.66,19.02
2.8875,-9.3844,-0.35413,-0.35552,0.42486,0.60506,-31.26,21.06,18.9
3.0646,-9.6023,-0.62654,-0.197,0.24618,1.1405,-31.8,20.64,18.48
4.127,-12.136,-0.91256,-0.026573,0.024435,1.7904,-32.58,19.68,18.06
4.4402,-11.577,-1.58,0.17562,-0.18937,2.2397,-32.82,19.26,17.76
4.7263,-10.883,-2.3836,0.37477,-0.44685,2.6224,-32.82,19.08,17.7
4.7944,-9.1256,-3.514,0.52779,-0.80237,2.653,-32.76,18.9,17.82
4.3449,-9.6568,-3.7865,0.46334,-1.0156,2.4578,-32.52,19.02,18.0
4.127,-10.624,-3.5958,0.37874,-1.0629,2.3549,-32.22,19.14,18.42
3.9908,-12.108,-2.7377,0.15944,-0.9615,2.084,-31.74,19.5,18.66
3.7865,-13.035,-1.8251,-0.17135,-0.27367,1.4685,-31.08,19.68,19.14
3.0918,-11.387,-1.3212,-0.30482,0.44196,1.0745,-29.7,20.52,20.28
3.2689,-10.351,-1.58,-0.29199,1.1558,0.62766,-28.92,21.0,20.64
3.5958,-8.1313,-2.2201,-0.33537,1.5791,0.22633,-27.24,22.2,21.84
4.304,-6.2517,-2.1384,-0.21411,1.7633,-0.092852,-26.34,22.62,22.38
4.6854,-5.6252,-2.0022,0.012217,1.4062,-0.34361,-25.56,23.1,22.8
4.5901,-4.5356,-1.0215,0.11545,0.92424,-0.35216,-24.0,24.3,23.52
4.1133,-4.2904,-0.64016,0.1518,0.45235,-0.34208,-23.52,24.78,23.76
3.6911,-4.1406,-0.47671,0.16768,0.073609,-0.29077,-22.86,25.08,23.94
3.2144,-4.6309,-0.62654,0.17043,-0.12004,-0.082772,-21.96,25.44,24.12
3.1872,-4.9033,-0.85808,0.17746,-0.11881,0.092852,-21.78,25.68,24.0
3.2825,-5.6388,-1.1577,0.17257,-0.01405,0.29474,-21.54,25.62,23.94
3.623,-6.7012,-1.2258,0.18509,0.13653,0.4667,-21.54,25.98,23.7
3.7728,-7.0553,-1.4029,0.21136,0.24404,0.59529,-21.48,25.92,23.4
4.0452,-7.6546,-1.4438,0.2587,0.26909,0.65149,-21.42,25.98,23.28
4.5628,-8.7034,-1.8387,0.35888,0.042455,0.64904,-21.36,25.86,23.04
4.9987,-10.038,-2.2337,0.4047,-0.22449,0.65607,-21.3,25.92,22.74
5.0804,-10.733,-2.3699,0.41905,-0.3656,0.66096,-21.3,25.98,22.62
4.9169,-12.967,-2.6696,0.39554,-0.59437,0.62766,-20.94,26.34,22.56
4.3721,-13.579,-2.438,0.31337,-0.34208,0.51282,-20.82,26.46,22.68
4.1542,-14.996,-2.1793,0.22633,0.10782,0.42058,-20.58,26.64,22.74
4.5083,-13.648,-1.7979,0.069028,0.67134,0.30696,-20.16,27.18,22.8
4.6037,-12.517,-1.7025,-0.0045815,1.2095,-0.0033598,-19.86,27.24,22.8
4.9306,-12.149,-1.6344,-0.007025,1.1958,-0.12767,-19.62,27.42,22.86
5.3256,-10.815,-1.5255,0.053756,0.80268,-0.33506,-19.26,27.72,22.8
5.6524,-10.896,-1.5255,0.1292,0.17654,-0.42486,-19.26,28.08,22.8
5.5707,-10.883,-1.3484,0.17013,-0.489,-0.53145,-19.38,28.26,22.74
4.3721,-10.134,-1.1169,0.21961,-1.0828,-0.78863,-19.26,28.56,22.62
3.8546,-9.8611,-1.1305,0.23243,-1.1322,-0.94134,-19.2,28.68,22.74
3.6639,-9.9156,-1.0896,0.22999,-1.095,-0.99296,-19.14,28.8,22.74
3.7592,-9.902,-1.2258,0.19212,-0.96028,-1.0513,-19.14,28.68,22.86
3.7592,-9.0031,-1.1032,0.09896,-0.80695,-1.0663,-19.26,28.5,22.8
3.7047,-8.4446,-0.92618,0.010079,-0.76602,-1.0553,-19.44,28.32,22.8
3.3506,-7.4776,-0.7355,-0.064141,-0.73487,-1.0748,-19.62,28.02,22.92
3.051,-6.7693,-0.65378,-0.1127,-0.68264,-1.1341,-19.74,27.48,23.16
2.9556,-6.5786,-0.57205,-0.14386,-0.62614,-1.1765,-19.86,27.36,23.28
2.8739,-6.4833,-0.54481,-0.17959,-0.55344,-1.2245,-19.92,27.0,23.34
2.8194,-6.6059,-0.38137,-0.22602,-0.47831,-1.2452,-20.16,26.16,23.52
2.833,-6.7966,-0.28603,-0.26206,-0.43891,-1.2165,-20.16,25.74,23.7
2.7377,-7.1234,-0.12258,-0.34178,-0.31918,-1.1191,-20.76,24.9,24.0
2.5879,-7.5457,-0.01362,-0.38759,-0.21716,-1.0067,-21.12,24.54,24.0
2.5742,-7.927,-0.095342,-0.42577,-0.11637,-0.87048,-21.36,24.12,24.18
2.6696,-8.3765,-0.054481,-0.44043,-0.071166,-0.78832,-21.78,23.76,24.0
2.7104,-9.507,-0.040861,-0.47037,0.038179,-0.45784,-22.26,23.1,23.94
2.8875,-10.392,-0.10896,-0.48289,0.11668,-0.17959,-22.62,22.98,23.94
2.9692,-11.06,0.01362,-0.47678,0.21686,0.11515,-22.92,22.5,23.76
3.1599,-10.052,-0.44947,-0.41997,0.35888,0.49786,-23.52,22.08,23.58
3.1191,-9.9429,-0.7355,-0.38485,0.34056,0.62522,-23.82,21.78,23.58
3.3642,-12.517,-0.89894,-0.3821,0.27581,1.0739,-23.94,21.66,23.64
3.6366,-11.768,-0.84446,-0.42944,0.53237,1.5018,-24.18,21.36,23.58
3.8682,-10.924,-0.91256,-0.43463,0.72204,1.7263,-24.24,21.24,23.52
4.0725,-9.6977,-1.3076,-0.33842,0.80268,1.7419,-24.18,21.12,23.52
4.2904,-9.7113,-2.1248,-0.086437,0.56963,1.4713,-23.76,21.0,23.46
4.6309,-10.869,-2.0022,0.036041,0.25412,1.2272,-23.64,20.94,23.58
4.6445,-12.544,-1.866,0.058948,0.080329,0.94776,-23.34,20.94,23.76
4.5083,-12.898,-1.6072,-0.020159,0.17807,0.66859,-22.98,21.06,24.06
3.5685,-10.556,-1.1169,-0.076053,0.41111,0.37477,-22.08,21.12,24.36
3.514,-9.5479,-1.3212,-0.049175,0.65576,0.146,-21.66,21.42,24.48
3.6775,-7.4776,-1.58,0.064752,0.77244,-0.10354,-21.36,21.48,24.54
4.0589,-5.5026,-1.5936,0.25015,0.54336,-0.14264,-20.64,21.84,24.42
4.0997,-4.9987,-1.4982,0.30665,0.20067,-0.12614,-20.4,22.02,24.54
3.8273,-4.699,-1.2122,0.31887,-0.097738,-0.083078,-20.28,22.32,24.54
3.228,-4.3313,-0.92618,0.31887,-0.24557,-0.0085521,-19.68,22.86,24.6
3.0646,-4.2632,-0.8717,0.31521,-0.2755,0.13103,-19.5,23.1,24.72
3.1463,-4.6445,-1.0896,0.32406,-0.27581,0.33475,-19.26,23.16,24.6
3.623,-5.7342,-1.5255,0.33689,-0.27061,0.53939,-18.6,23.64,24.36
3.8682,-6.5786,-1.6753,0.34331,-0.2642,0.84422,-18.24,23.88,24.12
3.9227,-6.7693,-1.7706,0.354,-0.26176,0.92454,-18.06,24.18,23.88
4.2359,-7.2869,-2.0022,0.37782,-0.32742,1.0495,-17.7,24.36,23.46
4.2495,-7.6002,-2.152,0.3989,-0.43066,1.0553,-17.28,24.6,23.28
4.4675,-8.3357,-2.5061,0.40745,-0.55711,1.0278,-16.92,24.96,23.22
4.9714,-10.924,-2.8603,0.33445,-0.73395,0.97555,-16.08,25.62,23.1
4.8897,-12.354,-2.8739,0.20006,-0.66768,0.88881,-15.66,25.8,22.68
4.4947,-13.375,-2.4517,0.024435,-0.22205,0.65943,-14.94,26.04,22.5
3.5549,-13.866,-1.3757,-0.13561,0.43616,0.29444,-13.8,26.76,22.26
3.5549,-13.866,-1.3757,-0.1518,0.74984,0.15363,-13.8,26.76,22.26
3.5004,-15.05,-1.2667,-0.28191,1.7028,-0.39065,-13.2,27.06,21.96
5.094,-11.441,-1.2258,-0.17165,1.7013,-0.46853,-12.96,27.42,21.78
5.094,-11.441,-1.2258,-0.082467,1.2187,-0.45845,-12.96,27.42,21.78
5.9249,-11.182,-0.81722,0.024435,0.43127,-0.49572,-12.66,27.66,21.6
5.4073,-11.7,-0.51757,0.07086,-0.3598,-0.45143,-12.24,28.02,21.36
4.9169,-11.359,-0.50395,0.1066,-0.99479,-0.49144,-11.88,28.38,20.88
4.1814,-10.978,-0.57205,0.1518,-1.3314,-0.57971,-11.58,28.8,20.64
3.7865,-10.569,-0.57205,0.18051,-1.4111,-0.70769,-11.46,28.74,20.34
3.7184,-10.065,-0.72188,0.20983,-1.3479,-0.80695,-11.4,28.68,20.28
3.6911,-9.112,-0.81722,0.20067,-1.1707,-0.90408,-11.52,28.38,20.1
3.6366,-8.2403,-0.70826,0.16738,-1.1133,-0.9896,-11.94,28.32,19.68
3.4459,-7.464,-0.64016,0.11332,-1.0928,-1.0864,-12.06,28.02,19.68
3.1191,-7.1234,-0.53119,0.048258,-1.0434,-1.1875,-12.18,28.08,19.68
3.0646,-7.0826,-0.57205,-0.023824,-0.92485,-1.3124,-12.3,28.08,19.56
2.9829,-7.3277,-0.57205,-0.14997,-0.78466,-1.3821,-12.66,27.9,19.8
2.7649,-7.464,-0.53119,-0.25504,-0.60109,-1.4251,-13.08,27.9,19.74
2.5742,-7.5729,-0.40861,-0.35033,-0.38759,-1.4655,-13.74,27.84,19.68
2.547,-7.7364,-0.38137,-0.43249,-0.1631,-1.4743,-14.28,27.78,19.62
2.5742,-8.036,-0.17706,-0.49236,0.023824,-1.4801,-15.18,27.9,19.56
2.5198,-7.9543,-0.054481,-0.51985,0.22449,-1.4685,-16.26,27.72,19.5
2.5606,-7.8998,-0.068102,-0.49541,0.24465,-1.3738,-16.86,27.84,19.26
2.6423,-8.1177,-0.19068,-0.44868,0.17135,-1.2101,-17.46,27.9,18.96
2.833,-9.0303,-0.24517,-0.42577,0.065973,-0.92088,-18.96,27.72,18.6
2.9011,-9.8884,-0.35413,-0.4105,0.010385,-0.53878,-19.68,27.6,18.48
2.942,-10.583,-0.14982,-0.40928,0.044899,-0.089492,-20.28,27.42,18.3
2.833,-9.8203,-0.36775,-0.3769,0.13744,0.29444,-21.54,27.18,17.82
2.7104,-10.597,-0.35413,-0.3091,0.19334,1.0238,-22.08,26.88,17.64
3.3097,-12.136,-0.40861,-0.29963,0.25748,1.2816,-22.62,26.76,17.46
3.7184,-10.61,-0.96704,-0.15119,0.32926,1.7327,-23.58,26.76,17.28
4.2359,-9.8611,-1.3348,-0.0058032,0.23671,1.9908,-24.12,26.76,17.16
4.413,-8.7987,-1.7979,0.17959,-0.011301,1.8937,-24.42,26.82,17.28
3.9908,-9.398,-2.4789,0.34331,-0.5959,1.5769,-24.72,26.7,17.64
3.8001,-11.06,-2.261,0.28191,-0.81948,1.321,-24.72,26.82,18.0
3.4596,-12.503,-1.8115,0.049786,-0.60995,1.0186,-24.6,27.0,18.3
2.9284,-12.313,-0.95342,-0.23121,-0.043982,0.74617,-23.88,27.24,18.96
2.6423,-11.577,-0.98067,-0.43035,0.72479,0.613,-23.58,27.48,19.38
2.6015,-10.256,-1.4846,-0.50641,1.5522,0.51313,-23.34,27.78,19.74
3.2553,-7.8453,-1.8932,-0.3708,2.339,0.3091,-22.44,28.08,20.58
4.018,-6.279,-1.6344,-0.23366,2.3503,0.32926,-22.14,28.44,20.64
4.3721,-5.7886,-1.3484,-0.12981,1.9532,0.40653,-21.84,28.74,21.06
4.3585,-5.0123,-0.85808,-0.090408,1.6616,0.45601,-21.6,28.98,21.24
4.2087,-4.3858,-0.72188,-0.029322,0.77519,0.63286,-20.76,29.4,21.54
4.0044,-4.1406,-0.77636,0.0064141,0.28405,0.81062,-20.58,29.58,21.72
3.7456,-4.1133,-0.8717,0.042761,0.017715,0.99632,-20.16,29.82,21.66
3.6775,-4.6173,-0.91256,0.08827,-0.051924,1.1695,-19.68,30.3,21.36
3.9227,-5.5026,-0.99429,0.15058,-0.017104,1.3326,-19.56,30.6,21.3
4.3177,-6.7012,-1.185,0.19975,-0.0097738,1.5036,-19.38,30.9,21.12
4.6718,-7.7091,-1.3348,0.25565,-0.11606,1.6307,-19.2,31.2,21.0
4.9578,-9.0848,-1.471,0.29169,-0.17623,1.5941,-18.54,31.92,20.7
5.0668,-9.8748,-1.6617,0.33842,-0.24648,1.493,-18.3,32.46,20.52
5.38,-11.087,-1.9341,0.3824,-0.3824,1.2171,-17.82,33.06,20.28
6.1292,-13.157,-2.4925,0.3708,-0.43402,1.1063,-16.68,34.02,19.92
5.8023,-13.648,-2.2201,0.21319,-0.26725,0.65027,-16.08,34.56,19.68
5.3528,-13.579,-1.9341,0.10201,0.17837,0.2303,-15.48,35.04,19.5
4.6445,-15.187,-1.5119,0.051618,0.66035,-0.14447,-14.28,36.0,19.32
4.7671,-13.702,-1.4165,-0.10599,1.2043,-0.52351,-14.04,36.54,19.2
4.808,-10.733,-1.2803,-0.031765,1.5434,-0.95997,-13.74,36.96,19.08
5.5435,-10.338,-1.4301,0.0042761,1.4374,-0.98685,-13.5,37.56,18.78
5.489,-10.025,-1.2803,0.11209,0.71135,-1.1719,-13.56,37.8,18.6
5.6388,-10.406,-1.1986,0.17471,0.058338,-1.1203,-13.56,37.8,18.48
5.8023,-11.387,-1.1986,0.20311,-0.64874,-1.0311,-14.04,37.92,18.12
5.0531,-11.605,-1.2531,0.2022,-1.1903,-1.0134,-14.46,37.68,17.94
4.2223,-11.427,-1.0624,0.18143,-1.5232,-1.0427,-15.54,37.32,17.82
4.018,-11.128,-0.99429,0.1237,-1.5354,-1.0757,-16.14,36.96,17.76
3.7456,-10.351,-0.9398,0.047342,-1.4453,-1.1277,-16.8,36.78,17.82
3.6366,-9.7794,-0.85808,0.0097738,-1.3861,-1.1631,-17.46,36.48,17.82
3.228,-8.322,-0.51757,-0.092852,-1.1805,-1.2947,-18.6,35.64,17.82
3.051,-7.6138,-0.34051,-0.14355,-1.0629,-1.4242,-19.2,35.34,17.88
2.9011,-7.2869,-0.14982,-0.18295,-0.96364,-1.5284,-19.68,34.92,18.0
2.9011,-7.2733,-0.25879,-0.2303,-0.84269,-1.6353,-20.52,33.84,18.54
2.9284,-7.3958,-0.095342,-0.27245,-0.7926,-1.6506,-20.94,33.42,18.72
2.7786,-7.464,-0.081722,-0.35094,-0.70921,-1.6515,-21.48,33.06,18.96
2.4653,-7.641,0.19068,-0.4163,-0.55986,-1.6084,-22.44,32.22,19.38
2.3563,-7.8045,0.19068,-0.49511,-0.36744,-1.5403,-22.92,31.8,19.44
2.3018,-7.7636,0.23155,-0.5681,-0.083994,-1.4334,-23.94,30.78,19.68
2.3155,-7.9951,0.24517,-0.58796,-0.018631,-1.3754,-24.48,30.42,19.86
2.4517,-8.5808,0.14982,-0.62125,0.083383,-1.0941,-24.9,29.88,19.86
2.4653,-9.1256,0.28603,-0.61942,0.095295,-0.95692,-25.44,29.4,19.92
2.7104,-10.379,0.36775,-0.64721,0.13347,-0.43616,-26.52,28.62,19.62
2.6696,-10.338,0.39499,-0.62186,0.20464,-0.037874,-27.0,28.2,19.5
2.833,-9.5751,0.10896,-0.52993,0.26664,0.56169,-27.78,27.48,19.26
3.2144,-11.986,0.12258,-0.35461,0.17287,1.1521,-28.14,27.18,19.14
3.5549,-11.523,0.068102,-0.28436,0.19548,1.3592,-28.5,26.82,18.9
3.5413,-10.474,-0.54481,-0.097128,0.15821,1.6609,-28.68,26.64,18.72
4.1814,-9.1256,-1.7706,0.17837,0.015577,2.0165,-28.74,26.28,18.54
3.9635,-8.9349,-2.2065,0.32437,-0.18967,1.9245,-28.74,26.22,18.72
3.9635,-9.8748,-2.6968,0.38851,-0.40684,1.7526,-28.62,26.28,18.6
3.9499,-12.149,-2.4517,0.22297,-0.52473,1.5281,-28.02,26.58,18.9
3.5549,-13.28,-1.9477,0.007025,-0.28497,1.2837,-27.6,26.88,19.08
3.2825,-13.076,-1.5255,-0.10599,-0.084299,1.1558,-27.18,27.18,19.2
3.0373,-11.169,-1.8115,-0.25504,0.65057,0.80298,-26.04,27.78,19.98
3.3234,-9.9565,-2.4653,-0.24709,1.113,0.58185,-25.38,28.14,20.28
3.7047,-8.2812,-2.8058,-0.16218,1.3329,0.36774,-24.96,28.5,20.52
4.2223,-5.4754,-2.6696,-0.0064141,1.2208,0.24282,-23.82,29.28,20.82
4.1678,-4.8488,-2.1384,0.033598,0.92913,0.25259,-23.22,29.64,21.0
3.8954,-4.3994,-1.5936,0.039095,0.63347,0.26023,-22.62,30.0,21.24
3.5685,-3.9499,-1.3757,0.048869,0.41447,0.30757,-22.14,30.42,21.3
3.4459,-3.8001,-1.2258,0.081245,0.22724,0.42455,-21.36,31.02,21.24
3.5413,-4.2223,-1.3757,0.10263,0.060781,0.60934,-20.94,31.38,21.24
3.9227,-5.6524,-1.6753,0.13561,-0.081245,0.80359,-20.22,32.1,21.0
4.0725,-6.5105,-1.8796,0.16463,-0.17807,1.0174,-20.04,32.22,20.76
4.127,-7.0553,-1.9068,0.19975,-0.16463,1.2718,-19.8,32.4,20.76
4.2087,-7.4503,-2.0158,0.24771,-0.11179,1.3295,-19.5,32.64,20.7
4.4402,-7.927,-2.2746,0.28711,-0.10171,1.3036,-19.2,33.06,20.34
4.6582,-9.7522,-2.438,0.32345,-0.14875,1.2391,-18.36,33.78,19.92
4.9578,-10.746,-2.5198,0.32467,-0.23488,1.0999,-18.0,34.2,19.8
5.4481,-12.667,-2.7513,0.24709,-0.33414,1.0052,-17.1,35.1,19.44
5.3528,-13.348,-2.547,0.13011,-0.24038,0.83963,-16.62,35.52,19.26
5.0259,-13.648,-2.3836,0.022602,0.14508,0.54153,-15.9,35.88,19.14
4.4947,-15.309,-2.0703,-0.05284,0.66157,0.25473,-15.3,36.42,19.02
4.699,-13.062,-1.5527,-0.17104,1.2242,-0.16188,-14.28,37.02,18.96
4.6718,-11.25,-1.471,-0.10415,1.5122,-0.58643,-13.86,37.26,18.84
5.4345,-10.447,-1.5255,-0.0048869,1.4157,-0.67806,-13.32,37.92,18.6
5.6252,-10.134,-1.4029,0.1631,0.62156,-0.97464,-13.02,38.28,18.3
5.9521,-10.569,-1.4029,0.2135,0.23427,-0.98624,-12.96,38.58,18.12
5.8431,-11.087,-1.471,0.29932,-0.97586,-1.0238,-13.38,38.76,17.76
4.7535,-11.06,-1.4165,0.2978,-1.5293,-1.073,-13.68,38.82,17.58
4.2495,-10.964,-1.3212,0.27917,-1.8042,-1.1356,-13.98,38.76,17.58
3.5004,-10.188,-1.2803,0.16493,-1.6796,-1.1936,-14.76,38.7,17.58
3.2689,-9.4934,-1.2395,0.075442,-1.3882,-1.2205,-15.36,38.46,17.46
3.1191,-9.0303,-1.2803,-0.002138,-1.0626,-1.2382,-16.02,38.4,17.46
3.0918,-8.3493,-1.2258,-0.088575,-0.80787,-1.2569,-16.68,38.16,17.46
3.1872,-7.6546,-0.91256,-0.17379,-0.65607,-1.3106,-18.18,37.62,17.64
3.2144,-7.4095,-0.84446,-0.24954,-0.57177,-1.3341,-18.96,37.38,17.88
2.9965,-7.6683,-0.53119,-0.31918,-0.52595,-1.3726,-20.4,36.54,18.3
2.8058,-7.7636,-0.44947,-0.37935,-0.43616,-1.4151,-21.18,36.06,18.6
2.7377,-8.0224,-0.39499,-0.42455,-0.30268,-1.4456,-21.9,35.52,18.72
2.6968,-8.1722,-0.28603,-0.47556,-0.078802,-1.4337,-23.52,34.5,19.14
2.5061,-8.2267,-0.01362,-0.5003,0.048258,-1.4398,-24.3,33.9,19.26
2.4789,-7.927,0.16344,-0.49602,0.17165,-1.4242,-25.92,32.82,19.38
2.5061,-7.641,0.14982,-0.45662,0.22877,-1.2865,-26.7,32.1,19.38
2.5742,-8.1858,-0.095342,-0.43646,0.1741,-1.0821,-27.48,31.56,19.32
2.6696,-8.5808,-0.1362,-0.40225,0.034514,-0.79015,-28.38,31.08,19.32
2.833,-10.365,-0.095342,-0.38607,-0.096211,-0.44074,-30.0,29.76,19.08
2.8603,-10.869,-0.29965,-0.3708,-0.12126,-0.057727,-30.66,29.16,19.02
2.6968,-10.828,-0.35413,-0.32926,-0.05284,0.30146,-31.38,28.5,18.78
3.0782,-12.013,-0.43585,-0.27061,0.035125,0.85032,-32.46,27.48,18.54
3.4732,-10.787,-0.76274,-0.1518,0.18173,1.2969,-32.88,27.06,18.48
3.8682,-10.12,-1.471,0.032681,0.14203,1.6701,-33.3,26.64,18.48
4.304,-9.1665,-2.152,0.31093,-0.19151,1.9261,-33.36,26.4,18.6
4.0589,-8.8396,-2.9284,0.41997,-0.54245,1.8231,-33.54,26.22,18.84
3.7456,-9.6977,-3.1735,0.38362,-0.78343,1.7205,-33.48,26.1,18.9
3.0237,-12.054,-2.152,0.19548,-0.73365,1.5372,-32.76,26.34,19.44
2.547,-11.904,-1.3212,-0.17104,0.0024435,1.241,-32.4,26.64,19.8
2.3427,-11.455,-1.0079,-0.2587,0.35155,1.1387,-31.74,26.82,20.16
2.8058,-10.665,-1.6481,-0.33292,1.4719,0.90591,-30.6,27.78,20.76
3.4187,-9.7249,-2.0839,-0.39156,1.9893,0.68203,-29.88,28.14,21.06
3.8954,-8.0224,-2.4653,-0.26878,2.1924,0.47678,-29.1,28.62,21.36
4.7944,-5.4073,-2.0975,0.019853,1.6616,0.38271,-28.14,29.64,21.66
4.9033,-4.9442,-1.7434,0.14783,0.94012,0.41783,-27.54,30.24,21.72
4.6582,-4.6173,-1.4029,0.1854,0.56474,0.44685,-26.88,30.72,21.72
3.8137,-4.3858,-1.3212,0.21014,-0.26328,0.53848,-26.04,31.32,21.6
3.4187,-4.4266,-1.2667,0.20953,-0.42883,0.64935,-25.56,31.86,21.42
3.3097,-4.8625,-1.3076,0.20678,-0.38973,0.77519,-25.2,32.22,21.3
3.4868,-5.7342,-1.8387,0.17715,-0.15088,1.0037,-24.66,33.06,20.82
3.7592,-6.7012,-2.0158,0.16402,0.031765,1.1209,-24.3,33.3,20.64
3.9908,-6.9055,-2.0431,0.16707,0.16035,1.1808,-24.0,33.54,20.46
4.4539,-7.6683,-2.2337,0.19548,0.19395,1.1836,-22.98,34.02,19.98
4.6445,-8.4582,-2.4244,0.24068,0.11545,1.1646,-22.62,34.32,19.74
4.8897,-9.5615,-2.6696,0.26634,-0.065973,1.1188,-22.2,34.8,19.44
5.5026,-12.286,-3.0918,0.2364,-0.3375,1.0305,-21.0,35.58,19.2
5.4481,-13.389,-2.8603,0.1909,-0.37904,0.97952,-20.46,35.88,19.08
4.7944,-13.757,-2.3972,-0.0048869,-0.065363,0.59773,-19.92,36.36,18.9
4.3177,-14.587,-2.1793,-0.053451,0.37599,0.3204,-19.26,36.84,18.84
4.5356,-14.506,-1.7706,-0.22877,0.95784,-0.0045815,-18.12,37.44,18.72
4.6309,-12.79,-1.6753,-0.22724,1.3974,-0.3879,-17.52,37.74,18.54
4.8761,-12.163,-1.5255,-0.16157,1.5266,-0.56658,-17.04,37.92,18.54
5.5162,-10.569,-1.4846,0.02138,0.94104,-0.94348,-16.38,38.16,18.24
5.7614,-10.978,-1.4438,0.17959,0.18357,-1.0336,-16.32,38.22,17.94
5.993,-11.496,-1.3484,0.22907,-0.2303,-1.0626,-16.14,38.28,17.7
5.6524,-11.673,-1.3484,0.32193,-1.3179,-1.252,-16.38,38.4,17.52
4.1542,-10.706,-1.2531,0.35064,-1.7077,-1.3491,-16.74,38.28,17.22
3.7865,-10.665,-1.2939,0.35216,-1.8485,-1.4227,-17.1,38.16,17.16
3.2825,-9.6704,-1.4165,0.29963,-1.7727,-1.4484,-17.64,37.74,17.1
3.0782,-8.9213,-1.5391,0.24068,-1.5372,-1.478,-18.12,37.32,17.28
2.9829,-8.2539,-1.4438,0.16554,-1.2923,-1.4911,-18.66,37.02,17.46
2.9284,-7.6274,-1.1986,0.075136,-0.99968,-1.5821,-19.26,36.72,17.52
2.7786,-6.9191,-0.85808,0.020464,-0.90286,-1.6396,-20.34,35.76,17.76
2.6968,-6.7966,-0.72188,-0.047953,-0.89461,-1.6796,-21.06,35.34,18.0
2.547,-6.7966,-0.64016,-0.17257,-0.84452,-1.6854,-22.56,34.56,18.72
2.3018,-7.1915,-0.49033,-0.21838,-0.78679,-1.664,-23.28,34.02,19.2
2.152,-7.3141,-0.50395,-0.37415,-0.47861,-1.5586,-24.06,33.48,19.62
2.0975,-7.3822,-0.24517,-0.46762,-0.19426,-1.4743,-24.78,32.88,19.92
2.0839,-7.3686,-0.28603,-0.5174,0.071166,-1.358,-26.34,31.74,20.52
2.2201,-7.3686,-0.19068,-0.52473,0.25351,-1.2187,-27.12,31.2,20.76
2.2474,-7.9951,-0.027241,-0.51191,0.34575,-1.0137,-27.9,30.54,20.88
2.1656,-8.6762,0.14982,-0.46426,0.36377,-0.72418,-29.58,29.4,20.82
2.1112,-9.5479,0.35413,-0.38118,0.36499,-0.10751,-30.3,28.74,20.7
2.0567,-10.474,0.32689,-0.3091,0.37965,0.36927,-31.08,28.08,20.82
2.1112,-10.134,-0.19068,-0.18234,0.41447,0.80451,-32.58,27.18,20.64
1.8932,-9.7385,-0.47671,-0.0039706,0.36652,1.1872,-33.0,26.7,20.46
1.7434,-11.496,-0.49033,0.14294,0.11057,1.9737,-33.48,26.28,20.28
3.2416,-12.708,-0.78998,0.16707,0.14264,2.3051,-33.84,25.62,20.1
3.732,-12.313,-1.1032,0.17104,0.13653,2.405,-33.84,25.62,20.04
4.0044,-11.496,-1.471,0.17196,0.061697,2.5708,-33.72,25.74,20.04
3.9635,-9.6023,-2.3427,0.25443,-0.15302,2.2965,-33.0,26.04,20.1
3.6503,-10.351,-2.4653,0.29902,-0.46884,1.9517,-32.46,26.34,20.22
3.2825,-12.122,-2.3291,0.085216,-0.33017,1.4694,-31.86,26.76,20.34
2.8603,-12.926,-1.2395,-0.17868,0.2981,1.1814,-30.06,27.84,20.88
2.7649,-12.354,-0.89894,-0.39676,1.1661,0.98838,-29.1,28.38,21.24
2.8603,-11.441,-0.88532,-0.47922,1.5824,0.92882,-28.2,29.16,21.48
3.6094,-9.6977,-1.4846,-0.59254,2.4551,0.67348,-26.22,30.36,21.78
4.1542,-7.7091,-1.9068,-0.55711,2.7177,0.49022,-25.44,31.02,21.9
4.6854,-6.279,-1.7298,-0.41447,2.6001,0.3879,-24.6,31.68,21.96
5.1485,-4.6718,-1.185,-0.20281,1.6835,0.33506,-23.28,32.82,21.6
4.8625,-4.3177,-0.85808,-0.11515,0.8882,0.3146,-22.74,33.24,21.42
4.5083,-4.1951,-0.69464,-0.043677,0.36774,0.33689,-22.2,33.54,21.36
3.8954,-4.1542,-0.81722,0.018021,0.12462,0.40256,-21.6,34.26,20.88
3.8001,-4.5628,-0.96704,0.0562,0.042455,0.49541,-21.42,34.32,20.58
3.8137,-5.1213,-1.2258,0.07758,0.055283,0.61453,-21.18,34.5,20.34
4.0861,-6.6604,-1.7025,0.10965,0.14661,0.7645,-21.18,34.68,19.68
4.5083,-7.6002,-1.7025,0.11179,0.1686,0.82284,-21.12,34.98,19.32
4.6582,-8.4446,-1.9613,0.14294,0.17043,0.89675,-20.94,35.1,18.84
4.8761,-9.2482,-2.1248,0.24435,0.047037,0.94348,-20.94,35.22,18.66
5.5707,-10.774,-2.8875,0.31673,-0.20403,0.95631,-20.46,35.58,18.12
5.9521,-11.7,-3.1599,0.36194,-0.67653,0.89186,-20.22,35.82,17.88
5.7342,-12.967,-3.0237,0.3036,-0.8262,0.74037,-19.56,36.3,17.82
5.1213,-13.702,-2.547,0.20678,-0.71654,0.49602,-19.08,36.48,17.88
4.9033,-14.86,-2.4653,0.094379,-0.42791,0.30788,-18.54,36.84,17.7
4.7263,-15.05,-2.2746,-0.14783,0.1628,-0.036957,-18.12,37.2,17.76
4.5901,-12.476,-1.7162,-0.20097,0.68142,-0.38851,-16.92,37.86,17.88
4.9306,-11.591,-1.5255,-0.21319,0.93829,-0.62217,-16.62,38.1,17.94
5.094,-10.134,-1.4846,-0.1408,0.84177,-0.92516,-16.2,38.46,17.94
5.7205,-10.774,-1.58,0.086743,0.040012,-1.1878,-15.66,38.64,17.76
5.993,-11.087,-1.5663,0.13042,-0.33903,-1.2306,-15.54,38.58,17.76
5.7886,-11.114,-1.471,0.21228,-1.4682,-1.4203,-15.24,38.64,17.7
4.3858,-11.196,-0.96704,0.19426,-1.8931,-1.4468,-15.54,38.58,17.82
3.8137,-11.223,-0.85808,0.12126,-2.0491,-1.474,-15.6,38.34,17.88
3.3506,-10.815,-0.85808,0.009163,-1.8949,-1.5311,-15.66,38.16,17.88
2.6696,-9.3572,-0.83084,-0.16463,-1.277,-1.6292,-16.08,37.86,18.0
2.5334,-8.6353,-0.61292,-0.24221,-0.83291,-1.7211,-16.62,37.56,18.36
2.5334,-8.0632,-0.47671,-0.28375,-0.5226,-1.8048,-16.92,37.2,18.42
2.7241,-7.6955,-0.38137,-0.31734,-0.36774,-1.8586,-18.18,36.42,18.78
2.8875,-7.641,-0.24517,-0.34606,-0.32223,-1.8842,-18.78,35.82,18.9
2.656,-7.5729,-0.10896,-0.40317,-0.33781,-1.8494,-20.22,34.86,19.56
2.5334,-7.6274,0.095342,-0.4218,-0.3317,-1.8213,-21.0,34.32,19.8
2.4108,-7.5729,0.1362,-0.48136,-0.21747,-1.7324,-21.84,33.72,20.1
2.3427,-7.4776,0.12258,-0.49083,-0.16799,-1.6952,-22.86,33.12,20.28
2.2882,-7.3141,0.19068,-0.50457,-0.007025,-1.5391,-24.54,32.04,20.58
2.2474,-7.4095,0.20431,-0.47983,0.058338,-1.3961,-25.32,31.38,20.76
2.3836,-8.2403,0.14982,-0.4612,0.065973,-1.1845,-27.18,30.06,20.76
2.547,-8.9213,0.14982,-0.44654,0.054978,-0.70891,-28.14,29.4,20.76
2.5334,-9.6023,0.040861,-0.44104,0.053451,-0.31246,-28.86,28.8,20.46
2.6015,-10.038,0.040861,-0.42669,0.081245,-0.087965,-29.76,28.14,20.34
2.6832,-9.7385,-0.027241,-0.34789,0.20892,0.53603,-30.48,27.54,20.22
2.7649,-10.651,-0.35413,-0.25412,0.18662,0.98807,-31.8,26.76,19.92
3.1191,-11.877,-0.44947,-0.13622,0.25992,1.7547,-32.34,26.28,19.68
3.5822,-10.188,-0.85808,-0.074526,0.29047,1.9096,-32.88,25.68,19.32
3.9363,-9.1529,-1.2803,0.087965,0.26145,2.2382,-33.06,25.62,19.2
4.127,-8.4719,-1.866,0.37507,0.010079,2.3161,-32.88,25.56,19.14
3.8682,-9.793,-2.5742,0.53909,-0.33567,2.2724,-32.46,25.74,19.14
4.1951,-11.795,-2.8875,0.59315,-0.62094,2.2116,-32.34,26.1,19.08
4.1951,-13.171,-2.6287,0.48106,-0.65729,2.0247,-31.92,26.4,19.14
3.4187,-12.299,-1.7298,0.15944,-0.17287,1.6753,-30.66,27.6,19.56
3.1872,-11.645,-1.4438,0.10782,0.078191,1.5736,-29.82,28.14,19.86
3.2553,-10.065,-1.7298,0.068111,0.85307,1.2828,-29.04,28.8,20.1
3.8818,-8.322,-2.3972,0.10843,1.1668,1.0052,-26.88,30.06,20.4
4.6445,-6.2517,-2.7649,0.18082,1.2223,0.81398,-25.02,31.44,20.64
4.8352,-5.4481,-2.1929,0.24862,1.0015,0.69883,-23.34,32.88,20.88
4.6445,-5.2166,-1.7979,0.25412,0.48594,0.57757,-22.26,33.42,20.94
4.1678,-4.8761,-1.1986,0.25901,0.21716,0.55803,-20.76,34.44,20.94
4.1406,-4.8625,-1.2531,0.28802,-0.011301,0.62186,-19.5,35.22,20.64
4.3858,-5.3528,-1.5527,0.30849,-0.20464,0.73212,-18.3,35.76,20.28
4.6037,-6.2517,-1.9341,0.3204,-0.34758,0.81948,-17.58,36.18,19.62
4.6309,-7.0553,-2.1656,0.32498,-0.40073,0.88881,-16.92,36.54,19.02
4.7126,-7.3005,-2.3291,0.32681,-0.37507,0.90255,-16.5,37.02,18.48
4.8761,-7.8045,-2.4925,0.33903,-0.30268,0.77702,-15.96,37.2,18.18
4.9578,-8.0632,-2.5334,0.33262,-0.34636,0.64049,-15.6,37.32,17.94
5.2438,-9.0303,-2.7377,0.30391,-0.4444,0.48319,-15.0,37.98,17.52
5.4073,-10.147,-2.6151,0.22969,-0.53176,0.33964,-14.52,38.16,17.34
5.2302,-12.476,-2.4653,0.10507,-0.50763,0.17593,-13.68,38.46,17.28
