Ax,Ay,Az,Gx,Gy,Gz,Mx,My,Mz
4.7535,-9.1256,-3.909,0.039706,0.146,-0.21136,14.82,42.36,83.76
5.1757,-10.011,-4.0316,-0.092852,0.29627,-0.39248,15.06,42.54,83.52
5.9112,-11.795,-3.6094,-0.25565,0.26603,-0.53695,15.18,43.02,83.34
6.1564,-13.007,-3.2689,-0.35369,0.18998,-0.60598,15.36,43.08,83.34
6.1836,-13.525,-3.228,-0.49755,0.15424,-0.69058,15.48,43.2,83.34
6.1292,-13.525,-3.3506,-0.66523,0.12584,-0.81703,15.36,43.26,83.34
5.9249,-12.149,-2.9556,-0.72785,0.040317,-0.99143,15.18,43.26,83.22
5.9112,-11.945,-2.2474,-0.6857,-0.13286,-1.1823,14.94,43.38,83.28
6.6059,-13.089,-1.7025,-0.55894,-0.63072,-1.3641,14.46,43.14,83.64
6.4969,-13.362,-1.7706,-0.5452,-0.90805,-1.4279,13.98,43.08,83.94
5.993,-13.089,-1.7025,-0.58979,-1.3955,-1.4911,13.56,42.96,84.18
4.9714,-11.564,-1.3757,-0.68203,-1.8457,-1.6848,12.12,42.42,84.84
4.0861,-10.447,-1.0896,-0.6747,-1.8262,-1.825,11.58,42.24,85.32
3.2825,-9.2618,-1.2531,-0.68997,-1.4731,-2.0409,10.8,42.0,85.68
2.833,-8.1177,-1.185,-0.69944,-1.0482,-2.2541,9.6,41.34,86.4
3.0373,-7.641,-0.96704,-0.68386,-0.57421,-2.4138,8.76,41.04,86.64
3.0918,-7.5048,-0.81722,-0.65637,-0.21014,-2.5962,7.86,40.86,86.94
3.1191,-7.3414,-0.47671,-0.62369,-0.11576,-2.5714,5.64,40.26,87.66
3.2144,-7.355,-0.40861,-0.58063,-0.18784,-2.448,4.38,39.96,87.84
3.2553,-7.355,-0.40861,-0.54795,-0.34728,-2.281,2.1,39.18,88.02
3.0646,-7.2188,-0.38137,-0.50244,-0.49663,-1.8995,1.02,38.88,88.02
2.7922,-7.0553,-0.28603,-0.47556,-0.50671,-1.7413,-0.18,38.58,87.96
2.5742,-6.7557,-0.14982,-0.42883,-0.47037,-1.3989,-1.32,38.16,87.9
2.3563,-6.5105,-0.054481,-0.29169,-0.27031,-0.87293,-2.22,37.8,87.9
2.4517,-6.674,-0.24517,-0.14172,-0.098044,-0.5342,-4.14,37.14,87.6
2.5742,-6.851,-0.46309,-0.015272,0.0033598,-0.22144,-5.04,36.72,87.6
2.8467,-7.4776,-0.70826,0.15669,0.027184,0.083689,-6.72,36.12,87.12
2.8467,-8.2267,-0.91256,0.31765,0.0042761,0.39767,-7.32,35.7,86.94
2.8603,-9.0303,-0.99429,0.43402,-0.020769,0.6918,-7.74,35.34,86.82
2.7649,-9.9156,-1.0488,0.54886,0.054367,1.182,-8.04,35.16,86.4
2.8603,-11.891,-1.1713,0.57849,0.18051,1.5879,-8.16,35.04,86.04
3.1872,-12.476,-1.1577,0.57116,0.37751,2.0107,-8.28,35.22,85.98
3.4596,-11.945,-1.185,0.47098,0.7309,2.4279,-8.4,35.28,85.86
3.732,-10.964,-2.0158,0.49266,0.76144,2.4963,-8.16,35.58,85.86
3.8682,-11.427,-2.0294,0.62583,0.65027,2.4804,-7.68,35.82,85.98
3.8001,-11.945,-2.0431,0.64752,0.59468,2.4505,-7.2,36.12,85.86
3.6366,-12.503,-1.4574,0.52137,0.58704,2.3427,-5.88,36.9,85.92
3.732,-12.0,-1.2803,0.3824,0.71532,2.2837,-5.16,37.44,85.98
3.8954,-11.06,-1.471,0.26328,0.84635,2.2602,-4.2,37.98,86.04
3.6775,-8.5808,-1.58,0.19609,1.0577,2.0858,-2.28,39.18,86.28
3.5685,-7.3686,-1.6753,0.25198,1.2019,1.9395,-1.14,39.66,86.22
3.5822,-6.4833,-1.7025,0.35583,1.2071,1.7953,-1.14,40.02,86.46
3.8954,-6.2517,-1.7298,0.47464,1.0547,1.6729,2.4,40.74,86.52
4.1951,-6.6604,-1.7706,0.5791,0.8433,1.5947,3.78,40.98,86.4
4.6037,-7.355,-2.0839,0.63438,0.57788,1.6154,5.16,41.4,86.52
5.2438,-8.2676,-2.9011,0.64966,0.12584,1.693,7.86,42.12,86.1
5.4073,-8.7987,-3.2961,0.63591,-0.12126,1.7162,9.12,42.6,85.74
5.3119,-8.8805,-3.4732,0.58674,-0.31337,1.6716,10.32,42.96,85.56
5.2166,-9.1529,-3.732,0.52076,-0.37018,1.5333,12.66,43.5,84.78
5.1485,-8.8668,-3.909,0.41325,-0.30177,1.3222,13.62,43.74,84.3
5.0804,-8.4446,-4.018,0.31398,-0.20006,1.0189,15.48,44.16,83.52
4.7807,-8.6625,-3.8682,0.27581,-0.055283,0.65699,16.32,44.34,83.16
4.8352,-9.4798,-4.018,0.26328,0.10996,0.29627,17.16,44.64,82.74
5.0668,-10.174,-4.2495,0.17318,0.27397,-0.03146,18.06,44.88,82.5
5.4481,-10.447,-3.7728,-0.11393,0.38668,-0.50305,19.38,45.3,81.78
5.2983,-10.964,-3.228,-0.18021,0.40073,-0.76938,19.86,45.48,81.54
5.4345,-12.463,-3.2689,-0.18204,0.41264,-0.96089,20.22,45.54,81.24
5.9249,-13.988,-4.2087,-0.34331,0.34514,-1.1741,21.0,45.9,81.0
5.8704,-12.34,-4.0316,-0.66432,0.20036,-1.3457,20.94,45.96,80.94
5.5435,-11.414,-3.4459,-0.70311,0.12737,-1.4374,20.94,46.08,80.94
5.9657,-12.544,-2.0839,-0.48869,-0.35033,-1.6903,20.34,46.32,80.94
6.3198,-13.838,-1.7706,-0.46884,-0.83261,-1.8283,19.98,46.68,81.06
6.4152,-14.587,-1.6072,-0.51832,-1.4138,-1.9132,19.5,46.68,81.06
5.3392,-13.866,-1.4165,-0.67531,-1.9337,-2.055,18.24,46.74,81.36
4.5083,-12.572,-1.471,-0.82314,-2.2584,-2.2431,17.58,46.62,81.66
3.4187,-11.169,-1.5936,-0.88423,-2.2144,-2.4422,16.68,46.56,81.9
2.9284,-10.324,-1.2667,-0.89675,-1.8353,-2.6136,15.78,46.5,82.38
2.152,-8.9758,-0.84446,-0.87079,-1.299,-2.8161,13.92,46.32,83.28
2.0567,-8.6762,-0.83084,-0.89003,-0.6521,-2.9132,12.84,46.08,83.76
2.3427,-7.9815,-0.72188,-0.93218,-0.07086,-2.9441,11.46,45.54,84.24
2.5879,-7.8589,-0.50395,-0.88606,0.28741,-2.8634,8.28,44.94,84.96
2.8058,-7.7364,-0.40861,-0.86254,0.29596,-2.8253,6.54,44.64,85.38
2.8603,-7.6819,-0.32689,-0.81031,0.12339,-2.5751,4.98,44.22,85.74
2.6423,-7.4503,-0.19068,-0.76083,-0.048869,-2.3338,1.68,42.84,86.1
2.5606,-7.3005,-0.16344,-0.69852,-0.20159,-2.0061,0.12,42.24,86.28
2.3563,-7.1643,-0.19068,-0.58032,-0.2306,-1.4694,-1.32,41.64,86.4
2.0703,-7.0145,-0.12258,-0.53848,-0.19151,-1.2883,-4.14,40.38,86.52
1.9613,-7.2324,-0.14982,-0.40439,-0.086132,-0.94104,-5.52,39.84,86.64
1.9613,-7.3822,-0.14982,-0.1576,0.12614,-0.36927,-6.66,39.12,86.64
2.2065,-8.145,-0.43585,0.01741,0.21777,0.053145,-8.94,37.86,86.34
2.3155,-8.6081,-0.76274,0.18815,0.27184,0.47434,-9.9,37.38,86.16
2.3972,-9.4798,-1.5391,0.32773,0.30055,0.91263,-10.56,37.02,85.86
2.3291,-10.474,-1.4165,0.33598,0.42883,1.5928,-11.46,36.12,85.56
2.3291,-10.474,-1.4165,0.33598,0.42883,1.5928,-11.46,36.12,85.56
2.7377,-10.188,-1.3893,0.16463,0.9838,2.5901,-11.64,35.34,85.08
2.8194,-9.5887,-1.471,0.13286,1.0626,2.6903,-11.76,35.34,85.14
2.9965,-9.7113,-1.7706,0.19334,1.1551,2.8191,-11.82,35.46,85.26
3.5685,-11.591,-1.6889,0.27397,1.1432,2.9438,-11.82,35.7,85.5
3.9635,-12.572,-1.6072,0.31124,1.0837,3.0928,-11.46,35.94,85.62
4.1542,-12.926,-1.5663,0.28986,1.0052,3.2602,-10.98,36.0,85.56
4.6445,-12.354,-1.4029,0.23396,0.78741,3.4471,-9.66,36.9,85.92
4.8352,-11.591,-1.5119,0.23732,0.63713,3.4273,-8.7,37.44,86.1
4.6718,-10.025,-1.8251,0.2755,0.55131,3.288,-7.32,37.86,86.28
4.4539,-8.2948,-1.6344,0.33231,0.45418,3.094,-4.74,38.94,86.76
4.3313,-7.927,-1.58,0.38301,0.34606,2.8634,-3.12,39.48,86.82
4.0316,-7.6274,-1.3348,0.47586,0.29077,2.5986,-1.56,40.02,87.18
4.2768,-8.1041,-1.3076,0.55619,0.4664,2.2568,1.62,41.04,87.54
4.7671,-8.5672,-1.7298,0.61056,0.61148,2.08,3.48,41.52,87.54
5.2847,-9.0848,-2.261,0.6243,0.63102,1.927,5.4,41.88,87.54
6.0202,-9.221,-3.2553,0.5397,0.35919,1.6622,9.18,42.72,87.3
6.0747,-8.7443,-3.4596,0.52595,0.11332,1.4166,10.8,43.26,87.0
6.1292,-8.3493,-3.7047,0.52626,0.0039706,1.2715,12.36,43.68,86.76
5.9657,-8.1722,-3.9771,0.5507,-0.18479,0.94776,13.74,44.04,86.58
5.3119,-8.1586,-3.9908,0.50213,-0.3149,0.42241,16.5,44.46,85.8
5.2575,-8.7715,-3.9227,0.46762,-0.29077,0.088575,17.4,44.7,85.56
5.2575,-9.9292,-4.0044,0.26848,-0.10965,-0.35919,19.26,45.06,84.9
5.0531,-10.161,-3.7728,0.041233,0.073609,-0.64966,19.92,45.24,84.66
4.9442,-10.283,-3.4596,-0.089492,0.26664,-0.91691,20.52,45.36,84.24
4.9578,-10.869,-3.0373,-0.094684,0.34178,-1.0342,21.12,45.48,84.0
5.7342,-13.579,-3.3778,-0.05284,0.416,-1.2846,21.48,45.6,83.46
6.0611,-14.397,-4.1133,-0.25412,0.29535,-1.4587,21.54,45.72,83.28
5.7342,-12.885,-3.6775,-0.59712,0.10934,-1.6784,21.42,45.78,83.28
5.5026,-12.381,-1.9613,-0.48045,-0.3091,-1.9887,21.06,45.72,83.04
5.7069,-13.811,-1.4982,-0.42211,-0.50641,-2.0702,20.64,45.66,83.04
5.7614,-15.159,-1.1032,-0.42547,-0.93035,-2.2119,20.1,45.6,82.98
5.1485,-15.827,-1.0896,-0.69578,-1.449,-2.4236,18.66,45.48,83.46
4.3449,-14.478,-0.81722,-0.96028,-1.5919,-2.6237,17.82,45.18,83.46
4.0589,-13.184,-0.99429,-0.96089,-1.5769,-2.8045,16.86,44.88,83.7
2.8739,-10.924,-0.99429,-0.88087,-1.5204,-3.1304,15.0,44.1,84.3
2.5061,-10.011,-0.6674,-0.81978,-1.2984,-3.3326,13.86,43.62,84.84
2.0567,-9.4934,-0.38137,-0.7758,-0.87415,-3.4917,12.48,42.96,85.08
1.8932,-8.7443,-0.38137,-0.75564,-0.42211,-3.5284,10.02,41.94,86.1
2.0022,-8.3765,-0.44947,-0.71624,-0.069333,-3.4697,8.4,41.28,86.22
2.0567,-7.9815,-0.36775,-0.67653,0.19181,-3.3124,6.84,40.56,86.46
2.3018,-7.7772,-0.43585,-0.60964,0.31276,-3.0962,3.48,39.36,86.52
2.4108,-7.5457,-0.35413,-0.53512,0.19517,-2.6502,1.92,38.7,86.46
2.6015,-7.1915,-0.19068,-0.4609,-0.046731,-2.2721,0.36,37.98,86.34
2.261,-6.5378,-0.054481,-0.41172,-0.26725,-1.8589,-2.58,36.48,85.92
2.1793,-6.2517,-0.054481,-0.3317,-0.37232,-1.3974,-4.02,35.76,85.62
1.8796,-5.993,-0.027241,-0.23152,-0.45051,-0.97677,-5.22,35.16,85.32
1.7025,-6.2517,-0.25879,-0.073304,-0.45112,-0.52168,-7.74,33.9,84.66
1.7025,-6.5922,-0.36775,0.18723,-0.36866,0.21747,-8.64,33.36,84.24
1.8524,-7.1098,-0.49033,0.27061,-0.3204,0.48014,-9.54,32.94,83.94
2.1793,-8.2676,-0.78998,0.49938,-0.16921,1.248,-10.8,31.98,83.04
2.2474,-8.9622,-0.96704,0.6243,-0.075136,1.7459,-11.1,31.62,82.86
2.4517,-9.9565,-1.1577,0.72265,0.015272,2.2611,-11.22,31.38,82.56
3.0646,-11.536,-1.0896,0.77763,0.084605,3.0055,-11.22,31.08,82.2
3.4187,-11.605,-1.185,0.74037,0.18876,3.3231,-11.1,31.14,82.32
3.5413,-11.468,-1.2803,0.73151,0.18326,3.4181,-10.86,31.2,82.44
3.6094,-11.795,-1.5391,0.78649,0.16921,3.5088,-10.62,31.26,82.44
3.8273,-13.648,-1.5663,0.84635,0.17685,3.5171,-9.72,31.86,83.04
3.9499,-14.41,-1.471,0.79474,0.18723,3.4462,-9.0,32.1,83.46
4.1133,-14.043,-1.4438,0.6802,0.31246,3.3381,-8.1,32.52,83.82
4.5628,-11.931,-1.6072,0.55131,0.55039,3.1292,-5.82,33.48,84.66
4.3994,-10.637,-1.7979,0.52076,0.61392,3.007,-4.26,34.02,84.96
4.2495,-9.793,-1.8387,0.48503,0.72357,2.748,-2.94,34.62,85.08
3.8682,-7.8726,-1.7162,0.50946,0.69028,2.2816,0.12,35.7,85.74
3.8409,-7.4367,-1.7025,0.55222,0.68631,2.0299,1.68,36.18,85.92
3.8954,-7.2733,-1.8387,0.59284,0.75198,1.8021,3.3,36.42,86.34
4.5356,-7.7772,-2.2474,0.62919,0.72876,1.5791,6.54,37.26,86.64
4.8625,-8.0905,-2.7241,0.60659,0.6463,1.5253,8.16,37.5,86.76
5.1485,-8.2539,-2.9692,0.55008,0.30207,1.3809,9.9,37.98,86.82
5.1621,-8.3084,-3.228,0.51771,0.10904,1.2733,12.72,38.34,86.34
5.0531,-8.3901,-3.4868,0.50305,-0.040012,1.1319,13.98,38.58,86.04
5.094,-8.5127,-3.8001,0.44318,-0.14661,0.95448,15.12,38.82,85.8
4.9033,-8.1586,-3.9363,0.31673,-0.1799,0.57116,16.92,39.12,84.96
4.9169,-8.3901,-3.7047,0.27428,-0.1347,0.27214,17.52,39.12,84.66
4.7944,-8.8668,-3.5685,0.2755,-0.10049,0.12706,18.12,39.24,84.54
4.7944,-10.011,-3.3915,0.13042,0.064141,-0.31796,18.72,39.3,84.24
4.9987,-10.964,-3.3097,-0.012828,0.15608,-0.56933,19.56,39.48,83.82
5.1485,-12.04,-3.1872,-0.08094,0.20464,-0.78679,19.86,39.66,83.64
5.2847,-12.967,-3.1872,-0.17104,0.25198,-0.9954,19.98,39.72,83.58
5.5026,-14.015,-3.337,-0.3656,0.27733,-1.3002,19.98,39.66,83.64
5.3664,-13.675,-3.0646,-0.5623,0.2532,-1.5434,19.74,39.6,83.64
5.2438,-13.225,-2.942,-0.65821,0.15669,-1.8057,19.8,39.48,83.94
5.1485,-12.79,-2.0158,-0.63255,0.0012217,-2.0452,19.56,39.6,84.12
5.3664,-14.288,-1.5119,-0.59162,-0.23793,-2.2266,18.48,39.36,84.54
5.2847,-14.615,-1.6617,-0.83017,-0.65027,-2.4688,18.0,39.12,84.66
4.6445,-13.375,-1.0624,-0.91844,-0.76664,-2.5858,16.56,38.76,85.44
4.0316,-12.653,-0.96704,-0.95723,-0.88178,-2.7797,15.78,38.46,85.92
3.9771,-12.245,-0.54481,-0.96211,-0.87537,-2.8417,14.76,38.04,86.46
2.6015,-9.9292,0.054481,-0.92882,-0.8207,-3.0849,12.42,37.26,87.48
2.4108,-9.4117,-0.1362,-0.7703,-0.57605,-3.1802,11.28,36.78,87.96
2.2474,-8.3765,-0.47671,-0.68386,-0.32437,-3.2461,10.08,36.3,88.56
2.3563,-7.8998,-0.50395,-0.4893,0.055283,-3.0992,7.38,35.34,89.16
2.438,-7.6002,-0.31327,-0.44135,0.15638,-3.0131,6.0,34.74,89.4
2.4925,-7.3822,-0.16344,-0.36377,0.22419,-2.8289,4.5,34.26,89.46
2.5742,-6.7966,0.040861,-0.28375,-0.075747,-2.4624,1.5,33.0,89.58
2.3836,-6.4152,0.23155,-0.25534,-0.38362,-2.1536,0.06,32.46,89.58
2.2201,-6.3198,0.12258,-0.22449,-0.60048,-1.7639,-2.52,31.44,89.4
2.0022,-6.6331,-0.054481,-0.18723,-0.68173,-1.1426,-3.72,31.02,89.28
1.757,-6.4833,0.01362,-0.14936,-0.64599,-0.72724,-5.04,30.48,89.16
1.6072,-6.3743,0.054481,-0.10843,-0.60292,-0.49724,-6.06,30.06,88.86
1.6072,-6.5105,-0.054481,0.090713,-0.3992,0.22174,-6.96,29.76,88.5
2.3291,-8.322,-0.55843,0.23457,-0.28344,0.72052,-8.52,29.16,87.9
2.4925,-9.0984,-0.51757,0.35003,-0.22999,1.1716,-9.06,28.86,87.48
2.6423,-9.6704,-0.38137,0.45601,-0.18204,1.5815,-9.54,28.74,87.3
2.9965,-12.054,-0.20431,0.56108,-0.11209,2.0495,-9.72,28.74,87.0
3.8954,-13.661,-0.50395,0.6857,-0.013744,2.8051,-9.96,28.86,86.82
4.4539,-13.021,-0.98067,0.73548,-0.035125,3.1075,-9.78,29.16,86.76
4.3449,-10.801,-1.5663,0.86712,-0.17471,3.1609,-9.12,29.76,87.0
4.2223,-10.964,-1.6753,1.0635,-0.35613,3.0424,-8.76,30.06,87.24
3.8682,-11.972,-1.6617,1.2129,-0.51985,2.8225,-8.28,30.54,87.54
3.2961,-13.184,-1.4029,1.1047,-0.42822,2.6612,-6.36,31.74,87.96
3.4459,-12.762,-1.3484,1.0043,-0.29322,2.5992,-5.28,32.4,88.26
3.7047,-12.34,-1.2803,0.64507,0.24038,2.4823,-4.02,33.0,88.56
3.7047,-9.7249,-1.4301,0.44227,0.56841,2.3192,-1.32,34.26,89.1
3.4323,-8.2676,-1.4438,0.34056,0.88575,2.0858,0.06,34.98,89.16
3.4187,-7.1098,-1.6072,0.37324,1.1075,1.8228,1.44,35.52,89.28
3.6094,-6.4969,-1.8251,0.49694,1.2007,1.5204,4.2,36.54,89.7
3.9227,-6.5786,-1.8796,0.5339,1.1561,1.3295,5.88,37.14,89.88
4.1678,-6.9328,-1.9886,0.55894,1.0498,1.2175,7.26,37.56,89.94
4.6582,-7.8589,-2.152,0.56444,0.82681,1.1851,9.96,38.4,89.58
4.9578,-8.2539,-2.4925,0.52168,0.551,1.1374,11.16,38.82,89.28
4.8897,-8.2539,-2.8603,0.47312,0.31368,1.0864,12.3,39.18,89.16
4.9306,-8.2131,-3.4459,0.47464,0.059254,0.92516,13.98,39.78,88.56
4.9033,-8.3629,-3.9227,0.45601,-0.097738,0.73457,14.64,40.08,88.2
4.808,-8.3765,-3.9635,0.38423,-0.17623,0.50457,15.18,40.38,87.72
4.7126,-8.8805,-3.7592,0.35003,-0.16768,0.26573,16.08,40.98,86.82
4.8625,-9.6704,-3.7184,0.32162,-0.15119,0.072693,16.44,41.34,86.52
4.9306,-11.496,-3.5413,0.088881,-0.033598,-0.20708,17.34,41.82,85.8
4.9033,-12.149,-3.0237,-0.095295,0.11118,-0.41386,17.52,42.12,85.5
4.9306,-12.98,-2.8058,-0.19975,0.28008,-0.66157,17.64,42.36,85.2
4.9442,-13.757,-2.8603,-0.31215,0.44563,-0.91416,17.88,42.6,85.02
5.1485,-14.029,-3.4868,-0.45693,0.51129,-1.1536,18.06,43.08,84.84
4.9442,-12.217,-3.3506,-0.6857,0.44349,-1.4123,17.88,43.26,84.72
4.7399,-11.305,-2.6287,-0.65057,0.31429,-1.6808,17.64,43.44,84.54
5.1213,-13.607,-1.8932,-0.43005,-0.15211,-1.9184,16.86,43.74,84.48
5.3528,-14.587,-1.8524,-0.49266,-0.61514,-1.9575,16.44,43.86,84.72
5.3528,-14.805,-1.9341,-0.59559,-0.83261,-1.9893,15.9,43.92,84.84
4.2632,-12.83,-1.1305,-0.93218,-1.16,-2.1289,14.46,43.98,85.26
3.6366,-11.809,-1.0215,-0.97189,-1.1603,-2.1951,13.74,43.86,85.56
3.1191,-10.869,-1.0624,-0.98838,-1.0107,-2.2969,12.9,43.74,85.8
2.5879,-9.0031,-0.38137,-0.97494,-0.67562,-2.6038,10.74,43.44,86.46
2.0839,-8.145,-0.31327,-0.88575,-0.3934,-2.6295,9.66,42.96,86.88
2.4517,-8.1177,-0.44947,-0.84574,-0.22877,-2.6597,8.28,42.6,87.3
2.5198,-7.6138,-0.62654,-0.77091,0.071777,-2.6768,5.34,41.82,88.14
2.6968,-7.2052,-0.47671,-0.66798,0.11362,-2.5882,3.84,41.4,88.62
2.7649,-7.1779,-0.43585,-0.58521,0.0088575,-2.4706,2.46,40.68,89.1
2.7377,-6.9872,-0.1362,-0.51252,-0.30727,-2.1157,-0.48,39.42,89.52
2.6832,-6.9328,0.040861,-0.46945,-0.51588,-1.8387,-1.98,38.76,89.46
2.5334,-6.8919,0.027241,-0.44563,-0.65179,-1.5043,-3.48,38.16,89.7
2.1248,-6.8919,0.054481,-0.42608,-0.6524,-1.1481,-6.24,36.96,89.94
2.0567,-6.9872,0.054481,-0.34911,-0.56658,-0.79107,-7.56,36.24,90.12
2.0431,-7.1779,-0.12258,-0.24771,-0.4612,-0.42333,-8.64,35.52,90.12
2.2201,-7.9134,-0.39499,-0.034208,-0.27,0.1408,-10.8,34.32,90.18
2.3563,-8.3084,-0.36775,0.091324,-0.16188,0.52076,-11.76,34.02,90.18
2.4108,-8.6762,-0.31327,0.15516,-0.09896,0.69822,-12.36,33.54,90.12
2.5198,-9.3708,-0.31327,0.36652,0.055283,1.2511,-12.78,33.18,89.94
2.7649,-11.918,-0.69464,0.49266,0.12798,1.6695,-13.26,32.76,89.7
3.2553,-13.266,-0.61292,0.51191,0.24435,2.1444,-13.32,32.7,89.58
3.5277,-12.926,-0.50395,0.44257,0.44593,2.448,-13.26,32.76,89.7
3.4459,-10.283,-0.6674,0.52595,0.63805,2.5867,-12.84,33.06,90.0
3.3778,-10.052,-1.076,0.70921,0.60537,2.5137,-12.42,33.12,90.24
3.4459,-10.828,-1.3893,0.90652,0.4609,2.4193,-11.88,33.36,90.48
3.6366,-12.054,-1.7025,0.99388,0.30604,2.3466,-10.56,34.26,90.78
3.8682,-12.095,-1.4438,0.93554,0.27092,2.3494,-9.9,34.98,90.84
4.127,-11.101,-1.1577,0.80634,0.28222,2.3943,-8.76,35.46,91.02
3.7592,-9.4661,-1.3212,0.58277,0.39737,2.3014,-6.6,36.84,90.96
3.4187,-8.1313,-1.5119,0.5171,0.54947,2.1551,-5.4,37.62,91.02
3.3097,-7.4912,-1.6344,0.54611,0.68631,1.981,-4.26,38.22,90.84
3.2144,-6.6467,-1.7025,0.61758,0.79321,1.7935,-3.0,38.88,90.72
3.5685,-6.7557,-1.9068,0.71502,0.82497,1.66,-0.42,40.26,90.24
3.9908,-7.1643,-2.2746,0.76877,0.79412,1.503,0.9,40.98,90.0
4.6718,-8.1177,-2.942,0.76541,0.73273,1.4798,3.48,42.24,89.34
4.9306,-8.4991,-3.1735,0.72754,0.51801,1.4239,4.62,43.02,88.92
5.0259,-8.7987,-3.1463,0.65912,0.16677,1.3051,5.82,43.56,88.32
5.094,-9.2346,-3.3778,0.62736,-0.011606,1.1912,8.16,44.64,87.18
5.0395,-9.4798,-3.5958,0.5623,-0.11393,1.0385,9.24,45.12,86.58
4.9442,-9.6296,-3.7728,0.48167,-0.14294,0.81642,9.9,45.6,86.1
4.7399,-10.379,-3.909,0.42638,-0.12981,0.52626,11.46,46.38,85.14
4.6582,-10.924,-3.9771,0.33109,-0.039401,0.23915,12.24,46.62,84.66
4.5628,-11.264,-3.8954,0.17471,0.12798,-0.053145,12.84,46.98,84.24
4.4402,-11.4,-3.4323,-0.10965,0.46273,-0.45754,13.44,47.28,83.94
4.3858,-11.7,-3.2008,-0.1967,0.66493,-0.67409,13.86,47.58,83.82
4.7807,-12.367,-3.2553,-0.30268,0.73609,-0.85979,14.52,47.82,83.46
5.1213,-12.572,-3.7047,-0.40378,0.6017,-1.0434,14.76,48.0,83.1
5.5026,-12.572,-4.0589,-0.47403,0.45632,-1.1099,14.7,48.0,82.92
5.1076,-11.7,-2.5879,-0.65363,0.13256,-1.2718,14.76,47.94,82.8
5.0668,-12.286,-1.8932,-0.64324,-0.3598,-1.4872,14.34,47.88,82.86
5.1485,-13.062,-1.7025,-0.69089,-0.69242,-1.5999,14.1,47.76,83.04
5.2575,-13.43,-1.4982,-0.79535,-0.99143,-1.6961,13.62,47.7,83.46
5.0123,-12.967,-1.4438,-0.97861,-1.3097,-1.8103,12.72,47.22,83.94
4.7807,-12.572,-1.3348,-1.0687,-1.449,-1.9337,12.18,46.98,84.36
4.3177,-11.645,-1.2258,-1.1087,-1.4942,-2.0192,11.52,46.62,84.66
3.1327,-9.7385,-0.29965,-1.0919,-1.146,-2.2251,9.96,45.84,85.56
2.833,-9.2482,-0.19068,-1.0736,-0.87904,-2.4884,9.18,45.24,86.1
2.3699,-8.4038,-0.23155,-0.9838,-0.30329,-2.5837,7.44,44.34,87.06
2.5879,-8.1041,-0.53119,-0.98991,-0.027794,-2.6289,6.3,43.62,87.72
2.8058,-7.6002,-0.42223,-0.967,0.072693,-2.5885,5.28,43.14,88.26
2.9148,-7.641,-0.28603,-0.85888,0.13378,-2.5213,4.14,42.54,88.74
2.9965,-7.6274,0.027241,-0.85368,-0.002138,-2.3705,1.68,41.22,89.58
2.7786,-7.2733,0.24517,-0.8207,-0.15608,-2.1903,0.36,40.5,89.88
2.6423,-7.1507,0.34051,-0.78252,-0.26481,-1.9328,-0.96,39.9,89.88
2.4108,-7.2052,0.31327,-0.73762,-0.30696,-1.5003,-3.42,38.46,90.06
2.3155,-7.4095,0.23155,-0.61453,-0.2138,-1.2095,-4.8,37.86,90.18
2.1384,-7.4776,0.21793,-0.52382,-0.083383,-0.86315,-6.0,37.2,90.3
2.2065,-7.5729,0.16344,-0.3598,0.071166,-0.49663,-8.1,36.06,90.36
2.4244,-7.8998,0.12258,-0.16493,0.15669,-0.080329,-9.06,35.64,90.18
2.5742,-8.322,-0.14982,0.054367,0.17776,0.32193,-10.08,35.04,90.0
2.9011,-9.3436,-0.38137,0.39492,0.14447,0.92271,-11.4,34.02,89.58
2.9011,-9.7658,-0.46309,0.60231,0.097128,1.306,-12.06,33.6,89.46
3.0918,-10.392,-0.8036,0.68967,0.054062,1.5091,-12.48,33.36,89.22
3.5413,-11.155,-1.362,0.91355,-0.1179,2.0995,-12.84,33.18,88.74
3.4187,-10.447,-1.4438,0.95264,-0.21747,2.3204,-12.9,33.18,88.5
3.3234,-10.188,-1.471,1.0119,-0.25565,2.4331,-12.78,33.18,88.62
3.2144,-11.114,-1.7162,1.0785,-0.21686,2.4957,-12.24,33.48,88.56
3.2553,-11.891,-1.8387,1.0492,-0.16799,2.4942,-11.76,33.9,88.68
3.2689,-12.19,-1.8932,0.99632,-0.1066,2.4871,-11.16,34.32,88.68
3.3234,-12.286,-1.6889,0.84299,0.08491,2.4603,-10.32,34.8,88.68
3.4732,-11.114,-1.4029,0.57971,0.5452,2.4297,-8.4,36.18,88.74
3.4596,-9.7385,-1.6072,0.45968,0.81886,2.3347,-7.26,36.96,88.68
3.5004,-8.5808,-1.6753,0.41539,1.0372,2.1796,-6.0,37.74,88.68
3.6094,-7.3141,-1.6344,0.47067,1.1038,1.9975,-3.36,39.24,88.56
3.7728,-7.1234,-1.5255,0.55772,1.0556,1.8699,-1.86,39.9,88.62
4.0044,-7.2188,-1.6072,0.66615,0.93004,1.77,-0.42,40.62,88.56
4.7535,-7.8045,-2.2474,0.78313,0.53848,1.6735,2.34,41.94,88.5
4.9306,-8.0632,-2.6832,0.80665,0.15913,1.6408,3.72,42.54,88.14
4.9714,-8.5263,-2.9284,0.81367,-0.18326,1.5773,5.28,43.32,88.02
4.8352,-9.112,-3.1872,0.76236,-0.52382,1.3922,7.92,44.28,87.0
4.6854,-9.0984,-3.2825,0.67714,-0.53817,1.2217,9.18,44.88,86.7
4.5083,-8.9077,-3.5549,0.5455,-0.40317,1.003,10.26,45.3,86.16
4.1406,-8.5808,-3.6775,0.44196,-0.22541,0.73029,12.3,45.9,85.32
4.0725,-9.0031,-3.6366,0.38026,-0.018021,0.41294,13.32,46.2,85.02
4.5764,-10.447,-3.8273,0.30696,0.16646,0.14447,14.1,46.56,84.6
4.8897,-11.482,-3.514,0.03543,0.31765,-0.21472,15.72,47.1,83.82
4.7671,-12.054,-3.2825,-0.067806,0.34208,-0.32651,16.32,47.46,83.46
4.699,-12.258,-3.0101,-0.25626,0.4328,-0.56688,16.86,47.58,83.16
4.4811,-12.612,-2.7241,-0.40164,0.70005,-0.91294,17.34,47.76,82.8
4.8216,-13.089,-3.337,-0.50763,0.78496,-1.0977,18.18,48.0,82.56
4.699,-11.782,-3.1463,-0.71471,0.76053,-1.3201,18.12,48.12,82.5
4.7944,-10.964,-2.6151,-0.69883,0.63561,-1.5101,18.06,48.24,82.68
5.4618,-12.19,-1.757,-0.55467,0.29016,-1.6261,17.58,48.3,82.62
5.7342,-13.062,-1.7843,-0.4444,-0.62186,-1.6649,17.16,48.3,82.86
5.8295,-13.375,-1.975,-0.50335,-1.3228,-1.6377,16.5,48.3,82.92
5.2166,-12.64,-1.6344,-0.6243,-1.8323,-1.6234,15.18,48.18,83.34
4.7263,-12.286,-1.4438,-0.68295,-2.1316,-1.6869,14.52,47.94,83.58
3.9908,-11.427,-1.1305,-0.76419,-2.1631,-1.8204,13.68,47.88,84.06
2.7649,-9.793,-0.70826,-0.87812,-2.021,-1.8922,12.3,47.1,84.78
2.6015,-9.0303,-0.23155,-1.0104,-1.314,-2.219,11.52,46.8,85.32
1.6889,-8.1586,-0.20431,-1.0134,-1.0431,-2.3436,10.8,46.32,85.86
1.9613,-8.0088,-0.55843,-1.0232,-0.15088,-2.4939,9.78,45.96,86.34
2.2882,-7.8045,-0.69464,-1.0247,0.20892,-2.5858,7.68,44.88,87.0
2.4789,-7.641,-0.54481,-1.0021,0.42425,-2.5195,6.54,44.4,87.36
2.8194,-7.4776,-0.21793,-0.95081,0.41233,-2.4786,4.2,43.32,88.02
2.8058,-7.7636,-0.17706,-0.84666,0.24404,-2.2098,3.0,42.78,88.14
2.833,-7.8045,-0.081722,-0.83872,0.15669,-2.0684,1.86,42.18,88.26
2.656,-7.6274,0.1362,-0.76602,-0.066279,-1.609,-0.42,40.68,88.44
2.5061,-7.6002,0.17706,-0.70983,-0.12889,-1.2737,-1.74,40.08,88.68
2.3699,-7.8589,0.17706,-0.60506,-0.11637,-0.91844,-2.82,39.36,88.74
2.5061,-8.7851,-0.027241,-0.39859,-0.01741,-0.32651,-5.34,38.22,88.56
2.6832,-9.2618,-0.19068,-0.24679,0.042761,0.078191,-6.48,37.68,88.38
2.7377,-9.398,-0.21793,-0.086437,0.11912,0.44227,-7.56,37.32,88.08
2.6423,-9.8203,-0.29965,0.11026,0.21502,0.77488,-9.12,36.54,87.78
2.7922,-10.038,-0.31327,0.28527,0.29688,1.1054,-9.6,36.12,87.54
2.9284,-10.706,-0.76274,0.49083,0.33353,1.4426,-10.26,35.4,87.12
3.5958,-10.869,-1.0488,0.6521,0.27245,1.9493,-10.56,35.28,86.94
3.6094,-9.7658,-1.076,0.72143,0.13897,2.0797,-10.62,35.1,86.82
3.4323,-9.4661,-1.1169,0.84941,0.030543,2.117,-10.56,35.16,86.88
3.1872,-10.243,-1.3348,0.95387,-0.055894,2.1411,-10.14,35.52,86.82
3.2416,-11.06,-1.471,0.98838,-0.084299,2.178,-9.66,35.82,86.76
3.3097,-11.605,-1.4301,0.89828,-0.0051924,2.2379,-9.24,36.18,86.64
3.4051,-11.06,-1.2122,0.74251,0.17715,2.3103,-7.8,37.02,86.58
3.3778,-10.297,-1.2258,0.60079,0.43219,2.3613,-6.84,37.5,86.34
3.3642,-9.3163,-1.3757,0.51801,0.70311,2.3356,-5.82,37.86,86.34
3.4459,-7.5457,-1.866,0.51862,1.0128,2.1652,-3.48,39.0,85.98
3.5822,-7.2869,-1.9886,0.59071,1.0773,2.0348,-2.34,39.72,85.86
3.8954,-7.069,-1.9886,0.65393,0.96792,1.9038,-1.08,40.2,85.68
4.3994,-7.3277,-2.2337,0.74923,0.67776,1.7822,1.74,41.58,85.2
4.699,-7.8453,-2.5061,0.78099,0.53817,1.755,3.12,42.24,84.9
4.8625,-8.1722,-2.7104,0.8094,0.20983,1.7037,4.38,42.72,84.54
5.1485,-9.0031,-3.2961,0.78588,-0.2474,1.5776,7.2,43.62,83.58
5.1213,-9.1665,-3.4868,0.72998,-0.45265,1.4471,8.46,44.04,82.98
4.9306,-9.1256,-3.8001,0.63316,-0.48961,1.2596,9.72,44.46,82.44
4.4266,-8.5944,-3.9908,0.47892,-0.30421,0.8717,12.06,45.3,81.36
4.3177,-8.5672,-4.0044,0.44257,-0.21258,0.71319,13.08,45.66,80.94
4.2495,-9.112,-4.1133,0.40256,-0.0073304,0.40073,14.1,46.08,80.4
4.9033,-10.733,-4.3449,0.25443,0.1854,-0.0036652,15.6,46.56,79.5
5.0804,-11.673,-4.0589,0.028711,0.23427,-0.22938,16.32,46.68,79.08
4.8352,-11.891,-3.4868,-0.22297,0.3317,-0.46945,17.04,46.86,78.72
4.7535,-12.34,-3.0237,-0.36927,0.49847,-0.81612,17.94,47.16,78.06
4.699,-12.64,-2.9965,-0.45387,0.70738,-0.92699,18.24,47.16,77.88
4.9033,-12.776,-3.2144,-0.52198,0.84941,-1.1054,18.48,47.34,77.58
5.2575,-12.286,-3.6775,-0.73854,0.72174,-1.3769,18.42,47.58,77.7
5.38,-11.182,-2.7922,-0.76236,0.44502,-1.5748,17.88,47.64,77.88
5.4618,-11.523,-1.8115,-0.63163,0.033598,-1.7135,17.34,47.7,78.06
5.7069,-13.484,-1.4982,-0.58002,-0.4609,-1.7953,16.2,47.58,78.6
5.5707,-13.729,-1.6753,-0.68906,-1.2187,-1.8323,15.36,47.52,78.84
5.3528,-13.511,-1.7298,-0.86987,-1.5107,-1.8983,14.46,47.28,79.2
4.9033,-12.708,-1.4165,-0.967,-1.6457,-1.9978,13.38,47.04,79.56
3.3234,-10.678,-0.9398,-1.0088,-1.4969,-2.0693,11.22,46.74,80.64
2.7649,-9.6704,-0.51757,-1.0403,-1.1087,-2.2474,10.08,46.5,81.24
2.261,-7.8998,-0.31327,-1.0098,-0.75014,-2.4829,7.68,45.54,82.74
2.3155,-7.9543,-0.70826,-0.8601,-0.12065,-2.5699,6.12,45.0,83.4
2.4517,-7.8045,-0.83084,-0.84055,0.17196,-2.6066,4.44,44.4,84.3
2.6696,-7.5729,-0.74912,-0.75961,0.28222,-2.5754,3.0,43.68,84.84
2.6968,-7.2324,-0.35413,-0.66401,0.2645,-2.4816,-0.18,42.24,85.68
2.8603,-7.2188,-0.21793,-0.6017,0.13714,-2.2856,-1.56,41.46,86.1
2.7104,-6.96,-0.12258,-0.54795,-0.05681,-2.0772,-4.62,39.84,86.7
2.6696,-7.0962,-0.12258,-0.47037,-0.27184,-1.8011,-6.06,39.06,87.0
2.5061,-7.0962,-0.19068,-0.40775,-0.42608,-1.4813,-7.44,38.22,87.24
2.1248,-6.8647,-0.01362,-0.30788,-0.43952,-0.95295,-9.96,36.42,87.66
1.866,-6.8374,-0.01362,-0.18143,-0.31398,-0.5623,-10.98,35.64,87.66
1.9477,-7.1234,-0.01362,-0.029627,-0.13592,-0.12645,-12.06,34.92,87.66
2.4653,-8.4446,-0.50395,0.14172,0.016799,0.31368,-13.74,33.72,87.54
2.6968,-9.1256,-0.62654,0.29169,0.10201,0.74403,-14.34,33.3,87.42
2.7649,-9.7249,-0.58567,0.49144,0.17379,1.3497,-15.24,32.34,87.12
3.0373,-10.855,-0.47671,0.60598,0.20372,1.7407,-15.36,32.04,87.06
3.2961,-11.673,-0.64016,0.73762,0.18906,2.1423,-15.6,31.8,87.12
3.623,-12.0,-0.9398,0.81215,0.12737,2.4752,-15.54,31.74,87.12
3.8273,-9.7385,-1.5391,0.90836,-0.030849,2.5678,-15.42,31.86,87.42
3.7728,-9.8339,-1.6344,1.15,-0.2868,2.5021,-15.18,31.98,87.6
3.623,-11.931,-1.7706,1.2318,-0.43035,2.4487,-14.04,32.58,88.14
3.5685,-12.898,-1.7298,1.1664,-0.50335,2.3634,-13.38,33.06,88.38
3.5685,-13.212,-1.58,0.93921,-0.38637,2.3082,-12.54,33.48,88.5
3.4596,-12.708,-1.2803,0.64355,-0.051924,2.2703,-11.52,34.08,88.74
3.1191,-10.719,-1.3484,0.42791,0.44776,2.1835,-9.12,35.34,88.86
3.051,-9.4117,-1.5119,0.2248,1.2037,1.9022,-7.62,35.94,88.86
3.0373,-7.5865,-1.8115,0.21991,1.3949,1.7886,-6.3,36.66,88.92
3.4051,-6.8374,-1.7434,0.22999,1.6484,1.5931,-3.48,38.04,88.98
3.7728,-6.456,-1.6072,0.34208,1.6997,1.3592,-2.04,38.64,88.92
4.0861,-6.4288,-1.6208,0.4722,1.5107,1.2709,-0.78,39.18,88.86
5.0123,-7.3958,-2.438,0.58521,1.1148,1.2562,1.98,40.26,88.62
5.1894,-7.6683,-2.6696,0.67531,0.27397,1.2947,3.18,40.68,88.38
5.4073,-8.3084,-3.2553,0.67256,0.0067195,1.3039,5.34,41.76,87.54
5.1349,-8.7715,-3.5685,0.67287,-0.62705,1.2361,6.36,42.12,87.24
4.9033,-8.9349,-3.5958,0.61453,-0.80481,1.124,7.26,42.48,87.0
4.3177,-8.826,-3.7728,0.49663,-0.75075,0.91721,8.52,42.9,86.16
4.127,-8.9486,-3.7184,0.39645,-0.54825,0.67256,9.18,43.08,85.98
4.0861,-10.256,-3.8954,0.29199,-0.19059,0.24679,10.32,43.62,85.38
4.2904,-11.509,-3.9227,0.13195,0.046426,-0.03543,10.74,43.74,85.2
4.413,-12.081,-3.8954,-0.10171,0.27458,-0.29871,11.28,43.86,85.02
4.6037,-12.503,-3.7184,-0.29841,0.47006,-0.51832,11.64,44.1,84.78
4.6309,-13.116,-3.514,-0.43921,0.61667,-0.7141,12.6,44.34,84.6
4.808,-13.253,-3.6775,-0.58704,0.70127,-0.89614,12.9,44.34,84.36
4.9578,-12.83,-3.6094,-0.78038,0.68081,-1.1875,13.26,44.28,84.42
4.9306,-11.182,-2.8603,-0.88698,0.48289,-1.3894,13.2,44.22,84.6
5.0668,-11.645,-2.0703,-0.80848,0.2025,-1.5479,13.32,44.04,84.72
5.203,-12.286,-1.7979,-0.77305,0.020769,-1.6069,13.26,43.98,84.84
5.5707,-13.43,-1.7025,-0.77916,-0.7083,-1.6677,13.08,43.68,85.2
5.38,-13.116,-1.7979,-0.91599,-1.1616,-1.6933,12.48,43.08,85.62
4.9578,-12.558,-1.4165,-1.015,-1.4954,-1.7904,12.12,42.54,85.98
3.6366,-10.842,-1.0215,-1.106,-1.4872,-1.908,11.16,41.58,86.7
2.9284,-9.7385,-0.40861,-1.1674,-1.1582,-2.0064,10.8,41.04,87.18
2.5606,-9.1256,-0.054481,-1.1646,-0.94226,-2.1215,10.38,40.5,87.66
2.2337,-7.6819,-0.27241,-1.0965,-0.2474,-2.3897,9.12,39.36,88.68
2.4244,-7.6002,-0.49033,-1.0302,0.11118,-2.5305,8.46,38.52,89.1
2.6968,-7.6002,-0.62654,-0.97769,0.30604,-2.5403,7.8,37.92,89.52
2.8603,-7.5048,-0.34051,-0.91049,0.31215,-2.5247,6.3,36.6,90.24
2.8603,-7.355,-0.34051,-0.85399,0.23152,-2.4178,5.46,35.88,90.48
2.833,-7.3414,0.054481,-0.78252,0.08827,-2.2287,4.5,35.16,90.6
2.5606,-6.9191,0.14982,-0.70372,-0.13683,-1.8115,2.76,33.9,90.78
2.4244,-6.7966,0.17706,-0.61056,-0.22083,-1.4972,1.8,33.36,90.9
2.3155,-6.8238,0.095342,-0.5058,-0.23121,-0.99663,0.42,32.28,90.84
2.2201,-7.1371,0.14982,-0.28924,-0.13592,-0.61087,-0.66,31.86,90.72
2.261,-7.4231,0.19068,-0.21136,-0.090408,-0.4047,-1.44,31.44,90.72
2.4108,-7.8317,-0.14982,-0.0054978,-0.022907,0.03146,-2.1,30.96,90.6
3.0918,-9.1256,-0.44947,0.30452,-0.071777,0.66645,-3.36,30.0,90.06
3.228,-9.6568,-0.6674,0.50763,-0.17226,1.0192,-3.78,29.88,89.94
3.2416,-10.147,-0.84446,0.686,-0.27917,1.3286,-4.2,29.76,89.58
3.2825,-11.223,-0.9398,0.93126,-0.37477,1.7242,-4.5,29.4,89.22
3.4596,-11.509,-1.3757,1.015,-0.39156,1.9816,-4.56,29.34,89.34
3.5413,-10.924,-1.6072,1.0131,-0.38332,2.0433,-4.38,29.4,89.28
3.4459,-10.065,-1.866,1.0602,-0.35461,2.0617,-4.2,29.64,89.1
3.0646,-10.052,-2.0158,1.1051,-0.27519,1.9713,-3.54,30.24,88.98
2.8194,-10.937,-1.757,1.0806,-0.14355,1.8894,-3.12,30.48,88.98
2.9692,-12.258,-1.4438,0.84422,0.21289,1.8436,-1.62,31.2,89.28
3.1599,-11.972,-1.4165,0.61667,0.55803,1.8637,-0.72,31.56,89.28
3.1872,-11.605,-1.4301,0.44288,0.94623,1.8677,0.18,32.04,89.34
3.3097,-9.8611,-1.6072,0.30055,1.2639,1.8088,2.28,33.0,89.46
3.2416,-8.4991,-1.8932,0.25748,1.5226,1.693,3.42,33.48,89.52
3.2825,-7.3005,-2.0294,0.3259,1.6719,1.6047,4.56,33.96,89.76
3.8273,-6.674,-2.152,0.53848,1.5238,1.4798,6.84,34.86,89.7
4.3177,-6.8374,-2.1384,0.63499,1.1906,1.4267,7.92,35.28,89.4
4.4402,-7.0281,-2.1248,0.69272,0.97372,1.4306,8.94,35.52,89.4
5.0668,-8.2131,-2.4789,0.80084,0.25748,1.5534,10.92,36.12,89.34
5.1757,-8.6762,-2.8058,0.80817,-0.16616,1.6023,11.88,36.48,89.1
5.0804,-8.8941,-3.0918,0.79138,-0.48717,1.6301,12.78,36.9,88.98
4.8897,-8.8805,-3.5413,0.74648,-0.62583,1.5009,14.4,37.56,88.32
4.6445,-8.7715,-3.6775,0.613,-0.48686,1.3137,15.12,37.92,87.9
4.5492,-8.5263,-3.6639,0.53054,-0.31276,1.0608,15.9,38.1,87.6
4.522,-8.6353,-3.6094,0.48442,-0.197,0.73365,17.28,38.58,86.94
4.6718,-9.4117,-3.7592,0.46212,-0.12798,0.43616,17.88,38.76,86.52
4.9033,-10.42,-3.9499,0.35675,-0.032681,0.17898,18.54,38.94,86.04
5.2575,-11.7,-3.9227,0.12614,0.051924,-0.2022,19.8,39.54,85.26
5.0531,-11.931,-3.2825,-0.2474,0.20403,-0.46059,20.46,39.78,85.08
4.7671,-12.122,-2.8603,-0.32559,0.30421,-0.59865,21.06,40.02,84.84
4.8897,-12.64,-3.0646,-0.45082,0.67898,-0.96761,22.26,40.38,84.48
5.203,-12.258,-3.8001,-0.62156,0.70188,-1.1567,22.86,40.44,84.12
4.9987,-10.161,-2.9011,-0.81551,0.59101,-1.3781,23.1,40.5,84.06
4.9987,-10.106,-2.2201,-0.74464,0.39095,-1.5837,22.92,40.38,84.06
5.38,-12.19,-1.3757,-0.56291,0.000611,-1.7013,22.68,40.68,84.3
6.1292,-14.097,-1.5527,-0.46304,-0.90622,-1.6857,21.84,40.86,84.48
6.2245,-14.683,-1.7979,-0.6182,-1.5577,-1.6212,21.0,40.8,84.9
5.1213,-13.184,-1.2531,-0.85277,-2.0519,-1.6466,20.34,40.5,85.2
4.6309,-12.449,-1.076,-0.89247,-2.277,-1.66,19.86,40.38,85.44
3.7047,-11.155,-0.8717,-0.92332,-2.2859,-1.8317,19.02,40.26,86.04
2.656,-9.616,-0.51757,-0.97861,-2.1014,-2.0064,18.54,39.96,86.82
1.8932,-8.431,-0.14982,-1.0101,-1.3494,-2.2935,17.64,39.66,87.42
1.6753,-8.0088,-0.44947,-1.0125,-0.61789,-2.4997,16.68,39.54,88.02
1.8387,-7.8726,-0.70826,-1.0379,0.071166,-2.5934,15.24,39.3,88.56
2.3427,-7.8045,-0.44947,-1.0091,0.48136,-2.6353,13.74,38.94,88.8
2.4108,-7.8453,-0.39499,-0.9557,0.66371,-2.6145,12.9,38.64,88.92
2.7649,-7.7772,-0.16344,-0.91966,0.6805,-2.405,10.44,38.4,89.16
2.7377,-7.4095,-0.081722,-0.8546,0.45051,-2.1722,7.98,38.22,88.8
2.7922,-7.4095,-0.040861,-0.81367,0.35522,-2.036,6.72,37.92,88.68
2.547,-7.3822,-0.027241,-0.69639,0.063835,-1.5534,3.96,37.56,87.96
2.4108,-7.4095,-0.081722,-0.58613,-0.023518,-1.2159,2.88,37.44,87.72
2.261,-7.5321,0.027241,-0.46853,-0.054672,-0.83108,0.54,36.96,87.24
2.3155,-7.75,-0.054481,-0.28375,-0.058338,-0.37965,-0.42,36.6,87.0
2.6287,-8.6353,-0.31327,-0.10965,-0.047647,0.062003,-1.98,36.24,86.34
2.6423,-8.9077,-0.61292,0.16066,0.0027489,0.66004,-3.36,35.88,86.22
2.6287,-9.1256,-0.61292,0.3427,0.033292,1.0174,-3.78,35.82,86.1
2.7377,-9.8339,-0.57205,0.50457,0.053145,1.3271,-4.26,35.4,85.74
3.0237,-10.815,-0.57205,0.61025,0.12462,1.6982,-4.62,35.28,85.68
3.0918,-10.624,-0.68102,0.63408,0.18295,2.0012,-4.68,35.34,85.38
3.1327,-9.7522,-0.98067,0.74434,0.22755,2.2428,-4.56,35.58,85.38
3.2961,-10.447,-1.1577,0.85552,0.21991,2.3387,-4.32,35.7,85.5
3.5004,-11.387,-1.2531,0.91905,0.20525,2.4389,-3.9,35.88,85.5
3.732,-12.163,-1.4846,0.92241,0.19242,2.5183,-2.88,36.12,85.86
3.9227,-12.313,-1.5391,0.86163,0.19761,2.5855,-1.56,36.66,86.22
3.9771,-11.482,-1.3757,0.76419,0.26023,2.6124,0.3,37.14,86.34
3.8954,-10.801,-1.4029,0.6466,0.38576,2.5779,1.32,37.56,86.52
3.6775,-8.6898,-1.6072,0.56169,0.61758,2.3757,3.66,38.22,87.0
3.5958,-7.5457,-1.8796,0.58918,0.73854,2.1799,6.24,38.7,87.18
3.623,-7.1507,-1.7979,0.64843,0.7813,1.9899,7.5,39.0,87.24
3.9227,-7.1915,-1.9205,0.71716,0.79138,1.8164,10.14,39.48,87.06
4.304,-7.4776,-2.0431,0.75992,0.72479,1.6964,11.4,39.72,86.94
4.9714,-8.54,-2.4789,0.79229,0.54123,1.609,13.8,40.44,86.52
5.3256,-9.112,-2.9556,0.77458,0.27061,1.5473,15.78,41.1,85.86
5.2302,-9.2482,-3.5413,0.66523,-0.11301,1.3601,17.76,41.34,85.02
5.1485,-9.1393,-3.5549,0.60292,-0.21716,1.1836,18.42,41.7,84.72
4.7671,-8.9894,-3.8273,0.50946,-0.14111,0.97311,19.98,41.94,83.82
4.5628,-8.6898,-3.9227,0.38851,0.025045,0.72143,21.24,42.24,83.04
4.5356,-8.7306,-3.8546,0.30085,0.18479,0.42089,21.72,42.48,82.74
4.7671,-9.6023,-3.9227,0.25626,0.31612,0.16341,22.8,42.78,82.14
5.0804,-10.855,-3.9908,0.053145,0.43035,-0.16218,23.52,43.08,81.54
5.1485,-11.632,-3.337,-0.20922,0.50091,-0.35552,24.12,43.32,80.88
4.9987,-11.7,-3.0237,-0.3824,0.63897,-0.55405,24.42,43.5,80.76
5.0259,-12.258,-2.7649,-0.46853,0.8042,-0.73395,24.66,43.62,80.58
5.2302,-12.435,-3.0782,-0.53145,0.93768,-0.92882,24.66,43.74,80.58
5.4073,-11.523,-3.3097,-0.68081,0.89186,-1.1826,24.36,43.86,80.76
5.3937,-11.005,-3.0373,-0.69608,0.79687,-1.27,24.0,43.86,80.82
5.5435,-11.073,-1.9886,-0.53939,0.27397,-1.5311,23.28,43.8,80.88
5.9249,-12.572,-1.5119,-0.39431,-0.29138,-1.6167,22.32,43.62,81.24
6.1564,-13.688,-1.6072,-0.34178,-0.95173,-1.6441,21.12,43.74,81.66
5.9249,-13.511,-1.7843,-0.4444,-1.5876,-1.6548,20.4,43.68,82.02
5.0259,-12.408,-1.5119,-0.58093,-2.0739,-1.7254,19.08,43.38,82.56
3.9227,-10.924,-1.2258,-0.62644,-2.3289,-1.814,17.76,43.32,83.1
3.3778,-10.256,-1.0488,-0.71502,-2.2153,-1.9786,17.22,43.2,83.22
2.3972,-8.717,-0.76274,-0.759,-1.7727,-2.0748,15.96,43.02,83.94
1.8932,-8.0088,-0.76274,-0.82161,-1.2214,-2.2452,14.7,42.78,84.66
1.8387,-7.9134,-0.76274,-0.86101,-0.60781,-2.3595,13.86,42.72,85.14
2.3291,-7.7227,-0.72188,-0.92454,-0.055894,-2.419,12.06,42.3,86.1
2.4108,-7.7227,-0.34051,-0.93615,0.30085,-2.3909,9.96,41.76,86.76
2.6423,-7.6683,-0.38137,-0.92241,0.34606,-2.2782,9.0,41.52,87.18
2.7649,-7.6683,-0.27241,-0.89003,0.26573,-2.1151,6.84,40.92,87.54
2.7649,-7.7091,-0.19068,-0.87384,0.16188,-1.8717,5.64,40.8,87.72
2.7377,-7.7091,-0.068102,-0.83963,0.088575,-1.5531,3.18,40.08,88.2
2.5198,-7.4503,0.054481,-0.78374,0.057421,-1.2263,0.72,39.6,88.44
2.547,-7.5184,0.095342,-0.61087,0.10507,-0.67012,-1.38,38.88,88.5
2.6015,-7.7091,-0.095342,-0.4444,0.11179,-0.28863,-2.34,38.52,88.5
2.833,-8.1858,-0.17706,-0.24435,0.077274,0.081245,-3.96,37.86,88.32
3.0918,-8.7579,-0.23155,-0.027184,-0.028711,0.41417,-4.74,37.56,88.32
2.9965,-9.3163,-0.14982,0.17196,-0.12339,0.68692,-5.4,37.2,88.08
2.8875,-10.161,0.01362,0.34941,-0.11576,0.9612,-5.58,37.08,88.26
3.1054,-11.727,-0.10896,0.51465,-0.045815,1.4328,-5.76,36.9,88.26
3.5685,-11.904,-0.50395,0.68967,0.092852,1.7779,-5.58,36.96,88.08
3.6775,-10.515,-0.76274,0.8039,0.096822,1.9569,-5.34,36.96,88.14
3.5685,-9.398,-1.1032,0.98869,-0.019242,1.9783,-5.04,37.2,88.08
3.4459,-10.42,-1.2258,1.1622,-0.16707,1.9371,-4.44,37.62,88.32
3.2689,-11.101,-1.3076,1.2425,-0.24496,1.9404,-4.02,37.98,88.5
3.2416,-12.122,-1.1713,1.1735,-0.19395,1.9676,-2.7,38.52,88.44
3.3097,-11.741,-1.1713,0.88911,0.076664,2.0916,-1.98,38.88,88.62
3.1872,-10.569,-1.1577,0.74709,0.38362,2.1463,0.12,39.54,88.74
3.2008,-9.1529,-1.5119,0.61972,0.74037,2.1185,2.28,40.5,88.68
3.1599,-8.4038,-1.8387,0.55925,1.0544,2.0088,3.36,40.98,88.62
3.514,-7.0826,-2.2474,0.58582,1.2312,1.8699,5.76,41.82,88.44
3.9635,-6.7012,-2.1248,0.66493,1.1429,1.6722,8.04,42.66,87.96
4.0861,-6.7285,-1.975,0.73487,0.9276,1.5467,9.36,43.02,87.96
4.4811,-7.3414,-2.1112,0.81276,0.63744,1.5046,11.58,43.86,87.18
4.6037,-7.5048,-2.3972,0.87201,0.3262,1.5024,12.78,44.22,86.7
4.7944,-8.431,-2.9965,0.84483,0.053145,1.5073,14.46,44.94,85.8
4.6445,-8.8941,-3.4051,0.78649,-0.07758,1.4881,15.9,45.72,84.96
4.6037,-8.9622,-3.3778,0.68509,-0.075747,1.4395,16.44,46.08,84.48
4.5901,-8.717,-3.7728,0.54153,0.067195,1.197,17.82,46.5,83.46
4.6445,-8.6625,-3.8273,0.46914,0.13103,0.93921,18.66,46.74,83.16
4.7263,-9.0575,-3.9635,0.45662,0.12339,0.60751,19.98,47.22,82.26
4.8761,-10.324,-3.9908,0.46976,0.072998,0.31001,21.3,47.46,81.54
5.2438,-12.027,-4.1542,0.34575,-0.0033598,0.039401,22.44,47.76,81.0
5.0804,-12.626,-3.7456,0.10537,-0.035736,-0.34178,23.28,48.12,80.46
4.6718,-12.871,-3.0782,-0.24435,0.17746,-0.58154,23.7,48.36,80.4
4.4811,-13.348,-3.1599,-0.36774,0.47922,-0.79077,24.48,48.6,79.92
4.9306,-13.007,-3.732,-0.5736,0.63805,-0.98502,24.6,48.54,79.92
4.9987,-11.645,-3.5685,-0.77305,0.62461,-1.1927,24.78,48.42,79.8
5.4073,-11.482,-2.5334,-0.78099,0.43891,-1.3864,24.24,48.36,80.04
5.6116,-12.122,-2.2065,-0.68783,0.0048869,-1.5339,23.82,48.42,80.22
5.9657,-13.811,-1.9613,-0.63805,-0.64538,-1.6215,22.92,48.42,80.58
5.8159,-14.301,-1.8932,-0.82589,-1.5742,-1.7119,22.32,48.36,80.88
5.2166,-13.893,-1.6072,-1.0547,-1.9102,-1.8176,21.6,48.24,81.12
4.127,-12.572,-1.2803,-1.1848,-1.9221,-1.8836,20.28,47.76,81.72
3.1327,-11.155,-1.1713,-1.3549,-1.7171,-2.0534,19.56,47.4,82.2
2.3972,-9.2346,-0.24517,-1.4762,-1.2828,-2.2367,17.94,46.5,83.4
1.5663,-8.3765,0.027241,-1.5024,-0.68386,-2.4881,16.98,46.14,84.0
1.7298,-8.1177,-0.095342,-1.4444,0.015882,-2.6576,15.78,45.78,84.6
2.2882,-7.927,-0.57205,-1.4001,0.84849,-2.8115,13.38,45.06,85.74
2.6151,-7.7636,-0.44947,-1.2972,1.0406,-2.8246,12.0,44.52,86.16
3.1327,-7.8453,-0.32689,-1.1832,1.033,-2.737,10.5,43.92,86.82
3.3097,-7.6274,-0.095342,-1.0327,0.6408,-2.4517,7.5,42.54,87.42
3.2825,-7.4912,0.21793,-0.93371,0.28253,-2.1573,5.88,41.82,87.84
3.0918,-7.4367,0.17706,-0.88698,0.10507,-1.9933,4.26,41.1,88.08
2.7377,-7.2733,0.28603,-0.76725,-0.20433,-1.4719,2.7,40.26,88.2
2.3155,-7.0553,0.31327,-0.66035,-0.22724,-1.1179,-0.36,38.7,88.74
2.2882,-7.1234,0.29965,-0.49083,-0.17959,-0.73334,-1.92,37.98,88.74
2.438,-7.4095,-0.027241,-0.28588,-0.10965,-0.33964,-3.36,37.38,88.74
2.6151,-7.8589,-0.38137,0.090103,-0.06689,0.25045,-5.88,35.82,88.8
2.6151,-8.4446,-0.24517,0.34147,-0.061087,0.6466,-6.84,35.1,88.68
2.5879,-8.8941,-0.27241,0.5565,-0.036346,1.0461,-7.8,34.56,88.5
2.7786,-10.937,-0.25879,0.73457,-0.0058032,1.4771,-9.0,33.48,88.2
3.0782,-11.605,-0.35413,0.85613,0.036346,1.9276,-9.42,33.18,88.02
3.4732,-10.964,-0.5993,0.88637,0.07758,2.3824,-9.72,32.94,88.08
3.3506,-10.079,-1.0079,0.98319,0.051618,2.4566,-9.84,32.82,88.08
3.3506,-10.869,-1.3348,1.1619,-0.033598,2.5326,-9.78,32.82,88.08
3.4596,-11.986,-1.5391,1.2764,-0.16768,2.6542,-9.42,33.06,88.32
3.5958,-13.266,-1.4029,1.2113,-0.16005,2.7263,-8.46,33.84,88.62
3.5685,-12.98,-1.1305,1.044,-0.024435,2.799,-7.74,34.32,88.8
3.6094,-11.264,-1.1441,0.83872,0.33628,2.8295,-6.0,35.34,88.86
3.5277,-10.038,-1.6481,0.78496,0.6182,2.7165,-4.74,36.12,88.8
3.3915,-9.1529,-2.152,0.79077,0.82192,2.5244,-3.42,36.96,88.8
3.7047,-7.3822,-2.6968,0.85643,0.88178,2.3268,-0.54,38.28,88.98
4.0044,-7.1234,-2.6287,0.90255,0.72021,2.1218,0.84,38.82,88.86
4.2223,-7.1915,-2.4925,0.93523,0.47464,1.9502,2.52,39.36,88.68
4.6037,-7.7636,-2.9011,0.956,0.21075,1.777,5.7,40.68,88.26
4.7671,-8.0769,-3.1327,0.89003,-0.13958,1.6845,7.32,41.22,88.02
4.8625,-8.4855,-3.3097,0.84483,-0.2135,1.6325,8.94,41.88,87.66
4.7263,-8.8124,-3.6911,0.70555,-0.2813,1.4478,11.94,43.02,86.7
4.7671,-9.0303,-4.0589,0.59223,-0.21228,1.2688,13.2,43.44,86.22
4.6582,-8.9486,-4.3585,0.46334,-0.075442,1.014,14.64,43.8,85.74
4.5356,-8.7851,-4.3313,0.26328,0.16249,0.53329,16.86,44.58,84.96
4.5356,-8.9894,-4.0861,0.19639,0.25351,0.19792,17.7,44.82,84.72
4.6718,-9.7385,-3.8818,0.12431,0.27336,-0.093768,18.48,44.94,84.18
4.9578,-11.019,-3.5277,-0.032987,0.281,-0.36408,19.8,45.18,83.46
4.9442,-11.645,-3.1599,-0.2193,0.31276,-0.61484,20.28,45.48,83.22
4.8761,-12.572,-2.7104,-0.33048,0.39004,-0.80573,20.58,45.78,83.16
5.1213,-14.152,-3.0373,-0.41692,0.478,-1.0733,20.94,45.96,83.04
5.2983,-14.478,-3.4323,-0.72174,0.51221,-1.2422,20.94,45.96,83.1
5.38,-13.498,-3.6094,-0.97219,0.41905,-1.4578,21.0,46.08,83.28
4.9306,-12.027,-1.8387,-0.96608,0.28894,-1.6994,20.34,45.96,83.82
5.0259,-12.994,-1.2531,-0.81306,0.06353,-1.9068,19.86,45.9,83.94
5.38,-14.097,-1.1986,-0.76205,-0.28436,-2.0501,19.26,45.78,84.3
5.6661,-14.615,-1.5255,-0.81703,-0.78832,-2.0959,17.82,45.36,84.84
5.2302,-13.961,-1.471,-1.0614,-1.5079,-2.2217,16.92,45.12,85.14
4.6309,-13.048,-1.1305,-1.0763,-1.6921,-2.2843,15.78,44.82,85.8
3.3234,-11.319,-0.85808,-1.1115,-1.7074,-2.3329,14.88,44.52,86.52
2.8058,-10.025,-0.36775,-1.189,-1.4554,-2.5015,12.6,43.32,87.96
1.7706,-8.7987,-0.095342,-1.1454,-0.99449,-2.6001,11.46,42.6,88.62
1.6344,-8.0224,-0.40861,-1.1115,-0.38026,-2.7461,8.94,41.34,90.06
1.7979,-7.6955,-0.49033,-1.0724,0.39034,-2.7559,7.5,40.74,90.6
2.1248,-7.246,-0.38137,-0.99174,0.64691,-2.7238,6.0,39.9,91.14
2.6968,-7.246,-0.23155,-0.91416,0.63988,-2.587,3.12,38.28,91.86
2.6832,-7.1234,-0.027241,-0.85124,0.45357,-2.4099,1.74,37.56,92.16
2.6832,-6.8783,0.040861,-0.80573,0.21533,-2.1292,0.18,36.6,92.28
2.4789,-6.4424,0.24517,-0.74678,-0.019242,-1.8021,-2.7,35.04,92.52
2.3427,-6.4969,0.28603,-0.63744,-0.20372,-1.2437,-3.9,34.14,92.82
2.1929,-6.4697,0.27241,-0.58765,-0.2138,-1.0669,-4.92,33.42,92.82
1.9613,-6.5241,0.21793,-0.46151,-0.15852,-0.68936,-6.06,32.7,92.64
1.9613,-6.6876,0.054481,-0.1857,-0.020464,-0.054978,-8.04,31.38,92.4
2.3563,-7.5729,-0.25879,0.066584,0.041539,0.40225,-8.94,30.78,92.22
2.5879,-8.1177,-0.40861,0.27764,0.038485,0.85399,-9.54,30.12,91.98
2.9011,-9.7522,-0.83084,0.59895,-0.06017,1.4178,-10.38,29.22,91.44
2.9556,-10.229,-0.89894,0.7367,-0.11118,1.8146,-10.56,28.86,91.32
3.1054,-11.032,-0.78998,0.84208,-0.11148,2.2388,-10.74,28.68,91.2
3.5958,-11.768,-1.0351,0.83353,-0.081856,2.609,-10.56,28.56,90.84
3.5277,-10.855,-1.1441,0.83597,-0.021075,2.792,-10.44,28.68,90.9
3.5277,-10.624,-1.5119,0.94623,0.034514,2.8494,-10.14,28.8,91.14
3.7728,-11.768,-1.7979,1.0556,0.021991,2.8185,-9.36,29.28,91.2
3.8273,-12.408,-1.9341,1.0825,-0.0085521,2.7684,-8.7,29.7,91.56
3.8682,-12.871,-1.975,1.0489,-0.0039706,2.7242,-7.98,30.12,91.8
4.0589,-12.286,-1.4846,0.8491,0.14416,2.62,-5.88,31.26,92.22
3.9227,-11.101,-1.4846,0.69333,0.34606,2.4902,-4.68,31.86,92.46
3.7728,-10.202,-1.6753,0.58338,0.56933,2.3305,-3.48,32.52,92.46
3.7592,-7.6683,-1.9341,0.62492,0.76175,1.9639,-1.02,33.72,92.58
3.6911,-7.1915,-2.0431,0.68234,0.75198,1.7315,0.24,34.32,92.58
3.7047,-6.7693,-2.2201,0.79748,0.72693,1.5852,1.68,34.86,92.46
4.2904,-7.4503,-2.5606,0.83811,0.65301,1.4881,4.38,35.94,92.58
4.699,-7.8317,-2.9011,0.8265,0.44899,1.4423,5.88,36.48,92.58
5.0259,-8.2539,-3.2553,0.7984,0.14111,1.3977,7.32,36.96,92.28
5.2302,-8.6217,-3.7865,0.73182,-0.14997,1.3277,9.96,37.92,91.68
5.1349,-8.717,-3.7728,0.59223,-0.42211,1.1316,11.16,38.28,91.2
4.7807,-8.6081,-3.8001,0.48503,-0.4105,0.94287,12.36,38.76,90.72
4.3449,-8.4991,-3.9908,0.3653,-0.26237,0.69914,13.98,39.48,89.76
4.2495,-8.6625,-3.8954,0.26603,-0.081551,0.4102,14.76,39.9,89.22
4.4266,-9.2482,-3.7728,0.17959,0.097433,0.11606,15.42,40.26,88.8
4.8352,-10.706,-3.7047,0.076358,0.19975,-0.30482,16.68,40.56,88.26
4.9033,-11.21,-3.623,-0.13653,0.31124,-0.56077,17.34,40.74,88.02
4.9306,-11.959,-3.3642,-0.25198,0.34361,-0.76541,17.76,40.8,87.72
5.1076,-13.103,-3.0918,-0.28711,0.35277,-0.86957,18.18,41.04,87.54
5.3119,-14.397,-3.2689,-0.48686,0.38973,-1.1246,18.78,41.16,87.12
5.3119,-13.92,-3.4187,-0.70036,0.34422,-1.2892,18.9,41.28,87.0
5.1213,-12.708,-2.1112,-0.88178,0.2248,-1.4826,19.14,41.22,86.94
5.1485,-12.681,-1.6072,-0.81703,0.0281,-1.6692,19.08,41.16,86.88
5.4481,-13.825,-1.4982,-0.6802,-0.51588,-1.8222,18.78,41.1,86.94
5.7886,-14.533,-1.7162,-0.71319,-0.76572,-1.8494,18.78,41.04,86.94
5.5299,-14.083,-1.7298,-0.96639,-1.5372,-2.0067,18.36,40.86,86.94
4.413,-12.245,-1.0488,-1.0027,-1.7376,-2.0831,17.4,40.26,87.42
3.7456,-11.754,-0.9398,-1.0186,-1.8555,-2.2455,16.98,40.08,87.66
3.0237,-10.828,-0.40861,-1.1335,-1.6145,-2.4068,15.72,39.54,88.26
2.0567,-9.0848,-0.38137,-1.1203,-1.3784,-2.4679,15.12,39.3,88.74
1.7298,-8.6081,-0.53119,-1.1668,-0.46578,-2.671,14.22,38.94,89.04
1.7025,-7.9951,-0.57205,-1.153,0.10079,-2.7269,13.08,38.58,89.34
2.0839,-7.246,-0.47671,-1.1164,0.54611,-2.6936,10.74,37.8,89.94
2.3018,-7.069,-0.32689,-1.0489,0.75808,-2.6582,9.3,37.38,90.12
2.6423,-6.7966,-0.17706,-0.97952,0.68783,-2.5491,7.8,37.08,90.24
2.6696,-6.7012,0.01362,-0.87354,0.30604,-2.2126,4.86,36.36,90.3
2.6015,-6.6604,0.054481,-0.8094,0.051313,-1.879,3.3,35.88,90.36
2.4789,-6.5514,0.10896,-0.75075,-0.0956,-1.5049,2.1,35.52,90.3
2.1248,-6.4833,0.28603,-0.67348,-0.13439,-1.1414,-0.42,34.62,90.06
1.9068,-6.6059,0.28603,-0.54581,-0.075747,-0.72907,-1.62,34.2,89.88
1.9477,-6.7829,0.21793,-0.3937,0.053451,-0.28039,-2.88,33.66,89.7
2.4517,-7.6819,-0.17706,-0.041539,0.18631,0.416,-5.28,32.76,89.28
2.833,-8.431,-0.49033,0.22327,0.16096,0.86193,-6.12,32.46,89.04
2.9692,-8.9213,-0.6674,0.36194,0.12706,1.0547,-6.78,32.1,89.04
3.1054,-9.7522,-0.70826,0.74037,-0.04612,1.5687,-7.86,31.8,88.56
3.2553,-10.964,-0.84446,0.95631,-0.16371,1.9395,-8.1,31.74,88.44
3.5685,-11.713,-1.1577,1.091,-0.27764,2.3213,-8.22,31.68,88.32
3.9499,-10.842,-1.5527,1.1732,-0.50549,2.6505,-8.28,31.8,88.32
3.6911,-10.488,-1.7298,1.2596,-0.63041,2.6777,-8.22,31.92,88.32
3.5413,-10.774,-1.757,1.3418,-0.66554,2.6197,-7.98,32.22,88.26
3.0646,-12.803,-1.471,1.3198,-0.57269,2.5681,-7.2,33.12,88.68
3.0646,-13.484,-1.4438,1.1771,-0.34086,2.4969,-6.66,33.54,88.86
3.0918,-12.544,-1.0215,0.94318,0.064141,2.4419,-5.82,34.14,89.04
3.3778,-11.931,-1.7706,0.75717,0.56505,2.4016,-3.48,35.46,89.4
3.2961,-10.569,-2.0294,0.40989,1.3033,2.2019,-2.28,35.88,89.52
3.3506,-9.1393,-2.2065,0.43066,1.4716,2.0919,-1.08,36.42,89.46
3.7728,-7.7091,-2.0839,0.53909,1.6817,1.8415,1.74,37.32,89.7
3.9771,-6.8238,-2.1248,0.59101,1.5858,1.6503,3.0,37.86,89.76
4.3313,-6.6467,-2.2201,0.71227,1.2874,1.5116,4.32,38.22,89.7
4.9987,-7.5048,-2.8194,0.87568,0.51771,1.4493,6.9,39.0,89.4
5.2711,-7.9951,-3.0101,0.88423,-0.0281,1.4447,8.22,39.48,89.34
5.3256,-8.2539,-3.1599,0.85185,-0.50183,1.4429,9.36,39.9,89.16
5.2575,-8.6353,-3.5277,0.81428,-0.83139,1.3888,10.74,40.32,88.86
4.7399,-8.5808,-3.9908,0.68173,-0.9615,1.2679,12.84,41.16,88.02
4.1406,-8.2539,-4.018,0.54062,-0.83108,1.0861,13.86,41.52,87.6
3.8001,-8.5536,-3.8546,0.28894,-0.19303,0.53634,15.36,42.0,86.58
3.8001,-8.5536,-3.8546,0.28894,-0.19303,0.53634,15.36,42.0,86.58
4.1814,-10.12,-3.7728,0.14569,0.16616,0.098655,16.86,42.48,85.68
4.522,-11.155,-3.8682,-0.072998,0.39431,-0.19059,17.4,42.42,85.26
4.304,-11.645,-3.0373,-0.38607,0.62369,-0.48717,18.3,43.08,84.66
4.2223,-11.645,-2.7377,-0.55711,0.87232,-0.76205,18.78,43.26,84.42
4.2632,-12.163,-2.656,-0.58399,1.0974,-1.0131,19.2,43.44,84.48
4.9033,-13.239,-3.0918,-0.61056,1.2187,-1.2,19.56,43.5,84.6
5.2847,-13.253,-3.4596,-0.69211,1.1603,-1.3219,19.56,43.44,84.78
5.2575,-12.367,-3.3778,-0.96395,0.80543,-1.5357,19.26,43.38,84.9
4.699,-11.536,-1.9886,-0.88728,0.54581,-1.6952,18.36,43.02,85.26
4.5764,-13.021,-1.3893,-0.76144,0.29535,-1.8314,17.64,42.72,85.5
4.413,-14.247,-1.3212,-0.87506,0.07422,-1.9826,16.14,42.06,86.28
4.304,-13.688,-1.3348,-1.0873,0.013134,-2.1008,15.3,41.7,86.76
4.1542,-12.708,-1.0215,-1.1582,-0.000611,-2.1771,14.16,41.34,87.36
3.8001,-11.836,-0.81722,-1.0653,-0.11362,-2.3317,13.08,40.98,87.84
3.4459,-10.569,-0.91256,-0.9954,-0.14997,-2.4129,11.1,39.66,89.04
3.1191,-9.3436,-0.64016,-0.88698,-0.29108,-2.5415,9.96,39.06,89.64
2.5879,-7.8045,-0.51757,-0.69242,-0.34239,-2.521,7.74,37.5,90.54
2.4517,-7.5048,-0.55843,-0.47586,-0.30238,-2.4997,6.42,36.6,90.78
2.438,-7.1234,-0.47671,-0.36194,-0.23915,-2.3909,5.22,35.82,91.02
2.4517,-6.851,-0.50395,-0.31429,-0.2419,-2.3305,4.08,34.92,91.2
2.4108,-6.6876,-0.36775,-0.24618,-0.31307,-2.0595,1.74,33.24,91.62
2.4108,-6.4288,-0.17706,-0.24374,-0.43555,-1.8347,0.6,32.52,91.56
2.3427,-6.279,0.01362,-0.25045,-0.59193,-1.4502,-1.74,31.08,91.38
2.0294,-6.4697,0.068102,-0.23091,-0.58521,-1.1402,-2.76,30.48,91.08
1.9205,-6.5105,0.040861,-0.21014,-0.52076,-0.7929,-3.72,29.82,90.84
1.8251,-6.5105,0.01362,-0.13592,-0.39187,-0.40714,-4.56,29.28,90.54
1.9613,-7.1643,-0.20431,-0.011912,-0.2416,0.013439,-6.18,28.08,90.06
2.3155,-7.8862,-0.17706,0.12248,-0.092241,0.47556,-6.78,27.48,89.7
2.5879,-8.6762,-0.55843,0.28863,-0.02474,0.92454,-7.2,27.06,89.46
3.0782,-9.9837,-0.54481,0.55711,-0.07086,1.5,-7.98,26.58,88.92
3.2825,-10.637,-0.64016,0.73518,-0.17807,1.8378,-8.22,26.46,88.8
3.4459,-11.373,-0.7355,0.93462,-0.31001,2.1667,-8.28,26.34,88.62
3.7592,-12.449,-0.91256,1.1005,-0.45876,2.5275,-8.22,26.34,88.68
4.2087,-12.49,-1.6889,1.1545,-0.62553,2.7422,-7.68,26.64,88.86
4.1133,-11.319,-1.975,1.2004,-0.78985,2.7232,-7.32,26.94,88.98
3.3506,-11.468,-2.152,1.2541,-0.86987,2.5626,-5.88,27.54,89.46
2.9284,-12.531,-1.9886,1.2639,-0.81703,2.3549,-5.04,27.78,89.76
2.7786,-13.048,-1.8524,1.0913,-0.58521,2.1359,-4.02,28.08,90.0
2.6015,-12.871,-1.58,0.55314,0.19792,1.8726,-3.0,28.62,90.12
2.7377,-11.264,-1.471,0.31154,0.86529,1.7477,-0.84,29.64,90.48
2.9284,-9.7658,-1.7843,0.10751,1.4325,1.5675,0.12,30.3,90.42
2.9284,-7.6683,-1.866,-0.032681,1.8298,1.3186,2.34,31.26,90.66
3.0782,-6.7421,-1.8387,-0.012217,2.0046,1.135,3.48,31.68,90.78
3.3778,-6.3879,-1.7025,0.10843,1.9114,0.97097,4.56,32.1,90.9
3.9908,-6.2926,-1.6072,0.19853,1.6472,0.92118,6.48,32.7,90.66
4.2359,-6.6195,-1.7025,0.28344,1.2471,0.94776,7.14,33.0,90.48
4.3313,-6.9191,-1.8932,0.33842,0.78618,1.007,7.86,33.0,90.36
4.3177,-7.6002,-2.2065,0.34697,0.19884,1.1121,8.82,33.36,90.12
4.1814,-7.7636,-2.0975,0.3485,0.029627,1.1325,9.3,33.66,89.94
3.9908,-8.036,-2.1112,0.33537,-0.0076358,1.1283,9.48,33.96,89.7
3.9635,-8.1722,-2.8467,0.3375,0.043371,1.0427,10.14,34.08,89.34
4.0861,-8.0769,-3.051,0.32284,0.0956,0.86499,10.44,34.26,89.16
4.1542,-8.0905,-3.1191,0.33567,0.1069,0.66035,10.74,34.32,89.1
4.2632,-9.7385,-3.0373,0.36866,0.087354,0.35339,11.4,34.44,88.8
4.522,-10.842,-3.0373,0.31124,0.099876,0.16707,11.64,34.5,88.68
4.699,-11.754,-2.9556,0.13958,0.13775,-0.0042761,11.94,34.68,88.5
4.6037,-12.435,-2.5334,-0.000305,0.22388,-0.2025,12.54,34.86,88.38
4.4811,-12.708,-2.547,-0.098655,0.37293,-0.41142,12.9,34.92,88.38
4.5083,-13.225,-2.8467,-0.14752,0.54489,-0.64141,13.26,35.1,88.44
4.808,-12.926,-3.514,-0.24374,0.58032,-0.95081,13.62,35.16,88.38
4.6718,-11.7,-3.0101,-0.45357,0.42272,-1.1811,13.68,34.98,88.44
4.6582,-11.536,-2.2474,-0.37324,0.19639,-1.3644,13.86,34.92,88.56
4.9033,-13.579,-1.7706,-0.3656,-0.14142,-1.5256,13.68,34.92,88.62
4.7944,-14.22,-1.7979,-0.46578,-0.52412,-1.6402,13.38,34.68,88.62
4.5901,-13.866,-1.7025,-0.66462,-0.80451,-1.7663,13.2,34.44,88.68
3.7728,-11.836,-1.2395,-0.79443,-0.89828,-1.9254,12.6,34.2,88.8
3.4187,-11.25,-1.3484,-0.77274,-0.92882,-2.0953,12.12,34.02,88.86
2.942,-10.256,-1.3348,-0.77488,-0.85827,-2.1374,11.7,33.78,88.92
2.7513,-8.6762,-0.76274,-0.75656,-0.58002,-2.3014,10.8,33.3,89.34
2.3972,-7.9543,-0.40861,-0.72662,-0.49358,-2.4459,10.26,33.06,89.46
2.2474,-7.5457,-0.28603,-0.71777,-0.29841,-2.4245,9.66,32.7,89.64
2.2746,-7.3141,-0.47671,-0.69791,-0.12889,-2.3802,8.34,31.98,90.06
2.261,-7.1915,-0.54481,-0.67378,-0.078802,-2.2407,7.62,31.5,90.24
2.3018,-7.1234,-0.50395,-0.67623,-0.068722,-2.0598,6.84,31.14,90.36
2.438,-7.0281,-0.19068,-0.66951,-0.072693,-1.9545,6.12,30.66,90.36
2.3155,-6.9328,-0.19068,-0.65332,-0.14813,-1.5443,4.56,29.88,90.42
2.2065,-6.8919,0.095342,-0.61453,-0.1912,-1.2281,3.72,29.58,90.36
2.2337,-7.069,0.095342,-0.55589,-0.21411,-0.88331,2.1,28.74,90.24
2.3155,-7.2733,0.10896,-0.40256,-0.20433,-0.34697,1.38,28.32,90.18
2.3836,-7.6274,0.10896,-0.24221,-0.21228,0.0094684,0.66,27.84,90.12
2.6287,-8.54,-0.17706,-0.043982,-0.2248,0.39279,-0.6,27.24,89.82
2.8467,-9.112,-0.35413,0.17074,-0.27672,0.74251,-1.02,26.82,89.58
3.0373,-9.902,-0.40861,0.38882,-0.37232,1.036,-1.44,26.52,89.22
3.2416,-10.992,-0.54481,0.59132,-0.45632,1.277,-1.92,26.28,88.56
3.1735,-11.7,-0.51757,0.7984,-0.51404,1.6463,-2.04,26.34,88.38
3.1191,-12.803,-0.54481,0.85124,-0.47678,1.7938,-2.16,26.28,88.26
2.833,-12.313,-0.6674,0.81215,-0.26053,2.1356,-2.22,26.34,88.14
2.6696,-10.992,-0.89894,0.84269,-0.10507,2.1875,-1.8,26.46,88.14
2.8058,-10.637,-1.4301,0.96792,-0.015882,2.1002,-0.84,26.94,88.2
2.9556,-11.278,-1.58,1.0733,0.025351,1.9868,-0.36,27.06,88.32
2.942,-12.204,-1.6753,0.97555,0.10721,1.839,0.24,27.3,88.38
2.9011,-11.795,-1.3212,0.87109,0.18998,1.8124,1.86,28.02,88.44
2.9965,-10.964,-0.9398,0.65149,0.40745,1.7966,2.58,28.44,88.44
3.2144,-9.8748,-1.2258,0.42822,0.7251,1.7058,3.42,28.86,88.56
3.0373,-7.5457,-1.58,0.35033,0.86315,1.5711,5.04,30.0,88.68
3.0237,-6.279,-1.8387,0.40348,0.92454,1.4459,6.0,30.36,88.56
3.1463,-6.1292,-1.9205,0.48655,0.88209,1.3482,6.78,30.78,88.44
3.6094,-6.3471,-2.0158,0.53115,0.74617,1.2398,8.52,31.32,88.08
3.7184,-6.7421,-2.2201,0.54092,0.61789,1.2465,9.36,31.74,87.96
3.8682,-6.9872,-2.4517,0.52168,0.43677,1.2779,10.14,32.16,87.84
4.3585,-7.8045,-2.6696,0.48655,0.23427,1.2779,11.28,32.58,87.3
4.4539,-8.4719,-2.833,0.48655,0.042761,1.2538,12.0,33.0,87.0
4.7535,-9.793,-3.337,0.4609,-0.11851,1.1979,13.14,33.48,86.16
4.7263,-9.5479,-3.4732,0.3259,-0.23488,1.0434,13.5,33.66,85.98
4.4811,-8.9077,-3.5685,0.17257,-0.24618,0.60903,13.98,33.78,85.74
4.2087,-8.6353,-3.4596,0.18418,-0.14844,0.28863,14.28,33.96,85.56
4.0725,-9.6432,-3.4596,0.19426,0.013134,0.0027489,15.0,34.14,85.2
4.5628,-10.815,-3.5685,0.10507,0.17501,-0.23152,15.18,34.14,85.14
4.808,-11.346,-2.942,-0.074526,0.23182,-0.405,15.48,34.14,84.96
5.1621,-12.367,-2.7377,-0.1854,0.23457,-0.55283,15.78,34.38,84.78
5.1757,-13.062,-2.6968,-0.2926,0.135,-0.75228,15.84,34.38,84.96
5.2166,-13.416,-2.9284,-0.32009,0.10537,-0.83047,15.9,34.32,84.9
5.2302,-12.599,-3.4732,-0.54734,-0.007025,-1.0855,15.96,34.26,85.5
5.0531,-11.782,-2.7377,-0.65057,-0.12523,-1.2773,15.72,34.14,85.74
5.1213,-11.959,-2.1248,-0.58002,-0.33811,-1.452,15.78,34.08,86.04
5.5707,-14.206,-1.7025,-0.624,-0.85124,-1.6283,15.36,33.54,86.7
5.5843,-14.751,-1.5391,-0.77,-1.2101,-1.7144,15.24,33.24,87.18
5.4618,-14.669,-1.4029,-1.0259,-1.4077,-1.8628,15.06,33.06,87.54
4.9033,-13.934,-1.0896,-1.1292,-1.467,-2.0079,14.76,32.64,87.9
3.6503,-11.632,-0.64016,-1.1817,-1.4019,-2.189,14.64,31.92,88.98
3.0646,-10.406,-0.29965,-1.1942,-1.1316,-2.4062,14.4,31.5,89.52
2.1112,-8.431,-0.35413,-1.1228,-0.88117,-2.6909,14.22,30.6,90.66
2.3836,-8.5263,-0.61292,-0.95234,-0.18082,-2.8414,13.86,30.12,90.96
2.547,-8.1177,-0.69464,-0.92149,-0.027184,-2.8894,13.5,29.64,91.38
2.6015,-7.5593,-0.57205,-0.78252,0.25748,-2.8347,13.08,29.16,91.5
2.7922,-7.2869,-0.27241,-0.71654,0.27794,-2.7281,12.06,28.56,91.74
2.9556,-6.9872,-0.054481,-0.67104,0.079718,-2.5531,11.28,28.08,91.62
2.6832,-6.7829,0.19068,-0.62644,-0.37568,-2.1909,9.9,27.9,91.38
2.5061,-6.7966,0.24517,-0.61148,-0.4835,-2.0421,9.06,27.72,91.08
2.2474,-6.9328,0.24517,-0.59162,-0.60384,-1.7141,8.34,27.54,90.84
2.1248,-6.9055,0.28603,-0.54428,-0.54978,-1.2184,7.5,27.42,90.54
1.8251,-7.0417,0.17706,-0.44043,-0.416,-0.85765,5.76,27.18,89.52
1.7979,-7.2188,0.25879,-0.30849,-0.21625,-0.45265,4.98,27.24,89.16
2.3836,-8.1858,-0.10896,-0.13561,-0.041539,-0.0039706,4.14,27.18,88.68
2.5742,-8.5808,-0.35413,0.053756,0.054978,0.43768,2.7,27.0,87.84
2.6423,-8.9077,-0.40861,0.37415,0.099266,1.0189,2.1,27.12,87.36
2.6696,-9.616,-0.49033,0.57421,0.081245,1.3754,1.44,27.18,87.06
3.0237,-11.291,-0.8036,0.74067,0.057727,1.7966,0.78,27.3,86.34
3.3234,-12.095,-1.0215,0.82589,0.048258,2.2544,0.36,27.54,86.16
3.3234,-10.61,-1.0624,0.81673,0.10721,2.5589,0.12,27.66,86.04
3.3778,-10.025,-1.4982,0.87934,0.16707,2.7125,0.12,28.02,85.8
3.3778,-10.61,-1.9613,1.084,0.12156,2.7571,0.12,28.32,85.74
3.4732,-11.21,-2.1793,1.1594,0.058643,2.7348,0.3,28.62,85.8
3.8001,-12.449,-2.3563,1.1157,0.03146,2.6967,1.14,29.22,86.04
3.9227,-12.313,-2.1248,0.98227,0.078802,2.6771,1.74,29.58,86.04
3.8818,-11.087,-1.7706,0.80817,0.21319,2.6081,3.24,30.6,86.22
3.6094,-10.065,-1.866,0.64507,0.4328,2.4346,4.32,31.2,86.28
3.3506,-8.7579,-2.0839,0.55375,0.67348,2.2168,5.28,31.68,86.28
3.5004,-7.355,-2.2337,0.56261,0.86254,1.8155,7.62,32.4,86.1
3.5685,-7.2188,-2.2882,0.58185,0.84574,1.6182,8.76,32.88,86.04
4.1406,-7.6274,-2.3427,0.60659,0.8488,1.4917,11.1,33.54,85.74
4.4811,-8.0496,-2.4108,0.55864,0.76053,1.4047,12.24,33.9,85.68
4.699,-8.2267,-2.547,0.51465,0.56872,1.3509,13.32,34.2,85.38
4.7671,-8.6489,-2.6968,0.4612,0.36744,1.2782,15.18,34.8,84.9
4.7944,-8.8668,-2.833,0.41539,0.2361,1.1747,15.96,35.16,84.6
4.7399,-8.9213,-2.9556,0.3766,0.15272,0.95478,16.62,35.52,84.24
4.7944,-9.0848,-3.5413,0.36041,0.16707,0.74862,17.64,36.0,83.58
4.8352,-8.9622,-3.732,0.3091,0.21105,0.37141,18.12,36.18,83.1
4.7671,-8.8124,-3.6366,0.2584,0.20006,0.23518,18.78,36.66,82.44
4.8352,-9.3163,-3.7047,0.2697,0.11484,-0.016188,19.14,36.9,82.32
4.9169,-10.052,-3.8001,0.24893,0.024129,-0.23457,19.08,37.32,82.02
4.9714,-11.019,-3.5685,0.055283,-0.039706,-0.478,19.26,37.74,81.78
4.9306,-11.768,-3.0373,-0.077274,0.0039706,-0.59895,19.44,37.98,81.66
4.8625,-12.395,-2.9148,-0.18143,0.15211,-0.76572,19.32,38.52,81.42
5.094,-13.184,-3.1327,-0.32559,0.21289,-0.88789,19.08,38.64,81.3
5.2302,-12.803,-3.3506,-0.38515,0.20708,-0.96517,18.9,38.82,81.3
5.1485,-12.027,-3.1872,-0.57116,0.014355,-1.2391,18.48,38.88,81.3
5.2575,-11.346,-2.0567,-0.48197,-0.24984,-1.4218,17.52,38.82,81.42
5.4754,-12.395,-1.7843,-0.3769,-0.65882,-1.5705,16.8,38.88,81.48
5.7069,-13.43,-1.7706,-0.39034,-1.2022,-1.6609,15.24,38.82,81.96
5.2438,-13.375,-1.5936,-0.6408,-1.9661,-1.8082,14.46,38.76,82.2
4.5764,-12.572,-1.1577,-0.7254,-2.1264,-1.883,13.56,38.46,82.5
3.9227,-12.136,-1.0351,-0.76205,-2.1386,-1.9594,12.9,38.16,83.04
2.9965,-11.223,-1.0079,-0.97708,-1.7049,-2.1273,12.06,37.74,83.52
1.9341,-9.1529,-0.40861,-1.054,-1.2022,-2.3644,10.26,37.02,84.66
1.7025,-8.4174,-0.38137,-1.0705,-0.48717,-2.4465,9.3,36.66,85.26
2.0294,-7.7364,-0.70826,-1.0501,0.44838,-2.6142,7.44,35.4,86.7
2.3018,-7.3005,-0.6674,-1.0357,0.61331,-2.6261,6.24,34.74,87.18
2.4517,-7.1507,-0.5993,-0.96456,0.77916,-2.6093,4.98,34.02,87.72
2.7377,-7.0417,-0.38137,-0.84544,0.68356,-2.4325,3.84,33.24,88.26
2.9829,-6.96,-0.14982,-0.76419,0.35705,-2.237,1.74,31.98,88.98
2.8875,-7.1234,-0.12258,-0.68325,0.0094684,-1.9633,0.6,31.2,89.1
2.6287,-7.1098,0.027241,-0.63652,-0.26695,-1.6102,-0.36,30.42,89.46
2.2201,-6.9464,0.17706,-0.5226,-0.38973,-1.0314,-2.34,29.04,89.64
2.0567,-6.851,0.19068,-0.42486,-0.32193,-0.62339,-3.48,28.38,89.7
1.9613,-6.9191,0.19068,-0.34178,-0.25412,-0.41233,-4.26,27.78,89.7
2.3155,-7.6138,-0.095342,-0.057727,-0.038179,0.25015,-5.88,26.58,89.46
2.6968,-8.1858,-0.43585,0.17593,0.0067195,0.68875,-6.66,25.92,89.16
2.9148,-8.54,-0.5993,0.39615,-0.039095,1.0559,-7.26,25.5,88.86
2.9965,-9.6432,-0.50395,0.69944,-0.17929,1.536,-7.98,24.66,88.32
3.2825,-10.583,-0.72188,0.84025,-0.25198,1.8986,-8.16,24.6,88.14
3.4868,-11.741,-0.85808,0.90378,-0.29688,2.0995,-8.22,24.54,87.84
4.0316,-11.959,-1.4029,0.97861,-0.4444,2.5513,-8.16,24.48,87.48
3.8546,-10.801,-1.5119,1.0122,-0.52382,2.6136,-7.86,24.6,87.42
3.5004,-10.855,-1.7706,1.0867,-0.52565,2.5507,-7.38,24.96,87.36
3.4187,-11.891,-1.7706,1.1307,-0.39645,2.299,-6.78,25.26,87.36
3.2553,-12.449,-1.7979,1.0256,-0.20036,2.1075,-6.0,25.62,87.3
3.2144,-12.354,-1.866,0.83566,0.13164,1.9395,-5.34,25.86,87.3
3.3642,-11.795,-1.7706,0.63072,0.56505,1.7993,-4.44,26.4,87.36
3.2553,-9.6841,-1.8796,0.44471,0.98624,1.6258,-2.64,27.36,87.48
3.1191,-8.322,-1.9205,0.32712,1.4618,1.3299,-1.74,28.02,87.36
3.2961,-6.8102,-1.8524,0.3711,1.5962,1.1747,0.06,29.34,87.24
3.5958,-6.4833,-1.9341,0.40073,1.6078,1.1194,0.84,29.82,87.12
4.0452,-6.674,-2.152,0.50885,1.4117,1.0424,1.68,30.24,87.12
4.5083,-7.246,-2.4244,0.56077,1.0458,1.0702,2.46,30.72,87.06
4.699,-7.4095,-2.5198,0.57605,0.58032,1.1292,3.36,31.14,86.88
4.7944,-8.1586,-2.5742,0.56383,0.17685,1.2339,4.74,32.1,86.28
4.7126,-8.2676,-2.6423,0.58551,-0.16921,1.27,5.52,32.52,85.86
4.6718,-8.5944,-2.9011,0.59682,-0.23885,1.2792,6.06,32.88,85.5
4.7535,-8.5808,-3.6775,0.55253,-0.33506,1.1432,6.66,33.84,84.6
4.7399,-8.431,-3.7865,0.49052,-0.35552,0.9389,7.02,34.08,84.12
4.4402,-8.5944,-3.623,0.4496,-0.34575,0.69119,7.5,34.8,82.98
4.4675,-9.0303,-3.5685,0.42669,-0.31734,0.43494,7.74,34.98,82.62
4.522,-9.8339,-3.5413,0.22694,-0.18662,0.1069,7.86,35.34,82.08
4.8352,-11.686,-2.9148,0.14325,-0.1179,0.0015272,8.52,35.64,81.24
4.9306,-12.708,-2.6696,-0.095906,0.12737,-0.27367,8.76,35.88,80.88
4.9306,-13.566,-2.6015,-0.27917,0.31521,-0.48808,9.0,36.0,80.46
5.0531,-14.029,-3.1463,-0.49083,0.55436,-0.73945,9.36,36.3,79.86
4.9033,-12.476,-3.1599,-0.73182,0.66523,-1.0098,9.42,36.36,79.5
4.7126,-11.169,-1.975,-0.63347,0.55222,-1.3949,9.18,36.66,79.14
5.38,-12.544,-1.7162,-0.46029,0.20678,-1.565,9.12,36.66,78.9
5.9249,-14.043,-1.9477,-0.4609,-0.39981,-1.6545,9.0,36.48,78.9
5.993,-14.206,-1.975,-0.61789,-1.0385,-1.7196,8.64,36.3,78.84
4.5764,-12.19,-1.3757,-0.72174,-1.4667,-1.7959,8.16,36.06,78.9
4.0316,-11.7,-1.3484,-0.71685,-1.7196,-1.9254,7.86,35.7,78.96
3.3642,-10.828,-1.4438,-0.79901,-1.5898,-2.1368,7.62,35.52,79.26
2.152,-9.0303,-1.2531,-0.82803,-1.4203,-2.23,6.96,34.98,79.68
2.2337,-8.4038,-1.0215,-0.88728,-0.74495,-2.4496,6.48,34.68,79.98
2.0022,-7.8998,-0.91256,-0.88606,-0.31368,-2.5323,6.06,34.44,80.34
2.2746,-7.6002,-0.83084,-0.89614,-0.044899,-2.5763,4.8,33.6,81.42
2.3018,-7.4503,-0.7355,-0.8882,0.055894,-2.536,4.02,33.24,81.9
2.5742,-7.4095,-0.70826,-0.87751,0.045204,-2.3998,2.4,32.34,82.44
2.5061,-7.2052,-0.51757,-0.88575,-0.099571,-2.0754,1.38,31.92,82.8
2.5742,-7.0962,-0.49033,-0.88423,-0.14447,-1.9331,0.54,31.56,82.98
2.4108,-7.1507,-0.35413,-0.84941,-0.21564,-1.602,-0.24,31.26,83.34
2.1248,-7.1371,-0.14982,-0.82925,-0.21044,-1.069,-1.86,30.6,83.88
2.0022,-7.1234,-0.068102,-0.78038,-0.1066,-0.7086,-2.76,30.36,84.12
2.0567,-7.4095,0.027241,-0.69944,0.051313,-0.34086,-3.66,29.94,84.3
2.4925,-8.3493,-0.12258,-0.52443,0.26206,0.20708,-5.04,29.1,84.36
2.6832,-9.0303,-0.054481,-0.38301,0.3204,0.56597,-5.76,28.74,84.24
2.8194,-9.4798,-0.027241,-0.29566,0.32193,0.72998,-6.48,28.32,84.24
3.2144,-10.828,0.095342,-0.039401,0.32956,1.2178,-7.38,28.02,84.18
3.3097,-11.577,0.24517,0.16066,0.32773,1.5354,-7.68,28.02,84.06
3.732,-11.891,-0.14982,0.33995,0.31307,1.8506,-7.74,28.08,84.24
3.8682,-10.188,-0.47671,0.66371,0.1179,2.0128,-7.62,28.02,84.6
3.9227,-10.283,-1.0351,0.94867,-0.12248,1.9981,-7.32,28.14,84.66
3.9771,-10.896,-1.2258,1.1548,-0.43249,1.9462,-7.02,28.2,84.66
3.5822,-12.585,-1.3757,1.2068,-0.62705,1.8815,-6.42,28.56,84.78
3.3097,-12.503,-1.1986,1.0394,-0.5623,1.8485,-5.82,28.8,84.78
3.0646,-11.673,-0.77636,0.79046,-0.22297,1.836,-5.16,29.1,84.96
2.5742,-9.3708,-1.1305,0.52504,0.60262,1.7755,-3.9,30.06,85.26
2.5061,-8.0224,-1.471,0.44899,1.171,1.6521,-3.06,30.48,85.5
2.4789,-7.3005,-1.7298,0.46823,1.3839,1.573,-2.16,31.14,85.38
2.8058,-6.4152,-2.0975,0.53695,1.7116,1.4426,-1.2,31.62,85.32
3.5685,-6.1428,-2.0294,0.58857,1.6493,1.3729,0.6,32.46,85.32
3.909,-6.3471,-2.0567,0.63377,1.3744,1.3451,1.44,32.94,85.08
4.5356,-7.0281,-2.3699,0.75656,0.73334,1.4471,3.24,33.9,84.48
4.8625,-7.6955,-2.7649,0.77641,0.4893,1.4954,3.9,34.32,84.36
4.8488,-8.2539,-2.9965,0.77672,-0.12248,1.6038,4.62,34.86,84.12
4.6173,-9.2755,-3.3506,0.7761,-0.37721,1.6228,6.18,35.88,83.46
4.5901,-9.6296,-3.5549,0.73243,-0.45021,1.5644,6.78,36.42,83.04
4.5764,-9.7794,-3.7047,0.63927,-0.36102,1.3573,7.5,36.9,82.5
4.2359,-9.4389,-4.0589,0.51832,-0.14722,0.93615,9.0,37.56,81.36
4.0861,-9.6704,-3.9771,0.46426,0.028711,0.57666,9.48,37.8,80.82
4.0589,-10.338,-3.9635,0.42486,0.12828,0.4105,9.96,38.04,80.4
4.4675,-11.4,-3.5549,0.13867,0.47037,0.0073304,11.16,38.28,79.44
4.6718,-11.809,-3.2416,-0.051007,0.64232,-0.19853,11.7,38.64,78.96
4.808,-12.558,-3.1463,-0.13989,0.76694,-0.35491,12.18,38.94,78.78
5.598,-14.056,-3.8954,-0.38698,0.78038,-0.5568,13.08,39.24,78.06
5.7342,-13.607,-4.0044,-0.67012,0.62308,-0.73518,13.56,39.3,77.7
5.5026,-11.782,-3.3778,-0.73762,0.50427,-0.83139,13.86,39.36,77.52
5.2847,-11.319,-2.2746,-0.66065,0.054978,-1.1573,14.04,39.18,77.16
5.6388,-12.449,-1.9613,-0.60201,-0.34606,-1.3253,14.1,39.18,77.16
5.7205,-13.225,-1.9886,-0.63774,-0.86926,-1.4462,14.1,39.24,77.1
5.2302,-13.157,-1.8796,-0.82131,-1.5146,-1.5586,13.56,39.24,77.28
4.6718,-12.435,-1.6481,-0.97647,-1.704,-1.7043,13.32,39.24,77.4
4.2495,-11.782,-1.4846,-1.0263,-1.7138,-1.7468,13.14,39.18,77.58
3.514,-10.447,-1.3076,-1.1393,-1.4826,-1.9832,12.78,39.12,77.76
2.5061,-8.8124,-0.9398,-1.201,-1.0556,-2.094,11.88,38.88,78.48
2.4789,-8.2812,-0.7355,-1.2123,-0.56841,-2.2926,11.34,38.7,78.72
2.4789,-8.2676,-0.72188,-1.1881,-0.21289,-2.4508,10.62,38.58,79.32
2.6015,-8.1995,-0.55843,-1.2138,0.16402,-2.5204,9.06,38.28,80.1
2.7649,-8.1722,-0.38137,-1.2144,0.29016,-2.5052,8.22,38.16,80.52
2.8603,-8.145,-0.16344,-1.2004,0.27275,-2.445,7.08,37.98,80.94
2.7377,-7.9407,-0.027241,-1.1704,0.22907,-2.3204,5.04,37.68,81.48
2.5742,-7.8862,0.095342,-1.1212,0.2022,-2.1438,3.72,37.44,81.84
2.5061,-7.5729,0.054481,-1.058,0.20097,-1.8909,2.52,37.14,82.2
2.438,-7.1507,0.20431,-0.88239,0.2364,-1.4594,0.06,36.6,82.38
2.3699,-7.1371,0.24517,-0.71166,0.27306,-1.1377,-1.32,36.24,82.68
2.3563,-7.246,0.23155,-0.60964,0.28741,-0.96914,-2.64,36.0,82.8
2.6151,-7.7364,-0.01362,-0.2697,0.23854,-0.39065,-5.22,35.46,82.98
2.8058,-8.1177,-0.19068,0.010079,0.11942,0.021075,-6.42,35.1,82.92
2.8603,-8.4991,-0.35413,0.26634,-0.0076358,0.4331,-7.5,34.86,82.74
2.8603,-9.5751,-0.62654,0.53878,-0.11209,0.84483,-9.54,34.38,82.56
3.0646,-10.447,-0.81722,0.76419,-0.22144,1.2889,-10.32,34.26,82.32
3.2144,-10.951,-1.0624,1.0104,-0.38118,1.9868,-10.8,34.2,82.08
3.732,-10.474,-1.6344,1.0595,-0.48869,2.2868,-11.82,33.84,82.02
3.6366,-9.8611,-1.8796,1.1405,-0.60537,2.3845,-12.06,34.08,81.78
3.4732,-10.025,-2.2201,1.1894,-0.67928,2.364,-12.06,34.32,81.6
2.8603,-11.904,-1.8524,1.1362,-0.54367,2.2364,-11.94,34.86,81.72
2.7513,-12.694,-1.5119,0.91447,-0.19578,2.1527,-11.46,35.22,81.72
2.7649,-12.463,-1.3757,0.77152,0.057116,2.1328,-10.86,35.7,81.78
2.8875,-10.637,-1.4982,0.43952,0.93432,2.1108,-9.3,36.72,81.78
3.1054,-9.5342,-1.6753,0.31307,1.408,2.0265,-8.46,37.2,81.84
3.1191,-8.3901,-1.8524,0.28588,1.7339,1.8925,-7.32,37.74,81.78
3.3778,-7.0962,-2.0431,0.40195,1.843,1.7853,-4.86,38.88,81.84
3.9227,-6.8647,-1.975,0.42791,1.7611,1.752,-3.84,39.42,81.84
4.2495,-6.7693,-1.9886,0.49083,1.4432,1.69,-2.58,40.08,81.66
4.8625,-7.069,-2.2882,0.6353,0.65821,1.733,-1.26,41.22,81.36
5.1349,-7.6274,-2.6423,0.72815,0.074831,1.8008,1.26,41.58,81.3
5.2847,-8.1177,-2.9965,0.75564,-0.41264,1.8295,2.4,42.0,80.94
5.1213,-9.1937,-3.6639,0.68417,-0.82406,1.7581,4.68,42.84,80.28
5.0259,-9.2618,-3.7047,0.60659,-0.76328,1.5736,5.76,43.2,79.8
4.7263,-9.3436,-3.8682,0.54367,-0.64752,1.4459,6.66,43.56,79.32
4.4811,-9.0848,-4.0316,0.34544,-0.19334,0.96883,8.46,44.4,78.3
4.4675,-9.2755,-3.9499,0.23366,0.064446,0.57146,9.42,44.82,77.88
4.5764,-9.9292,-3.7184,0.13775,0.31185,0.22388,9.96,45.06,77.46
4.9714,-11.305,-3.3506,-0.016188,0.55619,-0.069944,11.28,45.54,76.68
5.0259,-11.523,-3.1191,-0.33964,0.81673,-0.43097,11.88,45.72,76.38
4.9578,-11.509,-2.9011,-0.43371,0.95326,-0.62247,12.36,45.96,76.38
5.3119,-12.572,-2.9284,-0.43707,1.0443,-0.79657,13.02,46.38,76.26
5.6524,-12.967,-3.2553,-0.5171,1.0046,-0.92241,13.2,46.56,76.38
5.8295,-12.544,-3.0918,-0.65851,0.83505,-1.058,13.32,46.62,76.56
5.5026,-10.883,-2.2201,-0.69303,0.58338,-1.3192,13.14,46.8,76.92
5.38,-10.801,-1.6753,-0.50396,0.08827,-1.5113,12.78,46.8,77.34
5.489,-11.782,-1.0215,-0.4102,-0.10751,-1.5858,12.36,46.8,77.7
5.775,-13.225,-1.5119,-0.29291,-0.91691,-1.6912,11.28,46.62,78.54
5.7614,-12.967,-1.8932,-0.39218,-1.5223,-1.7715,10.62,46.44,78.96
5.1213,-11.945,-1.5936,-0.42761,-1.9926,-1.9099,10.02,46.38,79.56
3.4187,-10.515,-0.64016,-0.41294,-2.168,-2.0116,8.46,46.02,81.0
2.6696,-9.6023,-0.10896,-0.56872,-1.7474,-2.2776,7.62,45.84,81.66
2.261,-9.0439,0.17706,-0.59162,-1.5149,-2.4129,6.78,45.36,82.44
1.471,-8.322,-0.068102,-0.58154,-0.92302,-2.5562,6.0,45.0,83.22
1.866,-8.1995,-0.77636,-0.61209,0.040623,-2.6286,3.9,44.04,84.72
2.2882,-7.641,-0.77636,-0.59468,0.41661,-2.5348,2.76,43.5,85.38
2.6015,-7.3822,-0.76274,-0.49755,0.5455,-2.4459,1.44,42.9,86.7
3.1872,-7.2733,-0.27241,-0.44318,0.40042,-2.1509,-1.14,41.58,87.12
2.9829,-7.0962,-0.095342,-0.43952,0.25137,-2.043,-2.46,40.8,87.54
2.8058,-7.0281,0.027241,-0.40103,-0.079107,-1.7663,-3.78,40.02,88.02
2.4925,-7.355,0.16344,-0.34514,-0.41386,-1.2715,-6.6,38.52,88.92
2.4108,-7.355,0.14982,-0.29871,-0.48503,-0.90103,-7.92,37.62,89.16
2.3563,-7.4095,-0.027241,-0.20892,-0.50824,-0.47739,-9.18,36.78,89.28
2.4925,-7.927,-0.081722,0.025656,-0.46273,0.15974,-11.22,35.34,89.46
2.6968,-8.5672,-0.31327,0.11301,-0.4496,0.37904,-12.24,34.68,89.46
2.8194,-9.0712,-0.31327,0.2642,-0.44349,0.73701,-13.08,34.08,89.52
2.656,-10.365,-0.12258,0.47922,-0.38118,1.1533,-14.46,32.94,89.52
2.7241,-11.332,-0.14982,0.57941,-0.24954,1.4649,-14.88,32.52,89.7
2.9965,-12.272,-0.40861,0.65271,-0.10568,1.8314,-14.94,32.16,89.64
3.5413,-11.836,-0.96704,0.68753,0.060781,2.2614,-14.82,31.98,89.82
3.5958,-10.61,-1.1032,0.76358,0.067195,2.3314,-14.58,31.98,90.06
3.6775,-10.215,-1.076,0.821,0.050091,2.3066,-14.1,31.86,90.24
3.2553,-11.087,-1.3757,1.0052,-0.033903,2.1643,-12.66,32.22,90.66
3.3097,-11.945,-1.5391,1.0226,-0.057421,2.095,-11.7,32.7,90.9
3.4732,-12.163,-1.757,0.90897,-0.032987,2.0568,-10.68,33.12,91.32
3.8001,-11.21,-1.7025,0.78435,0.026267,2.0537,-8.52,34.02,91.62
3.7047,-10.637,-1.7706,0.5507,0.1857,1.9254,-7.32,34.56,91.62
3.4323,-9.0848,-1.9341,0.4893,0.27306,1.8353,-6.06,35.1,91.62
2.9692,-6.96,-1.8387,0.42089,0.52168,1.5266,-3.3,36.42,91.74
3.0237,-6.4152,-1.6753,0.44715,0.61453,1.3653,-1.98,36.9,91.56
3.1191,-6.3471,-1.6753,0.49083,0.64904,1.2217,-0.66,37.62,91.5
3.5277,-7.0281,-2.1656,0.53115,0.64904,1.1206,1.92,38.46,91.08
3.7592,-7.3958,-2.4108,0.42944,0.57544,1.0275,3.0,39.0,90.72
3.8273,-7.5593,-2.3427,0.35033,0.53878,0.96456,4.14,39.54,90.42
3.8818,-7.7091,-2.3155,0.32803,0.53145,0.92393,5.1,40.08,90.0
3.9363,-8.0632,-2.5198,0.27703,0.52595,0.81734,6.72,40.86,89.46
4.127,-8.145,-2.7649,0.24893,0.50885,0.70372,7.5,41.16,89.04
4.2223,-7.9951,-3.0782,0.24068,0.45235,0.55039,7.98,41.4,88.86
4.3858,-8.3493,-3.051,0.28253,0.2642,0.31612,8.82,41.88,88.26
4.5083,-9.1665,-3.1054,0.3317,0.11515,0.17959,9.24,42.12,87.96
4.6173,-10.229,-3.3097,0.27978,-0.02474,0.059865,9.54,42.24,87.66
4.699,-11.482,-2.9148,0.14936,-0.08827,-0.064752,9.96,42.42,87.12
4.5628,-12.122,-2.3972,0.026878,-0.019853,-0.197,10.2,42.3,86.76
4.4402,-13.416,-2.1248,-0.038485,0.16982,-0.33353,10.32,42.36,86.76
4.7535,-14.342,-2.9692,-0.27428,0.51435,-0.59284,10.68,42.36,86.46
4.6037,-12.313,-3.0918,-0.54489,0.58154,-0.85888,10.68,42.24,86.46
4.3858,-11.114,-2.5742,-0.52993,0.56536,-1.1515,10.74,42.06,86.34
4.3858,-11.114,-2.5742,-0.30696,0.38393,-1.3576,10.74,42.06,86.34
5.2166,-14.451,-2.0839,-0.25809,0.029627,-1.5104,10.8,41.76,86.28
5.3392,-14.982,-2.152,-0.41356,-0.47892,-1.5626,10.62,41.52,86.16
5.3664,-14.819,-2.0158,-0.69578,-1.0006,-1.6765,10.38,41.28,86.22
3.8682,-11.645,-1.0896,-0.70921,-1.1005,-1.7165,9.96,40.5,85.92
3.3097,-10.256,-1.1169,-0.75289,-1.2223,-1.8607,9.72,40.14,86.1
3.0782,-9.4389,-1.0896,-0.74403,-1.1512,-2.0217,9.42,39.66,86.22
2.1248,-8.0632,-0.8717,-0.69761,-0.86254,-2.1081,9.0,38.52,86.58
2.4244,-7.5865,-0.62654,-0.686,-0.52565,-2.2315,8.64,37.38,87.12
1.9341,-7.0281,-0.64016,-0.67104,-0.3372,-2.3243,8.1,36.12,87.78
2.3699,-6.8374,-0.72188,-0.65332,-0.051924,-2.2324,7.14,34.86,88.44
2.4925,-6.7829,-0.64016,-0.61606,-0.051313,-2.1344,5.58,33.78,88.74
2.4925,-6.7966,-0.53119,-0.62339,-0.12737,-1.9786,4.2,32.76,88.92
2.4789,-6.8919,-0.21793,-0.62033,-0.23213,-1.7636,2.7,31.8,89.16
2.3018,-6.9328,-0.095342,-0.62033,-0.34941,-1.4917,1.2,30.9,88.86
2.2474,-7.1371,-0.040861,-0.60476,-0.41569,-1.1805,-0.48,30.12,88.68
2.2065,-7.4503,-0.027241,-0.54,-0.39309,-0.61484,-1.2,29.76,88.44
2.2882,-7.8998,-0.027241,-0.46059,-0.32315,-0.20861,-1.98,29.34,88.32
2.4517,-8.6217,-0.095342,-0.36255,-0.22633,0.23121,-3.6,28.62,87.78
2.9556,-9.3163,-0.28603,-0.22755,-0.16921,0.63713,-4.56,28.08,87.06
3.1872,-9.5751,-0.35413,-0.053451,-0.20189,0.91996,-5.04,27.48,87.0
3.1463,-10.27,-0.27241,0.15547,-0.2584,1.1102,-5.16,26.94,86.64
3.2825,-11.482,-0.24517,0.37202,-0.29627,1.3283,-5.04,26.58,86.64
3.514,-12.408,-0.5993,0.61331,-0.30818,1.6866,-4.68,26.46,86.88
3.909,-12.286,-0.96704,0.72479,-0.34117,1.908,-4.38,26.52,86.88
3.8273,-10.161,-1.4029,0.83505,-0.46426,1.952,-4.02,26.4,86.88
3.6775,-9.9156,-1.58,1.0076,-0.59254,1.8445,-3.18,26.46,86.88
3.4459,-10.964,-1.7298,1.1359,-0.6744,1.7352,-2.58,26.52,86.94
3.3642,-12.449,-1.9613,1.1017,-0.68478,1.6267,-1.32,27.06,87.42
3.1735,-12.149,-1.7843,0.8772,-0.55283,1.4945,-0.6,27.3,87.36
2.8467,-10.447,-1.3757,0.47037,-0.044593,1.3314,1.2,27.84,87.6
2.6832,-9.3299,-1.3757,0.29658,0.44776,1.1912,2.1,28.14,87.66
2.3291,-7.4776,-1.7434,0.18937,0.91172,0.99907,3.72,28.68,87.72
2.3155,-6.6195,-1.8932,0.18326,1.2767,0.80268,4.56,28.86,87.54
2.4925,-6.1564,-1.9341,0.20831,1.5229,0.69608,5.22,29.1,87.42
3.1327,-5.8295,-1.7706,0.22358,1.6368,0.6182,6.48,29.52,87.48
3.514,-6.0066,-1.7025,0.31185,1.4392,0.63163,7.74,30.06,87.18
3.8137,-6.2109,-1.9613,0.37751,1.1072,0.7083,8.16,30.3,87.12
4.127,-6.8647,-2.2882,0.41783,0.69394,0.81886,8.64,30.72,86.58
4.1678,-7.5457,-2.5198,0.44715,0.30055,0.94165,8.88,31.02,86.22
4.2495,-7.8453,-2.6287,0.47922,0.018021,1.04,8.88,31.08,85.98
4.0997,-8.4446,-3.1872,0.4835,-0.18876,1.0889,8.82,31.08,85.56
4.018,-8.54,-3.1872,0.47678,-0.31979,0.99663,8.76,31.26,85.32
3.8137,-8.7034,-3.1735,0.44654,-0.23243,0.81153,8.76,31.38,85.08
3.9227,-9.7794,-3.3642,0.49144,-0.12217,0.63316,8.94,31.56,84.78
4.4675,-11.169,-3.5958,0.50091,-0.03207,0.44776,9.12,31.5,84.48
4.6718,-11.822,-3.732,0.40439,0.0085521,0.28558,9.24,31.5,84.48
4.8352,-12.503,-3.2825,0.23152,0.030849,0.11759,9.72,31.62,84.36
4.6037,-12.708,-2.9829,0.040012,0.17074,-0.13897,10.08,31.38,84.12
4.6582,-12.858,-3.0646,-0.042761,0.31765,-0.2868,10.08,31.38,84.12
5.0395,-12.967,-3.8273,-0.13225,0.42028,-0.44196,10.44,31.26,84.12
5.2166,-10.964,-3.7728,-0.37141,0.37385,-0.61789,10.62,31.02,84.18
5.203,-10.161,-2.833,-0.43249,0.27428,-0.84635,10.56,30.78,84.06
5.8431,-12.013,-2.152,-0.28802,0.051924,-1.0079,10.56,30.36,84.18
6.6331,-14.124,-2.5742,-0.29902,-0.58307,-1.135,10.44,29.88,84.42
6.9464,-14.574,-2.6968,-0.53267,-1.1145,-1.1756,10.26,29.76,84.48
6.5378,-13.866,-1.9886,-0.80726,-1.485,-1.2846,10.14,29.22,84.72
5.5843,-12.776,-1.58,-0.95203,-1.6325,-1.4823,10.08,28.74,85.14
4.5764,-11.373,-0.96704,-1.0684,-1.5452,-1.7489,10.2,27.78,85.5
2.8467,-8.9486,-0.6674,-1.1472,-1.2782,-2.0748,10.38,26.94,86.1
2.5742,-7.8045,-1.0215,-1.0626,-0.65882,-2.565,10.38,25.92,86.7
2.5606,-7.8453,-1.2667,-1.0177,-0.23366,-2.6719,10.32,25.5,86.88
2.8603,-7.6138,-1.3076,-1.0122,0.069639,-2.8445,10.14,24.78,87.42
3.1872,-7.355,-0.92618,-0.94776,0.18662,-2.8268,9.6,23.88,87.6
3.4323,-7.355,-0.57205,-0.85521,0.16005,-2.7602,9.6,23.4,87.54
3.4868,-7.355,-0.23155,-0.81551,-0.035125,-2.6206,9.12,22.68,87.24
3.1463,-7.2733,-0.14982,-0.76633,-0.52412,-2.3063,8.34,22.14,86.64
2.8058,-7.2596,-0.10896,-0.73365,-0.7364,-2.0589,7.56,21.96,85.98
2.5606,-7.2733,0.027241,-0.71807,-0.77397,-1.7526,7.26,21.84,85.68
2.0975,-7.2324,0.19068,-0.6747,-0.66798,-1.4346,6.6,21.72,84.78
2.0158,-7.2869,0.12258,-0.59865,-0.45479,-1.087,6.0,21.54,83.64
2.0839,-7.4367,0.14982,-0.48319,-0.18967,-0.68447,5.82,21.54,83.22
2.4108,-8.2812,-0.19068,-0.30635,0.12828,-0.069944,5.88,21.48,82.5
2.6832,-8.4582,-0.35413,-0.024435,0.27519,0.31093,5.88,21.24,81.9
2.7513,-8.4446,-0.38137,0.19151,0.31246,0.63072,6.06,21.3,81.9
2.7377,-9.2618,-0.38137,0.40531,0.26664,0.91263,6.12,21.3,81.72
2.7786,-10.025,-0.40861,0.57666,0.2642,1.2718,6.3,21.3,81.66
3.2008,-11.536,-0.58567,0.62278,0.33109,1.7098,6.42,21.42,81.42
3.051,-10.447,-0.57205,0.59712,0.43585,2.0223,6.3,21.54,81.12
3.1463,-10.283,-0.83084,0.71105,0.56658,2.3051,6.3,21.84,81.06
3.623,-11.128,-1.4301,0.82406,0.53237,2.4297,6.42,21.84,81.18
3.8818,-12.054,-1.6208,0.92729,0.41844,2.521,6.42,22.02,81.06
3.9363,-12.354,-1.5391,0.92485,0.31368,2.5983,7.08,22.2,81.36
3.9635,-12.177,-1.4438,0.88148,0.26267,2.6903,7.5,22.26,81.36
4.018,-11.25,-1.3212,0.77244,0.29566,2.7187,8.22,22.62,81.54
3.5685,-9.6704,-1.5527,0.6689,0.42119,2.6823,9.42,22.8,81.72
3.3778,-7.8998,-1.5391,0.63622,0.72326,2.5009,10.86,22.8,82.26
3.4732,-7.2188,-1.58,0.69608,0.84422,2.2959,12.48,22.98,82.5
3.732,-7.246,-1.6889,0.76938,0.85582,2.1622,13.38,23.1,82.44
4.3585,-7.3822,-2.0158,0.832,0.77916,2.0675,15.06,23.4,82.56
4.9306,-7.8181,-2.547,0.89003,0.41325,1.9902,16.62,23.88,82.38
5.1894,-8.2948,-2.9284,0.88026,0.062003,1.9309,17.76,24.18,82.02
5.203,-8.5672,-3.1872,0.85002,-0.21258,1.8192,18.36,24.48,81.9
5.1621,-8.9622,-3.5685,0.78954,-0.30055,1.6826,19.5,24.72,81.24
5.0804,-9.0031,-3.9363,0.68906,-0.26512,1.4725,20.52,24.96,80.76
4.9306,-8.8396,-3.9227,0.54153,-0.14478,1.1851,20.88,25.32,80.46
4.6582,-8.8396,-3.7047,0.4215,0.039095,0.85094,21.54,25.5,79.74
4.9442,-9.902,-3.9635,0.38332,0.32193,0.33842,22.26,25.68,79.38
5.4345,-10.91,-4.2632,0.25168,0.4218,0.046731,22.56,25.56,79.14
5.7069,-11.85,-4.0452,0.022907,0.43463,-0.2193,23.1,25.62,78.6
5.4618,-12.258,-3.2825,-0.19334,0.43677,-0.4664,23.4,25.56,78.6
5.4073,-12.408,-3.2416,-0.31765,0.46823,-0.70647,23.76,25.68,78.18
5.3119,-13.007,-3.2553,-0.41569,0.54825,-0.93065,24.0,25.74,77.7
5.4618,-13.116,-3.6503,-0.49938,0.56933,-1.2123,24.18,25.8,77.46
5.1485,-11.822,-3.0782,-0.80879,0.49144,-1.4355,24.12,25.74,77.16
5.0531,-11.673,-2.2337,-0.78007,0.35247,-1.6188,24.0,25.92,77.22
5.4754,-13.171,-1.6344,-0.68478,0.048564,-1.7278,23.46,26.04,77.04
6.1564,-15.01,-1.8796,-0.70036,-0.41356,-1.7929,22.92,26.28,76.92
6.2381,-15.132,-1.9068,-0.92577,-0.94409,-1.8521,22.62,26.58,76.92
5.1213,-13.321,-1.1441,-1.113,-1.5553,-2.0498,21.72,27.12,77.1
4.5764,-12.544,-0.95342,-1.0825,-1.8005,-2.2397,21.06,27.18,77.4
3.8682,-10.951,-0.68102,-1.1075,-1.8524,-2.4279,20.04,27.3,77.82
2.9148,-10.27,-0.54481,-1.1072,-1.7309,-2.6869,19.56,27.3,78.06
2.152,-9.3299,-0.39499,-1.0782,-1.2559,-2.8173,18.3,27.3,78.48
1.9613,-8.6625,-0.70826,-1.0708,-0.65027,-3.0009,16.56,27.48,78.78
2.2337,-7.9679,-0.58567,-1.0284,0.083383,-3.0015,14.7,27.6,79.26
2.3699,-7.6002,-0.44947,-0.96364,0.38882,-2.9743,13.68,27.66,79.5
2.6287,-7.1507,-0.20431,-0.91111,0.45662,-2.864,11.58,27.66,79.62
2.7922,-6.7966,-0.095342,-0.84208,0.22235,-2.7144,9.54,27.6,79.32
2.7241,-6.5378,0.12258,-0.78252,-0.078191,-2.4563,7.38,27.66,79.02
2.5742,-6.5922,0.10896,-0.72662,-0.33475,-2.1429,6.66,27.6,78.84
2.2065,-6.7012,0.29965,-0.66554,-0.45387,-1.755,4.56,27.54,78.54
1.8796,-6.7148,0.24517,-0.58887,-0.37293,-1.1542,2.82,27.54,78.24
1.7162,-6.7557,0.36775,-0.47342,-0.18723,-0.70402,2.1,27.42,78.12
1.7706,-6.8374,0.40861,-0.31948,0.024129,-0.20281,1.14,27.18,77.82
2.3836,-7.5048,0.068102,-0.094379,0.17685,0.32467,0.54,27.0,77.88
2.9011,-8.6762,-0.35413,0.15821,0.20342,0.82039,0.24,26.88,77.82
2.942,-9.221,-0.29965,0.40989,0.14569,1.2382,0.24,26.82,77.82
3.1599,-9.8611,-0.23155,0.6182,0.065057,1.6277,-0.18,26.76,77.82
3.8001,-11.931,-0.1362,0.88209,-0.040623,2.2562,-0.36,26.94,78.0
4.1542,-11.918,-0.65378,0.98777,-0.11698,2.6365,-0.6,27.3,77.82
4.2223,-10.869,-1.0079,1.1145,-0.26939,2.7791,-0.6,27.72,77.76
4.2087,-10.883,-1.8387,1.3241,-0.44899,2.7975,-0.3,28.32,77.76
4.0589,-11.441,-1.8932,1.471,-0.63622,2.7596,-0.12,28.56,77.7
3.909,-12.367,-1.8932,1.507,-0.7025,2.7138,0.12,28.86,77.7
3.5413,-12.926,-1.757,1.2394,-0.43463,2.6026,1.2,29.88,77.76
3.514,-12.231,-1.7298,0.99449,-0.029627,2.5433,1.98,30.24,77.7
3.3234,-10.42,-2.1112,0.77152,0.46853,2.4257,3.6,31.02,77.7
3.1872,-9.0848,-2.2882,0.61575,0.98471,2.0837,4.62,31.44,77.64
3.1463,-8.0224,-2.261,0.562,1.3845,1.9697,5.7,31.86,77.64
3.732,-7.3141,-2.1929,0.59346,1.5675,1.5953,8.1,32.7,77.64
3.9908,-7.1507,-2.1929,0.5849,1.4581,1.4316,9.24,33.06,77.64
4.1951,-7.1643,-2.2201,0.61361,1.2605,1.3445,10.5,33.42,77.64
4.8897,-7.8045,-2.547,0.59926,0.95264,1.317,12.72,33.9,77.46
4.9169,-7.9407,-2.5334,0.54947,0.47098,1.3027,13.8,34.32,77.34
4.8352,-8.2812,-2.9965,0.53237,0.33353,1.2972,15.0,34.56,77.16
4.7671,-8.4719,-3.228,0.50519,0.14325,1.2437,17.1,35.1,76.5
4.7671,-8.6762,-3.5958,0.47037,0.051924,1.153,17.88,35.28,76.32
4.6445,-8.5944,-3.6775,0.35247,0.12645,0.89706,18.6,35.58,75.84
4.5492,-8.0088,-3.6639,0.27306,0.27061,0.65332,19.86,35.94,75.06
4.6309,-8.3357,-3.4323,0.28711,0.34086,0.2926,20.34,36.12,74.76
5.2983,-10.106,-3.6775,0.32223,0.29474,0.20067,20.82,36.36,74.4
5.7342,-11.4,-3.9363,0.25351,0.1631,0.021686,21.48,36.96,73.8
5.7342,-11.4,-3.9363,-0.051007,-0.067195,-0.24862,21.48,36.96,73.8
5.0395,-11.782,-2.8603,-0.17165,-0.020464,-0.47922,22.14,37.32,73.32
4.9306,-12.667,-2.9556,-0.13011,0.18479,-0.70524,22.44,37.62,73.2
5.6252,-13.934,-4.2087,-0.21716,0.37782,-1.0015,22.92,38.22,72.72
5.5707,-13.048,-4.2632,-0.6072,0.30971,-1.2288,22.86,38.52,72.78
5.3528,-11.373,-3.4187,-0.59682,0.088881,-1.4542,22.86,38.82,72.78
5.8023,-12.367,-2.3427,-0.51465,-0.094684,-1.5443,22.74,39.18,72.84
6.279,-13.974,-2.2746,-0.45387,-1.003,-1.6988,22.2,40.02,72.9
6.4152,-15.391,-2.2065,-0.61636,-1.6396,-1.7721,21.66,40.32,73.26
4.9033,-14.383,-1.5119,-0.94134,-2.1038,-1.9383,20.4,41.28,73.8
4.3313,-13.634,-1.2531,-1.1787,-2.0058,-2.1435,19.68,41.64,74.34
3.3915,-12.19,-1.2939,-1.2425,-1.8714,-2.2849,18.96,42.0,74.76
2.3018,-10.065,-0.89894,-1.3408,-1.1417,-2.5995,16.98,42.42,75.96
2.0703,-9.221,-0.50395,-1.3424,-0.43891,-2.8558,15.72,42.42,76.86
2.0022,-8.6353,-0.49033,-1.2856,0.1799,-3.0048,14.46,42.36,77.76
2.5742,-7.6819,-0.76274,-1.2477,0.69303,-3.0284,11.28,42.18,79.5
2.7922,-7.4503,-0.68102,-1.077,0.85888,-2.9541,9.6,41.94,80.16
3.0782,-7.3414,-0.50395,-1.0269,0.80298,-2.8702,7.62,41.7,80.94
3.3097,-6.8919,-0.23155,-0.94867,0.53023,-2.6481,3.9,40.86,82.02
3.1327,-6.6331,-0.054481,-0.83047,-0.086743,-2.211,1.98,40.44,82.5
2.7922,-6.674,0.14982,-0.76633,-0.42425,-1.8793,0.12,39.9,82.92
2.5742,-6.6876,0.12258,-0.70738,-0.59132,-1.5244,-1.62,39.12,83.34
1.9341,-6.565,0.32689,-0.58765,-0.56383,-0.99815,-4.86,37.74,84.0
1.8251,-6.6059,0.27241,-0.48961,-0.3598,-0.61361,-6.36,36.78,84.42
1.7162,-6.8102,0.32689,-0.40989,-0.23274,-0.41172,-7.74,36.12,84.6
2.1656,-8.1177,-0.068102,-0.13378,0.10934,0.25443,-9.84,34.68,84.84
2.4925,-8.8668,-0.28603,0.04215,0.26909,0.67623,-10.8,34.08,84.78
2.547,-9.0575,-0.25879,0.21564,0.39309,1.0657,-11.58,33.48,84.78
2.8058,-10.311,-0.29965,0.49266,0.46792,1.6503,-12.6,32.7,84.72
3.0237,-11.4,-0.40861,0.62308,0.47892,2.1252,-12.78,32.34,84.6
3.3097,-11.931,-0.57205,0.67317,0.46304,2.3503,-12.96,32.04,84.6
3.7047,-10.801,-1.0215,0.81276,0.3488,2.7581,-13.08,31.92,84.66
3.732,-10.801,-1.3757,0.9725,0.19334,2.8475,-12.96,32.1,84.84
3.6366,-11.373,-1.6072,1.1014,0.016493,2.8784,-12.72,32.34,84.96
3.4868,-13.076,-1.757,1.1475,-0.10843,2.8747,-11.88,32.88,85.5
3.4187,-13.062,-1.6208,0.92454,0.034514,2.8729,-11.28,33.42,85.68
3.4459,-12.476,-1.5391,0.8262,0.17837,2.8836,-10.44,33.96,85.92
3.2416,-10.828,-1.58,0.54642,0.8378,2.8772,-8.46,35.28,86.04
3.1054,-9.7385,-1.7843,0.42883,1.3381,2.766,-7.38,35.94,85.98
3.2553,-8.5263,-1.8115,0.39492,1.7214,2.6258,-6.06,36.72,85.86
4.0589,-7.8589,-1.9341,0.44135,1.839,2.5061,-3.36,38.22,85.62
4.5356,-7.7364,-2.0839,0.53329,1.5421,2.3347,-2.04,39.0,85.68
4.9714,-7.9407,-2.2337,0.55192,1.3491,2.2926,-0.6,39.6,85.62
5.6933,-8.5263,-2.833,0.58704,0.63133,2.2458,2.46,41.04,85.56
5.8976,-8.6898,-3.1735,0.58613,0.15638,2.1463,4.14,41.52,85.32
5.9249,-8.826,-3.3234,0.5681,-0.18937,1.9694,5.64,42.12,85.14
5.4345,-8.7987,-3.337,0.52321,-0.35125,1.7236,8.64,43.08,84.18
5.3119,-8.7987,-3.514,0.4218,-0.23671,1.2541,10.08,43.56,83.76
5.1485,-8.6081,-3.6775,0.31154,-0.000305,0.86499,11.04,44.04,83.16
4.7263,-8.2267,-3.4868,0.24648,0.2868,0.44807,13.02,44.52,82.2
4.9714,-8.7715,-3.3778,0.22388,0.51221,0.10079,13.8,44.76,81.9
5.4618,-9.9429,-3.5413,0.14844,0.61392,-0.1854,14.52,44.94,81.54
5.7069,-11.128,-3.1599,0.020464,0.58704,-0.56016,15.84,45.24,81.12
5.9249,-11.673,-2.8603,-0.12004,0.50977,-0.78679,16.38,45.36,81.0
5.7069,-12.463,-2.9011,-0.16921,0.49999,-0.89706,16.74,45.48,80.82
5.6524,-13.321,-2.9829,-0.29383,0.53695,-1.1716,17.4,45.54,80.52
5.7614,-13.157,-3.1463,-0.4499,0.48655,-1.368,17.4,45.66,80.4
5.5435,-12.435,-2.7922,-0.51893,0.33598,-1.5773,17.28,45.78,80.4
5.8976,-12.667,-1.7843,-0.41966,0.0061087,-1.74,16.62,45.66,80.64
6.279,-14.247,-1.7298,-0.36744,-0.85643,-1.9148,15.96,45.66,80.76
6.279,-15.377,-1.866,-0.43402,-1.1796,-1.9768,15.48,45.54,81.0
5.3119,-14.315,-1.4574,-0.67745,-1.7837,-2.2526,14.04,45.42,81.42
4.5356,-13.579,-1.0079,-0.74403,-1.9578,-2.5039,13.38,45.12,81.72
4.0044,-12.994,-0.85808,-0.7871,-1.9199,-2.7275,12.66,44.88,82.02
3.0646,-11.319,-0.77636,-0.87537,-1.7798,-2.9963,10.98,44.04,83.04
2.7377,-10.569,-0.76274,-0.89767,-1.3803,-3.27,9.96,43.56,83.34
2.0975,-9.5479,-0.28603,-0.96608,-1.0186,-3.4257,7.92,42.48,84.66
1.9205,-9.0575,-0.35413,-0.98624,-0.51404,-3.4853,6.66,41.94,85.2
1.9613,-8.9213,-0.44947,-0.99449,-0.051313,-3.4621,5.46,41.22,85.8
2.2201,-8.4582,-0.36775,-0.95387,0.29413,-3.3634,2.88,39.84,86.52
2.3155,-8.1995,-0.35413,-0.91752,0.48686,-3.2266,1.44,39.12,86.82
2.4789,-7.6546,-0.095342,-0.85674,0.45479,-2.875,0.12,38.46,87.06
2.3699,-7.1234,0.054481,-0.81612,0.35949,-2.7342,-2.7,36.66,87.36
2.2201,-6.7693,0.19068,-0.76175,0.17623,-2.375,-3.96,35.82,87.6
2.0839,-6.5786,0.28603,-0.64446,-0.015272,-1.7196,-5.28,35.04,87.66
1.7979,-6.1836,0.36775,-0.51985,-0.029627,-1.23,-7.74,33.54,87.6
1.6481,-5.9657,0.34051,-0.37904,-0.016188,-0.67195,-9.0,32.7,87.42
2.0158,-6.3198,0.21793,-0.1628,0.049175,-0.055589,-10.92,31.14,86.94
2.3155,-6.8102,-0.095342,0.208,0.085521,0.83658,-11.76,30.48,86.52
2.5198,-7.355,-0.35413,0.46914,0.010079,1.3454,-12.3,29.94,86.28
2.6423,-7.9679,-0.44947,0.7083,-0.10904,1.7556,-12.78,29.64,85.98
2.8467,-9.7113,-0.50395,0.91783,-0.23243,2.1683,-13.56,28.86,85.44
3.1191,-11.155,-0.7355,1.055,-0.32681,2.6325,-13.62,28.8,85.32
3.5277,-11.972,-0.98067,1.0989,-0.39401,3.0271,-13.68,28.68,85.26
3.5958,-12.04,-1.0351,1.1173,-0.39737,3.3323,-13.2,29.22,85.2
3.6911,-12.531,-1.3212,1.1365,-0.34789,3.4294,-13.08,29.46,85.26
3.8818,-13.539,-1.471,1.1249,-0.2645,3.4184,-12.72,29.76,85.32
3.909,-14.492,-1.5119,1.0171,-0.1237,3.3158,-12.12,30.36,85.62
3.7184,-14.383,-1.4574,0.87048,0.14905,3.1545,-10.2,31.74,86.04
3.7456,-13.266,-1.5391,0.71319,0.54153,2.9902,-9.0,32.52,86.46
3.7047,-10.42,-2.0022,0.58979,0.96608,2.7669,-6.36,34.32,86.82
3.6775,-9.1256,-2.0431,0.51038,1.2996,2.4783,-4.92,35.16,86.94
3.7592,-8.4446,-1.9205,0.51313,1.4465,2.1875,-3.54,35.82,87.0
3.9908,-7.464,-1.6617,0.54214,1.3467,1.908,-0.42,37.5,87.0
4.4947,-7.3414,-1.9205,0.55283,1.1646,1.8164,1.26,38.22,86.94
4.7944,-7.3822,-2.2201,0.57055,0.82467,1.7532,2.76,38.88,86.82
5.1076,-7.7364,-2.5334,0.52382,0.30818,1.737,5.58,39.96,86.88
5.1076,-7.7364,-2.5334,0.50549,0.18173,1.7211,5.58,39.96,86.88
5.1757,-8.4991,-3.0237,0.46487,0.0036652,1.605,7.14,40.62,86.76
5.1894,-8.7034,-3.1463,0.36469,0.032987,1.4667,8.7,41.22,86.46
5.203,-8.5536,-3.6366,0.24679,0.13989,1.2398,11.34,42.0,85.56
5.2302,-7.9951,-3.4459,0.14142,0.2813,0.92607,13.08,42.66,84.72
5.2166,-8.6762,-3.228,0.1237,0.39309,0.56536,13.86,42.84,84.3
5.5843,-9.6977,-3.2689,0.13317,0.40806,0.043066,15.3,43.38,83.64
6.0338,-11.06,-3.0237,0.037263,0.3543,-0.29047,16.44,43.86,83.34
6.0202,-12.095,-2.9011,-0.08827,0.29169,-0.59804,17.4,43.92,83.28
5.7069,-12.503,-2.9148,-0.20311,0.2813,-0.86834,18.18,44.04,83.16
5.2575,-12.667,-2.8058,-0.2923,0.37751,-1.1246,18.72,44.1,82.74
5.4073,-13.035,-2.9829,-0.3372,0.53176,-1.3442,18.36,44.1,82.86
5.6524,-12.572,-3.2553,-0.38087,0.55192,-1.5229,17.88,44.04,83.16
5.7069,-11.768,-2.8058,-0.51649,0.27764,-1.8228,17.4,44.04,83.22
6.1564,-12.217,-1.8932,-0.39248,-0.11729,-1.9367,16.32,43.8,83.46
6.9191,-14.015,-1.7298,-0.27275,-0.78771,-2.0033,14.94,43.44,83.76
7.1234,-15.214,-1.8932,-0.35888,-1.6292,-2.069,13.62,43.02,84.06
7.1234,-15.214,-1.8932,-0.35888,-1.6292,-2.069,13.62,43.02,84.06
4.9033,-13.511,-0.76274,-0.72754,-2.7871,-2.4511,12.24,42.66,84.72
3.7047,-12.572,-0.57205,-0.80726,-2.8191,-2.5873,11.58,42.36,85.08
2.8603,-11.346,-0.31327,-0.95387,-2.7077,-2.7981,10.74,42.06,85.68
2.3972,-10.61,-0.17706,-1.0458,-1.8805,-3.1615,9.78,41.64,86.1
1.6344,-9.6023,-0.50395,-1.0913,-1.0696,-3.2926,8.04,40.62,87.24
1.9477,-9.1529,-0.84446,-1.102,-0.30329,-3.3213,7.08,40.02,87.78
2.5061,-8.1177,-0.50395,-1.0803,0.25504,-3.2834,4.86,39.0,88.56
2.7377,-7.8181,-0.31327,-1.0171,0.59254,-3.1881,3.48,38.4,88.92
2.8739,-7.641,-0.23155,-0.93646,0.54611,-2.9682,2.16,37.86,89.1
2.8603,-6.9328,0.17706,-0.87568,0.19212,-2.7306,-0.42,36.66,89.46
2.7649,-6.7012,0.081722,-0.81428,-0.12034,-2.4254,-1.74,36.0,89.46
2.3291,-6.5378,0.054481,-0.75472,-0.3317,-2.0977,-4.14,34.44,89.52
2.0567,-6.5378,0.081722,-0.63377,-0.42058,-1.5311,-5.22,33.66,89.34
1.9068,-6.4424,0.16344,-0.58063,-0.40103,-1.3354,-6.18,32.82,89.34
1.5527,-6.3198,0.21793,-0.38882,-0.18509,-0.65973,-7.2,31.92,89.1
1.6753,-6.7966,0.068102,-0.21197,0.030849,-0.13134,-9.0,30.72,88.86
2.0703,-7.5593,-0.19068,0.028711,0.21991,0.41936,-9.72,30.12,88.56
2.3836,-8.2539,-0.53119,0.26084,0.35858,0.99143,-10.32,29.52,88.2
2.6968,-9.5342,-0.65378,0.60201,0.40012,1.7709,-10.92,28.5,87.84
2.8058,-10.447,-0.69464,0.79932,0.31551,2.2672,-10.86,28.08,87.72
2.9965,-11.223,-0.84446,0.88026,0.26664,2.5268,-10.86,27.78,87.6
3.4732,-11.305,-0.99429,0.93096,0.14844,3.0785,-10.86,27.66,87.24
3.3097,-10.815,-1.1169,0.97525,0.13347,3.2309,-10.86,27.78,87.18
3.1872,-11.223,-1.4301,1.0495,0.1463,3.3243,-10.74,28.08,87.18
3.4732,-13.307,-1.6889,1.0382,0.2248,3.4132,-10.32,28.5,87.3
3.5685,-13.961,-1.5391,0.92057,0.35033,3.4471,-10.08,28.98,87.3
3.7865,-13.988,-1.4574,0.77336,0.55803,3.4749,-9.42,29.58,87.48
4.0725,-13.035,-1.4574,0.63316,0.81459,3.4602,-7.56,31.02,87.48
4.0861,-11.618,-1.6753,0.52931,1.0754,3.3469,-6.36,31.8,87.72
4.127,-10.474,-1.7298,0.47464,1.3033,3.1557,-5.16,32.52,87.84
4.4402,-8.6762,-1.6889,0.50702,1.2456,2.7461,-2.58,34.08,87.6
4.4402,-8.1722,-1.5391,0.53084,1.15,2.6328,-1.32,34.92,87.6
4.4811,-8.0905,-1.471,0.59773,0.95417,2.4444,0.18,35.64,87.66
4.8625,-8.2403,-1.5255,0.66859,0.68295,2.1909,1.74,36.24,87.9
5.4073,-9.0712,-2.4653,0.71288,0.45265,2.0583,4.98,37.32,87.78
5.4754,-9.1937,-2.6968,0.67378,0.23274,1.927,6.6,37.98,87.48
5.5707,-9.2618,-2.8194,0.58704,0.048564,1.6402,8.16,38.7,87.12
5.3256,-8.5536,-3.2553,0.55864,0.041539,1.5177,11.28,39.66,86.58
5.0668,-8.1858,-3.3097,0.49052,0.12187,1.2553,12.66,40.02,86.16
5.0531,-7.9951,-3.4051,0.41722,0.31826,0.79077,13.8,40.32,85.68
5.2302,-8.3765,-3.514,0.3879,0.38485,0.44776,15.48,40.86,84.78
5.5571,-9.1665,-3.5685,0.354,0.35675,0.14844,16.2,41.16,84.36
5.8976,-10.529,-3.5685,0.24068,0.28497,-0.14142,17.46,41.58,83.82
5.7614,-11.046,-3.3506,0.024129,0.22969,-0.55039,18.06,41.7,83.52
5.7205,-11.618,-3.0646,-0.067501,0.24129,-0.8152,18.36,41.7,83.16
5.6252,-12.599,-3.0646,-0.11332,0.26053,-0.94867,18.54,41.94,82.8
5.6116,-13.171,-3.0101,-0.29444,0.31796,-1.3399,18.78,42.0,82.5
5.598,-12.531,-3.5822,-0.4835,0.27092,-1.6069,18.66,42.24,82.38
5.38,-11.618,-2.8875,-0.5736,0.0012217,-2.0061,18.48,42.24,82.5
5.7614,-13.579,-2.0158,-0.43646,-0.17379,-2.0953,17.7,42.24,82.5
6.2245,-15.418,-2.0567,-0.32956,-0.67104,-2.237,17.1,42.24,82.56
6.3471,-16.385,-2.1656,-0.46914,-1.2541,-2.3631,16.68,42.18,82.68
4.9442,-14.833,-1.3893,-1.014,-1.7028,-2.6304,15.06,41.94,82.92
4.1542,-13.702,-0.83084,-1.0629,-1.7944,-2.8778,14.28,41.76,83.16
3.6639,-13.13,-0.83084,-1.1084,-1.7202,-3.1472,12.42,41.04,83.7
2.6423,-11.278,-0.83084,-1.0983,-1.6435,-3.2959,11.46,40.56,84.24
2.6151,-10.883,-0.6674,-1.0647,-1.3888,-3.4022,10.32,40.14,84.78
2.2882,-10.351,-0.61292,-1.0553,-1.2251,-3.474,9.3,39.66,85.38
2.0022,-9.2482,-0.51757,-1.0415,-0.56658,-3.4037,6.72,38.22,86.46
2.0567,-8.3901,-0.40861,-1.051,-0.090103,-3.2913,5.16,37.56,86.94
2.0567,-7.6683,-0.38137,-0.98227,0.31765,-3.0439,2.16,36.0,87.6
2.3427,-7.4231,-0.24517,-0.92913,0.33842,-2.8335,0.54,35.22,87.78
2.5742,-7.3005,-0.1362,-0.91019,0.27336,-2.6909,-0.9,34.62,87.9
2.4925,-7.0553,0.027241,-0.88056,0.034208,-2.427,-2.46,33.72,88.02
2.2882,-6.3607,0.21793,-0.81917,-0.23182,-1.9077,-5.1,31.92,88.38
2.0975,-6.279,0.31327,-0.74495,-0.3146,-1.4798,-6.42,30.96,88.38
1.9341,-6.6604,0.17706,-0.63499,-0.29841,-1.055,-7.5,30.12,88.5
2.0158,-7.3822,0.095342,-0.4328,-0.19578,-0.34331,-9.6,28.44,88.44
2.1248,-7.5729,0.054481,-0.2532,-0.09499,0.17776,-10.38,27.66,88.26
2.2746,-7.7364,0.054481,-0.14172,-0.046426,0.42547,-11.04,26.7,88.26
2.4108,-8.2267,-0.21793,0.19761,0.11729,1.1124,-12.0,25.5,88.08
2.5606,-9.0848,-0.31327,0.44593,0.16829,1.5275,-12.12,25.02,87.9
2.7513,-10.079,-0.35413,0.65149,0.18601,1.9566,-12.18,24.54,87.9
3.3778,-11.713,-0.53119,0.81215,0.19426,2.4196,-12.06,24.18,87.96
3.5685,-11.291,-0.58567,0.87018,0.1686,2.7755,-12.0,24.0,88.2
3.514,-10.597,-0.7355,0.96639,0.097738,2.967,-12.0,24.0,88.26
3.5413,-11.414,-1.1305,1.1661,-0.026878,3.1017,-11.52,24.3,88.56
3.5822,-12.435,-1.2258,1.248,-0.055894,3.1649,-11.28,24.6,88.8
3.7047,-13.171,-1.3757,1.2233,-0.054978,3.197,-10.86,24.9,88.98
3.7728,-13.089,-1.2531,1.0803,0.12156,3.2345,-9.6,26.1,89.46
3.8137,-12.544,-1.2258,0.9499,0.38179,3.1927,-8.88,26.76,89.7
3.7047,-11.496,-1.471,0.87445,0.53878,3.1429,-8.04,27.66,89.94
3.5413,-9.6977,-1.757,0.77733,1.0479,2.9034,-5.76,29.34,90.06
3.7865,-8.826,-1.866,0.78435,1.2095,2.6738,-4.62,30.18,90.12
3.9771,-8.2948,-1.866,0.80329,1.2355,2.4978,-3.42,31.08,90.06
4.6582,-8.431,-2.1929,0.8995,1.0757,2.3115,-0.96,32.58,89.88
5.2166,-9.0031,-2.6832,0.93798,0.73762,2.2272,0.3,33.3,89.58
5.6797,-9.4798,-3.0918,0.89217,0.31337,2.1295,1.74,34.08,89.46
6.0747,-9.8066,-3.6639,0.8152,-0.069028,1.9826,4.56,35.58,88.74
5.8431,-9.5615,-4.0316,0.71593,-0.31521,1.7627,6.0,36.3,88.32
5.3528,-9.1937,-4.0589,0.6072,-0.35797,1.4774,7.08,37.08,87.96
4.7263,-8.1858,-4.127,0.47128,-0.18937,1.1555,9.48,38.34,86.94
4.5356,-8.0496,-4.0316,0.31276,0.20617,0.5849,10.56,38.88,86.4
4.5492,-8.3493,-3.9227,0.24435,0.41142,0.22999,11.52,39.3,85.68
5.1076,-9.5342,-4.1133,0.14142,0.49388,-0.04612,12.9,40.08,84.9
5.4073,-10.351,-3.9499,-0.037263,0.48686,-0.30604,13.5,40.38,84.48
5.4754,-10.869,-3.3778,-0.20892,0.44807,-0.52565,14.04,40.68,84.12
5.2438,-12.095,-2.6423,-0.34392,0.46365,-0.84086,14.82,41.22,83.82
5.3119,-12.871,-2.7649,-0.38546,0.53298,-1.054,15.18,41.46,83.7
5.4073,-13.348,-2.9284,-0.42302,0.55711,-1.142,15.48,41.4,83.64
5.7069,-13.225,-3.4459,-0.56444,0.50793,-1.3271,15.6,41.4,83.94
5.2575,-11.237,-2.438,-0.74739,0.2529,-1.6875,15.54,41.28,84.06
5.38,-11.387,-1.6208,-0.56352,-0.058948,-1.9068,15.42,41.22,84.24
5.8295,-12.79,-1.4438,-0.3769,-0.59162,-2.0412,15.12,41.16,84.36
6.6195,-15.05,-1.866,-0.40103,-1.7419,-2.1389,14.22,40.5,85.08
6.1836,-15.146,-1.4846,-0.64843,-2.3802,-2.2339,13.68,40.32,85.5
5.6933,-14.764,-1.2258,-0.74923,-2.6209,-2.314,13.2,40.02,85.92
3.8954,-13.579,-0.61292,-0.91813,-2.7947,-2.5378,12.48,39.24,86.94
2.8194,-12.667,-0.43585,-1.1399,-2.6197,-2.8143,11.94,38.7,87.6
1.9341,-11.509,-0.31327,-1.2886,-2.0339,-2.9315,11.64,38.16,88.26
1.1441,-9.8066,-0.32689,-1.4203,-0.64507,-3.3112,10.62,36.96,89.46
1.0624,-9.2346,-0.50395,-1.4389,-0.19426,-3.3457,9.9,36.54,90.18
1.5255,-8.7443,-0.54481,-1.4264,0.63438,-3.3973,9.18,36.12,90.54
2.0022,-7.8998,-0.17706,-1.3118,1.3653,-3.3637,7.32,35.1,91.56
2.4789,-7.5321,-0.1362,-1.2107,1.514,-3.2522,6.24,34.38,91.68
2.942,-7.4231,-0.10896,-1.0806,1.2773,-3.0736,5.28,33.06,91.92
2.9965,-7.355,0.12258,-0.89614,0.45632,-2.6588,3.12,32.52,91.8
2.7241,-7.0962,0.17706,-0.85246,0.19975,-2.456,2.16,31.8,91.86
2.6015,-7.0826,0.19068,-0.75411,-0.18265,-1.9777,1.08,31.02,91.8
2.2474,-6.9328,0.28603,-0.59987,-0.44349,-1.27,1.08,30.3,91.68
1.7706,-6.8374,0.38137,-0.43433,-0.45387,-0.74587,-2.04,28.98,91.38
1.7025,-7.0826,0.040861,-0.22602,-0.35522,-0.19028,-3.06,28.5,91.08
1.8932,-7.2188,-0.24517,0.018326,-0.20006,0.35369,-3.9,28.02,90.84
2.1929,-8.0905,-0.57205,0.3036,-0.054672,0.88637,-5.4,27.0,90.06
2.3018,-8.9077,-0.61292,0.68417,0.10201,1.6808,-6.0,26.58,89.76
2.4517,-9.6704,-0.70826,0.79718,0.1292,1.9639,-6.3,26.34,89.4
3.5685,-11.25,-0.89894,0.98563,0.070555,2.7846,-6.54,26.1,88.92
3.7184,-10.42,-1.1032,1.0305,-0.075442,3.0788,-6.72,26.16,88.74
3.5549,-10.311,-1.6072,1.1518,-0.25137,3.2208,-6.48,26.4,88.92
3.3915,-11.482,-1.6344,1.3201,-0.49358,3.2837,-6.42,26.7,88.92
3.3506,-13.443,-1.58,1.2953,-0.49877,3.2981,-6.0,27.18,89.16
3.3506,-13.974,-1.471,1.0993,-0.3375,3.291,-5.52,27.78,89.4
3.5277,-13.402,-1.3757,0.87842,0.043982,3.2822,-3.78,28.92,89.76
3.5277,-12.503,-1.471,0.66951,0.55405,3.2235,-2.76,29.4,90.06
3.5822,-11.427,-1.7025,0.5452,1.0892,3.0485,-1.62,30.06,90.3
3.5413,-9.1393,-1.9205,0.49175,1.627,2.6759,1.02,31.38,90.72
3.909,-8.5672,-1.7434,0.51313,1.6634,2.3986,2.4,31.92,90.84
4.1951,-7.9679,-1.5255,0.53939,1.5876,2.1982,3.72,32.52,91.08
4.4402,-7.8045,-1.4574,0.58735,1.4264,2.022,5.28,33.06,91.26
5.3256,-8.1041,-2.3155,0.66371,1.0999,1.9032,8.1,34.08,91.56
5.489,-8.3493,-2.6287,0.7086,0.6411,1.8332,9.6,34.32,91.56
5.5435,-8.8396,-2.8058,0.72235,0.21075,1.7535,10.98,34.86,91.62
5.598,-9.3027,-3.4323,0.71838,-0.11148,1.6579,13.74,35.46,91.26
5.4209,-9.0439,-3.8818,0.65424,-0.30971,1.5156,15.0,35.76,90.84
5.2166,-8.6217,-4.127,0.51862,-0.34941,1.2049,16.08,36.12,90.6
4.9033,-8.5127,-4.0452,0.44227,-0.24771,0.92546,17.82,36.72,89.88
4.9714,-8.9213,-4.0452,0.3934,-0.1237,0.6185,18.54,36.96,89.52
5.2847,-10.229,-4.0452,0.31093,-0.011912,0.3207,19.2,37.2,89.1
5.5435,-11.523,-3.8682,0.12828,0.10385,0.009163,20.4,37.38,88.44
5.2847,-11.673,-3.3506,-0.24893,0.34972,-0.49327,21.0,37.38,88.2
5.1213,-11.741,-3.0782,-0.34636,0.60079,-0.83963,21.3,37.44,88.02
5.0531,-12.381,-3.0918,-0.40103,0.85399,-1.1787,22.14,37.38,87.84
5.3119,-12.776,-3.4323,-0.43463,0.97677,-1.4276,22.2,37.62,87.78
5.5299,-12.286,-3.7456,-0.62705,0.76816,-1.7681,22.38,37.62,87.6
5.5571,-11.182,-3.3097,-0.66951,0.6182,-1.8787,22.38,37.68,87.66
5.8704,-11.836,-1.7298,-0.55619,0.20922,-2.0293,22.32,37.74,87.84
6.1019,-13.402,-1.5663,-0.34422,-0.77672,-2.105,21.48,37.56,87.96
6.17,-14.547,-1.7025,-0.39676,-1.5388,-2.1108,20.94,37.44,88.08
5.2575,-14.506,-1.4846,-0.66584,-2.1246,-2.1622,19.68,37.08,87.96
4.6445,-13.607,-1.2531,-0.85857,-2.4627,-2.295,19.2,36.78,88.02
3.4187,-12.163,-1.1032,-0.86682,-2.438,-2.332,18.54,36.54,88.2
2.656,-10.924,-0.88532,-0.98471,-2.266,-2.518,17.22,36.12,88.5
1.9341,-9.8748,-0.5993,-1.08,-1.879,-2.6594,16.56,35.7,88.68
1.7706,-9.5479,-0.50395,-1.1884,-0.79565,-2.9108,15.72,35.58,88.68
1.8115,-8.9213,-0.32689,-1.2559,-0.079412,-3.0116,13.98,34.92,88.86
1.8115,-8.4582,-0.28603,-1.2242,0.59743,-3.0522,12.96,34.5,88.98
2.3836,-8.0632,-0.25879,-1.2007,0.74556,-3.0256,10.8,33.9,88.5
2.6832,-7.927,-0.19068,-1.084,0.80695,-2.8671,9.72,33.48,88.2
2.8603,-7.6683,-0.1362,-0.97066,0.57238,-2.646,8.64,33.18,87.96
2.8603,-7.2188,-0.12258,-0.81581,0.3262,-2.3259,6.66,32.4,87.54
2.6968,-7.0145,-0.081722,-0.69608,0.067501,-1.9826,5.64,31.92,87.24
2.5061,-6.8102,0.054481,-0.54856,-0.20647,-1.4416,4.5,31.56,86.94
2.1248,-6.7421,-0.054481,-0.38057,-0.27947,-1.2517,2.16,30.96,86.22
2.0703,-6.9872,-0.081722,-0.13806,-0.32345,-0.61056,1.2,30.6,85.92
2.0567,-7.1915,-0.25879,0.033903,-0.28039,-0.14325,0.12,30.42,85.56
2.0975,-7.9134,-0.42223,0.18357,-0.19731,0.31796,-1.56,29.52,84.9
2.1112,-8.3357,-0.54481,0.33323,-0.062003,0.77824,-2.16,29.28,84.6
2.3155,-9.8748,-0.6674,0.44899,0.10568,1.244,-2.94,28.86,84.18
2.6832,-10.964,-0.65378,0.56841,0.34117,1.9786,-3.12,28.86,83.94
2.9829,-11.836,-0.68102,0.56139,0.48839,2.448,-3.12,28.8,83.82
3.3506,-11.482,-0.85808,0.56444,0.59071,2.7297,-3.18,28.8,83.64
3.4732,-10.815,-1.2531,0.63713,0.6014,2.8527,-3.3,29.16,83.76
3.4732,-11.21,-1.4301,0.71105,0.56139,2.8735,-3.42,29.4,83.7
3.4187,-12.885,-1.2122,0.76511,0.53909,2.8698,-3.18,29.94,83.88
3.6094,-12.994,-1.1986,0.66371,0.63072,2.8793,-2.88,30.3,84.0
3.6775,-12.612,-1.0215,0.5791,0.76847,2.963,-2.4,30.6,84.18
3.909,-11.931,-1.1577,0.53481,0.84116,2.9972,-1.68,30.96,84.24
3.9771,-9.8203,-1.6344,0.48869,0.99999,2.9899,0.18,31.8,84.42
3.8137,-8.7715,-1.7298,0.51557,1.0742,2.9215,0.96,32.34,84.42
3.8273,-8.1858,-1.5527,0.56627,1.1301,2.857,2.1,32.82,84.48
4.2904,-7.9679,-1.2667,0.61545,1.0443,2.7639,4.38,33.54,84.6
4.6445,-8.1177,-1.4165,0.66829,0.87659,2.7077,5.58,33.9,84.6
4.9578,-8.3765,-1.8387,0.7422,0.59193,2.6704,6.78,34.2,84.66
5.9657,-9.8339,-2.7922,0.80207,0.22846,2.6417,9.48,34.62,84.18
6.3743,-10.365,-3.1327,0.79626,-0.13928,2.5476,11.04,35.04,84.0
6.4288,-10.542,-3.7592,0.7251,-0.38271,2.3647,12.54,35.22,83.76
6.3743,-9.8339,-3.9635,0.59468,-0.49999,1.8466,15.42,35.46,83.22
5.8295,-8.7987,-4.0861,0.48655,-0.44288,1.3708,16.74,35.76,82.74
5.4618,-8.3493,-4.0044,0.4496,-0.37782,1.1102,18.0,36.06,82.5
4.9442,-8.1177,-3.7728,0.44502,-0.054062,0.34819,19.08,36.3,82.02
5.2847,-10.188,-4.0452,0.39706,0.16585,-0.035125,21.24,36.72,81.06
5.6116,-11.06,-3.9771,0.15547,0.31429,-0.37324,22.02,36.78,80.76
5.5162,-11.536,-2.9284,-0.11759,0.44166,-0.67653,22.8,36.96,80.58
5.4618,-12.122,-2.8058,-0.25809,0.58399,-0.94043,23.88,37.2,79.86
5.6116,-13.089,-2.9556,-0.35003,0.71807,-1.2865,24.3,37.44,79.68
5.7342,-13.334,-3.1872,-0.51191,0.69425,-1.522,24.66,37.8,79.74
5.598,-11.455,-3.0646,-0.697,0.50793,-1.7733,25.02,38.28,79.5
5.5707,-11.128,-2.261,-0.62461,0.21686,-2.0174,25.08,38.7,79.5
5.7342,-13.212,-1.4165,-0.41722,-0.27764,-2.2019,24.36,39.24,79.56
6.1564,-15.418,-1.58,-0.31276,-1.2452,-2.3692,23.7,39.54,79.68
5.8023,-16.004,-1.6208,-0.64691,-1.7483,-2.4932,22.98,39.96,79.8
5.1213,-15.214,-1.185,-0.89614,-1.9542,-2.6722,22.14,40.38,79.98
4.4266,-13.879,-0.8717,-0.95539,-2.0247,-2.8194,21.36,40.56,80.28
3.3234,-11.891,-0.8036,-0.97372,-1.9493,-2.9373,19.14,41.04,81.12
2.656,-10.774,-0.68102,-1.0058,-1.7843,-3.1298,17.94,41.16,81.54
1.9477,-9.5887,-0.17706,-1.0146,-1.372,-3.2125,15.24,41.16,82.86
1.7979,-9.0439,-0.24517,-1.0815,-0.44349,-3.3472,13.74,40.98,83.52
1.8524,-8.6353,-0.19068,-1.0843,-0.18326,-3.3604,11.94,40.8,84.24
2.152,-8.2131,-0.28603,-1.036,0.31551,-3.3005,8.34,40.14,85.38
2.4653,-8.2676,-0.23155,-1.0131,0.43616,-3.1634,6.42,39.84,85.86
2.7241,-8.1041,-0.1362,-0.96792,0.22969,-2.8457,2.88,38.88,86.52
2.6696,-7.5729,0.027241,-0.90836,0.0048869,-2.4841,1.14,38.34,86.82
2.5742,-7.641,0.01362,-0.84788,-0.18082,-2.0809,-0.54,37.38,87.18
2.4517,-7.6683,0.081722,-0.80543,-0.27642,-1.6768,-2.22,36.48,87.6
2.152,-7.4095,0.24517,-0.71899,-0.30085,-1.2584,-5.34,34.74,88.08
2.0158,-7.1915,0.31327,-0.59651,-0.25504,-0.82131,-6.6,33.9,88.32
1.8932,-7.2869,0.24517,-0.42241,-0.10171,-0.14661,-8.88,32.28,88.5
2.2065,-7.7636,-0.14982,-0.084299,-0.028405,0.30818,-9.9,31.68,88.56
2.438,-8.2812,-0.17706,0.020159,-0.0012217,0.53542,-10.8,31.02,88.5
2.4789,-8.6081,-0.19068,0.25259,0.052229,0.97341,-11.34,30.36,88.32
2.8603,-9.6432,-0.31327,0.58918,0.060476,1.6105,-12.18,29.28,88.26
3.0918,-10.529,-0.42223,0.79199,0.0012217,2.0632,-12.36,28.8,88.38
3.4732,-10.746,-0.70826,0.93493,-0.092241,2.4502,-12.36,28.56,88.5
3.4868,-10.215,-1.0896,1.1081,-0.28833,2.7492,-12.3,28.38,88.56
3.4187,-10.842,-1.3757,1.2156,-0.37477,2.8497,-12.18,28.68,88.5
3.4596,-11.455,-1.362,1.2373,-0.37904,2.9291,-12.0,29.04,88.5
3.4323,-13.28,-1.1169,1.1787,-0.24984,2.9719,-11.1,29.88,88.74
3.3097,-13.416,-1.1577,0.99479,0.01741,3.01,-10.62,30.42,88.8
3.514,-12.721,-1.0624,0.82497,0.39584,3.0232,-9.96,31.02,88.8
3.5685,-11.032,-1.5391,0.67531,0.97983,2.9004,-7.86,32.22,89.04
3.5413,-9.5342,-1.9477,0.66737,1.2712,2.7263,-6.54,32.94,89.1
3.6366,-8.8941,-2.0839,0.70891,1.3696,2.5516,-5.4,33.66,89.1
4.0316,-7.7091,-2.261,0.76328,1.2804,2.3992,-2.7,35.34,89.04
4.3858,-7.641,-2.2065,0.78343,1.1047,2.2776,-1.38,36.3,88.86
4.6582,-7.8317,-2.3972,0.8207,0.83169,2.2019,-0.06,37.08,88.74
5.1894,-8.9077,-2.7377,0.82436,0.36927,2.1881,2.64,38.64,88.56
5.4481,-9.3572,-3.0101,0.76664,0.089186,2.1683,4.14,39.24,88.5
5.5162,-9.6432,-3.1463,0.67653,-0.1066,2.0928,5.58,39.84,88.2
5.4073,-9.7249,-3.6911,0.56627,-0.14691,1.9227,8.7,40.98,87.6
5.3119,-9.5615,-3.9771,0.4667,-0.047647,1.6594,10.02,41.46,87.12
5.203,-9.1529,-4.2495,0.3372,0.11454,1.3112,11.28,41.94,86.7
4.9306,-8.7034,-3.8137,0.24954,0.27336,0.66309,13.26,42.84,85.8
5.0531,-9.6977,-3.5685,0.22541,0.51862,0.26573,14.04,43.26,85.26
5.1485,-10.311,-3.4596,0.13195,0.66645,-0.083689,15.0,43.62,84.9
5.38,-11.141,-3.4732,-0.033903,0.77763,-0.39187,15.84,43.86,84.48
5.5571,-12.027,-3.1872,-0.1854,0.85185,-0.6463,17.04,44.16,83.82
5.6388,-12.422,-3.1191,-0.24343,0.89064,-0.88026,17.58,44.22,83.52
6.17,-13.293,-3.8546,-0.35858,0.74739,-1.1887,18.48,44.28,82.86
5.8976,-12.013,-3.7592,-0.49816,0.61972,-1.281,18.72,44.4,82.68
5.5026,-10.556,-2.6696,-0.60934,0.19548,-1.6353,18.84,44.46,82.56
5.4481,-10.787,-2.2337,-0.45723,-0.18448,-1.8247,18.72,44.4,82.44
5.6933,-13.416,-1.6753,-0.40836,-0.6918,-1.9783,18.12,44.64,82.38
5.7069,-14.342,-1.6072,-0.47342,-1.2431,-2.1057,17.64,44.64,82.26
5.4481,-14.492,-1.471,-0.68661,-1.6429,-2.2159,17.22,44.4,82.38
4.3313,-13.116,-1.2803,-0.90072,-1.8732,-2.3396,16.02,44.4,82.44
3.9227,-12.626,-1.4165,-0.95142,-1.9309,-2.4496,15.42,44.28,82.56
3.1872,-12.0,-1.5119,-0.98869,-1.8375,-2.624,14.58,44.04,82.86
2.547,-10.243,-0.72188,-1.1124,-1.3463,-2.9273,12.84,43.44,83.46
2.0839,-9.4253,-0.19068,-1.1463,-0.78221,-3.0113,11.88,43.14,83.94
2.0567,-8.9077,-0.20431,-1.1875,-0.18357,-3.1731,9.36,42.42,84.84
2.3563,-8.717,-0.36775,-1.1515,0.24526,-3.2437,7.92,41.94,85.08
2.5334,-8.5808,-0.35413,-1.1222,0.39981,-3.1747,6.36,41.4,85.56
2.5742,-8.3901,-0.27241,-1.0855,0.42822,-3.0357,4.86,40.92,85.74
2.5742,-8.3901,-0.27241,-1.0159,0.30879,-2.8307,4.86,40.92,85.74
2.8603,-7.6683,-0.095342,-0.91783,0.11148,-2.5436,3.24,40.14,85.86
2.6696,-7.4776,0.01362,-0.82192,-0.065057,-2.0128,1.32,39.42,86.1
2.3972,-7.2188,0.19068,-0.71074,-0.17746,-1.8213,-0.3,38.58,86.34
2.3155,-7.069,0.19068,-0.50916,-0.25626,-1.2627,-3.72,36.78,86.82
2.1248,-7.0962,0.21793,-0.34056,-0.24771,-0.85063,-5.28,35.88,86.88
2.1929,-7.3277,0.095342,-0.13867,-0.20342,-0.416,-8.22,34.08,87.12
2.2882,-7.8317,-0.054481,0.065363,-0.14264,0.030238,-10.8,32.46,87.12
2.3291,-8.4446,-0.095342,0.2529,-0.035736,0.46701,-13.02,31.32,86.94
2.4517,-8.8941,-0.1362,0.45693,0.062919,0.88392,-14.28,29.88,86.88
2.5879,-9.7113,-0.39499,0.66706,0.1292,1.3137,-15.18,29.04,86.7
2.9556,-10.801,-0.64016,0.86407,0.18173,2.0482,-15.6,28.86,86.76
3.2689,-10.42,-1.0624,0.91905,0.18021,2.3888,-15.72,29.28,86.64
3.1735,-10.174,-1.0896,0.99143,0.16127,2.5974,-15.66,29.7,86.52
3.1191,-11.155,-1.2395,1.0492,0.14447,2.7327,-15.54,30.54,86.28
3.1191,-12.367,-1.1305,1.0528,0.17593,2.8347,-15.36,31.02,86.46
3.2144,-12.885,-1.1441,0.96883,0.30391,2.9267,-14.88,31.98,86.46
3.4732,-12.885,-1.1169,0.75533,0.66126,3.0519,-14.04,33.06,86.64
3.7047,-12.381,-1.3757,0.65973,0.94348,3.1285,-12.84,34.32,87.06
3.9499,-11.414,-1.6889,0.613,1.1674,3.1188,-10.92,35.76,87.24
3.9908,-9.9565,-1.9341,0.58277,1.3402,3.0299,-8.58,36.9,87.18
4.3858,-9.0712,-1.9341,0.67653,1.3412,2.9328,-6.24,38.1,87.0
4.5492,-8.8805,-1.9068,0.74159,1.1353,2.8188,-4.98,38.88,86.94
4.6445,-8.431,-1.6753,0.76694,0.81642,2.6707,-2.46,40.44,86.64
4.9306,-8.5263,-1.9886,0.89797,0.28039,2.5592,0.12,41.82,85.86
5.3119,-9.4117,-2.8603,0.9615,-0.04612,2.492,3.0,42.84,85.38
5.4345,-9.6841,-3.2825,0.92943,-0.31185,2.3937,5.52,44.04,84.12
5.489,-9.8748,-3.5413,0.82314,-0.46731,2.2559,6.6,44.64,83.58
5.3256,-9.7249,-3.8273,0.72632,-0.48197,2.0339,8.7,45.42,82.38
5.1213,-9.6023,-4.1542,0.53817,-0.27794,1.5788,10.8,46.26,81.72
4.9169,-9.1393,-4.2495,0.35858,-0.058032,1.1887,12.78,46.98,80.94
4.8761,-8.9894,-4.0452,0.20861,0.19761,0.74617,13.8,47.22,80.58
4.8216,-9.2346,-3.8682,0.11545,0.47067,0.31734,15.54,47.34,80.04
5.0395,-9.8748,-3.7592,0.0064141,0.66065,-0.058032,16.32,47.82,79.68
5.3664,-10.76,-3.5004,-0.18143,0.73976,-0.40317,17.46,48.0,79.32
5.1213,-10.869,-2.9829,-0.37904,0.79779,-0.70799,18.24,48.0,79.14
5.3256,-12.054,-2.8058,-0.41844,0.90408,-1.0632,18.84,48.12,79.26
5.5707,-12.926,-3.0918,-0.41783,0.91935,-1.2468,19.02,48.06,79.44
6.1019,-13.021,-3.6911,-0.65393,0.73609,-1.4126,18.72,48.24,79.56
5.6252,-10.855,-2.4925,-0.87629,0.46945,-1.6246,17.94,48.06,79.8
5.4618,-10.896,-1.9068,-0.75472,0.13744,-1.8463,17.28,47.94,80.04
5.4754,-12.694,-1.3212,-0.58735,-0.26939,-2.0479,15.78,47.76,80.52
5.6933,-14.124,-1.3893,-0.52015,-1.0452,-2.2743,14.04,47.4,81.06
5.6252,-14.669,-1.5527,-0.64446,-1.5715,-2.386,13.26,47.1,81.48
5.1621,-14.247,-1.3484,-0.84086,-1.9697,-2.5128,11.4,46.62,82.14
3.9908,-12.721,-1.3212,-0.8659,-2.1921,-2.6032,9.6,45.96,82.86
3.3778,-11.918,-1.1169,-0.88209,-2.1429,-2.6606,7.5,45.24,83.82
2.6696,-10.746,-0.74912,-1.0201,-1.7645,-2.8992,6.66,44.7,84.42
2.0703,-9.8339,-0.21793,-1.0956,-1.1515,-2.9688,4.5,43.62,85.5
1.9477,-9.6296,-0.1362,-1.1551,-0.49419,-3.1282,3.48,42.96,86.34
2.0567,-9.1529,-0.31327,-1.1829,-0.0094684,-3.1878,1.38,41.82,87.36
2.3836,-8.7987,-0.25879,-1.175,0.34606,-3.171,-0.96,40.62,88.32
2.5198,-8.6353,-0.21793,-1.1493,0.50305,-3.0736,-2.22,39.96,88.62
2.6968,-8.1041,-0.095342,-1.0956,0.44807,-2.926,-4.86,38.58,89.16
2.8058,-7.9407,-0.17706,-0.93187,0.20189,-2.5326,-7.26,37.02,89.34
2.6968,-7.75,-0.027241,-0.83658,0.022602,-2.2119,-8.34,36.12,89.52
2.4244,-7.1234,0.24517,-0.71807,-0.097738,-1.8665,-10.5,34.44,89.52
2.2337,-6.7829,0.28603,-0.57055,-0.20861,-1.4664,-11.7,33.6,89.52
2.0567,-6.8647,0.23155,-0.3879,-0.22327,-1.0284,-13.68,32.04,89.46
2.3018,-7.7364,-0.24517,-0.18998,-0.20647,-0.54092,-15.06,30.66,88.92
2.4789,-8.3765,-0.47671,0.080634,-0.18509,0.16829,-16.02,29.34,88.8
2.3699,-8.1722,-0.39499,0.25504,-0.14691,0.5846,-16.44,28.74,88.92
2.2474,-8.3765,-0.31327,0.43585,-0.071471,0.97066,-16.8,27.78,88.86
2.438,-9.5751,-0.69464,0.59895,0.028405,1.3467,-16.92,27.18,89.04
2.6968,-10.924,-1.0896,0.72968,0.12462,1.7752,-16.92,27.0,89.1
3.1599,-11.182,-1.2395,0.76816,0.2193,2.1991,-17.16,27.06,89.04
3.1054,-10.065,-1.2258,0.76572,0.30024,2.4447,-16.92,27.48,88.92
3.0373,-9.7522,-1.4165,0.82681,0.38179,2.6148,-16.68,27.78,88.74
3.0237,-10.515,-1.58,0.85796,0.41722,2.6402,-16.62,28.74,88.56
3.0646,-11.7,-1.5119,0.82986,0.50916,2.6646,-16.14,29.94,88.56
3.3097,-12.422,-1.4438,0.73426,0.6747,2.7663,-15.06,31.08,88.44
3.8954,-12.463,-1.3348,0.59529,0.87445,2.9074,-13.92,32.4,88.56
3.9635,-12.068,-1.3757,0.43188,1.1451,3.0488,-13.2,33.06,88.74
4.1814,-10.501,-1.6481,0.42638,1.2346,3.0476,-11.4,34.5,88.68
4.2359,-9.902,-1.7434,0.48991,1.2602,2.9752,-10.44,35.28,88.62
4.3449,-8.826,-1.9477,0.5678,1.1402,2.8744,-8.16,36.78,88.56
4.699,-8.5127,-2.2201,0.67378,0.86437,2.7211,-5.82,37.98,88.38
4.9442,-8.6898,-2.5879,0.79871,0.36774,2.5287,-3.18,39.54,87.84
5.1485,-9.0303,-2.7513,0.83139,0.21838,2.4731,-1.8,40.2,87.66
5.38,-9.6023,-2.9829,0.80756,-0.16524,2.2868,0.66,41.4,86.76
5.38,-9.8066,-3.2825,0.73915,-0.29016,2.1148,3.12,42.66,85.92
5.2166,-9.6841,-3.6366,0.67012,-0.28558,1.8763,4.26,43.2,85.38
5.0531,-9.2482,-4.0725,0.54459,-0.13775,1.5751,6.54,44.16,84.18
4.9578,-8.6762,-4.2087,0.41233,0.079107,1.237,8.58,44.94,83.46
5.0804,-8.6489,-4.0044,0.29749,0.32193,0.68539,10.32,45.6,82.56
5.2847,-9.3163,-4.1406,0.25045,0.35797,0.354,11.22,45.9,82.2
5.7614,-10.365,-4.0861,0.10415,0.32926,0.054672,12.48,46.32,81.78
5.6797,-10.569,-3.9771,-0.10232,0.29138,-0.19975,13.2,46.56,81.6
5.1485,-10.134,-3.3778,-0.30543,0.32681,-0.47403,14.04,46.86,81.18
4.985,-10.678,-2.7649,-0.3656,0.49052,-0.72632,14.52,47.16,80.76
5.5162,-12.381,-3.0101,-0.32742,0.73182,-1.0235,14.7,47.34,80.64
6.0066,-12.953,-3.4051,-0.45601,0.71227,-1.1872,14.52,47.52,80.58
6.0883,-11.795,-3.2825,-0.67837,0.50121,-1.3836,13.92,47.52,80.76
5.8704,-10.678,-2.6696,-0.68081,0.1799,-1.5992,13.62,47.46,80.64
5.8159,-10.964,-1.7843,-0.50793,-0.26389,-1.8027,12.54,47.16,80.94
6.1292,-13.048,-1.3076,-0.39492,-0.8097,-1.9471,11.46,46.92,81.0
6.2517,-13.825,-1.5391,-0.34697,-1.4566,-2.0391,10.8,46.8,81.12
5.8704,-14.574,-1.6617,-0.61025,-2.3216,-2.1958,9.3,46.44,81.42
5.38,-14.097,-1.3893,-0.71227,-2.6475,-2.3555,8.58,46.32,81.78
3.8682,-12.994,-1.1577,-0.78557,-2.6133,-2.4227,7.2,45.66,82.68
3.2961,-12.177,-1.1305,-0.94592,-2.2721,-2.5788,6.42,44.88,84.0
2.4244,-10.542,-0.83084,-1.0852,-1.7156,-2.7526,5.34,44.34,84.6
2.1112,-9.3844,-0.44947,-1.1588,-1.0272,-2.9141,3.84,43.44,85.98
2.0839,-8.7987,-0.34051,-1.2272,-0.14447,-3.1215,2.22,42.42,87.24
2.3699,-8.6081,-0.31327,-1.2104,0.24801,-3.1414,1.38,41.94,87.84
2.7786,-8.6353,-0.24517,-1.1652,0.35125,-3.1322,-0.72,40.5,89.22
2.833,-8.2812,-0.25879,-1.1023,0.26817,-3.0268,-1.62,39.78,89.82
2.8058,-7.8317,-0.28603,-0.98746,0.15455,-2.7868,-3.6,38.46,90.72
2.8467,-7.7091,-0.28603,-0.87323,0.026573,-2.5018,-5.7,36.84,91.26
2.6696,-7.3822,-0.14982,-0.67837,-0.19517,-1.9991,-7.62,35.34,91.44
2.4789,-7.2596,0.095342,-0.53267,-0.30421,-1.668,-8.52,34.68,91.44
2.2474,-6.96,0.19068,-0.39554,-0.33475,-1.3091,-10.38,33.42,91.08
2.1384,-6.9328,0.12258,-0.21991,-0.3149,-0.9276,-11.1,32.7,91.26
2.2201,-7.8181,-0.24517,-0.040928,-0.25748,-0.50549,-12.18,31.5,91.2
2.3291,-8.1995,-0.38137,0.12828,-0.1912,-0.081551,-12.6,30.84,91.14
2.4108,-8.5536,-0.57205,0.28772,-0.12034,0.3317,-12.72,30.48,91.02
2.4517,-8.8668,-1.0215,0.54489,-0.0048869,0.92668,-13.02,29.82,90.9
2.547,-9.4798,-1.185,0.67165,0.054978,1.3289,-13.02,29.58,90.78
2.8467,-10.597,-1.3757,0.77458,0.090713,1.7352,-12.96,29.52,90.66
3.0646,-10.678,-1.6208,0.8094,0.15363,2.1209,-12.78,29.46,90.6
3.0237,-10.188,-1.7162,0.7926,0.28986,2.4462,-12.36,29.64,90.42
2.8739,-10.12,-1.8251,0.78924,0.33567,2.4911,-12.12,30.3,90.18
2.8603,-10.733,-1.8524,0.81642,0.53512,2.5696,-12.06,30.54,90.06
2.9148,-11.809,-1.757,0.7761,0.72174,2.6142,-11.52,31.38,89.88
3.4187,-12.231,-1.7706,0.65912,0.95875,2.7196,-10.56,32.52,89.88
3.7456,-11.918,-1.6481,0.55986,1.1564,2.8549,-9.3,33.84,90.0
4.0316,-11.032,-1.866,0.48381,1.3002,2.9658,-7.62,35.16,90.06
4.1542,-10.011,-1.9613,0.45326,1.3723,2.9685,-5.88,36.18,90.12
4.2904,-9.0984,-2.0975,0.47495,1.3317,2.9199,-4.02,37.32,90.06
4.3721,-8.6081,-1.9341,0.49236,1.1796,2.8433,-3.0,38.04,90.06
4.4266,-8.1722,-1.5391,0.54245,0.9444,2.7501,-0.78,38.88,89.76
4.6037,-8.3493,-1.4029,0.59926,0.70677,2.6591,1.8,39.84,89.76
4.8625,-9.1937,-1.7843,0.6802,0.49511,2.5513,3.96,40.92,89.16
5.2166,-9.9701,-2.438,0.71593,0.32437,2.4267,6.24,41.88,88.56
5.5299,-10.093,-3.0101,0.68539,0.23732,2.3167,8.28,42.72,87.84
5.6524,-10.025,-3.2144,0.66432,0.13531,2.113,8.94,42.96,87.42
5.8023,-9.4934,-3.7184,0.624,0.046731,1.8274,10.92,43.62,86.64
5.8023,-9.0848,-3.909,0.56139,-0.053145,1.4868,11.82,44.1,86.28
5.4481,-8.5263,-4.1814,0.50549,-0.11087,0.90316,12.78,44.22,86.1
5.1213,-8.6898,-3.8682,0.44868,-0.069944,0.70524,14.64,44.94,85.5
5.094,-9.3436,-3.8273,0.39065,0.082161,0.32987,15.66,45.24,85.26
5.3392,-10.174,-3.6366,0.18479,0.31001,-0.14233,16.5,45.42,84.84
5.4073,-10.787,-3.6775,-0.014661,0.43371,-0.43463,17.22,45.72,84.42
5.5162,-11.836,-3.3097,-0.13408,0.53115,-0.69303,18.42,46.02,83.88
5.7069,-12.435,-3.3097,-0.19273,0.56872,-1.0589,18.9,46.08,83.7
5.9385,-12.694,-3.7047,-0.32162,0.51679,-1.1719,19.38,46.32,83.28
5.6524,-11.7,-3.4459,-0.59284,0.24801,-1.5507,19.44,46.26,83.04
5.4481,-11.169,-2.4653,-0.57177,0.018021,-1.8127,19.74,46.38,82.92
5.5162,-11.768,-2.1656,-0.47312,-0.30604,-2.0278,19.5,46.56,82.86
5.9793,-14.247,-1.7706,-0.41844,-0.77763,-2.1677,18.78,46.56,82.62
6.0747,-15.037,-1.975,-0.66554,-1.6142,-2.3766,18.3,46.8,82.56
5.1757,-13.961,-1.4438,-0.93249,-1.9795,-2.5363,16.92,46.5,82.62
4.3994,-12.994,-1.0896,-0.96944,-2.1237,-2.689,16.02,46.5,82.74
3.7047,-12.503,-1.1032,-1.018,-1.9899,-2.7461,15.12,46.26,82.92
3.4323,-12.04,-0.85808,-1.1072,-1.7562,-2.9285,14.16,45.96,83.1
2.4244,-10.188,-0.61292,-1.1063,-1.398,-3.0021,11.88,45.42,83.94
2.3563,-10.093,-0.55843,-1.1713,-0.5733,-3.1805,10.62,45.24,84.24
2.1248,-9.1665,-0.28603,-1.1912,-0.34758,-3.2232,7.74,44.4,85.02
2.1929,-8.9622,-0.01362,-1.2104,0.067501,-3.2678,6.24,43.98,85.38
2.2474,-8.7034,0.054481,-1.1933,0.5226,-3.1954,4.62,43.44,85.68
2.6832,-8.3357,-0.054481,-1.1328,0.50824,-3.1142,1.32,41.94,86.4
2.7377,-7.9679,-0.095342,-1.0168,0.35491,-2.8631,-0.48,41.22,86.52
2.8603,-7.75,-0.19068,-0.88606,0.17471,-2.5607,-2.28,40.32,86.76
2.6696,-7.3141,0.040861,-0.73518,-0.0054978,-2.2232,-5.64,38.64,87.24
2.3018,-6.96,0.23155,-0.5846,-0.16707,-1.8622,-7.26,37.56,87.42
2.1248,-6.6331,0.24517,-0.42577,-0.23915,-1.4447,-8.82,36.78,87.6
1.9205,-6.4969,0.19068,-0.15058,-0.22113,-0.78954,-10.38,35.94,87.78
2.0975,-7.1779,-0.27241,0.069028,-0.22694,-0.30604,-12.84,34.44,87.66
2.2474,-7.4776,-0.50395,0.24404,-0.2306,0.18967,-13.92,33.48,87.54
2.2882,-8.3084,-0.65378,0.42119,-0.22633,0.67073,-15.48,32.04,87.48
2.3836,-8.8124,-0.85808,0.57941,-0.18479,1.1292,-15.96,31.38,87.42
2.3972,-9.6977,-1.0351,0.71044,-0.13836,1.602,-16.32,30.84,87.42
2.6287,-10.896,-1.1577,0.84483,-0.05681,2.3515,-16.56,30.42,87.36
3.2008,-10.937,-1.3893,0.84422,0.053451,2.7092,-16.62,30.24,87.12
3.1463,-10.515,-1.6889,0.87293,0.13928,2.9086,-16.5,30.3,87.12
3.2144,-11.536,-1.8115,0.93035,0.1854,3.0055,-16.26,30.36,87.06
3.3097,-12.912,-1.7706,0.91844,0.31643,3.0354,-15.78,31.08,87.06
3.4459,-13.484,-1.6344,0.81612,0.48442,3.0183,-15.24,31.68,87.12
3.5685,-13.552,-1.5255,0.68509,0.71441,3.0122,-14.52,32.4,87.18
3.8409,-11.904,-1.58,0.58154,0.96853,3.0006,-12.9,33.66,87.36
3.8818,-10.828,-1.6889,0.52931,1.1777,2.9364,-11.76,34.5,87.24
3.8409,-9.7113,-1.8387,0.54184,1.3231,2.748,-10.62,35.4,87.06
3.9227,-8.3765,-1.7162,0.5568,1.3073,2.6893,-8.46,37.08,86.94
4.2087,-7.9407,-1.58,0.63133,1.1148,2.5201,-7.14,37.92,86.7
4.2768,-7.7091,-1.58,0.68845,0.90713,2.4196,-5.76,39.0,86.58
4.5764,-7.8181,-1.7843,0.78985,0.62247,2.3625,-4.26,39.9,86.46
5.0804,-8.9894,-2.7786,0.84544,0.30727,2.3353,-1.44,41.52,85.92
5.3664,-9.4389,-2.9965,0.79443,-0.12798,2.2633,-1.44,42.3,85.56
5.6252,-9.9292,-3.4187,0.78557,-0.23763,2.2052,3.18,43.98,84.6
5.5843,-9.9156,-3.7456,0.70097,-0.39554,1.9343,4.74,44.58,84.12
5.6116,-9.8611,-3.9499,0.57391,-0.36194,1.6331,6.24,45.12,83.58
5.3119,-9.0848,-4.3177,0.44685,-0.24771,1.2654,9.06,46.08,82.14
5.1213,-9.0167,-4.0861,0.37324,-0.10629,0.84422,10.32,46.62,81.66
5.094,-9.507,-3.909,0.31337,0.059254,0.43768,11.46,47.04,81.12
5.489,-10.896,-3.8818,0.17868,0.22938,0.068722,13.8,47.64,80.16
5.5571,-11.264,-3.3778,-0.15547,0.46304,-0.46151,14.64,48.0,79.86
5.3119,-11.387,-3.1327,-0.28527,0.63377,-0.77641,15.42,48.12,79.62
5.4209,-11.85,-3.3097,-0.34514,0.76541,-1.065,16.5,48.3,79.14
5.6388,-12.258,-3.6639,-0.41722,0.79871,-1.3161,16.98,48.48,79.08
5.7614,-11.836,-3.7865,-0.57696,0.65973,-1.5424,17.34,48.48,79.02
5.6524,-11.141,-2.4789,-0.61728,0.24465,-1.8744,17.46,48.24,78.96
5.8023,-12.054,-1.866,-0.5229,-0.19823,-2.0403,16.98,48.18,78.96
5.9249,-12.885,-1.7025,-0.47617,-0.76572,-2.1478,16.44,48.0,78.96
6.1428,-14.642,-1.6344,-0.54795,-1.3479,-2.266,15.78,47.82,79.2
5.5162,-15.01,-1.3893,-0.84177,-1.8387,-2.4007,14.34,47.28,79.8
