Ax,Ay,Az,Gx,Gy,Gz,Mx,My,Mz
2.2201,-9.0167,-2.0839,-0.039401,-0.12126,0.10232,-9.78,47.94,-14.1
2.1112,-9.0984,-2.0703,-0.043677,-0.12523,0.12095,-9.84,48.0,-14.1
1.975,-9.0984,-2.1656,-0.059254,-0.073304,0.14233,-9.84,48.12,-14.16
2.1112,-9.1393,-2.152,-0.065973,0.051313,0.15211,-9.6,47.88,-14.04
2.2201,-9.1256,-2.0839,-0.05681,0.10415,0.13928,-9.66,47.82,-13.98
2.3018,-9.112,-2.0975,-0.055283,0.11393,0.13103,-9.66,47.88,-13.98
2.3427,-9.2346,-2.1112,-0.040928,0.088575,0.10751,-9.6,48.0,-14.1
2.3427,-9.2482,-2.1248,-0.036346,0.058338,0.096211,-9.54,47.94,-13.98
2.3291,-9.2074,-2.0567,-0.034208,0.040012,0.067195,-9.42,48.0,-13.68
2.2065,-9.1937,-2.0975,-0.034208,0.051313,0.043677,-9.18,48.18,-13.5
2.2065,-9.1529,-2.0975,-0.032681,0.086743,0.009163,-9.12,48.18,-13.56
2.2746,-9.1529,-2.0839,-0.027184,0.098655,-0.0097738,-8.94,48.12,-13.68
2.3018,-9.1529,-2.1929,-0.0079412,0.091935,-0.020159,-8.82,48.24,-13.56
2.3291,-9.1393,-2.0839,-0.009163,0.071777,-0.01069,-8.64,48.18,-13.56
2.3155,-9.1665,-2.0975,0.012828,0.045204,-0.012523,-8.46,48.0,-13.62
2.3427,-9.1529,-2.152,0.026267,0.026878,-0.0048869,-8.52,48.12,-13.56
2.2474,-9.0848,-2.0839,0.040928,0.021686,0.0061087,-8.28,48.24,-13.44
2.2337,-9.1393,-2.0567,0.033598,0.031765,0.002138,-8.22,48.3,-13.44
2.261,-9.1665,-1.9886,0.033292,0.04948,-0.012217,-8.16,48.3,-13.38
2.2746,-9.1937,-2.0839,0.027184,0.064141,-0.023824,-7.92,48.36,-13.5
2.3291,-9.2891,-2.1248,0.03207,0.05681,-0.023518,-8.04,48.42,-13.56
2.3427,-9.3163,-2.0703,0.047037,0.043982,-0.026878,-8.22,48.36,-13.56
2.3563,-9.3708,-2.0567,0.047037,0.018021,-0.019853,-8.16,48.3,-13.56
2.3291,-9.4253,-2.0294,0.059865,0.0058032,-0.015882,-8.1,48.42,-13.44
2.3291,-9.4117,-2.0975,0.04948,0.022602,-0.037568,-8.1,48.36,-13.62
2.3018,-9.3708,-2.0294,0.029016,0.047037,-0.036957,-8.04,48.3,-13.86
2.3155,-9.3708,-2.0839,0.0281,0.054978,-0.040012,-8.1,48.36,-13.92
2.2746,-9.4117,-2.0567,0.018937,0.054672,-0.038485,-8.16,48.12,-14.34
2.3427,-9.3844,-1.975,0.0061087,0.055894,-0.025656,-8.22,48.18,-14.52
2.3563,-9.4253,-2.1248,0.010079,0.05681,-0.025045,-8.28,48.18,-14.52
2.2746,-9.4117,-2.0567,0.0039706,0.067806,-0.011606,-8.22,48.12,-14.58
2.3155,-9.4389,-2.0158,0.0085521,0.066279,0.0018326,-8.4,48.0,-14.58
2.3836,-9.4389,-2.0294,-0.009163,0.07086,0.012828,-8.34,47.82,-14.76
2.3563,-9.3708,-2.0975,-0.0058032,0.054367,0.022907,-8.28,47.94,-14.88
2.3427,-9.2891,-2.0567,0.007025,0.047647,0.039401,-8.16,47.76,-15.06
2.3563,-9.3163,-2.152,-0.0048869,0.053756,0.047037,-8.16,47.64,-15.12
2.3836,-9.2482,-2.0567,-0.0039706,0.048258,0.058032,-8.28,47.58,-15.18
2.3836,-9.3708,-2.0567,-0.0097738,0.027794,0.078802,-8.28,47.52,-15.12
2.3836,-9.3708,-2.0839,-0.014661,0.020769,0.091935,-8.16,47.64,-15.06
2.4108,-9.3844,-2.0022,-0.019853,0.014355,0.091935,-8.16,47.7,-15.0
2.4925,-9.3708,-2.0294,-0.028405,0.027489,0.09499,-7.74,47.52,-15.06
2.3972,-9.4389,-1.9886,-0.035736,0.026573,0.086437,-7.74,47.52,-15.12
2.4789,-9.4525,-2.0703,-0.039706,0.018326,0.071471,-7.8,47.46,-15.12
2.4517,-9.4798,-2.0022,-0.042761,0.011912,0.059559,-7.74,47.52,-15.0
2.5061,-9.4117,-1.8932,-0.03543,-0.011606,0.055894,-7.5,47.52,-15.18
2.5061,-9.4117,-1.9341,-0.038179,-0.016493,0.040928,-7.44,47.46,-15.18
2.4925,-9.3844,-1.9205,-0.041233,-0.026878,0.034514,-7.38,47.58,-15.18
2.4517,-9.3163,-1.9477,-0.040928,-0.018937,0.020159,-7.32,47.76,-15.42
2.4517,-9.2755,-1.9068,-0.034819,-0.029016,0.017104,-7.14,47.7,-15.3
2.4108,-9.2891,-1.866,-0.040012,-0.035125,-0.002138,-7.02,47.7,-15.54
2.4789,-9.3436,-1.8932,-0.040012,-0.039706,-0.0097738,-7.02,47.64,-15.72
2.3972,-9.3708,-1.9341,-0.042455,-0.045204,-0.012217,-6.9,47.46,-15.72
2.4108,-9.3844,-1.9477,-0.036041,-0.03543,-0.01741,-6.9,47.7,-15.78
2.3836,-9.3844,-1.8932,-0.042455,-0.034514,-0.025351,-6.9,47.7,-15.54
2.4108,-9.3027,-1.866,-0.059559,-0.020159,-0.032376,-6.96,47.7,-15.54
2.3836,-9.3299,-1.9613,-0.051924,-0.01741,-0.034819,-7.02,47.76,-15.66
2.3427,-9.3572,-1.8387,-0.055589,-0.016799,-0.038485,-7.14,47.64,-15.54
2.3836,-9.3844,-1.8387,-0.051924,-0.022602,-0.042761,-7.2,47.64,-15.48
2.3427,-9.2891,-1.7979,-0.046731,-0.018631,-0.040623,-7.32,47.64,-15.54
2.3155,-9.3436,-1.866,-0.043371,-0.0054978,-0.042455,-7.44,47.58,-15.24
2.3291,-9.3163,-1.8932,-0.04215,0.0015272,-0.040317,-7.5,47.52,-15.3
2.3563,-9.2891,-1.8387,-0.043371,0.0045815,-0.041539,-7.56,47.46,-15.0
2.2882,-9.2891,-1.8387,-0.039095,0.0051924,-0.026267,-7.86,47.58,-15.06
2.3155,-9.3299,-1.7162,-0.032376,0.0042761,-0.011606,-7.92,47.58,-14.94
2.261,-9.3163,-1.7843,-0.027489,0.0073304,-0.0042761,-7.98,47.52,-14.88
2.261,-9.3163,-1.7843,-0.014661,0.0094684,0.0045815,-7.98,47.52,-14.88
2.3427,-9.2482,-1.8387,-0.0064141,0.0036652,0.018937,-8.04,47.58,-14.88
2.3427,-9.3436,-1.8387,-0.0033598,-0.0039706,0.040012,-8.22,47.64,-14.94
2.3427,-9.3163,-1.9341,0.0048869,-0.0054978,0.045509,-8.22,47.58,-15.0
2.3291,-9.3436,-1.975,-0.0039706,-0.0079412,0.054672,-8.28,47.58,-14.94
2.3836,-9.2891,-1.866,-0.0018326,-0.0054978,0.057727,-8.46,47.64,-15.0
2.4517,-9.3708,-1.975,0.000611,0.000916,0.056505,-8.34,47.52,-15.06
2.438,-9.3436,-1.9341,-0.0027489,0.002138,0.058338,-8.46,47.58,-15.24
2.4925,-9.3844,-1.975,-0.010385,-0.0036652,0.051924,-8.64,47.58,-15.06
2.4108,-9.4117,-1.9886,-0.010385,-0.013134,0.049786,-8.46,47.64,-15.24
2.4789,-9.3844,-1.9886,-0.013134,-0.014661,0.041844,-8.4,47.64,-15.12
2.4108,-9.4661,-1.8932,-0.012523,-0.0094684,0.034208,-8.28,47.76,-15.18
2.4108,-9.3844,-1.9068,-0.022297,-0.016493,0.039095,-8.34,47.76,-15.24
2.438,-9.3708,-1.8932,-0.022907,-0.011912,0.043371,-8.34,47.7,-15.24
2.4517,-9.3844,-1.9613,-0.027184,-0.0039706,0.034514,-8.16,47.64,-15.18
2.3972,-9.3163,-1.9613,-0.037263,0.0079412,0.027184,-8.16,47.76,-15.12
2.3972,-9.3163,-1.9205,-0.055589,0.0064141,0.027489,-7.98,47.64,-15.18
2.4517,-9.3299,-1.9068,-0.056505,0.000611,0.013439,-7.92,47.64,-15.3
2.4517,-9.3299,-1.8932,-0.058338,-0.017104,0.011301,-7.92,47.76,-15.36
2.438,-9.3844,-1.8796,-0.051313,-0.023824,0.0079412,-7.68,47.7,-15.3
2.3972,-9.4117,-1.866,-0.051007,-0.024129,0.016493,-7.56,47.76,-15.36
2.3836,-9.3436,-1.9068,-0.044593,-0.019242,0.011301,-7.56,47.76,-15.36
2.3291,-9.3436,-1.8251,-0.040928,-0.019853,0.014661,-7.68,47.7,-15.36
2.3836,-9.3299,-1.8387,-0.048258,-0.011606,0.015577,-7.56,47.4,-15.48
2.3836,-9.3299,-1.8524,-0.051924,-0.016799,0.019548,-7.56,47.4,-15.54
2.3836,-9.3572,-1.7979,-0.044899,-0.017715,0.022602,-7.5,47.52,-15.6
2.3699,-9.3436,-1.866,-0.032987,-0.0281,0.029322,-7.44,47.58,-15.6
2.3836,-9.3299,-1.7843,-0.030238,-0.033292,0.034819,-7.5,47.52,-15.6
2.3699,-9.3299,-1.8251,-0.020464,-0.037568,0.035736,-7.56,47.58,-15.78
2.3427,-9.2891,-1.8524,-0.022907,-0.043066,0.037568,-7.62,47.52,-15.54
2.3563,-9.3027,-1.9341,-0.0281,-0.032987,0.033598,-7.62,47.52,-15.42
2.3155,-9.3572,-1.9613,-0.032987,-0.030543,0.032987,-7.68,47.7,-15.6
2.2882,-9.3436,-1.8524,-0.037568,-0.02474,0.030849,-7.8,47.7,-15.66
2.3427,-9.3708,-1.8796,-0.044593,-0.01741,0.029627,-7.92,47.64,-15.66
2.3427,-9.3436,-1.9068,-0.045509,-0.01405,0.02138,-7.8,47.64,-15.6
2.3699,-9.2891,-1.7979,-0.047647,-0.0094684,0.020769,-7.98,47.64,-15.66
2.3018,-9.2755,-1.8387,-0.051313,-0.0015272,0.014661,-8.04,47.58,-15.6
2.2882,-9.2755,-1.7843,-0.05681,0.000305,0.010385,-8.16,47.58,-15.6
2.3972,-9.2891,-1.8387,-0.055283,0.0045815,0.01405,-8.1,47.46,-15.72
2.3563,-9.3436,-1.8251,-0.048258,0.0045815,0.0094684,-8.1,47.46,-15.78
2.3563,-9.3436,-1.7979,-0.038179,0.0048869,0.0094684,-8.1,47.46,-15.54
2.3427,-9.3299,-1.8387,-0.037874,0.0027489,0.0036652,-7.98,47.52,-15.6
2.3563,-9.3163,-1.866,-0.030849,-0.0024435,0.0061087,-7.92,47.58,-15.72
2.3699,-9.3572,-1.866,-0.026267,-0.0045815,0.011301,-7.86,47.58,-15.6
2.3291,-9.2891,-1.9341,-0.018937,-0.010385,0.012828,-7.86,47.46,-15.48
2.3563,-9.3163,-1.9068,-0.013744,-0.0082467,0.015272,-7.86,47.46,-15.42
2.3427,-9.3299,-1.9205,-0.019853,0.0048869,0.009163,-7.86,47.82,-15.36
2.3427,-9.3163,-1.9205,-0.021075,0.011301,0.010385,-7.86,47.88,-15.3
2.152,-9.3299,-1.866,-0.029016,0.010385,0.0024435,-7.68,47.88,-15.3
2.3018,-9.3027,-1.9613,-0.033292,0.01069,-0.0042761,-7.68,47.94,-15.48
2.3155,-9.3844,-1.9068,-0.041233,0.017715,-0.002138,-7.68,48.12,-15.24
2.3563,-9.3844,-1.866,-0.037874,0.013439,0.0039706,-7.74,48.12,-15.18
2.2474,-9.2891,-1.8524,-0.018021,0.014661,0.0067195,-7.86,48.12,-15.36
2.2882,-9.3436,-1.8387,-0.019242,0.011301,0.013439,-7.92,48.18,-15.24
2.3291,-9.3163,-1.8387,-0.018631,0.011912,0.018631,-7.98,48.0,-15.24
2.3018,-9.3436,-1.866,-0.029627,0.015577,0.013134,-8.1,48.12,-15.3
2.2474,-9.2891,-1.7979,-0.025351,0.018631,0.015577,-8.1,48.18,-15.24
2.2882,-9.3299,-1.8387,-0.034208,0.028711,0.0082467,-8.16,48.12,-15.3
2.3291,-9.3436,-1.866,-0.029932,0.028405,0.0082467,-8.16,48.06,-15.36
2.3427,-9.3708,-1.7979,-0.023213,0.028405,0.0030543,-8.22,48.0,-15.24
2.2474,-9.3708,-1.866,-0.020159,0.020769,0.01069,-8.28,47.94,-15.24
2.3155,-9.221,-1.8932,-0.021075,0.016799,0.013744,-8.34,47.7,-15.18
2.3155,-9.3436,-1.866,-0.030238,0.021991,0.013439,-8.4,47.82,-15.3
2.3427,-9.398,-1.8387,-0.028711,0.026878,0.015577,-8.4,47.82,-15.3
2.4108,-9.4117,-1.9341,-0.026267,0.024129,0.015577,-8.28,47.64,-15.24
2.3699,-9.3844,-1.866,-0.034208,0.021075,0.012523,-8.16,47.7,-15.3
2.3427,-9.398,-1.8932,-0.032681,0.0064141,0.0076358,-8.22,47.7,-15.36
2.3699,-9.3708,-1.9613,-0.036346,0.0045815,0.015577,-8.22,47.52,-15.3
2.3427,-9.4117,-1.8932,-0.038179,0.0082467,0.014966,-8.22,47.46,-15.42
2.4108,-9.3436,-2.0158,-0.037263,0.0073304,0.016188,-8.22,47.58,-15.48
2.3699,-9.3572,-1.8932,-0.049786,-0.000611,0.017104,-8.16,47.58,-15.48
2.3018,-9.4525,-1.9341,-0.043982,-0.009163,0.02138,-8.1,47.64,-15.72
2.3291,-9.4117,-1.8932,-0.042761,-0.018021,0.013439,-8.22,47.76,-15.84
2.3291,-9.3436,-1.9477,-0.048869,-0.018937,0.022602,-8.16,47.64,-15.84
2.3291,-9.3436,-1.9341,-0.05681,-0.018021,0.022297,-8.1,47.46,-15.9
2.3018,-9.3708,-1.866,-0.052534,-0.0097738,0.021686,-7.92,47.46,-15.96
2.3291,-9.3436,-1.9886,-0.06017,-0.0051924,0.02138,-7.98,47.46,-15.84
2.3699,-9.3163,-1.7979,-0.04948,-0.0067195,0.013439,-8.04,47.58,-15.66
2.3427,-9.3436,-1.757,-0.054367,-0.000305,0.017104,-8.04,47.64,-15.6
2.3427,-9.3572,-1.757,-0.054367,0.0061087,0.020769,-8.1,47.58,-15.6
2.3427,-9.3163,-1.7979,-0.047647,0.014661,0.012217,-8.1,47.64,-15.54
2.3563,-9.3163,-1.7706,-0.043371,0.016188,0.016493,-8.1,47.58,-15.36
2.3836,-9.3299,-1.7706,-0.041233,0.014661,0.020769,-8.16,47.58,-15.3
2.3563,-9.2891,-1.7706,-0.026573,0.015577,0.017715,-8.16,47.46,-15.3
2.3018,-9.3436,-1.7706,-0.024129,0.013744,0.020464,-8.16,47.4,-15.18
2.3155,-9.2891,-1.8251,-0.025351,0.027489,0.018937,-8.1,47.58,-15.12
2.3427,-9.2891,-1.8251,-0.035125,0.0281,0.019548,-7.98,47.64,-15.0
2.3291,-9.2891,-1.8796,-0.027184,0.037568,0.012828,-8.04,47.58,-14.88
2.3427,-9.3299,-1.8796,-0.024129,0.033292,0.013744,-8.04,47.52,-14.94
2.3291,-9.3436,-1.7706,-0.014966,0.012523,0.027489,-8.1,47.52,-15.0
2.3836,-9.3844,-1.9068,-0.010385,-0.0061087,0.051313,-8.16,47.52,-15.06
2.3699,-9.3844,-1.9341,0.009163,-0.012523,0.056505,-8.1,47.52,-15.06
2.3018,-9.3844,-1.9613,0.012217,-0.01741,0.058948,-8.04,47.52,-15.12
2.3291,-9.398,-1.9341,-0.0039706,-0.015272,0.059865,-7.98,47.46,-15.24
2.3836,-9.3436,-1.9341,-0.012523,-0.018326,0.052534,-7.92,47.46,-15.3
2.3427,-9.3436,-1.9205,-0.02474,-0.011912,0.053145,-7.86,47.4,-15.3
2.3427,-9.3299,-1.9068,-0.025656,0.002138,0.058948,-7.74,47.46,-15.24
2.3291,-9.2618,-1.8524,-0.037263,0.010996,0.050396,-7.8,47.4,-15.36
2.4108,-9.2891,-1.8387,-0.03207,0.0058032,0.047953,-7.74,47.34,-15.42
2.4108,-9.2891,-1.8387,-0.025351,0.0051924,0.037568,-7.62,47.28,-15.6
2.3155,-9.3436,-1.7843,-0.033598,0.012523,0.026878,-7.56,47.34,-15.6
2.3155,-9.3436,-1.7843,-0.033598,0.012523,0.026878,-7.56,47.34,-15.6
2.3155,-9.3299,-1.7434,-0.031765,0.044899,0.013439,-7.32,47.22,-15.66
2.3699,-9.3027,-1.7979,-0.021991,0.047037,-0.0018326,-7.14,47.28,-15.6
2.3427,-9.398,-1.8115,-0.019853,0.047037,-0.0015272,-7.08,47.28,-15.6
2.2882,-9.3572,-1.7434,-0.018021,0.051924,-0.0051924,-6.96,47.34,-15.6
2.2882,-9.3572,-1.7979,-0.021075,0.064141,-0.0085521,-6.9,47.28,-15.78
2.2882,-9.3572,-1.8251,-0.022602,0.076358,0.000305,-6.9,47.16,-15.78
2.3155,-9.3436,-1.9068,-0.015272,0.069028,0.013134,-6.78,47.16,-15.9
2.3291,-9.4117,-1.8796,-0.0045815,0.053756,0.024129,-6.96,47.04,-15.84
2.3427,-9.3708,-1.8932,-0.0051924,0.030849,0.03207,-6.96,47.04,-15.84
2.3155,-9.4117,-1.9068,-0.0054978,0.013744,0.048258,-6.9,46.92,-15.84
2.2882,-9.4389,-1.866,-0.0079412,0.0036652,0.043371,-6.84,47.04,-15.66
2.3427,-9.4798,-1.7843,-0.025962,0.0018326,0.058338,-6.6,46.74,-15.42
2.3291,-9.4117,-1.9068,-0.023518,-0.0030543,0.063225,-6.54,46.8,-15.18
2.3836,-9.3844,-1.9205,-0.029627,-0.01405,0.067501,-6.36,46.98,-15.18
2.3699,-9.4117,-1.866,-0.032681,-0.017104,0.065057,-6.24,47.04,-15.18
2.4108,-9.3844,-1.866,-0.036957,-0.020769,0.054978,-6.24,46.86,-15.06
2.3563,-9.4117,-1.8796,-0.046731,-0.0076358,0.052229,-6.18,47.1,-15.3
2.3972,-9.4389,-1.8524,-0.053451,-0.0042761,0.047647,-6.06,47.22,-15.18
2.3836,-9.4253,-1.8932,-0.051313,-0.0039706,0.037874,-6.06,47.04,-15.36
2.3836,-9.4389,-1.9068,-0.059254,-0.0048869,0.038179,-6.06,47.28,-15.66
2.3836,-9.398,-1.9068,-0.058032,-0.017104,0.032376,-6.0,47.52,-15.96
2.3427,-9.2891,-1.9477,-0.057116,-0.026878,0.021991,-5.94,47.52,-15.9
2.3427,-9.2891,-1.8932,-0.057421,-0.026878,0.017104,-5.82,47.46,-15.84
2.2882,-9.3027,-1.9477,-0.073609,-0.002138,0.013439,-5.82,47.64,-15.66
2.2882,-9.4117,-1.8796,-0.082772,-0.0085521,0.014966,-5.76,47.58,-15.84
2.3155,-9.398,-1.8932,-0.070555,-0.017104,0.018326,-5.76,47.58,-15.66
2.3018,-9.3844,-1.9613,-0.069028,-0.016188,0.020159,-5.88,47.7,-15.66
2.2337,-9.3844,-1.8932,-0.064752,-0.015577,0.021991,-6.12,47.82,-15.6
2.2474,-9.3299,-1.8387,-0.075747,-0.0088575,0.014661,-6.24,47.76,-15.54
2.2474,-9.3844,-1.9341,-0.086437,0.0079412,0.0012217,-6.42,47.76,-15.36
2.2337,-9.3436,-1.866,-0.087659,0.016493,0.0042761,-6.48,47.64,-15.36
2.2746,-9.2891,-1.8387,-0.082467,0.018631,0.0024435,-6.48,47.7,-15.42
2.2065,-9.2618,-1.8387,-0.071471,0.020769,0.002138,-6.54,47.82,-15.42
2.2201,-9.2891,-1.8796,-0.07422,0.016493,0.0064141,-6.66,47.88,-15.24
2.2201,-9.3027,-1.866,-0.071777,0.016493,0.0064141,-6.54,47.76,-15.18
2.2065,-9.2891,-1.866,-0.064752,0.019853,0.014661,-6.42,47.64,-15.18
2.2337,-9.2891,-1.8932,-0.06353,0.027794,0.019242,-6.18,47.7,-15.3
2.2201,-9.2618,-1.9613,-0.064446,0.035736,0.036041,-6.18,47.64,-15.36
2.2337,-9.2482,-1.9477,-0.058643,0.034514,0.043371,-6.3,47.64,-15.18
2.3018,-9.1937,-1.8796,-0.051924,0.034514,0.041539,-6.24,47.7,-15.12
2.2882,-9.221,-1.9477,-0.037568,0.027489,0.045509,-6.42,47.64,-15.18
2.2746,-9.221,-1.9341,-0.035125,0.030238,0.030849,-6.24,47.64,-15.18
2.3291,-9.2891,-1.9205,-0.03879,0.033598,0.038179,-6.3,47.46,-15.18
2.3291,-9.2346,-1.8932,-0.034819,0.03207,0.048258,-6.36,47.82,-15.06
2.3427,-9.2482,-1.866,-0.022907,0.022907,0.059865,-6.36,47.76,-15.0
2.3836,-9.2482,-1.8932,-0.013439,0.016188,0.057727,-6.36,47.76,-15.0
2.3972,-9.3027,-1.9068,-0.011301,-0.0027489,0.051924,-6.54,47.76,-15.0
2.4517,-9.3163,-1.9068,-0.010385,-0.0039706,0.043371,-6.42,47.82,-15.18
2.4244,-9.2482,-1.8932,-0.011606,0.0030543,0.033598,-6.36,47.7,-15.36
2.3972,-9.2482,-1.9613,-0.01069,0.0058032,0.014966,-6.36,47.58,-15.54
2.4653,-9.2891,-1.9068,-0.016799,0.024129,0.0051924,-6.3,47.58,-15.48
2.438,-9.3436,-1.8387,-0.012523,0.031154,-0.011912,-6.3,47.64,-15.54
2.4108,-9.3163,-1.8932,-0.011912,0.026878,-0.019242,-6.18,47.82,-15.6
2.4108,-9.4117,-1.8932,-0.000611,0.031154,-0.022602,-6.06,47.7,-15.9
2.4108,-9.4117,-1.8932,0.018937,0.020769,-0.031765,-6.06,47.76,-15.78
2.4108,-9.3844,-1.9205,0.027489,-0.000916,-0.023213,-5.94,47.7,-15.78
2.3563,-9.4253,-1.9477,0.04215,-0.013134,-0.022602,-5.88,47.58,-15.78
2.3291,-9.398,-1.9477,0.03543,-0.027489,-0.025962,-5.88,47.58,-15.66
2.2882,-9.221,-1.975,0.016493,-0.027489,-0.023824,-5.82,47.58,-15.54
2.2746,-9.2482,-1.975,-0.0012217,-0.02474,-0.026878,-6.18,47.7,-15.48
2.2474,-9.3708,-2.0839,-0.018631,-0.026878,-0.013744,-6.18,47.64,-15.54
2.3155,-9.3708,-2.1248,-0.0281,-0.029627,0.013134,-6.36,47.52,-15.48
2.2882,-9.4253,-2.0703,-0.024129,-0.015882,0.035736,-6.36,47.58,-15.42
2.3291,-9.3708,-2.0431,-0.038179,0.007025,0.044899,-6.48,47.64,-15.48
2.3427,-9.3572,-2.0567,-0.055283,0.014661,0.039401,-6.48,47.58,-15.66
2.4108,-9.3572,-2.0158,-0.068111,0.025656,0.02474,-6.48,47.58,-15.54
2.3836,-9.3572,-1.975,-0.091019,0.027489,-0.012523,-6.42,47.64,-15.6
2.3836,-9.4798,-1.7979,-0.097128,0.03879,-0.037263,-6.6,47.58,-15.66
2.4108,-9.4934,-1.8251,-0.096822,0.044288,-0.042761,-6.48,47.52,-15.66
2.4108,-9.4798,-1.7706,-0.083078,0.043677,-0.043982,-6.6,47.4,-15.66
2.4517,-9.3844,-1.7706,-0.064752,0.021991,-0.029932,-6.6,47.4,-15.84
2.3972,-9.3436,-1.7025,-0.035125,-0.038179,-0.0082467,-6.54,47.4,-15.84
2.3836,-9.3163,-1.7298,-0.021075,-0.074526,0.010079,-6.72,47.4,-15.84
2.3018,-9.2891,-1.8387,-0.013134,-0.086437,0.01741,-6.84,47.46,-15.48
2.3155,-9.2755,-1.8524,-0.0097738,-0.084605,0.024435,-6.96,47.52,-15.42
2.3427,-9.2618,-1.7979,-0.013134,-0.089186,0.024129,-7.08,47.52,-15.24
2.3972,-9.3436,-1.8387,-0.0079412,-0.083994,0.018631,-7.14,47.58,-15.12
2.3972,-9.3572,-1.9205,-0.010385,-0.08827,0.014661,-7.14,47.7,-15.18
2.3563,-9.398,-1.8796,-0.022297,-0.090408,0.014661,-7.14,47.76,-15.24
2.3699,-9.398,-1.9205,-0.014355,-0.081245,0.000916,-7.14,47.82,-15.06
2.3563,-9.398,-1.9613,-0.037874,-0.072693,-0.0018326,-7.2,48.0,-15.18
2.3563,-9.4253,-1.866,-0.050396,-0.04948,-0.018021,-7.32,47.94,-15.06
2.2882,-9.3436,-1.866,-0.064446,-0.029932,-0.019548,-7.38,47.82,-15.12
2.2882,-9.3844,-1.8387,-0.067501,-0.014661,-0.036041,-7.38,47.88,-15.18
2.2882,-9.2755,-1.9341,-0.065057,-0.0042761,-0.03543,-7.38,47.94,-15.3
2.261,-9.2891,-1.9205,-0.059865,-0.010996,-0.013744,-7.2,47.94,-15.42
2.2746,-9.3436,-1.866,-0.059254,-0.02138,-0.000611,-7.14,47.82,-15.3
2.2882,-9.3299,-1.7979,-0.051924,-0.025656,0.0027489,-7.26,47.82,-15.24
2.3427,-9.2618,-1.8387,-0.045204,-0.017104,0.010385,-7.44,47.7,-15.18
2.3155,-9.2755,-1.866,-0.036652,-0.035736,0.024129,-7.5,47.64,-15.3
2.3699,-9.3027,-1.866,-0.040317,-0.043371,0.023824,-7.5,47.64,-15.18
2.3155,-9.3436,-1.8251,-0.036957,-0.043677,0.020464,-7.56,47.7,-15.12
2.3018,-9.3163,-1.8932,-0.040317,-0.038179,0.018937,-7.68,47.76,-15.18
2.2746,-9.3027,-1.7979,-0.044593,-0.021991,0.0064141,-7.74,47.76,-15.06
2.3291,-9.398,-1.8387,-0.045815,-0.021075,0.0094684,-7.92,47.82,-15.0
2.3427,-9.3572,-1.8387,-0.039706,-0.03207,0.023213,-8.04,47.76,-15.0
2.3291,-9.3572,-1.8796,-0.020769,-0.037874,0.031154,-8.04,47.94,-14.94
2.3563,-9.3436,-1.8932,-0.027184,-0.027489,0.036652,-7.92,47.94,-14.94
2.3291,-9.3436,-2.0431,-0.039401,-0.000305,0.024435,-7.8,47.88,-14.82
2.3836,-9.2482,-1.9341,-0.052534,0.010079,0.014355,-7.98,47.58,-14.82
2.4108,-9.4525,-1.9205,-0.062614,0.011301,0.01069,-7.86,47.64,-14.76
2.3836,-9.4117,-1.8932,-0.064446,-0.000916,0.010996,-7.68,47.58,-14.7
2.438,-9.398,-1.8932,-0.051924,0.002138,0.0064141,-7.5,47.52,-14.58
2.4108,-9.3572,-1.9068,-0.044288,-0.0012217,0.0042761,-7.5,47.58,-14.58
2.438,-9.3163,-1.8932,-0.048258,-0.0097738,0.010079,-7.38,47.46,-14.4
2.4517,-9.3844,-1.8796,-0.042455,-0.015577,-0.0064141,-7.26,47.58,-14.28
2.4653,-9.3436,-1.9477,-0.0562,-0.02138,-0.010385,-7.26,47.64,-14.34
2.4517,-9.3708,-1.9477,-0.058032,-0.026878,-0.023213,-7.26,47.64,-14.34
2.3836,-9.3436,-1.9068,-0.057727,-0.0079412,-0.026878,-7.26,47.76,-14.04
2.3427,-9.3844,-1.8796,-0.064446,0.0036652,-0.030238,-7.02,47.82,-13.92
2.3018,-9.3844,-1.8115,-0.056505,-0.0073304,-0.038485,-7.14,47.88,-13.86
2.3836,-9.3708,-1.866,-0.069028,-0.009163,-0.036041,-7.26,48.06,-13.86
2.3155,-9.4117,-1.7979,-0.061697,-0.013134,-0.03146,-7.44,48.06,-13.8
2.3155,-9.3572,-1.8524,-0.055894,-0.0018326,-0.03207,-7.5,48.3,-13.98
2.2746,-9.3436,-1.7434,-0.059254,0.010996,-0.027184,-7.56,48.36,-13.98
2.2746,-9.398,-1.7025,-0.064446,0.015577,-0.025045,-7.8,48.18,-14.28
2.2201,-9.4117,-1.757,-0.062308,0.01741,-0.025656,-7.86,48.18,-14.1
2.2882,-9.4117,-1.7298,-0.057116,0.020159,-0.022602,-7.8,48.06,-13.98
2.2882,-9.3844,-1.8251,-0.051618,0.020769,-0.016493,-7.86,48.06,-14.16
2.2882,-9.398,-1.7706,-0.041539,0.022907,-0.01069,-8.1,48.06,-14.1
2.2474,-9.4389,-1.8387,-0.036041,0.020769,0.0058032,-8.22,48.06,-14.22
2.2882,-9.3708,-1.9886,-0.03207,0.0085521,0.029016,-8.22,48.0,-14.28
2.2746,-9.3436,-1.8251,-0.02474,0.0073304,0.044899,-8.28,48.0,-14.34
2.2474,-9.3572,-1.9205,-0.032987,0.009163,0.054978,-8.28,47.88,-14.34
2.3155,-9.3572,-2.0294,-0.034819,0.01741,0.06017,-8.34,47.58,-14.46
2.3427,-9.3163,-2.0703,-0.048564,0.026267,0.062614,-8.28,47.58,-14.46
2.3427,-9.3299,-1.9613,-0.051313,0.029016,0.062003,-8.34,47.58,-14.46
2.3836,-9.4798,-1.9613,-0.06017,0.024129,0.068111,-8.22,47.82,-14.34
2.4517,-9.5479,-1.975,-0.05284,0.01405,0.072693,-8.28,47.76,-14.34
2.4108,-9.507,-1.9068,-0.034514,0.0045815,0.08491,-8.4,47.76,-14.4
2.3699,-9.398,-1.8932,-0.034514,0.012217,0.083078,-8.46,47.76,-14.4
2.3836,-9.3299,-1.8796,-0.05284,0.034208,0.05681,-8.34,47.7,-14.46
2.3836,-9.2891,-1.9205,-0.059559,0.037263,0.043371,-8.22,47.82,-14.4
2.3427,-9.2482,-1.8932,-0.066279,0.037263,0.018326,-8.04,47.76,-14.46
2.3699,-9.2482,-1.866,-0.075747,0.032987,0.021686,-7.86,47.76,-14.4
2.3291,-9.1937,-1.8932,-0.062919,0.027794,0.017104,-7.8,47.7,-14.34
2.3427,-9.1801,-1.7979,-0.054978,0.018631,0.023213,-7.68,47.7,-14.28
2.3155,-9.2482,-1.7979,-0.040623,0.0073304,0.029627,-7.8,47.7,-14.16
2.3972,-9.3299,-1.7979,-0.033292,0.0033598,0.024435,-7.62,47.7,-14.1
2.3699,-9.3708,-1.7979,-0.028405,-0.011606,0.032987,-7.68,47.52,-14.16
2.3427,-9.3844,-1.7979,-0.015577,-0.0076358,0.017104,-7.62,47.46,-14.16
2.3427,-9.4525,-1.8251,-0.018021,0.000611,0.0085521,-7.56,47.7,-14.22
2.3291,-9.4117,-1.9341,-0.014355,0.0030543,0.011606,-7.5,47.82,-14.04
2.3018,-9.4117,-1.9341,-0.012217,-0.0042761,0.0076358,-7.44,47.82,-14.1
2.3291,-9.3299,-2.0431,-0.022907,-0.002138,0.0073304,-7.62,47.88,-14.16
2.3018,-9.2891,-1.9886,-0.018326,-0.0061087,0.015577,-7.62,47.88,-13.98
2.2474,-9.2482,-2.0703,-0.019548,-0.0042761,0.0097738,-7.74,47.82,-14.04
2.2201,-9.1937,-1.9886,-0.028711,0.0030543,0.009163,-7.8,47.94,-14.04
2.261,-9.3844,-1.9613,-0.03207,-0.0045815,0.02138,-7.74,47.94,-14.1
2.3018,-9.4798,-1.9613,-0.031765,-0.0051924,0.023518,-7.68,48.0,-14.16
2.2882,-9.398,-2.0294,-0.037568,-0.0045815,0.028405,-7.8,48.06,-14.22
2.2337,-9.398,-1.9886,-0.038485,0.011606,0.036957,-7.86,47.94,-14.16
2.261,-9.398,-1.9886,-0.020464,0.026573,0.043371,-7.92,47.94,-14.22
2.3427,-9.3844,-1.9205,-0.021991,0.02138,0.051007,-7.98,47.76,-14.4
2.3427,-9.3436,-2.0294,-0.016799,0.011301,0.06353,-8.04,47.58,-14.46
2.3836,-9.3163,-2.0294,0.0076358,-0.0058032,0.065363,-8.1,47.58,-14.52
2.3563,-9.221,-2.0567,0.010079,-0.009163,0.068111,-8.22,47.46,-14.52
2.3836,-9.1937,-2.1112,0.028711,-0.018937,0.080329,-8.22,47.4,-14.58
2.3836,-9.1937,-2.0839,0.032987,-0.023518,0.083689,-8.22,47.52,-14.64
2.3427,-9.221,-2.0703,0.022297,-0.041844,0.087354,-8.28,47.34,-14.76
2.261,-9.2755,-2.1248,0.018631,-0.043066,0.094379,-8.34,47.34,-14.76
2.3427,-9.3436,-1.9886,0.010079,-0.036957,0.091935,-8.34,47.4,-14.76
2.3155,-9.3844,-1.9068,0.0085521,-0.019242,0.086132,-8.28,47.52,-14.76
2.3155,-9.3163,-1.866,0.0048869,-0.009163,0.072388,-8.34,47.64,-15.0
2.261,-9.2618,-1.8524,0.0094684,-0.0015272,0.064446,-8.28,47.76,-15.0
2.2337,-9.221,-1.8387,-0.0073304,0.01069,0.048258,-8.16,47.88,-14.88
2.2201,-9.2482,-1.6753,-0.011606,0.016799,0.055283,-8.16,47.88,-14.88
2.2337,-9.2891,-1.6753,-0.000611,0.018326,0.050396,-8.16,47.88,-14.94
2.2065,-9.3163,-1.58,0.0088575,0.016493,0.059254,-7.98,47.94,-15.0
2.2201,-9.3299,-1.6072,0.035125,0.012523,0.051924,-7.92,47.94,-15.0
2.2474,-9.398,-1.6344,0.058338,-0.002138,0.047953,-7.8,47.94,-14.82
2.3291,-9.4661,-1.7025,0.085216,-0.027489,0.05284,-7.68,48.12,-15.0
2.2201,-9.3844,-1.7979,0.11393,-0.060476,0.057727,-7.56,48.06,-15.12
2.2201,-9.3436,-1.8115,0.12462,-0.083689,0.061087,-7.56,48.0,-15.3
2.1112,-9.3844,-2.0703,0.11881,-0.07758,0.06689,-7.5,48.0,-15.36
2.0839,-9.3708,-2.1929,0.084605,-0.044593,0.057727,-7.56,47.76,-15.12
2.0703,-9.4253,-2.1929,0.043677,-0.0018326,0.051924,-7.62,47.64,-15.12
2.0975,-9.4117,-2.1656,0.0061087,0.036346,0.044288,-7.56,47.58,-15.12
2.1929,-9.4661,-2.1248,-0.033292,0.064446,0.039706,-7.5,47.64,-15.54
2.2474,-9.507,-2.0839,-0.052534,0.076358,0.023518,-7.38,47.64,-15.54
2.2201,-9.5479,-1.9886,-0.079107,0.078802,0.019242,-7.26,47.58,-15.48
2.3155,-9.507,-2.0567,-0.092546,0.061697,0.018326,-7.2,47.52,-15.66
2.3155,-9.4798,-1.9886,-0.092546,0.05284,0.010996,-7.2,47.34,-15.72
2.3563,-9.3844,-1.9205,-0.098655,0.046731,0.007025,-7.2,47.34,-15.78
2.3291,-9.3436,-1.8796,-0.10232,0.041844,0.0027489,-7.08,47.34,-15.84
2.3155,-9.3708,-1.8387,-0.099571,0.037568,-0.0030543,-7.08,47.34,-15.72
2.2882,-9.4253,-1.757,-0.10873,0.027489,-0.009163,-7.02,47.46,-15.78
2.3155,-9.3844,-1.6753,-0.11668,0.018937,-0.021686,-6.96,47.64,-15.78
2.3699,-9.3844,-1.6344,-0.10537,0.022602,-0.03146,-6.78,47.58,-15.9
2.2746,-9.3299,-1.58,-0.094379,0.018021,-0.053145,-6.84,47.52,-15.78
2.2474,-9.3844,-1.5936,-0.087048,0.013744,-0.04948,-6.84,47.52,-15.78
2.2337,-9.4117,-1.5391,-0.069028,0.011912,-0.056505,-6.9,47.46,-15.72
2.2337,-9.3572,-1.5936,-0.065363,-0.0027489,-0.053756,-7.14,47.52,-15.84
2.0703,-9.221,-1.6753,-0.054367,0.007025,-0.062308,-7.26,47.64,-15.84
2.0294,-9.1937,-1.5663,-0.044288,0.022297,-0.06689,-7.32,47.82,-15.78
2.1112,-9.2618,-1.58,-0.040317,0.049175,-0.066279,-7.32,47.82,-15.72
2.152,-9.398,-1.58,-0.029932,0.050091,-0.047953,-7.44,47.76,-15.54
2.2201,-9.4661,-1.6753,-0.0082467,0.024435,-0.01069,-7.68,47.94,-15.54
2.1248,-9.398,-1.757,0.010079,0.0051924,0.013744,-7.56,47.76,-15.48
2.1793,-9.2891,-1.757,0.021075,-0.0027489,0.030849,-7.74,47.7,-15.6
2.1384,-9.3163,-1.975,0.0094684,0.016188,0.032987,-7.8,47.76,-15.6
2.1112,-9.398,-1.9341,-0.000305,0.025656,0.029627,-7.86,47.58,-15.66
2.1248,-9.4934,-1.9341,-0.0281,0.071166,0.015577,-7.92,47.58,-15.72
2.1112,-9.4117,-1.9477,-0.053145,0.14203,0.010996,-7.92,47.52,-15.72
2.1248,-9.3572,-1.9613,-0.069028,0.19334,0.010996,-7.86,47.46,-15.6
2.261,-9.3436,-1.8387,-0.090713,0.20006,0.0079412,-7.68,47.4,-15.66
2.2474,-9.3436,-1.7843,-0.087965,0.16341,0.028711,-7.62,47.46,-15.72
2.3155,-9.398,-1.866,-0.088575,0.15088,0.038485,-7.56,47.4,-15.78
2.3291,-9.3572,-1.7979,-0.074831,0.10721,0.060476,-7.44,47.28,-15.78
2.2882,-9.2482,-1.757,-0.049786,0.08094,0.078191,-7.32,47.22,-15.84
2.2337,-9.3163,-1.757,-0.037263,0.083689,0.10446,-7.32,47.28,-15.78
2.3018,-9.3708,-1.7706,-0.032681,0.079107,0.1124,-7.14,47.34,-15.78
2.4244,-9.3844,-1.8932,-0.0281,0.072388,0.11393,-7.02,47.34,-15.78
2.4517,-9.398,-1.8251,-0.021686,0.058643,0.11668,-6.72,47.52,-15.66
2.4517,-9.3708,-1.8524,-0.014966,0.025351,0.11423,-6.36,47.64,-15.66
2.438,-9.2074,-1.9205,-0.0045815,0.0082467,0.10232,-6.24,47.76,-15.54
2.5061,-9.4117,-1.8932,-0.011301,-0.0064141,0.096822,-6.12,47.88,-15.54
2.5061,-9.4117,-1.8932,-0.011301,-0.007025,0.067501,-6.12,47.76,-15.42
2.4517,-9.3708,-1.975,-0.014966,-0.007025,0.058948,-5.94,47.64,-15.48
2.5334,-9.3844,-1.9341,-0.03207,0.0024435,0.025351,-5.76,47.76,-15.48
2.4789,-9.3436,-1.8932,-0.037568,0.0051924,0.012217,-5.52,47.88,-15.66
2.4789,-9.3572,-1.9068,-0.051007,0.0076358,-0.0030543,-5.4,47.88,-15.6
2.5198,-9.4117,-1.9613,-0.061087,0.0042761,-0.027489,-5.34,47.82,-15.72
2.4517,-9.4253,-1.7979,-0.063225,-0.0036652,-0.044288,-5.22,47.7,-15.96
2.4108,-9.4389,-1.7843,-0.065057,-0.0036652,-0.054367,-5.22,47.76,-16.02
2.4108,-9.398,-1.7706,-0.058643,-0.007025,-0.06353,-5.34,47.76,-16.02
2.3699,-9.3844,-1.7162,-0.051618,-0.019853,-0.078802,-5.58,47.52,-16.14
2.3563,-9.3436,-1.7706,-0.050396,-0.013439,-0.089492,-5.64,47.58,-16.26
2.3155,-9.3844,-1.6481,-0.051313,-0.021991,-0.089797,-5.7,47.52,-16.26
2.2882,-9.3436,-1.6208,-0.049786,-0.039095,-0.085216,-5.7,47.58,-16.26
2.2746,-9.3708,-1.5663,-0.037568,-0.038179,-0.086132,-5.76,47.58,-16.26
2.2065,-9.3844,-1.5663,-0.03543,-0.03543,-0.08491,-5.88,47.58,-16.2
2.2065,-9.4117,-1.6889,-0.026267,-0.042455,-0.064446,-6.0,47.7,-15.96
2.1384,-9.4253,-1.6072,-0.002138,-0.061392,-0.049175,-6.24,47.76,-15.84
2.0975,-9.4253,-1.7706,0.010996,-0.066584,-0.012217,-6.36,47.76,-15.72
2.1112,-9.398,-1.7025,0.021075,-0.075136,0.023213,-6.54,47.82,-15.48
2.0839,-9.4117,-1.7298,0.019242,-0.076053,0.043371,-6.72,47.82,-15.36
2.0567,-9.4798,-1.7706,0.015577,-0.071471,0.051924,-6.72,47.76,-15.48
2.152,-9.4934,-1.8115,0.0079412,-0.078191,0.067806,-6.78,47.7,-15.42
2.1793,-9.507,-1.7298,0.0027489,-0.080023,0.07086,-7.02,47.58,-15.36
2.2474,-9.4798,-1.8932,-0.0015272,-0.076053,0.078191,-7.14,47.52,-15.48
2.152,-9.4525,-1.9341,-0.0033598,-0.075442,0.080634,-7.08,47.46,-15.48
2.2201,-9.398,-1.8387,-0.013744,-0.065668,0.08827,-7.08,47.46,-15.54
2.2065,-9.4389,-1.7843,-0.03146,-0.057116,0.083383,-6.96,47.22,-15.78
2.2882,-9.3844,-1.7706,-0.041844,-0.041539,0.083078,-6.96,47.16,-15.9
2.2201,-9.3708,-1.8387,-0.054062,-0.027489,0.08491,-6.84,47.04,-15.9
2.3427,-9.3708,-1.8115,-0.051924,-0.023824,0.083689,-6.78,47.04,-16.26
2.3291,-9.2755,-1.7025,-0.059254,-0.025656,0.080023,-6.6,47.04,-16.14
2.3155,-9.3163,-1.7979,-0.069944,-0.0281,0.073915,-6.42,47.1,-16.14
2.3155,-9.3844,-1.7706,-0.073304,-0.01405,0.057727,-6.3,47.22,-16.08
2.3018,-9.4117,-1.757,-0.089186,-0.0030543,0.051924,-6.12,47.34,-16.14
2.3427,-9.3844,-1.7298,-0.090408,0.0030543,0.044593,-5.94,47.4,-16.14
2.3699,-9.4117,-1.8115,-0.086437,0.007025,0.04215,-5.64,47.34,-16.14
2.3427,-9.3436,-1.8524,-0.075136,0.009163,0.039401,-5.64,47.4,-16.02
2.3972,-9.3163,-1.9341,-0.075136,0.0027489,0.032987,-5.76,47.4,-15.78
2.4108,-9.3299,-1.866,-0.068111,0.0054978,0.02138,-5.82,47.52,-15.84
2.4108,-9.2891,-1.8932,-0.064446,0.002138,0.009163,-5.76,47.52,-15.66
2.4108,-9.2891,-1.9886,-0.062003,-0.016188,-0.0048869,-5.7,47.58,-15.72
2.438,-9.2891,-1.9886,-0.062003,-0.016188,-0.0048869,-5.7,47.58,-15.72
2.4517,-9.3163,-1.9341,-0.062614,-0.0281,-0.0088575,-5.82,47.52,-15.72
2.3972,-9.3299,-1.9477,-0.04948,-0.033903,-0.022907,-5.76,47.4,-15.72
2.3018,-9.3299,-2.0158,-0.057116,-0.028711,-0.027794,-5.82,47.16,-15.6
2.3699,-9.3436,-2.0294,-0.076053,-0.013134,-0.036346,-6.0,47.16,-15.54
2.3427,-9.3163,-1.9886,-0.065668,-0.010996,-0.043066,-5.88,47.16,-15.6
2.2746,-9.2891,-2.0567,-0.080329,0.0045815,-0.047953,-6.0,47.34,-15.42
2.3155,-9.2618,-1.9613,-0.079107,-0.014966,-0.049786,-6.12,47.34,-15.54
2.3155,-9.2482,-2.0294,-0.075747,-0.026573,-0.033598,-6.24,47.28,-15.54
2.3018,-9.3027,-2.0567,-0.057727,-0.039095,-0.023518,-6.12,47.28,-15.54
2.2337,-9.2755,-1.9477,-0.053145,-0.047342,-0.016188,-6.12,47.34,-15.54
2.2065,-9.2618,-1.8932,-0.054367,-0.050396,-0.007025,-6.06,47.4,-15.48
2.3699,-9.3163,-1.9068,-0.051313,-0.06353,0.009163,-6.12,47.34,-15.3
2.2882,-9.2891,-2.0294,-0.038179,-0.073915,0.023824,-6.18,47.4,-15.36
2.2474,-9.3027,-1.9886,-0.027794,-0.076358,0.039095,-6.24,47.58,-15.48
2.2474,-9.3027,-2.0567,-0.021075,-0.0562,0.031154,-6.3,47.58,-15.48
2.3427,-9.2482,-2.0294,-0.029932,-0.035736,0.026878,-6.24,47.52,-15.3
2.3155,-9.2755,-1.9068,-0.051924,-0.02138,0.019242,-6.36,47.46,-15.24
2.3836,-9.2755,-2.0022,-0.051924,-0.019853,0.014661,-6.3,47.52,-15.36
2.4653,-9.2618,-1.9205,-0.037874,-0.029932,0.019242,-6.18,47.46,-15.24
2.3836,-9.221,-2.0294,-0.019548,-0.033903,0.021686,-6.24,47.52,-15.24
2.3563,-9.1801,-1.9205,0.0024435,-0.034208,0.018937,-6.24,47.46,-15.18
2.4108,-9.2074,-1.9613,-0.000305,-0.03543,0.012523,-6.36,47.4,-15.36
2.3836,-9.2074,-2.0294,-0.002138,-0.037263,0.016493,-6.36,47.4,-15.3
2.4108,-9.2482,-2.0022,0.000916,-0.048869,0.0097738,-6.42,47.4,-15.24
2.438,-9.221,-2.0567,0.0061087,-0.04948,0.0030543,-6.48,47.28,-15.42
2.4108,-9.2618,-1.9613,0.0051924,-0.045509,0.0015272,-6.42,47.34,-15.48
2.3836,-9.2482,-2.0294,0.012523,-0.050702,-0.0018326,-6.36,47.46,-15.3
2.3836,-9.3027,-2.0294,0.0018326,-0.058032,-0.0073304,-6.36,47.4,-15.36
2.4244,-9.3572,-2.0839,0.012828,-0.067501,-0.01069,-6.3,47.4,-15.48
2.4108,-9.398,-2.1656,-0.0045815,-0.079107,-0.018021,-6.42,47.28,-15.42
2.3427,-9.4389,-2.1248,-0.007025,-0.079107,-0.025962,-6.48,47.4,-15.48
2.2474,-9.4117,-2.1248,-0.014355,-0.068111,-0.027489,-6.42,47.4,-15.48
2.3018,-9.4117,-2.1112,-0.021991,-0.053145,-0.035125,-6.3,47.52,-15.42
2.3427,-9.3572,-2.0294,-0.037568,-0.052229,-0.040012,-6.42,47.52,-15.36
2.3836,-9.3436,-2.0567,-0.058032,-0.047037,-0.032681,-6.48,47.46,-15.3
2.2746,-9.3844,-2.0567,-0.058032,-0.051924,-0.030849,-6.36,47.34,-15.42
2.261,-9.2891,-1.9613,-0.054978,-0.061392,-0.027794,-6.42,47.34,-15.3
2.2474,-9.3299,-1.9341,-0.050702,-0.057421,-0.023518,-6.48,47.28,-15.24
2.2882,-9.3572,-1.9886,-0.056505,-0.055283,-0.0042761,-6.6,47.22,-15.18
2.3427,-9.3436,-1.8387,-0.049786,-0.054062,-0.011912,-6.66,47.46,-15.3
2.261,-9.3436,-1.9068,-0.048258,-0.051618,-0.0085521,-6.66,47.58,-15.18
2.3155,-9.3436,-1.8524,-0.040623,-0.038485,-0.010079,-6.66,47.64,-15.18
2.2065,-9.3572,-1.8115,-0.049175,-0.0281,-0.011912,-6.78,47.52,-15.18
2.2746,-9.3572,-1.7706,-0.041539,-0.019853,-0.016188,-6.84,47.64,-15.12
2.2337,-9.2891,-1.8251,-0.03879,-0.018021,-0.014355,-7.14,47.52,-15.18
2.1929,-9.3163,-1.7706,-0.049175,-0.0088575,-0.012217,-7.08,47.46,-15.24
2.2474,-9.2891,-1.7025,-0.034208,0.0018326,-0.0085521,-7.2,47.4,-15.24
2.2474,-9.3436,-1.7706,-0.027184,0.0058032,-0.007025,-7.26,47.52,-15.18
2.2474,-9.3299,-1.7706,-0.015882,0.0036652,0.0082467,-7.32,47.52,-15.12
2.2746,-9.2891,-1.8115,-0.010385,0.0088575,0.009163,-7.32,47.76,-15.18
2.2201,-9.221,-1.7706,-0.019242,0.035736,0.0030543,-7.38,47.76,-15.18
2.2474,-9.3027,-1.866,-0.025045,0.048564,-0.000611,-7.38,47.46,-15.12
2.2882,-9.3436,-1.8932,-0.045815,0.07025,-0.018937,-7.5,47.34,-15.12
2.3155,-9.3163,-1.7979,-0.058032,0.069028,-0.031765,-7.5,47.34,-15.24
2.3836,-9.3436,-1.8387,-0.04948,0.066584,-0.046426,-7.68,47.52,-15.42
2.3836,-9.3299,-1.8932,-0.060781,0.06689,-0.054367,-7.8,47.52,-15.36
2.3291,-9.3027,-1.7706,-0.058338,0.062614,-0.078191,-7.86,47.76,-15.3
2.3291,-9.3163,-1.7843,-0.055589,0.06353,-0.081551,-7.86,47.82,-15.36
2.3155,-9.3027,-1.757,-0.054062,0.068111,-0.092241,-7.74,47.94,-15.36
2.3836,-9.2891,-1.8387,-0.054978,0.062919,-0.085827,-7.74,48.0,-15.36
2.3836,-9.2482,-1.8115,-0.048258,0.051313,-0.072082,-8.04,47.94,-15.42
2.3155,-9.1937,-1.9613,-0.034819,0.047342,-0.063835,-8.16,48.0,-15.48
2.3427,-9.1937,-1.7979,-0.036041,0.0562,-0.04948,-8.4,47.94,-15.54
2.3563,-9.221,-1.8387,-0.053145,0.096822,-0.064446,-8.52,48.0,-15.54
2.4108,-9.2482,-1.7025,-0.06017,0.11209,-0.084299,-8.46,48.12,-15.6
2.4517,-9.3027,-1.6344,-0.065973,0.12767,-0.10965,-8.64,48.06,-15.42
2.5061,-9.4934,-1.471,-0.034208,0.096211,-0.10904,-8.88,47.94,-15.3
2.4653,-9.507,-1.4574,0.026267,0.030238,-0.094379,-8.76,47.88,-15.36
2.4789,-9.5751,-1.3757,0.10171,-0.047647,-0.06017,-8.88,47.82,-15.36
2.3018,-9.6432,-1.6072,0.22205,-0.15516,0.035736,-8.94,47.82,-15.48
2.2882,-9.6432,-1.7434,0.25168,-0.18754,0.075136,-8.94,47.82,-15.48
2.2474,-9.6704,-1.866,0.30635,-0.26939,0.16952,-8.94,47.7,-15.48
2.2201,-9.6977,-1.8796,0.31887,-0.37141,0.28191,-8.82,47.76,-15.54
2.1656,-9.7385,-1.8932,0.27917,-0.42455,0.33017,-8.88,47.64,-15.6
2.0839,-9.6977,-2.0975,0.25809,-0.40348,0.3656,-8.76,47.46,-15.54
2.152,-9.793,-2.1793,0.27764,-0.3766,0.42577,-8.7,47.52,-15.72
2.2065,-9.7658,-2.1793,0.26878,-0.37568,0.45357,-8.58,47.52,-15.9
2.2065,-9.6704,-2.3155,0.26359,-0.37354,0.45784,-8.52,47.52,-16.02
2.1112,-9.7113,-2.2201,0.17349,-0.33078,0.44685,-8.34,47.46,-16.14
2.1793,-9.6568,-2.1248,0.11087,-0.25504,0.41997,-7.92,47.28,-16.32
2.2474,-9.507,-2.0294,0.051618,-0.20617,0.37843,-7.62,47.28,-16.38
2.1929,-9.3708,-1.8251,0.011606,-0.18815,0.33414,-7.56,47.16,-16.38
2.1793,-9.4934,-1.7298,-0.0036652,-0.18692,0.29993,-7.14,47.22,-16.5
2.0839,-9.5479,-1.7025,-0.026267,-0.18143,0.27947,-6.96,47.16,-16.5
2.0567,-9.6023,-1.5936,-0.025962,-0.15424,0.2755,-6.66,47.16,-16.74
1.975,-9.5887,-1.4301,-0.042761,-0.11087,0.26359,-6.36,47.16,-16.68
2.0294,-9.5479,-1.4846,-0.049175,-0.058338,0.24954,-6.18,47.34,-16.74
1.9886,-9.3163,-1.3757,-0.07025,0.023518,0.19731,-5.7,47.52,-16.98
2.0567,-9.1529,-1.3348,-0.075747,0.041844,0.17654,-5.52,47.46,-16.98
2.1248,-9.1256,-1.362,-0.07025,0.045204,0.13531,-5.28,47.52,-16.86
2.1384,-9.1393,-1.2939,-0.067195,0.000305,0.071166,-5.22,47.64,-16.86
1.975,-9.1529,-1.2803,-0.069639,-0.013439,0.02138,-5.16,47.88,-16.92
2.0158,-9.1256,-1.3076,-0.079412,-0.0024435,-0.026878,-5.1,48.0,-16.98
2.0431,-9.2482,-1.185,-0.078496,0.023518,-0.11026,-4.98,48.12,-16.98
2.0158,-9.3708,-1.2803,-0.058948,0.02474,-0.16127,-5.1,48.06,-16.98
2.0294,-9.4253,-1.2803,-0.061087,0.0058032,-0.20281,-5.16,48.12,-16.92
2.0431,-9.4389,-1.3212,-0.05284,-0.021686,-0.25168,-5.28,48.06,-16.68
2.0431,-9.4525,-1.3484,-0.053145,-0.050091,-0.28955,-5.34,48.18,-16.68
2.0294,-9.4798,-1.2258,-0.040623,-0.077274,-0.32987,-5.52,48.24,-16.74
2.0294,-9.5479,-1.3757,-0.040623,-0.089492,-0.3543,-5.64,48.18,-16.68
1.9341,-9.5751,-1.2531,-0.047953,-0.10965,-0.37018,-6.12,48.0,-16.56
1.9068,-9.5206,-1.5255,-0.038485,-0.11148,-0.37202,-6.42,47.88,-16.62
1.8932,-9.5615,-1.58,-0.035736,-0.10934,-0.36896,-6.54,47.82,-16.62
1.866,-9.4934,-1.58,-0.047953,-0.10568,-0.35522,-6.72,47.76,-16.5
1.9341,-9.4934,-1.5391,-0.059254,-0.099876,-0.33323,-7.5,47.58,-16.32
1.8796,-9.4389,-1.6208,-0.054672,-0.1127,-0.31001,-7.86,47.52,-16.32
1.8524,-9.4798,-1.6753,-0.062003,-0.11668,-0.2978,-8.22,47.46,-16.26
1.866,-9.5206,-1.6617,-0.068111,-0.12004,-0.27855,-8.88,47.58,-16.14
1.866,-9.4934,-1.7025,-0.077885,-0.11362,-0.26114,-9.12,47.64,-16.26
1.866,-9.5206,-1.7025,-0.087965,-0.10171,-0.22633,-9.6,47.52,-16.2
1.7706,-9.5751,-1.7162,-0.094684,-0.10782,-0.19731,-10.08,47.4,-15.96
1.7979,-9.5206,-1.7298,-0.09163,-0.098655,-0.13775,-10.44,47.4,-15.84
1.8251,-9.4525,-1.7979,-0.098655,-0.097128,-0.0956,-10.92,47.52,-15.72
1.8251,-9.507,-1.8524,-0.1066,-0.071471,-0.061087,-11.1,47.58,-15.6
1.8932,-9.4798,-1.8387,-0.11148,-0.071471,-0.045815,-11.46,47.46,-15.54
1.9205,-9.398,-1.8387,-0.12309,-0.065973,-0.000916,-11.94,47.28,-15.48
2.0294,-9.4117,-1.8387,-0.12523,-0.072082,0.024129,-12.24,47.22,-15.36
2.0703,-9.4389,-1.7979,-0.12553,-0.066279,0.058032,-12.36,47.22,-15.3
2.1248,-9.4798,-1.866,-0.10721,-0.078802,0.088575,-12.54,47.34,-15.3
2.1656,-9.4661,-1.8524,-0.079107,-0.11576,0.13011,-12.66,47.28,-15.36
2.1929,-9.3844,-1.9613,-0.06689,-0.12981,0.14416,-12.72,47.16,-15.42
2.1793,-9.4117,-1.9613,-0.059865,-0.13531,0.17074,-12.78,47.22,-15.36
2.1384,-9.3572,-1.9341,-0.071166,-0.13408,0.18754,-13.02,47.22,-15.42
2.1929,-9.5479,-2.0022,-0.064446,-0.13622,0.20525,-12.9,47.16,-15.42
2.2201,-9.4798,-1.9341,-0.068722,-0.14111,0.22724,-12.9,47.16,-15.42
2.2337,-9.5615,-2.0703,-0.073609,-0.13989,0.2419,-12.9,47.28,-15.42
2.2474,-9.5615,-1.9886,-0.078802,-0.13408,0.24282,-12.78,47.34,-15.42
2.3018,-9.6977,-2.1384,-0.075136,-0.13286,0.24709,-12.42,47.64,-15.18
2.2882,-9.6841,-2.1248,-0.076969,-0.14172,0.2474,-12.0,47.76,-15.12
2.3291,-9.6432,-2.2065,-0.079412,-0.16402,0.23488,-11.82,47.88,-15.06
2.2474,-9.6432,-2.1929,-0.10263,-0.1628,0.19334,-11.58,47.76,-14.88
2.3018,-9.5751,-2.152,-0.10873,-0.15455,0.17685,-11.16,47.76,-14.88
2.2201,-9.616,-2.2474,-0.12889,-0.13256,0.14966,-11.1,47.94,-14.88
2.2337,-9.4934,-2.2337,-0.15455,-0.13989,0.11881,-10.68,48.06,-14.58
2.2065,-9.398,-2.2065,-0.16982,-0.15058,0.094073,-10.56,48.12,-14.58
2.1929,-9.221,-2.2201,-0.18387,-0.16096,0.087965,-10.56,48.18,-14.46
2.1248,-9.1529,-2.1656,-0.18387,-0.16799,0.078802,-10.44,48.3,-14.1
2.1248,-9.1529,-2.1656,-0.18021,-0.17562,0.080023,-10.44,48.3,-14.1
2.1929,-9.1937,-2.1384,-0.16493,-0.20189,0.089797,-10.2,48.36,-13.92
2.1793,-9.1801,-2.0975,-0.15638,-0.22174,0.088575,-10.08,48.42,-13.86
2.152,-9.221,-2.0839,-0.13775,-0.26389,0.085827,-9.96,48.48,-13.74
2.1929,-9.2482,-2.1656,-0.13256,-0.27611,0.067806,-10.02,48.48,-13.74
2.1248,-9.3163,-2.1112,-0.12675,-0.27458,0.032681,-9.96,48.6,-13.62
2.0294,-9.2891,-2.1248,-0.12339,-0.26603,0.019242,-10.2,48.6,-13.38
2.0567,-9.2891,-2.1793,-0.12859,-0.25107,-0.019853,-10.26,48.72,-13.14
2.0431,-9.3163,-2.152,-0.13347,-0.24618,-0.048258,-10.26,48.84,-13.08
1.9886,-9.3163,-2.0294,-0.11698,-0.24862,-0.086743,-10.44,48.78,-12.96
1.9886,-9.3163,-2.1929,-0.10049,-0.24496,-0.10415,-10.44,48.84,-12.84
2.0294,-9.3299,-2.2474,-0.096517,-0.23793,-0.11912,-10.62,48.78,-12.72
1.8932,-9.221,-2.3836,-0.094684,-0.23793,-0.13225,-10.74,48.84,-12.78
1.8796,-9.2482,-2.2746,-0.096517,-0.21838,-0.16371,-10.86,48.9,-12.48
1.8251,-9.1393,-2.2474,-0.090103,-0.20892,-0.17532,-11.04,49.02,-12.36
1.8115,-9.1665,-2.4108,-0.097738,-0.18234,-0.20097,-11.16,49.08,-12.24
1.8387,-9.2482,-2.4517,-0.09896,-0.18204,-0.20556,-11.64,49.02,-12.0
1.8387,-9.2074,-2.4517,-0.10018,-0.17685,-0.20342,-12.0,48.84,-11.88
1.7979,-9.1801,-2.4789,-0.094684,-0.16432,-0.19578,-12.48,48.78,-11.7
1.6617,-9.1256,-2.4108,-0.090713,-0.15119,-0.19487,-12.66,48.66,-11.76
1.7298,-9.0848,-2.4517,-0.08827,-0.12706,-0.1854,-12.9,48.72,-11.58
1.7162,-9.1665,-2.4517,-0.097433,-0.097128,-0.17532,-13.02,48.78,-11.52
1.7434,-9.1937,-2.3427,-0.099266,-0.080023,-0.15821,-13.68,48.72,-11.46
1.7025,-9.1256,-2.3155,-0.092241,-0.074526,-0.15119,-13.92,48.72,-11.46
1.7706,-9.1529,-2.3291,-0.076969,-0.051313,-0.12309,-14.22,48.6,-11.46
1.7434,-9.112,-2.3836,-0.065668,-0.040623,-0.10782,-14.94,48.54,-11.46
1.7706,-9.1665,-2.3155,-0.054062,-0.043677,-0.098655,-15.42,48.42,-11.4
1.8387,-9.1937,-2.3155,-0.033598,-0.040623,-0.061087,-15.66,48.36,-11.4
1.6753,-9.1529,-2.3699,-0.03146,-0.037874,-0.033598,-16.08,48.54,-11.34
1.7843,-9.221,-2.2882,-0.0045815,-0.010996,-0.0027489,-16.44,48.66,-11.34
1.7434,-9.2755,-2.3427,0.0073304,-0.01405,0.025962,-16.86,48.66,-11.34
1.8932,-9.2618,-2.4789,0.026573,-0.0094684,0.051618,-16.98,48.54,-11.28
1.8387,-9.2891,-2.4108,0.027794,-0.015272,0.061392,-17.16,48.36,-11.34
1.866,-9.3163,-2.5061,0.036346,-0.012523,0.086743,-17.34,48.42,-11.4
1.8251,-9.2346,-2.5742,0.026878,-0.0097738,0.094379,-17.46,48.3,-11.22
1.8796,-9.2346,-2.5061,0.036346,0.0048869,0.10751,-17.52,48.24,-11.16
1.866,-9.2891,-2.6151,0.030849,0.010996,0.11881,-17.58,48.48,-11.1
1.8932,-9.2755,-2.5606,0.022907,0.01741,0.13134,-17.64,48.48,-11.04
1.9068,-9.2891,-2.5742,0.01405,0.028711,0.13042,-17.64,48.54,-11.16
1.9613,-9.3027,-2.5061,-0.0064141,0.038179,0.14111,-17.7,48.48,-11.28
1.8932,-9.3027,-2.4517,-0.0064141,0.044593,0.13164,-17.7,48.42,-11.34
1.9341,-9.2618,-2.4789,-0.019242,0.043371,0.13897,-17.46,48.54,-11.34
1.9613,-9.2891,-2.4244,-0.023213,0.046426,0.13042,-17.28,48.54,-11.34
1.9613,-9.3572,-2.4244,-0.019853,0.059865,0.11545,-17.22,48.6,-11.4
1.9477,-9.3436,-2.4517,-0.018631,0.067195,0.11454,-17.34,48.66,-11.58
1.9886,-9.3844,-2.3699,-0.026878,0.077885,0.092852,-17.22,48.6,-11.52
1.9886,-9.3844,-2.3699,-0.035125,0.078496,0.087048,-17.1,48.84,-11.58
1.9886,-9.3844,-2.4517,-0.036652,0.073915,0.076053,-16.92,48.96,-11.64
1.9341,-9.2074,-2.261,-0.036957,0.081551,0.060781,-16.74,48.78,-11.58
1.975,-9.2891,-2.2474,-0.023213,0.083994,0.042761,-16.56,48.78,-11.7
1.9477,-9.2618,-2.2474,-0.02474,0.074526,0.052534,-16.32,48.72,-11.7
1.9886,-9.2891,-2.3155,0.000916,0.055589,0.058338,-16.08,48.78,-11.64
1.9068,-9.2891,-2.3836,0.012523,0.04215,0.064446,-15.78,48.72,-11.82
1.8796,-9.2891,-2.3427,0.015882,0.040928,0.055589,-15.66,48.6,-11.94
1.8932,-9.2755,-2.5198,0.007025,0.054978,0.034819,-15.48,48.6,-12.0
1.866,-9.2891,-2.4789,-0.019548,0.065057,0.022907,-15.42,48.84,-11.94
1.866,-9.3027,-2.4517,-0.023518,0.067501,0.020159,-15.18,48.84,-11.76
1.9068,-9.3572,-2.547,-0.026267,0.067195,0.016493,-15.12,48.78,-11.76
1.8932,-9.2891,-2.4517,-0.035125,0.07086,0.01405,-15.06,48.72,-11.88
1.8796,-9.2482,-2.4517,-0.037568,0.074831,0.010079,-15.18,48.6,-12.06
1.8796,-9.3027,-2.3699,-0.029322,0.067501,0.011606,-15.12,48.66,-11.94
1.9613,-9.3163,-2.3427,-0.036041,0.05284,0.0061087,-15.24,48.66,-12.12
1.8932,-9.3708,-2.4108,-0.033598,0.053756,0.0061087,-15.36,48.66,-12.06
1.8932,-9.3163,-2.3972,-0.035125,0.064141,0.0094684,-15.42,48.72,-12.12
1.975,-9.2618,-2.4517,-0.033903,0.058643,0.0015272,-15.54,48.84,-11.7
1.9341,-9.3436,-2.4108,-0.036652,0.055894,0.0088575,-15.66,48.9,-11.64
1.9068,-9.3436,-2.3972,-0.026267,0.042455,0.010385,-15.54,49.02,-11.58
1.866,-9.2482,-2.3155,-0.031765,0.036957,0.021991,-15.84,48.9,-11.64
1.866,-9.2482,-2.4517,-0.029627,0.032376,0.02474,-15.84,48.9,-11.7
1.9205,-9.3436,-2.3699,-0.034819,0.041233,0.027794,-15.84,49.02,-11.7
1.9341,-9.3572,-2.4108,-0.041539,0.037874,0.033292,-15.66,48.96,-11.7
1.9613,-9.3436,-2.4108,-0.035125,0.043066,0.029016,-15.72,49.26,-11.4
2.0431,-9.3436,-2.4108,-0.043371,0.040928,0.01741,-15.84,49.26,-11.46
1.9477,-9.3436,-2.4108,-0.041539,0.040317,0.0033598,-15.84,49.38,-11.46
1.9886,-9.2891,-2.3427,-0.041233,0.037874,0.002138,-15.78,49.5,-11.28
1.9341,-9.2891,-2.3155,-0.054062,0.038179,0.0048869,-15.78,49.44,-11.34
1.9205,-9.2618,-2.3155,-0.042761,0.04948,0.0045815,-15.66,49.38,-11.46
1.9613,-9.3436,-2.2882,-0.04612,0.05681,0.0039706,-15.66,49.44,-11.58
1.9341,-9.3163,-2.3427,-0.049786,0.050091,0.0058032,-15.54,49.26,-11.64
1.9341,-9.2891,-2.2746,-0.043982,0.050702,0.007025,-15.48,49.32,-11.76
2.0022,-9.3027,-2.3155,-0.037568,0.039706,-0.0033598,-15.42,49.26,-11.76
1.866,-9.3027,-2.3155,-0.04612,0.043371,-0.01069,-15.36,49.32,-11.82
1.8932,-9.3027,-2.2882,-0.046426,0.059865,-0.014355,-15.48,49.38,-11.88
1.975,-9.3572,-2.261,-0.049786,0.069944,-0.0094684,-15.54,49.26,-11.88
1.9477,-9.4117,-2.261,-0.041233,0.059254,0.0058032,-15.48,49.14,-11.88
1.9886,-9.4117,-2.4108,-0.032376,0.04948,0.007025,-15.42,49.2,-12.0
1.8387,-9.4389,-2.3427,-0.025656,0.051313,0.0067195,-15.42,49.02,-12.18
1.866,-9.3572,-2.3291,-0.027794,0.061392,0.0033598,-15.3,49.02,-12.06
1.9068,-9.2891,-2.3836,-0.040623,0.075747,-0.0012217,-15.3,49.02,-12.18
1.9205,-9.3844,-2.3836,-0.059559,0.076053,0.0064141,-15.3,48.84,-12.3
1.9205,-9.3572,-2.3155,-0.057116,0.079718,0.01405,-15.42,48.78,-12.24
1.8796,-9.3844,-2.3972,-0.059865,0.086743,0.027184,-15.48,48.78,-12.24
1.9068,-9.3163,-2.3155,-0.057116,0.090713,0.031765,-15.42,48.84,-12.18
1.8932,-9.2891,-2.3155,-0.053756,0.094379,0.040012,-15.48,48.72,-12.12
1.9613,-9.3436,-2.2474,-0.061087,0.090103,0.042455,-15.54,48.72,-12.18
1.9613,-9.3436,-2.3018,-0.063835,0.091935,0.053756,-15.42,48.78,-12.12
2.0294,-9.3299,-2.2882,-0.058338,0.10201,0.051007,-15.3,48.84,-12.24
1.9613,-9.3436,-2.2337,-0.058338,0.10996,0.042455,-15.18,48.72,-12.12
2.0022,-9.3163,-2.3155,-0.061697,0.12217,0.047037,-15.12,48.78,-12.0
1.9886,-9.3436,-2.2474,-0.055894,0.12737,0.047953,-15.24,48.72,-12.0
2.0431,-9.3436,-2.2201,-0.07086,0.14019,0.041539,-15.12,48.72,-12.0
2.0294,-9.3027,-2.2746,-0.078496,0.15424,0.044593,-15.12,48.78,-11.88
2.0022,-9.2755,-2.2201,-0.062919,0.16432,0.04215,-15.12,48.9,-11.76
2.0294,-9.3436,-2.2065,-0.076664,0.17165,0.047953,-15.12,48.9,-11.64
2.0294,-9.3163,-2.2201,-0.064141,0.16402,0.051313,-15.06,48.96,-11.58
2.0294,-9.2755,-2.2882,-0.058643,0.16799,0.047342,-15.0,49.02,-11.64
2.0294,-9.2891,-2.3018,-0.061392,0.17837,0.05681,-14.64,48.96,-11.64
1.9613,-9.3163,-2.2201,-0.062308,0.19426,0.054367,-14.64,48.96,-11.64
1.9477,-9.3299,-2.2065,-0.068722,0.21686,0.067806,-14.58,48.96,-11.76
1.9205,-9.3572,-2.2065,-0.069028,0.23946,0.065973,-14.58,48.96,-11.88
2.0022,-9.3436,-2.2882,-0.059254,0.23121,0.065668,-14.4,49.08,-12.06
1.9613,-9.3708,-2.2882,-0.064141,0.2138,0.07086,-14.22,49.14,-12.12
1.9613,-9.3163,-2.2746,-0.055894,0.21319,0.074526,-13.92,49.2,-12.0
1.9886,-9.3299,-2.3563,-0.057727,0.22327,0.093462,-13.8,49.32,-12.12
1.9477,-9.2618,-2.2746,-0.058643,0.2419,0.09896,-13.62,49.2,-12.18
1.9886,-9.2755,-2.3018,-0.061697,0.26328,0.10263,-13.32,49.2,-12.24
2.0703,-9.3163,-2.2882,-0.061697,0.24954,0.12462,-13.2,49.2,-12.24
2.0567,-9.3844,-2.2882,-0.065668,0.24129,0.12767,-13.14,49.2,-12.18
2.0567,-9.3708,-2.3291,-0.056505,0.22602,0.1405,-13.08,49.02,-12.18
2.0431,-9.3844,-2.2746,-0.058643,0.23121,0.13195,-12.84,49.02,-12.24
2.0431,-9.3708,-2.3291,-0.07025,0.25198,0.13622,-12.78,48.9,-12.24
2.0839,-9.398,-2.3427,-0.089797,0.26237,0.13775,-12.6,48.84,-12.12
2.0839,-9.3844,-2.2882,-0.08491,0.26542,0.12401,-12.42,48.78,-12.3
2.0703,-9.4389,-2.2201,-0.089797,0.26481,0.11912,-12.24,48.78,-12.42
2.0703,-9.3844,-2.2201,-0.083994,0.26237,0.11057,-12.36,48.84,-12.3
2.0567,-9.3844,-2.2474,-0.07086,0.2416,0.10446,-12.18,48.66,-12.3
2.0294,-9.3844,-2.3427,-0.064752,0.23396,0.10599,-12.0,48.9,-12.3
1.975,-9.3844,-2.3699,-0.062614,0.22724,0.10934,-11.94,48.84,-12.48
1.8932,-9.3844,-2.3291,-0.07086,0.23091,0.1066,-11.82,48.84,-12.3
1.9341,-9.3708,-2.4517,-0.069333,0.24893,0.097738,-11.52,48.72,-12.48
1.9477,-9.4253,-2.438,-0.069333,0.24435,0.099876,-11.28,48.6,-12.48
1.9613,-9.4117,-2.3972,-0.075747,0.22449,0.10263,-11.04,48.72,-12.54
1.8932,-9.3844,-2.4517,-0.073304,0.19914,0.11087,-10.74,48.84,-12.42
1.8115,-9.3163,-2.547,-0.07025,0.19059,0.11148,-10.62,48.84,-12.42
1.8387,-9.3299,-2.5334,-0.076969,0.19823,0.12431,-10.56,48.96,-12.36
1.7979,-9.2891,-2.5879,-0.081245,0.208,0.13164,-10.44,48.9,-12.12
1.757,-9.2482,-2.547,-0.09499,0.20586,0.13683,-10.32,48.9,-12.18
1.7843,-9.2618,-2.6423,-0.097128,0.19823,0.14508,-10.08,48.9,-12.3
1.7979,-9.2891,-2.4653,-0.1014,0.1967,0.14539,-10.02,48.96,-12.36
1.757,-9.3163,-2.4925,-0.11209,0.20861,0.14355,-9.9,48.96,-12.48
1.7979,-9.2755,-2.547,-0.11362,0.22724,0.14325,-9.84,49.14,-12.48
1.8115,-9.2891,-2.438,-0.12217,0.23274,0.14203,-9.48,49.26,-12.3
1.866,-9.2482,-2.5061,-0.10843,0.23824,0.13836,-9.6,49.38,-12.18
1.866,-9.3163,-2.5061,-0.098044,0.23213,0.13225,-9.54,49.38,-12.12
1.8524,-9.1937,-2.4789,-0.093768,0.21625,0.11912,-9.54,49.26,-12.06
1.8796,-9.0167,-2.547,-0.082772,0.20525,0.11087,-9.42,49.26,-12.0
1.8115,-9.112,-2.5606,-0.06353,0.18906,0.094379,-9.0,49.14,-12.06
1.8932,-9.1665,-2.6696,-0.065363,0.19303,0.10018,-8.76,49.08,-12.12
1.8524,-9.1393,-2.6696,-0.054978,0.18387,0.083994,-8.7,49.08,-12.12
1.866,-9.1665,-2.6696,-0.048564,0.18448,0.081245,-8.7,49.08,-12.06
1.866,-9.2618,-2.7377,-0.046426,0.15455,0.069944,-8.34,49.02,-12.0
1.9068,-9.1937,-2.7377,-0.028405,0.12737,0.059254,-8.34,48.9,-11.94
1.8387,-9.1256,-2.7377,-0.028405,0.11668,0.045815,-8.22,48.78,-11.94
1.866,-9.0984,-2.7649,-0.020464,0.10385,0.047342,-8.16,48.72,-11.88
1.8524,-9.0575,-2.8058,-0.016493,0.095906,0.043066,-8.04,48.66,-11.94
1.866,-9.0167,-2.8603,-0.01741,0.074831,0.023213,-7.44,48.78,-12.12
1.9068,-9.0575,-2.6968,-0.028405,0.065057,0.020159,-7.2,48.6,-12.18
1.9613,-9.0848,-2.8603,-0.029627,0.056505,0.0076358,-7.2,48.66,-12.24
1.9477,-9.0167,-2.6696,-0.032376,0.052534,-0.0012217,-6.96,48.72,-12.3
2.0158,-9.0303,-2.6968,-0.018631,0.029016,-0.015272,-7.02,48.78,-12.3
2.0567,-9.0984,-2.6287,-0.013134,0.014355,-0.016188,-7.08,48.84,-12.24
2.0567,-9.2074,-2.5879,-0.0027489,-0.0079412,-0.022602,-6.9,48.78,-12.18
2.0567,-9.4117,-2.6423,0.0067195,-0.035125,-0.029627,-6.78,48.9,-12.0
1.9886,-9.398,-2.6287,0.0097738,-0.030543,-0.027184,-6.72,48.84,-12.0
1.9886,-9.4798,-2.5879,-0.000611,-0.017715,-0.041539,-6.6,48.9,-12.06
1.9886,-9.3844,-2.5061,-0.021686,0.019548,-0.089797,-6.78,49.02,-12.42
1.9886,-9.3027,-2.3699,-0.041233,0.043677,-0.13042,-6.96,49.02,-12.54
1.9341,-9.1937,-2.3836,-0.046731,0.05681,-0.14691,-7.08,49.14,-12.66
1.9477,-9.1256,-2.2337,-0.067501,0.077274,-0.18418,-7.32,49.08,-12.78
1.866,-9.0439,-2.152,-0.069944,0.097128,-0.20067,-7.32,49.14,-12.9
1.8524,-9.1256,-2.0703,-0.063835,0.10965,-0.19731,-7.38,49.08,-12.96
1.866,-9.1937,-2.1248,-0.0281,0.12187,-0.17959,-7.62,49.14,-13.26
1.8932,-9.1937,-2.1112,-0.0012217,0.11362,-0.16218,-7.62,49.26,-13.44
1.8524,-9.1937,-2.0567,0.012217,0.10965,-0.14203,-7.86,49.38,-13.62
1.9068,-9.0984,-2.0294,0.043982,0.11026,-0.091019,-7.92,49.38,-13.74
2.0431,-9.1393,-2.1793,0.067501,0.10201,-0.045815,-8.28,49.32,-13.74
1.9886,-9.0848,-2.1929,0.07422,0.10049,-0.014661,-8.4,49.32,-13.68
2.0703,-9.1937,-2.2474,0.07422,0.11057,-0.0015272,-8.52,49.32,-13.74
2.1248,-9.2074,-2.3563,0.033598,0.16432,0.0051924,-8.7,49.2,-13.8
2.2201,-9.2618,-2.3427,0.010079,0.21075,-0.0073304,-8.76,49.08,-13.68
2.152,-9.1937,-2.3018,0.0061087,0.21777,-0.014966,-8.82,49.02,-13.8
2.438,-9.1937,-2.2474,-0.01069,0.21166,-0.025045,-8.88,49.08,-13.8
2.2474,-9.2074,-2.2882,-0.010385,0.19273,-0.032376,-9.0,48.96,-13.74
2.2201,-9.3163,-2.2201,-0.025351,0.20128,-0.011301,-9.0,48.9,-13.86
2.2474,-9.3844,-2.2474,-0.027184,0.20067,-0.0061087,-8.94,48.9,-13.8
2.2882,-9.3436,-2.1112,-0.043982,0.22083,0.016493,-9.06,48.78,-13.8
2.3018,-9.3844,-2.0839,-0.053145,0.26206,0.01069,-8.94,48.72,-13.92
2.261,-9.3436,-2.0975,-0.068722,0.29841,0.0097738,-8.88,48.78,-14.28
2.4244,-9.221,-2.0158,-0.068111,0.3091,-0.000305,-8.64,48.84,-14.4
2.4517,-9.2755,-1.9068,-0.072693,0.29566,-0.0067195,-8.58,48.9,-14.34
2.4108,-9.4117,-1.8796,-0.054062,0.2587,-0.0036652,-8.34,49.14,-14.4
2.3699,-9.3844,-1.8932,-0.038485,0.23518,0.0012217,-8.16,49.02,-14.52
2.4789,-9.3708,-1.8387,-0.022602,0.22358,0.0097738,-8.16,49.08,-14.46
2.438,-9.4253,-1.8115,0.024435,0.16127,0.036346,-7.92,49.02,-14.52
2.4789,-9.3844,-1.9341,0.051924,0.11179,0.081856,-7.74,49.08,-14.7
2.5061,-9.3844,-1.9886,0.081245,0.069333,0.13439,-7.62,49.14,-14.58
2.4108,-9.3436,-1.9613,0.087659,0.062003,0.14203,-7.44,48.96,-14.76
2.438,-9.3436,-2.0022,0.073304,0.072388,0.15119,-7.14,49.14,-14.82
2.5061,-9.3844,-2.0158,0.07422,0.069333,0.14691,-7.08,49.26,-14.7
2.547,-9.4389,-2.1656,0.083078,0.043066,0.14508,-6.6,49.2,-14.7
2.6287,-9.4389,-2.1929,0.090408,-0.0042761,0.14844,-6.42,49.14,-14.7
2.5879,-9.4934,-2.1656,0.097738,-0.058338,0.14203,-5.7,49.08,-14.94
2.5334,-9.5479,-2.1112,0.098349,-0.091019,0.13042,-5.52,48.9,-15.06
2.4789,-9.5479,-2.1248,0.08827,-0.11484,0.10324,-5.28,48.78,-15.12
2.5606,-9.4934,-2.152,0.084299,-0.14142,0.083689,-5.1,48.78,-15.18
2.6015,-9.5479,-2.152,0.074526,-0.15424,0.065057,-4.86,48.66,-15.42
2.547,-9.6841,-2.0703,0.065363,-0.17837,0.045815,-4.62,48.3,-15.42
2.4517,-9.6568,-2.0703,0.043982,-0.17776,0.023824,-4.5,47.94,-15.72
2.4244,-9.5751,-1.9886,0.032376,-0.17074,0.007025,-4.32,47.76,-15.96
2.4108,-9.5479,-1.9341,0.0033598,-0.15699,-0.032681,-4.38,47.7,-15.96
2.4108,-9.4798,-1.9341,-0.009163,-0.15913,-0.043066,-4.5,47.76,-16.08
2.3699,-9.5615,-1.9341,-0.0048869,-0.14905,-0.055283,-4.44,47.64,-15.96
2.4517,-9.6023,-1.9341,-0.0079412,-0.16493,-0.053756,-4.56,47.52,-16.08
2.3836,-9.5887,-2.0294,-0.027794,-0.18021,-0.046731,-4.5,47.52,-16.08
2.1929,-9.3844,-1.8524,-0.069333,-0.15363,-0.067806,-4.56,47.52,-16.02
2.1384,-9.3299,-1.866,-0.10751,-0.096211,-0.087965,-4.68,47.52,-16.08
2.1929,-9.3299,-1.8387,-0.11057,-0.055589,-0.10537,-4.62,47.58,-16.08
2.2201,-9.3708,-1.7979,-0.13714,-0.02138,-0.099266,-4.92,47.76,-16.08
2.1929,-9.3844,-1.7706,-0.13164,0.0079412,-0.099876,-4.92,47.76,-16.08
2.152,-9.3163,-1.7434,-0.14019,0.028405,-0.092852,-4.92,47.88,-16.02
2.261,-9.2346,-1.6753,-0.13714,0.047342,-0.091324,-5.34,47.94,-15.96
2.2337,-9.2074,-1.6344,-0.13867,0.043677,-0.091019,-5.46,48.0,-15.96
2.261,-9.2074,-1.5663,-0.12737,0.042455,-0.092546,-5.52,48.06,-15.9
2.3291,-9.3436,-1.6208,-0.11148,0.026573,-0.069333,-5.76,48.3,-15.78
2.261,-9.2482,-1.5936,-0.08827,0.013134,-0.058948,-5.94,48.42,-15.66
2.261,-9.2482,-1.6753,-0.067501,0.018326,-0.028405,-6.12,48.42,-15.66
2.3155,-9.2755,-1.6481,-0.050702,0.010996,-0.0048869,-6.18,48.24,-15.42
2.3291,-9.221,-1.6344,-0.03879,0.01069,0.0067195,-6.18,48.24,-15.36
2.3155,-9.2482,-1.7025,-0.0281,0.011912,0.0073304,-6.3,48.18,-15.3
2.3155,-9.1937,-1.757,-0.027184,0.015577,0.018021,-6.36,48.18,-15.12
2.3563,-9.1529,-1.7706,-0.022907,0.018326,0.016799,-6.36,48.18,-15.06
2.4108,-9.112,-1.8251,-0.017715,0.018937,0.019853,-6.48,48.0,-15.0
2.4108,-9.2074,-1.8387,-0.025045,0.02138,0.042455,-6.54,48.0,-14.88
2.4108,-9.221,-1.7979,-0.014661,0.013744,0.046731,-6.48,48.12,-14.7
2.4108,-9.2755,-1.866,-0.018631,0.017715,0.050396,-6.48,47.94,-14.76
2.3972,-9.2346,-1.7979,-0.014661,0.018937,0.055283,-6.54,47.82,-14.88
2.4789,-9.1937,-1.8932,-0.012217,0.0079412,0.059559,-6.48,47.88,-15.0
2.4517,-9.2891,-1.975,-0.0061087,0.0048869,0.04948,-6.36,47.94,-15.12
2.547,-9.3436,-1.9886,-0.019548,0.0097738,0.036652,-6.36,47.94,-15.12
2.5742,-9.4117,-2.0294,-0.037263,0.034819,0.018021,-6.36,48.06,-15.12
2.5742,-9.3844,-1.9886,-0.043982,0.04215,0.0033598,-6.3,48.18,-15.12
2.5061,-9.4117,-2.0567,-0.058643,0.047647,-0.023824,-6.24,48.24,-15.18
2.547,-9.4253,-2.0294,-0.076358,0.050396,-0.065668,-6.06,48.36,-15.18
2.6151,-9.4389,-1.9613,-0.085216,0.051007,-0.093462,-6.0,48.36,-15.12
2.547,-9.4389,-1.9205,-0.097128,0.048869,-0.10996,-6.06,48.48,-15.24
2.5606,-9.507,-1.9886,-0.10079,0.04948,-0.12889,-5.94,48.3,-15.24
2.4517,-9.4117,-1.866,-0.097738,0.04612,-0.13928,-6.0,48.42,-15.24
2.4517,-9.3572,-1.8115,-0.10415,0.050396,-0.1292,-6.0,48.3,-15.3
2.5198,-9.3844,-1.8251,-0.10049,0.030849,-0.11637,-5.88,48.24,-15.12
2.5334,-9.4253,-1.9341,-0.080634,0.023213,-0.094379,-6.0,48.24,-15.0
2.4925,-9.3708,-1.9205,-0.0562,-0.0097738,-0.055283,-5.94,48.42,-14.94
2.4517,-9.4389,-1.8387,-0.049786,-0.025656,-0.037263,-6.06,48.18,-14.88
2.5061,-9.4389,-1.9341,-0.037263,-0.035736,-0.024435,-6.18,48.06,-15.0
2.4517,-9.4389,-1.8524,-0.033292,-0.040317,-0.018937,-6.3,47.94,-15.06
2.547,-9.3708,-1.866,-0.027489,-0.03879,-0.020159,-6.3,48.06,-15.0
2.547,-9.4117,-1.9068,-0.022297,-0.045509,-0.011606,-6.48,48.18,-15.06
2.5606,-9.398,-1.9341,-0.026573,-0.05681,-0.007025,-6.48,48.06,-14.94
2.6015,-9.2755,-1.9613,-0.025656,-0.068722,-0.0064141,-6.54,48.06,-14.94
2.5334,-9.3844,-1.866,-0.018937,-0.076053,0.010996,-6.42,48.06,-15.0
2.6015,-9.3844,-1.9477,-0.016799,-0.092241,0.016799,-6.3,48.24,-14.82
2.5742,-9.3436,-2.0022,-0.025045,-0.082467,0.023824,-6.42,48.24,-14.82
2.547,-9.3436,-1.9613,-0.029322,-0.073304,0.02138,-6.48,48.36,-14.64
2.5198,-9.3436,-1.9613,-0.025656,-0.065973,0.013744,-6.6,48.24,-14.64
2.5061,-9.398,-1.9477,-0.035125,-0.06017,0.0067195,-6.48,48.3,-14.76
2.4925,-9.3844,-1.9205,-0.047647,-0.053756,0.0048869,-6.54,48.42,-14.58
2.4789,-9.3436,-1.8932,-0.048869,-0.047953,0.0061087,-6.42,48.48,-14.58
2.4925,-9.398,-1.9205,-0.0562,-0.032987,0.0045815,-6.54,48.36,-14.64
2.4789,-9.2482,-1.8932,-0.052534,-0.022297,0.0061087,-6.72,48.24,-14.46
2.4925,-9.2755,-1.9613,-0.051007,-0.018631,0.01405,-6.72,48.3,-14.52
2.3836,-9.2346,-1.866,-0.049175,-0.020769,0.0085521,-6.96,48.18,-14.4
2.4653,-9.2346,-1.8932,-0.054062,-0.025045,0.01405,-6.96,48.18,-14.46
2.4517,-9.2346,-1.8796,-0.043371,-0.02474,0.022297,-7.08,48.06,-14.46
2.4517,-9.2891,-1.9341,-0.040623,-0.03207,0.041233,-7.02,48.06,-14.52
2.438,-9.221,-1.9477,-0.035125,-0.037874,0.045815,-6.96,48.0,-14.88
2.5061,-9.1665,-1.9068,-0.022907,-0.031765,0.039401,-6.96,48.06,-14.88
2.4653,-9.2074,-1.866,-0.030238,-0.019853,0.054672,-6.84,48.12,-14.76
2.4517,-9.1529,-2.0022,-0.034208,0.0033598,0.054062,-6.78,48.06,-14.7
2.4653,-9.2482,-2.0022,-0.040012,0.0058032,0.054672,-6.9,48.12,-14.58
2.5061,-9.2891,-1.9886,-0.034514,0.021991,0.059559,-6.78,48.12,-14.46
2.547,-9.3163,-1.8932,-0.013744,0.025045,0.081856,-6.78,48.18,-14.7
2.6423,-9.3572,-2.0158,-0.000305,0.0042761,0.096211,-6.54,48.12,-14.88
2.6015,-9.3572,-1.9886,0.019242,-0.029322,0.11332,-6.54,48.18,-14.94
2.5742,-9.2074,-2.0975,0.041539,-0.043066,0.13195,-6.42,48.0,-14.82
2.547,-9.1256,-2.1929,0.040623,-0.052534,0.14019,-6.24,48.06,-14.82
2.5334,-9.112,-2.0839,0.029322,-0.05284,0.13439,-6.12,48.06,-14.76
2.547,-9.1937,-2.152,0.0061087,-0.032681,0.13317,-6.06,47.94,-14.76
2.5334,-9.2346,-2.2065,-0.010996,-0.0048869,0.1124,-6.06,47.82,-14.88
2.5061,-9.2891,-2.2065,-0.029016,0.031765,0.10568,-5.94,47.82,-15.0
2.547,-9.3572,-2.152,-0.039706,0.051313,0.098349,-5.76,48.0,-15.24
2.5879,-9.3027,-2.1112,-0.044899,0.061697,0.088575,-5.58,47.76,-15.42
2.5334,-9.221,-2.0567,-0.050702,0.073915,0.073609,-5.52,47.88,-15.48
2.5334,-9.2482,-2.0294,-0.062003,0.088575,0.046426,-5.34,47.58,-15.36
2.5606,-9.221,-1.9613,-0.046731,0.076358,0.041539,-5.34,47.64,-15.42
2.547,-9.2482,-2.0022,-0.044288,0.059254,0.049786,-5.28,47.7,-15.36
2.5879,-9.2618,-2.1384,-0.022602,0.016493,0.071166,-5.16,47.76,-15.48
2.5742,-9.2618,-2.0975,0.0033598,-0.0064141,0.080634,-5.28,47.82,-15.6
2.6423,-9.221,-2.0975,0.0073304,-0.017715,0.086132,-5.22,47.82,-15.6
2.5334,-9.2891,-2.0975,0.0076358,-0.036652,0.073304,-5.04,47.88,-15.78
2.4925,-9.2891,-2.2201,-0.0061087,-0.034819,0.062614,-4.92,47.94,-15.66
2.5742,-9.3708,-2.3155,-0.015272,-0.032987,0.061087,-4.98,47.94,-15.78
2.5334,-9.2618,-2.2474,-0.041844,-0.037874,0.025045,-4.98,47.88,-15.66
2.6015,-9.3436,-2.261,-0.051313,-0.036652,0.01405,-4.86,48.12,-15.6
2.6015,-9.3572,-2.2201,-0.058948,-0.044288,0.010079,-4.8,48.0,-15.6
2.5061,-9.3436,-2.1929,-0.080634,-0.044593,-0.018937,-4.8,48.36,-15.48
2.4789,-9.3299,-2.1793,-0.098044,-0.039401,-0.032681,-4.74,48.36,-15.42
2.4789,-9.2891,-2.2474,-0.10996,-0.026878,-0.044288,-4.68,48.36,-15.42
2.4789,-9.2891,-2.0567,-0.12492,-0.016493,-0.063225,-4.56,48.24,-15.48
2.4108,-9.3163,-2.0158,-0.12339,-0.0067195,-0.065973,-4.56,48.24,-15.48
2.4108,-9.3436,-2.0567,-0.12278,-0.018631,-0.078191,-4.56,48.12,-15.48
2.3972,-9.3163,-1.9613,-0.11454,-0.021991,-0.079718,-4.5,48.12,-15.42
2.3836,-9.2074,-1.9613,-0.10873,-0.027794,-0.083383,-4.5,48.18,-15.36
2.3155,-9.1529,-1.9068,-0.095295,-0.017104,-0.093157,-4.56,48.24,-15.24
2.3291,-9.2618,-1.8932,-0.092852,-0.012217,-0.084605,-4.86,48.18,-15.3
2.3563,-9.221,-1.9477,-0.072998,-0.010385,-0.06017,-4.98,48.06,-15.18
2.3427,-9.1937,-1.9205,-0.067195,-0.0076358,-0.022907,-5.1,48.06,-15.36
2.3155,-9.1937,-1.9886,-0.049786,0.0012217,-0.0039706,-5.28,47.88,-15.24
2.3836,-9.1937,-2.0294,-0.043982,0.012828,0.020159,-5.28,47.94,-15.24
2.4244,-9.2618,-2.0975,-0.037263,0.017715,0.03543,-5.34,47.82,-15.24
2.4517,-9.1665,-2.1793,-0.029932,0.013744,0.055283,-5.34,48.0,-15.18
2.547,-9.2618,-2.1929,-0.015577,-0.01069,0.064446,-5.28,47.94,-15.12
2.4925,-9.2755,-2.2201,-0.000305,-0.020769,0.06689,-5.34,48.06,-15.0
2.4925,-9.2618,-2.261,0.0027489,-0.029016,0.076969,-5.4,48.0,-15.0
2.4925,-9.2482,-2.1929,0.000305,-0.045815,0.078802,-5.34,47.82,-15.0
2.4789,-9.3436,-2.3427,-0.0024435,-0.043677,0.086132,-5.34,47.76,-15.0
2.5334,-9.3708,-2.2882,-0.012523,-0.037568,0.081551,-5.1,47.64,-14.94
2.6015,-9.3572,-2.3563,-0.017104,-0.032681,0.072082,-5.1,47.64,-15.18
2.5198,-9.2891,-2.3836,-0.031154,-0.030849,0.062308,-5.1,47.58,-15.18
2.5198,-9.3572,-2.3018,-0.032987,-0.029627,0.061392,-4.98,47.7,-15.24
2.4789,-9.221,-2.2882,-0.043677,-0.013134,0.032987,-4.98,47.64,-15.24
2.5198,-9.2755,-2.2201,-0.049786,-0.007025,0.013439,-4.86,47.7,-15.3
2.5334,-9.2891,-2.1112,-0.057116,0.0045815,0.0061087,-4.92,47.7,-15.36
2.5061,-9.2346,-2.1248,-0.057727,0.0027489,0.0073304,-4.98,47.76,-15.36
2.5061,-9.1937,-2.1384,-0.059865,0.000611,0.011301,-4.98,47.82,-15.48
2.5198,-9.1665,-2.1656,-0.059254,0.0036652,0.0082467,-4.92,47.76,-15.36
2.4925,-9.112,-2.2065,-0.050091,-0.0054978,0.0073304,-5.04,48.0,-15.3
2.4789,-9.112,-2.152,-0.037263,0.0015272,0.0018326,-4.86,47.82,-15.42
2.4244,-9.0712,-2.2201,-0.050091,0.002138,0.0024435,-4.92,47.94,-15.36
2.4789,-9.1529,-2.0975,-0.03543,0.0051924,-0.000305,-4.92,47.94,-15.12
2.4108,-9.221,-2.0567,-0.043982,0.0094684,0.0064141,-4.86,48.0,-15.0
2.4244,-9.3027,-2.1248,-0.029322,0.0058032,0.010996,-4.98,47.94,-15.06
2.4789,-9.3027,-2.0703,-0.028711,0.019548,0.015882,-4.92,48.06,-15.12
2.4517,-9.2891,-2.1793,-0.022907,0.027489,0.013134,-4.86,48.12,-15.18
2.4517,-9.2891,-2.0839,-0.024129,0.032376,0.002138,-4.86,48.18,-15.36
2.4517,-9.1801,-2.2337,-0.022297,0.035736,0.0036652,-4.98,48.18,-15.24
2.3836,-9.1393,-2.152,-0.014966,0.029627,-0.0015272,-4.92,48.18,-15.24
2.4108,-9.2482,-2.0431,-0.01069,0.029322,0.0030543,-4.98,48.3,-15.3
2.4789,-9.2346,-2.2337,-0.0030543,0.0079412,0.019853,-5.04,48.24,-15.42
2.5061,-9.3027,-2.2201,0.0064141,-0.0051924,0.044899,-5.16,48.3,-15.42
2.4244,-9.2755,-2.1929,0.020769,0.0024435,0.047037,-5.04,48.24,-15.36
2.4517,-9.2074,-2.2337,0.0094684,0.0042761,0.047953,-5.16,48.3,-15.54
2.4653,-9.2482,-2.2201,-0.019242,0.013744,0.041233,-5.16,48.36,-15.54
2.4653,-9.2755,-2.1656,-0.02474,0.012828,0.029016,-5.16,48.36,-15.48
2.4925,-9.3436,-2.2065,-0.024435,0.009163,0.026878,-5.04,48.18,-15.42
2.438,-9.3572,-2.152,-0.023518,0.010996,0.031154,-5.16,48.06,-15.36
2.4517,-9.2891,-2.1112,-0.025045,0.014355,0.028405,-5.16,48.0,-15.36
2.4244,-9.3163,-2.2474,-0.029322,0.025351,0.030849,-5.16,48.12,-15.3
2.438,-9.3163,-2.1384,-0.025656,0.018021,0.03146,-5.22,47.88,-15.3
2.4108,-9.2618,-2.1384,-0.033292,0.019242,0.039095,-5.04,47.88,-15.3
2.4517,-9.2482,-1.9886,-0.027184,0.015272,0.045204,-4.98,47.94,-15.3
2.4517,-9.221,-2.0975,-0.023213,0.01741,0.040928,-5.04,47.88,-15.36
2.5061,-9.2346,-2.0839,-0.023824,0.021686,0.048564,-5.04,47.82,-15.42
2.4517,-9.2755,-2.0975,-0.017715,0.018021,0.04612,-4.86,47.76,-15.48
2.3836,-9.2891,-2.0294,-0.018326,0.0061087,0.047953,-4.92,47.94,-15.6
2.4244,-9.3027,-1.975,-0.013439,0.011606,0.056505,-4.74,47.88,-15.54
2.3972,-9.2346,-2.0022,-0.015577,0.015272,0.058032,-4.92,48.0,-15.66
2.4517,-9.2482,-2.0975,-0.013439,0.022602,0.053756,-4.86,48.06,-15.66
2.4517,-9.1937,-2.0567,-0.0088575,0.01741,0.057116,-4.86,48.06,-15.66
2.4653,-9.2074,-2.0567,-0.0085521,0.0094684,0.053756,-4.8,48.0,-15.78
2.4789,-9.2891,-2.1112,-0.0039706,0.011301,0.058338,-4.68,48.12,-15.78
2.4108,-9.2891,-2.0839,0.0088575,0.015577,0.055283,-4.74,48.0,-15.9
2.4789,-9.3163,-2.0294,0.000611,0.012828,0.053145,-4.74,47.94,-15.96
2.4653,-9.3299,-2.1248,0.0073304,0.022297,0.0562,-4.86,47.94,-15.9
2.4653,-9.2618,-2.1656,0.0058032,0.025656,0.050091,-4.62,48.12,-15.78
2.4244,-9.2618,-2.1793,0.0018326,0.031765,0.05284,-4.8,48.12,-15.72
2.4925,-9.221,-2.152,-0.0015272,0.017715,0.049786,-4.74,48.06,-15.78
2.4108,-9.2482,-2.1248,-0.0067195,0.015882,0.055589,-4.86,47.94,-15.66
2.438,-9.2482,-2.1248,-0.000611,0.0064141,0.053451,-4.74,47.7,-15.78
2.4517,-9.1937,-2.1248,-0.01405,0.0042761,0.052229,-4.62,47.64,-15.72
2.438,-9.1937,-2.1793,-0.0085521,0.01405,0.053145,-4.62,47.82,-15.72
2.4517,-9.3163,-2.0839,-0.011301,0.0094684,0.053145,-4.56,47.82,-15.84
2.4789,-9.3436,-2.1384,0.0015272,-0.002138,0.052534,-4.5,47.82,-15.84
2.4789,-9.3436,-2.0839,-0.000916,-0.0039706,0.060781,-4.5,47.88,-15.84
2.4653,-9.221,-1.9886,-0.0051924,-0.0015272,0.054367,-4.38,47.88,-15.84
2.4653,-9.3163,-2.0431,-0.015577,0.000611,0.031154,-4.2,47.88,-15.96
2.5061,-9.398,-2.0839,-0.03543,-0.0076358,0.029322,-4.26,47.82,-15.9
2.547,-9.507,-2.0703,-0.033292,-0.025351,0.025045,-4.2,47.88,-15.96
2.4517,-9.4934,-2.0567,-0.028711,-0.040317,0.018937,-4.08,47.94,-15.96
2.4244,-9.4525,-1.9886,-0.024129,-0.03543,0.015882,-3.84,47.94,-16.02
2.438,-9.4117,-1.8932,-0.026267,-0.019853,0.0036652,-3.9,48.06,-15.84
2.4108,-9.3436,-1.9341,-0.033292,-0.0012217,-0.0076358,-4.02,48.06,-15.72
2.438,-9.4117,-1.9613,-0.039401,0.000305,-0.024129,-4.02,48.0,-15.72
2.3427,-9.3708,-1.9477,-0.045204,-0.0018326,-0.0281,-4.02,48.06,-15.54
2.3699,-9.3844,-1.8796,-0.054672,0.0042761,-0.040623,-4.08,48.06,-15.48
2.3427,-9.3163,-1.9341,-0.058948,0.012828,-0.044288,-3.96,48.18,-15.42
2.3427,-9.3436,-1.9068,-0.054672,0.024435,-0.051618,-4.26,48.24,-15.36
2.3836,-9.3163,-1.9341,-0.038179,0.0097738,-0.048564,-4.26,48.3,-15.24
2.3836,-9.2755,-1.9068,-0.026267,-0.036346,-0.032681,-4.44,48.3,-15.36
2.3563,-9.3163,-1.9205,-0.018326,-0.074526,-0.029627,-4.56,48.18,-15.3
2.2882,-9.2618,-1.7843,-0.0039706,-0.10263,-0.0088575,-4.8,48.06,-15.3
2.3427,-9.3299,-1.8387,0.0042761,-0.12431,-0.000916,-4.92,48.0,-15.24
2.3018,-9.3844,-1.8796,0.01069,-0.13958,0.0073304,-5.1,48.12,-15.24
2.2882,-9.3163,-1.8387,0.019853,-0.15577,0.014355,-5.16,48.24,-15.24
2.2882,-9.3299,-1.7706,0.0085521,-0.1405,-0.0036652,-5.22,48.36,-15.24
2.2201,-9.3027,-1.7979,-0.0073304,-0.11851,-0.011606,-5.52,48.36,-15.24
2.1929,-9.3844,-1.7434,-0.027184,-0.091019,-0.032376,-5.64,48.24,-15.24
2.2065,-9.3027,-1.6753,-0.041233,-0.066584,-0.059865,-5.94,47.94,-15.36
2.1929,-9.3436,-1.5936,-0.051007,-0.043066,-0.076358,-6.18,48.06,-15.48
2.152,-9.3708,-1.6072,-0.05284,-0.022297,-0.08827,-6.36,48.06,-15.48
2.1793,-9.3027,-1.58,-0.045204,0.014661,-0.10415,-6.48,48.0,-15.48
2.152,-9.3299,-1.5391,-0.043066,0.034208,-0.10507,-6.66,48.06,-15.66
2.2201,-9.3299,-1.5119,-0.021075,0.048564,-0.098655,-6.66,48.12,-15.6
2.2201,-9.4253,-1.3893,0.0012217,0.047647,-0.08094,-7.02,48.12,-15.54
2.2882,-9.4525,-1.7162,0.037568,0.01069,-0.029932,-7.14,48.18,-15.6
2.3155,-9.3436,-1.6753,0.064141,-0.014661,-0.0048869,-7.32,48.12,-15.66
2.3291,-9.3299,-1.7706,0.11423,-0.087354,0.081551,-7.44,48.12,-15.6
2.2474,-9.3299,-1.9068,0.1408,-0.12034,0.10904,-7.56,48.0,-15.6
2.3018,-9.3299,-1.9886,0.12523,-0.12828,0.12553,-7.62,48.24,-15.48
2.3155,-9.4117,-1.9341,0.09499,-0.11576,0.11851,-7.68,48.24,-15.48
2.2201,-9.4661,-1.9886,0.060476,-0.08827,0.10354,-7.5,48.06,-15.42
2.2201,-9.4661,-1.9886,0.051313,-0.081551,0.10079,-7.44,48.0,-15.6
2.261,-9.5479,-1.9886,-0.0058032,-0.035736,0.06689,-7.26,47.88,-15.54
2.3155,-9.5751,-1.9613,-0.020464,-0.010385,0.048258,-7.38,47.94,-15.48
2.3427,-9.5751,-1.9341,-0.026267,-0.002138,0.037568,-7.44,48.0,-15.54
2.2474,-9.5479,-1.8115,-0.034208,-0.0079412,0.039706,-7.26,47.94,-15.78
2.2201,-9.507,-1.7298,-0.047953,-0.010079,0.040317,-7.2,47.82,-15.78
2.2337,-9.4661,-1.7025,-0.049175,-0.0076358,0.039095,-7.02,47.82,-15.96
2.1929,-9.4117,-1.7025,-0.040928,-0.000611,0.047037,-7.2,47.76,-16.14
2.1656,-9.3163,-1.6072,-0.044288,-0.0015272,0.055283,-7.2,47.76,-16.14
2.261,-9.3708,-1.7025,-0.036652,-0.012828,0.059254,-7.14,47.7,-16.08
2.2201,-9.398,-1.6208,-0.024435,-0.025351,0.080329,-7.26,47.46,-16.08
2.2065,-9.3708,-1.6208,-0.010385,-0.025656,0.085827,-7.44,47.52,-16.14
2.152,-9.3708,-1.5936,-0.014661,-0.017104,0.083383,-7.44,47.64,-16.02
2.2746,-9.3436,-1.5663,-0.018021,-0.011912,0.083994,-7.44,47.64,-15.96
2.3018,-9.3572,-1.5527,-0.0088575,-0.0088575,0.07422,-7.38,47.52,-15.96
2.2337,-9.3436,-1.6072,-0.0064141,-0.0085521,0.057116,-7.38,47.46,-16.08
2.2474,-9.398,-1.6072,-0.0018326,-0.0033598,0.043677,-7.44,47.46,-16.02
2.2474,-9.3572,-1.58,0.0048869,-0.000916,0.03146,-7.5,47.46,-16.02
2.2474,-9.3572,-1.6753,-0.0024435,-0.0012217,0.038485,-7.56,47.52,-15.9
2.2065,-9.3844,-1.7162,0.0079412,-0.0024435,0.047647,-7.44,47.34,-15.78
2.2201,-9.3844,-1.7298,0.0039706,-0.0088575,0.040928,-7.5,47.52,-16.02
2.1929,-9.3844,-1.7298,0.0039706,-0.0064141,0.045815,-7.56,47.52,-16.02
2.2201,-9.3572,-1.757,-0.000916,-0.0073304,0.039095,-7.5,47.58,-16.08
2.1929,-9.4253,-1.757,0.002138,-0.002138,0.028711,-7.44,47.52,-16.02
2.2065,-9.4253,-1.7706,-0.010996,0.0045815,0.018326,-7.38,47.52,-16.08
2.1929,-9.3163,-1.8387,-0.007025,0.0030543,0.012217,-7.38,47.52,-15.84
2.1929,-9.398,-1.6753,-0.0061087,0.0054978,0.0012217,-7.38,47.58,-15.84
2.2065,-9.4934,-1.6072,-0.015577,0.0045815,0.0042761,-7.26,47.7,-15.84
2.261,-9.5342,-1.7025,-0.010385,-0.0045815,0.0018326,-7.38,47.64,-16.02
2.2201,-9.4798,-1.6889,0.0030543,-0.029627,-0.0039706,-7.38,47.76,-15.96
2.1929,-9.4661,-1.6344,0.0045815,-0.018631,0.0030543,-7.44,47.7,-16.02
2.152,-9.4117,-1.7434,0.0058032,-0.023824,-0.0045815,-7.5,47.7,-16.08
2.152,-9.4253,-1.7162,-0.002138,-0.016493,-0.0012217,-7.44,47.64,-16.08
2.1112,-9.4661,-1.7162,-0.020464,-0.010079,-0.0048869,-7.5,47.64,-16.32
2.1112,-9.4661,-1.7162,-0.020464,-0.010079,-0.0048869,-7.5,47.64,-16.32
2.152,-9.4525,-1.6344,-0.025656,-0.0058032,0.000305,-7.38,47.76,-16.26
2.1793,-9.4661,-1.6753,-0.015882,-0.0030543,-0.0082467,-7.44,47.82,-16.32
2.1384,-9.4525,-1.757,-0.026267,-0.0085521,-0.016799,-7.68,47.82,-16.38
2.1248,-9.4389,-1.6344,-0.044288,0.0042761,-0.014355,-7.92,47.88,-16.68
2.152,-9.4389,-1.6344,-0.043982,0.011912,-0.014661,-8.04,48.0,-16.74
2.1384,-9.4389,-1.5936,-0.04612,0.0051924,-0.0027489,-8.1,48.0,-16.68
2.152,-9.5342,-1.6072,-0.043677,-0.0018326,-0.0045815,-8.22,48.24,-16.56
2.152,-9.4798,-1.5936,-0.050702,-0.0024435,0.018631,-8.16,48.12,-16.44
2.1656,-9.4117,-1.6344,-0.047953,-0.0033598,0.029016,-8.04,48.12,-16.32
2.1656,-9.4798,-1.6344,-0.030849,-0.0054978,0.020464,-8.16,48.18,-16.38
2.1929,-9.4525,-1.5936,-0.042455,-0.010385,0.033292,-8.28,48.24,-16.38
2.2474,-9.4798,-1.7162,-0.041844,-0.012217,0.029932,-8.4,48.36,-16.44
2.1929,-9.4389,-1.6481,-0.050702,-0.009163,0.039706,-8.34,48.42,-16.38
2.2337,-9.4117,-1.6753,-0.047342,-0.007025,0.040623,-8.28,48.36,-16.38
2.3018,-9.398,-1.6344,-0.053145,-0.0088575,0.039095,-8.1,48.24,-16.56
2.261,-9.4661,-1.6753,-0.055283,-0.0051924,0.042761,-8.04,48.24,-16.5
2.2882,-9.4253,-1.6344,-0.060476,-0.0042761,0.04948,-7.92,48.24,-16.5
2.2746,-9.3844,-1.6481,-0.069639,-0.009163,0.035125,-7.98,48.18,-16.56
2.2746,-9.3708,-1.6072,-0.067501,-0.013744,0.025656,-7.86,48.12,-16.5
2.3427,-9.3844,-1.6753,-0.07025,-0.014661,0.025656,-7.8,48.18,-16.62
2.3291,-9.398,-1.7298,-0.069944,-0.0015272,0.013744,-7.8,48.24,-16.74
2.261,-9.3572,-1.6208,-0.080329,-0.002138,0.0045815,-7.68,48.18,-16.5
2.2882,-9.4117,-1.6208,-0.079718,0.0076358,-0.0082467,-7.62,48.3,-16.44
2.2746,-9.3572,-1.6617,-0.079412,0.0082467,-0.011301,-7.5,48.3,-16.38
2.2474,-9.3436,-1.5663,-0.075136,-0.000305,-0.019853,-7.56,48.24,-16.32
2.1929,-9.3708,-1.5391,-0.064752,-0.0082467,-0.020159,-7.5,48.36,-16.26
2.2337,-9.398,-1.5663,-0.060476,-0.023213,-0.013134,-7.5,48.3,-15.96
2.2474,-9.3299,-1.6344,-0.059865,-0.026573,-0.015882,-7.56,48.36,-16.02
2.2474,-9.4798,-1.5936,-0.051313,-0.012828,-0.014966,-7.62,48.42,-15.96
2.2337,-9.4661,-1.6208,-0.040317,-0.021075,-0.0085521,-7.56,48.3,-15.96
2.2337,-9.4389,-1.6208,-0.03146,-0.024129,-0.000305,-7.74,48.24,-16.08
2.2474,-9.398,-1.7298,-0.02138,-0.029322,0.0058032,-7.74,48.3,-15.96
2.2474,-9.398,-1.6753,-0.027184,-0.018631,-0.0054978,-7.8,48.3,-15.84
2.2474,-9.4117,-1.7298,-0.043982,-0.0097738,-0.0058032,-7.92,48.18,-16.02
2.261,-9.3844,-1.8115,-0.050091,-0.016493,-0.01069,-8.04,48.24,-16.02
2.152,-9.3708,-1.7434,-0.055894,-0.018021,-0.0012217,-8.16,48.24,-16.14
2.1656,-9.4934,-1.7979,-0.050702,-0.017715,0.000611,-8.4,48.18,-16.2
2.2065,-9.398,-1.7434,-0.049175,-0.0088575,0.0085521,-8.52,48.06,-16.14
2.2201,-9.4525,-1.7706,-0.048564,-0.009163,0.017104,-8.46,48.06,-16.26
2.261,-9.398,-1.8115,-0.057116,-0.0073304,0.016188,-8.52,48.12,-16.32
2.2201,-9.3572,-1.7979,-0.057421,-0.0076358,0.010385,-8.52,48.06,-16.2
2.2201,-9.398,-1.8387,-0.062919,-0.0097738,0.009163,-8.52,48.0,-16.2
2.261,-9.4117,-1.8387,-0.06689,-0.0079412,0.014661,-8.52,48.12,-16.14
2.2474,-9.4117,-1.8387,-0.066279,0.0054978,0.015577,-8.58,48.06,-16.2
2.2474,-9.3844,-1.757,-0.063835,0.0036652,0.019853,-8.58,48.0,-16.32
2.3018,-9.3572,-1.7979,-0.07422,0.0085521,0.011912,-8.64,47.88,-16.44
2.2882,-9.398,-1.8387,-0.075442,0.007025,0.0030543,-8.76,47.94,-16.44
2.3155,-9.3572,-1.7979,-0.072693,-0.0064141,0.0024435,-8.64,47.88,-16.44
2.3427,-9.3299,-1.7979,-0.072082,-0.0079412,0.002138,-8.46,47.88,-16.2
2.3155,-9.3436,-1.7979,-0.064752,-0.0027489,-0.0064141,-8.58,47.88,-16.08
2.3018,-9.3572,-1.7843,-0.062308,0.000916,-0.0085521,-8.58,47.94,-16.08
2.2882,-9.3436,-1.7298,-0.069333,0.0058032,-0.0097738,-8.7,48.06,-15.84
2.3018,-9.3299,-1.7979,-0.068722,-0.0097738,-0.018631,-8.76,48.06,-15.66
2.3563,-9.3163,-1.7706,-0.062308,-0.01405,-0.019853,-8.7,48.18,-15.66
2.3155,-9.3027,-1.7706,-0.062614,-0.0030543,-0.026573,-8.88,48.36,-15.72
2.2882,-9.3572,-1.7298,-0.059865,0.0048869,-0.027184,-8.82,48.18,-15.78
2.2882,-9.3844,-1.7298,-0.054062,0.0079412,-0.0281,-8.88,48.18,-15.78
2.2201,-9.3436,-1.7706,-0.054672,0.002138,-0.025962,-8.82,48.3,-15.6
2.2201,-9.3708,-1.7706,-0.058338,0.011301,-0.025962,-8.76,48.24,-15.66
2.1929,-9.3572,-1.8115,-0.062919,0.0085521,-0.020159,-8.82,48.36,-15.66
2.2201,-9.3299,-1.6617,-0.059254,0.014966,-0.014355,-8.88,48.36,-15.54
2.152,-9.3027,-1.7298,-0.049786,0.017715,-0.012828,-8.76,48.48,-15.6
2.1929,-9.3844,-1.7162,-0.058948,0.024129,-0.013134,-8.7,48.54,-15.6
2.152,-9.398,-1.866,-0.053145,0.020159,0.0024435,-8.58,48.24,-15.84
2.2201,-9.3844,-1.7298,-0.050396,0.01405,0.012523,-8.58,48.42,-15.96
2.1929,-9.3844,-1.7298,-0.035125,0.0076358,0.033292,-8.64,48.3,-15.96
2.2201,-9.398,-1.7979,-0.019548,0.0082467,0.037263,-8.7,48.18,-15.9
2.1793,-9.3844,-1.7979,-0.037263,0.0064141,0.038179,-8.7,48.36,-15.84
2.261,-9.3708,-1.7706,-0.03879,0.0079412,0.040317,-8.46,48.36,-15.78
2.2746,-9.3844,-1.7434,-0.030543,-0.0085521,0.045204,-8.46,48.3,-15.84
2.2474,-9.398,-1.7979,-0.017715,-0.025962,0.055283,-8.46,48.36,-15.84
2.2201,-9.3436,-1.7843,-0.012217,-0.025962,0.064752,-8.28,48.3,-15.72
2.2201,-9.3163,-1.7979,-0.0088575,-0.028711,0.065668,-8.16,48.3,-15.78
2.2474,-9.3708,-1.7706,-0.0048869,-0.024435,0.064446,-7.92,48.12,-15.96
2.3155,-9.398,-1.866,-0.0061087,-0.032376,0.068417,-7.98,48.06,-15.84
2.2882,-9.4117,-1.8524,0.0067195,-0.047037,0.072388,-7.98,48.12,-15.84
2.3155,-9.3844,-1.8387,0.002138,-0.058643,0.074831,-7.92,48.12,-15.66
2.2201,-9.3299,-1.8796,0.0051924,-0.047037,0.073609,-7.68,48.0,-15.78
2.2474,-9.3708,-1.8932,-0.0027489,-0.044288,0.071777,-7.62,48.0,-15.78
2.3155,-9.3572,-1.9613,-0.0079412,-0.049786,0.058948,-7.5,48.06,-15.84
2.3155,-9.3844,-1.8932,-0.023824,-0.065363,0.07025,-7.38,48.0,-15.84
2.3427,-9.3027,-1.9613,-0.019853,-0.076053,0.068722,-7.14,48.0,-15.78
2.261,-9.221,-1.9886,-0.021991,-0.06689,0.062919,-7.08,48.0,-15.78
2.3155,-9.2891,-1.975,-0.026878,-0.047037,0.060781,-7.2,47.88,-15.84
2.3155,-9.3436,-1.8387,-0.047342,-0.035125,0.054672,-6.96,47.94,-15.78
2.3427,-9.4389,-1.8387,-0.04948,-0.016188,0.048564,-6.96,47.88,-15.9
2.3155,-9.5615,-1.7843,-0.058032,-0.0058032,0.041539,-7.08,47.88,-15.84
2.4108,-9.5887,-1.7434,-0.054367,0.016493,0.017715,-6.9,48.0,-15.72
2.3836,-9.5751,-1.7706,-0.051924,0.017715,0.01069,-6.9,48.06,-15.78
2.3155,-9.507,-1.8524,-0.028711,0.0061087,-0.0094684,-6.84,48.18,-15.66
2.2065,-9.3163,-1.866,-0.015882,-0.000305,-0.020464,-6.78,48.3,-15.6
2.2065,-9.221,-2.0022,-0.010079,0.0058032,-0.034819,-6.84,48.12,-15.6
2.1248,-9.112,-1.9886,-0.022297,0.022907,-0.028711,-6.84,48.12,-15.6
2.1384,-9.1937,-2.0022,-0.027184,0.040928,-0.028711,-7.02,48.06,-15.6
2.152,-9.1937,-2.0022,-0.045204,0.050091,-0.000916,-6.9,48.0,-15.48
2.1112,-9.2891,-2.1248,-0.051618,0.054672,0.044593,-6.78,48.0,-15.48
2.2474,-9.4389,-2.0431,-0.051924,0.069028,0.076664,-6.96,47.88,-15.42
2.2201,-9.4389,-2.0839,-0.049175,0.062919,0.087659,-6.78,47.82,-15.24
2.3563,-9.3844,-2.1248,-0.037568,0.062308,0.0956,-6.6,47.76,-15.3
2.1384,-9.3027,-2.0703,-0.036041,0.062614,0.081551,-6.72,47.64,-15.48
2.2746,-9.2074,-2.0703,-0.044593,0.063835,0.083689,-6.66,47.58,-15.42
2.3427,-9.2074,-2.0975,-0.073915,0.081245,0.073609,-6.72,47.46,-15.42
2.3836,-9.3572,-1.975,-0.091324,0.08491,0.076969,-6.36,47.4,-15.3
2.4108,-9.398,-2.0703,-0.097128,0.093768,0.086743,-6.18,47.4,-15.42
2.3699,-9.3163,-2.0294,-0.091935,0.096211,0.082161,-6.12,47.46,-15.42
2.547,-9.3027,-1.9613,-0.072082,0.087354,0.078496,-5.88,47.58,-15.3
2.547,-9.2482,-1.9477,-0.055589,0.076664,0.067195,-5.88,47.64,-15.3
2.5061,-9.2074,-1.9341,-0.052229,0.03879,0.051313,-5.82,47.64,-15.42
2.4789,-9.1529,-1.9477,-0.041539,0.020159,0.032681,-5.4,47.82,-15.36
2.4108,-9.1937,-1.9341,-0.040928,0.020464,0.022907,-5.34,47.82,-15.48
2.4789,-9.2482,-1.9205,-0.043982,0.03543,0.0076358,-5.1,47.94,-15.3
2.438,-9.2891,-1.9068,-0.032681,0.029627,0.0045815,-5.04,48.06,-15.36
2.4925,-9.2755,-1.8932,-0.029322,0.026267,-0.000611,-4.98,48.12,-15.48
2.4789,-9.3163,-1.8932,-0.025962,0.009163,-0.014966,-4.86,48.24,-15.6
2.3699,-9.3299,-1.9613,-0.010996,0.0045815,-0.032987,-4.98,48.36,-15.78
2.3836,-9.2891,-1.9477,-0.0082467,0.0097738,-0.048258,-4.86,48.36,-15.66
2.3836,-9.3163,-1.9886,-0.0088575,0.000305,-0.042761,-4.86,48.18,-15.66
2.3427,-9.3299,-1.9341,-0.014661,-0.0018326,-0.045204,-4.86,48.12,-15.78
2.3427,-9.3572,-1.9068,-0.025045,-0.0012217,-0.041844,-4.86,48.18,-15.9
2.3427,-9.398,-1.9886,-0.019242,0.0058032,-0.051313,-5.04,48.06,-15.78
2.3155,-9.3436,-1.8932,-0.018326,0.016799,-0.056505,-5.1,48.06,-15.84
2.3018,-9.398,-1.9068,-0.029627,0.018631,-0.059865,-5.22,48.12,-15.72
2.2474,-9.4253,-1.9068,-0.032987,0.010996,-0.058338,-5.22,48.12,-16.02
2.2201,-9.3299,-1.9886,-0.022907,0.000611,-0.053145,-5.04,48.12,-15.9
2.1929,-9.3844,-1.9613,-0.015577,0.013134,-0.039401,-5.1,47.94,-15.84
2.2201,-9.398,-1.8932,-0.013134,0.010079,-0.034514,-5.28,47.82,-15.9
2.2882,-9.4117,-1.9886,-0.02138,0.010996,-0.01405,-5.22,47.76,-16.02
2.2337,-9.3844,-1.9068,-0.019853,0.0042761,0.0033598,-5.4,47.82,-16.02
2.2474,-9.4117,-1.9205,-0.028405,0.0097738,0.012828,-5.46,48.06,-16.08
2.2882,-9.221,-1.8932,-0.024435,0.0039706,0.030849,-5.52,48.12,-16.08
2.3018,-9.3708,-1.8796,-0.017715,0.000916,0.031154,-5.52,48.0,-15.96
2.3427,-9.398,-1.7979,-0.01405,0.000305,0.029932,-5.52,48.12,-16.02
2.3018,-9.3844,-1.866,-0.023213,-0.01069,0.044593,-5.52,48.0,-16.08
2.3155,-9.3572,-1.8251,-0.009163,-0.021075,0.055283,-5.46,47.88,-16.14
2.3427,-9.3163,-1.8932,0.000305,-0.013134,0.061697,-5.58,47.94,-16.08
2.3427,-9.3436,-1.8932,-0.0061087,-0.0018326,0.064141,-5.7,47.88,-16.02
2.3155,-9.2346,-1.9205,-0.010385,0.0024435,0.058948,-5.7,47.82,-16.02
2.3018,-9.3299,-1.8932,-0.026573,0.0054978,0.053451,-5.52,47.76,-15.84
2.4108,-9.2618,-1.9613,-0.033292,0.01405,0.038179,-5.52,47.7,-15.84
2.3427,-9.3436,-1.866,-0.032376,0.018937,0.041233,-5.4,47.58,-15.96
2.3836,-9.3436,-1.8251,-0.021075,0.014355,0.040928,-5.4,47.46,-16.08
2.3836,-9.3027,-1.8251,-0.011606,0.0061087,0.039706,-5.28,47.52,-16.08
2.3291,-9.2482,-1.8251,-0.015577,0.0027489,0.038179,-5.4,47.46,-16.14
2.2882,-9.2346,-1.7025,-0.018021,0.01069,0.032376,-5.52,47.4,-16.26
2.3427,-9.3708,-1.7979,-0.023518,0.017104,0.032376,-5.34,47.4,-16.32
2.3427,-9.4389,-1.7706,-0.020769,0.019242,0.036041,-5.28,47.4,-16.32
2.438,-9.4389,-1.866,-0.010079,0.0061087,0.036652,-5.34,47.4,-16.2
2.3836,-9.3708,-1.8387,0.010079,0.000611,0.027489,-5.34,47.46,-16.38
2.3563,-9.2755,-1.8796,0.01069,0.009163,0.021075,-5.28,47.58,-16.38
2.3563,-9.2618,-1.9068,0.0097738,0.011301,0.017715,-5.46,47.7,-16.5
2.3155,-9.2891,-1.9068,-0.0079412,0.014355,0.021075,-5.46,47.64,-16.5
2.3427,-9.3708,-1.9613,-0.013439,0.000611,0.034819,-5.28,47.82,-16.44
2.3972,-9.4117,-1.9886,-0.016493,-0.012828,0.042761,-5.34,47.76,-16.26
2.2882,-9.4661,-1.9205,-0.01405,-0.01069,0.030543,-5.34,47.58,-16.5
2.3291,-9.4661,-1.9068,-0.018937,-0.0030543,0.019853,-5.28,47.7,-16.62
2.2882,-9.3027,-1.9341,-0.027489,0.0030543,0.0094684,-5.16,47.7,-16.5
2.2882,-9.1937,-1.9341,-0.051007,0.020159,0.002138,-5.34,47.82,-16.5
2.2337,-9.2482,-1.8387,-0.065973,0.033598,0.0045815,-5.28,48.0,-16.5
2.3836,-9.4253,-1.7979,-0.080023,0.032376,0.018631,-5.22,47.94,-16.62
2.3836,-9.6023,-1.7434,-0.076358,0.027794,0.030543,-5.16,48.0,-16.44
2.4108,-9.5751,-1.757,-0.045509,0.019548,0.023213,-5.1,47.76,-16.56
2.2746,-9.4798,-1.7434,-0.024129,0.042761,0.0051924,-5.04,47.7,-16.5
2.2474,-9.4525,-1.7706,-0.030849,0.057116,-0.007025,-5.1,47.76,-16.5
2.261,-9.4117,-1.8115,-0.033903,0.085827,-0.035736,-5.04,47.76,-16.62
2.2882,-9.3299,-1.866,-0.029627,0.052534,-0.034208,-5.22,47.7,-16.56
2.3018,-9.3027,-1.8387,-0.02474,-0.015882,-0.0082467,-5.16,47.58,-16.5
2.1929,-9.3163,-1.7706,-0.018631,-0.030849,0.0039706,-4.92,47.52,-16.26
2.2201,-9.3299,-1.8387,0.0064141,-0.071471,0.037568,-4.92,47.58,-16.26
2.1929,-9.3027,-1.8932,0.01405,-0.082161,0.03879,-4.86,47.52,-16.2
2.2474,-9.3572,-1.8932,0.022907,-0.1127,0.058338,-4.92,47.34,-16.2
2.2746,-9.4117,-1.975,0.0048869,-0.12034,0.063225,-4.92,47.4,-16.14
2.2746,-9.4253,-1.9613,-0.0094684,-0.11393,0.05681,-4.92,47.4,-16.08
2.3427,-9.4798,-1.9341,-0.03146,-0.089797,0.048258,-4.98,47.46,-15.9
2.3155,-9.507,-2.0158,-0.042455,-0.071777,0.037874,-4.98,47.46,-15.84
2.3427,-9.507,-1.9613,-0.049786,-0.064141,0.031765,-5.04,47.34,-15.78
2.3699,-9.4934,-1.9205,-0.074831,-0.043371,0.010385,-5.1,47.34,-15.78
2.3427,-9.4117,-1.8387,-0.082772,-0.031154,-0.0030543,-5.16,47.28,-15.9
2.3563,-9.3844,-1.7162,-0.10201,-0.021686,-0.015272,-5.34,47.34,-15.84
2.3018,-9.3027,-1.6753,-0.11209,-0.013439,-0.034514,-5.58,47.34,-15.78
2.2337,-9.2891,-1.6344,-0.10965,-0.0015272,-0.050396,-5.58,47.34,-15.78
2.2337,-9.3572,-1.6344,-0.10232,0.0073304,-0.053451,-5.58,47.28,-15.78
2.2337,-9.4117,-1.6753,-0.1014,0.0042761,-0.047953,-5.58,47.4,-15.78
2.2201,-9.4389,-1.58,-0.096211,0.0094684,-0.045204,-5.82,47.46,-15.6
2.2746,-9.4117,-1.6072,-0.079412,0.014966,-0.045815,-5.88,47.46,-15.66
2.1929,-9.3844,-1.5663,-0.073304,0.013439,-0.036346,-6.06,47.4,-15.72
2.1656,-9.3163,-1.5936,-0.040928,0.0027489,-0.027184,-6.18,47.46,-15.72
2.1929,-9.2891,-1.6481,-0.027794,-0.0058032,-0.020464,-6.24,47.52,-15.6
2.152,-9.3299,-1.58,-0.0085521,-0.039706,0.0067195,-6.3,47.64,-15.48
2.1384,-9.3844,-1.6344,0.0036652,-0.047953,0.022297,-6.3,47.76,-15.36
2.152,-9.3163,-1.7434,0.0073304,-0.05284,0.037568,-6.42,47.82,-15.36
2.0975,-9.3572,-1.8387,0.0079412,-0.043677,0.064141,-6.48,47.82,-15.36
2.152,-9.3436,-1.7843,0.0051924,-0.037874,0.062614,-6.6,47.82,-15.48
2.2201,-9.4389,-1.8251,-0.010079,-0.031154,0.072388,-6.66,48.0,-15.42
2.2882,-9.4525,-1.8524,-0.010996,-0.0281,0.071471,-6.84,47.88,-15.48
2.2746,-9.4525,-1.9341,-0.0082467,-0.029932,0.066584,-6.84,47.76,-15.48
2.3018,-9.4389,-1.9341,-0.026878,-0.021991,0.065668,-6.84,47.7,-15.42
2.3155,-9.3844,-1.9341,-0.017104,-0.027184,0.052229,-6.72,47.7,-15.36
2.3155,-9.4389,-1.9341,-0.047037,-0.020464,0.054978,-6.72,47.64,-15.36
2.2746,-9.3708,-1.9477,-0.047953,-0.021686,0.046731,-6.6,47.7,-15.36
2.2474,-9.3844,-1.9341,-0.06353,-0.0097738,0.037874,-6.72,47.58,-15.42
2.2474,-9.4934,-1.7298,-0.07086,0.0033598,0.022297,-6.78,47.58,-15.3
2.3155,-9.398,-1.7298,-0.076969,0.0064141,0.01741,-6.78,47.64,-15.42
2.3155,-9.3844,-1.7706,-0.069333,0.000916,0.0039706,-6.72,47.64,-15.36
2.2746,-9.3027,-1.7979,-0.061087,-0.0061087,0.0079412,-6.78,47.58,-15.36
2.2201,-9.2755,-1.757,-0.062919,-0.0061087,0.0030543,-6.84,47.46,-15.24
2.2201,-9.3027,-1.7434,-0.065057,-0.0024435,-0.0058032,-6.78,47.4,-15.36
2.2201,-9.2891,-1.757,-0.066279,-0.0051924,-0.012217,-6.72,47.4,-15.3
2.2201,-9.3844,-1.6753,-0.057116,-0.013439,-0.012828,-6.78,47.58,-15.24
2.2201,-9.3436,-1.6753,-0.040012,-0.036957,-0.0094684,-6.84,47.76,-15.18
2.1384,-9.4798,-1.6889,-0.029322,-0.040928,-0.0097738,-7.02,47.7,-15.24
2.1248,-9.398,-1.6753,-0.01741,-0.03879,-0.0085521,-7.2,47.64,-15.18
2.152,-9.4389,-1.757,-0.013439,-0.036041,0.010385,-7.2,47.7,-15.0
2.0703,-9.4117,-1.7162,-0.019242,-0.039706,0.014966,-7.26,47.58,-15.06
2.1384,-9.398,-1.7298,-0.013744,-0.032376,0.015882,-7.26,47.52,-15.0
2.0839,-9.3436,-1.7979,-0.01069,-0.026267,0.021991,-7.44,47.52,-15.0
2.0839,-9.3572,-1.7706,-0.0048869,-0.015882,0.025962,-7.5,47.58,-14.94
2.1112,-9.2891,-1.8387,-0.0051924,-0.021075,0.029322,-7.5,47.7,-15.06
2.0839,-9.3299,-1.7979,-0.0045815,-0.025045,0.032987,-7.44,47.64,-15.12
2.1384,-9.3436,-1.8251,-0.012217,-0.023824,0.03543,-7.5,47.64,-15.06
2.152,-9.3844,-1.866,-0.012523,-0.029016,0.043677,-7.86,47.64,-15.3
2.1384,-9.3572,-1.8387,-0.016799,-0.012523,0.042455,-7.86,47.58,-15.36
2.2474,-9.507,-1.7979,-0.021686,-0.014355,0.042761,-7.86,47.88,-15.36
2.2746,-9.4389,-1.7298,-0.020769,-0.016188,0.031765,-7.8,47.88,-15.48
2.2201,-9.398,-1.7434,-0.02138,-0.015272,0.024435,-7.74,47.88,-15.66
2.2882,-9.3572,-1.8387,-0.0281,-0.012828,0.017104,-7.62,47.94,-15.66
2.261,-9.4117,-1.7706,-0.022907,-0.01405,0.012217,-7.62,47.88,-15.6
2.2337,-9.398,-1.8115,-0.03207,-0.0024435,0.010996,-7.56,48.06,-15.54
2.1929,-9.4253,-1.7843,-0.036041,-0.0024435,0.000916,-7.86,48.24,-15.6
2.2474,-9.3572,-1.7434,-0.036652,0.0073304,-0.010996,-7.86,48.18,-15.6
2.1929,-9.3844,-1.7706,-0.041233,0.0082467,-0.0082467,-8.1,48.42,-15.54
2.152,-9.4117,-1.8251,-0.033292,0.0073304,-0.012828,-8.16,48.36,-15.48
2.1793,-9.3708,-1.757,-0.03207,-0.0030543,-0.002138,-7.8,48.42,-15.42
2.1112,-9.3844,-1.7843,-0.029627,-0.018021,0.000611,-7.8,48.48,-15.42
2.1248,-9.4389,-1.7162,-0.022297,-0.0054978,0.0051924,-7.86,48.18,-15.3
2.1656,-9.4798,-1.7843,-0.019548,-0.0045815,0.0079412,-8.1,48.3,-15.36
2.1248,-9.4661,-1.8387,-0.019242,-0.011912,0.024435,-8.22,48.36,-15.24
2.152,-9.4661,-1.7979,-0.0061087,-0.018937,0.025351,-8.16,48.36,-15.3
2.152,-9.398,-1.866,-0.013744,-0.014966,0.022907,-8.34,48.42,-15.3
2.1793,-9.3436,-1.866,-0.029627,-0.0061087,0.024129,-8.28,48.24,-15.42
2.1656,-9.4117,-1.866,-0.043677,-0.0024435,0.015882,-8.1,48.18,-15.48
2.1656,-9.4661,-1.7025,-0.044288,-0.0024435,0.015577,-8.22,48.24,-15.48
2.152,-9.4525,-1.7025,-0.045509,-0.007025,0.019242,-8.04,48.06,-15.42
2.152,-9.4117,-1.8387,-0.042455,0.0012217,0.021075,-8.04,48.12,-15.42
2.1384,-9.3436,-1.7298,-0.029627,0.013744,0.024129,-8.1,48.18,-15.42
2.1656,-9.3572,-1.7979,-0.032987,0.011606,0.025962,-8.28,48.12,-15.48
2.1656,-9.3572,-1.7843,-0.040317,0.0018326,0.041233,-8.28,48.24,-15.48
2.152,-9.3844,-1.7979,-0.032987,0.0018326,0.042455,-8.04,48.3,-15.54
2.2337,-9.3844,-1.7298,-0.035125,0.0085521,0.053451,-8.1,48.24,-15.54
2.152,-9.3844,-1.7706,-0.033903,0.030543,0.04612,-7.92,48.3,-15.54
2.2746,-9.3572,-1.7025,-0.028405,0.0281,0.03543,-7.98,48.18,-15.6
2.261,-9.3436,-1.6889,-0.029016,0.027489,0.035125,-8.1,48.24,-15.48
2.2201,-9.3436,-1.7434,-0.025656,0.016493,0.029932,-8.16,48.24,-15.54
2.1656,-9.3708,-1.7706,-0.025962,0.012523,0.032987,-8.1,48.24,-15.6
2.2337,-9.4117,-1.7706,-0.021991,0.012828,0.030238,-8.1,48.36,-15.66
2.1929,-9.4117,-1.7298,-0.01741,0.023213,0.030238,-8.04,48.3,-15.6
2.2474,-9.4525,-1.7298,-0.018326,0.018937,0.028711,-8.1,48.12,-15.48
2.1929,-9.3844,-1.7843,-0.013134,0.015577,0.026878,-7.86,48.06,-15.42
2.2474,-9.4525,-1.7843,-0.022907,0.026267,0.018326,-7.92,48.12,-15.42
2.2474,-9.3844,-1.7706,-0.019242,0.026267,0.0073304,-7.98,47.94,-15.36
2.2746,-9.3572,-1.7979,-0.027489,0.0281,0.0082467,-7.86,47.94,-15.48
2.2201,-9.3844,-1.7979,-0.040317,0.021075,0.0088575,-7.92,47.94,-15.3
2.2065,-9.3572,-1.7979,-0.029016,0.012828,0.0045815,-7.92,48.0,-15.36
2.1656,-9.4253,-1.7843,-0.029932,0.016493,0.0067195,-7.8,47.82,-15.6
2.2474,-9.4117,-1.7298,-0.028711,0.018937,0.015882,-7.8,47.88,-15.6
2.2337,-9.398,-1.7843,-0.028405,0.013439,0.000916,-7.86,47.64,-15.42
2.152,-9.3844,-1.7025,-0.027794,0.0076358,0.0024435,-8.04,47.46,-15.36
2.1656,-9.3844,-1.7298,-0.036346,0.01405,0.0039706,-8.04,47.46,-15.36
2.152,-9.4389,-1.757,-0.036652,0.022297,0.014355,-8.1,47.58,-15.48
2.2201,-9.4934,-1.6889,-0.030543,0.016493,0.012217,-8.16,47.58,-15.36
2.1929,-9.398,-1.6753,-0.027184,0.01741,0.022297,-8.22,47.4,-15.36
2.2337,-9.3299,-1.7025,-0.029322,0.018021,0.014355,-8.16,47.34,-15.42
2.1793,-9.3027,-1.7298,-0.033598,0.024129,0.01069,-8.1,47.34,-15.48
2.2201,-9.398,-1.6889,-0.041844,0.031765,0.0048869,-8.16,47.28,-15.6
2.1793,-9.4798,-1.7025,-0.047342,0.034208,0.0015272,-8.28,47.52,-15.42
2.1929,-9.4661,-1.6617,-0.047953,0.040623,-0.0097738,-8.34,47.58,-15.3
2.1929,-9.4389,-1.7298,-0.048564,0.03879,-0.0051924,-8.28,47.58,-15.18
2.2882,-9.4389,-1.7025,-0.035125,0.036041,-0.002138,-8.34,47.82,-15.24
2.2065,-9.4253,-1.6753,-0.032681,0.032376,0.000611,-8.16,48.06,-15.36
2.2065,-9.3844,-1.6617,-0.038179,0.026267,0.0064141,-8.16,48.12,-15.42
2.1929,-9.4253,-1.7298,-0.034514,0.019242,0.009163,-8.1,48.0,-15.36
2.261,-9.398,-1.7434,-0.031154,0.021075,0.0067195,-8.04,47.94,-15.48
2.2746,-9.4117,-1.757,-0.036957,0.015882,0.0064141,-7.92,48.0,-15.54
2.2474,-9.4389,-1.7706,-0.03543,0.012828,0.0015272,-7.92,48.12,-15.6
2.2882,-9.3708,-1.7979,-0.03879,0.0073304,-0.0048869,-7.92,48.24,-15.48
2.2746,-9.4389,-1.7298,-0.037263,0.0054978,-0.0051924,-7.92,48.42,-15.42
2.3155,-9.4117,-1.866,-0.055894,0.0088575,-0.017104,-7.98,48.36,-15.36
2.3291,-9.4934,-1.8251,-0.055589,0.011912,-0.016493,-7.56,48.24,-15.3
2.2474,-9.4798,-1.7706,-0.059559,0.016493,-0.014966,-7.56,48.18,-15.48
2.2882,-9.4798,-1.7298,-0.071471,0.012217,-0.02138,-7.62,48.0,-15.36
2.3155,-9.4389,-1.757,-0.075442,0.015882,-0.023213,-7.5,48.0,-15.48
2.2474,-9.4525,-1.7843,-0.080329,0.0097738,-0.026878,-7.44,48.06,-15.48
2.261,-9.3844,-1.7979,-0.075442,0.0088575,-0.025656,-7.38,48.0,-15.6
2.3155,-9.4525,-1.7162,-0.078802,0.009163,-0.029627,-7.5,48.06,-15.36
2.2882,-9.3844,-1.757,-0.079718,0.01069,-0.025656,-7.62,48.12,-15.36
2.2746,-9.3436,-1.7025,-0.07422,0.0024435,-0.02138,-7.62,48.18,-15.24
2.3155,-9.398,-1.7979,-0.065057,-0.0018326,-0.025351,-7.68,48.12,-15.3
2.2474,-9.3572,-1.7025,-0.067501,-0.0048869,-0.019853,-7.68,48.0,-15.3
2.261,-9.2891,-1.6617,-0.072082,-0.0015272,-0.013744,-7.56,48.06,-15.48
2.2474,-9.3163,-1.6889,-0.059865,0.0033598,-0.025045,-7.68,48.0,-15.54
2.261,-9.398,-1.6208,-0.063225,0.024129,-0.019242,-7.98,47.94,-15.54
2.3155,-9.3844,-1.6753,-0.06689,0.021991,-0.0085521,-7.92,48.0,-15.6
2.2746,-9.398,-1.6344,-0.050091,0.0015272,-0.000305,-7.98,48.06,-15.6
2.2746,-9.3299,-1.7162,-0.041844,-0.0030543,0.0058032,-8.1,48.06,-15.66
2.2337,-9.3163,-1.7162,-0.019548,-0.012828,0.012523,-8.28,48.12,-15.6
2.2474,-9.2755,-1.7298,-0.018937,-0.010385,0.011912,-8.22,48.18,-15.54
2.2882,-9.3163,-1.7706,-0.036346,-0.0012217,0.01405,-8.22,48.12,-15.6
2.2746,-9.3708,-1.8387,-0.038179,0.0036652,0.019548,-8.22,48.06,-15.66
2.3155,-9.3572,-1.7706,-0.036346,0.0042761,0.021991,-8.16,48.0,-15.66
2.3427,-9.4117,-1.7979,-0.028405,0.000916,0.02138,-8.28,48.0,-15.6
2.3291,-9.4253,-1.8524,-0.016188,-0.0012217,0.018631,-8.46,47.94,-15.66
2.3155,-9.3436,-1.8115,-0.0281,0.0039706,0.034208,-8.4,47.82,-15.54
2.2474,-9.3572,-1.866,-0.029016,0.014966,0.029322,-8.28,47.94,-15.48
2.3155,-9.2482,-1.866,-0.034208,0.011301,0.034514,-8.28,48.0,-15.48
2.3427,-9.3163,-1.8387,-0.027489,0.0058032,0.045204,-8.16,47.88,-15.48
2.3699,-9.3572,-1.8932,-0.03146,0.000611,0.049786,-8.04,47.76,-15.42
2.3155,-9.3027,-1.8387,-0.026267,-0.0051924,0.047953,-7.86,47.82,-15.42
2.3427,-9.2891,-1.8387,-0.026573,0.0030543,0.051313,-7.92,47.64,-15.48
2.3836,-9.3163,-1.7843,-0.025656,0.007025,0.041844,-7.86,47.64,-15.54
2.3836,-9.2891,-1.8115,-0.037263,0.016799,0.044593,-7.86,47.64,-15.6
2.438,-9.3572,-1.8932,-0.027184,0.013744,0.032987,-7.86,47.52,-15.6
2.3972,-9.2891,-1.8387,-0.027489,0.011301,0.030849,-7.74,47.46,-15.6
2.438,-9.2618,-1.8932,-0.029322,0.012523,0.027184,-7.56,47.46,-15.54
2.4244,-9.3027,-1.8251,-0.026878,0.013134,0.026267,-7.5,47.52,-15.48
2.3836,-9.2755,-1.8387,-0.026573,0.018937,0.014966,-7.5,47.64,-15.54
2.2882,-9.2891,-1.7843,-0.019853,0.020769,0.016799,-7.32,47.52,-15.54
2.3972,-9.3163,-1.8251,-0.013134,0.018326,0.028711,-7.38,47.52,-15.42
2.3836,-9.3436,-1.8115,-0.0064141,0.0097738,0.036041,-7.32,47.64,-15.42
2.4517,-9.3844,-1.866,0.0051924,0.0033598,0.047647,-7.38,47.64,-15.42
2.438,-9.3844,-1.8932,0.000916,-0.000305,0.040623,-7.2,47.7,-15.3
2.3563,-9.3572,-1.866,-0.000305,0.0027489,0.033292,-7.14,47.7,-15.24
2.3836,-9.3436,-1.9341,0.000305,0.018021,0.022907,-6.66,47.82,-15.18
2.3563,-9.3572,-1.9613,-0.016799,0.036041,0.01741,-6.54,47.76,-15.18
2.3291,-9.3844,-1.9613,-0.03207,0.04612,0.017104,-6.36,47.94,-15.24
2.3155,-9.3708,-1.9477,-0.039095,0.048564,0.02474,-6.3,48.0,-15.3
2.2746,-9.3572,-1.9613,-0.036652,0.084299,0.030238,-6.12,48.0,-15.24
2.3836,-9.4117,-1.9341,-0.043982,0.092852,0.036957,-5.82,47.82,-15.48
2.4108,-9.4525,-2.0431,-0.041539,0.062919,0.04612,-5.7,47.88,-15.54
2.4244,-9.3844,-1.9886,-0.036041,0.040928,0.049786,-5.52,47.82,-15.78
2.3427,-9.3163,-2.0158,-0.032681,0.026573,0.046731,-5.4,48.0,-15.6
2.3836,-9.2891,-1.9341,-0.045204,0.036957,0.045204,-5.34,48.0,-15.84
2.3836,-9.3027,-1.9341,-0.049786,0.039706,0.043371,-5.52,48.0,-15.96
2.4517,-9.3027,-1.9068,-0.059559,0.036652,0.043677,-5.52,48.06,-15.78
2.438,-9.3163,-1.9068,-0.057727,0.033598,0.044593,-5.4,48.12,-15.72
2.4925,-9.3436,-1.866,-0.047342,0.043371,0.045204,-5.58,47.94,-15.84
2.4244,-9.3436,-1.8115,-0.043371,0.046731,0.044593,-5.58,47.76,-15.84
2.4653,-9.2891,-1.757,-0.031154,0.018021,0.037874,-5.52,47.7,-15.78
2.4244,-9.3572,-1.7843,-0.027489,0.015882,0.031154,-5.34,47.22,-15.78
2.4108,-9.3163,-1.7706,-0.025962,0.018937,0.02474,-5.34,47.16,-15.78
2.4517,-9.2618,-1.7979,-0.02138,0.02474,0.020769,-5.4,47.28,-15.66
2.4108,-9.3708,-1.8387,-0.02474,0.017715,0.01741,-5.34,47.16,-15.66
2.438,-9.3163,-1.8524,-0.022297,0.016493,0.0082467,-5.28,47.04,-15.66
2.4517,-9.3844,-1.8387,-0.011912,0.029322,0.0061087,-5.46,47.1,-15.78
2.4108,-9.3708,-1.9068,-0.020159,0.02474,0.0042761,-5.46,47.04,-15.72
2.4517,-9.3436,-1.9068,-0.025045,0.019853,0.000305,-5.34,47.16,-15.66
2.3018,-9.3708,-1.866,-0.025351,0.010996,-0.000611,-5.34,47.22,-15.6
2.3836,-9.3436,-1.9341,-0.027184,0.0061087,-0.0064141,-5.64,47.22,-15.72
2.3836,-9.4389,-1.866,-0.021075,-0.0045815,-0.007025,-5.64,47.46,-15.9
2.3699,-9.3708,-1.866,-0.031154,-0.012217,-0.0045815,-5.52,47.4,-15.78
2.3155,-9.4117,-1.7979,-0.031765,-0.01405,-0.0051924,-5.58,47.22,-15.9
2.3018,-9.3436,-1.7298,-0.040928,-0.0048869,-0.0054978,-5.64,47.28,-15.96
2.2746,-9.3163,-1.7025,-0.04215,0.0064141,-0.000611,-5.58,47.16,-15.96
2.2474,-9.3436,-1.6889,-0.045509,0.01069,0.007025,-5.22,47.34,-15.96
2.3699,-9.3708,-1.7979,-0.036957,0.013439,0.0054978,-5.4,47.28,-16.02
2.3427,-9.3163,-1.7979,-0.036041,0.010385,0.0085521,-5.28,47.34,-16.14
2.3427,-9.398,-1.7843,-0.035125,0.015272,0.0042761,-5.28,47.28,-16.14
2.3291,-9.3163,-1.7025,-0.040317,0.019853,0.007025,-5.1,47.34,-16.32
2.3427,-9.3572,-1.7706,-0.03146,0.0281,0.0039706,-5.1,47.28,-16.26
2.3972,-9.3436,-1.757,-0.031154,0.032681,0.0012217,-5.1,47.4,-16.14
2.3563,-9.3844,-1.7706,-0.02474,0.042761,-0.0012217,-4.92,47.58,-16.32
2.3291,-9.3844,-1.7434,-0.032987,0.043677,0.0061087,-5.04,47.58,-16.5
2.3155,-9.398,-1.7025,-0.032681,0.046426,0.0030543,-5.1,47.52,-16.44
2.3836,-9.3708,-1.8524,-0.031154,0.040623,0.009163,-5.16,47.52,-16.56
2.3427,-9.3163,-1.8387,-0.034819,0.03543,0.0097738,-5.16,47.58,-16.5
2.3155,-9.2755,-1.7979,-0.036957,0.040623,0.012828,-5.1,47.52,-16.32
2.3699,-9.3572,-1.7843,-0.036652,0.039095,0.016493,-5.1,47.58,-16.2
2.3972,-9.398,-1.866,-0.037874,0.026878,0.034514,-5.16,47.52,-16.26
2.4108,-9.3844,-1.8796,-0.027489,0.0097738,0.041539,-5.28,47.46,-16.5
2.4517,-9.3299,-1.8115,-0.028405,0.0079412,0.032987,-5.22,47.34,-16.32
2.4789,-9.3572,-1.9205,-0.036957,0.017104,0.025351,-5.22,47.34,-16.44
2.4108,-9.4117,-1.8796,-0.058643,0.028405,0.016493,-5.22,47.4,-16.26
2.4108,-9.4117,-1.8524,-0.064141,0.029932,0.0088575,-5.04,47.4,-16.38
2.4653,-9.3299,-1.8387,-0.06353,0.029932,0.0054978,-4.98,47.4,-16.38
2.4789,-9.4117,-1.7979,-0.06689,0.024129,0.0012217,-4.98,47.46,-16.38
2.4925,-9.3844,-1.8251,-0.061087,0.013744,-0.000611,-4.98,47.52,-16.38
2.4789,-9.3436,-1.8251,-0.05681,0.014355,-0.0015272,-4.98,47.46,-16.38
2.547,-9.3163,-1.8115,-0.06353,0.015272,-0.0042761,-4.8,47.58,-16.08
2.5061,-9.3572,-1.7979,-0.068111,0.0064141,-0.0088575,-4.86,47.76,-16.26
2.4789,-9.3436,-1.7706,-0.058948,0.0030543,-0.0027489,-4.92,47.82,-16.32
2.4244,-9.3163,-1.8115,-0.06017,-0.0024435,-0.0073304,-4.98,47.88,-16.14
2.4517,-9.3163,-1.7979,-0.059559,0.000916,-0.010079,-5.04,47.76,-16.2
2.438,-9.3299,-1.8115,-0.061697,0.002138,-0.015577,-5.22,47.7,-16.08
2.4108,-9.2891,-1.7298,-0.058032,0.0064141,-0.018326,-5.1,47.64,-16.14
2.4108,-9.2755,-1.8251,-0.051618,0.0048869,-0.017715,-5.16,47.64,-16.14
2.3836,-9.3163,-1.7979,-0.054062,-0.0048869,-0.011301,-5.16,47.7,-16.08
2.4108,-9.3163,-1.7979,-0.047953,0.000916,-0.0085521,-5.28,47.76,-16.08
2.3836,-9.3572,-1.8251,-0.051313,-0.0027489,0.0015272,-5.64,47.88,-16.26
2.3972,-9.3299,-1.8115,-0.054367,0.000916,0.0048869,-5.7,47.88,-16.08
2.3836,-9.3299,-1.8115,-0.040317,0.0036652,0.0088575,-5.76,47.58,-16.08
2.4244,-9.2891,-1.7843,-0.039095,-0.0097738,0.017104,-5.88,47.64,-16.02
2.438,-9.3436,-1.866,-0.027489,-0.0054978,0.014966,-5.94,47.64,-15.9
2.438,-9.3572,-1.7434,-0.034819,-0.012217,0.018937,-5.82,47.7,-15.96
2.4517,-9.3436,-1.8387,-0.040928,-0.0012217,0.022297,-5.94,47.76,-15.9
2.3699,-9.3436,-1.7298,-0.039095,0.0045815,0.021991,-6.0,47.52,-15.96
2.3972,-9.2482,-1.7298,-0.036652,0.0076358,0.018631,-5.94,47.58,-15.84
2.5061,-9.3299,-1.8524,-0.030543,0.0033598,0.022907,-5.94,47.7,-15.96
2.4789,-9.3436,-1.7706,-0.024435,0.0036652,0.022907,-5.88,47.82,-15.78
2.4517,-9.3299,-1.7706,-0.027184,-0.000611,0.02474,-5.76,47.76,-15.66
2.4517,-9.3163,-1.7298,-0.024129,-0.0042761,0.01741,-5.76,47.76,-15.72
2.4653,-9.3572,-1.7979,-0.025656,-0.000916,0.021686,-5.76,47.88,-15.72
2.4244,-9.3163,-1.7979,-0.026573,-0.0064141,0.029627,-5.88,47.76,-15.66
2.4517,-9.2618,-1.7979,-0.023213,-0.0051924,0.026573,-5.94,47.58,-15.6
2.4789,-9.2482,-1.7706,-0.025045,-0.0061087,0.025962,-5.82,47.46,-15.66
2.4789,-9.3027,-1.7706,-0.016493,-0.015272,0.024435,-5.64,47.64,-15.84
2.3427,-9.2891,-1.6889,-0.02474,-0.000305,0.012523,-5.58,47.52,-15.84
2.3427,-9.3572,-1.757,-0.029016,0.0079412,0.014661,-5.58,47.4,-15.78
2.4789,-9.3436,-1.8524,-0.025656,-0.0036652,0.023213,-5.58,47.46,-15.9
2.4789,-9.2891,-1.7843,-0.020464,-0.013439,0.030238,-5.52,47.58,-15.96
2.438,-9.3163,-1.8387,-0.011912,-0.013134,0.03146,-5.46,47.46,-16.02
2.4789,-9.3844,-1.9341,-0.015577,-0.0079412,0.021075,-5.46,47.58,-16.14
2.5061,-9.3572,-1.8524,-0.027489,0.0024435,0.01405,-5.34,47.64,-16.26
2.438,-9.3572,-1.8524,-0.043371,0.0030543,0.01069,-5.4,47.76,-16.32
2.4517,-9.3708,-1.7706,-0.036652,0.000611,0.017715,-5.4,47.64,-16.14
2.4517,-9.3436,-1.7843,-0.0281,-0.0067195,0.018021,-5.34,47.52,-16.14
2.438,-9.3844,-1.866,-0.022907,-0.0097738,0.023824,-5.28,47.52,-16.02
2.4244,-9.4117,-1.7843,-0.02138,-0.010079,0.021686,-5.28,47.4,-15.96
2.438,-9.4117,-1.7979,-0.018937,-0.0076358,0.014661,-5.28,47.4,-15.96
2.4244,-9.3572,-1.8387,-0.039706,-0.0054978,0.010996,-5.28,47.34,-16.08
2.4517,-9.3163,-1.757,-0.03146,-0.0079412,0.019853,-5.16,47.34,-15.96
2.4517,-9.3844,-1.866,-0.025045,-0.0048869,0.02474,-5.16,47.28,-16.02
2.4108,-9.3572,-1.8387,-0.021686,-0.0061087,0.020159,-5.22,47.28,-16.08
2.4108,-9.3299,-1.7979,-0.029016,-0.0054978,0.018021,-5.28,47.16,-16.2
2.3972,-9.3163,-1.7979,-0.035736,0.0039706,0.015577,-5.28,47.16,-16.32
2.3972,-9.3436,-1.8387,-0.040928,0.0079412,0.01405,-5.34,47.22,-16.44
2.3972,-9.3436,-1.7162,-0.03879,0.013439,0.013134,-5.22,47.34,-16.68
2.3836,-9.3436,-1.7162,-0.034208,0.016799,0.023213,-5.28,47.4,-16.56
2.4108,-9.2891,-1.7979,-0.033903,0.01741,0.020464,-5.46,47.46,-16.5
2.4517,-9.3708,-1.7706,-0.043371,0.016493,0.013134,-5.28,47.34,-16.5
2.4517,-9.4117,-1.7025,-0.03879,0.01741,0.016493,-5.4,47.4,-16.74
2.4244,-9.3436,-1.7025,-0.040012,0.016799,0.0094684,-5.34,47.4,-16.74
2.4244,-9.3436,-1.757,-0.039401,0.015577,0.012523,-5.28,47.46,-16.62
2.4108,-9.3436,-1.6617,-0.040012,0.014966,0.012523,-5.34,47.46,-16.62
2.3836,-9.3436,-1.6481,-0.037874,0.013134,0.0082467,-5.16,47.46,-16.62
2.4653,-9.3844,-1.7025,-0.036652,0.011606,0.0079412,-4.98,47.46,-16.74
2.3836,-9.3708,-1.7298,-0.040928,0.012828,0.015882,-5.04,47.28,-16.86
2.3972,-9.3844,-1.7434,-0.040928,0.0073304,0.012523,-5.04,47.22,-16.92
2.3427,-9.3572,-1.8387,-0.041233,0.0073304,0.015577,-4.98,47.22,-16.98
2.438,-9.398,-1.7843,-0.040928,0.0054978,0.02138,-5.04,47.4,-17.04
2.3699,-9.3844,-1.8115,-0.033292,0.0067195,0.022297,-4.98,47.4,-16.98
2.3699,-9.3436,-1.7706,-0.039095,-0.0051924,0.026573,-5.04,47.34,-16.8
2.4108,-9.3436,-1.6481,-0.039095,-0.010079,0.029322,-4.98,47.46,-16.8
2.4108,-9.3844,-1.7025,-0.041844,-0.013439,0.032987,-5.04,47.46,-16.86
2.4108,-9.3027,-1.757,-0.037263,-0.016188,0.036041,-4.86,47.46,-16.86
2.3836,-9.3436,-1.7025,-0.035125,-0.016188,0.038485,-4.98,47.52,-16.8
2.3563,-9.4117,-1.6481,-0.043982,-0.007025,0.042761,-5.04,47.58,-16.74
2.4517,-9.4117,-1.7298,-0.039095,-0.035736,0.047953,-5.04,47.46,-16.56
2.4244,-9.3436,-1.7843,-0.027489,-0.043066,0.047342,-4.98,47.46,-16.74
2.3291,-9.3163,-1.7298,-0.010385,-0.053451,0.04612,-5.04,47.52,-16.68
2.3972,-9.3708,-1.7298,-0.013744,-0.049786,0.054672,-5.28,47.52,-16.62
2.3836,-9.3163,-1.7706,-0.019242,-0.045204,0.048869,-5.22,47.52,-16.5
2.4108,-9.3572,-1.8387,-0.028405,-0.03543,0.049175,-5.22,47.52,-16.44
2.3699,-9.4117,-1.7843,-0.027184,-0.039401,0.044288,-5.22,47.58,-16.44
2.3836,-9.3572,-1.7162,-0.018631,-0.041844,0.028405,-5.22,47.52,-16.32
2.4517,-9.3844,-1.5663,-0.0085521,-0.050091,0.032987,-5.34,47.58,-16.26
2.3291,-9.3299,-1.7298,-0.0054978,-0.061087,0.030238,-5.46,47.58,-16.2
2.3427,-9.3436,-1.7298,-0.0088575,-0.06353,0.032376,-5.46,47.58,-16.2
2.3155,-9.3436,-1.6617,-0.0030543,-0.064446,0.026267,-5.4,47.58,-16.2
2.2201,-9.4117,-1.6889,0.000305,-0.065363,0.039401,-5.58,47.64,-16.38
2.2882,-9.3572,-1.7025,0.0027489,-0.069333,0.040012,-5.58,47.82,-16.26
2.2882,-9.4117,-1.7025,0.0039706,-0.063225,0.048258,-5.46,47.76,-16.26
2.1929,-9.3299,-1.7298,0.013744,-0.04948,0.03207,-5.4,47.76,-16.26
2.2201,-9.3572,-1.7298,0.0061087,-0.033903,0.038179,-5.34,47.76,-16.26
2.2201,-9.3436,-1.7025,0.0024435,-0.018937,0.038485,-5.28,47.76,-16.32
2.2065,-9.4389,-1.7162,0.0012217,-0.011606,0.040317,-5.22,47.82,-16.38
2.2474,-9.3844,-1.7025,0.0012217,-0.0079412,0.057727,-5.22,47.76,-16.5
2.2882,-9.4389,-1.7979,0.0039706,-0.0088575,0.054978,-5.16,47.76,-16.5
2.2882,-9.4798,-1.757,0.0042761,-0.010996,0.057116,-5.22,47.7,-16.62
2.3291,-9.4525,-1.7979,0.0073304,-0.0039706,0.060781,-5.22,48.0,-16.74
2.3427,-9.3708,-1.7979,-0.0082467,0.0018326,0.062919,-5.16,48.0,-16.74
2.261,-9.3572,-1.8796,-0.0036652,0.0033598,0.062919,-4.86,47.88,-16.8
2.3291,-9.3436,-1.7706,-0.010385,-0.0012217,0.063225,-4.86,47.52,-16.92
2.3155,-9.3163,-1.8115,-0.009163,-0.000611,0.063835,-4.8,47.52,-16.98
2.3836,-9.3708,-1.7979,-0.0082467,-0.011606,0.065057,-4.92,47.46,-16.98
2.3699,-9.3572,-1.8251,-0.015882,-0.020769,0.064446,-4.86,47.52,-17.1
2.4108,-9.3027,-1.7298,-0.018937,-0.013744,0.061392,-4.86,47.52,-17.16
2.4108,-9.4253,-1.7843,-0.0281,-0.000305,0.042761,-4.8,47.34,-17.04
2.4244,-9.3163,-1.7706,-0.033292,-0.000916,0.033903,-4.68,47.4,-17.1
2.5061,-9.4389,-1.7298,-0.030543,-0.000916,0.016188,-4.62,47.34,-17.22
2.4517,-9.398,-1.7298,-0.032376,-0.0027489,0.014966,-4.44,47.34,-17.22
2.3836,-9.3436,-1.7706,-0.041233,0.0033598,-0.0027489,-4.44,47.16,-17.1
2.3291,-9.3163,-1.7843,-0.050702,0.0079412,-0.007025,-4.2,47.22,-17.22
2.3427,-9.2482,-1.8387,-0.044593,0.015272,-0.014661,-4.2,47.22,-17.34
2.2474,-9.3436,-1.6753,-0.046426,0.018631,-0.02474,-4.26,47.22,-17.22
2.3155,-9.4253,-1.7025,-0.045204,0.022907,-0.020464,-4.26,47.4,-17.04
2.438,-9.3844,-1.7298,-0.043066,0.011606,-0.016799,-4.26,47.46,-17.04
2.3291,-9.3844,-1.7162,-0.030849,0.0088575,-0.015882,-4.2,47.46,-17.04
2.2065,-9.4117,-1.8115,-0.022297,0.014355,-0.0082467,-4.14,47.34,-17.16
2.2201,-9.3436,-1.7706,-0.025962,0.024435,-0.021075,-4.26,47.52,-17.22
2.1656,-9.3163,-1.7025,-0.038179,0.029322,-0.018021,-4.2,47.46,-17.28
2.1656,-9.4117,-1.7706,-0.041539,0.030543,-0.0039706,-4.38,47.28,-17.34
2.2201,-9.4389,-1.7706,-0.044899,0.028711,0.0082467,-4.56,47.16,-17.46
2.2201,-9.4525,-1.8387,-0.038179,0.03543,0.0058032,-4.44,47.22,-17.46
2.152,-9.4661,-1.7025,-0.037263,0.035125,0.017715,-4.5,47.28,-17.4
2.2065,-9.3844,-1.7706,-0.041539,0.032987,0.011606,-4.8,47.22,-17.16
2.2474,-9.4117,-1.7434,-0.032681,0.022602,0.021075,-4.8,47.16,-17.1
2.1793,-9.3844,-1.7025,-0.03879,0.013744,0.02474,-4.68,47.28,-17.22
2.2474,-9.398,-1.7979,-0.039401,0.01069,0.039706,-4.68,47.28,-17.16
2.3018,-9.4117,-1.757,-0.033598,0.017715,0.037874,-4.62,47.22,-17.16
2.3291,-9.3844,-1.6889,-0.040928,0.019548,0.045815,-4.74,47.46,-16.92
2.3699,-9.3844,-1.6617,-0.040928,0.022602,0.035736,-4.74,47.4,-16.86
2.4244,-9.4253,-1.7298,-0.040623,0.028711,0.030849,-4.68,47.46,-16.86
2.3836,-9.3436,-1.7025,-0.036346,0.017715,0.02474,-4.44,47.46,-16.8
2.3427,-9.398,-1.6481,-0.034819,0.010385,0.019242,-4.26,47.52,-16.68
2.3699,-9.3708,-1.7706,-0.029627,0.000305,0.028405,-4.32,47.4,-16.68
2.3291,-9.3572,-1.7706,-0.025045,-0.0042761,0.025045,-4.32,47.28,-16.74
2.3563,-9.4117,-1.7298,-0.033292,-0.007025,0.019548,-4.2,47.4,-16.8
2.3018,-9.3844,-1.7706,-0.026878,-0.015577,0.019853,-4.2,47.52,-16.8
2.3427,-9.3844,-1.7298,-0.03146,-0.018937,0.020464,-4.2,47.46,-16.86
2.2882,-9.3844,-1.7706,-0.031765,-0.027489,0.0094684,-4.14,47.58,-16.86
2.2746,-9.3572,-1.7979,-0.025351,-0.029016,0.012217,-4.14,47.64,-16.92
2.2474,-9.3572,-1.8115,-0.036041,-0.018021,0.010079,-4.08,47.46,-16.92
2.2337,-9.4117,-1.7298,-0.041844,-0.015577,0.014966,-3.96,47.52,-17.1
2.2065,-9.4389,-1.757,-0.040928,-0.02138,0.018631,-4.02,47.58,-17.16
2.2746,-9.398,-1.7706,-0.03879,-0.029016,0.019242,-4.14,47.64,-17.1
2.2474,-9.4117,-1.757,-0.045204,-0.03146,0.024435,-4.26,47.64,-17.28
2.3018,-9.4117,-1.7162,-0.040317,-0.029016,0.022907,-4.2,47.7,-17.22
2.2474,-9.4389,-1.7025,-0.03543,-0.020769,0.013744,-4.26,47.82,-17.28
2.3427,-9.398,-1.6344,-0.050396,-0.017104,0.013744,-4.26,47.94,-17.1
2.261,-9.4117,-1.7162,-0.045509,-0.018021,0.018326,-4.32,47.88,-17.1
2.2882,-9.398,-1.7979,-0.043677,-0.024129,0.0058032,-4.32,47.94,-17.1
2.261,-9.398,-1.6617,-0.044899,-0.021991,0.010996,-4.38,47.94,-17.1
2.2746,-9.4389,-1.7025,-0.048869,-0.012217,0.013134,-4.62,47.76,-17.22
2.3155,-9.4389,-1.6753,-0.04612,-0.022907,0.019242,-4.62,47.76,-17.16
2.2882,-9.4117,-1.6208,-0.033903,-0.032376,0.01741,-4.62,47.88,-17.22
2.3427,-9.3844,-1.7298,-0.02474,-0.023518,0.014966,-4.74,47.7,-17.04
2.3427,-9.3708,-1.7706,-0.038485,-0.016188,0.011912,-4.86,47.7,-17.04
2.2474,-9.2618,-1.8796,-0.049175,-0.0082467,-0.0012217,-4.98,47.82,-16.74
2.3427,-9.3572,-1.757,-0.065973,0.0024435,-0.0076358,-5.1,47.82,-16.68
2.2337,-9.3844,-1.7434,-0.060781,-0.000305,-0.0076358,-5.04,47.64,-16.68
2.2746,-9.3708,-1.7025,-0.05284,0.0045815,-0.0085521,-4.92,47.46,-16.86
2.2882,-9.3844,-1.7025,-0.054978,0.0030543,-0.0054978,-4.86,47.52,-16.98
2.3427,-9.3572,-1.7706,-0.05681,-0.0088575,0.0018326,-4.92,47.34,-17.04
2.3563,-9.3844,-1.7843,-0.059254,-0.0097738,0.0048869,-4.98,47.4,-16.8
2.3155,-9.3572,-1.7298,-0.067501,-0.0085521,0.0030543,-4.92,47.46,-16.62
2.3155,-9.3436,-1.7298,-0.069944,-0.0015272,-0.0061087,-4.98,47.46,-16.68
2.3018,-9.4389,-1.757,-0.068417,0.0088575,-0.0082467,-4.98,47.46,-16.62
2.2882,-9.3844,-1.7706,-0.069333,0.012217,-0.014966,-4.98,47.52,-16.5
2.3427,-9.3844,-1.6753,-0.069944,0.015882,-0.024129,-4.86,47.58,-16.44
2.3563,-9.4253,-1.6344,-0.069333,0.014355,-0.028405,-4.86,47.46,-16.44
2.3155,-9.3572,-1.6753,-0.070555,0.015882,-0.025962,-4.92,47.46,-16.32
2.3291,-9.3844,-1.7298,-0.062919,0.014661,-0.0281,-4.98,47.58,-16.32
2.3155,-9.3844,-1.7025,-0.061697,0.017104,-0.018937,-5.04,47.7,-16.26
2.3699,-9.3572,-1.7298,-0.046731,0.011912,-0.019242,-5.16,47.82,-16.08
2.3836,-9.3436,-1.5663,-0.053756,0.0027489,-0.018631,-5.22,47.82,-16.02
2.3291,-9.3299,-1.7298,-0.049175,0.0039706,-0.014966,-5.28,47.76,-15.9
2.3427,-9.3436,-1.757,-0.044593,0.0061087,-0.011606,-5.52,47.82,-15.9
2.3018,-9.3299,-1.7434,-0.042761,0.0076358,-0.0088575,-5.7,47.88,-15.96
2.2746,-9.398,-1.7843,-0.047647,0.012828,-0.012828,-5.7,47.88,-16.02
2.261,-9.3436,-1.7162,-0.045204,0.015272,-0.0048869,-5.76,47.94,-15.96
2.2746,-9.3572,-1.7706,-0.04948,0.021686,-0.0064141,-5.82,47.94,-16.02
2.3018,-9.3436,-1.7434,-0.05284,0.020159,-0.0048869,-5.82,48.12,-16.26
2.3155,-9.3844,-1.7843,-0.040928,0.023824,-0.0012217,-5.94,47.94,-16.26
2.3155,-9.3572,-1.8796,-0.046426,0.025656,-0.0033598,-6.06,47.88,-16.2
2.3427,-9.3572,-1.757,-0.04215,0.030238,0.0058032,-6.12,47.88,-16.08
2.3427,-9.3163,-1.7434,-0.036041,0.032376,-0.000611,-6.18,47.64,-16.14
2.3699,-9.3436,-1.7298,-0.034514,0.029322,0.010385,-6.24,47.7,-16.2
2.3836,-9.3163,-1.7298,-0.030849,0.029016,0.012523,-6.42,47.88,-16.44
2.3836,-9.3844,-1.7025,-0.029322,0.032376,0.016799,-6.24,47.76,-16.44
2.3972,-9.4117,-1.6344,-0.026878,0.039706,0.014661,-6.24,47.7,-16.32
2.4108,-9.3844,-1.8251,-0.01069,0.031154,0.016799,-6.3,47.52,-16.32
2.3836,-9.3572,-1.7843,-0.0024435,0.028711,0.025656,-6.48,47.58,-16.14
2.3972,-9.3436,-1.8115,-0.01405,0.027184,0.023518,-6.42,47.52,-16.02
2.4108,-9.3436,-1.757,-0.026267,0.044899,0.015882,-6.42,47.46,-15.84
2.4108,-9.4525,-1.7025,-0.036957,0.050702,0.010996,-6.36,47.46,-15.78
2.3972,-9.3436,-1.8115,-0.045204,0.064141,0.01405,-6.3,47.52,-15.84
2.3972,-9.3708,-1.6753,-0.036957,0.069944,0.009163,-6.24,47.52,-15.72
2.3563,-9.3844,-1.7162,-0.029627,0.064446,0.015577,-6.3,47.52,-15.84
2.4108,-9.3436,-1.6208,-0.026573,0.060781,0.013439,-6.12,47.58,-15.72
2.3836,-9.3436,-1.7162,-0.023824,0.051618,0.024129,-6.06,47.46,-15.66
2.3699,-9.398,-1.6617,-0.015577,0.044593,0.03543,-6.06,47.46,-15.66
2.3836,-9.3163,-1.6753,-0.01405,0.036041,0.038179,-6.0,47.52,-15.72
2.3699,-9.3436,-1.7025,-0.0030543,0.028711,0.042455,-6.06,47.58,-15.6
2.4244,-9.3299,-1.757,0.0073304,0.020464,0.044593,-6.0,47.64,-15.66
2.4789,-9.3299,-1.7434,0.0097738,0.013744,0.043066,-6.0,47.58,-15.96
2.4244,-9.4389,-1.7298,0.013744,-0.0079412,0.044288,-6.0,47.46,-16.02
2.4108,-9.4389,-1.7843,0.0061087,-0.013134,0.041539,-5.88,47.76,-16.2
2.3836,-9.4389,-1.7706,0.0045815,-0.019242,0.04215,-5.82,47.7,-16.26
2.2882,-9.4525,-1.7434,0.007025,-0.0281,0.040012,-5.7,47.76,-16.38
2.438,-9.4798,-1.7298,0.000611,-0.033598,0.032376,-5.76,47.76,-16.44
2.3427,-9.4253,-1.6753,-0.0061087,-0.040012,0.017715,-6.0,47.76,-16.32
2.3427,-9.4253,-1.6753,-0.0061087,-0.040012,0.017715,-6.0,47.76,-16.32
2.2474,-9.3572,-1.6753,-0.0073304,-0.03207,0.014966,-5.88,47.76,-16.44
2.2474,-9.3844,-1.6344,-0.028711,-0.024129,0.016493,-5.94,47.7,-16.38
2.2337,-9.4253,-1.6617,-0.025962,-0.0094684,0.011606,-5.76,47.7,-16.5
2.2474,-9.4389,-1.58,-0.03207,0.000916,0.011606,-5.76,47.82,-16.44
2.261,-9.4389,-1.58,-0.040928,0.016799,0.019242,-5.76,47.94,-16.5
2.2065,-9.4798,-1.6344,-0.04215,0.021991,0.014966,-6.06,47.94,-16.5
2.2474,-9.3708,-1.6481,-0.037263,0.037568,0.024435,-6.24,47.82,-16.5
2.2337,-9.4117,-1.6344,-0.032681,0.032681,0.040928,-6.36,47.88,-16.44
2.2882,-9.3844,-1.6617,-0.02138,0.016799,0.058643,-6.48,47.88,-16.38
2.3155,-9.3572,-1.6753,-0.013439,-0.0058032,0.069639,-6.54,47.88,-16.44
2.3155,-9.3163,-1.6072,-0.011606,-0.013439,0.07086,-6.54,47.82,-16.56
2.3155,-9.4117,-1.5527,-0.02138,0.0027489,0.077274,-6.66,47.7,-16.5
2.3427,-9.4525,-1.6344,-0.026573,0.012828,0.063835,-6.54,47.7,-16.44
2.4108,-9.3844,-1.7706,-0.025045,0.0073304,0.067806,-6.54,47.94,-16.5
2.4517,-9.3299,-1.6889,-0.015272,0.0048869,0.058032,-6.54,47.88,-16.44
2.3972,-9.3844,-1.7298,-0.015272,0.0051924,0.052534,-6.54,47.76,-16.44
2.438,-9.3027,-1.7298,-0.027794,0.0058032,0.041844,-6.54,47.7,-16.38
2.4517,-9.3436,-1.6753,-0.033292,0.011606,0.026573,-6.36,47.76,-16.62
2.4653,-9.3844,-1.7298,-0.035736,0.0076358,0.026267,-6.24,47.88,-16.5
2.4653,-9.3708,-1.6344,-0.029016,-0.002138,0.02138,-6.18,47.76,-16.5
2.4653,-9.398,-1.6481,-0.020159,-0.015882,0.019548,-6.24,47.7,-16.62
2.4517,-9.4117,-1.7434,-0.023213,-0.021991,0.0030543,-6.0,47.64,-16.8
2.4108,-9.3844,-1.7706,-0.030238,-0.009163,-0.0073304,-5.88,47.76,-16.8
2.3699,-9.4117,-1.6344,-0.030849,-0.0018326,-0.015272,-5.82,47.64,-16.8
2.3155,-9.3844,-1.6344,-0.036346,0.0061087,-0.014661,-5.94,47.7,-16.86
2.3155,-9.4117,-1.6617,-0.04215,0.0036652,-0.015577,-5.76,47.58,-16.74
2.3563,-9.4389,-1.6753,-0.034514,0.0048869,-0.012828,-5.76,47.76,-16.92
2.2882,-9.398,-1.6344,-0.045815,-0.0012217,-0.018021,-5.82,47.82,-16.8
2.2882,-9.3708,-1.6072,-0.047953,0.007025,-0.018326,-5.82,47.82,-16.98
2.1929,-9.4253,-1.5391,-0.046731,0.011912,-0.014966,-5.94,47.7,-16.92
2.2065,-9.4117,-1.58,-0.048258,0.018021,-0.0015272,-5.94,47.64,-16.92
2.2474,-9.4117,-1.471,-0.043677,0.022297,0.000611,-5.94,47.76,-16.92
2.2201,-9.4117,-1.6753,-0.039095,0.018326,0.0054978,-6.06,47.88,-16.8
2.1656,-9.3572,-1.5663,-0.023824,0.009163,0.018937,-6.18,47.82,-16.68
2.2474,-9.4117,-1.4029,-0.02474,0.020464,0.022602,-6.3,47.7,-16.62
2.1656,-9.3572,-1.5663,-0.013134,0.027489,0.02138,-6.3,47.7,-16.68
2.261,-9.3844,-1.6072,-0.02138,0.039706,0.029932,-6.18,47.76,-16.74
2.3018,-9.3708,-1.5255,-0.015272,0.03207,0.03543,-6.3,47.76,-16.8
2.3155,-9.4389,-1.6753,-0.016493,0.033292,0.038179,-6.24,47.64,-16.86
2.3427,-9.3844,-1.6344,-0.002138,0.03543,0.04215,-6.18,47.52,-16.92
2.3563,-9.398,-1.6344,0.0024435,0.01741,0.053451,-6.24,47.46,-16.86
2.3018,-9.4389,-1.6072,0.000611,0.020464,0.04948,-6.06,47.7,-16.8
2.3155,-9.398,-1.6481,-0.0042761,0.0082467,0.05284,-6.0,47.58,-16.8
2.3155,-9.3708,-1.757,-0.009163,0.0079412,0.049175,-5.94,47.52,-16.86
2.3018,-9.4117,-1.6889,-0.018937,0.022297,0.044899,-5.64,47.52,-16.92
2.3291,-9.4389,-1.6753,-0.024129,0.032987,0.040012,-5.52,47.58,-16.86
2.3836,-9.4934,-1.6344,-0.033292,0.040012,0.0281,-5.64,47.64,-16.86
2.4517,-9.4117,-1.6072,-0.0281,0.030849,0.029932,-5.4,47.58,-16.92
2.3427,-9.398,-1.6344,-0.028711,0.01741,0.032987,-5.4,47.52,-16.92
2.3291,-9.3436,-1.7025,-0.030543,0.019242,0.032681,-5.4,47.46,-16.98
2.3836,-9.4798,-1.6753,-0.033292,0.029322,0.032681,-5.34,47.28,-16.98
2.3427,-9.4117,-1.6753,-0.048869,0.035125,0.027184,-5.4,47.28,-16.98
2.3155,-9.4389,-1.6208,-0.050091,0.033598,0.029322,-5.16,47.28,-16.92
2.4108,-9.4117,-1.5255,-0.044899,0.037874,0.038485,-5.34,47.28,-16.86
2.3972,-9.4253,-1.58,-0.024435,0.017715,0.039401,-5.34,47.34,-16.68
2.3972,-9.3708,-1.6481,-0.014966,0.007025,0.041844,-5.28,47.34,-16.74
2.4244,-9.3844,-1.6481,-0.007025,-0.0033598,0.046731,-5.28,47.22,-16.62
2.4244,-9.3844,-1.6617,-0.0076358,-0.013744,0.04948,-5.34,47.28,-16.74
2.4108,-9.3844,-1.7843,-0.0054978,-0.023213,0.052229,-5.22,47.28,-16.86
2.3836,-9.398,-1.7298,-0.0088575,-0.043677,0.046731,-5.4,47.34,-16.86
2.4244,-9.4661,-1.7706,-0.016799,-0.051924,0.043371,-5.34,47.46,-16.8
2.4108,-9.4117,-1.7706,-0.01741,-0.0562,0.028405,-5.16,47.64,-16.8
2.3972,-9.4117,-1.757,-0.034514,-0.062919,0.024435,-5.16,47.7,-16.8
2.4108,-9.3844,-1.6753,-0.054062,-0.061087,0.0076358,-5.04,47.64,-16.68
2.3427,-9.4389,-1.7162,-0.055894,-0.064141,0.014355,-5.16,47.7,-16.92
2.3291,-9.507,-1.6889,-0.054978,-0.057116,0.002138,-5.16,47.7,-17.04
2.2882,-9.5479,-1.6344,-0.059254,-0.046731,-0.0045815,-5.16,47.76,-17.04
2.2882,-9.4117,-1.58,-0.06689,-0.038485,-0.014661,-5.1,47.76,-17.04
2.3155,-9.398,-1.6072,-0.062003,-0.039095,-0.023824,-5.22,47.82,-16.98
2.2065,-9.3163,-1.5391,-0.066584,-0.046731,-0.022907,-5.28,47.76,-16.92
2.2201,-9.3436,-1.5527,-0.059865,-0.045204,-0.02138,-5.28,47.88,-16.92
2.1929,-9.3844,-1.5391,-0.046731,-0.053756,-0.009163,-5.22,47.88,-16.98
2.2474,-9.4389,-1.4165,-0.030543,-0.068111,-0.0048869,-5.4,48.0,-16.98
2.1384,-9.4117,-1.5663,-0.028711,-0.078496,0.0058032,-5.58,47.94,-16.8
2.1384,-9.507,-1.5527,-0.02474,-0.065363,0.0064141,-5.76,48.0,-16.56
2.1793,-9.4253,-1.6072,-0.032681,-0.06353,0.010385,-5.76,47.94,-16.68
2.1656,-9.4798,-1.58,-0.023213,-0.065668,0.023213,-5.7,47.88,-16.5
2.1248,-9.3436,-1.6617,-0.021686,-0.062614,0.025656,-5.76,47.94,-16.5
2.1248,-9.4389,-1.6481,-0.013744,-0.058948,0.027489,-5.7,47.88,-16.56
2.1248,-9.4934,-1.6344,-0.030543,-0.051618,0.042455,-5.76,47.94,-16.44
2.1929,-9.4389,-1.7706,-0.032376,-0.045509,0.04948,-5.82,48.0,-16.5
2.1929,-9.4253,-1.7979,-0.023213,-0.049786,0.055283,-5.76,48.06,-16.56
2.1112,-9.4253,-1.757,-0.022907,-0.043982,0.063225,-5.82,47.88,-16.5
2.1929,-9.4389,-1.7706,-0.030543,-0.040317,0.062308,-5.82,47.82,-16.26
2.2337,-9.4389,-1.6753,-0.044899,-0.038485,0.058643,-5.76,47.7,-16.26
2.2474,-9.4798,-1.7434,-0.048258,-0.034208,0.060781,-5.7,47.76,-16.32
2.2201,-9.4117,-1.9613,-0.05681,-0.025351,0.059865,-5.7,47.88,-16.44
2.3699,-9.4253,-1.6889,-0.062003,-0.019548,0.06353,-5.82,48.0,-16.32
2.2882,-9.398,-1.6753,-0.052229,-0.017715,0.05681,-5.88,48.0,-16.44
2.2882,-9.3844,-1.7025,-0.056505,-0.026573,0.05284,-5.82,47.94,-16.38
2.2882,-9.4117,-1.6481,-0.055589,-0.033903,0.049175,-5.88,48.12,-16.32
2.3155,-9.3844,-1.6753,-0.059254,-0.036652,0.043066,-5.82,48.12,-16.38
2.2746,-9.3436,-1.6753,-0.063835,-0.037568,0.040623,-5.94,47.82,-16.38
2.2882,-9.4117,-1.6889,-0.050396,-0.034514,0.032987,-5.94,47.82,-16.26
2.2474,-9.3572,-1.6344,-0.04612,-0.035736,0.019548,-5.94,48.06,-16.26
2.3018,-9.3844,-1.6208,-0.052534,-0.022297,0.0097738,-6.0,48.0,-16.26
2.2746,-9.3708,-1.6753,-0.047647,-0.028711,0.018021,-6.06,48.0,-16.32
2.2746,-9.4117,-1.6617,-0.048564,-0.023824,0.015577,-6.06,48.0,-16.26
2.2337,-9.4253,-1.6344,-0.050702,-0.027184,0.0015272,-6.18,48.0,-16.14
2.2201,-9.4117,-1.6753,-0.042455,-0.018326,0.0079412,-6.24,48.0,-16.26
2.2746,-9.4117,-1.7025,-0.037874,-0.021075,0.007025,-6.18,47.94,-16.32
2.1929,-9.4934,-1.7025,-0.040623,-0.022907,0.010996,-6.18,47.94,-16.38
2.1248,-9.3844,-1.7979,-0.044593,-0.029322,0.0097738,-6.24,47.7,-16.62
2.152,-9.3708,-1.7979,-0.049786,-0.025656,0.014661,-6.42,47.76,-16.74
2.2337,-9.3844,-1.8387,-0.046426,-0.02474,0.010385,-6.24,48.0,-16.56
2.1656,-9.4117,-1.757,-0.055894,-0.025351,0.020464,-6.18,47.94,-16.56
2.1656,-9.398,-1.7979,-0.050396,-0.03543,0.016188,-6.18,47.88,-16.62
2.1384,-9.4117,-1.7706,-0.062308,-0.032681,0.015577,-6.36,48.0,-16.62
2.152,-9.4525,-1.7979,-0.062003,-0.020769,0.029932,-6.36,48.18,-16.5
2.1656,-9.3708,-1.7706,-0.060781,-0.016493,0.029016,-6.12,47.94,-16.68
2.152,-9.3436,-1.7298,-0.053756,-0.01405,0.020464,-6.0,47.76,-16.62
