Ax,Ay,Az,Gx,Gy,Gz,Mx,My,Mz
2.547,-8.322,-2.2882,0.17074,-0.13134,0.0064141,-12.12,42.0,-5.88
2.547,-8.4174,-2.3018,0.27153,-0.29902,0.093462,-12.3,41.88,-5.64
2.5061,-8.5944,-2.3291,0.35888,-0.48045,0.2474,-12.18,41.88,-5.64
2.4517,-9.1529,-2.7513,0.38546,-0.56352,0.31857,-12.0,41.82,-5.76
2.4517,-9.1665,-2.9556,0.37996,-0.58521,0.36652,-11.94,41.58,-5.88
2.4789,-9.0984,-3.0237,0.33292,-0.53665,0.3711,-11.88,41.34,-6.0
2.261,-9.2891,-2.833,0.23579,-0.2978,0.31062,-11.88,41.4,-5.88
2.2882,-9.4389,-2.833,0.05681,-0.037263,0.23518,-11.7,41.52,-6.0
2.3427,-9.6023,-2.7786,0.0058032,0.087354,0.18326,-11.76,41.22,-6.12
2.7241,-9.7249,-2.5742,-0.10324,0.36866,0.057116,-11.64,41.16,-6.18
2.8875,-9.7385,-2.4244,-0.1182,0.42516,-0.0061087,-11.52,41.04,-6.3
3.0918,-9.7385,-2.3155,-0.11332,0.3937,-0.062003,-11.46,41.04,-6.24
3.1327,-9.6432,-2.3155,-0.075747,0.19823,-0.1405,-11.16,40.86,-6.36
3.051,-9.5479,-2.4244,-0.071777,0.040012,-0.18326,-11.16,40.92,-6.66
2.9011,-9.4798,-2.3291,-0.07025,-0.016493,-0.20372,-11.04,41.04,-6.72
2.5061,-9.1937,-2.3427,-0.097128,-0.03207,-0.25168,-11.22,40.86,-6.9
2.3699,-9.2482,-2.3836,-0.1295,0.053145,-0.2865,-11.28,40.92,-6.96
2.3291,-9.1937,-2.3836,-0.14875,0.15608,-0.31154,-11.34,41.04,-6.96
2.3836,-9.0303,-2.2337,-0.14905,0.20372,-0.31796,-11.58,41.04,-6.96
2.4653,-8.9894,-2.2474,-0.13592,0.16463,-0.29169,-11.64,40.92,-6.9
2.4517,-8.9349,-2.2337,-0.10293,0.098349,-0.24709,-11.64,40.98,-6.9
2.3699,-8.9894,-2.2201,-0.095906,0.063225,-0.21747,-11.76,41.04,-6.78
2.3427,-8.9349,-2.1929,-0.037874,-0.016188,-0.11179,-12.12,41.04,-6.84
2.3155,-8.9349,-2.2474,-0.0042761,-0.046426,-0.037263,-12.3,41.1,-6.84
2.3836,-9.0439,-2.2065,0.03543,-0.057421,0.038179,-12.42,40.92,-6.9
2.4244,-9.0848,-2.2882,0.049175,-0.065363,0.083994,-12.42,40.92,-6.66
2.4244,-9.112,-2.2882,0.041539,-0.073609,0.11423,-12.66,40.86,-6.78
2.6287,-9.2482,-2.3427,0.062308,-0.10018,0.13225,-12.78,40.8,-6.72
2.6015,-9.2891,-2.4789,0.072998,-0.12278,0.14355,-12.9,40.74,-6.6
2.6015,-9.2891,-2.5198,0.062614,-0.13317,0.14508,-13.02,40.8,-6.54
2.6423,-9.3299,-2.4108,0.043371,-0.12431,0.13042,-12.84,40.86,-6.54
2.6287,-9.3708,-2.3972,0.0064141,-0.073304,0.11515,-12.96,40.86,-6.6
2.6015,-9.3844,-2.438,-0.020464,-0.035125,0.085216,-12.9,40.92,-6.54
2.6015,-9.4117,-2.3972,-0.053451,-0.0039706,0.05284,-12.9,40.8,-6.72
2.6423,-9.4389,-2.3427,-0.076358,0.034514,0.035125,-12.84,40.68,-6.6
2.7377,-9.398,-2.3291,-0.087048,0.042761,0.02138,-12.78,40.68,-6.72
2.656,-9.3844,-2.3291,-0.078496,0.044593,0.014355,-12.84,40.74,-6.78
2.6696,-9.3027,-2.2746,-0.080023,0.036652,0.010996,-12.66,40.68,-6.84
2.656,-9.2618,-2.261,-0.089186,0.043371,0.012217,-12.48,40.68,-6.72
2.5742,-9.2074,-2.2474,-0.090408,0.054062,0.009163,-12.42,40.5,-6.72
2.6015,-9.2346,-2.2882,-0.085521,0.05681,0.0030543,-12.3,40.62,-6.84
2.5198,-9.1256,-2.2474,-0.082772,0.05284,0.007025,-12.18,40.56,-6.9
2.6015,-9.112,-2.2882,-0.066584,0.027489,0.0076358,-11.94,40.56,-6.84
2.5198,-9.0575,-2.2882,-0.066584,0.013744,0.023824,-12.06,40.44,-6.84
2.5198,-9.0984,-2.2746,-0.051007,-0.002138,0.047342,-11.94,40.5,-6.78
2.5879,-9.0439,-2.2882,-0.048258,0.0012217,0.057421,-11.82,40.56,-6.72
2.5061,-9.0984,-2.3427,-0.039095,0.0085521,0.063835,-12.0,40.68,-6.66
2.5061,-9.1529,-2.1929,-0.038179,0.0079412,0.073915,-11.82,40.74,-6.66
2.5606,-9.1256,-2.3155,-0.037568,0.0079412,0.079107,-11.94,40.62,-6.72
2.547,-9.1801,-2.261,-0.033598,-0.0015272,0.08491,-11.94,40.44,-6.72
2.656,-9.2618,-2.3972,-0.026267,-0.0076358,0.07086,-12.24,40.5,-6.66
2.6423,-9.2482,-2.3427,-0.022297,-0.019548,0.069028,-12.54,40.5,-6.72
2.6696,-9.221,-2.3427,-0.024435,-0.036346,0.060781,-12.36,40.68,-6.6
2.6287,-9.1393,-2.3155,-0.021991,-0.040317,0.048564,-12.3,40.68,-6.78
2.6015,-9.1529,-2.4244,-0.016799,-0.041539,0.044899,-12.42,40.68,-6.78
2.6151,-9.1393,-2.4789,-0.034819,-0.039706,0.042455,-12.42,40.62,-6.84
2.6968,-9.1529,-2.3836,-0.03207,-0.043371,0.034514,-12.36,40.5,-6.96
2.6696,-9.221,-2.3972,-0.037263,-0.042761,0.03207,-12.36,40.62,-6.96
2.6696,-9.2074,-2.4517,-0.037568,-0.041233,0.0281,-12.36,40.62,-7.08
2.6015,-9.1393,-2.4517,-0.04215,-0.044288,0.014661,-12.3,40.62,-6.84
2.6287,-9.1801,-2.3836,-0.048258,-0.049786,0.013744,-12.24,40.74,-6.78
2.6287,-9.221,-2.3563,-0.048564,-0.06017,0.0039706,-12.18,40.62,-6.84
2.6015,-9.1937,-2.3836,-0.055894,-0.058338,-0.011301,-12.12,40.74,-6.96
2.547,-9.1937,-2.4653,-0.063835,-0.055589,-0.014966,-12.12,40.68,-6.96
2.5606,-9.1937,-2.3972,-0.07758,-0.025045,-0.024129,-12.24,40.56,-7.02
2.547,-9.1665,-2.3427,-0.094379,-0.01405,-0.033292,-12.24,40.5,-6.84
2.5742,-9.2074,-2.3563,-0.082772,-0.017104,-0.037874,-12.36,40.5,-6.78
2.5061,-9.1937,-2.3291,-0.086743,-0.031765,-0.051007,-12.42,40.56,-6.66
2.547,-9.1937,-2.3836,-0.089797,-0.032376,-0.043066,-12.36,40.62,-6.72
2.5742,-9.2346,-2.3836,-0.08094,-0.03879,-0.039401,-12.54,40.68,-6.72
2.4517,-9.1937,-2.3155,-0.067501,-0.040012,-0.031765,-12.48,40.8,-6.48
2.4789,-9.1393,-2.3291,-0.057727,-0.023213,-0.024435,-12.42,40.74,-6.48
2.5198,-9.0575,-2.3427,-0.071471,-0.022907,-0.013744,-12.36,40.68,-6.54
2.5061,-9.1665,-2.3291,-0.063225,-0.03146,-0.0067195,-12.24,40.5,-6.6
2.5334,-9.1665,-2.3427,-0.053145,-0.037568,-0.012217,-12.3,40.5,-6.6
2.547,-9.1529,-2.2882,-0.041233,-0.03879,-0.0076358,-12.42,40.74,-6.6
2.547,-9.1529,-2.3699,-0.025962,-0.049786,-0.0058032,-12.42,40.92,-6.54
2.5334,-9.1529,-2.3018,-0.031765,-0.054978,-0.0045815,-12.36,41.04,-6.54
2.5742,-9.0984,-2.4244,-0.026878,-0.054672,0.0015272,-12.36,40.92,-6.36
2.547,-9.1529,-2.3972,-0.022907,-0.054062,-0.0042761,-12.24,40.8,-6.54
2.5061,-9.1665,-2.4517,-0.03146,-0.038485,0.0082467,-12.24,40.8,-6.48
2.5879,-9.1393,-2.4789,-0.016188,-0.032376,0.0079412,-12.42,40.68,-6.24
2.6015,-9.1665,-2.4244,-0.014355,-0.029627,0.0067195,-12.54,40.68,-6.36
2.6151,-9.1665,-2.4244,-0.015272,-0.038179,0.0064141,-12.66,40.68,-6.42
2.5742,-9.2074,-2.5061,-0.021991,-0.040928,0.0073304,-12.9,40.8,-6.54
2.6015,-9.1801,-2.5061,-0.028405,-0.025351,-0.0030543,-13.08,40.92,-6.48
2.5879,-9.1937,-2.4789,-0.038179,-0.016188,-0.013439,-12.84,40.74,-6.12
2.547,-9.1801,-2.4789,-0.036041,-0.010996,-0.013439,-12.96,40.68,-6.18
2.5742,-9.221,-2.547,-0.043066,-0.0039706,-0.018937,-12.96,40.5,-6.12
2.5061,-9.1529,-2.4789,-0.039095,-0.0030543,-0.020769,-12.96,40.38,-6.12
2.547,-9.221,-2.5198,-0.048869,-0.0064141,-0.011301,-12.96,40.5,-6.24
2.547,-9.2482,-2.4789,-0.039401,-0.0076358,-0.010996,-13.08,40.44,-6.12
2.5742,-9.1937,-2.4108,-0.041844,-0.0085521,-0.0097738,-13.14,40.5,-6.0
2.5061,-9.1256,-2.4108,-0.04612,-0.000916,-0.0039706,-13.08,40.32,-6.0
2.5198,-9.1665,-2.5061,-0.044593,-0.0024435,0.0024435,-13.02,40.32,-6.06
2.547,-9.1801,-2.5742,-0.044593,-0.009163,0.0094684,-13.02,40.32,-6.12
2.4925,-9.1393,-2.5061,-0.043066,-0.016188,0.018631,-12.9,40.08,-5.88
2.5334,-9.1937,-2.4517,-0.04215,-0.010079,0.02138,-13.08,40.14,-5.82
2.5334,-9.112,-2.5198,-0.045204,-0.011912,0.023518,-13.2,39.96,-6.0
2.547,-9.1529,-2.4789,-0.038485,-0.020464,0.034208,-13.14,39.96,-5.82
2.5334,-9.1529,-2.3972,-0.042455,-0.027184,0.03879,-13.2,40.02,-5.7
2.547,-9.1937,-2.5061,-0.027794,-0.032681,0.054367,-13.26,40.14,-5.7
2.5198,-9.1665,-2.6015,-0.033292,-0.03543,0.063835,-13.26,39.96,-5.58
2.5334,-9.221,-2.5742,-0.026573,-0.029627,0.059865,-13.2,39.96,-5.58
2.547,-9.2074,-2.5061,-0.047037,-0.014661,0.062308,-13.08,40.02,-5.7
2.5742,-9.1393,-2.4925,-0.053451,-0.0048869,0.058643,-13.08,39.96,-5.82
2.6015,-9.221,-2.547,-0.060476,-0.0082467,0.055589,-13.14,39.84,-5.76
2.5606,-9.221,-2.5061,-0.064446,-0.010079,0.043677,-13.26,39.96,-5.64
2.547,-9.1665,-2.547,-0.06017,-0.01405,0.055589,-13.26,39.96,-5.7
2.5606,-9.1801,-2.4925,-0.063835,-0.012523,0.045815,-13.32,39.96,-5.76
2.6015,-9.2074,-2.4517,-0.060476,-0.0085521,0.05284,-13.08,40.08,-5.76
2.5742,-9.1256,-2.5061,-0.076053,0.000916,0.050702,-13.02,40.08,-5.82
2.5742,-9.1529,-2.4517,-0.069028,0.0039706,0.041233,-12.96,40.02,-6.0
2.6151,-9.1256,-2.4653,-0.079718,0.020464,0.044899,-13.02,39.96,-5.88
2.5742,-9.1256,-2.4108,-0.078802,0.0088575,0.047037,-13.02,40.02,-5.88
2.547,-9.1393,-2.438,-0.065057,0.0088575,0.045815,-12.96,40.08,-6.06
2.5334,-9.0848,-2.4108,-0.076358,0.0082467,0.039095,-13.02,40.02,-6.06
2.5742,-9.0848,-2.3972,-0.063225,0.013134,0.027489,-13.08,40.08,-6.12
2.6151,-9.1256,-2.438,-0.060476,0.016493,0.038485,-12.9,40.32,-6.06
2.6832,-9.1393,-2.4517,-0.068417,0.014355,0.037263,-12.78,40.32,-6.06
2.5606,-9.0575,-2.4789,-0.051313,0.007025,0.040012,-12.66,40.44,-6.0
2.5742,-9.0848,-2.438,-0.03879,0.0033598,0.029932,-12.48,40.5,-6.06
2.5742,-9.0575,-2.3836,-0.03543,0.0079412,0.03146,-12.6,40.38,-6.12
2.6015,-9.1529,-2.4108,-0.029932,0.012828,0.026878,-12.6,40.44,-6.12
2.656,-9.2482,-2.4108,-0.034819,0.01741,0.016799,-12.54,40.44,-6.06
2.6015,-9.112,-2.3972,-0.033292,0.018021,0.017104,-12.36,40.38,-6.18
2.6151,-9.1393,-2.3972,-0.017715,0.02138,0.0054978,-12.3,40.44,-6.24
2.5742,-9.1529,-2.3836,-0.028711,0.013439,0.014661,-12.36,40.56,-6.06
2.5606,-9.1529,-2.438,-0.016493,0.03146,0.011606,-12.3,40.62,-6.0
2.5606,-9.0439,-2.5334,-0.025656,0.047953,0.0061087,-12.42,40.56,-6.06
2.6151,-9.0848,-2.4925,-0.025351,0.046731,0.012217,-12.54,40.32,-6.0
2.5879,-9.0303,-2.5334,-0.032376,0.064446,0.011301,-12.48,40.2,-6.06
2.6423,-9.1529,-2.4653,-0.033903,0.060781,0.018326,-12.48,40.2,-6.0
2.6423,-9.0167,-2.4789,-0.034819,0.046426,0.021686,-12.48,40.26,-6.06
2.6696,-9.0848,-2.5198,-0.021686,0.043677,0.014966,-12.54,40.2,-6.06
2.6151,-9.1937,-2.547,-0.019242,0.054672,0.011606,-12.66,40.26,-6.12
2.6968,-9.221,-2.6015,-0.036652,0.044899,0.0051924,-12.78,40.26,-6.06
2.7241,-9.1937,-2.5334,-0.040317,0.040317,-0.002138,-13.02,40.44,-6.06
2.6968,-9.1801,-2.547,-0.039706,0.023824,-0.019242,-13.14,40.38,-6.0
2.6832,-9.112,-2.5061,-0.046426,0.025045,-0.027184,-13.14,40.14,-6.0
2.6287,-9.1801,-2.4789,-0.047037,0.025351,-0.038179,-13.26,40.08,-6.06
2.7241,-9.1393,-2.4653,-0.048258,0.026878,-0.044899,-12.96,40.26,-6.12
2.6151,-9.1937,-2.4789,-0.043677,0.017104,-0.040317,-13.08,40.38,-5.88
2.6015,-9.1937,-2.5061,-0.040012,0.012828,-0.036957,-13.2,40.44,-6.06
2.6151,-9.2482,-2.4517,-0.049786,0.015577,-0.03879,-13.32,40.32,-6.18
2.5879,-9.1256,-2.4789,-0.033598,0.009163,-0.026573,-13.38,40.26,-6.18
2.5334,-9.1801,-2.4925,-0.03146,0.002138,-0.022602,-13.38,40.5,-6.06
2.547,-9.1393,-2.438,-0.040928,0.0039706,-0.012523,-13.14,40.32,-6.0
2.5606,-9.1937,-2.3836,-0.031765,0.018937,-0.0048869,-13.2,40.38,-6.12
2.5879,-9.1937,-2.4244,-0.031154,0.010079,-0.0012217,-13.08,40.38,-6.06
2.5334,-9.2346,-2.3836,-0.027184,0.0039706,0.0045815,-12.96,40.44,-6.06
2.5061,-9.2482,-2.4789,-0.017104,-0.010079,0.021075,-13.08,40.62,-6.12
2.5334,-9.2755,-2.5334,-0.020159,-0.0051924,0.035125,-13.14,40.44,-6.12
2.547,-9.2346,-2.4653,-0.027184,-0.000916,0.037568,-13.26,40.32,-5.94
2.5334,-9.1937,-2.4789,-0.029322,-0.0018326,0.048564,-13.2,40.32,-5.94
2.547,-9.1937,-2.547,-0.02138,0.0042761,0.054978,-13.14,40.14,-5.94
2.5334,-9.1529,-2.4789,-0.032681,-0.0039706,0.060476,-13.26,40.26,-5.94
2.5742,-9.1801,-2.5198,-0.032987,-0.0012217,0.062003,-13.32,40.26,-5.88
2.547,-9.2074,-2.5334,-0.030543,-0.013134,0.068417,-13.32,40.2,-5.82
2.5879,-9.1665,-2.547,-0.034208,-0.014966,0.079107,-13.44,40.26,-5.88
2.6015,-9.0984,-2.5606,-0.050702,-0.01405,0.082772,-13.5,40.2,-5.76
2.5879,-9.0439,-2.4789,-0.041844,-0.016188,0.084299,-13.44,40.08,-5.76
2.656,-9.1256,-2.4108,-0.048258,-0.0058032,0.086743,-13.56,40.02,-5.82
2.7241,-9.1393,-2.4789,-0.040012,-0.019548,0.087965,-13.38,40.08,-5.94
2.7377,-9.1393,-2.4789,-0.028405,-0.034514,0.087354,-13.38,40.2,-6.0
2.7241,-9.1529,-2.5198,-0.030238,-0.023213,0.087659,-13.32,40.38,-6.06
2.7513,-9.1529,-2.4108,-0.043066,-0.014661,0.070555,-13.32,40.56,-6.06
2.7786,-9.1937,-2.547,-0.053451,-0.015882,0.056505,-13.38,40.56,-5.88
2.8058,-9.1256,-2.5334,-0.064141,-0.015272,0.051007,-13.08,40.62,-5.88
2.8058,-9.1256,-2.4517,-0.06353,-0.014661,0.023213,-12.9,40.56,-5.88
2.8194,-9.1256,-2.438,-0.075136,-0.002138,0.0030543,-12.84,40.68,-5.88
2.7513,-9.1665,-2.4244,-0.087048,0.0064141,-0.016799,-12.9,40.74,-5.7
2.7513,-9.1937,-2.4789,-0.094073,-0.0042761,-0.039401,-12.72,40.92,-5.76
2.7377,-9.0848,-2.4108,-0.10415,-0.0054978,-0.054672,-12.72,40.92,-5.76
2.6968,-9.1256,-2.3563,-0.10904,-0.0045815,-0.069028,-12.72,40.98,-5.58
2.6696,-9.0848,-2.4108,-0.11423,0.0012217,-0.091935,-12.9,40.98,-5.4
2.6696,-9.1256,-2.3427,-0.10568,-0.01741,-0.10049,-12.9,40.92,-5.28
2.6287,-9.221,-2.1929,-0.11332,-0.037874,-0.10843,-12.96,40.98,-5.1
2.547,-9.1937,-2.2201,-0.099876,-0.048564,-0.12034,-12.9,40.8,-5.1
2.5061,-9.0848,-2.2474,-0.069639,-0.071777,-0.12889,-12.84,40.86,-5.22
2.547,-9.0031,-2.2201,-0.053451,-0.094379,-0.11301,-13.14,40.8,-5.34
2.3563,-8.9894,-2.2065,-0.029322,-0.10751,-0.097433,-13.44,40.92,-5.22
2.2746,-9.0303,-2.1929,-0.011606,-0.088575,-0.078191,-13.5,40.92,-5.34
2.2065,-9.0575,-2.152,0.0054978,-0.058032,-0.050091,-13.56,40.86,-5.4
2.2474,-8.9894,-2.3291,0.04948,-0.053756,0.022602,-13.8,40.68,-5.34
2.2882,-8.9077,-2.3018,0.049786,-0.054062,0.054978,-13.8,40.68,-5.46
2.2474,-8.9894,-2.2882,0.072082,-0.053451,0.092852,-13.8,40.62,-5.52
2.3291,-9.0575,-2.3699,0.092852,-0.000916,0.13011,-13.8,40.68,-5.7
2.4108,-9.0575,-2.3972,0.10171,0.0048869,0.15027,-13.8,40.62,-5.82
2.4925,-9.112,-2.5061,0.11729,-0.021075,0.19639,-13.8,40.44,-5.88
2.4517,-9.1665,-2.4653,0.12767,-0.036957,0.23518,-13.74,40.44,-6.12
2.4517,-9.2755,-2.4653,0.10996,0.037568,0.23518,-13.8,40.32,-6.12
2.5334,-9.2482,-2.4517,0.086132,0.11179,0.21258,-13.62,40.32,-6.18
2.8467,-9.2618,-2.547,0.064446,0.13164,0.18173,-13.38,40.14,-6.36
2.8739,-9.2891,-2.5742,0.06689,0.087659,0.15699,-13.32,40.08,-6.48
2.833,-9.2891,-2.4653,0.062003,0.069028,0.14997,-13.08,40.02,-6.66
2.7241,-9.3163,-2.3291,0.068111,0.080023,0.13317,-12.72,40.08,-6.66
2.7377,-9.2755,-2.438,0.075442,0.080329,0.12248,-12.6,40.14,-6.72
2.8194,-9.221,-2.4517,0.080634,0.076664,0.12492,-12.42,40.02,-6.78
2.8739,-9.1393,-2.5061,0.071777,0.040928,0.14172,-12.12,39.96,-6.9
2.8467,-9.1801,-2.5061,0.067806,0.011301,0.13347,-11.82,39.84,-6.96
2.833,-9.2074,-2.5334,0.06353,-0.0012217,0.11118,-11.82,39.78,-7.08
2.9011,-9.221,-2.5606,0.03879,0.002138,0.1011,-11.82,39.84,-6.96
2.9011,-9.3163,-2.5198,0.0064141,0.009163,0.048258,-11.76,39.84,-7.08
2.9284,-9.3163,-2.4517,-0.0082467,0.0024435,0.034819,-11.7,39.9,-7.08
2.8875,-9.2891,-2.4789,-0.028711,-0.014661,-0.01405,-11.58,39.66,-7.14
2.7377,-9.3027,-2.4789,-0.04215,-0.028711,-0.034819,-11.52,39.66,-7.02
2.7241,-9.3572,-2.4653,-0.061697,-0.03146,-0.061697,-11.52,39.72,-6.96
2.6287,-9.3299,-2.4244,-0.087354,-0.021686,-0.09163,-11.58,39.48,-7.2
2.6287,-9.3436,-2.3563,-0.099876,-0.013439,-0.10293,-11.52,39.54,-7.14
2.547,-9.3436,-2.3291,-0.10873,-0.01069,-0.10507,-11.52,39.6,-7.14
2.4653,-9.2755,-2.2746,-0.12553,-0.011912,-0.10079,-11.58,39.48,-7.08
2.4653,-9.2755,-2.2337,-0.12645,-0.015272,-0.10049,-11.7,39.72,-7.08
2.4244,-9.2891,-2.2201,-0.13989,-0.0094684,-0.088881,-11.76,39.96,-7.02
2.4108,-9.1665,-2.1929,-0.14539,-0.0051924,-0.079412,-11.82,39.9,-7.02
2.3836,-9.1937,-2.1793,-0.13622,0.000305,-0.083383,-11.76,39.9,-7.02
2.4108,-9.2618,-2.1112,-0.1408,0.0015272,-0.07422,-11.82,39.72,-7.02
2.3427,-9.2482,-2.0567,-0.14172,0.002138,-0.068111,-12.0,39.78,-7.08
2.4108,-9.2482,-2.0703,-0.13195,0.012217,-0.065363,-12.24,39.6,-7.14
2.3836,-9.2755,-1.9886,-0.13317,0.019853,-0.043371,-12.36,39.6,-7.02
2.3155,-9.3572,-2.152,-0.11912,0.025656,-0.028405,-12.42,39.66,-7.02
2.3427,-9.3436,-2.1384,-0.11881,0.052229,-0.015272,-12.6,39.66,-6.96
2.3018,-9.2755,-2.0567,-0.11851,0.069333,-0.010079,-12.72,39.66,-6.84
2.3836,-9.2755,-2.0703,-0.10812,0.080023,0.007025,-12.84,39.72,-6.6
2.3427,-9.221,-2.0567,-0.088575,0.072693,0.016799,-12.84,39.66,-6.54
2.3427,-9.1801,-2.0975,-0.083383,0.061087,0.039706,-12.84,39.48,-6.42
2.3018,-9.1393,-2.0567,-0.073304,0.062614,0.052534,-13.08,39.72,-6.54
2.2882,-9.1393,-2.0703,-0.061392,0.089797,0.072082,-13.2,39.72,-6.36
2.3155,-9.0984,-2.0158,-0.052534,0.094073,0.075136,-13.08,39.72,-6.3
2.3155,-9.0848,-1.975,-0.019242,0.084605,0.1066,-13.02,39.9,-6.18
2.2746,-9.0575,-2.0294,0.020464,0.066584,0.14019,-12.9,40.08,-6.12
2.3291,-9.112,-2.0975,0.06353,0.050091,0.18295,-12.96,40.08,-6.36
2.3972,-9.1665,-2.1384,0.11209,0.021991,0.2361,-12.96,40.08,-6.18
2.4244,-9.1937,-2.1929,0.14936,-0.018937,0.31796,-12.9,39.96,-6.24
2.4789,-9.221,-2.3699,0.15974,-0.022602,0.33384,-12.9,40.02,-6.36
2.5061,-9.2482,-2.547,0.15608,-0.010996,0.36255,-12.9,40.08,-6.54
2.5879,-9.3163,-2.6015,0.14691,-0.0027489,0.37538,-12.78,40.2,-6.66
2.6968,-9.3844,-2.6287,0.11912,0.0058032,0.34483,-12.78,40.14,-6.84
2.8194,-9.4389,-2.656,0.083383,0.015272,0.30329,-12.3,39.96,-6.9
2.8739,-9.4389,-2.7241,0.034819,0.031765,0.19334,-12.18,40.08,-7.08
2.8875,-9.4525,-2.6696,-0.029627,0.032987,0.15027,-11.94,40.08,-7.14
2.8603,-9.3708,-2.6696,-0.11087,0.032376,0.046731,-11.82,40.08,-7.14
2.8058,-9.4117,-2.6287,-0.15577,0.043371,-0.0064141,-11.64,40.02,-7.26
2.6832,-9.4117,-2.4653,-0.18112,0.054367,-0.045815,-11.34,40.26,-7.14
2.656,-9.3572,-2.4244,-0.20006,0.048564,-0.072693,-11.22,40.26,-7.14
2.6423,-9.2755,-2.1929,-0.21747,0.032681,-0.10354,-10.92,40.2,-7.32
2.5742,-9.2346,-2.1656,-0.22419,0.029627,-0.12859,-10.86,40.26,-7.32
2.5061,-9.2074,-2.1248,-0.21961,0.026267,-0.14111,-10.8,40.26,-7.38
2.4517,-9.1256,-2.0567,-0.20556,0.0061087,-0.1405,-10.74,40.2,-7.26
2.3836,-9.0848,-1.9613,-0.18357,-0.012828,-0.13286,-10.68,40.2,-7.08
2.4789,-9.0712,-2.0158,-0.15424,-0.035736,-0.12034,-10.74,40.26,-7.02
2.4517,-9.0303,-2.0431,-0.13164,-0.054672,-0.11301,-10.74,40.26,-6.96
2.438,-9.0984,-1.9886,-0.099876,-0.079718,-0.1011,-10.98,40.2,-6.96
2.3563,-9.1256,-2.0567,-0.085521,-0.090713,-0.088881,-11.1,40.2,-6.9
2.3427,-9.1393,-2.152,-0.070555,-0.088881,-0.081856,-11.34,40.26,-6.78
2.3699,-9.1937,-2.152,-0.058032,-0.085216,-0.07086,-11.82,40.26,-6.72
2.3563,-9.1937,-2.1248,-0.054367,-0.071166,-0.059254,-11.94,40.2,-6.84
2.4108,-9.221,-2.1248,-0.049786,-0.064141,-0.059559,-12.06,40.2,-6.72
2.3836,-9.2346,-2.152,-0.047342,-0.051924,-0.061087,-12.24,40.14,-6.6
2.3836,-9.2482,-2.1929,-0.034819,-0.057421,-0.069028,-12.3,40.2,-6.3
2.3699,-9.2891,-2.2746,-0.029932,-0.055589,-0.057421,-12.36,40.2,-6.36
2.3155,-9.2755,-2.3155,-0.030238,-0.049786,-0.03879,-12.54,40.38,-6.36
2.2474,-9.2618,-2.2882,-0.027184,-0.037874,-0.036041,-12.6,40.44,-6.24
2.2474,-9.221,-2.3018,-0.037568,-0.025045,-0.020464,-12.6,40.38,-6.18
2.2882,-9.2074,-2.3155,-0.029932,-0.018631,-0.0054978,-12.84,40.5,-6.12
2.2337,-9.2891,-2.3427,-0.036652,-0.000305,0.0027489,-12.84,40.56,-6.24
2.3427,-9.2618,-2.3427,-0.044593,0.010996,0.020464,-12.66,40.5,-6.3
2.3699,-9.1937,-2.3972,-0.036041,0.011606,0.026267,-12.72,40.56,-6.18
2.3563,-9.221,-2.4244,-0.034819,0.000305,0.044899,-12.54,40.38,-6.18
2.3427,-9.221,-2.3155,-0.036957,-0.000916,0.043677,-12.72,40.5,-6.3
2.3563,-9.2074,-2.438,-0.039706,0.0033598,0.060781,-12.72,40.5,-6.36
2.4108,-9.1393,-2.4653,-0.034208,-0.002138,0.065363,-12.72,40.44,-6.54
2.3972,-9.2618,-2.4925,-0.03146,0.000916,0.078496,-12.78,40.5,-6.48
2.4108,-9.221,-2.4653,-0.044593,0.021686,0.094379,-12.66,40.38,-6.3
2.4925,-9.1801,-2.547,-0.044288,0.019242,0.085216,-12.72,40.44,-6.36
2.4517,-9.1529,-2.4789,-0.049175,0.017715,0.086132,-12.66,40.38,-6.18
2.5606,-9.1393,-2.4517,-0.044899,-0.0058032,0.072998,-12.54,40.38,-6.06
2.5742,-9.1393,-2.3836,-0.047037,-0.014966,0.076053,-12.66,40.38,-5.88
2.5606,-9.1665,-2.5061,-0.043677,-0.019853,0.075747,-12.54,40.38,-5.88
2.5334,-9.2482,-2.4108,-0.042761,-0.014355,0.067501,-12.36,40.38,-6.06
2.5198,-9.221,-2.4925,-0.043982,-0.012217,0.062003,-12.3,40.44,-6.0
2.5742,-9.2074,-2.4789,-0.054672,-0.000611,0.061392,-12.06,40.44,-5.94
2.6015,-9.221,-2.3563,-0.053756,0.0079412,0.059865,-12.0,40.38,-5.94
2.6151,-9.3163,-2.438,-0.049175,0.0039706,0.053756,-12.0,40.26,-5.94
2.5742,-9.2482,-2.4108,-0.044593,-0.0097738,0.039401,-11.94,40.32,-5.94
2.656,-9.1937,-2.4108,-0.037263,-0.023213,0.033903,-12.06,40.2,-6.18
2.5742,-9.1393,-2.4789,-0.026878,-0.033903,0.025045,-11.88,40.32,-6.24
2.5198,-9.1393,-2.4925,-0.04215,-0.035736,0.011912,-11.94,40.44,-6.48
2.5606,-9.2074,-2.6015,-0.058032,-0.025045,0.0094684,-11.76,40.44,-6.48
2.547,-9.1529,-2.5334,-0.055894,-0.013439,0.0079412,-11.7,40.44,-6.54
2.5742,-9.1665,-2.5334,-0.057421,-0.0048869,0.0067195,-11.76,40.44,-6.36
2.5606,-9.1665,-2.5606,-0.051618,-0.022297,0.0064141,-11.76,40.44,-6.24
2.5606,-9.1665,-2.5606,-0.051618,-0.022297,0.0064141,-11.76,40.44,-6.24
2.5198,-9.1937,-2.6287,-0.055283,-0.027794,-0.015882,-11.64,40.32,-5.94
2.4789,-9.221,-2.5061,-0.065668,-0.025351,-0.014966,-11.76,40.38,-5.88
2.4925,-9.2074,-2.5742,-0.069333,-0.017715,-0.016493,-11.88,40.5,-5.88
2.4517,-9.1937,-2.5606,-0.074526,-0.016493,-0.022602,-11.88,40.44,-5.82
2.5742,-9.221,-2.5879,-0.076053,-0.0097738,-0.029016,-12.0,40.32,-5.7
2.4517,-9.1256,-2.547,-0.081245,-0.016188,-0.031154,-12.12,40.26,-5.76
2.4789,-9.1529,-2.5061,-0.078496,-0.022907,-0.028405,-12.12,40.32,-5.88
2.3836,-9.1665,-2.5606,-0.079412,-0.019548,-0.023518,-12.12,40.2,-5.82
2.4244,-9.0848,-2.547,-0.081551,-0.019853,-0.017715,-12.3,40.2,-5.94
2.3836,-9.2074,-2.5061,-0.076358,-0.013439,-0.020464,-12.36,40.2,-5.94
2.4517,-9.1937,-2.5061,-0.079412,-0.0079412,-0.0073304,-12.42,40.2,-5.94
2.4108,-9.1937,-2.438,-0.075136,-0.025962,-0.012828,-12.6,40.32,-6.06
2.4517,-9.0848,-2.4517,-0.069639,-0.023824,-0.0082467,-12.78,40.26,-6.12
2.3836,-9.1529,-2.438,-0.067501,-0.022907,-0.0061087,-12.66,40.38,-6.06
2.4108,-9.1937,-2.5061,-0.064446,-0.018021,-0.002138,-12.72,40.26,-6.0
2.3972,-9.112,-2.4789,-0.061087,-0.0094684,0.012828,-12.66,40.2,-5.88
2.3836,-9.1801,-2.3836,-0.060781,0.000611,0.015272,-12.66,40.26,-5.7
2.4517,-9.1256,-2.3699,-0.060476,0.019853,0.012217,-12.84,40.26,-5.58
2.4789,-9.0848,-2.4108,-0.051618,0.0054978,0.018631,-12.84,40.2,-5.64
2.5334,-9.0439,-2.4108,-0.041844,-0.015577,0.020464,-12.84,40.2,-5.52
2.438,-9.112,-2.3291,-0.036957,-0.027794,0.020159,-12.66,40.26,-5.28
2.4517,-9.1937,-2.3427,-0.031765,-0.010996,0.027794,-12.72,40.14,-5.16
2.4653,-9.1801,-2.3836,-0.022297,0.0012217,0.031154,-12.9,40.2,-5.1
2.5198,-9.0984,-2.4925,-0.022297,0.0039706,0.032376,-12.84,40.14,-4.86
2.547,-9.0848,-2.4789,-0.020159,0.0024435,0.033598,-12.84,40.32,-4.8
2.4108,-9.1801,-2.3972,-0.0079412,0.0079412,0.023213,-12.9,40.26,-4.86
2.4653,-9.2346,-2.547,-0.0076358,0.023213,0.023213,-12.78,40.56,-4.86
2.5061,-9.1529,-2.5061,-0.0073304,0.02474,0.0281,-12.84,40.62,-4.92
2.5198,-9.221,-2.5061,-0.0024435,0.01741,0.026878,-12.78,40.56,-5.04
2.5198,-9.1529,-2.4789,0.0051924,0.01741,0.022297,-12.72,40.44,-5.04
2.438,-9.1393,-2.6287,0.0018326,0.0097738,0.029016,-12.72,40.5,-5.1
2.4653,-9.1256,-2.6423,-0.0073304,0.016188,0.023518,-12.78,40.56,-5.28
2.4789,-9.1529,-2.6015,-0.015272,0.018326,0.027489,-12.78,40.56,-5.52
2.4925,-9.1665,-2.6696,-0.012217,0.01741,0.0281,-12.78,40.62,-5.58
2.4789,-9.1393,-2.6015,-0.021686,0.010996,0.030543,-12.54,40.56,-5.64
2.4789,-9.1801,-2.5606,-0.023824,0.01069,0.03543,-12.6,40.62,-5.88
2.5061,-9.1937,-2.6015,-0.023824,0.012828,0.033903,-12.66,40.5,-5.88
2.5061,-9.1801,-2.6151,-0.034514,0.011301,0.030543,-12.66,40.44,-5.76
2.547,-9.1937,-2.5742,-0.042455,0.016188,0.032987,-12.72,40.2,-5.76
2.5606,-9.2074,-2.6015,-0.046426,0.0076358,0.033598,-12.72,40.14,-5.76
2.4789,-9.2074,-2.5742,-0.047953,0.009163,0.032376,-12.72,40.2,-5.88
2.4653,-9.1529,-2.5742,-0.047647,0.0085521,0.027489,-12.48,40.32,-5.94
2.5061,-9.1393,-2.4925,-0.051618,0.007025,0.028405,-12.54,40.38,-5.88
2.4789,-9.1937,-2.4653,-0.051007,0.017715,0.033598,-12.54,40.5,-5.94
2.5606,-9.221,-2.547,-0.054062,0.018326,0.029627,-12.6,40.56,-6.06
2.547,-9.0984,-2.5061,-0.045204,0.0051924,0.02474,-12.6,40.68,-6.18
2.5198,-9.0848,-2.5061,-0.051924,0.000916,0.025962,-12.66,40.68,-6.12
2.5061,-9.221,-2.4108,-0.047647,0.0054978,0.023824,-12.6,40.68,-6.06
2.5198,-9.221,-2.4925,-0.048258,0.0094684,0.026573,-12.48,40.5,-6.18
2.5742,-9.1801,-2.5061,-0.039706,-0.0024435,0.032987,-12.42,40.62,-6.18
2.5334,-9.221,-2.4517,-0.034208,-0.0036652,0.029932,-12.42,40.74,-6.18
2.4789,-9.1529,-2.3972,-0.039401,0.015577,0.020464,-12.3,40.8,-6.24
2.5061,-9.0848,-2.5334,-0.044593,0.020159,0.014355,-12.3,40.86,-6.18
2.547,-9.1665,-2.4789,-0.037568,0.0073304,0.012217,-12.42,40.8,-6.36
2.5061,-9.1937,-2.3699,-0.036346,0.0045815,0.011301,-12.3,40.56,-6.3
2.4517,-9.1529,-2.4108,-0.036652,-0.002138,0.0012217,-12.3,40.5,-6.18
2.4244,-9.1529,-2.438,-0.030238,-0.000916,0.012217,-12.3,40.38,-5.82
2.4517,-9.1529,-2.3018,-0.030849,-0.0085521,0.013439,-12.3,40.2,-5.82
2.4517,-9.1256,-2.3563,-0.02138,-0.0067195,0.019853,-12.36,40.2,-5.82
2.4653,-9.1937,-2.4108,-0.025045,0.011301,0.016493,-12.3,40.2,-5.7
2.4517,-9.1937,-2.3699,-0.031154,0.021686,0.016493,-12.36,40.56,-5.82
2.5334,-9.1529,-2.4653,-0.022907,0.011301,0.016188,-12.3,40.44,-5.94
2.4653,-9.1256,-2.4244,-0.010079,0.0048869,0.023213,-12.3,40.44,-5.94
2.5061,-9.1393,-2.4789,-0.011912,-0.0058032,0.025045,-12.36,40.32,-5.82
2.4789,-9.1393,-2.5198,-0.0067195,0.000611,0.02138,-12.42,40.26,-5.82
2.4517,-9.1801,-2.4244,-0.012523,-0.000611,0.025656,-12.42,40.32,-5.64
2.4789,-9.1937,-2.4925,-0.025045,-0.0015272,0.031154,-12.36,40.44,-5.52
2.5061,-9.2482,-2.5198,-0.02138,0.0027489,0.033903,-12.36,40.32,-5.64
2.438,-9.221,-2.4925,-0.02138,0.011912,0.033292,-12.18,40.32,-5.76
2.5061,-9.221,-2.4925,-0.03146,0.0033598,0.026878,-12.18,40.32,-5.76
2.5334,-9.2346,-2.5334,-0.025656,0.0033598,0.019548,-12.18,40.38,-5.7
2.5061,-9.1529,-2.5198,-0.031765,-0.0061087,0.017715,-12.12,40.32,-5.88
2.4517,-9.2074,-2.547,-0.037568,0.0036652,0.018631,-12.06,40.26,-5.76
2.5061,-9.1529,-2.4517,-0.042761,0.021075,0.014966,-12.0,40.08,-5.7
2.4517,-9.3163,-2.4108,-0.045815,0.012828,0.019242,-11.94,40.02,-5.58
2.5198,-9.221,-2.4789,-0.040317,0.000611,0.020464,-11.88,39.96,-5.64
2.4653,-9.221,-2.4108,-0.043371,0.0015272,0.018021,-11.82,40.08,-5.58
2.5061,-9.2482,-2.3563,-0.04612,0.0054978,0.01741,-11.76,40.02,-5.64
2.4653,-9.2346,-2.3563,-0.045815,0.012523,0.017715,-11.82,39.96,-5.52
2.4653,-9.1937,-2.3427,-0.045815,0.015577,0.020464,-12.0,40.2,-5.76
2.4517,-9.1665,-2.4108,-0.047342,0.01069,0.018937,-12.06,40.2,-5.7
2.5198,-9.0712,-2.4653,-0.039401,-0.011301,0.022602,-12.18,40.2,-5.7
2.4789,-9.1801,-2.3155,-0.039095,-0.0067195,0.021991,-12.24,40.2,-5.58
2.4789,-9.2346,-2.3427,-0.04215,0.0094684,0.025656,-12.12,40.2,-5.58
2.5061,-9.1256,-2.4108,-0.03207,-0.0027489,0.036652,-12.18,40.14,-5.7
2.438,-9.2074,-2.4244,-0.025351,-0.0097738,0.038485,-12.3,40.2,-5.58
2.4517,-9.1529,-2.3155,-0.022297,-0.0051924,0.025656,-12.42,40.32,-5.64
2.4789,-9.1801,-2.5061,-0.044288,0.000916,0.017104,-12.66,40.32,-5.7
2.5061,-9.1256,-2.4789,-0.045815,0.013134,0.009163,-12.66,40.38,-5.7
2.4517,-9.1937,-2.3972,-0.044899,0.010079,0.0088575,-12.72,40.38,-5.7
2.4789,-9.1529,-2.3836,-0.048258,0.0094684,0.016493,-12.6,40.44,-5.76
2.4789,-9.1665,-2.3836,-0.044899,0.0067195,0.0088575,-12.48,40.44,-5.64
2.4517,-9.1801,-2.3836,-0.031765,0.0045815,0.01405,-12.42,40.44,-5.7
2.4789,-9.1937,-2.4108,-0.040012,0.010079,0.023518,-12.3,40.5,-5.76
2.5606,-9.2074,-2.3836,-0.033903,0.0097738,0.015577,-12.3,40.5,-5.76
2.5742,-9.2618,-2.3155,-0.037874,0.022297,0.016188,-12.48,40.62,-5.64
2.5334,-9.221,-2.3427,-0.042455,0.018326,0.018631,-12.36,40.8,-5.76
2.4925,-9.1665,-2.3155,-0.033903,0.0073304,0.013744,-12.3,40.74,-5.76
2.4789,-9.1937,-2.3972,-0.027184,0.0064141,0.014661,-12.36,40.56,-5.7
2.4789,-9.1937,-2.5061,-0.024435,0.0054978,0.015577,-12.3,40.5,-5.82
2.547,-9.2074,-2.3836,-0.034514,0.022297,0.015577,-12.24,40.56,-5.82
2.5334,-9.1529,-2.3563,-0.028711,0.01405,0.011912,-12.24,40.44,-5.7
2.5198,-9.1937,-2.5061,-0.034514,0.011606,0.0088575,-12.3,40.5,-5.58
2.5334,-9.1801,-2.3836,-0.030238,0.013439,0.012828,-12.36,40.5,-5.58
2.5742,-9.1801,-2.3972,-0.027184,0.019242,0.0033598,-12.24,40.5,-5.52
2.5334,-9.1393,-2.4244,-0.025045,0.0073304,-0.0018326,-12.36,40.5,-5.58
2.5334,-9.1937,-2.5061,-0.024129,-0.002138,0.000305,-12.36,40.38,-5.58
2.4925,-9.1665,-2.4653,-0.031154,0.0018326,0.0076358,-12.36,40.32,-5.64
2.5061,-9.1665,-2.438,-0.036957,0.011606,-0.000305,-12.42,40.32,-5.58
2.5742,-9.1937,-2.4244,-0.037874,0.019548,-0.0076358,-12.48,40.38,-5.64
2.5061,-9.1801,-2.4244,-0.033903,0.012523,-0.010385,-12.42,40.38,-5.76
2.5061,-9.1937,-2.4653,-0.028405,-0.002138,-0.0088575,-12.42,40.56,-5.7
2.5742,-9.1937,-2.4925,-0.032681,-0.0067195,0.000611,-12.36,40.5,-5.7
2.438,-9.1529,-2.4789,-0.029627,-0.0024435,-0.0039706,-12.36,40.62,-5.88
2.4789,-9.1937,-2.4789,-0.039095,0.0033598,-0.000305,-12.42,40.62,-6.0
2.4925,-9.1937,-2.4925,-0.044593,0.007025,0.0036652,-12.36,40.56,-6.0
2.5061,-9.2074,-2.438,-0.045509,-0.0045815,-0.0027489,-12.54,40.38,-5.88
2.4653,-9.1256,-2.4517,-0.04612,-0.0076358,0.0073304,-12.54,40.38,-6.0
2.4517,-9.221,-2.5061,-0.037874,-0.0015272,0.0067195,-12.48,40.44,-6.12
2.5334,-9.221,-2.4108,-0.044593,-0.002138,0.023213,-12.48,40.38,-6.06
2.4925,-9.2074,-2.4789,-0.04215,-0.0042761,0.021991,-12.42,40.32,-6.18
2.547,-9.221,-2.438,-0.030543,-0.0094684,0.0281,-12.36,40.26,-6.18
2.547,-9.1801,-2.4244,-0.042455,0.000916,0.027794,-12.24,40.26,-6.12
2.5742,-9.2755,-2.3699,-0.045509,0.0085521,0.022602,-12.18,40.26,-6.12
2.5606,-9.2346,-2.3836,-0.059865,0.0042761,0.013134,-12.3,40.2,-6.18
2.5742,-9.1937,-2.4108,-0.057421,0.011912,0.01405,-12.42,40.14,-6.06
2.6015,-9.2074,-2.3699,-0.057421,0.015272,0.011912,-12.42,40.2,-6.0
2.5879,-9.1256,-2.3427,-0.053451,0.013439,0.0061087,-12.42,40.26,-6.0
2.5742,-9.1529,-2.3427,-0.053451,0.0030543,0.013744,-12.42,40.38,-6.06
2.547,-9.1937,-2.3155,-0.051007,0.000305,0.020769,-12.3,40.5,-6.0
2.5334,-9.1529,-2.4108,-0.040928,0.018326,0.022602,-12.24,40.38,-5.88
2.547,-9.1529,-2.3563,-0.048564,0.019242,0.018021,-12.3,40.44,-5.88
2.6287,-9.1529,-2.3291,-0.043677,0.019242,0.015577,-12.36,40.44,-5.7
2.547,-9.112,-2.3836,-0.037263,-0.000611,0.01741,-12.48,40.5,-5.76
2.547,-9.1393,-2.3972,-0.030543,0.0024435,0.018021,-12.54,40.56,-5.76
2.547,-9.1937,-2.4244,-0.031154,0.014661,0.019853,-12.66,40.44,-5.7
2.5742,-9.1937,-2.4108,-0.041233,0.0281,0.018021,-12.78,40.38,-5.7
2.5879,-9.112,-2.3836,-0.039706,0.013134,0.021075,-12.66,40.38,-6.0
2.5606,-9.1529,-2.5742,-0.036041,0.015272,0.019242,-12.66,40.2,-6.06
2.5334,-9.1529,-2.4653,-0.040012,0.011606,0.020464,-12.6,39.96,-6.06
2.5742,-9.1529,-2.3427,-0.037263,0.010079,0.019548,-12.72,39.9,-6.06
2.5742,-9.2074,-2.4244,-0.044593,0.012523,0.020464,-12.78,39.78,-6.12
2.547,-9.2482,-2.4108,-0.049175,0.012523,0.019242,-12.72,39.78,-6.36
2.5742,-9.221,-2.4789,-0.044899,0.017715,0.021075,-12.54,39.66,-6.36
2.547,-9.1801,-2.3699,-0.046426,0.020769,0.02138,-12.54,39.66,-6.42
2.5742,-9.0848,-2.4653,-0.047953,0.015272,0.015272,-12.42,39.66,-6.36
2.5334,-9.1665,-2.4517,-0.045815,0.0067195,0.022602,-12.36,39.66,-6.54
2.5061,-9.1529,-2.4517,-0.045204,-0.0015272,0.024435,-12.3,39.6,-6.48
2.5742,-9.1529,-2.4789,-0.04215,0.000916,0.035736,-12.06,39.6,-6.42
2.5879,-9.1393,-2.4244,-0.047342,0.0082467,0.03207,-12.12,39.54,-6.24
2.6423,-9.1256,-2.3972,-0.051007,0.0088575,0.029322,-12.12,39.6,-6.24
2.5742,-9.2346,-2.4517,-0.044593,0.0015272,0.025962,-12.06,39.6,-6.36
2.6151,-9.1665,-2.4517,-0.051618,0.0045815,0.027184,-12.0,39.72,-6.6
2.6287,-9.1529,-2.3155,-0.052229,-0.0051924,0.027794,-12.12,39.66,-6.54
2.6015,-9.2482,-2.3155,-0.047342,-0.0030543,0.021991,-12.24,39.72,-6.48
2.5879,-9.221,-2.2882,-0.052229,0.0082467,0.030238,-12.36,39.66,-6.66
2.6423,-9.2482,-2.3836,-0.044593,0.0024435,0.032987,-12.3,39.72,-6.6
2.6423,-9.1801,-2.3836,-0.032376,-0.014355,0.033292,-12.3,39.72,-6.6
2.6423,-9.1529,-2.3699,-0.031154,-0.0082467,0.030543,-12.3,39.66,-6.42
2.5879,-9.1529,-2.3836,-0.038485,0.000611,0.029627,-12.36,39.6,-6.48
2.5742,-9.1256,-2.4108,-0.039706,0.0039706,0.020159,-12.48,39.66,-6.24
2.5742,-9.1529,-2.4108,-0.039706,0.0064141,0.015272,-12.6,39.72,-6.06
2.6015,-9.1529,-2.3699,-0.041844,-0.0033598,0.0097738,-12.6,39.84,-6.0
2.6151,-9.1529,-2.4108,-0.03543,-0.010079,0.0073304,-12.54,39.96,-5.76
2.5742,-9.112,-2.4108,-0.037874,-0.0033598,0.012828,-12.48,40.02,-5.82
2.5742,-9.1665,-2.3972,-0.043371,-0.002138,0.018021,-12.48,40.14,-5.82
2.547,-9.1801,-2.3972,-0.042455,-0.000611,0.010996,-12.36,40.14,-5.58
2.547,-9.1665,-2.3563,-0.040928,0.0094684,0.018631,-12.36,40.32,-5.52
2.547,-9.1665,-2.4517,-0.041539,0.0048869,0.022297,-12.42,40.2,-5.76
2.5742,-9.1665,-2.3836,-0.025656,-0.012217,0.025351,-12.54,40.2,-5.76
2.5742,-9.1801,-2.3836,-0.03146,-0.0033598,0.029322,-12.54,40.32,-5.76
2.547,-9.1256,-2.4789,-0.03879,0.0058032,0.026267,-12.54,40.38,-5.76
2.547,-9.1801,-2.3563,-0.037263,0.0033598,0.020159,-12.42,40.26,-6.12
2.5879,-9.221,-2.438,-0.043982,0.0058032,0.019242,-12.36,40.14,-6.24
2.5742,-9.221,-2.3699,-0.041844,-0.000611,0.016799,-12.18,40.08,-6.36
2.5606,-9.1529,-2.3155,-0.043677,0.0015272,0.020769,-12.18,40.08,-6.3
2.6015,-9.1256,-2.438,-0.041844,0.0015272,0.027794,-12.24,40.02,-6.3
2.5742,-9.1937,-2.4108,-0.047647,0.0039706,0.016188,-12.18,39.96,-6.54
2.547,-9.2891,-2.4789,-0.041844,-0.0027489,0.02474,-12.24,40.02,-6.6
2.5606,-9.1937,-2.3699,-0.048869,-0.000916,0.026267,-12.24,39.96,-6.6
2.5879,-9.1937,-2.4517,-0.047953,0.0079412,0.023824,-12.18,40.08,-6.42
2.547,-9.1256,-2.4108,-0.044899,0.010385,0.018937,-12.18,40.02,-6.42
2.5742,-9.1801,-2.3155,-0.049786,0.0073304,0.021075,-12.24,39.96,-6.48
2.5606,-9.1801,-2.3155,-0.040012,-0.0051924,0.02138,-12.24,39.9,-6.48
2.6287,-9.2074,-2.3836,-0.040928,-0.007025,0.027489,-12.3,40.02,-6.42
2.547,-9.1937,-2.3291,-0.037263,-0.0045815,0.023824,-12.3,40.14,-6.36
2.5879,-9.1665,-2.3699,-0.032681,0.000611,0.029322,-12.3,40.2,-6.36
2.656,-9.1256,-2.3291,-0.02474,-0.0030543,0.019853,-12.36,40.14,-6.3
2.6151,-9.1256,-2.3155,-0.023518,-0.0088575,0.012217,-12.36,40.14,-6.24
2.6015,-9.1256,-2.3291,-0.029016,-0.019242,0.01741,-12.54,40.08,-6.18
2.5606,-9.1256,-2.4108,-0.017715,-0.0281,0.015272,-12.6,40.14,-6.24
2.5198,-9.1529,-2.3836,-0.016493,-0.014661,0.021686,-12.54,40.2,-6.18
2.5742,-9.221,-2.2882,-0.025045,-0.011912,0.030238,-12.54,40.02,-6.18
2.6015,-9.1801,-2.4789,-0.013439,-0.024435,0.028405,-12.6,40.08,-6.18
2.6015,-9.221,-2.4517,-0.0067195,-0.030238,0.027489,-12.54,40.02,-6.18
2.6423,-9.1801,-2.5061,-0.0061087,-0.016493,0.020159,-12.36,40.02,-6.18
2.6423,-9.1937,-2.4789,-0.015272,-0.014661,0.011912,-12.36,40.02,-6.18
2.6696,-9.1801,-2.4789,-0.023518,-0.016799,0.013134,-12.42,39.96,-6.0
2.5742,-9.1801,-2.3972,-0.037874,-0.019242,0.0054978,-12.48,39.84,-6.24
2.5742,-9.1256,-2.4517,-0.036957,-0.020159,0.000611,-12.42,39.9,-6.18
2.5198,-9.1529,-2.4789,-0.03207,-0.023518,0.0045815,-12.42,39.96,-6.18
2.547,-9.1256,-2.3972,-0.038179,-0.027184,0.01405,-12.3,39.9,-6.18
2.547,-9.1937,-2.438,-0.034514,-0.041844,0.020769,-12.36,39.78,-6.0
2.547,-9.1665,-2.3836,-0.033903,-0.036041,0.026267,-12.24,39.66,-6.12
2.656,-9.221,-2.438,-0.038179,-0.031154,0.026267,-12.36,39.78,-6.0
2.6151,-9.1801,-2.3836,-0.036957,-0.037874,0.022907,-12.3,39.84,-6.12
2.6423,-9.221,-2.3155,-0.033292,-0.04612,0.010996,-12.42,39.96,-6.12
2.5742,-9.2346,-2.4108,-0.030849,-0.045815,0.009163,-12.66,40.14,-6.3
2.5742,-9.2074,-2.4108,-0.043982,-0.031154,0.0061087,-12.78,40.08,-6.3
2.5742,-9.1665,-2.4517,-0.060476,-0.019548,0.0012217,-12.84,40.08,-6.48
2.5198,-9.1801,-2.438,-0.052534,-0.012828,-0.0018326,-12.9,40.2,-6.36
2.547,-9.1529,-2.3972,-0.05681,-0.017715,-0.0018326,-12.96,40.08,-6.3
2.5334,-9.0848,-2.3427,-0.050702,-0.020769,0.0051924,-12.96,40.02,-6.3
2.5198,-9.2074,-2.4108,-0.06017,-0.016188,0.0045815,-12.78,39.96,-6.12
2.4789,-9.1529,-2.438,-0.062614,-0.016799,0.0058032,-12.66,40.02,-6.12
2.547,-9.2755,-2.3836,-0.059559,-0.0088575,0.010079,-12.66,40.02,-6.0
2.4789,-9.2482,-2.3972,-0.068722,-0.0024435,0.01069,-12.66,39.9,-6.12
2.5334,-9.221,-2.4244,-0.064141,0.0094684,0.0097738,-12.72,39.96,-6.12
2.5606,-9.1529,-2.3972,-0.066584,0.0058032,0.0097738,-12.84,39.78,-6.0
2.4925,-9.1393,-2.3836,-0.058032,-0.012828,0.023518,-12.72,39.78,-5.88
2.5198,-9.1393,-2.3427,-0.052229,-0.013744,0.029322,-12.78,39.9,-5.88
2.4653,-9.221,-2.3699,-0.047037,-0.0088575,0.040012,-12.6,39.84,-5.82
2.4925,-9.1529,-2.3836,-0.049786,0.0058032,0.048258,-12.54,39.72,-5.7
2.5879,-9.221,-2.2065,-0.042455,0.0036652,0.055894,-12.6,39.78,-5.76
2.6015,-9.1937,-2.3155,-0.048564,0.0033598,0.054062,-12.6,39.78,-5.82
2.547,-9.221,-2.3427,-0.033598,-0.011301,0.048564,-12.6,39.66,-5.88
2.5061,-9.1801,-2.4108,-0.041233,-0.0067195,0.046426,-12.6,39.78,-5.94
2.5742,-9.1393,-2.438,-0.039706,0.0058032,0.053756,-12.6,39.78,-6.0
2.5742,-9.1665,-2.4789,-0.034819,-0.0045815,0.061697,-12.48,39.84,-5.88
2.6015,-9.1256,-2.4925,-0.028405,-0.0073304,0.062919,-12.42,39.84,-5.82
2.547,-9.1665,-2.4653,-0.045204,0.013744,0.050396,-12.3,39.84,-5.7
2.5334,-9.112,-2.4108,-0.049175,0.029627,0.037568,-12.3,39.9,-5.64
2.6015,-9.1256,-2.5061,-0.058948,0.025351,0.03146,-12.12,39.84,-5.76
2.6423,-9.1256,-2.547,-0.05284,0.0094684,0.031154,-12.06,39.9,-5.76
2.5742,-9.1256,-2.4789,-0.049175,-0.0033598,0.031765,-12.06,39.96,-5.76
2.5606,-9.1256,-2.4653,-0.041539,-0.000916,0.03207,-12.12,40.02,-5.88
2.6015,-9.1801,-2.5198,-0.050702,0.0079412,0.028711,-12.12,40.02,-5.76
2.6423,-9.1529,-2.4789,-0.055283,0.0082467,0.03207,-12.06,40.08,-5.82
2.5742,-9.1529,-2.3836,-0.053756,0.01405,0.019853,-12.06,40.08,-5.64
2.6015,-9.1529,-2.3836,-0.057421,0.015577,0.019242,-12.12,40.14,-5.7
2.5879,-9.1529,-2.4517,-0.0562,0.0082467,0.014966,-12.3,40.2,-5.64
2.5606,-9.1256,-2.3972,-0.041844,-0.0045815,0.017104,-12.48,40.02,-5.82
2.4925,-9.1256,-2.3563,-0.03207,-0.011606,0.018021,-12.3,40.02,-5.88
2.5061,-9.0848,-2.3972,-0.031154,-0.012217,0.016799,-12.3,40.02,-5.94
2.547,-9.0984,-2.4517,-0.041844,-0.0042761,0.020159,-12.36,39.9,-5.88
2.547,-9.1256,-2.4517,-0.041844,-0.0030543,0.021991,-12.48,39.96,-5.82
2.5334,-9.1393,-2.3972,-0.042455,0.0018326,0.0094684,-12.66,39.96,-5.82
2.6287,-9.2618,-2.4108,-0.035125,-0.0018326,0.012523,-12.66,39.9,-5.94
2.5198,-9.221,-2.3972,-0.032376,-0.015577,0.010079,-12.42,39.9,-6.18
2.547,-9.1937,-2.4517,-0.035125,-0.01741,0.0076358,-12.6,39.9,-6.06
2.4517,-9.1937,-2.4108,-0.035736,-0.01069,0.016188,-12.6,40.02,-6.12
2.5742,-9.1256,-2.4517,-0.034208,0.0027489,0.01069,-12.66,40.14,-6.24
2.5198,-9.1256,-2.4517,-0.034514,0.0039706,0.010385,-12.54,40.2,-6.3
2.5742,-9.1801,-2.4244,-0.03207,-0.013134,0.011301,-12.6,40.38,-6.18
2.5606,-9.1801,-2.4108,-0.036957,-0.013439,0.012523,-12.72,40.44,-6.18
2.5606,-9.221,-2.5061,-0.03543,-0.013744,0.014966,-12.78,40.38,-6.18
2.4789,-9.1665,-2.4653,-0.034819,0.0015272,0.019853,-12.78,40.44,-6.06
2.547,-9.1801,-2.4517,-0.041233,0.000305,0.023518,-12.9,40.44,-6.06
2.4653,-9.1529,-2.3972,-0.037568,-0.01069,0.024435,-12.78,40.44,-6.06
2.4789,-9.2346,-2.3018,-0.031154,-0.011912,0.030238,-12.84,40.32,-6.0
2.5061,-9.2346,-2.4108,-0.033903,-0.0067195,0.033903,-12.9,40.38,-6.0
2.547,-9.2482,-2.438,-0.023824,-0.0067195,0.039401,-12.9,40.38,-5.94
2.5061,-9.1529,-2.4517,-0.0281,-0.000611,0.042761,-12.78,40.08,-5.7
2.547,-9.221,-2.5606,-0.042761,0.0085521,0.03543,-12.84,40.2,-5.76
2.547,-9.1937,-2.4244,-0.038485,0.01069,0.025962,-12.96,40.2,-5.64
2.5061,-9.3299,-2.5198,-0.044288,0.0018326,0.023824,-12.84,39.84,-5.64
2.5061,-9.1529,-2.4108,-0.043982,-0.0079412,0.022297,-12.84,39.72,-5.58
2.547,-9.1529,-2.4108,-0.049786,-0.0054978,0.023824,-12.78,39.66,-5.52
2.547,-9.221,-2.4244,-0.043677,0.0039706,0.029932,-12.72,39.54,-5.64
2.4789,-9.1665,-2.4108,-0.033903,0.0088575,0.028711,-12.78,39.48,-5.7
2.547,-9.1529,-2.3699,-0.045204,0.0073304,0.029016,-12.66,39.48,-5.64
2.5742,-9.1665,-2.3018,-0.049175,0.010996,0.01741,-12.72,39.54,-5.46
2.5334,-9.1529,-2.3836,-0.045509,0.0058032,0.018326,-12.9,39.54,-5.46
2.5606,-9.0984,-2.3836,-0.042761,0.0042761,0.015272,-12.9,39.54,-5.52
2.5742,-9.1529,-2.3427,-0.036041,0.0048869,0.01741,-12.84,39.48,-5.52
2.5742,-9.112,-2.4244,-0.03207,0.0051924,0.010385,-12.78,39.42,-5.64
2.5061,-9.1256,-2.4789,-0.032987,0.01069,0.015272,-12.78,39.42,-5.52
2.5061,-9.1665,-2.438,-0.040317,0.012828,0.017104,-12.66,39.6,-5.64
2.5606,-9.1256,-2.4925,-0.038485,0.015272,0.015882,-12.66,39.72,-5.64
2.5198,-9.1529,-2.4517,-0.032376,0.012523,0.014661,-12.66,39.78,-5.64
2.5061,-9.1529,-2.4517,-0.040317,0.000305,0.010079,-12.72,39.84,-5.7
2.547,-9.1937,-2.4517,-0.036041,0.0030543,0.021075,-12.66,39.9,-5.7
2.547,-9.1937,-2.3699,-0.040928,0.0073304,0.018021,-12.48,40.02,-5.7
2.5061,-9.221,-2.4244,-0.040012,0.014661,0.019853,-12.6,40.08,-5.7
2.5334,-9.1529,-2.4108,-0.040317,0.019853,0.010996,-12.36,40.2,-5.88
2.6015,-9.1801,-2.4653,-0.045815,0.015577,0.01405,-12.36,40.2,-5.76
2.547,-9.1665,-2.4789,-0.03879,0.01069,0.016799,-12.3,40.08,-5.88
2.5742,-9.1529,-2.438,-0.040623,0.000305,0.016493,-12.3,40.08,-5.88
2.5198,-9.1665,-2.547,-0.040317,0.0024435,0.011301,-12.42,39.9,-6.0
2.5334,-9.2074,-2.4653,-0.03543,0.014966,0.025962,-12.48,40.02,-5.76
2.547,-9.1393,-2.4653,-0.042455,0.0039706,0.028711,-12.48,40.08,-5.88
2.5742,-9.1801,-2.4108,-0.040012,0.0051924,0.025045,-12.3,40.08,-6.0
2.5606,-9.221,-2.3427,-0.043677,0.011606,0.023518,-12.24,40.14,-6.06
2.6015,-9.221,-2.4108,-0.037568,0.0082467,0.029627,-12.18,40.08,-6.12
2.6151,-9.1937,-2.4653,-0.026878,0.0073304,0.030238,-12.24,40.08,-6.06
2.5606,-9.1393,-2.5061,-0.027489,0.0027489,0.03543,-12.24,40.14,-6.06
2.6015,-9.1937,-2.4653,-0.041844,0.0085521,0.026267,-12.36,40.02,-6.0
2.5742,-9.1256,-2.4925,-0.047342,0.01405,0.021991,-12.36,39.96,-6.06
2.5742,-9.1937,-2.438,-0.051924,0.018631,0.0061087,-12.54,40.08,-6.06
2.5742,-9.1801,-2.3836,-0.054672,0.0058032,0.0082467,-12.54,40.02,-6.12
2.5334,-9.1937,-2.3155,-0.041233,0.002138,0.01069,-12.42,40.14,-6.18
2.4925,-9.1256,-2.3427,-0.03543,0.002138,0.014355,-12.54,39.84,-6.3
2.5742,-9.1937,-2.3972,-0.035736,0.0042761,0.025656,-12.42,39.9,-6.18
2.5742,-9.2074,-2.3427,-0.047342,0.0051924,0.023518,-12.48,39.9,-6.12
2.5742,-9.2074,-2.3972,-0.043982,0.016188,0.026267,-12.66,39.96,-5.94
2.6015,-9.1937,-2.3836,-0.041233,0.015577,0.022602,-12.66,40.08,-5.82
2.6423,-9.1801,-2.4108,-0.037568,0.000611,0.021075,-12.84,39.9,-5.94
2.5606,-9.221,-2.3836,-0.030543,0.000916,0.021991,-12.9,39.78,-5.94
2.547,-9.221,-2.4244,-0.034819,0.0051924,0.020159,-12.78,39.78,-6.0
2.5606,-9.2074,-2.4517,-0.04948,0.019548,0.015272,-12.6,39.84,-6.0
2.547,-9.1665,-2.3836,-0.053145,0.024435,0.014661,-12.54,40.02,-6.0
2.547,-9.1937,-2.3836,-0.043371,0.019242,0.023518,-12.42,40.08,-5.88
2.5606,-9.1937,-2.3836,-0.043371,0.011606,0.026267,-12.6,39.84,-5.94
2.5334,-9.2074,-2.4108,-0.037263,0.011301,0.014355,-12.54,39.84,-6.0
2.5879,-9.1937,-2.4108,-0.044593,0.010385,0.015272,-12.6,39.9,-6.06
2.5606,-9.2074,-2.4653,-0.039401,0.017104,0.01741,-12.66,39.84,-6.24
2.5879,-9.1937,-2.438,-0.041844,0.020464,0.014966,-12.6,39.66,-6.36
2.547,-9.2074,-2.3972,-0.046426,0.027184,0.01405,-12.54,39.66,-6.36
2.6015,-9.1256,-2.3427,-0.043677,0.023518,0.012217,-12.36,39.84,-6.3
2.547,-9.1529,-2.3427,-0.042455,0.01741,0.020769,-12.18,39.84,-6.36
2.5742,-9.1529,-2.3563,-0.033598,0.007025,0.025962,-12.3,39.9,-6.3
2.547,-9.1665,-2.4517,-0.040317,0.0058032,0.026573,-12.42,39.84,-6.36
2.5742,-9.1529,-2.4517,-0.038179,0.016493,0.026573,-12.6,39.72,-6.3
2.5879,-9.1665,-2.4108,-0.035736,0.018021,0.025045,-12.6,39.66,-6.3
2.5606,-9.221,-2.3699,-0.04612,0.01405,0.027489,-12.54,39.72,-6.18
2.6287,-9.1256,-2.4244,-0.032376,0.0076358,0.019548,-12.36,39.9,-6.06
2.5879,-9.2346,-2.4108,-0.037874,0.0051924,0.022297,-12.12,39.96,-6.06
2.5334,-9.221,-2.3563,-0.038485,0.0076358,0.018631,-12.18,39.72,-6.06
2.5879,-9.2482,-2.3291,-0.039706,0.01405,0.027184,-12.3,39.9,-6.06
2.5742,-9.1529,-2.3291,-0.030543,0.0042761,0.033903,-12.48,39.84,-6.0
2.6287,-9.221,-2.3836,-0.03146,0.009163,0.036041,-12.6,39.72,-5.94
2.6015,-9.1937,-2.438,-0.03879,0.0097738,0.0281,-12.72,39.66,-6.0
2.6423,-9.1801,-2.4108,-0.043371,0.011912,0.017104,-12.66,39.6,-6.06
2.6015,-9.1393,-2.4517,-0.040928,0.021075,0.01405,-12.6,39.72,-6.06
2.5742,-9.1529,-2.4244,-0.043371,0.0097738,0.014355,-12.6,39.66,-6.0
2.5606,-9.1801,-2.3018,-0.044899,0.0094684,0.021991,-12.66,39.66,-6.0
2.547,-9.221,-2.3427,-0.044593,0.0030543,0.022602,-12.66,39.72,-6.18
2.5879,-9.1937,-2.3836,-0.043677,0.0018326,0.024129,-12.6,39.66,-6.48
2.5742,-9.1665,-2.438,-0.036957,0.0039706,0.029932,-12.72,39.66,-6.54
2.6015,-9.1801,-2.3427,-0.051007,0.010079,0.030849,-12.6,39.78,-6.54
2.6151,-9.1937,-2.3018,-0.034514,0.015882,0.01741,-12.48,39.78,-6.54
2.6832,-9.1801,-2.3427,-0.041233,0.010385,0.025045,-12.36,39.72,-6.78
2.6696,-9.2074,-2.3427,-0.030849,-0.0073304,0.019242,-12.3,39.78,-6.78
2.5879,-9.1665,-2.3563,-0.030543,-0.0076358,0.019548,-12.36,39.96,-6.78
2.5879,-9.1529,-2.3836,-0.03879,0.0097738,0.018021,-12.42,40.02,-6.66
2.6287,-9.1937,-2.3972,-0.047647,0.0085521,0.013439,-12.36,40.02,-6.6
2.5742,-9.1665,-2.3699,-0.045509,0.007025,0.013744,-12.36,39.84,-6.72
2.5879,-9.1529,-2.2882,-0.043066,0.0039706,0.0088575,-12.24,39.96,-6.78
2.6151,-9.1665,-2.3563,-0.042455,0.0042761,0.020159,-12.36,39.9,-6.78
2.6151,-9.1937,-2.3427,-0.040928,0.000305,0.014661,-12.54,39.84,-6.54
2.5742,-9.221,-2.4108,-0.036957,-0.0039706,0.011301,-12.66,39.96,-6.36
2.5606,-9.1529,-2.3427,-0.039401,-0.0039706,0.021991,-12.72,39.96,-6.36
2.6015,-9.1256,-2.3291,-0.038179,0.010996,0.020769,-12.48,39.96,-6.36
2.5334,-9.1256,-2.3155,-0.037263,0.015577,0.013744,-12.6,40.02,-6.24
2.6015,-9.1937,-2.3155,-0.034819,0.0064141,0.017104,-12.48,39.96,-6.18
2.5742,-9.1529,-2.3836,-0.037263,-0.0097738,0.020769,-12.36,39.9,-6.06
2.5606,-9.1801,-2.3699,-0.040317,-0.0045815,0.025045,-12.36,39.72,-6.24
2.4925,-9.1256,-2.4108,-0.029932,-0.0036652,0.024435,-12.18,39.6,-6.24
2.6287,-9.2346,-2.3563,-0.037263,0.0054978,0.03207,-12.36,39.84,-6.18
2.5742,-9.221,-2.3972,-0.038485,-0.0018326,0.030543,-12.6,39.72,-6.06
2.6287,-9.1937,-2.3836,-0.034208,-0.0064141,0.027184,-12.48,39.72,-6.12
2.656,-9.1801,-2.3427,-0.045204,-0.002138,0.030238,-12.54,39.78,-6.06
2.5879,-9.221,-2.3972,-0.042761,0.0036652,0.019548,-12.6,39.6,-6.24
2.6287,-9.1665,-2.4108,-0.050091,0.0015272,0.021686,-12.66,39.78,-6.12
2.6015,-9.1393,-2.3836,-0.04215,-0.0051924,0.014661,-12.66,39.78,-6.18
2.5742,-9.1529,-2.3427,-0.042761,-0.012523,0.021991,-12.54,39.72,-6.18
2.6287,-9.1393,-2.3972,-0.043066,-0.0039706,0.024129,-12.66,39.66,-6.18
2.5061,-9.1937,-2.3155,-0.039706,0.0082467,0.025656,-12.66,39.66,-6.42
2.6287,-9.1937,-2.3155,-0.039401,0.0048869,0.025656,-12.78,39.78,-6.3
2.5742,-9.1665,-2.3291,-0.028405,-0.011606,0.031765,-12.9,39.9,-6.42
2.5742,-9.1529,-2.3291,-0.028711,-0.0088575,0.027794,-12.78,39.84,-6.36
2.5879,-9.1393,-2.4244,-0.039401,-0.0051924,0.011912,-12.6,39.84,-6.36
2.5879,-9.1937,-2.4517,-0.04215,0.0058032,0.012217,-12.6,39.9,-6.3
2.5742,-9.1529,-2.3699,-0.044288,0.0048869,0.013744,-12.54,40.02,-6.36
2.6015,-9.1801,-2.3972,-0.043371,-0.0018326,0.013744,-12.42,40.14,-6.24
2.5606,-9.1937,-2.3018,-0.037263,-0.011606,0.019548,-12.36,40.14,-6.3
2.6423,-9.221,-2.3427,-0.045204,-0.013744,0.018937,-12.6,40.08,-6.36
2.6015,-9.1665,-2.3836,-0.039095,-0.0094684,0.022297,-12.48,40.08,-6.36
2.547,-9.1529,-2.3427,-0.046426,-0.0012217,0.023518,-12.48,40.26,-6.48
2.6287,-9.1393,-2.3018,-0.054672,0.017104,0.0281,-12.54,40.26,-6.36
2.6151,-9.1256,-2.3155,-0.051313,0.0030543,0.026878,-12.48,40.32,-6.48
2.6015,-9.1937,-2.3291,-0.042455,-0.013439,0.026573,-12.3,40.2,-6.48
2.5606,-9.1937,-2.3291,-0.037568,-0.011912,0.029016,-12.12,40.08,-6.48
2.5879,-9.221,-2.3699,-0.043066,0.002138,0.025962,-12.18,40.14,-6.6
2.6423,-9.1665,-2.3155,-0.040623,0.0064141,0.017715,-12.0,40.02,-6.6
2.5879,-9.1665,-2.3427,-0.042761,0.000916,0.012523,-11.88,40.08,-6.66
2.6151,-9.1937,-2.3972,-0.048258,-0.0042761,0.018326,-11.76,39.96,-6.66
2.5742,-9.1801,-2.3427,-0.040623,-0.0067195,0.018937,-11.94,40.14,-6.54
2.5061,-9.1937,-2.3291,-0.043066,-0.0054978,0.019853,-11.94,40.02,-6.54
2.6287,-9.1529,-2.3563,-0.037568,-0.002138,0.018631,-12.0,39.78,-6.42
2.5742,-9.1937,-2.3699,-0.048869,-0.0036652,0.013134,-12.0,39.96,-6.36
2.6015,-9.221,-2.3018,-0.047647,-0.000916,0.012523,-12.18,39.9,-6.48
2.5334,-9.1937,-2.3427,-0.047342,0.000611,0.015577,-12.3,39.96,-6.66
2.5742,-9.1937,-2.3291,-0.048869,0.010996,0.012217,-12.3,39.9,-6.54
2.5742,-9.1393,-2.3018,-0.054062,0.0027489,0.016493,-12.3,39.72,-6.42
2.5742,-9.1529,-2.4108,-0.037263,-0.0036652,0.022907,-12.3,39.72,-6.54
2.547,-9.1937,-2.4517,-0.041233,-0.0030543,0.018631,-11.94,39.54,-6.54
2.5742,-9.112,-2.3155,-0.037263,0.0033598,0.026267,-11.88,39.54,-6.42
2.6015,-9.0984,-2.2474,-0.043677,0.007025,0.030543,-12.0,39.72,-6.48
2.5061,-9.1529,-2.3291,-0.035736,0.0033598,0.028711,-12.06,39.78,-6.3
2.547,-9.1665,-2.3563,-0.040012,0.0024435,0.041844,-12.06,39.72,-6.24
2.5879,-9.1801,-2.3155,-0.039401,0.0033598,0.039401,-12.06,39.84,-6.24
2.5742,-9.1937,-2.3699,-0.033598,0.000916,0.03207,-12.06,39.9,-6.48
2.547,-9.1393,-2.2474,-0.036346,-0.0027489,0.027184,-11.94,39.9,-6.3
2.6287,-9.1256,-2.4108,-0.03879,-0.0015272,0.023518,-11.7,39.72,-6.12
2.5198,-9.1937,-2.3563,-0.045204,0.011912,0.035125,-11.88,39.78,-5.94
2.6015,-9.1937,-2.4108,-0.042455,0.011301,0.030238,-11.88,39.9,-6.06
2.547,-9.1529,-2.3155,-0.039706,0.0033598,0.019242,-11.82,39.84,-6.06
2.6015,-9.2074,-2.4108,-0.046731,-0.000305,0.018326,-11.7,39.66,-6.0
2.5742,-9.1801,-2.4108,-0.043066,0.0024435,0.028711,-11.58,39.66,-6.12
2.6015,-9.2074,-2.3155,-0.025351,-0.0012217,0.03207,-11.58,39.66,-6.0
2.547,-9.1665,-2.4108,-0.032681,-0.0094684,0.03543,-11.52,39.48,-5.94
2.547,-9.1665,-2.4517,-0.033292,-0.0058032,0.03543,-11.58,39.42,-6.0
2.6151,-9.1937,-2.3836,-0.042455,0.0097738,0.018326,-11.82,39.6,-6.0
2.5742,-9.1801,-2.3699,-0.051007,0.0033598,0.011301,-11.82,39.48,-6.06
2.5606,-9.1937,-2.4108,-0.049786,0.0024435,0.016799,-11.82,39.54,-6.06
2.6015,-9.1937,-2.4244,-0.044899,-0.011912,0.015272,-11.88,39.6,-6.12
2.5742,-9.1529,-2.3427,-0.045815,-0.0036652,0.024435,-11.94,39.6,-6.06
2.5879,-9.1665,-2.3018,-0.045815,-0.0027489,0.020769,-12.12,39.48,-5.94
2.6423,-9.1937,-2.3699,-0.045815,-0.0018326,0.023824,-12.06,39.6,-5.88
2.547,-9.1529,-2.3563,-0.048258,-0.010385,0.021075,-12.0,39.6,-5.88
2.6287,-9.1665,-2.3291,-0.043677,0.0082467,0.014966,-12.0,39.78,-5.94
2.656,-9.1529,-2.3018,-0.054672,-0.000305,0.020769,-12.0,39.84,-6.06
2.6015,-9.1393,-2.4244,-0.036346,-0.0064141,0.026267,-12.0,39.9,-6.18
2.6287,-9.1529,-2.3836,-0.037263,-0.011301,0.02138,-12.12,40.02,-6.3
2.5742,-9.2074,-2.3699,-0.043371,-0.0067195,0.014661,-12.18,39.84,-6.36
2.547,-9.2074,-2.4244,-0.047037,0.010079,0.010996,-12.18,40.02,-6.36
2.547,-9.1937,-2.3972,-0.051618,0.0027489,0.013744,-12.18,40.08,-6.48
2.5879,-9.1937,-2.3563,-0.054367,-0.000305,0.01741,-12.18,40.02,-6.48
2.5606,-9.1937,-2.3836,-0.050091,-0.0024435,0.0094684,-12.18,40.14,-6.48
2.5879,-9.221,-2.4244,-0.041233,-0.0054978,0.010079,-12.18,40.32,-6.24
2.5879,-9.221,-2.3699,-0.042761,-0.0076358,0.014661,-12.12,40.32,-6.3
2.5606,-9.221,-2.3836,-0.040928,-0.01069,0.014355,-12.18,40.26,-6.24
2.547,-9.1937,-2.4244,-0.044899,0.002138,0.015882,-12.18,40.26,-6.18
2.5742,-9.1937,-2.3427,-0.046731,0.0045815,0.016799,-12.12,40.26,-6.12
2.6015,-9.1937,-2.3836,-0.043371,0.000611,0.0076358,-12.12,40.2,-6.3
2.5606,-9.1393,-2.3836,-0.041233,-0.0076358,0.009163,-12.18,40.02,-6.18
2.5606,-9.1937,-2.4517,-0.042455,-0.0073304,0.021686,-11.88,40.08,-6.36
2.5742,-9.1529,-2.4517,-0.047037,-0.0088575,0.016799,-11.94,40.02,-6.18
2.5742,-9.1801,-2.3972,-0.046426,-0.007025,0.019853,-11.94,39.84,-6.12
2.6015,-9.1529,-2.4244,-0.043066,-0.0073304,0.026878,-12.0,39.72,-6.18
2.5742,-9.1937,-2.4244,-0.0562,-0.012828,0.023213,-12.06,39.72,-6.06
2.5606,-9.1665,-2.3699,-0.052229,-0.011912,0.022602,-11.88,39.66,-6.12
2.5742,-9.1665,-2.4108,-0.044899,-0.0082467,0.020159,-11.88,39.42,-6.06
2.5879,-9.2346,-2.438,-0.048869,-0.0048869,0.023824,-11.82,39.42,-5.94
2.6151,-9.1529,-2.3972,-0.049786,-0.013439,0.025962,-11.82,39.42,-5.82
2.6696,-9.2074,-2.4108,-0.048869,-0.016799,0.016799,-11.88,39.42,-5.88
2.6423,-9.2482,-2.4244,-0.055894,-0.009163,0.01741,-11.88,39.3,-5.82
2.6151,-9.1393,-2.3836,-0.065973,-0.013744,0.014661,-11.88,39.48,-6.18
2.5742,-9.1801,-2.3563,-0.068417,-0.016799,0.01405,-11.76,39.48,-6.18
2.6015,-9.1937,-2.4108,-0.055894,-0.0073304,0.0018326,-11.7,39.48,-6.24
2.6151,-9.1937,-2.3563,-0.051924,-0.0073304,0.021686,-11.88,39.6,-6.12
2.6015,-9.1256,-2.4517,-0.045509,-0.026267,0.026267,-11.88,39.84,-6.06
2.6015,-9.1529,-2.4517,-0.040012,-0.021991,0.033598,-11.76,39.78,-6.0
2.6015,-9.2074,-2.4653,-0.051313,-0.013439,0.025962,-11.94,39.9,-6.18
2.6423,-9.112,-2.5061,-0.0562,-0.007025,0.0088575,-11.88,40.08,-6.06
2.656,-9.1937,-2.4244,-0.062308,-0.0085521,0.0094684,-11.82,40.08,-5.88
2.5742,-9.1801,-2.4789,-0.063225,-0.014966,0.0039706,-12.0,39.84,-5.76
2.547,-9.0848,-2.3972,-0.050396,-0.021686,0.01741,-12.06,39.84,-5.88
2.547,-9.1529,-2.3836,-0.052534,-0.013134,0.025351,-12.18,39.78,-5.7
2.547,-9.2482,-2.4517,-0.048258,-0.015272,0.028711,-12.24,39.66,-5.88
2.5742,-9.1801,-2.4244,-0.0562,-0.013439,0.030849,-12.18,39.72,-5.88
2.5334,-9.1256,-2.4108,-0.05681,-0.0018326,0.030543,-12.42,39.78,-5.94
2.5198,-9.112,-2.3699,-0.062003,-0.002138,0.025351,-12.36,39.78,-5.94
2.5742,-9.0984,-2.3836,-0.049786,-0.012217,0.021686,-12.18,39.78,-5.76
2.5742,-9.1529,-2.4244,-0.044899,-0.018937,0.033903,-12.18,39.6,-5.88
2.5742,-9.0984,-2.4789,-0.036652,-0.014661,0.033598,-12.18,39.84,-5.82
2.6015,-9.1529,-2.5742,-0.045509,-0.0027489,0.039401,-12.18,40.02,-5.7
2.547,-9.1393,-2.4517,-0.053145,-0.0030543,0.032987,-12.24,40.08,-5.7
2.547,-9.1665,-2.4653,-0.048564,-0.0048869,0.033292,-12.18,40.32,-5.7
2.5879,-9.1529,-2.3427,-0.038485,-0.0058032,0.028711,-12.36,40.38,-5.88
2.5879,-9.1665,-2.3836,-0.041844,-0.007025,0.031765,-12.36,40.26,-5.82
2.6015,-9.1529,-2.4244,-0.036346,-0.011606,0.023213,-12.36,40.2,-5.58
2.6423,-9.1256,-2.3699,-0.049175,-0.011301,0.028405,-12.54,40.2,-5.64
2.6015,-9.1665,-2.4653,-0.043677,-0.0036652,0.026267,-12.6,40.26,-5.52
2.5879,-9.1529,-2.3972,-0.040928,0.0054978,0.025656,-12.66,40.2,-5.58
2.5742,-9.1529,-2.438,-0.050396,0.0097738,0.02138,-12.66,39.96,-5.46
2.6423,-9.1529,-2.4517,-0.052534,0.0051924,0.027184,-12.66,39.84,-5.64
2.6015,-9.1256,-2.4653,-0.042455,-0.0042761,0.029016,-12.6,39.96,-5.7
2.4925,-9.1256,-2.438,-0.037874,-0.0085521,0.031154,-12.66,39.72,-5.46
2.5742,-9.0984,-2.438,-0.037568,-0.0085521,0.02474,-12.66,39.78,-5.28
2.5606,-9.1529,-2.4517,-0.043982,-0.0094684,0.037263,-12.72,39.78,-5.46
2.547,-9.1393,-2.4653,-0.048258,-0.0048869,0.036957,-12.84,39.72,-5.34
2.547,-9.1393,-2.438,-0.044899,-0.0027489,0.040928,-12.78,39.9,-5.46
2.6015,-9.1937,-2.4108,-0.038485,-0.000305,0.038485,-12.72,40.2,-5.34
2.5742,-9.2074,-2.3291,-0.042455,-0.0036652,0.035125,-12.6,40.26,-5.34
2.5606,-9.1393,-2.5061,-0.041539,-0.012217,0.031765,-12.6,40.32,-5.22
2.5198,-9.2074,-2.4108,-0.046426,-0.0079412,0.03207,-12.6,40.38,-5.34
2.4789,-9.2074,-2.4108,-0.043677,0.002138,0.019242,-12.6,40.26,-5.52
2.5198,-9.221,-2.4925,-0.044593,-0.0048869,0.024129,-12.48,40.26,-5.64
2.547,-9.112,-2.3836,-0.03207,-0.0051924,0.014966,-12.36,40.2,-6.0
2.4789,-9.0984,-2.438,-0.035736,-0.0079412,0.027489,-12.42,40.02,-6.06
2.5061,-9.1665,-2.3836,-0.032987,-0.0097738,0.028711,-12.42,40.14,-6.18
2.5334,-9.1937,-2.4517,-0.027794,-0.010385,0.037874,-12.36,40.14,-6.06
2.5198,-9.1529,-2.4244,-0.019853,-0.0079412,0.047953,-12.36,40.08,-6.0
2.5334,-9.1665,-2.4244,-0.023213,0.002138,0.036041,-12.48,40.2,-5.94
2.5742,-9.1393,-2.4108,-0.027184,-0.0024435,0.012828,-12.48,39.9,-6.12
2.5742,-9.221,-2.4517,-0.025656,-0.02138,0.019548,-12.48,39.84,-6.18
2.547,-9.1256,-2.4108,-0.01741,-0.032376,0.030849,-12.48,40.02,-6.24
2.438,-9.221,-2.3699,-0.020464,-0.025962,0.033903,-12.48,40.02,-6.18
2.5198,-9.221,-2.3699,-0.011606,-0.0036652,0.032987,-12.48,40.14,-6.12
2.547,-9.2346,-2.4244,-0.024435,-0.010079,0.037568,-12.6,40.14,-6.0
2.547,-9.221,-2.4244,-0.026878,-0.021075,0.031154,-12.78,40.14,-6.0
2.5061,-9.1937,-2.3836,-0.029322,-0.0027489,0.027184,-12.66,40.14,-5.94
2.5334,-9.2074,-2.4244,-0.022907,-0.000916,0.01741,-12.48,40.26,-6.0
2.5606,-9.0984,-2.5061,-0.025351,-0.0036652,0.022602,-12.54,40.32,-6.06
2.4789,-9.1801,-2.4108,-0.016493,-0.010385,0.029932,-12.6,40.26,-6.0
2.5061,-9.221,-2.5061,-0.034514,0.0036652,0.029932,-12.6,40.02,-6.0
2.5061,-9.1529,-2.5334,-0.035736,0.0073304,0.019853,-12.6,40.08,-5.94
2.547,-9.1256,-2.5061,-0.040317,0.01069,0.021686,-12.6,40.14,-6.0
2.5334,-9.2074,-2.4244,-0.043066,0.0097738,0.027489,-12.66,39.9,-5.88
2.5742,-9.1937,-2.3972,-0.045204,0.0018326,0.023213,-12.84,39.78,-5.82
2.5061,-9.1801,-2.4517,-0.038485,-0.002138,0.02474,-12.84,39.96,-5.94
2.547,-9.2482,-2.3699,-0.035736,-0.0045815,0.022297,-12.6,39.9,-6.06
2.5061,-9.221,-2.3836,-0.040928,0.009163,0.026267,-12.6,39.9,-6.06
2.5334,-9.2074,-2.4653,-0.048564,0.010385,0.020769,-12.6,40.02,-5.88
2.5198,-9.1393,-2.3836,-0.050396,0.022297,0.017715,-12.66,40.14,-5.82
2.4925,-9.1529,-2.4244,-0.040012,0.012217,0.01741,-12.72,40.14,-5.58
2.5061,-9.1665,-2.2474,-0.040928,0.000916,0.017104,-12.66,40.14,-5.7
2.4789,-9.1801,-2.3155,-0.041844,0.0015272,0.020464,-12.6,40.32,-5.7
2.4789,-9.1256,-2.3699,-0.038179,0.010079,0.021991,-12.6,40.32,-5.64
2.5334,-9.1937,-2.438,-0.033292,0.0030543,0.026878,-12.6,40.26,-5.46
2.4517,-9.1529,-2.3427,-0.034514,-0.0024435,0.029627,-12.6,40.26,-5.52
2.4925,-9.1801,-2.4108,-0.028711,-0.002138,0.018631,-12.6,40.14,-5.58
2.4653,-9.1801,-2.3563,-0.034208,0.0079412,0.018631,-12.54,40.02,-5.58
2.4653,-9.2074,-2.3972,-0.034819,0.015882,0.018937,-12.6,40.08,-5.4
2.5061,-9.221,-2.4244,-0.043066,0.014966,0.016493,-12.42,40.08,-5.34
2.4789,-9.1256,-2.4789,-0.041844,0.0039706,0.016799,-12.36,40.26,-5.34
2.4653,-9.1529,-2.3427,-0.03879,0.0036652,0.014966,-12.36,40.14,-5.4
2.4789,-9.1256,-2.3972,-0.033292,0.010996,0.019853,-12.42,40.14,-5.46
2.5334,-9.2482,-2.438,-0.041233,0.009163,0.0281,-12.42,40.26,-5.58
2.5061,-9.1529,-2.4925,-0.035736,-0.0039706,0.032681,-12.48,40.2,-5.58
2.5061,-9.1665,-2.4244,-0.032376,0.0030543,0.034208,-12.54,40.2,-5.64
2.5061,-9.1937,-2.438,-0.043066,0.018631,0.028711,-12.48,40.2,-5.82
2.5742,-9.1529,-2.4517,-0.052229,0.018631,0.016188,-12.36,40.2,-5.82
2.5061,-9.1665,-2.4108,-0.044899,0.016188,0.012523,-12.36,40.2,-5.76
2.5061,-9.1665,-2.4108,-0.049786,0.009163,0.018021,-12.42,40.32,-5.7
2.4789,-9.0848,-2.3563,-0.044899,0.0058032,0.018326,-12.48,40.32,-5.76
2.4925,-9.1937,-2.3836,-0.053756,0.0067195,0.022602,-12.54,40.38,-5.82
2.547,-9.1529,-2.4108,-0.039706,0.0024435,0.024129,-12.72,40.32,-5.76
2.547,-9.1256,-2.4925,-0.04612,0.0054978,0.02474,-12.72,40.14,-5.82
2.547,-9.2074,-2.3699,-0.039401,0.0094684,0.018937,-12.66,40.2,-5.58
2.547,-9.1937,-2.3563,-0.047342,0.020769,0.017715,-12.48,39.78,-5.64
2.5334,-9.1937,-2.2882,-0.042455,0.0015272,0.019242,-12.6,39.9,-5.7
2.6015,-9.1937,-2.3836,-0.041233,-0.000916,0.02474,-12.48,39.84,-5.7
2.5879,-9.1937,-2.438,-0.029627,0.0027489,0.017715,-12.36,39.84,-5.58
2.5742,-9.1801,-2.3427,-0.032987,0.009163,0.011606,-12.54,40.02,-5.58
2.547,-9.1801,-2.3836,-0.043371,0.014661,0.014966,-12.54,39.9,-5.64
2.547,-9.221,-2.3836,-0.055894,0.012523,0.014966,-12.48,39.84,-5.64
2.5334,-9.221,-2.4517,-0.042761,0.010996,0.013439,-12.48,39.72,-5.7
2.4925,-9.1801,-2.3836,-0.043982,0.020769,0.013134,-12.48,39.72,-5.58
2.547,-9.221,-2.4653,-0.038485,0.013439,0.015272,-12.18,39.66,-5.88
2.5742,-9.1529,-2.4108,-0.040928,0.0018326,0.0082467,-12.18,39.72,-5.76
2.5879,-9.2346,-2.5061,-0.043677,0.0018326,0.013134,-12.24,39.72,-6.0
2.547,-9.221,-2.4108,-0.049175,0.014661,0.013744,-12.42,39.9,-5.82
2.5334,-9.1256,-2.3972,-0.048564,0.024129,0.0076358,-12.42,39.96,-5.88
2.5334,-9.1256,-2.4653,-0.047037,0.024435,0.0058032,-12.36,40.02,-5.94
2.5334,-9.112,-2.5061,-0.042455,0.0051924,0.0051924,-12.42,40.08,-6.0
2.5198,-9.1529,-2.4108,-0.037874,0.0015272,0.015272,-12.42,39.96,-5.94
2.4517,-9.2074,-2.3836,-0.044899,0.0064141,0.02474,-12.48,39.9,-5.82
2.5061,-9.221,-2.3836,-0.037568,0.0094684,0.027794,-12.42,40.08,-5.88
2.5334,-9.1937,-2.3972,-0.041539,0.007025,0.027489,-12.36,40.08,-6.0
2.5198,-9.221,-2.3972,-0.034514,0.0061087,0.027184,-12.42,40.02,-6.12
2.5606,-9.1801,-2.4653,-0.039401,0.0097738,0.023824,-12.84,40.14,-6.06
2.5061,-9.1801,-2.3836,-0.039401,0.0048869,0.015882,-12.72,40.08,-6.24
2.5606,-9.221,-2.4108,-0.039401,0.0073304,0.024129,-12.6,40.14,-6.24
2.5606,-9.1529,-2.4108,-0.040012,0.0088575,0.015577,-12.3,40.08,-6.36
2.5879,-9.1256,-2.3427,-0.039706,0.0051924,0.021991,-12.3,39.96,-6.36
2.547,-9.112,-2.3155,-0.037568,0.0033598,0.026573,-12.18,39.96,-6.36
2.5198,-9.2891,-2.3427,-0.038485,0.013134,0.022907,-12.18,39.84,-6.36
2.6015,-9.2482,-2.3972,-0.037874,0.0033598,0.035736,-12.18,39.84,-6.36
2.5742,-9.1256,-2.4244,-0.025962,-0.01069,0.032987,-12.3,39.9,-6.3
2.5742,-9.1801,-2.4517,-0.034819,-0.0073304,0.027489,-12.12,39.9,-6.24
2.5742,-9.1529,-2.4789,-0.041539,0.0073304,0.016493,-12.12,39.78,-6.3
2.5606,-9.2074,-2.4653,-0.045815,0.0082467,0.017715,-12.24,39.78,-6.3
2.5742,-9.221,-2.4244,-0.047953,0.0085521,0.016493,-12.12,39.66,-6.42
2.6015,-9.1529,-2.4108,-0.043982,0.0048869,0.015272,-12.06,39.54,-6.24
2.5334,-9.0848,-2.3563,-0.043371,0.0012217,0.014355,-12.36,39.54,-6.24
2.5334,-9.1529,-2.4108,-0.037874,-0.01069,0.01405,-12.36,39.54,-6.36
2.5606,-9.1937,-2.4517,-0.039706,-0.017104,0.020159,-12.42,39.54,-6.42
2.5742,-9.1801,-2.438,-0.041844,-0.0082467,0.025962,-12.54,39.42,-6.3
2.5061,-9.1937,-2.3699,-0.039095,0.002138,0.031154,-12.6,39.42,-6.24
2.5879,-9.2346,-2.3972,-0.039401,0.012217,0.019242,-12.66,39.42,-6.42
2.6015,-9.1529,-2.4108,-0.041233,-0.010079,0.016188,-12.48,39.24,-6.48
2.5879,-9.221,-2.3836,-0.028711,-0.023213,0.023213,-12.6,39.18,-6.6
2.5061,-9.1801,-2.4244,-0.029932,-0.009163,0.017715,-12.36,39.18,-6.36
2.6151,-9.221,-2.438,-0.036346,0.0033598,0.019853,-12.42,39.3,-6.24
2.5879,-9.221,-2.3699,-0.044899,0.0097738,0.012217,-12.42,39.42,-6.18
2.6015,-9.1937,-2.4108,-0.047647,-0.0079412,0.017715,-12.54,39.54,-6.18
2.5742,-9.1937,-2.4244,-0.043677,-0.0097738,0.018631,-12.48,39.42,-6.18
2.547,-9.1937,-2.4108,-0.036957,-0.0079412,0.015882,-12.42,39.42,-6.0
2.5742,-9.1937,-2.4108,-0.043982,0.0024435,0.0067195,-12.42,39.48,-6.06
2.547,-9.221,-2.3836,-0.038485,-0.0027489,0.014966,-12.48,39.48,-6.06
2.5198,-9.1801,-2.3155,-0.041233,-0.0012217,0.022907,-12.36,39.6,-6.06
2.5742,-9.1393,-2.3427,-0.043371,0.0027489,0.019242,-12.3,39.6,-5.94
2.5334,-9.1801,-2.3836,-0.044593,0.011912,0.019548,-12.3,39.72,-6.0
2.6287,-9.1529,-2.3155,-0.042455,0.0024435,0.018326,-12.42,39.66,-6.0
2.5061,-9.2074,-2.3427,-0.033292,-0.010079,0.018937,-12.48,39.78,-6.0
2.547,-9.112,-2.3563,-0.044288,-0.012523,0.027184,-12.6,39.72,-5.88
2.5061,-9.1529,-2.3972,-0.030849,-0.010385,0.029016,-12.6,39.72,-5.76
2.5334,-9.1529,-2.4108,-0.041539,0.0030543,0.039401,-12.48,39.78,-5.7
2.5061,-9.2346,-2.438,-0.035125,0.0018326,0.036346,-12.6,39.9,-5.7
2.5742,-9.1937,-2.4108,-0.038179,-0.0058032,0.039401,-12.72,39.9,-5.7
2.5879,-9.221,-2.3699,-0.040317,-0.0045815,0.03207,-12.6,39.96,-5.64
2.547,-9.2074,-2.4108,-0.041844,-0.007025,0.033598,-12.54,40.2,-5.7
2.5606,-9.2074,-2.4789,-0.040928,-0.0054978,0.025045,-12.6,40.2,-5.76
2.5606,-9.1937,-2.4789,-0.047342,0.0018326,0.029932,-12.48,40.38,-5.88
2.5742,-9.2074,-2.4517,-0.03879,-0.0039706,0.020769,-12.42,40.38,-5.88
2.5879,-9.221,-2.4108,-0.04612,-0.0036652,0.026573,-12.3,40.5,-5.82
2.547,-9.1937,-2.4653,-0.053145,-0.0024435,0.024435,-12.18,40.5,-5.7
2.5198,-9.1801,-2.4108,-0.046731,0.007025,0.021686,-12.12,40.44,-5.88
2.547,-9.0984,-2.3155,-0.044899,-0.0036652,0.019853,-12.24,40.38,-6.06
2.5061,-9.1529,-2.3291,-0.045204,-0.0097738,0.020464,-12.24,40.44,-6.12
2.547,-9.1801,-2.3836,-0.040928,-0.0051924,0.025045,-12.18,40.44,-6.24
2.4925,-9.2346,-2.4108,-0.044593,0.000916,0.036957,-12.06,40.32,-6.3
2.547,-9.221,-2.3972,-0.027184,-0.01069,0.036652,-12.06,40.32,-6.24
2.5742,-9.1665,-2.3836,-0.03146,-0.01069,0.034514,-12.06,40.14,-6.12
2.6151,-9.1801,-2.4244,-0.033598,-0.0082467,0.033598,-11.94,40.2,-6.06
2.5061,-9.112,-2.4108,-0.041233,-0.0033598,0.01741,-12.0,40.08,-6.06
2.6015,-9.221,-2.4653,-0.047953,0.0027489,0.023824,-12.12,40.08,-6.06
2.5198,-9.1937,-2.3699,-0.052229,-0.0012217,0.016493,-12.18,39.96,-6.12
2.547,-9.1256,-2.3836,-0.039095,-0.0054978,0.019853,-12.42,39.78,-6.12
2.5198,-9.1937,-2.4653,-0.046426,-0.0064141,0.02474,-12.48,39.84,-6.06
2.5198,-9.221,-2.3699,-0.042761,-0.0073304,0.028711,-12.36,39.78,-5.94
2.5198,-9.2074,-2.438,-0.042455,-0.0054978,0.027184,-12.3,39.78,-6.06
2.5061,-9.1529,-2.3563,-0.040928,0.000611,0.022602,-12.18,39.72,-5.88
2.5742,-9.1529,-2.3699,-0.048258,0.0088575,0.022602,-12.18,39.78,-5.88
2.5879,-9.1393,-2.4108,-0.048258,0.0045815,0.016799,-12.18,39.78,-5.88
2.6015,-9.1801,-2.3699,-0.032376,-0.016493,0.018326,-12.12,39.84,-5.88
2.5606,-9.1937,-2.4653,-0.032376,-0.013744,0.014966,-12.18,39.66,-5.82
2.5061,-9.1256,-2.4244,-0.035736,0.0018326,0.017715,-12.12,39.72,-5.7
2.547,-9.2482,-2.438,-0.040928,0.016493,0.021686,-12.12,39.78,-5.52
2.5879,-9.221,-2.4108,-0.041233,0.0061087,0.01741,-12.12,39.84,-5.58
2.5334,-9.1937,-2.4108,-0.047342,-0.0061087,0.020159,-12.0,39.84,-5.7
2.5334,-9.1937,-2.4108,-0.041233,-0.0076358,0.017104,-12.0,39.84,-5.7
2.5061,-9.1665,-2.3427,-0.03879,0.0088575,0.011606,-11.88,39.9,-5.4
2.5061,-9.1665,-2.3427,-0.03879,0.0088575,0.011606,-11.88,39.9,-5.4
2.5061,-9.2074,-2.4244,-0.038485,-0.000916,0.020464,-11.88,39.96,-5.58
2.5061,-9.221,-2.3972,-0.049175,0.0030543,0.019548,-12.0,39.96,-5.64
2.5606,-9.1937,-2.5061,-0.040012,0.01405,0.021686,-12.24,39.84,-5.64
2.5742,-9.221,-2.4108,-0.040623,0.014661,0.022907,-12.3,39.78,-5.7
2.5606,-9.1937,-2.4789,-0.036041,0.0061087,0.018326,-12.36,39.84,-5.7
2.5198,-9.1937,-2.4108,-0.036957,-0.0073304,0.019853,-12.54,39.78,-6.06
2.5061,-9.221,-2.4653,-0.033292,-0.0030543,0.020159,-12.54,39.66,-6.06
2.5334,-9.1529,-2.4108,-0.040012,0.0024435,0.023213,-12.48,39.6,-6.12
2.4789,-9.1529,-2.4108,-0.042761,0.010385,0.025351,-12.42,39.54,-5.94
2.5061,-9.0848,-2.4517,-0.03879,0.0058032,0.02138,-12.48,39.3,-5.94
2.547,-9.1937,-2.4244,-0.040928,0.0039706,0.032681,-12.54,39.3,-6.12
2.5742,-9.221,-2.4789,-0.046731,0.0024435,0.026267,-12.54,39.36,-6.12
2.5879,-9.2891,-2.3699,-0.039706,-0.0039706,0.020464,-12.6,39.42,-6.06
2.547,-9.1529,-2.4517,-0.043677,-0.000611,0.025045,-12.48,39.36,-6.06
2.5198,-9.1937,-2.3836,-0.043371,0.0024435,0.019242,-12.48,39.48,-6.24
2.547,-9.1665,-2.3699,-0.040928,-0.0027489,0.026267,-12.3,39.54,-6.3
2.5742,-9.0712,-2.3836,-0.041233,-0.000916,0.018021,-12.3,39.54,-6.24
2.5742,-9.1937,-2.4244,-0.048258,0.0061087,0.016188,-12.24,39.6,-6.06
2.547,-9.1529,-2.3699,-0.043677,0.009163,0.011301,-12.24,39.66,-6.24
2.5334,-9.221,-2.3836,-0.037263,0.0088575,0.015272,-12.24,39.9,-6.3
2.5334,-9.1529,-2.3699,-0.036346,0.0042761,0.013744,-12.18,39.9,-6.3
2.5198,-9.1393,-2.4108,-0.032376,-0.0033598,0.015577,-12.24,40.08,-6.42
2.5061,-9.1393,-2.2882,-0.036652,-0.0033598,0.017715,-12.36,40.08,-6.18
2.5334,-9.2346,-2.3699,-0.042455,0.0048869,0.009163,-12.42,40.02,-6.24
2.4789,-9.2074,-2.3699,-0.036346,0.0088575,0.027184,-12.24,40.02,-6.06
2.4925,-9.1529,-2.3836,-0.025962,-0.0061087,0.03207,-12.24,40.08,-5.88
2.5061,-9.1529,-2.3836,-0.033292,-0.011606,0.033903,-12.24,40.2,-5.88
2.5334,-9.1937,-2.438,-0.035736,0.0039706,0.017104,-12.36,40.08,-5.88
2.5334,-9.1937,-2.4244,-0.045509,0.0094684,0.01405,-12.36,40.2,-5.94
2.5742,-9.1937,-2.438,-0.049786,0.015577,0.013744,-12.3,40.08,-6.06
2.6015,-9.1529,-2.4653,-0.055283,0.0082467,0.018021,-12.36,40.08,-5.88
2.5742,-9.1393,-2.3427,-0.041844,-0.0015272,0.022602,-12.36,40.08,-5.82
2.5742,-9.1665,-2.5198,-0.039401,-0.0036652,0.020769,-12.36,40.02,-5.88
2.5742,-9.2346,-2.5198,-0.047037,-0.0051924,0.025045,-12.3,39.9,-5.88
2.5742,-9.1393,-2.4653,-0.050091,-0.0073304,0.026878,-12.24,40.02,-5.94
2.5198,-9.1529,-2.4108,-0.043677,0.0015272,0.015577,-12.3,40.08,-6.06
2.5742,-9.2482,-2.3972,-0.051618,0.0033598,0.017104,-12.42,40.08,-6.12
2.5879,-9.1937,-2.4108,-0.046731,-0.010996,0.018937,-12.3,40.02,-6.24
2.5742,-9.221,-2.3836,-0.046426,-0.020159,0.015882,-12.06,40.2,-6.24
2.5061,-9.1801,-2.4653,-0.05284,-0.0054978,0.015272,-12.18,40.2,-5.94
2.5742,-9.0848,-2.3836,-0.049786,0.0042761,-0.000611,-12.42,40.02,-6.06
2.5742,-9.1937,-2.3836,-0.055283,0.0051924,0.0051924,-12.42,40.08,-6.0
2.5742,-9.1937,-2.4517,-0.048258,0.0054978,0.0033598,-12.24,39.96,-6.12
2.5742,-9.1665,-2.4108,-0.047953,-0.009163,0.012523,-12.3,39.9,-6.06
2.5334,-9.221,-2.3836,-0.049175,-0.011606,0.0085521,-12.36,40.02,-6.0
2.5334,-9.1256,-2.3836,-0.053451,-0.01069,0.0073304,-12.3,40.08,-5.88
2.5061,-9.1937,-2.4517,-0.050702,-0.013439,0.0064141,-12.48,39.96,-6.0
2.5606,-9.1529,-2.4517,-0.051924,-0.0051924,0.0076358,-12.3,39.78,-5.82
2.5334,-9.1801,-2.4925,-0.053756,-0.000305,0.0067195,-12.3,39.84,-5.88
2.547,-9.2074,-2.5061,-0.054978,0.0045815,0.0042761,-12.66,39.78,-5.82
2.5334,-9.1393,-2.438,-0.06017,0.0067195,0.018021,-12.72,39.72,-5.88
2.5606,-9.1529,-2.438,-0.057727,-0.0027489,0.015882,-12.6,39.84,-6.0
2.5606,-9.1665,-2.4517,-0.056505,-0.0027489,0.014966,-12.6,39.96,-5.82
2.4789,-9.1256,-2.5061,-0.05681,-0.002138,0.022602,-12.54,39.96,-5.88
2.5198,-9.1665,-2.5061,-0.055283,-0.0073304,0.027794,-12.66,40.14,-5.94
2.5061,-9.1393,-2.4517,-0.04948,-0.0067195,0.029627,-12.6,40.2,-5.82
2.5198,-9.112,-2.3836,-0.06353,-0.0045815,0.030543,-12.6,40.14,-5.82
2.5742,-9.2074,-2.4653,-0.05681,-0.0082467,0.031154,-12.48,40.08,-5.88
2.5606,-9.2346,-2.4789,-0.059559,-0.0042761,0.029932,-12.42,40.14,-5.58
2.5061,-9.1937,-2.4108,-0.058032,-0.0030543,0.030238,-12.48,40.32,-5.58
2.5606,-9.221,-2.3972,-0.057727,-0.007025,0.03207,-12.42,40.26,-5.52
2.5334,-9.1529,-2.4108,-0.044899,-0.002138,0.026267,-12.3,40.08,-5.34
2.5879,-9.1256,-2.4244,-0.051007,-0.0061087,0.026573,-12.36,40.08,-5.16
2.5334,-9.1937,-2.4789,-0.044593,-0.0036652,0.027794,-12.36,39.9,-5.16
2.5742,-9.1937,-2.4244,-0.048869,0.0088575,0.022907,-12.42,39.9,-5.34
2.547,-9.2074,-2.4517,-0.047342,0.0097738,0.022602,-12.48,39.96,-5.22
2.6015,-9.1665,-2.438,-0.051007,0.0048869,0.024435,-12.6,39.84,-5.16
2.547,-9.0712,-2.4108,-0.03543,-0.012217,0.025351,-12.6,39.78,-5.22
2.547,-9.112,-2.5061,-0.040012,-0.013134,0.030543,-12.66,39.84,-5.28
2.6015,-9.1801,-2.4517,-0.036652,-0.0076358,0.036652,-12.78,39.84,-5.16
2.5606,-9.2074,-2.4789,-0.029932,-0.012217,0.043066,-12.78,39.84,-5.28
2.547,-9.1529,-2.4925,-0.033598,-0.010385,0.045815,-12.9,39.84,-5.28
2.5742,-9.1393,-2.4789,-0.032987,0.0015272,0.034514,-12.9,39.96,-5.22
2.6015,-9.1256,-2.5334,-0.039706,-0.0027489,0.024129,-12.78,39.96,-5.34
2.5742,-9.1529,-2.4517,-0.040012,-0.01741,0.020159,-12.78,40.08,-5.4
2.547,-9.1801,-2.4517,-0.039706,-0.028405,0.019853,-12.78,40.08,-5.46
2.4789,-9.1256,-2.4789,-0.04215,-0.023213,0.027794,-12.66,39.96,-5.22
2.5198,-9.1529,-2.4653,-0.042455,-0.0012217,0.027794,-12.6,39.9,-5.16
2.6423,-9.2482,-2.5061,-0.040317,-0.009163,0.018021,-12.54,40.02,-5.16
2.6151,-9.1529,-2.4653,-0.045204,-0.014355,0.014966,-12.42,40.02,-5.16
2.547,-9.2074,-2.4517,-0.04612,-0.019242,0.017715,-12.42,40.02,-5.16
2.547,-9.1665,-2.438,-0.04612,-0.0018326,0.0067195,-12.42,39.96,-5.22
2.5879,-9.1665,-2.4244,-0.048564,-0.0054978,0.012828,-12.36,40.02,-5.22
2.5606,-9.1256,-2.4517,-0.035736,-0.01741,0.028405,-12.24,40.02,-5.28
2.5742,-9.1665,-2.3972,-0.041539,-0.018631,0.027794,-12.3,39.96,-5.28
2.5742,-9.1256,-2.438,-0.035125,-0.010385,0.024435,-12.36,39.9,-5.4
2.6015,-9.1937,-2.438,-0.043677,-0.0027489,0.013134,-12.36,39.78,-5.34
2.4789,-9.1801,-2.4108,-0.041233,-0.0094684,0.0061087,-12.3,39.96,-5.4
2.5198,-9.1256,-2.3836,-0.046731,-0.010996,0.018326,-12.18,40.08,-5.58
2.4653,-9.112,-2.4244,-0.04215,-0.0018326,0.012523,-12.18,40.14,-5.58
2.4789,-9.1665,-2.4653,-0.039401,-0.002138,0.017104,-12.24,40.14,-5.64
2.5061,-9.221,-2.3836,-0.032987,-0.0027489,0.02138,-12.24,40.14,-5.64
2.4517,-9.1665,-2.3427,-0.030238,-0.0094684,0.027489,-12.3,40.26,-5.52
2.4653,-9.1529,-2.3563,-0.023213,-0.0012217,0.022907,-12.36,40.44,-5.7
2.4789,-9.1665,-2.3427,-0.021686,0.0073304,0.028405,-12.36,40.5,-5.82
2.4517,-9.1801,-2.3836,-0.018631,0.009163,0.025656,-12.36,40.44,-5.76
2.4789,-9.221,-2.4108,-0.019242,0.0045815,0.028711,-12.36,40.56,-5.88
2.4789,-9.1665,-2.4653,-0.014966,-0.0039706,0.03879,-12.36,40.5,-6.0
2.4653,-9.1393,-2.3563,-0.0073304,-0.0048869,0.053145,-12.48,40.68,-5.94
2.4789,-9.1801,-2.547,-0.0088575,-0.0054978,0.054978,-12.48,40.56,-5.94
2.4789,-9.1665,-2.4517,-0.016188,0.000305,0.062919,-12.54,40.56,-5.7
2.6015,-9.221,-2.4517,-0.021686,0.0036652,0.055283,-12.54,40.62,-5.82
2.5742,-9.221,-2.4789,-0.017715,0.0018326,0.051007,-12.42,40.56,-5.7
2.5742,-9.2482,-2.4789,-0.031765,0.0048869,0.038485,-12.48,40.5,-5.82
2.5061,-9.221,-2.4517,-0.039095,0.014661,0.039095,-12.54,40.38,-5.64
2.547,-9.1256,-2.5061,-0.035125,0.018631,0.038179,-12.42,40.32,-5.7
2.5061,-9.1256,-2.4653,-0.032987,0.0079412,0.036957,-12.42,40.14,-5.46
2.4653,-9.0848,-2.3563,-0.037263,-0.0018326,0.03207,-12.48,39.96,-5.52
2.4789,-9.1937,-2.5061,-0.038179,0.0064141,0.037874,-12.36,39.84,-5.52
2.547,-9.2755,-2.4108,-0.041539,0.007025,0.043066,-12.3,40.02,-5.4
2.5606,-9.1665,-2.4244,-0.025351,-0.0033598,0.044288,-12.24,40.08,-5.46
2.5606,-9.1665,-2.4244,-0.032376,-0.0045815,0.048869,-12.24,40.08,-5.46
2.5198,-9.2346,-2.5606,-0.039095,0.0051924,0.029627,-12.3,39.96,-5.4
2.547,-9.1937,-2.3836,-0.048564,0.013744,0.019242,-12.24,40.02,-5.46
2.5606,-9.2346,-2.3836,-0.043677,0.0048869,0.015577,-12.18,40.02,-5.52
2.4789,-9.1937,-2.3836,-0.039706,-0.0097738,0.024435,-12.18,39.84,-5.46
2.4789,-9.221,-2.3291,-0.037568,-0.0036652,0.021991,-12.18,39.9,-5.52
2.5061,-9.1665,-2.3836,-0.03146,0.0079412,0.029322,-12.18,40.02,-5.52
2.547,-9.1937,-2.3836,-0.027489,0.0039706,0.013439,-12.06,40.14,-5.88
2.547,-9.1529,-2.3155,-0.027794,-0.0088575,0.01741,-12.06,40.14,-6.0
2.4789,-9.112,-2.3427,-0.036041,-0.011912,0.016493,-12.24,40.08,-6.06
2.4789,-9.1801,-2.4108,-0.037568,0.0079412,0.0048869,-12.18,40.26,-6.18
2.4925,-9.1665,-2.3699,-0.040623,0.012523,0.0067195,-12.3,40.2,-6.24
2.5334,-9.1937,-2.3972,-0.032987,0.0018326,0.016799,-12.3,40.2,-6.3
2.4789,-9.1529,-2.3427,-0.026267,-0.0036652,0.015577,-12.24,39.84,-6.36
2.5061,-9.221,-2.3836,-0.027489,0.002138,0.01069,-12.42,39.84,-6.42
2.5061,-9.2074,-2.3699,-0.029016,0.0012217,0.0061087,-12.6,39.78,-6.48
2.4789,-9.1937,-2.3563,-0.030238,-0.0033598,0.015577,-12.6,39.9,-6.42
2.4789,-9.1937,-2.438,-0.036041,0.0045815,0.012828,-12.54,39.78,-6.48
2.4517,-9.221,-2.3836,-0.034819,0.0030543,0.012217,-12.42,39.48,-6.3
2.5061,-9.1665,-2.4108,-0.031765,-0.0048869,0.0088575,-12.42,39.54,-6.18
2.4925,-9.1529,-2.3836,-0.043371,-0.0088575,0.015272,-12.24,39.78,-6.06
2.438,-9.2074,-2.4244,-0.039706,-0.0076358,0.01741,-12.3,39.84,-6.12
2.5061,-9.221,-2.4517,-0.040012,0.0088575,0.0097738,-12.36,39.72,-5.94
2.438,-9.2346,-2.4517,-0.044899,0.014355,0.0079412,-12.36,39.72,-6.0
2.4789,-9.2074,-2.3018,-0.049175,0.0061087,0.010385,-12.36,39.66,-6.0
2.438,-9.1393,-2.4108,-0.048564,-0.0024435,0.014966,-12.42,39.84,-5.94
2.438,-9.2346,-2.3427,-0.043677,-0.0067195,0.016799,-12.42,39.78,-5.82
2.547,-9.1937,-2.3427,-0.045815,0.0042761,0.022602,-12.42,39.78,-5.88
2.547,-9.1937,-2.3427,-0.039095,0.0027489,0.02474,-12.42,39.78,-5.88
2.5061,-9.1801,-2.3563,-0.048258,0.002138,0.024129,-12.42,39.72,-6.06
2.5334,-9.2755,-2.4653,-0.041233,-0.0045815,0.021991,-12.48,39.66,-6.0
2.4653,-9.221,-2.3836,-0.044593,-0.007025,0.016493,-12.36,39.72,-5.94
2.5061,-9.221,-2.3972,-0.045815,0.0067195,0.017715,-12.3,39.84,-6.0
2.4925,-9.1393,-2.4108,-0.050702,0.0051924,0.020464,-12.24,39.78,-5.94
2.5606,-9.1801,-2.3699,-0.054062,0.0030543,0.011606,-12.24,39.6,-6.06
2.5334,-9.221,-2.3836,-0.052229,0.011301,0.010079,-12.18,39.6,-6.0
2.5061,-9.2346,-2.438,-0.047342,0.014966,0.019548,-12.0,39.72,-5.88
2.6151,-9.1393,-2.3836,-0.039401,0.000305,0.021686,-11.58,39.6,-5.7
2.5334,-9.1665,-2.4108,-0.038485,-0.0088575,0.023824,-11.1,39.6,-5.7
2.5061,-9.1529,-2.3563,-0.041539,-0.0067195,0.023824,-11.04,39.72,-5.52
2.547,-9.1937,-2.4244,-0.053756,0.0039706,0.012523,-11.04,39.54,-5.4
2.5198,-9.1937,-2.3563,-0.057727,0.0079412,0.0024435,-11.28,39.6,-5.34
2.5061,-9.2482,-2.3836,-0.05681,0.0067195,0.0030543,-11.4,39.54,-5.7
2.5198,-9.1529,-2.3427,-0.050091,0.010079,0.009163,-11.46,39.54,-5.46
2.5061,-9.1801,-2.3972,-0.048258,0.010385,0.011912,-11.46,39.54,-5.58
2.5061,-9.1665,-2.2882,-0.053145,0.0030543,0.0076358,-12.06,39.6,-5.7
2.4789,-9.2755,-2.3836,-0.042455,0.000305,0.019242,-12.48,39.96,-5.76
2.4789,-9.1801,-2.3427,-0.053756,0.0045815,0.021991,-12.48,39.9,-6.0
2.4925,-9.1937,-2.3291,-0.054672,0.02474,0.018937,-12.48,40.2,-6.12
2.5606,-9.1801,-2.4244,-0.045509,0.020159,0.010385,-12.42,40.02,-6.18
2.547,-9.221,-2.4108,-0.033903,0.0027489,0.016188,-12.42,40.02,-6.0
2.5061,-9.1937,-2.4108,-0.034819,0.000611,0.015272,-12.48,40.08,-6.24
2.547,-9.1393,-2.4108,-0.038485,0.0051924,0.021075,-12.48,39.9,-6.18
2.547,-9.2074,-2.3836,-0.036957,0.017715,0.012828,-12.48,39.96,-6.06
2.6015,-9.1937,-2.3836,-0.04612,0.026878,0.0082467,-12.48,39.72,-5.94
2.5334,-9.1937,-2.3699,-0.048564,0.011606,0.0048869,-12.42,39.6,-5.88
2.4653,-9.1937,-2.3427,-0.048869,0.0088575,0.010079,-12.6,39.6,-5.7
2.5061,-9.1937,-2.2882,-0.042761,0.012828,0.0027489,-12.54,39.6,-5.64
2.4789,-9.2074,-2.3155,-0.044593,0.013439,0.0054978,-12.48,39.54,-5.58
2.4789,-9.1529,-2.3972,-0.03207,-0.000611,0.012217,-12.54,39.66,-5.64
2.4653,-9.2074,-2.4517,-0.04215,0.0076358,0.017715,-12.42,39.66,-5.52
2.547,-9.2482,-2.4244,-0.048564,0.024129,0.009163,-12.36,39.6,-5.4
2.547,-9.221,-2.3427,-0.040317,0.020769,0.010385,-12.06,39.48,-5.52
2.5061,-9.1937,-2.3972,-0.045509,0.012828,0.0085521,-12.12,39.6,-5.52
2.4789,-9.0984,-2.4517,-0.044899,0.0088575,0.017104,-12.12,39.66,-5.64
2.5198,-9.1801,-2.4517,-0.043066,0.0048869,0.019548,-12.18,39.66,-5.7
2.5198,-9.1801,-2.4653,-0.036652,0.0036652,0.021075,-12.3,39.72,-5.94
2.5742,-9.1256,-2.3291,-0.039706,0.007025,0.022297,-12.24,39.78,-6.0
2.5606,-9.1393,-2.3972,-0.043066,0.0058032,0.021991,-12.36,39.72,-5.88
2.5334,-9.1937,-2.4517,-0.050396,0.0012217,0.016493,-12.36,39.78,-5.94
2.5606,-9.1801,-2.4108,-0.055894,0.010079,0.014661,-12.36,39.6,-6.06
2.5606,-9.1665,-2.4517,-0.050396,0.0082467,0.013439,-12.36,39.78,-6.06
2.5061,-9.1393,-2.3836,-0.049175,0.0033598,0.026267,-12.6,39.66,-6.0
2.5334,-9.1529,-2.3427,-0.047953,0.0088575,0.02138,-12.42,39.66,-6.06
2.5742,-9.2482,-2.3427,-0.047342,0.010079,0.022602,-12.48,39.84,-6.0
2.6015,-9.1937,-2.4108,-0.040928,0.0012217,0.031154,-12.36,39.66,-6.06
2.6287,-9.1665,-2.4108,-0.029322,-0.0058032,0.028711,-12.18,39.54,-6.0
2.6015,-9.221,-2.3836,-0.032987,-0.0012217,0.027794,-12.3,39.6,-5.76
2.5879,-9.1256,-2.4244,-0.037263,0.0033598,0.017715,-12.24,39.48,-5.82
2.6015,-9.1393,-2.438,-0.046731,0.0097738,0.016799,-12.12,39.72,-5.88
2.5742,-9.1529,-2.4517,-0.043371,0.012523,0.0088575,-12.18,39.78,-5.7
2.5606,-9.1529,-2.3699,-0.043982,0.0064141,0.016188,-12.06,39.78,-5.94
2.5742,-9.1393,-2.4517,-0.039706,-0.0018326,0.019548,-12.12,39.78,-6.0
2.5742,-9.1937,-2.3427,-0.041844,0.000305,0.01741,-12.12,39.66,-5.88
2.6015,-9.1937,-2.4244,-0.034819,-0.000916,0.020159,-12.18,39.72,-5.94
2.6015,-9.1937,-2.3836,-0.040928,0.0036652,0.020159,-12.24,39.6,-5.94
2.5742,-9.1801,-2.3972,-0.040623,0.012217,0.023518,-12.12,39.6,-6.06
2.5606,-9.1665,-2.4108,-0.043371,0.0027489,0.014966,-12.24,39.66,-6.24
2.547,-9.1529,-2.4108,-0.033292,-0.0064141,0.024129,-12.12,39.84,-6.06
2.547,-9.1801,-2.3972,-0.025351,-0.010996,0.022297,-12.18,39.78,-6.18
2.5061,-9.1529,-2.4925,-0.030543,0.0027489,0.022297,-12.24,39.66,-6.12
2.547,-9.1256,-2.4517,-0.037263,0.011606,0.020464,-12.18,39.72,-6.12
2.5879,-9.1665,-2.4108,-0.047037,0.0067195,0.014355,-12.24,39.72,-5.88
2.5879,-9.2346,-2.4789,-0.049175,0.0012217,0.019242,-12.24,39.72,-5.94
2.547,-9.221,-2.4108,-0.04612,-0.0039706,0.016799,-12.18,39.78,-5.94
2.5742,-9.2074,-2.5606,-0.039401,-0.0064141,0.014966,-12.3,40.08,-5.82
2.5742,-9.1801,-2.3836,-0.03879,-0.0064141,0.014966,-12.18,40.02,-5.82
2.6015,-9.1937,-2.3427,-0.044288,-0.0033598,0.023824,-12.18,39.9,-5.82
2.5742,-9.1801,-2.4653,-0.048258,-0.007025,0.023213,-12.3,39.9,-6.0
2.6015,-9.2618,-2.4517,-0.050702,0.0015272,0.021991,-12.24,39.9,-6.0
2.547,-9.1937,-2.3836,-0.057421,0.0073304,0.018326,-12.18,40.08,-6.0
2.5061,-9.1937,-2.3563,-0.04948,-0.000916,0.018937,-12.24,39.96,-6.18
2.5061,-9.112,-2.3836,-0.045204,-0.0082467,0.023518,-12.12,40.02,-6.12
2.547,-9.1529,-2.3836,-0.043982,-0.0042761,0.030543,-12.3,40.08,-6.18
2.5061,-9.1665,-2.3427,-0.041233,-0.0073304,0.034819,-12.36,40.2,-6.24
2.5879,-9.1529,-2.438,-0.03543,-0.010079,0.032987,-12.24,40.14,-6.3
2.5742,-9.1801,-2.3427,-0.041844,-0.011301,0.030543,-12.3,40.2,-6.36
2.6015,-9.1801,-2.3155,-0.044288,-0.0051924,0.024435,-12.48,40.14,-6.3
2.5334,-9.221,-2.4517,-0.044593,-0.0076358,0.017104,-12.48,40.14,-6.3
2.5879,-9.1937,-2.3836,-0.04612,-0.012828,0.02138,-12.54,39.96,-6.12
2.547,-9.1665,-2.4925,-0.04215,-0.0051924,0.019242,-12.48,40.08,-6.0
2.5742,-9.1937,-2.3563,-0.050091,0.0033598,0.015882,-12.54,40.08,-6.06
2.5742,-9.1937,-2.3563,-0.045509,-0.0045815,0.014355,-12.36,39.84,-5.7
2.547,-9.1529,-2.4244,-0.04948,-0.015882,0.010996,-12.36,39.84,-5.76
2.4925,-9.1937,-2.2882,-0.044899,-0.010996,0.02138,-12.3,39.66,-5.64
2.6015,-9.2482,-2.3972,-0.038485,-0.007025,0.028405,-12.12,39.78,-5.7
2.6015,-9.221,-2.4517,-0.036652,-0.015272,0.027794,-12.12,39.84,-5.7
2.5742,-9.1665,-2.4108,-0.025962,-0.025656,0.033903,-11.94,39.78,-5.58
2.547,-9.221,-2.4653,-0.03879,-0.016493,0.029016,-12.0,39.72,-5.7
2.5742,-9.1801,-2.5879,-0.044288,-0.012217,0.023518,-12.06,39.54,-5.82
2.5742,-9.221,-2.5606,-0.05284,-0.011606,0.014966,-11.94,39.48,-5.7
2.5606,-9.1801,-2.4925,-0.059254,-0.019548,0.019242,-12.06,39.54,-6.0
2.5606,-9.1529,-2.4517,-0.053756,-0.022297,0.013134,-11.82,39.54,-6.18
2.5198,-9.1529,-2.438,-0.055589,-0.023213,0.013134,-11.82,39.54,-6.18
2.5334,-9.1393,-2.5334,-0.05681,-0.020159,0.018937,-11.88,39.48,-6.24
2.5198,-9.221,-2.4244,-0.065363,-0.017104,0.028711,-11.88,39.54,-6.12
2.5334,-9.1256,-2.4925,-0.071777,-0.010079,0.012523,-11.94,39.6,-6.18
2.547,-9.1665,-2.4653,-0.072082,-0.0058032,0.01405,-12.0,39.72,-6.18
2.6151,-9.1937,-2.4244,-0.073304,-0.011606,0.014661,-11.82,39.72,-6.12
2.5334,-9.221,-2.4789,-0.067501,-0.028711,0.019853,-12.0,39.78,-6.0
2.5879,-9.1801,-2.3563,-0.054978,-0.030849,0.023824,-12.0,39.84,-6.18
2.4925,-9.1529,-2.4244,-0.053145,-0.023518,0.025962,-11.82,39.66,-5.88
2.5061,-9.1665,-2.4517,-0.056505,-0.009163,0.020769,-12.18,39.78,-5.7
2.5198,-9.1256,-2.438,-0.065973,-0.010385,0.016188,-12.12,39.78,-5.64
2.5606,-9.1665,-2.3972,-0.064141,-0.014355,0.020769,-12.24,39.72,-5.7
2.5061,-9.0848,-2.5061,-0.057116,-0.012217,0.019853,-12.18,39.78,-5.88
2.547,-9.1937,-2.5061,-0.04612,-0.009163,0.026267,-12.12,39.72,-5.7
2.5198,-9.1529,-2.3836,-0.041844,-0.015272,0.019242,-12.12,39.72,-5.82
2.547,-9.1393,-2.547,-0.051313,-0.014355,0.028711,-12.06,39.78,-5.82
2.5061,-9.1529,-2.3836,-0.051618,-0.0051924,0.028711,-12.12,39.6,-5.7
2.4653,-9.1665,-2.4108,-0.049175,0.0015272,0.0281,-12.3,39.78,-6.0
2.5061,-9.1256,-2.4244,-0.050396,0.0036652,0.028405,-12.36,39.66,-6.0
2.4925,-9.112,-2.438,-0.047647,-0.0061087,0.033903,-12.3,39.66,-5.82
2.4925,-9.0848,-2.4789,-0.036041,-0.018326,0.030238,-12.48,39.66,-6.0
2.4789,-9.112,-2.4244,-0.034819,-0.018326,0.042455,-12.54,39.6,-5.88
2.5061,-9.1256,-2.4925,-0.0281,-0.01405,0.044593,-12.48,39.48,-5.82
2.4789,-9.1256,-2.4789,-0.030543,-0.0027489,0.041844,-12.48,39.6,-5.88
2.5879,-9.1937,-2.4517,-0.029322,0.0030543,0.038485,-12.72,39.78,-5.82
2.5606,-9.1937,-2.4789,-0.032987,-0.0039706,0.034819,-12.78,39.78,-5.88
2.547,-9.1937,-2.5742,-0.036346,-0.0012217,0.039401,-12.66,39.78,-5.82
2.5334,-9.1937,-2.5879,-0.043371,-0.0018326,0.03207,-13.02,39.96,-5.82
2.5742,-9.1937,-2.5334,-0.035125,0.0045815,0.028711,-13.02,39.96,-5.64
2.5742,-9.1529,-2.5198,-0.039706,0.0036652,0.027489,-13.08,40.14,-5.58
2.5742,-9.1256,-2.6015,-0.033598,-0.010385,0.016799,-13.14,40.2,-5.76
2.5606,-9.112,-2.547,-0.04948,-0.013744,0.022602,-13.08,40.26,-5.88
2.5061,-9.2074,-2.4925,-0.039095,-0.0030543,0.021991,-12.96,40.26,-5.82
2.5198,-9.2346,-2.547,-0.044899,-0.000611,0.026878,-12.9,40.38,-5.94
2.4925,-9.1256,-2.547,-0.045204,-0.0082467,0.030849,-12.84,40.5,-6.0
2.547,-9.1529,-2.5061,-0.039095,-0.0045815,0.025045,-12.78,40.26,-6.0
2.547,-9.1256,-2.4653,-0.048564,0.0012217,0.0039706,-12.54,40.32,-6.06
2.5742,-9.0984,-2.4925,-0.060781,0.0054978,0.010385,-12.48,40.38,-5.82
2.5606,-9.1529,-2.4517,-0.043677,-0.009163,0.013744,-12.6,40.32,-5.88
2.5061,-9.1801,-2.3427,-0.050091,-0.019242,0.014355,-12.36,40.32,-6.0
2.5061,-9.1529,-2.4108,-0.036957,-0.010385,0.018631,-12.3,40.2,-6.06
2.4925,-9.2074,-2.3836,-0.03879,-0.010079,0.020159,-12.24,40.08,-6.12
2.5061,-9.1937,-2.5061,-0.035125,-0.015272,0.012828,-12.36,40.14,-6.18
2.4653,-9.112,-2.5061,-0.037263,-0.024129,0.010385,-12.54,40.2,-6.06
2.5061,-9.1529,-2.4108,-0.036041,-0.011301,0.007025,-12.54,40.26,-5.94
2.438,-9.1801,-2.3563,-0.036957,0.0015272,0.009163,-12.54,40.2,-5.64
2.4653,-9.1529,-2.4653,-0.0281,-0.0085521,0.022907,-12.54,40.2,-5.58
2.4653,-9.1256,-2.4108,-0.026878,-0.01069,0.034819,-12.72,40.14,-5.52
2.4108,-9.1937,-2.3836,-0.026573,-0.010079,0.033598,-12.78,40.02,-5.52
2.4789,-9.1665,-2.5061,-0.023213,0.000916,0.03879,-12.78,40.02,-5.64
2.4517,-9.2074,-2.3836,-0.026573,0.0061087,0.027794,-12.72,40.08,-5.52
2.5061,-9.1393,-2.438,-0.025351,0.0024435,0.038485,-12.66,39.84,-5.34
2.5606,-9.1937,-2.6151,-0.017104,0.0015272,0.038179,-12.66,39.96,-5.34
2.4789,-9.1529,-2.4925,-0.022907,-0.0033598,0.036041,-12.66,39.9,-5.22
2.4517,-9.1937,-2.5061,-0.025045,0.0039706,0.044288,-12.54,39.9,-5.1
2.5061,-9.1256,-2.4653,-0.023518,0.0054978,0.049786,-12.54,39.84,-5.1
2.5061,-9.2074,-2.5061,-0.033598,0.017104,0.04948,-12.48,39.84,-5.1
2.5742,-9.221,-2.547,-0.037568,0.015882,0.033292,-12.54,39.78,-5.46
2.547,-9.1665,-2.4789,-0.040928,0.017104,0.030543,-12.54,39.72,-5.46
2.5061,-9.1937,-2.4925,-0.034208,0.01741,0.025351,-12.6,39.84,-5.34
2.4925,-9.1529,-2.4244,-0.03879,0.0051924,0.026267,-12.6,39.9,-5.22
2.5198,-9.1529,-2.4789,-0.032987,0.011301,0.028405,-12.66,39.9,-5.46
2.5198,-9.1529,-2.3155,-0.035736,0.0085521,0.028405,-12.72,39.78,-5.46
2.5742,-9.1529,-2.4925,-0.038485,0.0079412,0.030849,-12.72,39.84,-5.4
2.547,-9.1801,-2.547,-0.041844,0.011301,0.023213,-12.84,39.84,-5.58
2.547,-9.1937,-2.438,-0.043371,0.015272,0.014966,-12.78,39.96,-5.46
2.5606,-9.1529,-2.4517,-0.041233,0.010996,0.015272,-12.72,39.96,-5.34
2.5334,-9.1937,-2.5061,-0.039095,0.0027489,0.011606,-12.66,39.9,-5.52
2.5061,-9.1665,-2.3972,-0.044593,0.014355,0.010996,-12.48,39.72,-5.58
2.5198,-9.1937,-2.4108,-0.042761,0.01741,0.01405,-12.36,39.72,-5.46
2.5061,-9.1801,-2.438,-0.046731,0.015577,0.026267,-12.36,39.72,-5.34
2.547,-9.2482,-2.4108,-0.036041,0.0076358,0.027184,-12.24,39.72,-5.4
2.5198,-9.1937,-2.4517,-0.026267,0.0085521,0.020159,-12.06,39.78,-5.4
2.5061,-9.1529,-2.3563,-0.041844,0.01741,0.016799,-12.06,39.72,-5.4
2.5061,-9.2346,-2.4108,-0.041233,0.016799,0.0027489,-12.12,39.72,-5.52
2.5198,-9.1937,-2.4517,-0.041539,0.012828,0.009163,-12.12,39.72,-5.64
2.4517,-9.1529,-2.4789,-0.037568,-0.0012217,0.0064141,-12.12,39.54,-5.64
2.4517,-9.1801,-2.3699,-0.035125,0.0082467,0.019853,-12.06,39.48,-5.76
2.4789,-9.2074,-2.3427,-0.032987,0.0064141,0.019548,-12.06,39.48,-5.76
2.4517,-9.221,-2.3836,-0.036041,-0.000305,0.027489,-12.18,39.42,-5.7
2.4517,-9.1801,-2.4108,-0.036957,0.0061087,0.020464,-12.3,39.48,-5.76
2.5061,-9.221,-2.3155,-0.039706,0.013134,0.015577,-12.18,39.66,-5.88
2.5061,-9.1937,-2.3836,-0.034208,0.010385,0.018937,-12.24,39.66,-5.94
2.4517,-9.2074,-2.3836,-0.036652,-0.0015272,0.022907,-12.24,39.6,-5.88
2.4789,-9.1529,-2.4108,-0.031765,0.0018326,0.024435,-12.42,39.6,-5.88
2.4789,-9.1937,-2.4789,-0.032987,0.012523,0.0281,-12.36,39.78,-6.06
2.5198,-9.1937,-2.4517,-0.034514,0.014355,0.025045,-12.36,39.78,-6.0
2.5334,-9.1937,-2.4789,-0.034514,0.015577,0.021686,-12.36,39.9,-5.82
2.5334,-9.2482,-2.5061,-0.046426,0.014966,0.030238,-12.24,39.96,-5.88
2.5606,-9.2074,-2.4517,-0.042761,0.020769,0.022907,-12.3,39.96,-5.82
2.547,-9.1529,-2.438,-0.045815,0.014966,0.02474,-12.18,39.9,-5.7
2.547,-9.1937,-2.4108,-0.048258,0.0051924,0.025656,-12.12,39.9,-5.76
2.5879,-9.1937,-2.4789,-0.039401,-0.0015272,0.023824,-12.12,40.08,-5.7
2.5606,-9.1529,-2.3972,-0.040623,-0.0018326,0.025045,-12.12,40.08,-5.88
2.5334,-9.1393,-2.4517,-0.043066,0.015272,0.018937,-12.12,40.02,-5.82
2.547,-9.112,-2.3836,-0.051313,0.018021,0.016799,-12.06,40.14,-5.82
2.5606,-9.1937,-2.4108,-0.046426,0.015272,0.013744,-11.94,40.14,-5.82
2.5334,-9.1665,-2.4244,-0.037568,-0.0033598,0.016493,-11.82,40.08,-5.76
2.5334,-9.1529,-2.3836,-0.029322,-0.000611,0.018937,-11.7,40.14,-5.76
2.5742,-9.1529,-2.4108,-0.0281,0.000611,0.013439,-11.82,40.02,-5.88
2.547,-9.2482,-2.3563,-0.026878,0.000916,0.015272,-11.88,40.02,-5.88
2.5061,-9.2074,-2.4517,-0.037263,0.0039706,0.018937,-11.82,39.9,-5.82
2.5742,-9.1937,-2.4108,-0.03543,0.0012217,0.0067195,-11.94,39.96,-5.88
2.5606,-9.1529,-2.4108,-0.041844,0.0064141,0.0088575,-12.12,40.02,-5.88
2.5061,-9.1801,-2.3836,-0.03879,0.0058032,0.007025,-12.12,39.96,-5.94
2.547,-9.2074,-2.4517,-0.037263,0.0085521,0.010079,-12.24,39.9,-5.82
2.5198,-9.1937,-2.4789,-0.03543,0.0058032,0.013439,-12.42,39.78,-6.06
2.4653,-9.1529,-2.3836,-0.032987,0.000916,0.011606,-12.36,39.6,-6.06
2.4653,-9.1937,-2.3836,-0.035736,0.000305,0.015577,-12.42,39.48,-6.0
2.547,-9.1937,-2.3563,-0.033292,0.013134,0.027489,-12.6,39.36,-6.12
2.5334,-9.1801,-2.4244,-0.036957,0.0042761,0.023518,-12.78,39.48,-6.18
2.4925,-9.1801,-2.5061,-0.028405,-0.0030543,0.034208,-12.6,39.6,-6.24
2.4925,-9.221,-2.4653,-0.028405,-0.000611,0.029932,-12.72,39.6,-6.3
2.5334,-9.1937,-2.4789,-0.034208,0.0012217,0.025045,-12.6,39.66,-6.42
2.5061,-9.2074,-2.4517,-0.044288,0.011912,0.02138,-12.66,39.72,-6.36
2.547,-9.2618,-2.4653,-0.051007,0.0085521,0.019548,-12.54,39.66,-6.36
2.547,-9.1801,-2.4108,-0.048869,0.009163,0.020769,-12.66,39.48,-6.24
2.5061,-9.1801,-2.3563,-0.045815,0.0054978,0.02138,-12.6,39.54,-6.3
2.5198,-9.1937,-2.4653,-0.034208,-0.0018326,0.027489,-12.66,39.84,-6.3
2.5606,-9.1937,-2.3836,-0.035736,-0.0033598,0.034208,-12.66,39.9,-6.24
2.5742,-9.3299,-2.3563,-0.04215,-0.0015272,0.024435,-12.54,40.02,-6.3
2.5198,-9.221,-2.3836,-0.047953,0.016799,0.018021,-12.48,40.08,-6.24
2.6015,-9.1529,-2.3563,-0.051007,0.016188,0.016799,-12.3,39.96,-6.36
2.4925,-9.1529,-2.2882,-0.04215,0.0012217,0.013439,-12.24,39.9,-6.24
2.5061,-9.1529,-2.3155,-0.03146,-0.0082467,0.019548,-12.12,39.84,-6.18
2.5606,-9.1937,-2.3699,-0.036041,-0.0015272,0.022907,-12.12,39.78,-6.24
2.5334,-9.1937,-2.438,-0.037874,0.0067195,0.019853,-12.0,39.84,-6.18
2.5879,-9.1801,-2.4108,-0.040317,0.016799,0.012523,-11.94,39.78,-6.3
2.547,-9.1937,-2.3563,-0.048869,0.010996,0.018326,-11.52,39.96,-6.42
2.5606,-9.221,-2.3563,-0.051313,0.0033598,0.016799,-11.4,39.66,-6.48
2.5606,-9.1937,-2.3836,-0.040317,0.007025,0.012523,-11.58,39.54,-6.6
2.5061,-9.221,-2.3699,-0.043066,0.0039706,0.014966,-11.7,39.66,-6.42
2.5742,-9.1937,-2.4653,-0.046731,0.0039706,0.023518,-11.76,39.9,-6.36
2.5061,-9.1529,-2.4653,-0.043982,0.0079412,0.015577,-11.82,39.9,-6.36
2.5606,-9.1937,-2.438,-0.045204,0.0088575,0.016188,-11.76,39.96,-6.3
2.5334,-9.1937,-2.3972,-0.047037,0.010385,0.016799,-11.94,40.02,-6.3
2.547,-9.2346,-2.4108,-0.04612,0.011301,0.015272,-12.06,39.9,-6.12
2.5198,-9.1937,-2.3972,-0.048869,0.0012217,0.020464,-12.18,40.14,-6.06
2.5742,-9.1393,-2.3972,-0.043066,-0.0030543,0.015272,-12.12,40.14,-6.06
2.5061,-9.1393,-2.4653,-0.041233,0.0018326,0.018021,-12.18,40.2,-6.0
2.5198,-9.1529,-2.4244,-0.044288,0.000611,0.0281,-12.24,40.26,-5.94
2.5061,-9.2074,-2.4244,-0.045509,0.0061087,0.022907,-12.12,40.14,-6.06
2.5606,-9.1665,-2.3972,-0.049786,0.013439,0.018937,-12.12,40.08,-6.06
2.547,-9.1529,-2.261,-0.041844,0.0064141,0.025962,-12.3,40.02,-6.18
2.5606,-9.1529,-2.438,-0.042455,0.0045815,0.0281,-12.54,40.02,-6.0
2.5742,-9.2074,-2.3563,-0.044288,0.0042761,0.029627,-12.54,40.2,-5.94
2.6151,-9.221,-2.438,-0.034819,0.0061087,0.030543,-12.54,40.14,-6.06
2.6015,-9.1937,-2.4789,-0.036346,0.012217,0.018021,-12.48,40.2,-6.12
2.5879,-9.1529,-2.3427,-0.047953,0.019242,0.025962,-12.42,40.26,-6.12
2.6151,-9.1801,-2.3291,-0.041539,-0.0030543,0.010996,-12.6,40.08,-6.24
2.5061,-9.112,-2.3563,-0.03879,-0.0039706,0.011912,-12.48,40.08,-6.12
2.4789,-9.1256,-2.3291,-0.041539,-0.000305,0.018021,-12.3,39.96,-6.18
2.547,-9.2074,-2.3427,-0.033292,0.0030543,0.025962,-12.24,39.84,-6.12
2.6151,-9.2618,-2.3836,-0.025351,-0.0048869,0.027184,-12.42,39.84,-6.06
2.5606,-9.2074,-2.4517,-0.028711,-0.0058032,0.029322,-12.42,39.78,-6.06
2.5879,-9.1937,-2.438,-0.038485,0.0027489,0.016799,-12.36,39.66,-6.06
2.5879,-9.1937,-2.438,-0.045815,0.010079,0.016188,-12.36,39.66,-6.06
2.547,-9.1937,-2.4789,-0.047342,-0.0024435,0.01405,-12.18,39.66,-6.18
2.547,-9.1665,-2.4108,-0.052229,0.000916,0.012828,-12.06,39.66,-6.12
2.5198,-9.2074,-2.4108,-0.048869,0.0042761,0.016188,-12.06,39.72,-6.0
2.5606,-9.221,-2.3972,-0.040928,0.0039706,0.012217,-12.12,39.72,-6.0
2.5742,-9.1801,-2.3972,-0.043677,-0.0045815,0.02474,-12.0,39.72,-6.12
2.5334,-9.1937,-2.4108,-0.047037,-0.0067195,0.027489,-12.24,39.9,-5.94
2.5198,-9.1256,-2.3427,-0.054367,0.0039706,0.027489,-12.06,40.02,-5.64
2.547,-9.1393,-2.3972,-0.046731,0.01405,0.010996,-11.82,40.14,-5.52
2.6151,-9.2346,-2.4108,-0.040928,0.0048869,0.017104,-11.76,39.96,-5.64
2.5879,-9.2618,-2.438,-0.039401,-0.009163,0.024435,-11.94,39.9,-5.58
2.5742,-9.2074,-2.4108,-0.031765,-0.013439,0.025962,-11.94,39.96,-5.52
2.5742,-9.2074,-2.4517,-0.038179,-0.0012217,0.023213,-11.82,39.9,-5.64
2.5606,-9.221,-2.3972,-0.040623,0.013134,0.016188,-11.88,39.9,-5.64
2.5742,-9.1937,-2.3291,-0.050091,0.0048869,0.016493,-11.88,39.84,-5.76
2.5606,-9.1256,-2.3699,-0.052534,0.0042761,0.016799,-11.94,39.96,-5.88
2.547,-9.1256,-2.3972,-0.031765,0.000611,0.014355,-11.94,39.9,-6.12
2.5742,-9.221,-2.4108,-0.037568,0.0064141,0.012828,-12.0,39.78,-6.3
2.5879,-9.2482,-2.438,-0.042761,0.0012217,0.026878,-12.0,39.72,-6.24
2.547,-9.221,-2.438,-0.038179,-0.0045815,0.02138,-12.0,40.02,-6.0
2.5742,-9.2891,-2.4108,-0.045815,0.0033598,0.016493,-12.06,39.9,-6.24
2.5742,-9.2346,-2.5061,-0.042761,0.010385,0.022907,-12.06,39.96,-6.36
2.5742,-9.221,-2.5334,-0.043982,0.0036652,0.016493,-12.06,39.84,-6.24
2.5606,-9.1937,-2.5198,-0.040317,-0.0030543,0.021075,-11.94,39.84,-6.3
2.5198,-9.1801,-2.5061,-0.051313,-0.0088575,0.020159,-11.94,39.78,-6.12
2.5061,-9.1393,-2.3836,-0.044288,-0.0054978,0.025962,-12.0,39.54,-6.18
2.5742,-9.1529,-2.5061,-0.044899,-0.007025,0.030238,-11.94,39.72,-5.94
2.547,-9.1529,-2.5061,-0.049786,-0.0051924,0.0281,-12.06,39.78,-6.06
2.5606,-9.1529,-2.4244,-0.051313,-0.011912,0.025962,-12.06,39.66,-6.18
2.6015,-9.1393,-2.5198,-0.055283,-0.012217,0.025351,-12.06,39.66,-6.3
2.6015,-9.2755,-2.4517,-0.052534,-0.0082467,0.025962,-12.0,39.72,-6.24
2.5742,-9.1937,-2.4789,-0.055589,-0.017715,0.018021,-11.94,39.84,-6.06
2.5334,-9.1801,-2.4653,-0.059865,-0.016493,0.023518,-12.0,39.78,-5.88
2.4789,-9.1393,-2.438,-0.067195,-0.016188,0.024129,-12.36,39.84,-5.94
2.5742,-9.2074,-2.4925,-0.063225,-0.01405,0.024129,-12.36,39.9,-6.0
2.547,-9.112,-2.5198,-0.066584,-0.007025,0.027184,-12.36,40.02,-5.82
2.5879,-9.1529,-2.4653,-0.07025,-0.0088575,0.017715,-12.42,39.96,-5.88
2.547,-9.0712,-2.438,-0.069639,-0.012828,0.016493,-12.54,40.02,-5.64
2.5606,-9.0575,-2.4244,-0.07086,-0.030238,0.014661,-12.36,40.08,-5.64
2.4925,-9.0712,-2.3836,-0.06689,-0.023213,0.02138,-12.54,40.02,-5.4
2.4517,-9.1529,-2.3836,-0.067501,-0.012217,0.020769,-12.54,39.96,-5.46
2.4789,-9.1529,-2.4517,-0.065668,-0.0082467,0.020464,-12.54,39.9,-5.64
2.5334,-9.1801,-2.4789,-0.052534,-0.020769,0.030238,-12.42,39.9,-5.52
2.5198,-9.1529,-2.4789,-0.047037,-0.025962,0.027794,-12.3,39.72,-5.64
2.5606,-9.1529,-2.5061,-0.052229,-0.018021,0.02474,-12.24,39.96,-5.58
2.5742,-9.112,-2.5061,-0.056505,-0.0027489,0.018021,-12.24,39.9,-5.58
2.5742,-9.1393,-2.4517,-0.050702,-0.0085521,0.0085521,-12.12,39.72,-5.58
2.4789,-9.1393,-2.4108,-0.051313,-0.016799,0.015272,-12.0,39.66,-5.64
2.5061,-9.0848,-2.4517,-0.048869,-0.029016,0.020159,-12.0,39.78,-5.64
2.4789,-9.1801,-2.4653,-0.04612,-0.018021,0.020769,-11.94,40.02,-5.7
2.5061,-9.1529,-2.4653,-0.045509,-0.010385,0.032681,-11.76,40.08,-5.46
2.547,-9.1529,-2.4517,-0.049786,-0.016493,0.030543,-11.76,40.14,-5.4
2.4925,-9.1256,-2.4653,-0.059254,-0.0079412,0.022602,-12.0,40.08,-5.28
2.547,-9.112,-2.547,-0.042761,-0.0042761,0.011606,-12.0,40.08,-5.28
2.4789,-9.1529,-2.4789,-0.048869,-0.0094684,0.022297,-12.18,40.02,-5.46
2.5061,-9.221,-2.5061,-0.040623,-0.027184,0.033903,-12.18,40.14,-5.34
2.5198,-9.1256,-2.4925,-0.041844,-0.015882,0.037874,-12.36,40.14,-5.34
2.5198,-9.1937,-2.6015,-0.043371,-0.000916,0.025656,-12.42,39.9,-5.34
2.5879,-9.1529,-2.5061,-0.048258,-0.0027489,0.022907,-12.18,39.84,-5.46
2.5606,-9.1529,-2.4925,-0.050091,-0.0067195,0.018326,-12.3,39.78,-5.34
2.5198,-9.0712,-2.5606,-0.052229,-0.013744,0.021991,-12.48,39.72,-5.28
2.5742,-9.1256,-2.547,-0.043371,-0.011912,0.019242,-12.36,39.78,-5.46
2.5198,-9.1529,-2.5334,-0.045509,-0.011912,0.026573,-12.36,39.9,-5.4
2.547,-9.1256,-2.5742,-0.046426,-0.010996,0.02474,-12.36,39.96,-5.34
2.6151,-9.1529,-2.5742,-0.052534,-0.0085521,0.030543,-12.24,40.08,-5.46
2.5606,-9.2074,-2.5061,-0.047342,-0.0024435,0.022602,-12.24,40.02,-5.58
2.5198,-9.1937,-2.5334,-0.051924,-0.0024435,0.013439,-12.42,40.02,-5.7
2.5061,-9.1393,-2.4653,-0.049175,-0.0024435,0.011912,-12.42,40.02,-5.64
2.547,-9.112,-2.5334,-0.048869,-0.0054978,0.022297,-12.66,40.14,-5.7
2.4653,-9.1256,-2.547,-0.048258,-0.0085521,0.022907,-12.54,40.2,-5.64
2.4653,-9.1529,-2.5334,-0.051618,-0.002138,0.031154,-12.6,40.14,-5.7
2.4925,-9.1393,-2.5061,-0.051313,-0.000611,0.032681,-12.36,40.14,-5.58
2.5061,-9.2074,-2.5061,-0.045509,-0.0012217,0.03543,-12.36,40.2,-5.52
2.5061,-9.1256,-2.5742,-0.047342,-0.000305,0.035125,-12.36,40.14,-5.46
2.547,-9.1529,-2.5742,-0.039095,-0.0076358,0.024129,-12.3,39.96,-5.4
2.4789,-9.0984,-2.6015,-0.044899,-0.0061087,0.020464,-12.24,40.08,-5.22
2.4925,-9.0848,-2.5061,-0.053451,0.0012217,0.023213,-12.24,40.02,-5.1
2.4789,-9.0848,-2.4789,-0.044899,0.013134,0.020769,-12.18,40.2,-5.04
2.547,-9.1256,-2.4925,-0.04948,0.0067195,0.030238,-12.18,40.32,-5.04
2.5061,-9.112,-2.4517,-0.040012,0.002138,0.027184,-12.12,40.32,-5.04
2.4517,-9.112,-2.4653,-0.034819,-0.0085521,0.031154,-12.36,40.26,-5.1
2.4653,-9.1937,-2.4517,-0.030238,-0.0042761,0.034819,-12.48,40.2,-5.28
2.5061,-9.1937,-2.4653,-0.022602,0.0027489,0.034514,-12.48,40.14,-5.34
2.4789,-9.1529,-2.4517,-0.016493,0.0061087,0.046731,-12.36,39.96,-5.22
2.5198,-9.1393,-2.5334,-0.025656,0.019548,0.026267,-12.36,40.02,-5.4
2.547,-9.1393,-2.5606,-0.017715,0.013439,0.023213,-12.24,39.96,-5.46
2.5198,-9.0712,-2.5061,-0.022907,-0.016188,0.021686,-12.24,39.84,-5.64
2.4244,-9.1256,-2.5061,-0.018021,-0.020464,0.029322,-12.24,39.78,-5.58
2.4108,-9.1256,-2.4789,-0.015577,-0.0048869,0.040623,-12.18,39.78,-5.4
2.4789,-9.1937,-2.5606,-0.010079,0.012523,0.038179,-11.88,39.72,-5.4
2.5198,-9.2482,-2.547,-0.01069,0.0048869,0.034819,-11.94,39.78,-5.34
2.5061,-9.112,-2.547,-0.0281,-0.0015272,0.033598,-12.0,39.84,-5.28
2.4925,-9.221,-2.3972,-0.026267,-0.0067195,0.028405,-12.12,40.02,-5.28
2.4789,-9.2074,-2.4789,-0.025351,0.0030543,0.025351,-12.12,40.02,-5.16
2.5198,-9.1529,-2.5061,-0.022297,-0.000611,0.033292,-12.18,40.14,-4.92
2.547,-9.2074,-2.5061,-0.013744,-0.0051924,0.031765,-12.3,40.14,-4.86
2.5061,-9.1665,-2.547,-0.022907,-0.0027489,0.034208,-12.18,40.14,-4.86
2.4517,-9.1665,-2.4517,-0.030543,0.000611,0.024435,-12.3,40.08,-5.04
2.5061,-9.1393,-2.5606,-0.032376,0.012217,0.021075,-12.36,40.08,-5.34
2.4517,-9.221,-2.547,-0.035125,0.0036652,0.015882,-12.36,40.02,-5.22
2.4925,-9.2346,-2.4789,-0.034208,0.002138,0.02138,-12.36,39.96,-5.16
2.4925,-9.1529,-2.4653,-0.030238,0.0048869,0.023213,-12.18,40.02,-5.22
2.5061,-9.1393,-2.4517,-0.039401,0.0018326,0.023518,-11.94,39.96,-5.34
2.5334,-9.1937,-2.4789,-0.043982,-0.0067195,0.022297,-11.94,39.96,-5.46
2.5198,-9.1801,-2.4244,-0.041844,-0.0027489,0.016188,-11.94,40.02,-5.52
2.4925,-9.1937,-2.5061,-0.030543,0.000611,0.0073304,-12.06,39.9,-5.7
2.547,-9.1665,-2.4517,-0.034514,0.0018326,0.0036652,-12.12,39.84,-5.52
2.5061,-9.1665,-2.3699,-0.025351,-0.002138,0.0061087,-12.18,40.02,-5.4
2.4517,-9.1801,-2.4108,-0.033598,-0.0064141,0.0042761,-12.12,40.02,-5.4
2.4789,-9.1801,-2.4517,-0.030849,-0.007025,0.0061087,-12.18,40.02,-5.46
2.4789,-9.1937,-2.4653,-0.032681,-0.010996,0.01069,-12.3,39.78,-5.58
2.5061,-9.1801,-2.5742,-0.021686,-0.012523,0.020159,-12.36,40.08,-5.58
2.4925,-9.1937,-2.4653,-0.027794,-0.0076358,0.011606,-12.42,40.02,-5.4
2.438,-9.2618,-2.5061,-0.036652,-0.0030543,0.015577,-12.18,40.08,-5.4
2.4108,-9.1529,-2.5061,-0.034819,0.000611,0.019242,-12.18,39.96,-5.4
2.4108,-9.1937,-2.4517,-0.03879,-0.010079,0.019242,-12.24,39.78,-5.22
2.4108,-9.1256,-2.4517,-0.043677,-0.014966,0.021686,-12.18,39.78,-5.34
2.3836,-9.1937,-2.4517,-0.037568,-0.0061087,0.022297,-12.24,39.66,-5.28
2.4244,-9.2482,-2.547,-0.039401,0.0015272,0.036346,-12.18,39.72,-5.22
2.4244,-9.1801,-2.4244,-0.031765,-0.012217,0.047037,-12.12,39.78,-5.28
2.4653,-9.2482,-2.5742,-0.03207,-0.0036652,0.049175,-12.18,39.78,-5.4
2.4653,-9.2346,-2.4517,-0.034514,-0.000611,0.03543,-12.06,39.78,-5.46
2.4789,-9.1937,-2.4108,-0.040928,0.0012217,0.032681,-12.24,39.84,-5.46
2.5061,-9.1801,-2.4653,-0.044899,-0.0051924,0.029322,-12.3,39.78,-5.52
2.5061,-9.1529,-2.5061,-0.051007,-0.0051924,0.029322,-12.24,39.78,-5.7
2.547,-9.0712,-2.4108,-0.04215,0.0088575,0.036652,-12.54,39.66,-5.7
2.5198,-9.1529,-2.4108,-0.033292,0.0067195,0.033292,-12.54,39.72,-5.64
2.5742,-9.112,-2.4517,-0.036652,-0.000611,0.032987,-12.54,39.9,-5.82
2.5742,-9.1256,-2.4108,-0.030238,-0.0097738,0.030849,-12.6,39.9,-6.0
2.5742,-9.1937,-2.3836,-0.043677,0.0054978,0.02474,-12.54,39.9,-6.0
2.4789,-9.1937,-2.4517,-0.038179,0.012217,0.015882,-12.42,39.84,-6.18
2.5742,-9.2346,-2.4789,-0.038179,0.0088575,0.010996,-12.6,39.84,-6.12
2.5742,-9.1529,-2.5061,-0.027489,0.0015272,0.0073304,-12.42,39.84,-6.06
2.547,-9.1529,-2.438,-0.030543,0.0012217,0.0033598,-12.42,39.9,-5.94
2.547,-9.0984,-2.4108,-0.032987,0.016493,-0.0097738,-12.24,39.9,-5.88
2.5742,-9.1529,-2.4517,-0.041233,0.021991,0.000916,-12.12,39.84,-5.82
2.5606,-9.221,-2.4653,-0.036346,0.014661,-0.0073304,-12.3,39.9,-5.7
2.438,-9.2074,-2.5742,-0.041539,0.017715,-0.0073304,-12.18,40.02,-5.7
2.5061,-9.1665,-2.4789,-0.038485,0.022602,-0.0067195,-12.12,40.14,-5.88
2.4925,-9.1256,-2.4108,-0.032681,0.015577,-0.000305,-12.06,40.26,-5.76
2.4925,-9.1937,-2.5061,-0.035736,0.0018326,-0.0015272,-12.12,40.14,-5.88
2.4789,-9.2346,-2.4108,-0.042761,0.0097738,0.0045815,-12.06,40.14,-5.7
2.4789,-9.2482,-2.4517,-0.045204,0.018326,0.0015272,-12.18,40.2,-5.7
2.5061,-9.1801,-2.4517,-0.045204,0.029932,0.0030543,-12.18,40.2,-5.76
2.5061,-9.221,-2.4653,-0.039095,0.022297,-0.0015272,-12.18,40.14,-5.52
2.4517,-9.1937,-2.4517,-0.039401,0.0097738,0.0082467,-12.24,40.2,-5.64
2.4789,-9.221,-2.5061,-0.036041,0.0067195,0.017104,-12.24,40.32,-5.52
2.4517,-9.1665,-2.4108,-0.031154,0.016799,0.016493,-12.24,40.44,-5.52
2.4653,-9.221,-2.5061,-0.036041,0.022907,0.029627,-12.24,40.44,-5.64
2.4789,-9.1937,-2.5061,-0.032681,0.018631,0.023213,-12.24,40.5,-5.7
2.5061,-9.2346,-2.438,-0.036041,0.0042761,0.025656,-12.3,40.32,-5.58
2.5061,-9.2346,-2.5334,-0.04612,0.01741,0.027794,-12.24,40.14,-5.58
2.5061,-9.1937,-2.4789,-0.041233,0.0085521,0.019548,-12.24,40.2,-5.46
2.5742,-9.1937,-2.438,-0.046426,0.011912,0.025351,-12.42,40.26,-5.46
2.4789,-9.2074,-2.4789,-0.047342,0.016188,0.026878,-12.3,40.26,-5.4
2.547,-9.221,-2.4789,-0.051313,0.010996,0.03207,-12.36,40.2,-5.22
2.5879,-9.1937,-2.4108,-0.04215,0.007025,0.041233,-12.3,40.32,-5.52
2.5061,-9.2074,-2.4653,-0.038485,-0.000916,0.043371,-12.3,40.26,-5.52
2.547,-9.221,-2.4789,-0.037874,0.0027489,0.029932,-12.36,40.14,-5.52
2.5606,-9.1801,-2.4653,-0.042455,0.017715,0.023518,-12.42,40.14,-5.7
2.5606,-9.1801,-2.4108,-0.045815,0.013134,0.019853,-12.36,40.08,-5.52
2.5742,-9.1665,-2.4108,-0.048258,0.0088575,0.016799,-12.24,40.08,-5.58
2.6015,-9.112,-2.4244,-0.044288,0.0051924,0.019548,-12.06,40.02,-5.58
2.5742,-9.1665,-2.4244,-0.040623,-0.007025,0.019853,-12.12,40.2,-5.76
2.547,-9.1529,-2.4517,-0.039401,-0.0064141,0.023518,-12.06,40.2,-5.88
2.5742,-9.2482,-2.4517,-0.036957,-0.0076358,0.023824,-11.88,40.26,-6.0
2.5606,-9.1937,-2.4925,-0.049175,0.0015272,0.013744,-11.88,40.2,-6.06
2.5742,-9.1529,-2.3836,-0.040928,0.0045815,0.014661,-11.82,40.14,-6.24
2.5742,-9.1256,-2.4517,-0.04215,0.0027489,0.014355,-11.76,40.14,-6.3
2.5742,-9.1937,-2.3563,-0.039095,-0.011301,0.013134,-11.76,39.96,-6.24
2.5061,-9.1256,-2.3427,-0.040012,-0.017104,0.019242,-11.88,40.08,-6.3
2.4789,-9.1393,-2.3836,-0.040928,0.0030543,0.0097738,-11.94,39.9,-6.24
2.5742,-9.1256,-2.4789,-0.051007,0.013744,0.009163,-12.06,39.84,-6.3
2.5742,-9.1529,-2.4789,-0.047037,0.0051924,0.0061087,-12.0,39.84,-6.18
2.5742,-9.1665,-2.3836,-0.049786,0.0045815,0.017715,-12.12,39.84,-6.24
2.6151,-9.1801,-2.3836,-0.040928,0.002138,0.0054978,-12.24,40.02,-6.06
2.5879,-9.1665,-2.4789,-0.039401,0.007025,0.007025,-12.3,39.96,-6.12
2.5879,-9.1801,-2.3972,-0.038485,-0.000305,0.0082467,-12.18,39.9,-6.0
2.5742,-9.1937,-2.4517,-0.040928,-0.000611,0.014966,-12.36,39.84,-5.88
2.5879,-9.2482,-2.3836,-0.043982,0.0064141,0.015882,-12.36,39.9,-5.76
2.5198,-9.221,-2.4789,-0.033903,0.017104,0.0079412,-12.48,39.9,-5.82
2.5198,-9.1529,-2.438,-0.044899,0.016799,0.012217,-12.72,39.96,-5.7
2.4789,-9.112,-2.5334,-0.038485,0.0054978,0.010079,-12.72,39.96,-5.76
2.5742,-9.1665,-2.4653,-0.032681,-0.0015272,0.015882,-12.54,39.84,-5.88
2.5061,-9.2074,-2.5061,-0.033903,0.000305,0.028711,-12.54,39.84,-5.82
2.5061,-9.1801,-2.438,-0.032376,0.013439,0.025656,-12.66,39.84,-5.82
2.5198,-9.1801,-2.4517,-0.030849,0.016188,0.028405,-12.66,39.78,-5.82
2.5742,-9.1529,-2.4789,-0.034208,0.010996,0.027794,-12.6,39.42,-5.88
2.6151,-9.1937,-2.4517,-0.031154,0.0051924,0.028405,-12.66,39.54,-5.82
2.5742,-9.2482,-2.4789,-0.044899,0.009163,0.028405,-12.72,39.6,-5.82
2.547,-9.1937,-2.4789,-0.040623,0.011912,0.027489,-12.66,39.54,-5.7
2.5606,-9.1529,-2.4108,-0.039706,0.007025,0.023824,-12.78,39.42,-5.7
2.547,-9.112,-2.4789,-0.044288,0.0018326,0.024435,-12.72,39.3,-5.58
2.5879,-9.221,-2.4925,-0.040928,0.0085521,0.031154,-12.66,39.36,-5.64
2.547,-9.1393,-2.3972,-0.036041,0.0027489,0.039095,-12.72,39.24,-5.52
2.6015,-9.1665,-2.4108,-0.034208,-0.0036652,0.039401,-12.84,39.3,-5.4
2.6287,-9.1529,-2.5061,-0.033598,0.0012217,0.020464,-12.72,39.36,-5.52
2.5742,-9.1801,-2.547,-0.044899,0.0015272,0.018021,-12.72,39.48,-5.52
2.547,-9.1801,-2.4517,-0.054367,0.0045815,0.011606,-12.72,39.42,-5.52
2.5879,-9.1801,-2.4789,-0.047037,0.010079,0.014661,-12.72,39.66,-5.46
2.5879,-9.1256,-2.4517,-0.051007,0.011301,0.02138,-12.6,39.6,-5.52
2.5879,-9.1256,-2.5061,-0.044899,-0.0030543,0.011912,-12.48,39.6,-5.7
2.6015,-9.1529,-2.4517,-0.040928,-0.0097738,0.02138,-12.48,39.6,-5.76
2.5061,-9.1801,-2.4517,-0.03879,-0.0045815,0.02138,-12.42,39.6,-5.82
2.5334,-9.112,-2.4517,-0.040928,-0.0064141,0.016188,-12.48,39.72,-5.88
2.5742,-9.1256,-2.3427,-0.045204,0.01405,0.0094684,-12.48,39.6,-5.94
2.5742,-9.0984,-2.438,-0.044288,0.010385,0.0061087,-12.36,39.6,-5.94
2.5606,-9.1393,-2.3699,-0.03146,-0.0082467,0.013134,-12.06,39.6,-6.06
2.5061,-9.1937,-2.4653,-0.039401,-0.0042761,0.014966,-12.24,39.6,-6.06
2.5742,-9.1665,-2.4108,-0.026878,-0.000916,0.016799,-12.24,39.54,-6.12
2.5334,-9.1529,-2.4108,-0.036041,0.013439,0.009163,-12.18,39.54,-6.06
2.547,-9.1665,-2.4517,-0.039095,0.016799,0.0051924,-12.36,39.42,-6.12
2.5061,-9.1801,-2.3972,-0.045509,0.0051924,0.016493,-12.36,39.36,-6.0
2.4925,-9.1529,-2.4517,-0.034514,0.0042761,0.0079412,-12.48,39.36,-5.94
2.547,-9.2074,-2.4108,-0.036652,0.0085521,0.016188,-12.66,39.36,-6.06
2.547,-9.221,-2.3155,-0.037263,0.0061087,0.020464,-12.72,39.36,-6.06
2.5879,-9.1937,-2.4789,-0.033292,0.0018326,0.021991,-12.66,39.36,-6.12
2.547,-9.1937,-2.4108,-0.045815,0.007025,0.020464,-12.66,39.36,-6.06
2.547,-9.2891,-2.4108,-0.040928,0.014661,0.021075,-12.54,39.48,-6.06
2.5061,-9.2074,-2.4925,-0.041539,0.012523,0.021075,-12.66,39.48,-6.0
2.5334,-9.221,-2.3563,-0.033903,0.0054978,0.018631,-12.54,39.6,-5.94
2.5879,-9.1665,-2.438,-0.033903,-0.0012217,0.024129,-12.54,39.6,-5.88
2.5879,-9.1665,-2.438,-0.033903,-0.0012217,0.024129,-12.54,39.6,-5.88
2.5879,-9.1665,-2.438,-0.035736,-0.0036652,0.031765,-12.54,39.6,-5.88
2.5742,-9.2074,-2.3699,-0.036346,0.0079412,0.027489,-12.66,39.6,-5.88
2.5742,-9.1256,-2.4108,-0.041233,0.0024435,0.027184,-12.66,39.84,-6.0
2.547,-9.1393,-2.3972,-0.040928,0.000916,0.029932,-12.66,39.84,-5.94
2.6015,-9.1937,-2.438,-0.036346,0.0015272,0.030543,-12.3,40.08,-5.88
2.6015,-9.1801,-2.438,-0.042455,0.000611,0.024129,-12.24,40.08,-5.88
2.5334,-9.1937,-2.5061,-0.043677,0.0048869,0.025656,-12.36,40.08,-5.82
2.6015,-9.1529,-2.3836,-0.042761,0.0097738,0.0281,-12.42,40.14,-5.76
2.6151,-9.1393,-2.3836,-0.047953,0.0042761,0.018021,-12.48,40.26,-5.7
2.4925,-9.1256,-2.3018,-0.041233,0.0027489,0.021686,-12.66,40.2,-5.82
2.4789,-9.1393,-2.3699,-0.043371,-0.0015272,0.01741,-12.84,40.32,-5.88
2.5334,-9.2074,-2.3427,-0.033903,0.0036652,0.035125,-12.72,40.44,-5.76
2.6423,-9.2074,-2.438,-0.027794,-0.0058032,0.036346,-12.84,40.44,-5.7
2.4517,-9.1665,-2.4925,-0.029016,-0.0097738,0.039706,-12.66,40.38,-5.58
2.6423,-9.1529,-2.4108,-0.033292,-0.0088575,0.034208,-12.66,40.26,-5.58
2.5879,-9.1937,-2.5198,-0.033598,-0.0051924,0.014966,-12.78,39.96,-5.7
2.5879,-9.221,-2.4789,-0.047037,-0.002138,0.018937,-12.84,40.02,-5.58
2.547,-9.2074,-2.5061,-0.039401,-0.0082467,0.011606,-12.9,40.02,-5.52
2.547,-9.1937,-2.3699,-0.034819,-0.0076358,0.020159,-12.9,39.96,-5.52
2.5879,-9.2482,-2.3563,-0.038179,-0.0097738,0.013439,-12.78,39.96,-5.64
2.5879,-9.221,-2.5061,-0.039401,-0.01405,0.019853,-12.66,39.96,-5.58
2.5061,-9.2346,-2.5198,-0.037568,-0.018631,0.014966,-12.54,39.9,-5.64
2.547,-9.1256,-2.3699,-0.03543,-0.0061087,0.017715,-12.54,39.84,-5.52
2.547,-9.1393,-2.3563,-0.038179,-0.0097738,0.019242,-12.6,39.78,-5.64
2.5742,-9.1529,-2.438,-0.036346,-0.01741,0.015577,-12.48,39.78,-5.7
2.6015,-9.1393,-2.3836,-0.035125,-0.03207,0.02474,-12.36,39.84,-5.82
2.5606,-9.1256,-2.4517,-0.030543,-0.03543,0.020769,-12.48,40.02,-5.88
2.6423,-9.1937,-2.4789,-0.032376,-0.012828,0.016799,-12.54,40.02,-5.88
2.547,-9.1529,-2.4244,-0.050702,-0.0094684,0.014966,-12.42,40.02,-5.88
2.6015,-9.1937,-2.4789,-0.050702,-0.012828,0.0097738,-12.42,39.96,-6.0
2.5879,-9.1937,-2.4244,-0.057116,-0.018937,0.0048869,-12.36,39.9,-6.12
2.6151,-9.1256,-2.4517,-0.051618,-0.01741,0.014355,-12.3,39.84,-6.18
2.5334,-9.1665,-2.4789,-0.052229,-0.014355,0.0073304,-12.36,39.96,-6.06
2.547,-9.1937,-2.5061,-0.060476,-0.0097738,0.012828,-12.36,40.14,-6.12
2.5742,-9.221,-2.4517,-0.06353,-0.011912,0.018021,-12.24,40.08,-5.94
2.4517,-9.1801,-2.3155,-0.064446,-0.0085521,0.019242,-12.3,40.14,-6.0
2.547,-9.1937,-2.4789,-0.065363,-0.0033598,0.014355,-12.36,40.08,-5.88
2.5198,-9.1529,-2.3836,-0.06017,-0.0042761,0.014355,-12.54,40.08,-5.88
2.5061,-9.1937,-2.4108,-0.054367,-0.01405,0.017715,-12.66,40.08,-5.76
2.547,-9.1937,-2.3972,-0.050091,-0.019853,0.014661,-12.66,40.08,-5.7
2.4925,-9.1937,-2.4108,-0.044288,-0.012828,0.01741,-12.78,40.26,-5.76
2.547,-9.2074,-2.4244,-0.040317,-0.0088575,0.023518,-12.72,40.44,-5.82
2.5198,-9.1529,-2.4925,-0.054978,-0.0051924,0.023518,-12.72,40.44,-5.76
2.5742,-9.1665,-2.5061,-0.048869,-0.0036652,0.020769,-12.84,40.5,-5.7
2.5334,-9.1529,-2.4517,-0.046731,-0.014661,0.018937,-12.96,40.32,-5.82
2.4925,-9.1665,-2.4517,-0.047647,-0.0094684,0.025656,-13.02,40.32,-5.76
2.4789,-9.1937,-2.4108,-0.051007,0.0051924,0.027794,-12.9,40.38,-5.7
2.5198,-9.1529,-2.5061,-0.044288,-0.0085521,0.030849,-12.72,40.32,-5.58
2.5742,-9.1665,-2.547,-0.053451,-0.010996,0.037568,-12.66,40.38,-5.64
2.5061,-9.1529,-2.4517,-0.044899,-0.01741,0.032987,-12.6,40.32,-5.76
2.5061,-9.1665,-2.438,-0.051618,-0.0024435,0.043371,-12.66,40.2,-5.7
2.547,-9.1393,-2.5061,-0.045204,-0.0051924,0.045204,-12.42,40.26,-5.82
2.5334,-9.0984,-2.5742,-0.03879,-0.0061087,0.046731,-12.42,40.32,-5.76
2.5742,-9.1529,-2.4789,-0.040317,-0.0048869,0.038179,-12.48,39.9,-5.58
2.5061,-9.0848,-2.5061,-0.053451,0.0018326,0.033292,-12.36,39.84,-5.58
2.5606,-9.1529,-2.4517,-0.051313,-0.0024435,0.025045,-12.18,39.9,-5.58
2.4925,-9.1529,-2.4653,-0.057727,-0.018021,0.038179,-12.12,39.96,-5.7
2.5061,-9.1256,-2.4517,-0.043371,-0.012828,0.040317,-12.18,39.96,-5.64
2.5606,-9.1529,-2.547,-0.041844,-0.0097738,0.039706,-12.3,39.9,-5.7
2.5742,-9.1529,-2.5334,-0.043677,-0.014355,0.037568,-12.48,39.78,-5.82
2.6423,-9.1801,-2.4789,-0.047037,-0.018021,0.031765,-12.48,39.9,-5.88
2.5334,-9.1529,-2.4789,-0.053756,-0.021075,0.022297,-12.48,40.02,-5.76
2.6015,-9.1256,-2.5198,-0.058643,-0.007025,0.014355,-12.36,40.08,-5.7
2.5742,-9.0848,-2.3155,-0.050396,-0.0097738,0.019242,-12.48,40.08,-5.58
2.547,-9.1937,-2.5198,-0.03879,-0.022297,0.033292,-12.42,40.02,-5.52
2.5334,-9.0848,-2.4653,-0.047647,-0.0094684,0.023824,-12.36,40.2,-5.46
2.547,-9.1529,-2.438,-0.057421,-0.0036652,0.019853,-12.48,40.26,-5.4
2.5606,-9.1665,-2.547,-0.061087,0.0027489,0.011606,-12.6,40.32,-5.34
2.4925,-9.1256,-2.5061,-0.059559,-0.013439,0.01069,-12.6,40.38,-5.28
2.4244,-9.1393,-2.4517,-0.056505,-0.01069,0.016188,-12.6,40.44,-5.4
2.438,-9.2074,-2.547,-0.058643,-0.0079412,0.019548,-12.6,40.38,-5.34
2.4789,-9.1665,-2.4789,-0.049786,-0.010079,0.01741,-12.36,40.5,-5.28
2.547,-9.1529,-2.4789,-0.047953,-0.014355,0.030849,-12.42,40.38,-5.16
2.547,-9.1529,-2.3155,-0.050091,-0.016799,0.026267,-12.42,40.44,-5.16
2.4789,-9.1393,-2.3836,-0.043677,-0.0073304,0.025351,-12.42,40.26,-5.16
2.4789,-9.2074,-2.4108,-0.036041,-0.0012217,0.02138,-12.42,40.26,-5.4
2.4653,-9.221,-2.3563,-0.038485,-0.010079,0.027184,-12.36,40.44,-5.58
2.3972,-9.1393,-2.4653,-0.029016,-0.010385,0.029322,-12.36,40.38,-5.7
2.4517,-9.1529,-2.4108,-0.021686,-0.0067195,0.027184,-12.24,40.38,-5.7
2.4653,-9.1801,-2.4517,-0.016188,-0.0085521,0.032681,-12.18,40.44,-5.7
2.4108,-9.1256,-2.4517,-0.021075,-0.0045815,0.038485,-12.24,40.38,-5.64
2.4653,-9.1937,-2.3836,-0.024129,-0.0018326,0.041539,-12.18,40.38,-5.7
2.4517,-9.2482,-2.4517,-0.019242,-0.0030543,0.043982,-12.12,40.44,-5.64
2.4517,-9.1256,-2.438,-0.010079,-0.01069,0.040928,-12.24,40.32,-5.76
2.4789,-9.1529,-2.547,-0.013134,-0.015577,0.040928,-12.06,40.2,-5.82
2.4517,-9.1801,-2.4517,-0.017104,-0.007025,0.041233,-12.24,40.26,-5.82
2.4517,-9.2346,-2.5742,-0.021075,-0.0012217,0.047037,-12.36,40.2,-5.88
2.5061,-9.1529,-2.547,-0.021075,-0.0061087,0.049786,-12.42,40.2,-5.82
2.5061,-9.221,-2.5198,-0.022907,0.0033598,0.052534,-12.36,40.08,-5.7
2.5198,-9.2618,-2.4925,-0.028405,0.009163,0.034208,-12.42,40.02,-5.58
2.5061,-9.1529,-2.547,-0.031765,0.000611,0.02138,-12.54,40.02,-5.58
2.547,-9.2074,-2.5606,-0.033903,-0.013134,0.018937,-12.42,39.9,-5.64
2.438,-9.1256,-2.4789,-0.038179,-0.015577,0.026267,-12.48,39.84,-5.58
2.4517,-9.1937,-2.4517,-0.03543,-0.0097738,0.029627,-12.48,39.84,-5.58
2.438,-9.1665,-2.4517,-0.040928,-0.002138,0.029016,-12.6,39.84,-5.7
2.547,-9.2074,-2.438,-0.037263,-0.0045815,0.029932,-12.6,39.96,-5.58
2.4789,-9.1801,-2.4517,-0.031765,-0.016188,0.022297,-12.66,40.08,-5.58
2.5061,-9.1937,-2.3836,-0.036957,-0.010079,0.016188,-12.42,40.14,-5.52
2.547,-9.1801,-2.3563,-0.037263,-0.0061087,0.016493,-12.18,40.08,-5.58
2.5334,-9.112,-2.3836,-0.035125,-0.0082467,0.023518,-12.18,40.2,-5.58
2.4925,-9.1256,-2.438,-0.032376,-0.010385,0.01405,-12.24,40.2,-5.58
2.5061,-9.1529,-2.4789,-0.02474,-0.0030543,0.011912,-12.24,40.32,-5.58
2.5061,-9.0303,-2.4925,-0.026573,-0.0039706,0.0067195,-12.18,40.32,-5.58
2.5061,-9.1937,-2.438,-0.031765,-0.0076358,0.0085521,-12.3,40.38,-5.7
2.4244,-9.2074,-2.4517,-0.040012,0.002138,0.0085521,-12.12,40.26,-5.7
2.438,-9.1529,-2.3699,-0.040623,0.0051924,0.0073304,-12.0,40.26,-5.64
2.4517,-9.1665,-2.3972,-0.031154,0.0088575,0.0073304,-11.94,40.26,-5.64
2.4789,-9.2074,-2.4925,-0.04215,-0.0088575,0.012523,-11.94,40.32,-5.7
2.4108,-9.221,-2.4517,-0.038179,-0.010996,0.014966,-12.12,40.26,-5.7
2.3972,-9.1801,-2.5061,-0.03879,0.0030543,0.012523,-12.06,40.02,-5.7
2.3699,-9.2074,-2.4789,-0.04215,0.017715,0.010079,-12.12,40.14,-5.64
2.4789,-9.221,-2.4108,-0.043066,0.013439,0.0088575,-12.3,40.08,-5.58
2.4653,-9.2346,-2.4108,-0.044288,0.000916,0.013439,-12.42,40.08,-5.64
2.3836,-9.2618,-2.3836,-0.04215,-0.0015272,0.014661,-12.54,40.02,-5.76
2.3563,-9.2074,-2.3836,-0.033598,0.007025,0.027184,-12.66,40.02,-5.7
2.3972,-9.1937,-2.5334,-0.039706,0.0073304,0.034208,-12.66,39.96,-5.4
2.3563,-9.1937,-2.4789,-0.0281,0.009163,0.035736,-12.72,39.96,-5.52
2.4653,-9.2074,-2.4789,-0.041844,0.010079,0.031154,-12.9,39.96,-5.52
2.5198,-9.1529,-2.4517,-0.038485,0.010385,0.032376,-13.08,39.9,-5.58
2.5742,-9.1529,-2.5061,-0.036652,0.0061087,0.040012,-13.14,39.84,-5.4
2.4108,-9.1937,-2.4244,-0.040928,0.012217,0.037568,-13.08,39.72,-5.52
2.5061,-9.2346,-2.4517,-0.040012,0.016188,0.037874,-13.08,39.72,-5.64
2.4789,-9.221,-2.4517,-0.036041,0.013439,0.042455,-13.02,39.72,-5.64
2.547,-9.3163,-2.4244,-0.034819,0.013744,0.049175,-13.02,39.72,-5.76
2.4925,-9.221,-2.4108,-0.034819,0.01405,0.031154,-12.84,39.9,-5.58
2.5198,-9.1665,-2.3836,-0.037568,0.010996,0.025656,-12.66,39.78,-5.7
2.5198,-9.221,-2.3427,-0.047647,0.014661,0.013744,-12.54,39.78,-5.82
2.5198,-9.1665,-2.3836,-0.051924,0.014355,0.015272,-12.54,39.9,-5.88
2.5198,-9.1801,-2.4244,-0.044288,0.01405,0.01741,-12.54,39.9,-5.88
2.547,-9.1529,-2.438,-0.040317,0.0076358,0.011912,-12.6,39.84,-5.76
2.4925,-9.1937,-2.4244,-0.033292,0.000611,0.018326,-12.54,39.84,-5.76
2.4789,-9.1529,-2.3836,-0.040317,-0.0061087,0.025656,-12.3,40.08,-5.76
2.4517,-9.1937,-2.3972,-0.039095,0.0018326,0.014355,-12.24,40.02,-5.76
2.4789,-9.1937,-2.4244,-0.043371,0.0082467,0.011606,-12.3,40.02,-5.76
2.547,-9.1665,-2.3836,-0.047037,0.0061087,0.0085521,-12.36,40.08,-5.76
2.438,-9.1529,-2.4517,-0.041233,-0.0030543,0.0097738,-12.24,40.14,-5.64
2.4925,-9.1937,-2.3836,-0.026573,-0.011606,0.014355,-12.3,40.08,-5.7
2.5198,-9.221,-2.4108,-0.03879,-0.0042761,0.016188,-12.48,40.08,-5.64
2.5606,-9.1937,-2.4108,-0.043982,0.0082467,0.0073304,-12.66,40.14,-5.52
2.5061,-9.1256,-2.4517,-0.051618,0.000916,0.0094684,-12.6,40.08,-5.52
2.4789,-9.1937,-2.4517,-0.045509,0.002138,0.0088575,-12.72,39.96,-5.52
2.5334,-9.1665,-2.4244,-0.04948,0.0030543,0.0064141,-12.48,39.96,-5.52
2.5061,-9.1529,-2.4108,-0.041233,0.0027489,0.0064141,-12.42,40.02,-5.52
2.438,-9.1665,-2.4517,-0.040623,-0.0033598,0.01069,-12.48,39.9,-5.58
2.4789,-9.221,-2.4108,-0.042761,-0.002138,0.018937,-12.6,39.96,-5.52
2.4517,-9.2074,-2.4108,-0.03879,0.0012217,0.014661,-12.54,40.02,-5.46
2.4517,-9.1801,-2.3836,-0.04215,0.01069,0.013134,-12.6,40.02,-5.34
2.4517,-9.221,-2.4108,-0.047037,0.0097738,0.013439,-12.66,40.02,-5.4
2.4517,-9.1529,-2.4108,-0.035736,0.002138,0.007025,-12.66,40.02,-5.46
2.4653,-9.221,-2.4517,-0.032376,-0.000611,0.011606,-12.6,40.08,-5.4
2.438,-9.221,-2.4108,-0.036346,0.002138,0.018937,-12.42,40.02,-5.28
2.438,-9.1529,-2.4108,-0.03543,0.0097738,0.020769,-12.36,40.14,-5.34
2.5061,-9.1529,-2.438,-0.033598,0.013134,0.020769,-12.36,40.26,-5.46
2.5061,-9.2482,-2.4653,-0.035125,0.007025,0.021686,-12.54,40.32,-5.58
2.5061,-9.3163,-2.3972,-0.040623,0.010385,0.013134,-12.6,40.14,-5.4
2.547,-9.221,-2.4244,-0.042455,0.014966,0.01069,-12.66,40.2,-5.52
2.4789,-9.1529,-2.4108,-0.041539,0.010385,0.015272,-12.6,40.32,-5.52
2.4925,-9.1665,-2.4244,-0.031765,0.0015272,0.02138,-12.72,40.26,-5.64
2.4244,-9.1937,-2.438,-0.033903,0.0088575,0.02138,-12.72,40.26,-5.64
2.4108,-9.1801,-2.3291,-0.040928,0.014966,0.026573,-12.6,40.26,-5.7
2.4789,-9.2346,-2.4789,-0.04215,0.01069,0.03146,-12.48,40.2,-5.76
2.5606,-9.2482,-2.438,-0.030849,0.0045815,0.036041,-12.66,39.96,-5.94
2.5334,-9.2074,-2.4789,-0.033903,0.0064141,0.034819,-12.66,40.02,-6.06
2.6287,-9.1937,-2.4517,-0.044593,0.015272,0.023213,-12.54,40.02,-6.06
2.5061,-9.2074,-2.3836,-0.048869,0.0082467,0.02138,-12.42,39.9,-6.12
2.4925,-9.1665,-2.4789,-0.051007,0.015577,0.016188,-12.48,39.9,-6.12
2.5061,-9.221,-2.4517,-0.0562,0.016188,0.018326,-12.48,39.96,-6.24
2.547,-9.1529,-2.4517,-0.046426,0.013134,0.015882,-12.24,39.9,-6.24
2.5334,-9.1937,-2.3836,-0.03879,0.002138,0.028405,-12.3,39.96,-6.24
2.4653,-9.1937,-2.4789,-0.043066,-0.0088575,0.025962,-12.36,39.96,-6.3
2.4517,-9.1393,-2.3699,-0.040012,0.0027489,0.026573,-12.12,39.96,-6.42
2.5334,-9.1937,-2.438,-0.051007,0.018021,0.019853,-12.12,39.84,-6.42
2.547,-9.1937,-2.4517,-0.039706,0.012828,0.019548,-12.18,39.78,-6.42
2.4517,-9.1529,-2.4244,-0.03543,-0.0024435,0.023213,-12.06,39.96,-6.3
2.5198,-9.1529,-2.4517,-0.033292,-0.018326,0.027184,-12.06,39.96,-6.42
