Ax,Ay,Az,Gx,Gy,Gz,Mx,My,Mz
3.5685,-9.1393,-2.2882,-0.099571,0.053145,0.0036652,-18.18,32.04,-9.54
3.5685,-9.1393,-2.3427,-0.12462,0.048564,0.0036652,-18.18,32.1,-9.42
3.3642,-8.9894,-2.3427,-0.12248,0.050091,0.010079,-18.18,32.04,-9.54
3.3506,-8.7715,-2.1929,-0.13867,0.084605,-0.0027489,-18.24,32.1,-9.6
3.3915,-8.8532,-2.1929,-0.14355,0.11881,-0.0048869,-18.3,32.16,-9.78
3.4596,-8.7987,-2.1112,-0.135,0.11484,0.0088575,-18.06,32.22,-9.78
3.514,-8.7987,-2.0975,-0.11301,0.058643,0.043677,-18.06,32.1,-9.66
3.5413,-8.8124,-2.1112,-0.076053,0.029016,0.058643,-17.88,32.28,-9.66
3.5685,-8.8124,-2.0567,-0.035125,-0.026878,0.076664,-17.88,32.46,-9.66
3.4868,-8.9213,-2.0431,-0.027184,-0.020464,0.079412,-17.94,32.52,-9.6
3.5549,-8.9349,-2.0158,-0.016493,-0.011606,0.056505,-17.94,32.46,-9.6
3.5685,-8.9077,-2.1248,-0.010996,0.012217,0.057421,-17.76,32.7,-9.78
3.623,-8.826,-2.0567,0.0012217,0.018631,0.027184,-17.7,32.64,-9.84
3.6094,-8.9622,-2.0975,0.0048869,0.010996,0.027794,-17.82,32.52,-9.72
3.6639,-8.9213,-2.0567,0.018326,-0.0030543,0.018631,-17.76,32.46,-9.6
3.5004,-8.9486,-2.1248,0.011301,0.000611,0.0085521,-17.76,32.64,-9.54
3.5958,-8.8941,-2.1248,0.018021,0.019242,-0.0033598,-17.76,32.52,-9.48
3.5413,-8.8941,-2.2065,0.011301,0.020769,-0.0048869,-17.82,32.46,-9.42
3.5822,-8.8941,-2.2065,0.016188,-0.000305,-0.0051924,-17.7,32.64,-9.54
3.5413,-8.8941,-2.2201,0.021075,-0.0094684,-0.0042761,-17.7,32.46,-9.72
3.514,-8.9077,-2.2746,0.021075,-0.016799,-0.0073304,-17.76,32.46,-9.66
3.4459,-9.0031,-2.2201,0.018021,-0.015882,-0.002138,-17.58,32.28,-9.6
3.5277,-8.9894,-2.2337,0.0058032,-0.0064141,-0.012217,-17.52,32.28,-9.84
3.4732,-9.0303,-2.2882,-0.0018326,0.0027489,-0.0036652,-17.46,32.16,-9.72
3.514,-9.112,-2.2882,-0.0085521,-0.002138,0.0058032,-17.52,32.52,-10.02
3.4051,-9.0575,-2.3427,-0.015577,0.0036652,0.000611,-17.58,32.52,-10.08
3.4732,-9.0712,-2.3836,-0.031765,0.0042761,0.0045815,-17.52,32.4,-9.84
3.4596,-9.0303,-2.3291,-0.032987,0.0051924,0.0076358,-17.64,32.34,-9.96
3.4323,-9.0575,-2.3291,-0.044288,0.0094684,0.0067195,-17.64,32.52,-10.02
3.4323,-8.9894,-2.2065,-0.037568,0.012217,0.017715,-17.58,32.58,-10.14
3.4732,-8.8941,-2.1248,-0.039401,0.0030543,0.02138,-17.58,32.4,-10.2
3.5413,-8.8941,-2.152,-0.041844,-0.0042761,0.020769,-17.58,32.52,-10.14
3.4868,-8.8941,-2.0839,-0.040317,-0.0088575,0.027794,-17.58,32.52,-10.02
3.5277,-8.8805,-2.152,-0.025962,-0.013744,0.030543,-17.64,32.7,-10.02
3.5277,-8.9894,-2.1248,-0.01741,-0.015272,0.0281,-17.7,32.76,-10.02
3.5685,-8.9758,-2.1793,-0.022907,-0.017104,0.026878,-17.88,32.7,-10.02
3.5549,-8.9758,-2.1248,-0.018021,-0.012828,0.027794,-17.76,32.7,-9.96
3.5685,-8.9894,-2.152,-0.020159,-0.007025,0.023824,-17.94,32.46,-9.96
3.5277,-8.9622,-2.1384,-0.022602,-0.0061087,0.019853,-17.94,32.46,-10.08
3.5685,-8.9349,-2.2201,-0.025656,-0.0088575,0.011301,-17.88,32.58,-10.08
3.5413,-8.9349,-2.1929,-0.022297,-0.017715,0.0076358,-17.76,32.52,-10.08
3.4732,-8.9622,-2.2065,-0.036652,-0.0085521,0.0024435,-17.7,32.34,-10.08
3.4868,-9.0031,-2.1793,-0.03207,0.0030543,0.013744,-17.82,32.28,-9.9
3.5549,-8.8941,-2.152,-0.037568,0.0058032,0.015272,-17.82,32.16,-10.02
3.5004,-8.9349,-2.2746,-0.032987,0.0061087,0.018937,-17.88,32.1,-10.2
3.514,-8.9622,-2.1656,-0.030849,-0.012217,0.018021,-17.82,32.1,-10.14
3.514,-8.9486,-2.2201,-0.040928,-0.011912,0.012217,-17.94,32.04,-10.14
3.5413,-8.8941,-2.2201,-0.041233,-0.0018326,0.0085521,-17.88,32.16,-10.08
3.5822,-8.9758,-2.1929,-0.051618,0.0051924,-0.0088575,-17.88,32.1,-10.08
3.5685,-8.9622,-2.1929,-0.045815,-0.000916,-0.0094684,-17.7,32.04,-10.2
3.5004,-8.9894,-2.2065,-0.040012,-0.0064141,-0.017104,-17.64,32.1,-10.2
3.5004,-9.0031,-2.1248,-0.053145,-0.000916,-0.01741,-17.64,32.1,-10.14
3.514,-9.0031,-2.1248,-0.048258,0.01741,-0.023824,-17.76,32.1,-10.26
3.5413,-9.0167,-2.0975,-0.049175,0.016188,-0.013744,-18.0,32.1,-10.26
3.5004,-8.9622,-2.0703,-0.030543,-0.0036652,-0.009163,-18.06,32.1,-10.32
3.4459,-9.0303,-2.2201,-0.022297,-0.016799,0.0067195,-18.12,32.04,-10.32
3.4459,-8.9486,-2.2065,-0.023518,-0.0039706,0.01741,-18.0,32.04,-10.32
3.6639,-8.9758,-2.2746,-0.03146,0.014661,0.020159,-18.06,31.92,-10.44
3.514,-8.9486,-2.1929,-0.038179,0.015882,0.024129,-17.94,32.16,-10.32
3.5413,-8.8941,-2.152,-0.035736,0.015577,0.024435,-17.94,32.04,-10.38
3.514,-8.9349,-2.1929,-0.034819,0.021075,0.023518,-17.94,31.92,-10.32
3.6094,-8.9349,-2.2065,-0.036957,0.020464,0.020159,-17.94,31.98,-10.38
3.6094,-8.9622,-2.261,-0.040928,0.009163,0.022297,-18.0,31.92,-10.38
3.6094,-8.9622,-2.2201,-0.037874,0.0088575,0.011606,-17.94,31.8,-10.38
3.6094,-8.8941,-2.2065,-0.039095,0.0042761,0.022907,-17.94,31.8,-10.26
3.5958,-8.8668,-2.152,-0.03879,0.000305,0.023824,-17.94,31.62,-10.2
3.5549,-8.9213,-2.1384,-0.035736,-0.0030543,0.021991,-17.94,31.62,-10.14
3.5958,-8.9349,-2.1248,-0.026267,-0.0097738,0.026267,-17.76,31.74,-10.14
3.5549,-8.9622,-2.1656,-0.019853,-0.01741,0.027794,-17.76,31.92,-10.08
3.5413,-8.9622,-2.1929,-0.025962,-0.007025,0.025351,-17.76,31.92,-10.08
3.5822,-8.9349,-2.1793,-0.025962,-0.0039706,0.026267,-17.88,31.68,-10.02
3.5413,-8.9213,-2.1384,-0.01741,0.0024435,0.026878,-17.94,31.74,-10.14
3.5685,-8.9349,-2.2065,-0.019548,-0.002138,0.028405,-18.06,31.8,-10.32
3.5958,-8.9486,-2.0975,-0.020159,-0.0048869,0.023213,-18.0,31.8,-10.14
3.5958,-8.8941,-2.152,-0.02474,-0.0039706,0.022297,-17.94,31.8,-10.2
3.5958,-8.8941,-2.152,-0.020464,-0.0073304,0.022602,-17.94,31.8,-10.2
3.623,-8.9894,-2.2201,-0.011301,-0.010996,0.018937,-17.94,31.8,-10.2
3.5549,-9.0167,-2.1929,-0.023824,-0.016493,0.024129,-18.06,31.74,-10.14
3.5277,-8.9486,-2.2201,-0.012828,-0.022602,0.028405,-17.88,31.92,-10.44
3.514,-8.9486,-2.1929,-0.017715,-0.025656,0.025351,-17.76,32.04,-10.5
3.5958,-8.8668,-2.2746,-0.013134,-0.046426,0.026267,-17.52,32.04,-10.44
3.5413,-8.9349,-2.1656,-0.014966,-0.04612,0.022602,-17.52,31.8,-10.38
3.514,-9.0439,-2.152,-0.013744,-0.034819,0.018937,-17.1,31.62,-10.26
3.514,-8.9894,-2.152,-0.018631,-0.027489,0.018021,-16.74,31.62,-10.14
3.5822,-8.9622,-2.1929,-0.01069,-0.033598,0.0082467,-16.8,31.38,-10.2
3.5004,-8.9894,-2.1793,-0.0079412,-0.038485,0.010385,-16.62,31.5,-10.32
3.514,-8.9349,-2.0839,-0.0094684,-0.042761,0.0027489,-16.56,31.56,-10.26
3.4596,-8.9622,-2.2201,-0.013134,-0.025045,0.0045815,-16.5,31.5,-10.2
3.4459,-8.9486,-2.0839,-0.01405,-0.029322,0.0042761,-16.62,31.38,-10.2
3.4732,-8.9894,-2.1384,-0.0097738,-0.0281,0.013744,-16.86,31.44,-10.44
3.514,-8.9349,-2.1248,-0.01069,-0.023518,0.015577,-17.22,31.68,-10.44
3.5413,-9.0167,-2.1929,-0.019548,-0.016799,0.018631,-17.4,31.92,-10.56
3.4596,-9.0303,-2.1384,-0.018021,-0.0082467,0.018326,-17.4,32.22,-10.62
3.4868,-8.9622,-2.1248,-0.02138,-0.012828,0.01069,-17.4,32.34,-10.68
3.4459,-8.9894,-2.2201,-0.022602,-0.007025,0.011301,-17.34,32.34,-10.56
3.5004,-8.9349,-2.2201,-0.034514,0.0027489,0.012523,-17.4,32.34,-10.5
3.5413,-9.0303,-2.152,-0.037568,-0.0064141,0.013134,-17.34,32.28,-10.56
3.4868,-9.0031,-2.1656,-0.038485,-0.0073304,0.01069,-17.22,32.4,-10.44
3.5277,-9.0303,-2.1248,-0.031154,-0.013439,0.013134,-17.28,32.22,-10.14
3.4868,-8.9894,-2.152,-0.022907,-0.021075,0.012828,-17.28,32.16,-10.08
3.4868,-8.9349,-2.0975,-0.030238,-0.012523,0.010996,-17.28,32.16,-10.38
3.4732,-8.9894,-2.1793,-0.028711,-0.011912,0.011301,-17.4,32.04,-10.26
3.4868,-8.9894,-2.1248,-0.031765,-0.0079412,0.014661,-17.52,31.92,-10.26
3.5277,-8.8941,-2.1656,-0.035736,-0.0073304,0.021991,-17.76,31.92,-10.26
3.5413,-8.9349,-2.152,-0.031765,-0.0039706,0.016188,-17.7,31.98,-10.44
3.5004,-8.9349,-2.1248,-0.037263,-0.0082467,0.023213,-17.76,32.04,-10.44
3.5549,-9.0031,-2.0975,-0.029932,-0.013744,0.027184,-17.88,31.98,-10.5
3.6094,-8.9758,-2.152,-0.029016,-0.013134,0.022907,-17.76,31.98,-10.5
3.5413,-8.9894,-2.2474,-0.039706,-0.0033598,0.020464,-17.7,32.16,-10.44
3.5413,-8.9758,-2.152,-0.03879,-0.0054978,0.015882,-17.7,31.86,-10.26
3.514,-8.9622,-2.1793,-0.038485,-0.014355,0.0076358,-17.76,31.98,-10.14
3.5004,-9.0303,-2.261,-0.041233,-0.018631,0.0033598,-17.82,32.1,-10.14
3.5004,-9.0712,-2.2201,-0.044288,-0.0094684,-0.0027489,-17.7,31.92,-10.02
3.514,-9.0712,-2.3427,-0.055894,0.000611,-0.0015272,-17.82,31.98,-10.14
3.6366,-9.112,-2.4653,-0.064446,-0.0054978,-0.010079,-17.94,32.1,-10.02
3.7184,-9.1256,-2.656,-0.090713,-0.01741,-0.032681,-17.94,32.16,-9.78
3.7865,-9.1665,-2.5742,-0.10965,0.0036652,-0.076358,-17.88,32.04,-9.84
3.9227,-9.1937,-2.6696,-0.15974,0.024129,-0.13317,-18.06,32.22,-10.02
4.127,-9.1937,-2.7649,-0.22602,0.070555,-0.2248,-18.06,32.28,-9.9
4.2904,-9.0439,-2.6832,-0.25259,0.080634,-0.29169,-18.12,32.28,-9.84
4.3177,-9.0848,-2.7649,-0.28802,0.066584,-0.34758,-18.12,32.28,-9.78
4.3858,-8.9213,-2.7922,-0.31918,0.054367,-0.39981,-18.12,32.28,-9.54
4.4947,-8.826,-2.656,-0.34911,0.025351,-0.45021,-18.36,32.16,-9.48
4.6582,-8.8532,-2.7786,-0.36377,-0.022602,-0.50488,-18.36,31.86,-9.18
4.699,-8.8532,-2.8739,-0.39981,-0.093462,-0.55894,-18.54,31.8,-9.06
4.699,-8.8668,-3.0373,-0.47617,-0.062919,-0.66523,-18.84,31.74,-8.94
4.8352,-8.7579,-3.051,-0.5284,0.022602,-0.72815,-19.26,31.62,-8.64
5.0123,-8.826,-3.337,-0.58093,0.06353,-0.77305,-19.74,31.38,-8.34
5.2166,-8.7306,-3.3915,-0.65912,0.076969,-0.84483,-19.92,31.44,-8.04
5.6116,-8.7715,-3.514,-0.70983,0.10293,-0.9389,-20.7,31.5,-7.92
5.7614,-8.6762,-3.5685,-0.79596,0.20708,-1.0522,-21.12,31.32,-7.62
6.279,-8.8668,-4.0861,-0.88362,0.31368,-1.1985,-21.9,31.14,-7.08
6.5378,-8.3357,-4.0589,-0.93737,0.50946,-1.3231,-22.92,30.78,-6.66
6.7966,-8.1858,-4.0589,-0.9841,0.45907,-1.3686,-23.52,30.72,-6.48
7.3414,-8.2676,-4.3858,-1.0235,0.41081,-1.5211,-24.66,30.48,-6.06
7.5048,-7.8589,-4.5356,-1.0754,0.3824,-1.6102,-25.98,30.0,-5.58
7.5729,-7.7364,-4.7671,-1.0834,0.27367,-1.7089,-27.24,29.64,-5.16
7.5457,-7.5048,-4.8216,-1.1313,0.26176,-1.8518,-28.14,29.28,-4.92
7.8998,-7.1507,-4.7671,-1.1906,0.34483,-1.9285,-29.88,28.38,-4.86
8.1586,-6.7421,-4.7671,-1.2358,0.37629,-1.9893,-30.66,27.9,-4.68
8.5672,-6.5105,-4.9033,-1.2431,0.32803,-2.073,-32.28,27.12,-4.68
8.8668,-5.9793,-4.9987,-1.248,0.21228,-2.1533,-34.02,26.28,-4.8
9.1393,-5.6116,-4.8488,-1.2825,0.062003,-2.2465,-35.52,25.14,-4.86
9.2482,-5.3937,-4.9169,-1.2798,-0.077274,-2.3192,-36.36,24.48,-4.92
9.4253,-5.0123,-4.9987,-1.2553,-0.17837,-2.4007,-37.68,23.16,-5.28
9.6023,-4.6718,-5.0804,-1.2648,-0.18418,-2.4994,-38.7,21.54,-5.46
10.011,-4.1542,-5.1213,-1.2526,-0.19731,-2.6044,-39.48,19.92,-5.76
9.9973,-3.8954,-5.2302,-1.2343,-0.27245,-2.6899,-39.66,19.08,-5.7
9.7249,-2.9011,-5.1894,-1.2245,-0.36194,-2.7639,-40.14,16.98,-5.64
9.4253,-2.2882,-5.2575,-1.1768,-0.51007,-2.8143,-40.44,14.58,-5.4
9.4934,-2.0567,-5.2847,-1.1307,-0.57757,-2.864,-40.38,13.26,-5.22
9.6704,-1.4165,-5.1076,-1.0913,-0.62064,-2.9331,-40.32,10.74,-4.32
9.1801,-0.54481,-4.808,-1.0522,-0.64752,-3.0094,-40.08,8.1,-3.3
9.0848,-0.14982,-4.8216,-1.0201,-0.60751,-3.0604,-39.96,6.6,-2.82
8.7306,0.31327,-5.0668,-1.0079,-0.55131,-3.0885,-39.6,3.54,-1.86
8.2131,1.0624,-5.0259,-1.0104,-0.56597,-3.0998,-39.48,0.36,-1.02
8.1313,1.4574,-4.8761,-0.98869,-0.62003,-3.1004,-39.18,-1.32,-0.3
7.8589,1.9613,-4.9033,-0.95203,-0.6973,-3.0821,-38.94,-4.56,0.78
7.5457,2.5061,-4.9578,-0.95967,-0.72754,-3.0552,-38.1,-7.62,1.86
7.3141,3.0918,-4.6718,-0.93921,-0.75289,-3.0171,-37.5,-10.8,2.64
7.0962,3.4868,-4.5492,-0.90286,-0.85002,-3.0061,-37.02,-12.18,2.94
5.9385,3.9908,-4.4266,-0.80176,-0.98716,-2.9801,-35.94,-15.42,3.42
5.6116,4.1542,-4.3313,-0.7422,-0.90652,-2.9612,-35.4,-16.92,3.66
4.7263,4.5628,-4.413,-0.70341,-0.79168,-2.8885,-34.14,-19.56,4.08
4.018,4.8352,-4.7263,-0.6692,-0.63958,-2.8231,-32.64,-22.14,4.56
3.1872,5.2847,-4.8488,-0.63011,-0.54275,-2.7217,-31.14,-24.72,4.92
2.9011,5.3392,-4.7671,-0.59956,-0.46517,-2.6041,-30.18,-25.92,5.04
2.2201,5.6797,-4.4811,-0.58429,-0.37721,-2.4728,-28.62,-28.08,5.4
1.7434,5.8023,-4.5083,-0.52412,-0.23763,-2.2428,-26.76,-29.94,5.34
1.362,5.8704,-4.6309,-0.50671,-0.097433,-2.0788,-25.8,-30.72,5.52
0.83084,6.1836,-4.8352,-0.52168,0.20525,-1.9215,-24.0,-32.58,5.52
0.74912,6.5241,-4.6037,-0.52351,0.50396,-1.7474,-22.08,-34.14,5.52
0.47671,6.674,-4.3858,-0.48197,0.66645,-1.5641,-20.22,-35.4,5.4
0.23155,6.7693,-4.3449,-0.46334,0.83383,-1.3772,-19.5,-36.0,5.34
0.39499,7.1234,-4.3585,-0.47373,1.1826,-1.124,-17.76,-37.26,4.86
0.83084,7.4503,-4.1814,-0.44043,1.2226,-0.97372,-16.2,-38.22,4.32
1.0624,7.6683,-4.0861,-0.39279,1.0708,-0.80695,-15.42,-38.88,3.96
1.2531,7.6546,-3.9908,-0.35308,0.95448,-0.64324,-14.16,-39.78,3.36
0.91256,7.8045,-3.8409,-0.29016,0.82375,-0.5455,-13.02,-40.68,2.76
0.76274,7.927,-3.8137,-0.21747,0.80359,-0.45632,-12.0,-40.92,2.16
0.85808,8.0769,-4.5083,-0.22327,1.1487,-0.26084,-11.64,-41.16,1.8
1.471,8.1041,-4.4402,-0.18204,1.1353,-0.15333,-11.04,-41.7,1.14
1.58,8.2539,-4.1406,-0.10934,0.75869,-0.099571,-10.68,-41.82,0.84
0.85808,8.5127,-4.0589,-0.035125,0.5791,-0.076969,-10.2,-42.12,0.24
1.5255,8.6898,-4.4811,-0.025656,0.5901,-0.016799,-9.78,-42.0,0.12
2.4517,8.7306,-4.7126,-0.021686,0.50091,0.046731,-9.54,-41.94,-0.48
2.6287,8.7715,-4.7263,0.010996,0.17746,0.068111,-9.24,-42.06,-0.66
2.6015,8.8668,-4.522,0.077885,-0.16005,0.076358,-9.12,-42.06,-0.9
2.0567,8.8941,-4.0997,0.14966,-0.26634,0.064752,-9.0,-42.0,-1.08
1.9068,8.8532,-4.2223,0.19303,-0.10904,0.055894,-9.0,-42.12,-1.08
1.6072,8.5944,-4.7126,0.21533,0.097738,0.054367,-9.18,-42.06,-1.2
1.3893,8.2812,-4.9714,0.22297,0.29841,0.082161,-9.06,-42.0,-1.2
1.4029,8.1722,-5.0531,0.18173,0.51588,0.11026,-9.24,-41.88,-1.2
2.0022,8.1586,-5.0123,0.12065,0.62156,0.18662,-9.36,-42.0,-1.26
2.2882,8.3493,-4.8488,0.08491,0.61178,0.2306,-9.42,-41.82,-1.08
2.5061,8.54,-4.6309,0.037263,0.63163,0.24618,-9.54,-42.0,-1.2
3.2825,8.7715,-4.808,0.044899,0.57941,0.22755,-9.78,-41.94,-1.32
3.4459,8.8668,-4.8897,0.10171,0.088881,0.17349,-9.9,-41.94,-1.2
3.1735,8.7034,-5.094,0.1066,-0.28039,0.16371,-10.14,-41.88,-1.2
2.8058,8.6081,-5.3528,0.085827,-0.39859,0.16524,-10.14,-41.7,-1.2
2.7377,8.3765,-5.2166,-0.017715,-0.60384,0.16952,-10.32,-41.76,-1.26
2.833,8.2676,-5.1894,-0.092546,-0.68325,0.12462,-10.38,-41.7,-1.2
3.051,8.4855,-4.808,-0.14722,-0.70097,0.069639,-10.44,-41.64,-1.26
2.9556,8.5672,-4.413,-0.13653,-0.68386,-0.014966,-10.68,-41.64,-1.2
2.7104,8.6353,-4.1814,-0.10354,-0.69394,-0.038179,-10.86,-41.7,-1.08
1.866,8.6217,-4.0044,0.018631,-0.49786,-0.097738,-10.92,-41.76,-0.9
1.1577,8.5672,-4.1814,0.10904,-0.045204,-0.11057,-10.8,-41.76,-0.84
1.2531,8.4991,-4.2632,0.17776,0.58613,-0.13042,-10.8,-41.58,-0.48
1.8524,8.6898,-4.2359,0.20464,1.1872,-0.13103,-10.8,-41.64,-0.36
3.0101,8.6762,-4.699,0.20006,1.182,-0.11209,-10.86,-41.7,-0.24
2.9011,8.7987,-4.9578,0.21594,0.94562,-0.064141,-10.86,-41.88,-0.24
2.4789,8.5808,-5.1894,0.20922,0.62858,-0.048564,-10.86,-41.88,-0.24
2.3836,8.4038,-5.3392,0.13592,0.60109,-0.062919,-10.86,-41.76,0.06
2.3155,8.5127,-5.1213,0.057727,0.67928,-0.036652,-10.8,-41.94,-0.12
2.3563,8.3765,-4.8625,0.043066,0.57146,0.0061087,-10.74,-42.0,-0.12
2.4925,8.3357,-4.413,0.032681,0.27703,0.077274,-10.56,-42.12,-0.06
2.2065,8.3629,-4.7807,0.029627,-0.41478,0.25565,-10.5,-42.0,-0.12
1.9341,8.4855,-5.0804,0.013134,-0.57666,0.29749,-10.56,-42.0,-0.18
1.9341,8.4446,-5.2438,-0.056505,-0.57055,0.28711,-10.62,-42.0,-0.3
3.5277,8.322,-5.2575,-0.18418,-0.33567,0.13073,-10.74,-42.06,-0.6
4.3177,8.2812,-5.5571,-0.28008,-0.57177,0.014355,-10.74,-42.06,-0.54
3.9227,8.1858,-6.0066,-0.37477,-1.4554,0.044899,-10.86,-41.82,-0.54
1.3484,7.927,-5.8976,-0.40225,-1.6072,0.080023,-10.86,-41.64,-0.66
0.81722,8.0632,-5.6661,-0.48717,-1.6231,0.15455,-10.86,-41.58,-0.66
0.99429,8.2676,-5.2438,-0.5339,-1.5705,0.30879,-10.92,-41.64,-0.54
2.6015,8.4582,-5.0531,-0.45907,-1.3207,0.33964,-11.22,-41.46,-0.36
3.9635,9.0303,-4.7126,-0.30085,-1.0724,0.28466,-11.28,-41.4,-0.48
3.5413,9.2891,-4.2904,-0.065668,-0.66309,0.094379,-11.34,-41.34,-0.36
1.975,9.1256,-4.3177,0.01741,0.088881,-0.077885,-11.46,-41.28,-0.36
1.2395,8.9622,-4.3858,0.046731,0.51282,-0.11087,-11.52,-41.16,-0.24
0.85808,8.7715,-4.413,0.21136,1.2969,-0.090408,-11.64,-41.16,-0.12
0.35413,8.0496,-4.7807,0.29841,1.6255,-0.083383,-11.64,-41.16,-0.12
1.1441,8.1586,-4.8488,0.26084,2.062,-0.14447,-11.7,-41.16,-0.12
3.1054,8.7987,-4.3449,0.14722,2.4661,-0.20189,-11.64,-41.28,-0.18
3.8137,8.9622,-3.9908,0.028405,2.3586,-0.26634,-11.58,-41.4,-0.18
4.0589,8.7034,-4.127,0.030849,2.0409,-0.29474,-11.7,-41.46,-0.24
3.1191,8.1586,-4.4402,0.026573,0.97677,-0.24557,-11.46,-41.58,-0.42
1.9477,8.322,-4.522,0.010996,0.57513,-0.071471,-11.52,-41.52,-0.66
1.5119,8.5672,-4.3858,-0.021686,0.67562,0.054978,-11.4,-41.7,-0.84
2.2746,8.7034,-3.8409,-0.0281,1.0418,0.051924,-11.28,-41.7,-1.02
4.3177,9.3436,-3.2008,0.054367,0.47892,0.057116,-10.98,-41.82,-1.44
4.6718,9.1665,-3.7728,0.14966,-0.093157,0.077885,-10.92,-41.82,-1.74
2.8603,8.6353,-5.5707,0.27733,-1.1845,0.16066,-10.74,-41.82,-1.92
0.81722,7.8045,-6.1019,0.081856,-0.79718,0.29383,-10.86,-41.82,-1.92
2.7513,8.1041,-4.7535,-0.1347,-0.08094,0.25015,-10.8,-41.82,-2.28
4.3177,8.5808,-4.3177,-0.098349,-0.34606,0.31276,-10.74,-41.94,-2.4
2.7377,8.1858,-4.2904,0.025351,-0.88148,0.33384,-10.8,-42.0,-2.34
2.0294,7.9815,-4.4675,0.03879,-0.77061,0.34117,-10.98,-42.06,-2.34
2.2065,8.0632,-4.522,0.035736,-0.24618,0.36713,-10.92,-42.12,-2.34
2.5606,8.145,-4.7671,0.054672,-0.0097738,0.37232,-11.1,-41.88,-2.22
2.5198,8.0224,-4.9987,0.059865,0.22358,0.37935,-11.34,-41.64,-2.16
2.438,7.7091,-4.9306,0.050396,0.49847,0.42577,-11.52,-41.64,-2.04
2.4517,6.9328,-4.8897,0.027489,0.75533,0.49052,-11.88,-41.46,-1.68
2.3699,6.4424,-4.7944,0.0030543,1.0947,0.55955,-12.06,-41.4,-1.44
2.5334,6.2926,-4.4947,-0.079107,1.5424,0.68478,-12.3,-41.28,-1.5
2.9011,6.1836,-4.1133,-0.15485,1.4169,1.0107,-12.48,-41.22,-1.56
3.5413,5.7069,-3.2144,-0.089186,0.3766,1.2633,-13.14,-40.98,-1.68
3.4323,5.7205,-2.5198,0.059865,-0.97647,1.6545,-13.56,-40.74,-1.62
2.6287,4.9987,-3.2961,0.41783,-2.624,2.1881,-14.46,-40.14,-1.86
0.77636,4.6445,-3.9499,0.49724,-2.3909,2.5647,-14.76,-39.72,-1.8
-0.1362,4.3177,-4.0589,0.47586,-1.2462,2.9001,-15.36,-39.36,-1.68
0.69464,3.4323,-3.514,0.44318,-0.0064141,3.1563,-16.56,-38.52,-1.44
2.0294,2.8467,-3.1735,0.43524,0.78741,3.3756,-17.28,-38.22,-1.14
2.833,2.547,-3.2144,0.51862,1.0479,3.5558,-18.12,-37.56,-1.08
4.3994,1.5663,-2.9692,0.60537,1.0806,3.9101,-20.28,-36.18,-0.9
5.1621,1.076,-2.7649,0.65546,1.0852,4.1753,-21.36,-35.28,-0.96
6.4697,0.01362,-2.4789,0.6408,1.1857,4.2901,-22.62,-34.26,-0.78
7.6138,-0.46309,-2.4789,0.6295,1.1655,4.5821,-24.84,-31.92,-0.42
8.9758,-0.85808,-2.5879,0.70799,0.72754,4.6924,-26.04,-30.48,-0.06
10.351,-1.4438,-2.5198,0.8656,0.082161,4.7437,-28.38,-27.42,0.12
11.046,-2.0431,-2.3427,1.1206,-0.55925,4.758,-29.52,-25.56,0.06
10.924,-2.9011,-2.6151,1.3494,-0.79138,4.6594,-30.72,-23.58,-0.06
9.7113,-3.2825,-2.9556,1.6878,-1.0293,4.3848,-32.88,-19.32,-0.48
8.5263,-3.7047,-3.2553,1.9566,-0.82375,4.1982,-33.78,-17.1,-0.78
9.0575,-4.2495,-3.4732,2.1515,-0.38943,4.0195,-34.62,-14.7,-1.26
10.433,-6.6059,-4.0725,2.24,-0.017715,3.7764,-36.06,-9.66,-2.22
9.7658,-6.5922,-4.0725,2.2428,0.22358,3.5467,-36.72,-7.14,-2.82
9.1937,-7.2733,-4.0452,2.3075,0.33414,3.4633,-37.56,-4.62,-3.42
9.6568,-8.1858,-4.3858,2.3598,0.57055,3.3283,-39.0,0.6,-4.68
10.229,-9.4253,-4.6854,2.2761,1.0186,3.0949,-39.54,3.18,-4.92
10.202,-10.161,-5.0395,2.087,1.2398,2.9407,-40.02,5.52,-5.4
10.025,-10.733,-5.1213,1.8738,1.3033,2.7141,-40.32,10.32,-6.06
10.324,-10.937,-5.0123,1.6909,1.2385,2.4309,-40.08,12.36,-6.18
10.447,-11.577,-6.4152,1.4035,0.97189,2.1118,-39.18,16.14,-6.84
7.8317,-10.896,-5.8976,0.85796,1.0837,1.6515,-38.46,17.76,-7.26
6.5378,-10.787,-5.8704,0.081856,2.5611,1.2544,-37.74,19.26,-7.62
8.6898,-10.311,-3.8954,-0.64782,3.2858,1.0507,-35.88,21.72,-8.4
9.1665,-9.1393,-3.1054,-0.9389,2.8582,0.99143,-34.86,22.62,-8.76
8.3765,-8.322,-1.9068,-0.956,2.1008,0.96608,-33.66,23.58,-9.06
7.6955,-8.2676,-1.3484,-0.82406,0.99602,0.90897,-30.66,25.08,-9.36
7.1234,-8.1586,-1.1169,-0.67898,0.63408,0.78191,-28.98,25.5,-9.72
6.7421,-8.1313,-0.88532,-0.50916,0.45173,0.67348,-27.3,26.04,-10.2
6.6467,-8.3357,-1.1305,-0.30971,0.10507,0.57879,-24.24,26.82,-11.22
6.5514,-8.54,-1.2939,-0.093157,-0.38943,0.50152,-22.86,27.12,-11.58
6.1836,-8.6625,-1.7706,0.19578,-0.93218,0.3656,-20.94,27.72,-12.54
4.9033,-9.0439,-1.8387,0.26481,-0.87262,0.26237,-20.1,28.08,-12.84
4.5901,-9.2482,-1.8932,0.23976,-0.63805,0.15516,-19.32,28.2,-12.9
4.4675,-9.2891,-1.9341,0.19364,-0.39798,0.053145,-18.72,28.5,-13.14
4.3994,-9.2482,-2.152,0.10996,-0.21716,-0.0085521,-17.7,28.92,-13.32
4.3177,-9.221,-2.152,0.026267,-0.079412,-0.058338,-17.22,29.22,-13.26
4.3994,-9.0984,-1.866,-0.047342,-0.11881,-0.071166,-16.5,29.52,-13.26
4.5764,-8.8532,-1.7298,-0.039706,-0.24618,-0.069028,-16.38,29.64,-13.2
4.7671,-8.8668,-1.6344,-0.037874,-0.31979,-0.07422,-16.32,29.7,-13.14
4.7535,-8.9077,-1.471,0.0073304,-0.48014,-0.10354,-16.32,29.76,-13.08
4.4539,-8.9622,-1.3212,0.048564,-0.57238,-0.1744,-16.44,29.76,-12.9
4.1542,-8.9213,-1.3484,0.050396,-0.48258,-0.23457,-16.62,29.52,-12.9
4.2087,-9.0031,-1.471,0.066279,-0.31154,-0.30055,-16.68,29.4,-12.66
4.1678,-9.0848,-1.58,0.049786,-0.054367,-0.3488,-16.98,29.22,-12.66
4.304,-8.9758,-1.58,0.038179,0.063225,-0.36835,-17.1,29.16,-12.66
4.3721,-8.9213,-1.5119,0.032376,0.083383,-0.354,-17.28,29.16,-12.48
4.5492,-8.8396,-1.6072,0.033598,0.10018,-0.34728,-17.76,28.98,-12.24
4.8488,-8.5672,-1.4438,0.01069,0.34117,-0.42425,-18.12,28.92,-12.18
5.5162,-8.3629,-1.1577,0.0045815,0.4273,-0.44715,-18.6,28.68,-11.94
5.5162,-8.3493,-1.0079,0.048869,0.12095,-0.38393,-18.78,28.5,-12.0
5.3119,-8.1858,-1.076,0.10049,-0.058032,-0.40042,-19.26,28.32,-12.0
5.1894,-7.927,-1.0215,0.11851,-0.15363,-0.37538,-19.38,28.26,-11.82
4.9714,-7.7772,-0.89894,0.12095,-0.15455,-0.30635,-19.44,28.14,-11.7
4.9033,-7.8045,-0.96704,0.11729,-0.11057,-0.2303,-19.56,28.2,-11.58
4.5764,-7.7636,-1.3076,0.084299,-0.094684,-0.12859,-19.86,27.96,-11.64
4.4266,-7.5593,-1.2122,0.033903,-0.016188,0.0024435,-19.98,27.66,-11.46
4.6718,-7.7772,-1.0896,0.036041,0.024435,0.073609,-20.34,27.48,-11.76
5.0123,-7.927,-1.0624,0.043371,0.000916,0.11332,-20.46,27.42,-11.7
5.1894,-8.2131,-1.0896,0.064141,-0.059559,0.12614,-20.46,27.24,-11.7
5.3392,-8.5127,-1.0079,0.087965,-0.11973,0.11423,-20.52,27.0,-11.7
5.2983,-8.7443,-1.0896,0.12065,-0.1127,0.072388,-20.7,26.88,-11.7
5.2847,-8.9349,-1.3212,0.099571,-0.063225,0.0012217,-20.7,26.88,-11.76
5.0668,-8.826,-1.362,0.081245,-0.044899,-0.02138,-20.7,26.88,-11.76
5.0668,-8.826,-1.362,0.044288,0.025351,-0.04612,-20.76,26.58,-11.7
5.1894,-8.7306,-1.4846,0.0097738,0.050702,-0.043371,-20.88,26.58,-11.88
5.1349,-8.5127,-1.4982,-0.01069,0.074831,-0.030543,-20.88,26.52,-12.0
5.1621,-8.3357,-1.3212,-0.042761,0.068111,-0.031154,-20.76,26.52,-11.88
5.1621,-8.145,-1.1441,-0.058032,0.036346,-0.019853,-20.58,26.76,-11.82
5.1757,-8.0632,-1.1577,-0.055589,-0.0094684,-0.0097738,-20.52,26.64,-11.82
5.1349,-7.8998,-1.0896,-0.045815,-0.014355,0.013439,-20.46,26.7,-12.06
5.1894,-7.7908,-1.0624,-0.052534,-0.0076358,0.03207,-20.28,26.46,-12.36
5.3392,-7.7908,-1.0215,-0.060476,0.0067195,0.06353,-20.1,26.58,-12.42
5.4754,-7.9134,-1.0351,-0.053451,0.0039706,0.084299,-19.98,26.82,-12.6
5.6116,-7.8317,-0.83084,-0.079718,0.014355,0.10079,-19.68,26.64,-12.36
5.6933,-7.9679,-0.83084,-0.094379,0.037874,0.14355,-19.62,26.58,-12.36
5.4345,-7.9815,-0.92618,-0.089186,-0.07758,0.18937,-19.68,26.58,-12.42
5.2575,-8.036,-0.98067,-0.083383,-0.11637,0.18784,-19.8,26.46,-12.54
4.9169,-8.1722,-1.3893,-0.096211,-0.07758,0.17959,-19.86,26.46,-12.9
4.7399,-8.2812,-1.5663,-0.13561,0.045509,0.16371,-19.86,26.4,-12.9
4.6582,-8.3629,-1.7162,-0.20647,0.18357,0.14325,-20.1,26.58,-12.54
4.5764,-8.2676,-1.7979,-0.30085,0.30391,0.16188,-20.16,26.46,-12.3
4.6037,-8.2131,-1.7162,-0.46792,0.43371,0.22633,-20.28,26.52,-12.12
4.4675,-8.1313,-1.5119,-0.56566,0.52473,0.26939,-20.34,26.58,-12.3
4.5083,-7.927,-1.4982,-0.63897,0.60598,0.30604,-20.34,26.76,-12.24
4.4402,-7.4503,-1.1986,-0.67409,0.67073,0.35064,-20.16,27.0,-12.3
4.4811,-7.464,-1.2258,-0.64874,0.72143,0.41966,-19.86,27.24,-12.0
4.6037,-7.3958,-1.2258,-0.59773,0.69914,0.52351,-19.8,27.3,-11.94
4.8625,-7.6274,-1.2803,-0.4554,0.49327,0.73548,-19.56,27.54,-11.76
5.1621,-7.9951,-1.2667,-0.33903,0.23579,0.8714,-18.96,27.78,-11.88
5.2438,-8.1586,-1.3348,-0.19242,-0.071166,0.96333,-18.72,27.78,-11.94
5.5162,-8.7987,-1.58,-0.047953,-0.34972,1.0201,-18.3,28.14,-12.18
5.775,-9.3572,-1.5527,0.099571,-0.6744,1.0012,-17.76,28.62,-12.18
5.993,-10.052,-1.9341,0.24709,-1.0467,0.88301,-17.28,29.1,-12.3
5.6116,-10.392,-2.3836,0.34392,-1.4032,0.69364,-17.1,29.28,-12.42
4.4675,-10.801,-2.9556,0.24404,-1.3317,0.24893,-16.74,29.7,-12.36
3.9908,-10.869,-2.8194,0.12981,-1.3002,-0.081856,-16.38,30.06,-12.36
3.5413,-10.188,-2.3155,0.041844,-1.4087,-0.38149,-15.96,30.48,-12.18
3.3778,-9.9837,-2.0567,0.010385,-1.5269,-0.59437,-15.96,30.72,-12.12
3.1191,-9.6432,-1.9341,0.011301,-1.4682,-0.71929,-16.2,31.08,-12.0
2.6287,-9.1256,-1.9613,-0.0058032,-1.1558,-0.78343,-16.44,31.26,-11.64
2.4517,-8.9486,-2.0022,-0.058643,-0.31001,-0.71044,-16.8,31.38,-11.34
2.547,-8.8668,-1.866,-0.12401,0.16982,-0.60903,-17.1,31.32,-11.28
3.0918,-8.4719,-1.6617,-0.1628,0.35277,-0.45326,-17.58,31.26,-10.92
3.4868,-8.2812,-1.4301,-0.17898,0.28191,-0.29352,-18.24,31.08,-10.56
3.3778,-8.2812,-1.4846,-0.17471,0.081551,-0.13103,-18.84,31.26,-10.32
3.3642,-8.322,-1.4846,-0.16554,-0.0281,-0.023213,-19.26,31.38,-10.32
3.3778,-8.4582,-1.8387,-0.13744,0.002138,0.06689,-19.74,31.2,-10.02
3.4187,-8.826,-1.757,-0.04948,0.10599,0.12737,-19.98,31.32,-9.9
3.6775,-8.8941,-1.6208,0.018326,0.14691,0.12767,-20.22,31.38,-9.84
3.8682,-9.1256,-1.5119,0.061392,0.065973,0.12889,-20.28,31.38,-9.78
3.7184,-9.1393,-1.7162,0.09896,-0.045204,0.12217,-20.46,31.5,-9.9
3.732,-9.0848,-1.866,0.1295,-0.076358,0.10415,-20.52,31.38,-10.02
3.5549,-9.0848,-1.975,0.14325,-0.002138,0.085521,-20.34,31.38,-9.9
3.5549,-9.0303,-2.0703,0.11637,0.084299,0.10415,-20.28,31.26,-10.02
3.623,-9.0303,-2.1112,0.1014,0.14203,0.13256,-20.28,31.14,-9.84
3.732,-8.8396,-2.1656,0.079718,0.17226,0.16463,-20.34,31.14,-10.02
3.8273,-8.7715,-2.2746,0.042761,0.16402,0.20403,-20.22,31.08,-10.2
3.7865,-8.826,-2.3291,0.025656,0.15699,0.24251,-20.16,31.02,-10.38
3.8954,-8.8941,-2.3427,-0.0088575,0.19945,0.25534,-20.22,30.96,-10.5
4.0589,-8.9758,-2.4925,-0.057727,0.26359,0.25198,-20.16,31.02,-10.5
4.2632,-8.9349,-2.2882,-0.080023,0.24679,0.24801,-19.92,30.9,-10.62
4.3313,-8.9486,-2.2746,-0.084605,0.17379,0.22663,-19.98,30.9,-10.74
4.3177,-8.8941,-2.2065,-0.087965,0.069333,0.20647,-19.62,31.08,-10.98
4.2904,-8.8668,-2.1248,-0.070555,-0.023824,0.17685,-19.44,31.32,-11.1
4.1814,-8.8805,-2.1112,-0.068417,-0.075747,0.14325,-19.38,31.32,-11.34
4.1542,-8.8532,-1.8932,-0.061392,-0.096517,0.097433,-19.14,31.44,-11.46
4.0861,-8.8668,-1.8524,-0.074526,-0.073915,0.06689,-18.84,31.68,-11.58
4.0589,-8.8396,-1.8796,-0.075136,-0.039401,0.041844,-18.72,31.56,-11.7
4.0861,-8.7715,-1.7706,-0.079412,-0.018326,0.018326,-18.54,31.5,-11.52
4.0997,-8.7579,-1.7843,-0.088881,-0.01405,-0.0054978,-18.6,31.56,-11.52
4.0316,-8.8124,-1.7706,-0.085521,-0.011301,-0.018021,-18.42,31.62,-11.58
4.0044,-8.7851,-1.7025,-0.075136,-0.045204,-0.043371,-18.3,31.5,-11.52
3.9908,-8.826,-1.4165,-0.073915,-0.12981,-0.048258,-18.42,31.62,-11.4
3.9635,-8.9894,-1.6889,-0.13714,-0.23763,-0.075442,-18.18,31.5,-11.16
3.7728,-9.2482,-2.2201,-0.25443,-0.25351,-0.094073,-18.0,31.5,-10.98
3.514,-8.9622,-2.8467,-0.36744,0.0012217,-0.12523,-18.24,31.44,-10.8
3.732,-8.6625,-2.8603,-0.36224,0.20128,-0.074831,-18.3,31.44,-10.68
3.8546,-8.7306,-2.7922,-0.20128,0.2364,-0.099571,-18.48,31.44,-10.74
3.8818,-8.717,-2.7241,-0.15211,0.18631,-0.076664,-18.48,31.5,-10.56
3.9363,-8.7443,-2.6015,-0.1127,0.084299,-0.066279,-18.6,31.56,-10.5
3.8954,-8.6898,-2.2474,-0.065973,-0.094073,-0.058643,-18.78,31.5,-10.44
3.5822,-8.7715,-2.1656,-0.027184,-0.19334,-0.051007,-18.84,31.38,-10.38
3.5277,-8.826,-2.1384,-0.016188,-0.16585,-0.036652,-18.96,31.38,-10.2
3.5413,-8.7306,-2.152,-0.032376,-0.053451,-0.019853,-19.14,31.32,-10.08
3.5549,-8.7034,-2.0022,-0.039095,0.022907,-0.000916,-19.14,31.44,-10.02
3.623,-8.7987,-1.8932,-0.020464,0.074526,0.014661,-19.14,31.5,-9.84
3.8409,-8.7306,-1.58,0.018937,0.065668,0.044593,-19.14,31.44,-9.66
3.7865,-8.7987,-1.9613,0.024129,0.011912,0.05284,-19.14,31.38,-9.66
3.7456,-8.8668,-2.0703,0.025045,-0.023824,0.063225,-19.2,31.26,-9.54
3.623,-8.8124,-2.2065,0.034819,0.0054978,0.073915,-19.38,31.26,-9.42
3.8001,-8.8668,-2.3427,0.040623,0.091019,0.059865,-19.38,31.44,-9.6
3.732,-8.8805,-2.2882,0.040012,0.0956,0.057727,-19.44,31.56,-9.54
3.9227,-8.9213,-2.3836,0.05284,0.065973,0.050396,-19.32,31.68,-9.66
3.8682,-8.9622,-2.3427,0.04948,0.031765,0.047647,-19.26,31.68,-9.48
3.8273,-8.8805,-2.3155,0.045815,0.009163,0.047342,-19.32,31.44,-9.84
3.8273,-8.8124,-2.2882,0.043677,-0.0042761,0.044288,-19.32,31.5,-9.96
3.8682,-8.8124,-2.2337,0.027184,-0.000611,0.039095,-19.2,31.44,-10.08
3.8273,-8.7987,-2.1793,0.0079412,0.007025,0.037263,-19.2,31.74,-10.32
3.8273,-8.8668,-2.0839,-0.0045815,0.017104,0.026573,-19.08,31.68,-10.32
3.8682,-8.8805,-2.1112,-0.030543,0.028711,0.020464,-18.9,31.56,-10.5
3.909,-8.8941,-2.1384,-0.035125,0.041233,0.021991,-18.84,31.44,-10.38
3.8818,-8.7851,-2.1248,-0.059559,0.05284,0.024129,-18.96,31.44,-10.56
3.9363,-8.8396,-2.0839,-0.044288,0.036652,0.027184,-18.84,31.44,-10.5
3.8682,-8.7579,-2.152,-0.032681,0.0094684,0.033903,-18.72,31.38,-10.62
3.9363,-8.826,-2.1929,-0.038485,-0.016799,0.027184,-18.6,31.5,-10.62
3.8546,-8.9077,-2.1929,-0.044288,-0.0088575,0.023824,-18.48,31.5,-10.56
3.8682,-8.8668,-2.0975,-0.060476,0.028405,0.015577,-18.54,31.56,-10.5
3.8682,-8.8532,-2.1929,-0.061087,0.057727,0.011301,-18.54,31.5,-10.44
3.9227,-8.826,-2.0839,-0.053451,0.040623,0.0085521,-18.78,31.38,-10.44
3.9227,-8.7987,-2.1384,-0.042761,0.023213,0.0042761,-18.54,31.32,-10.38
3.8682,-8.7851,-2.1248,-0.040623,0.01741,-0.0012217,-18.78,31.2,-10.44
3.8409,-8.7987,-2.0294,-0.01741,0.0051924,0.0039706,-18.78,31.26,-10.38
3.8954,-8.826,-2.0703,-0.01741,-0.0030543,0.0085521,-18.84,31.14,-10.62
3.7865,-8.7987,-2.0975,-0.0027489,-0.018631,0.016799,-18.84,31.08,-10.56
3.8954,-8.826,-2.1384,0.0036652,-0.02138,0.016493,-18.84,31.08,-10.56
3.8818,-8.7987,-2.0703,-0.002138,-0.012828,0.020464,-18.9,31.14,-10.38
3.8546,-8.8396,-2.152,-0.01405,-0.0073304,0.019853,-18.84,31.02,-10.44
3.8137,-8.7987,-2.1112,-0.017104,-0.0079412,0.017715,-18.72,31.08,-10.44
3.909,-8.8668,-2.1248,-0.020769,-0.015577,0.012828,-18.6,31.14,-10.44
3.8682,-8.9622,-2.1384,-0.018631,-0.014355,0.013134,-18.6,31.14,-10.44
3.8409,-8.9077,-2.1384,-0.026878,-0.0082467,0.017104,-18.72,31.2,-10.5
3.7728,-8.7306,-2.1248,-0.037263,0.0018326,0.019242,-18.48,31.32,-10.5
3.8682,-8.7987,-2.0975,-0.043066,0.01069,0.020769,-18.48,31.32,-10.62
3.9227,-8.8532,-2.0431,-0.04612,0.0064141,0.019242,-18.3,31.44,-10.56
3.8273,-8.826,-2.0703,-0.054062,0.012523,0.015272,-18.48,31.5,-10.5
3.8001,-8.826,-2.0022,-0.049786,0.019853,0.015882,-18.66,31.62,-10.5
3.8682,-8.8805,-2.0294,-0.054672,0.017104,0.019548,-18.72,31.56,-10.5
3.8954,-8.8668,-2.0567,-0.044593,0.010996,0.015882,-18.72,31.62,-10.74
3.8409,-8.9349,-2.0567,-0.03879,0.002138,0.015882,-18.78,31.68,-10.74
3.8546,-8.826,-2.0567,-0.033598,-0.0018326,0.027489,-18.96,31.56,-10.8
3.8273,-8.8396,-2.0022,-0.039401,-0.0033598,0.027489,-18.9,31.68,-10.8
3.8546,-8.8396,-2.0022,-0.031765,-0.0036652,0.018326,-18.9,31.68,-10.86
3.8818,-8.8396,-2.0158,-0.030849,-0.0027489,0.022907,-18.9,31.68,-10.74
3.8682,-8.8124,-2.0703,-0.033598,0.000305,0.019548,-19.08,31.74,-10.86
3.8001,-8.7851,-2.1656,-0.025351,-0.0012217,0.013439,-19.08,31.8,-10.86
3.8546,-8.7987,-2.2065,-0.027794,0.0012217,0.015882,-19.2,31.8,-10.92
3.8682,-8.9213,-2.152,-0.029322,0.0018326,0.021075,-19.32,31.8,-11.28
3.8001,-8.826,-2.1929,-0.031154,0.0015272,0.017104,-19.2,31.74,-11.28
3.8273,-8.8941,-2.2065,-0.032987,0.0033598,0.020159,-19.08,31.8,-11.34
3.8682,-8.8532,-2.2201,-0.041844,-0.000916,0.014966,-19.08,31.68,-11.46
3.9227,-8.826,-2.152,-0.034819,-0.0097738,0.0054978,-19.14,31.8,-11.22
3.8546,-8.8668,-2.1384,-0.023518,-0.01405,0.017104,-19.14,31.86,-11.1
3.8273,-8.8805,-2.0839,-0.02474,-0.017715,0.0079412,-19.26,31.98,-11.1
3.8001,-8.826,-2.0703,-0.032987,-0.017104,0.010996,-19.32,31.92,-10.98
3.8001,-8.8668,-2.0431,-0.034819,-0.011301,0.014966,-19.38,31.86,-10.92
3.8137,-8.7306,-2.0839,-0.029932,-0.009163,0.016799,-19.26,31.68,-10.8
3.8273,-8.826,-2.0567,-0.034819,0.0012217,0.016493,-19.26,31.68,-10.92
3.8409,-8.7987,-2.0839,-0.034208,0.0024435,0.018631,-19.32,31.56,-10.68
3.8682,-8.7987,-2.1384,-0.032987,0.011301,0.021686,-19.26,31.5,-10.62
3.8546,-8.8124,-2.0839,-0.032376,0.0073304,0.021991,-19.26,31.38,-10.38
3.8409,-8.7987,-2.1112,-0.037263,0.0088575,0.013744,-19.38,31.32,-10.38
3.8546,-8.7851,-2.0703,-0.036041,0.012523,0.015882,-19.2,31.56,-10.32
3.8546,-8.7987,-2.0975,-0.028711,0.000611,0.0094684,-19.14,31.5,-10.5
3.8546,-8.8941,-2.0975,-0.030849,0.0045815,0.012217,-19.14,31.38,-10.62
3.8682,-9.0031,-2.1384,-0.035125,0.012828,0.0085521,-19.14,31.38,-10.62
3.8954,-8.7851,-2.152,-0.039706,0.019853,0.019853,-18.96,31.38,-10.62
3.8682,-8.7306,-2.152,-0.03543,0.01741,0.019242,-18.96,31.44,-10.74
3.8682,-8.7987,-2.1384,-0.027489,-0.007025,0.0064141,-18.96,31.5,-10.8
3.8954,-8.8124,-2.0839,-0.0281,-0.0076358,0.0033598,-18.9,31.32,-10.86
3.8001,-8.8668,-2.0839,-0.034514,0.0042761,0.0082467,-18.9,31.38,-11.04
3.8546,-8.8124,-2.0839,-0.036652,0.017104,0.01069,-18.84,31.5,-10.98
3.8682,-8.826,-2.0975,-0.041233,0.0048869,0.0085521,-18.78,31.5,-10.86
3.8954,-8.8396,-2.0839,-0.030238,0.0033598,0.010996,-18.66,31.56,-10.98
3.8546,-8.8668,-2.1248,-0.034514,0.0058032,0.01069,-18.84,31.44,-10.98
3.8001,-8.8396,-2.152,-0.025656,0.010079,0.0085521,-18.78,31.5,-10.86
3.8001,-8.8668,-2.1384,-0.03146,0.0079412,0.009163,-18.78,31.5,-10.8
3.8001,-8.8396,-2.0294,-0.028405,0.0064141,0.0079412,-18.78,31.56,-10.8
3.8546,-8.826,-2.0839,-0.030238,0.0058032,0.010385,-18.9,31.38,-10.8
3.8273,-8.826,-2.0839,-0.047342,0.016799,0.012828,-18.84,31.38,-10.74
3.8273,-8.8941,-2.0567,-0.042761,0.023518,0.0094684,-18.96,31.26,-10.86
3.8546,-8.8396,-2.0294,-0.047342,0.027489,0.01069,-18.84,31.26,-10.8
3.8546,-8.8532,-2.1248,-0.043677,0.027489,0.011606,-18.84,31.26,-10.74
3.8954,-8.8668,-2.1112,-0.047342,0.032376,0.013439,-18.9,31.2,-10.68
3.8954,-8.8668,-2.0975,-0.039401,0.033903,0.018937,-18.84,31.26,-10.98
3.8682,-8.8668,-2.0567,-0.036041,0.027489,0.017715,-18.84,31.26,-10.86
3.8682,-8.826,-2.0839,-0.037874,0.03146,0.021075,-18.84,31.32,-10.74
3.9499,-8.8805,-2.1384,-0.034819,0.021075,0.014355,-18.9,31.14,-10.92
3.9363,-8.8532,-2.1248,-0.038179,0.025656,0.017104,-18.84,31.14,-10.98
3.8954,-8.8668,-2.0567,-0.034819,0.022907,0.026573,-18.9,30.96,-10.98
3.8682,-8.826,-2.0839,-0.044899,0.023824,0.027489,-18.78,31.08,-10.92
3.9499,-8.826,-2.0975,-0.033292,0.017104,0.016493,-18.84,31.08,-10.98
3.8818,-8.826,-2.0703,-0.040012,0.01741,0.020159,-18.72,31.2,-10.86
3.9227,-8.8396,-2.1248,-0.040623,0.018631,0.025656,-18.84,31.2,-10.92
3.9227,-8.8124,-2.1248,-0.032681,0.0067195,0.022907,-18.72,31.32,-10.86
3.8954,-8.8124,-2.152,-0.030238,0.0051924,0.022907,-18.66,31.14,-10.98
3.9771,-8.7715,-2.0431,-0.031154,-0.0061087,0.015577,-18.78,31.14,-10.68
3.9363,-8.8124,-2.1112,-0.020769,-0.018326,0.017104,-18.72,31.14,-10.8
3.8818,-8.8805,-2.1112,-0.027794,-0.018937,0.021686,-18.78,31.14,-10.98
3.8682,-8.8941,-2.1793,-0.023824,-0.014966,0.016188,-18.72,31.2,-11.04
3.8954,-8.7987,-2.0703,-0.029932,-0.014355,0.021991,-18.78,31.32,-10.98
3.9363,-8.7987,-2.0567,-0.024129,-0.027489,0.021991,-18.66,31.44,-10.92
3.8818,-8.8124,-2.0703,-0.020159,-0.043982,0.016493,-18.66,31.26,-11.04
3.8818,-8.826,-2.0158,-0.032376,-0.032987,0.014661,-18.6,31.26,-10.98
3.8682,-8.8124,-2.152,-0.029322,-0.023824,0.014355,-18.6,31.26,-10.98
3.8273,-8.8532,-2.152,-0.028405,-0.020464,0.0082467,-18.66,31.26,-10.92
3.8682,-8.8668,-2.0158,-0.027794,-0.029322,0.018326,-18.78,31.14,-10.92
3.8273,-8.8396,-2.0703,-0.023213,-0.030543,0.018631,-18.66,31.2,-10.86
3.9227,-8.8532,-2.1248,-0.020159,-0.020769,0.01069,-18.66,31.2,-11.04
3.8137,-8.8396,-2.0975,-0.027489,-0.019548,0.012217,-18.78,31.32,-11.04
3.8682,-8.8668,-2.0839,-0.028711,-0.020159,0.015272,-18.78,31.32,-10.92
3.8409,-8.8396,-2.1248,-0.030849,-0.014355,0.011301,-18.78,31.26,-10.86
3.8409,-8.8668,-2.0839,-0.018937,-0.025351,0.016493,-18.72,31.02,-10.86
3.8273,-8.826,-2.1248,-0.023518,-0.020159,0.01069,-18.9,30.96,-10.86
3.8546,-8.8532,-2.0431,-0.0281,-0.014966,0.013134,-18.78,31.08,-10.74
3.8273,-8.7443,-2.1248,-0.033903,-0.0097738,0.013744,-18.78,31.14,-10.86
3.8682,-8.8805,-2.1248,-0.033903,-0.0064141,0.012828,-18.9,30.96,-10.86
3.8682,-8.8396,-2.152,-0.032987,-0.0061087,0.017715,-18.72,31.08,-10.86
3.8818,-8.8668,-2.152,-0.029016,-0.012523,0.016799,-18.78,31.14,-10.98
3.8818,-8.8532,-2.0839,-0.025962,-0.013134,0.010996,-19.02,31.08,-10.8
3.8409,-8.7715,-2.0839,-0.028405,-0.013744,0.010385,-18.96,31.02,-10.74
3.8001,-8.8668,-2.1248,-0.028711,-0.011912,0.016493,-18.96,30.78,-10.62
3.8818,-8.826,-2.0975,-0.034514,-0.0064141,0.021686,-18.96,30.72,-10.62
3.8273,-8.8668,-2.1248,-0.027794,-0.0073304,0.014355,-19.08,30.78,-10.74
3.8546,-8.7987,-2.1248,-0.034208,-0.0088575,0.021991,-19.08,30.9,-10.74
3.8001,-8.826,-2.1248,-0.041233,-0.0030543,0.013439,-18.96,30.96,-10.68
3.8409,-8.8668,-2.0839,-0.036957,0.000611,0.011912,-19.08,30.96,-10.68
3.8409,-8.7715,-2.1384,-0.032681,0.0051924,0.016493,-19.02,30.9,-10.62
3.8273,-8.8532,-2.0294,-0.028711,0.0067195,0.018937,-19.08,31.2,-10.62
3.8546,-8.8668,-2.0839,-0.026573,0.0012217,0.014966,-19.08,31.26,-10.56
3.8001,-8.7987,-2.0703,-0.021075,-0.0079412,0.0097738,-19.08,31.14,-10.5
3.8954,-8.8532,-2.1248,-0.018326,-0.0039706,0.01741,-18.96,31.08,-10.56
3.8954,-8.9077,-2.1248,-0.030543,0.0027489,0.019548,-19.02,31.14,-10.56
3.8546,-8.8941,-2.1248,-0.028711,0.0073304,0.021991,-19.08,31.14,-10.68
3.8954,-8.8396,-2.0703,-0.02474,0.007025,0.02474,-19.02,31.2,-10.56
3.8682,-8.7715,-2.0975,-0.025351,0.007025,0.021991,-18.96,31.14,-10.5
3.8682,-8.8124,-2.1384,-0.026267,-0.015882,0.017104,-18.84,31.14,-10.5
3.8273,-8.8668,-2.2337,-0.027489,-0.0088575,0.015577,-19.02,31.2,-10.44
3.8273,-8.8396,-2.152,-0.035736,-0.0015272,0.014661,-19.02,31.26,-10.62
3.8001,-8.8532,-2.0839,-0.034819,0.007025,0.010385,-19.08,31.32,-10.68
3.8954,-8.826,-2.152,-0.038485,0.0012217,0.01069,-19.02,31.2,-10.68
3.909,-8.8668,-2.0839,-0.030543,0.000916,0.010996,-19.02,30.96,-10.68
3.8954,-8.8124,-2.0294,-0.029627,0.0042761,0.0051924,-19.08,31.08,-10.68
3.8546,-8.7851,-2.0294,-0.021686,-0.0045815,0.012828,-18.96,31.26,-10.8
3.8137,-8.826,-2.1112,-0.025045,-0.0048869,0.017104,-18.9,31.32,-10.92
3.8137,-8.826,-2.0703,-0.019548,0.0024435,0.012523,-18.9,31.26,-10.8
3.8682,-8.826,-2.1248,-0.029627,0.0064141,0.01405,-19.02,31.32,-10.86
3.8954,-8.8805,-2.1384,-0.03207,0.013439,0.0094684,-19.14,31.5,-10.98
3.8954,-8.7987,-2.0975,-0.036652,0.012523,0.0082467,-19.14,31.44,-10.92
3.8682,-8.7987,-2.1384,-0.03543,0.025045,0.0039706,-18.96,31.5,-10.98
3.8818,-8.8668,-2.0703,-0.047953,0.025351,0.016493,-18.9,31.5,-11.04
3.7865,-8.826,-2.0839,-0.03879,0.021991,0.014966,-18.9,31.56,-11.04
3.8273,-8.7851,-2.0294,-0.035736,0.018021,0.012217,-18.96,31.68,-11.1
3.8001,-8.7579,-2.1793,-0.053145,0.017104,0.0051924,-18.9,31.8,-11.28
3.8273,-8.7443,-2.152,-0.051924,0.017104,0.0018326,-18.9,31.74,-11.28
3.8137,-8.7443,-2.1793,-0.066279,0.025656,-0.000305,-19.08,31.74,-11.28
3.8273,-8.9077,-2.0431,-0.069944,0.031765,0.000305,-19.08,31.74,-11.1
3.9499,-9.0167,-2.1248,-0.075747,0.051313,-0.0033598,-19.02,31.86,-11.16
4.0316,-9.1256,-2.0839,-0.068722,0.04948,0.0064141,-18.96,31.74,-11.22
3.9635,-8.9758,-2.1112,-0.051618,0.032987,0.000916,-18.84,31.74,-11.16
3.8954,-8.8805,-2.0431,-0.033903,0.014966,-0.0045815,-18.9,31.86,-11.16
3.7728,-8.7034,-2.0294,-0.01405,-0.012828,-0.0045815,-19.08,31.92,-11.22
3.7728,-8.6762,-2.0567,0.0061087,-0.030849,0.013439,-19.14,31.74,-11.22
3.7184,-8.6217,-2.1248,0.012217,-0.045815,0.041233,-19.26,31.62,-11.16
3.909,-8.6762,-2.152,0.01405,-0.044593,0.057116,-19.08,31.32,-11.1
3.9635,-8.7851,-2.1793,-0.013439,-0.03207,0.048258,-19.08,31.38,-10.98
4.0044,-8.9486,-2.1929,-0.040317,-0.0036652,0.026573,-19.08,31.44,-10.92
3.9363,-8.9894,-2.0022,-0.043677,0.014661,0.01069,-19.08,31.44,-10.98
3.9635,-8.9349,-1.8796,-0.043677,0.028405,0.0024435,-19.08,31.44,-11.16
3.8954,-8.7715,-1.9477,-0.028405,0.007025,-0.0015272,-19.14,31.5,-11.1
3.8682,-8.7034,-2.1112,-0.011606,-0.01405,0.007025,-19.14,31.5,-11.04
3.8001,-8.7306,-2.0839,-0.0067195,-0.014355,0.026267,-19.2,31.56,-11.04
3.8001,-8.7579,-2.152,-0.0082467,0.0033598,0.033598,-19.32,31.44,-10.98
3.9227,-8.7987,-2.1384,-0.014661,0.000916,0.039095,-19.14,31.26,-11.04
3.9908,-8.8532,-2.1656,-0.012217,-0.0042761,0.034514,-19.14,31.26,-11.16
3.9908,-8.8532,-2.1656,-0.012217,-0.0042761,0.034514,-19.14,31.26,-11.16
3.8954,-8.8668,-2.152,-0.019242,-0.016493,0.027184,-19.02,31.5,-11.16
3.8954,-8.8668,-1.9886,-0.019242,-0.020159,0.012523,-18.9,31.44,-11.4
3.8954,-8.9349,-2.0567,-0.016493,-0.03207,0.012217,-19.02,31.44,-11.46
3.7728,-8.8124,-2.0294,-0.0076358,-0.031765,0.015272,-19.02,31.44,-11.46
3.7592,-8.7851,-2.0431,-0.011912,-0.026878,0.023518,-19.08,31.68,-11.28
3.8546,-8.8532,-2.0839,-0.012217,-0.018021,0.025962,-19.2,31.56,-11.4
3.8137,-8.8532,-2.1248,-0.026878,-0.009163,0.019853,-19.2,31.56,-11.4
3.8409,-8.8668,-2.152,-0.026878,-0.007025,0.020769,-19.14,31.5,-11.52
3.8682,-8.8668,-2.0431,-0.031765,-0.0088575,0.024129,-18.96,31.5,-11.64
3.8546,-8.8668,-2.0703,-0.03207,-0.0076358,0.016493,-19.14,31.5,-11.58
3.8954,-8.8396,-2.0975,-0.027489,0.0012217,0.018326,-19.08,31.38,-11.46
3.8818,-8.8668,-2.0158,-0.035736,-0.000916,0.023518,-19.26,31.38,-11.52
3.8954,-8.826,-2.0294,-0.026878,-0.0036652,0.020769,-19.32,31.38,-11.46
3.8409,-8.826,-2.0567,-0.028405,-0.002138,0.013744,-19.44,31.44,-11.22
3.8954,-8.8124,-2.0567,-0.029932,-0.0073304,0.021686,-19.26,31.32,-11.1
3.8409,-8.8532,-2.0022,-0.025656,-0.010996,0.013744,-19.14,31.14,-11.16
3.7865,-8.7987,-2.0703,-0.036041,-0.011606,0.01741,-19.26,30.96,-11.1
3.8409,-8.8668,-2.0567,-0.043677,-0.011606,0.018937,-19.2,31.02,-11.16
3.7728,-8.8396,-2.0567,-0.037263,-0.0082467,0.013439,-19.2,31.14,-11.1
3.8001,-8.7715,-2.0294,-0.039401,-0.007025,0.01405,-19.38,31.08,-11.04
3.8954,-8.9349,-2.0567,-0.036652,-0.0088575,0.019853,-19.26,31.2,-10.86
3.7728,-8.9622,-2.0294,-0.039095,-0.0094684,0.019853,-19.14,31.2,-10.86
3.8546,-8.8941,-2.0567,-0.04215,-0.0076358,0.023213,-19.2,31.5,-10.74
3.8001,-8.8941,-2.1384,-0.041539,-0.0094684,0.018937,-19.08,31.62,-10.74
3.7047,-8.8124,-2.0022,-0.052534,-0.0018326,0.012828,-19.02,31.56,-10.86
3.732,-8.8124,-2.0431,-0.059865,0.024129,0.018937,-19.2,31.5,-10.92
3.7728,-8.8668,-2.0839,-0.047342,0.025351,0.03543,-19.26,31.5,-10.98
3.8001,-8.7715,-2.1248,-0.040623,0.022907,0.03879,-19.26,31.62,-10.98
3.8818,-8.7715,-2.0975,-0.031154,-0.022907,0.050091,-19.02,31.5,-11.04
3.8001,-8.7715,-2.1248,-0.02138,-0.036652,0.046731,-18.96,31.44,-11.04
3.7865,-8.7851,-2.1384,-0.03207,-0.012523,0.041539,-18.84,31.5,-11.16
3.8682,-8.826,-2.1112,-0.038485,0.0048869,0.032681,-18.78,31.5,-11.04
3.8954,-8.7715,-1.9886,-0.048869,0.016188,0.031765,-18.84,31.44,-11.1
3.8818,-8.7987,-1.9886,-0.04215,0.01405,0.02138,-18.84,31.5,-11.04
3.8682,-8.7306,-2.0158,-0.040623,0.02138,0.02138,-18.78,31.5,-11.04
3.8954,-8.7715,-1.975,-0.034208,0.034514,0.013134,-18.84,31.5,-10.98
3.8682,-8.7443,-2.0294,-0.040623,0.03543,0.0048869,-18.84,31.44,-10.92
3.8682,-8.7987,-2.0567,-0.037568,0.033598,-0.0027489,-18.66,31.5,-11.1
3.9227,-8.826,-2.0431,-0.027184,0.025656,-0.0085521,-18.72,31.5,-11.04
3.8954,-8.826,-2.0703,-0.034819,0.023518,-0.01069,-18.78,31.5,-10.92
3.8546,-8.8124,-2.1112,-0.030238,0.022907,-0.019853,-19.14,31.62,-10.68
3.8546,-8.8805,-2.0703,-0.030543,0.022907,-0.023213,-19.2,31.62,-10.74
3.8546,-8.8668,-2.1793,-0.038485,0.0281,-0.029016,-19.26,31.62,-10.56
3.8273,-8.8805,-2.0294,-0.040623,0.030543,-0.020159,-19.26,31.56,-10.32
3.8137,-8.8396,-2.1248,-0.044288,0.028405,-0.019242,-19.26,31.5,-10.44
3.8409,-8.9758,-2.0703,-0.051313,0.027794,-0.019853,-19.32,31.44,-10.56
3.8001,-8.9622,-2.0975,-0.057421,0.03146,-0.014966,-19.5,31.32,-10.68
3.8273,-8.9077,-2.0567,-0.054978,0.036346,-0.0079412,-19.62,31.14,-10.8
3.8546,-8.8941,-2.1248,-0.064752,0.051007,-0.012523,-19.68,31.2,-10.86
3.8001,-8.8941,-2.0567,-0.069639,0.058948,-0.0076358,-19.8,31.14,-10.74
3.7728,-8.8805,-1.975,-0.062614,0.082161,-0.0027489,-19.68,31.2,-10.74
3.8001,-8.8941,-1.9886,-0.047953,0.086743,0.0094684,-19.62,31.14,-10.8
3.8001,-8.8805,-1.9613,-0.046426,0.0956,0.017104,-19.32,31.26,-11.1
3.8001,-8.8805,-2.0431,-0.023213,0.095906,0.026573,-19.26,31.14,-11.1
3.8682,-8.7715,-2.1384,-0.013439,0.099571,0.050702,-19.32,31.14,-11.28
4.0044,-8.7715,-2.2474,-0.013439,0.10965,0.068417,-19.2,31.14,-11.64
4.0452,-8.7034,-2.2337,-0.018021,0.10629,0.079107,-19.14,31.2,-11.7
4.0861,-8.7034,-2.2474,-0.033598,0.10629,0.080329,-19.2,31.26,-11.64
4.1133,-8.7443,-2.1793,-0.054367,0.083383,0.063225,-18.84,31.08,-11.64
4.2223,-8.8941,-2.0839,-0.04948,0.053756,0.051007,-18.72,31.14,-11.58
4.1951,-8.8668,-2.1112,-0.057727,0.010996,0.040012,-18.54,31.2,-11.7
4.1133,-8.8668,-2.0294,-0.050396,-0.0058032,0.029016,-18.54,31.26,-11.76
4.1542,-8.8124,-2.0839,-0.033903,-0.020464,0.013134,-18.6,31.14,-11.82
4.0316,-8.8532,-1.9886,-0.027489,-0.033292,0.0097738,-18.6,31.08,-11.76
3.9908,-8.8396,-1.975,-0.018631,-0.066279,-0.0012217,-18.66,30.96,-11.88
3.8001,-8.826,-2.0567,-0.023518,-0.064752,0.002138,-18.72,30.96,-11.88
3.8273,-8.7851,-1.975,-0.02474,-0.051618,0.0088575,-18.72,31.02,-11.94
3.8137,-8.7715,-1.9886,-0.022602,-0.04612,0.015272,-18.78,31.2,-12.0
3.8546,-8.8124,-1.975,-0.018631,-0.054062,0.029627,-18.96,31.2,-12.0
3.8137,-8.9758,-2.1248,-0.021991,-0.046731,0.032376,-18.9,31.26,-11.94
3.9227,-8.9622,-1.8796,-0.0281,-0.033598,0.028405,-18.96,31.2,-11.82
3.9227,-8.9349,-1.9068,-0.030543,-0.027794,0.015882,-18.9,31.32,-11.94
3.8409,-8.9213,-2.0158,-0.033598,-0.013134,0.015882,-18.9,31.32,-11.94
3.8409,-8.9349,-2.1112,-0.034819,-0.020159,0.022907,-18.9,31.32,-12.0
3.8001,-8.8668,-2.1248,-0.048258,-0.01069,0.036041,-18.9,31.38,-11.94
3.8546,-8.8668,-2.1384,-0.059559,0.014966,0.030238,-18.96,31.38,-11.88
3.8409,-8.9213,-2.0975,-0.076358,0.034819,0.027184,-18.84,31.44,-11.7
3.8273,-8.8941,-2.0839,-0.082161,0.040317,0.0281,-18.72,31.56,-11.7
3.7728,-8.8396,-2.0839,-0.080634,0.044593,0.029322,-18.6,31.44,-11.58
3.8546,-8.8941,-2.1248,-0.085521,0.046426,0.032987,-18.6,31.44,-11.4
3.8682,-8.9349,-2.0975,-0.081856,0.051924,0.029322,-18.6,31.56,-11.28
3.909,-8.8805,-2.0567,-0.07086,0.04215,0.034819,-18.6,31.86,-11.4
3.9499,-8.8532,-2.1929,-0.063225,0.025351,0.035125,-18.54,31.92,-11.4
3.9227,-8.8805,-2.1112,-0.054062,-0.000916,0.048258,-18.66,31.86,-11.4
3.9227,-8.826,-2.152,-0.04215,-0.027794,0.051924,-18.6,31.68,-11.34
3.9227,-8.8532,-2.1929,-0.03543,-0.048258,0.04948,-18.6,31.74,-11.4
3.8682,-8.8941,-2.2882,-0.025351,-0.071471,0.051618,-18.48,31.86,-11.16
3.8546,-8.7851,-2.1656,-0.016188,-0.090408,0.040623,-18.42,31.86,-11.1
3.8409,-8.7987,-2.2474,-0.022297,-0.092852,0.043066,-18.54,31.8,-11.22
3.8001,-8.7987,-2.2065,-0.026573,-0.080634,0.046731,-18.36,31.74,-11.4
3.7865,-8.7851,-2.0839,-0.02474,-0.068417,0.041233,-18.18,31.8,-11.52
3.8273,-8.8668,-1.975,-0.025045,-0.054672,0.03543,-18.18,31.62,-11.58
3.8001,-8.7987,-2.0839,-0.023824,-0.036041,0.035736,-18.06,31.5,-11.4
3.8137,-8.8396,-2.1248,-0.01069,-0.045204,0.032987,-18.06,31.32,-11.4
3.7728,-8.826,-2.1248,-0.000611,-0.050396,0.032987,-18.12,31.5,-11.4
3.8001,-8.8532,-2.0294,-0.0045815,-0.054367,0.029932,-18.0,31.44,-11.28
3.7728,-8.9213,-2.1384,0.0079412,-0.043371,0.027184,-18.0,31.62,-11.1
3.8273,-8.8941,-2.0703,0.0024435,-0.034208,0.025962,-18.06,31.5,-10.92
3.8001,-8.8668,-2.1248,0.010385,-0.026267,0.029627,-18.24,31.62,-10.98
3.732,-8.8941,-2.1248,0.007025,-0.044899,0.019548,-18.18,31.62,-11.28
3.7047,-8.9486,-2.1248,0.010996,-0.047953,0.032987,-18.18,31.68,-11.22
3.732,-8.9486,-2.2201,0.018631,-0.053756,0.037568,-18.42,31.74,-10.98
3.6911,-8.9349,-2.3291,0.029016,-0.073304,0.045815,-18.6,31.86,-10.68
3.732,-8.9213,-2.3427,0.020159,-0.096822,0.064446,-18.66,31.92,-10.8
3.732,-8.9213,-2.3155,0.014355,-0.11209,0.065973,-18.72,31.92,-10.92
3.6911,-8.8396,-2.2474,-0.0036652,-0.10354,0.061392,-18.6,31.74,-10.8
3.732,-8.8396,-2.2201,-0.036346,-0.10629,0.049786,-18.54,31.8,-10.8
3.732,-8.8396,-2.2337,-0.064446,-0.058032,0.039095,-18.6,31.8,-10.8
3.7184,-8.9622,-1.9886,-0.078802,-0.000916,0.0281,-18.66,31.8,-10.92
3.6639,-9.0031,-2.0022,-0.094684,0.04612,0.012523,-18.6,31.92,-10.98
3.7456,-9.0167,-1.9886,-0.1014,0.063225,-0.0045815,-18.42,31.74,-10.98
3.7184,-8.9349,-1.975,-0.084605,0.043677,-0.02474,-18.42,31.92,-10.68
3.7184,-8.8532,-2.0431,-0.081856,0.05284,-0.027489,-18.36,31.98,-10.74
3.6503,-8.8396,-2.0567,-0.052534,0.057116,-0.028711,-18.36,31.98,-10.68
3.6639,-8.7715,-1.9886,-0.04612,0.055589,-0.019548,-18.24,31.86,-10.74
3.6503,-8.7443,-1.975,-0.016799,0.045509,-0.014661,-18.18,31.8,-10.62
3.7047,-8.8396,-2.1384,-0.0018326,0.030849,-0.0079412,-18.12,31.8,-10.5
3.6775,-8.8124,-2.1384,0.018021,-0.030543,0.011912,-18.3,31.92,-10.68
3.5685,-8.8668,-2.2065,0.022297,-0.041233,0.024435,-18.36,31.92,-10.62
3.5685,-8.8668,-2.152,0.017104,-0.0048869,0.021991,-18.36,31.92,-10.62
3.7047,-8.8396,-2.1112,0.027489,-0.0024435,0.014661,-18.36,31.92,-10.38
3.7047,-8.9349,-2.1929,0.016493,0.0042761,0.014661,-18.36,31.98,-10.5
3.732,-9.0031,-2.2474,-0.0058032,0.0015272,0.0085521,-18.36,31.92,-10.56
3.7592,-8.8941,-2.2882,-0.010385,0.0073304,0.012523,-18.36,31.74,-10.44
3.8273,-8.8941,-2.152,-0.022297,0.000305,0.02138,-18.36,31.68,-10.44
3.732,-8.9213,-2.2065,-0.031154,0.010385,0.018021,-18.3,31.74,-10.62
3.8137,-8.8668,-2.2337,-0.036957,-0.000305,0.026573,-18.36,31.8,-10.68
3.7728,-8.8532,-2.1112,-0.032987,-0.000916,0.022297,-18.42,31.74,-10.74
3.8273,-8.8396,-2.152,-0.029016,-0.024435,0.012828,-18.54,31.74,-10.8
3.8137,-8.8396,-2.1793,-0.028711,-0.020159,0.0045815,-18.48,31.74,-10.68
3.7728,-8.9622,-2.1656,-0.053451,-0.012217,0.0015272,-18.48,31.74,-10.8
3.7728,-8.9894,-2.1656,-0.057727,0.013744,0.0051924,-18.6,31.8,-10.86
3.909,-8.8668,-2.1112,-0.061697,0.02474,-0.0033598,-18.6,31.8,-11.04
3.8546,-8.7579,-2.0294,-0.03146,-0.007025,-0.0088575,-18.6,31.8,-11.1
3.8409,-8.7579,-2.152,-0.033903,-0.039401,-0.0015272,-18.66,31.68,-11.1
3.7456,-8.7987,-2.2065,-0.019853,-0.053145,-0.0067195,-18.78,31.8,-11.16
3.7728,-8.8668,-1.9886,-0.000916,-0.047342,0.0030543,-18.66,31.8,-11.16
3.6775,-8.9077,-2.0294,0.0082467,-0.03879,-0.000305,-18.6,31.74,-11.16
3.7592,-8.9622,-1.975,0.009163,-0.032376,0.011912,-18.6,31.68,-11.04
3.7047,-8.9349,-1.9613,0.029016,-0.041539,0.016493,-18.6,31.5,-10.98
3.732,-8.8396,-1.9886,0.037263,-0.034819,0.025962,-18.48,31.68,-10.92
3.6775,-8.8941,-2.0567,0.035736,-0.041233,0.030543,-18.48,31.74,-11.16
3.6775,-8.9213,-1.9477,0.03543,-0.038485,0.039706,-18.42,31.62,-11.1
3.6775,-8.8532,-2.0022,0.015882,-0.0097738,0.047953,-18.3,31.56,-10.92
3.6775,-8.8532,-1.9886,0.0079412,0.009163,0.053145,-18.24,31.44,-10.8
3.7728,-8.9894,-2.0703,-0.0015272,0.022602,0.057421,-18.24,31.26,-11.04
3.8001,-8.9894,-2.1793,-0.015882,0.030849,0.057421,-18.3,31.32,-10.98
3.8001,-8.9894,-2.0567,-0.012217,-0.0076358,0.055589,-18.24,31.32,-11.04
3.6639,-8.9622,-2.1384,-0.025351,-0.058643,0.059559,-18.24,31.38,-11.1
3.7456,-8.9349,-2.2201,-0.031765,-0.069944,0.058338,-18.3,31.38,-11.1
3.7047,-8.9349,-2.2201,-0.040928,-0.062003,0.0562,-18.3,31.5,-11.16
3.7047,-8.9486,-2.2746,-0.042761,-0.033598,0.038485,-18.24,31.62,-11.22
3.7728,-8.8805,-2.0294,-0.035125,-0.044899,0.043982,-18.24,31.5,-11.34
3.7047,-9.0031,-2.0567,-0.026878,-0.061697,0.043066,-18.18,31.56,-11.16
3.6775,-8.9349,-1.9886,-0.036957,-0.058032,0.033598,-18.06,31.68,-11.22
3.7184,-8.9349,-2.0431,-0.036041,-0.03879,0.022602,-17.94,31.62,-11.22
3.7184,-8.9077,-2.0839,-0.039706,-0.014661,0.013744,-18.0,31.74,-11.34
3.5822,-8.8941,-1.9886,-0.031765,-0.014355,0.0085521,-18.18,31.86,-11.1
3.5958,-8.8941,-1.9341,-0.034514,-0.015882,0.0064141,-18.0,31.8,-11.1
3.5549,-8.9758,-2.0839,-0.036957,0.0045815,0.017104,-18.0,31.8,-11.04
3.6775,-8.9486,-2.0839,-0.03146,0.013744,0.020769,-17.94,31.74,-10.98
3.6911,-8.9758,-2.0975,-0.037263,0.0073304,0.028405,-17.94,31.8,-11.04
3.7047,-8.9349,-2.0703,-0.042455,0.013744,0.019548,-17.94,31.74,-11.04
3.732,-8.826,-2.0975,-0.040623,-0.000916,0.013134,-18.12,31.74,-10.98
3.732,-8.9213,-2.1112,-0.033903,0.000305,0.0036652,-18.0,31.8,-10.98
3.7047,-8.9894,-2.0294,-0.034514,0.0033598,0.013134,-18.0,31.62,-11.04
3.732,-8.8805,-2.0839,-0.032987,0.01069,0.019548,-18.18,31.5,-10.8
3.7592,-8.8941,-2.152,-0.036652,0.0039706,0.022297,-18.24,31.56,-10.98
3.732,-8.8805,-2.152,-0.027184,-0.0097738,0.0085521,-18.24,31.68,-10.86
3.6503,-8.9349,-2.1248,-0.022297,-0.014661,0.015272,-18.12,31.8,-10.98
3.6911,-8.9213,-2.0839,-0.040317,-0.0058032,0.0097738,-18.24,31.86,-10.92
3.6366,-9.0031,-2.2065,-0.03146,0.0088575,0.0076358,-18.36,31.68,-10.98
3.6503,-8.8668,-2.0839,-0.041233,0.000916,0.013744,-18.54,31.74,-11.16
3.6911,-8.8941,-2.0294,-0.042761,-0.0012217,0.014355,-18.42,31.68,-11.1
3.6094,-8.9486,-2.1248,-0.043371,-0.0045815,0.0097738,-18.54,31.8,-11.22
3.623,-8.8668,-2.0567,-0.044899,-0.0051924,0.0076358,-18.66,31.86,-11.16
3.6366,-8.8941,-2.0431,-0.047037,0.0015272,0.0058032,-18.66,31.86,-11.16
3.7047,-8.9077,-2.0703,-0.041539,0.0024435,0.0039706,-18.78,31.92,-11.16
3.6775,-8.9077,-2.0975,-0.042761,0.0082467,0.0085521,-18.66,31.86,-11.28
3.6775,-8.9622,-2.1112,-0.02474,0.007025,0.0088575,-18.72,31.92,-11.28
3.6094,-8.9622,-2.0567,-0.036041,0.01741,0.022907,-18.84,31.86,-11.52
3.6639,-8.9213,-1.9613,-0.029627,0.02138,0.013744,-18.84,31.8,-11.46
3.6366,-8.9758,-2.0839,-0.037263,0.026878,0.01741,-18.78,31.86,-11.64
3.5685,-8.9486,-2.1929,-0.034208,0.036346,0.017104,-18.66,31.98,-11.58
3.6366,-8.9486,-2.1248,-0.036957,0.026878,0.021075,-18.6,31.86,-11.46
3.7047,-8.9622,-2.1384,-0.044593,0.024129,0.020159,-18.6,31.86,-11.4
3.7456,-8.9622,-2.261,-0.04948,0.02474,0.014661,-18.6,31.62,-11.34
3.6094,-8.9213,-2.0431,-0.050091,0.032376,0.020769,-18.24,31.62,-11.16
3.6094,-8.9213,-2.0431,-0.051924,0.016493,0.010385,-18.24,31.62,-11.16
3.6503,-8.9622,-2.1248,-0.051313,0.021991,0.018326,-18.24,31.62,-11.1
3.7047,-8.8941,-2.0567,-0.04612,0.029627,0.019853,-18.24,31.68,-11.04
3.7184,-8.8941,-2.0567,-0.045509,0.023518,0.018326,-18.24,31.62,-11.04
3.7456,-8.8805,-2.0567,-0.048564,0.016799,0.024435,-18.24,31.62,-10.74
3.6775,-8.9622,-2.1112,-0.044288,0.025351,0.016799,-18.36,31.5,-10.74
3.6639,-8.8668,-2.1248,-0.040623,0.015882,0.018631,-18.36,31.5,-10.68
3.7456,-8.9349,-2.0567,-0.03146,0.013134,0.015577,-18.36,31.56,-10.68
3.7047,-8.9758,-2.0703,-0.032681,0.010996,0.015882,-18.36,31.56,-10.56
3.6775,-8.826,-2.152,-0.033292,0.011912,0.025351,-18.48,31.74,-10.68
3.6775,-8.826,-2.0975,-0.033598,0.011301,0.025045,-18.42,31.92,-10.62
3.7047,-8.9213,-2.1384,-0.036041,0.01405,0.026878,-18.66,31.86,-10.68
3.732,-8.826,-2.1793,-0.034208,0.0097738,0.017104,-18.66,32.04,-10.8
3.7184,-8.9894,-2.0431,-0.040928,0.0094684,0.013134,-18.6,32.04,-10.86
3.7728,-8.9622,-2.0567,-0.03879,0.010996,0.013744,-18.72,32.04,-10.86
3.7047,-8.9894,-2.0567,-0.043066,0.023518,0.025351,-18.66,32.22,-10.8
3.6775,-8.9349,-2.0975,-0.036346,0.024129,0.026878,-18.6,32.34,-10.92
3.7456,-8.8941,-2.1112,-0.036346,0.01741,0.025962,-18.6,32.4,-10.86
3.8137,-8.9349,-2.0839,-0.031765,-0.0033598,0.015272,-18.54,32.4,-10.86
3.732,-8.8532,-2.0703,-0.029016,-0.0030543,0.007025,-18.54,32.4,-10.8
3.6775,-8.9077,-2.2065,-0.041233,0.000305,-0.0012217,-18.6,32.28,-10.92
3.7047,-8.8941,-2.152,-0.039401,0.0012217,0.0036652,-18.72,32.16,-10.86
3.732,-8.9213,-2.0975,-0.040317,-0.0097738,0.0061087,-18.72,32.1,-10.86
3.6775,-8.9349,-2.0839,-0.036957,-0.0094684,0.0067195,-18.66,32.04,-10.86
3.6911,-8.8805,-2.1112,-0.032987,-0.013744,0.015577,-18.72,31.92,-10.86
3.8001,-8.8941,-2.0703,-0.024435,-0.016493,0.0094684,-18.78,31.86,-10.86
3.6911,-8.9486,-2.0158,-0.026267,-0.019242,0.013134,-18.54,31.86,-10.98
3.7047,-8.9349,-2.0294,-0.025962,-0.015272,0.007025,-18.72,31.74,-11.1
3.6775,-8.9349,-2.0567,-0.032681,-0.0033598,0.01741,-18.84,31.68,-10.98
3.6775,-8.9894,-2.1793,-0.032681,0.0018326,0.0079412,-18.6,31.56,-11.04
3.623,-8.8941,-2.2201,-0.031765,0.0067195,0.011606,-18.6,31.56,-11.04
3.6366,-8.9894,-2.1112,-0.03543,0.0067195,0.016188,-18.6,31.5,-11.04
3.6639,-8.9622,-2.0703,-0.035736,0.012217,0.014355,-18.6,31.68,-11.04
3.6775,-8.9077,-2.1248,-0.043982,0.023213,0.018021,-18.48,31.8,-10.98
3.7184,-8.9077,-2.1248,-0.042761,0.0281,0.020464,-18.54,31.8,-11.04
3.732,-8.826,-2.2065,-0.044593,0.021075,0.021686,-18.42,31.8,-11.22
3.6639,-8.8124,-2.0975,-0.046426,0.021686,0.012828,-18.54,31.92,-11.16
3.6366,-8.7851,-1.9886,-0.046731,0.034514,0.017715,-18.54,31.92,-11.22
3.6366,-8.7987,-2.0839,-0.037568,0.044288,0.023824,-18.54,31.8,-11.22
3.6775,-8.8941,-2.0839,-0.040317,0.045509,0.029016,-18.48,31.8,-11.1
3.7728,-8.9349,-2.0431,-0.034514,0.045815,0.029627,-18.3,31.74,-11.16
3.7047,-8.8941,-2.0022,-0.039095,0.049786,0.025045,-18.42,31.74,-11.16
3.7456,-8.9622,-2.1384,-0.050702,0.058032,0.0054978,-18.42,31.74,-11.16
3.6366,-8.8668,-2.152,-0.040317,0.067501,0.0064141,-18.42,31.86,-11.1
3.5822,-8.8668,-2.0975,-0.033292,0.060476,0.013439,-18.36,31.8,-11.04
3.7592,-8.826,-2.1112,-0.020159,0.042761,0.028711,-18.24,31.62,-11.22
3.8001,-8.9349,-2.1384,-0.000305,0.036957,0.045204,-18.18,31.56,-11.22
3.8954,-8.8396,-2.1248,-0.0094684,0.015272,0.046731,-18.18,31.56,-11.16
3.8954,-8.9349,-2.152,-0.007025,-0.029016,0.038485,-18.18,31.38,-11.22
3.9363,-8.9077,-2.1248,-0.019853,-0.040928,0.023213,-18.06,31.44,-11.16
3.8682,-8.8941,-2.0975,-0.027489,-0.052534,0.0088575,-18.18,31.5,-11.22
3.6911,-8.8941,-2.0158,-0.023213,-0.052229,0.0067195,-18.06,31.56,-11.22
3.6911,-8.9622,-1.9613,-0.035125,-0.032987,0.016493,-18.24,31.5,-11.28
3.5685,-8.8941,-1.9205,-0.03207,0.000305,0.011301,-18.3,31.62,-11.22
3.6094,-8.8805,-1.9613,-0.038179,0.029322,0.021991,-18.3,31.56,-11.28
3.623,-8.8805,-1.9613,-0.03207,0.029932,0.015882,-18.3,31.56,-11.34
3.6775,-9.0167,-2.0294,-0.021991,0.043982,0.0079412,-18.24,31.68,-11.28
3.6775,-8.9486,-2.0839,-0.027794,0.04215,0.0042761,-18.18,31.68,-11.28
3.6775,-9.0031,-2.1656,-0.030849,0.046731,0.011301,-18.0,31.62,-11.16
3.732,-8.9622,-2.0431,-0.030543,0.025656,0.0088575,-18.06,31.8,-11.04
3.7728,-8.9349,-2.1112,-0.021075,-0.0012217,0.0030543,-18.06,31.92,-11.04
3.8001,-8.9213,-2.1929,-0.019548,-0.023518,0.0079412,-18.12,31.86,-10.98
3.7456,-8.8532,-2.0703,-0.012217,-0.043371,0.015882,-18.18,31.74,-10.98
3.7728,-8.9077,-1.9613,-0.011301,-0.053145,0.011606,-18.18,31.74,-10.92
3.732,-8.9349,-2.0703,-0.011301,-0.06689,0.010079,-18.24,31.74,-10.92
3.7728,-8.9622,-2.0431,-0.01069,-0.069944,0.010996,-18.18,31.68,-10.86
3.6911,-8.9486,-2.0567,-0.009163,-0.06689,0.011301,-18.12,31.74,-10.86
3.732,-8.9622,-2.0839,-0.0039706,-0.057116,0.013439,-18.18,31.8,-10.98
3.6911,-8.8668,-2.1793,-0.017104,-0.059559,0.014355,-18.24,31.74,-10.86
3.8137,-8.9077,-2.0839,-0.020464,-0.050091,0.016799,-18.3,31.68,-10.98
3.6775,-8.9486,-2.0294,-0.022602,-0.039401,0.012523,-18.42,31.74,-10.98
3.6775,-8.9486,-2.0431,-0.038179,-0.025045,0.014355,-18.42,31.68,-10.98
3.6503,-8.9213,-2.0431,-0.030543,-0.024129,0.016799,-18.54,31.5,-10.98
3.732,-8.9349,-2.0431,-0.032681,-0.015272,0.014355,-18.48,31.5,-10.98
3.6775,-8.9077,-1.9477,-0.033598,-0.0088575,0.011301,-18.48,31.5,-10.98
3.7456,-8.8941,-2.0703,-0.038485,-0.0076358,0.009163,-18.54,31.5,-11.1
3.6503,-8.9349,-1.8524,-0.038179,0.0073304,0.012217,-18.3,31.5,-11.22
3.6366,-8.9622,-2.0294,-0.031154,0.010996,0.012523,-18.36,31.5,-11.28
3.7047,-9.0031,-2.0431,-0.031154,0.011912,0.020159,-18.48,31.44,-11.34
3.6503,-8.9213,-2.152,-0.033903,0.0079412,0.013439,-18.36,31.5,-11.28
3.732,-8.9622,-2.0975,-0.030849,-0.0012217,0.016799,-18.48,31.56,-11.4
3.7456,-8.9486,-2.0975,-0.030849,-0.0088575,0.012828,-18.48,31.5,-11.4
3.7728,-8.9622,-2.0567,-0.040317,-0.015272,0.018937,-18.48,31.56,-11.52
3.7592,-8.9213,-2.0703,-0.037263,-0.020769,0.019853,-18.36,31.62,-11.58
3.7728,-8.9349,-2.0567,-0.039095,-0.021075,0.020464,-18.42,31.68,-11.7
3.732,-8.8941,-2.0975,-0.036957,-0.029627,0.017715,-18.36,31.68,-11.76
3.7592,-8.9349,-2.0567,-0.028405,-0.031765,0.017715,-18.36,31.68,-11.7
3.6366,-8.9486,-2.0839,-0.037874,-0.027184,0.024129,-18.36,31.68,-11.64
3.6366,-8.8668,-2.0431,-0.036957,-0.033903,0.021686,-18.54,31.74,-11.52
3.7047,-8.8941,-2.0294,-0.035736,-0.025962,0.02474,-18.48,31.8,-11.4
3.6094,-8.9894,-2.0158,-0.037874,-0.012523,0.030849,-18.36,31.86,-11.28
3.6775,-8.9486,-2.0158,-0.047342,0.0061087,0.033292,-18.48,31.74,-11.34
3.732,-8.9213,-2.0567,-0.035125,0.002138,0.034514,-18.42,31.8,-11.34
3.732,-8.8941,-2.0431,-0.032987,-0.0076358,0.035125,-18.42,31.92,-11.22
3.732,-8.8668,-2.0703,-0.027794,-0.015272,0.023824,-18.42,31.92,-11.1
3.6366,-8.9622,-2.1929,-0.033292,-0.012828,0.017104,-18.54,31.86,-11.16
3.6503,-8.9349,-2.1384,-0.026573,0.000916,0.019242,-18.54,31.92,-11.16
3.5685,-9.0303,-2.152,-0.038179,-0.0088575,0.018326,-18.66,31.86,-10.92
3.6366,-8.9622,-2.1112,-0.041539,-0.01069,0.026573,-18.66,31.92,-10.98
3.6775,-8.9213,-2.152,-0.043982,-0.0030543,0.029016,-18.54,32.04,-10.98
3.7047,-8.826,-2.1384,-0.036041,-0.0064141,0.021991,-18.54,31.92,-10.92
3.6775,-8.8941,-2.1793,-0.044593,-0.0030543,0.026267,-18.54,31.74,-10.92
3.6366,-8.8941,-2.1929,-0.045204,-0.011301,0.018937,-18.54,31.68,-10.92
3.5958,-8.9077,-2.1112,-0.045204,-0.01405,0.01741,-18.48,31.68,-10.92
3.6366,-8.9213,-2.1112,-0.053145,-0.000916,0.024129,-18.42,31.5,-10.8
3.6639,-8.8941,-2.1248,-0.050702,0.0082467,0.019548,-18.42,31.44,-10.86
3.623,-8.9213,-2.1112,-0.051007,0.021075,0.028405,-18.42,31.5,-10.92
3.6503,-8.7715,-2.0703,-0.054367,0.0082467,0.026878,-18.3,31.44,-10.92
3.6503,-8.8668,-2.0567,-0.042761,0.010996,0.026878,-18.18,31.38,-10.62
3.7184,-8.8668,-1.9477,-0.037263,0.0024435,0.032987,-18.0,31.38,-10.68
3.6639,-8.8941,-1.975,-0.023518,-0.012523,0.035125,-18.06,31.44,-10.62
3.6775,-8.8668,-2.1248,-0.019548,-0.018631,0.034208,-18.12,31.38,-10.5
3.7047,-8.826,-2.0703,-0.02138,-0.019242,0.030849,-18.06,31.56,-10.56
3.6639,-8.9213,-2.0975,-0.01405,-0.01069,0.022907,-18.18,31.56,-10.56
3.6911,-8.8668,-2.1248,-0.023213,-0.015577,0.016188,-18.36,31.8,-10.38
3.6775,-8.9349,-2.0703,-0.026267,-0.0067195,0.017715,-18.36,31.8,-10.2
3.6775,-8.9077,-2.1248,-0.035736,0.0012217,0.013744,-18.36,31.98,-10.32
3.6775,-8.9349,-2.2065,-0.032681,0.000916,0.0033598,-18.12,32.1,-10.32
3.6775,-8.8941,-2.1929,-0.03543,-0.0042761,0.002138,-18.24,32.04,-10.32
3.6503,-8.8805,-2.1384,-0.038485,0.0045815,0.0064141,-18.24,32.04,-10.26
3.7047,-8.8668,-2.1793,-0.029322,-0.0045815,0.002138,-18.24,32.04,-10.44
3.6911,-8.8668,-2.1248,-0.036346,-0.0048869,0.0042761,-18.3,32.04,-10.38
3.6775,-8.8941,-2.0567,-0.030238,-0.0067195,-0.000611,-18.36,32.1,-10.44
3.7728,-8.8668,-2.1793,-0.024435,-0.01069,-0.0018326,-18.24,32.1,-10.44
3.7047,-8.8941,-2.0567,-0.012217,-0.027184,-0.0018326,-18.24,31.98,-10.68
3.6503,-8.9622,-2.0294,-0.014966,-0.028405,0.007025,-18.12,32.04,-10.8
3.6775,-8.9758,-2.0839,-0.018021,-0.017715,0.010079,-18.06,31.92,-10.92
3.7047,-9.0031,-2.1112,-0.011301,-0.016188,0.019853,-18.12,31.8,-10.98
3.732,-8.9349,-2.2201,-0.014966,-0.020769,0.012828,-18.12,31.74,-10.92
3.6639,-8.9077,-2.2474,-0.021686,-0.029627,0.0067195,-18.06,31.74,-10.86
3.6366,-8.9349,-2.0975,-0.018326,-0.013744,-0.000916,-18.12,31.74,-10.86
3.6775,-8.9213,-2.152,-0.027184,-0.012217,0.000916,-18.18,31.74,-10.86
3.6775,-8.9486,-2.0839,-0.033598,-0.016799,0.0039706,-18.0,31.92,-10.98
3.6094,-8.9349,-2.0703,-0.026267,-0.009163,0.0036652,-18.0,31.8,-10.98
3.6775,-8.9213,-2.0567,-0.026267,-0.0085521,0.0045815,-17.94,31.74,-11.04
3.6503,-8.9349,-2.0975,-0.022297,-0.018937,0.0079412,-18.06,31.68,-11.1
3.5958,-8.9349,-2.1929,-0.037263,-0.010385,0.0094684,-17.94,31.74,-10.92
3.6639,-8.9349,-2.1248,-0.031154,0.007025,0.021075,-17.94,31.74,-10.8
3.732,-8.8668,-2.0158,-0.0033598,0.021686,0.0281,-17.88,31.74,-10.8
3.7184,-8.8941,-2.0022,0.017104,-0.026267,0.032681,-17.88,31.86,-10.74
3.6094,-8.8941,-1.9886,0.01405,-0.056505,0.03207,-18.06,31.8,-10.86
3.5413,-8.9622,-2.0567,-0.0018326,-0.030543,0.02474,-18.3,31.74,-10.8
3.5413,-8.9894,-2.1929,-0.0079412,-0.0076358,0.023824,-18.3,31.74,-10.86
3.5958,-8.9213,-2.1248,-0.023518,0.016188,0.029016,-18.3,31.86,-10.8
3.623,-8.9077,-2.1248,-0.029016,0.0051924,0.01741,-18.42,31.92,-10.68
3.5822,-8.9622,-2.1248,-0.041233,-0.0042761,0.015577,-18.42,31.92,-10.8
3.6094,-8.9894,-2.0567,-0.036652,0.0015272,0.014661,-18.48,31.98,-10.68
3.5685,-8.9758,-2.1248,-0.042455,0.0036652,0.0054978,-18.48,31.92,-10.68
3.6094,-8.8941,-2.152,-0.036957,0.0058032,0.0082467,-18.48,31.92,-10.62
3.6775,-8.8668,-2.0703,-0.051313,0.0039706,0.0094684,-18.48,31.86,-10.62
3.6911,-8.9349,-2.0839,-0.040317,0.0097738,0.009163,-18.42,31.92,-10.56
3.7047,-8.9213,-2.0022,-0.048564,0.0085521,0.015577,-18.48,31.8,-10.5
3.6775,-8.9213,-1.975,-0.043677,0.010079,0.020464,-18.3,31.92,-10.38
3.6775,-8.8941,-2.0567,-0.041539,-0.000611,0.023213,-18.3,32.04,-10.62
3.6639,-8.9077,-2.0158,-0.031765,-0.0024435,0.016188,-18.12,32.04,-10.68
3.6775,-8.8532,-2.0839,-0.038485,0.0042761,0.023518,-18.3,31.98,-10.68
3.5822,-8.8941,-2.0567,-0.033598,0.002138,0.018631,-18.36,31.92,-10.68
3.6366,-8.9213,-2.1384,-0.030849,-0.0027489,0.015577,-18.36,32.04,-10.62
3.6639,-8.9894,-2.1384,-0.047953,0.017104,0.023213,-18.36,31.92,-10.62
3.6911,-9.0303,-2.261,-0.04215,0.023824,0.025045,-18.36,31.92,-10.74
3.7456,-8.8941,-2.0839,-0.038485,0.02138,0.02138,-18.42,31.92,-10.86
3.7184,-8.8668,-2.0839,-0.027184,-0.015272,0.021075,-18.42,32.16,-10.92
3.6366,-8.8941,-2.0703,-0.03543,-0.017104,0.0094684,-18.48,32.16,-10.8
3.6503,-8.9349,-2.1248,-0.040928,0.010079,0.016188,-18.42,32.16,-10.92
3.7047,-8.9349,-2.0431,-0.041844,0.010996,0.012523,-18.54,32.1,-10.86
3.6639,-8.9213,-2.1248,-0.047953,0.0054978,0.013744,-18.6,32.1,-10.68
3.6094,-8.8805,-2.1248,-0.045815,0.002138,0.013744,-18.54,32.16,-10.56
3.7047,-8.8668,-2.0975,-0.032987,-0.0082467,0.015882,-18.42,32.16,-10.56
3.5958,-8.826,-2.0294,-0.027489,-0.017104,0.009163,-18.3,32.16,-10.5
3.6911,-8.9077,-2.0567,-0.035125,-0.01069,-0.000611,-18.36,32.1,-10.56
3.623,-8.8532,-2.0294,-0.040012,-0.000305,0.0039706,-18.3,32.16,-10.38
3.6639,-8.8941,-2.0567,-0.032376,0.0088575,0.009163,-18.24,32.16,-10.2
3.6775,-8.9213,-2.1112,-0.036957,0.0064141,0.011301,-18.12,32.4,-10.26
3.732,-8.9758,-2.1384,-0.021686,0.0042761,0.0097738,-18.0,32.28,-10.2
3.6775,-8.9486,-2.1248,-0.034514,-0.000305,0.0085521,-18.0,32.16,-10.32
3.6775,-8.9349,-2.1384,-0.030849,0.0085521,0.0088575,-18.0,32.16,-10.38
3.623,-8.9349,-2.1248,-0.038485,0.018631,0.0030543,-18.0,32.28,-10.44
3.6775,-8.8941,-2.1656,-0.045509,0.022907,0.013439,-18.06,32.22,-10.56
3.6911,-8.9213,-2.0839,-0.043371,0.016188,0.016799,-18.18,32.1,-10.68
3.6366,-8.9213,-2.0839,-0.029627,0.0054978,0.013439,-18.06,31.92,-10.74
3.6775,-8.9486,-2.0567,-0.032376,0.0042761,0.017715,-17.94,31.74,-10.74
3.7047,-8.9486,-2.152,-0.036652,0.0045815,0.011301,-18.12,31.74,-10.92
3.6366,-8.9213,-2.1112,-0.033598,0.0033598,0.017104,-18.12,31.74,-10.92
3.6503,-8.9077,-2.0158,-0.032987,0.0051924,0.01405,-18.12,31.74,-10.98
3.6366,-8.8668,-2.152,-0.03207,0.011912,0.016188,-18.18,31.5,-10.92
3.6366,-8.8668,-2.152,-0.033598,0.0051924,0.015272,-18.18,31.5,-10.92
3.7184,-8.9622,-2.0975,-0.036346,0.0048869,0.018631,-18.24,31.5,-11.1
3.6775,-8.9349,-2.0567,-0.034819,0.0051924,0.019853,-18.36,31.56,-11.04
3.732,-8.8668,-2.1112,-0.036041,-0.0033598,0.014661,-18.24,31.5,-10.98
3.6503,-8.8941,-2.152,-0.025656,-0.0094684,0.020769,-18.18,31.44,-10.86
3.6366,-8.9486,-2.1112,-0.032681,0.0097738,0.018021,-18.18,31.44,-10.92
3.732,-8.9622,-2.152,-0.037568,0.022602,0.028405,-18.12,31.56,-10.8
3.8137,-8.8941,-2.0839,-0.030849,0.014661,0.025656,-18.18,31.56,-10.62
3.7047,-8.8396,-2.1384,-0.026267,-0.007025,0.020464,-18.06,31.56,-10.44
3.6775,-8.9077,-2.0839,-0.027794,-0.014966,0.017715,-18.06,31.74,-10.44
3.732,-8.9622,-2.1384,-0.027184,-0.0079412,0.020769,-18.12,31.74,-10.5
3.6503,-8.9213,-2.1248,-0.042761,0.012523,0.012523,-18.12,31.68,-10.56
3.6911,-8.9213,-2.0703,-0.033292,0.000305,0.015272,-18.12,31.92,-10.5
3.6775,-8.9486,-2.0567,-0.035125,-0.000611,0.012828,-18.24,31.92,-10.44
3.6639,-8.9213,-2.1248,-0.03543,-0.0018326,0.012828,-18.18,32.04,-10.32
3.6639,-8.9349,-2.1112,-0.030238,0.0012217,0.012217,-18.18,32.04,-10.32
3.6775,-8.9213,-2.0839,-0.034514,0.0033598,0.0097738,-18.12,32.04,-10.32
3.6366,-8.9077,-2.0022,-0.029932,0.0051924,0.015272,-18.24,31.98,-10.26
3.7047,-8.8941,-2.0431,-0.029322,0.0085521,0.011301,-18.3,32.1,-10.26
3.6911,-8.9213,-1.9886,-0.025351,0.0082467,0.010385,-18.42,32.34,-10.32
3.7184,-8.9349,-2.0567,-0.029627,0.010079,0.012217,-18.48,32.46,-10.5
3.6366,-8.8805,-2.0975,-0.03207,0.013439,0.016799,-18.48,32.28,-10.5
3.7184,-8.8805,-2.1112,-0.03146,0.018326,0.0073304,-18.42,32.34,-10.62
3.6775,-8.9077,-2.0839,-0.031765,0.017104,0.0094684,-18.54,32.28,-10.5
3.6639,-8.8805,-2.0431,-0.034819,0.019242,0.0085521,-18.66,32.04,-10.26
3.6503,-8.8941,-2.1929,-0.040012,0.011912,0.01741,-18.6,32.04,-10.32
3.623,-8.8668,-2.0839,-0.034819,0.019548,0.017715,-18.66,32.04,-10.32
3.7047,-9.0031,-2.0294,-0.033903,0.014661,0.015577,-18.54,31.92,-10.44
3.7592,-8.9077,-2.0839,-0.033598,0.013134,0.012828,-18.54,32.04,-10.38
3.732,-8.8941,-2.0839,-0.030543,0.010996,0.012523,-18.6,32.1,-10.44
3.6503,-8.8941,-2.1656,-0.032987,0.010996,0.010996,-18.6,31.98,-10.56
3.6503,-8.8805,-2.152,-0.032987,0.0097738,0.012523,-18.6,31.86,-10.62
3.6775,-8.9349,-2.0567,-0.040928,0.012523,0.010996,-18.54,31.74,-10.5
3.6775,-8.9213,-2.152,-0.045815,0.020464,0.014355,-18.36,31.56,-10.62
3.732,-8.8805,-2.152,-0.041844,0.01405,0.012828,-18.36,31.56,-10.56
3.7047,-8.8124,-2.0839,-0.039401,0.010385,0.015272,-18.36,31.56,-10.56
3.6503,-8.9622,-2.0294,-0.039095,0.0076358,0.01741,-18.42,31.62,-10.86
3.6366,-8.9349,-2.1112,-0.039706,0.013439,0.016799,-18.42,31.62,-10.68
3.6503,-8.9077,-2.0294,-0.046426,0.030543,0.024435,-18.48,31.62,-10.68
3.7184,-8.9213,-1.9613,-0.034208,0.021075,0.027489,-18.6,31.68,-10.68
3.7728,-8.9349,-2.0567,-0.025962,0.0079412,0.029016,-18.66,31.56,-10.8
3.6775,-8.9077,-2.1656,-0.022602,0.0088575,0.015272,-18.6,31.5,-10.68
3.6775,-8.9622,-2.152,-0.036957,0.012217,0.011301,-18.6,31.56,-10.74
3.732,-8.9349,-2.2474,-0.036957,0.01741,0.013134,-18.54,31.56,-10.74
3.6775,-8.826,-2.0839,-0.042761,0.0064141,0.010996,-18.6,31.62,-10.98
3.7047,-9.0031,-2.1112,-0.03879,-0.0058032,0.0097738,-18.78,31.68,-10.98
3.6775,-8.9213,-2.0839,-0.038485,-0.0076358,0.016799,-18.78,31.68,-10.92
3.6775,-8.8941,-2.0158,-0.037568,-0.0079412,0.011301,-18.72,31.86,-10.92
3.6366,-8.9349,-2.0158,-0.035125,-0.0094684,0.017104,-18.66,32.04,-11.04
3.6639,-8.8941,-1.9613,-0.031765,-0.0079412,0.022602,-18.6,32.22,-11.04
3.6911,-8.9213,-1.9613,-0.030238,-0.0076358,0.024129,-18.66,32.16,-11.16
3.6366,-8.8941,-2.0839,-0.0281,-0.0033598,0.023213,-18.66,32.16,-11.16
3.6366,-8.8941,-2.0839,-0.0281,-0.0033598,0.023213,-18.66,32.16,-11.16
3.6775,-8.9213,-2.0431,-0.035736,0.01405,0.013744,-18.66,32.34,-11.16
3.6639,-8.8941,-2.0839,-0.033598,0.0097738,0.020464,-18.66,32.34,-10.98
3.7184,-8.9486,-2.0022,-0.028711,0.007025,0.021991,-18.36,32.34,-10.92
3.732,-8.9077,-2.1793,-0.035125,0.000916,0.026267,-18.24,32.52,-10.92
3.732,-8.9622,-2.0703,-0.037263,0.0027489,0.019242,-18.18,32.28,-10.92
3.6911,-8.9622,-2.1248,-0.036652,-0.0012217,0.01405,-18.0,32.1,-10.8
3.7047,-8.8941,-1.9886,-0.043066,0.0018326,0.019548,-17.88,31.8,-10.98
3.6366,-8.9077,-2.1112,-0.03146,0.000305,0.014966,-17.76,31.86,-10.98
3.7047,-8.9213,-2.0431,-0.043066,0.0082467,0.019548,-17.76,31.8,-11.04
3.6639,-8.8532,-2.1248,-0.041539,0.012217,0.01405,-17.7,31.68,-10.92
3.7047,-8.8941,-2.0839,-0.036957,0.011912,0.016493,-17.76,31.62,-11.04
3.7728,-8.8941,-2.0294,-0.036041,0.01405,0.015577,-17.76,31.68,-10.8
3.7047,-8.9622,-2.0839,-0.040623,0.014966,0.01405,-17.64,31.8,-10.68
3.7047,-8.9622,-2.1248,-0.043677,0.013744,0.01405,-17.64,31.8,-10.5
3.7047,-8.8532,-2.0567,-0.036652,0.01405,0.018021,-17.88,31.86,-10.56
3.732,-8.8805,-2.0975,-0.036957,0.0097738,0.0030543,-17.88,31.68,-10.38
3.6366,-8.9213,-2.0567,-0.039095,0.017104,0.01069,-17.82,31.74,-10.38
3.6366,-8.9349,-1.9886,-0.036957,0.024435,0.022297,-17.82,31.74,-10.26
3.7047,-8.8805,-1.9886,-0.034819,0.026267,0.02474,-17.7,31.8,-10.26
3.7592,-8.826,-2.0567,-0.029627,0.019853,0.031765,-17.88,31.8,-10.32
3.7184,-8.8805,-2.152,-0.036957,0.0027489,0.018631,-17.88,31.86,-10.32
3.6366,-8.9213,-2.1793,-0.036346,0.0067195,0.017715,-17.94,31.92,-10.32
3.6639,-8.9349,-2.2201,-0.036346,0.011301,0.02138,-18.12,31.86,-10.44
3.6775,-8.8668,-2.152,-0.046731,0.0079412,0.020159,-18.18,31.86,-10.44
3.7047,-8.8941,-2.1384,-0.036957,0.0076358,0.020769,-18.3,31.92,-10.38
3.6775,-8.8668,-2.0703,-0.037263,0.0030543,0.019548,-18.42,32.1,-10.5
3.6911,-8.9077,-2.0703,-0.029322,0.0039706,0.01405,-18.3,32.04,-10.56
3.6366,-8.8941,-1.9613,-0.038485,0.0033598,0.015272,-18.42,32.16,-10.44
3.732,-8.8941,-2.0567,-0.028711,0.010079,0.022602,-18.54,31.98,-10.68
3.7047,-8.9077,-2.0567,-0.021991,0.0073304,0.029322,-18.66,31.98,-10.62
3.7047,-8.8941,-2.1384,-0.021686,0.016188,0.024435,-18.72,32.04,-10.8
3.6775,-8.9486,-2.152,-0.026878,0.019242,0.021075,-18.6,32.16,-10.74
3.7184,-8.8805,-2.0839,-0.030849,0.017715,0.018326,-18.42,32.16,-10.86
3.732,-8.9622,-2.0975,-0.033598,0.023824,0.014355,-18.48,32.04,-10.92
3.732,-8.8805,-2.1112,-0.039706,0.018631,0.018631,-18.36,32.04,-10.98
3.732,-8.9213,-2.0567,-0.040012,0.018021,0.019242,-18.42,32.04,-11.16
3.8273,-8.8668,-2.0839,-0.034208,0.015882,0.016799,-18.12,31.92,-11.22
3.732,-8.8941,-2.0703,-0.037568,0.0061087,0.014966,-18.12,31.92,-11.16
3.6775,-8.9622,-2.0839,-0.038485,0.0073304,0.011912,-18.24,31.98,-11.22
3.7184,-8.9077,-2.0158,-0.040012,0.0073304,0.01405,-18.18,32.22,-11.22
3.6503,-8.9213,-2.0703,-0.034819,0.0094684,0.012828,-18.18,32.22,-11.16
3.6775,-8.9077,-2.0567,-0.039706,0.0012217,0.017104,-18.06,32.1,-11.16
3.6911,-8.8941,-2.0839,-0.039706,0.0079412,0.013744,-18.06,32.04,-11.28
3.6911,-8.8941,-2.0975,-0.035736,0.0061087,0.025962,-18.0,32.04,-11.22
3.7047,-8.8805,-2.1384,-0.040012,0.0085521,0.025045,-18.12,31.98,-11.16
3.6503,-8.9349,-2.0703,-0.029016,-0.0027489,0.010996,-17.94,31.98,-11.1
3.7592,-8.9077,-1.9613,-0.03207,-0.000305,0.014661,-18.0,32.1,-11.1
3.7728,-8.9622,-2.0294,-0.032987,-0.0027489,0.014966,-17.88,32.1,-11.04
3.7592,-8.9077,-2.0839,-0.029322,-0.010385,0.0079412,-18.06,32.1,-10.98
3.7047,-8.9758,-2.1248,-0.036346,-0.015577,0.013744,-18.12,32.16,-11.04
3.6775,-8.9622,-2.0294,-0.043982,-0.014966,0.015577,-18.06,32.16,-10.98
3.7047,-8.9077,-2.0431,-0.03543,-0.010079,0.020769,-18.12,32.04,-11.04
3.6775,-8.8805,-2.0703,-0.031765,-0.009163,0.016188,-18.0,32.04,-10.92
3.7592,-8.8941,-2.0567,-0.027184,-0.019548,0.020159,-18.06,32.22,-10.8
3.6775,-8.9486,-2.0975,-0.025656,-0.019853,0.014966,-18.12,32.28,-10.68
3.7184,-8.9486,-2.0158,-0.032987,-0.019242,0.020159,-18.18,32.28,-10.8
3.6775,-8.9486,-1.9886,-0.027184,-0.021991,0.01069,-18.24,32.28,-10.92
3.6775,-8.8941,-2.0839,-0.034208,-0.022297,0.010079,-18.36,32.34,-10.92
3.732,-8.8805,-2.1248,-0.028405,-0.027794,0.0073304,-18.48,32.28,-10.86
3.7047,-8.8805,-2.1112,-0.028405,-0.034819,0.013134,-18.66,32.28,-10.8
3.732,-8.8941,-2.0567,-0.0281,-0.031154,0.017715,-18.6,32.16,-10.74
3.6775,-8.9213,-2.0431,-0.026878,-0.026267,0.0048869,-18.54,32.16,-10.8
3.6775,-8.8668,-2.0703,-0.035736,-0.03146,0.014355,-18.54,32.1,-10.8
3.6366,-8.9349,-2.0567,-0.032376,-0.0281,0.010385,-18.6,31.86,-10.68
3.6366,-8.8668,-2.0567,-0.035125,-0.015577,0.016188,-18.66,31.86,-10.86
3.6775,-8.8124,-2.0294,-0.027489,-0.011912,0.0085521,-18.66,31.86,-10.92
3.6366,-8.9213,-2.0703,-0.030849,-0.0042761,0.013134,-18.66,31.44,-10.98
3.7047,-8.9213,-2.0703,-0.034208,0.002138,0.0085521,-18.42,31.44,-10.8
3.7184,-8.9622,-2.0839,-0.032376,-0.0036652,0.0094684,-18.24,31.26,-10.8
3.7865,-8.9213,-2.1248,-0.036957,-0.0067195,0.0079412,-18.42,31.26,-10.98
3.7728,-8.8941,-2.0839,-0.033903,-0.012217,0.013439,-18.42,31.08,-10.92
3.732,-8.9077,-2.0839,-0.034208,-0.011912,0.009163,-18.3,31.14,-11.16
3.7047,-8.8805,-2.0294,-0.032987,-0.015272,0.01069,-18.24,31.08,-11.1
3.732,-8.9077,-2.0839,-0.030238,-0.015577,0.0058032,-18.3,31.14,-10.98
3.6366,-8.8668,-2.1793,-0.033598,-0.012523,0.009163,-18.3,31.2,-10.98
3.6775,-8.9213,-2.0022,-0.029932,-0.013744,0.01405,-18.06,31.44,-11.04
3.6911,-8.9349,-2.0703,-0.033903,-0.011606,0.011912,-18.12,31.5,-10.86
3.5822,-8.9486,-2.0839,-0.026267,-0.0061087,0.010079,-18.12,31.44,-10.86
3.6775,-8.8805,-2.0839,-0.029932,-0.0054978,0.009163,-18.12,31.68,-10.8
3.6366,-8.9213,-2.1793,-0.031154,-0.0079412,0.012523,-18.3,31.68,-10.86
3.6911,-8.9622,-2.1384,-0.025351,-0.007025,0.012523,-18.48,31.92,-10.86
3.6775,-8.8941,-2.1112,-0.026573,-0.011606,0.013134,-18.42,31.86,-10.68
3.7184,-8.9349,-2.1248,-0.022297,-0.015577,0.013134,-18.36,31.98,-10.68
3.732,-8.8532,-2.0703,-0.022297,-0.014966,0.012523,-18.54,31.92,-10.56
3.6775,-8.9758,-2.1248,-0.023518,-0.015577,0.013134,-18.54,32.04,-10.62
3.6775,-8.9894,-2.1112,-0.025045,-0.002138,0.013134,-18.48,31.98,-10.68
3.7184,-8.8941,-2.1384,-0.030543,0.0030543,0.014661,-18.42,31.92,-10.8
3.7184,-8.9349,-2.0839,-0.016799,0.0030543,0.018326,-18.42,31.92,-10.68
3.732,-8.8396,-2.0839,-0.019548,-0.01069,0.010996,-18.48,31.74,-10.8
3.6775,-8.8396,-2.2201,-0.013439,-0.023518,0.0088575,-18.54,31.68,-10.8
3.6503,-8.8941,-2.2065,-0.030849,-0.015272,0.0076358,-18.54,31.74,-10.86
3.7047,-8.8941,-2.1248,-0.029627,-0.0076358,0.0048869,-18.66,31.62,-10.92
3.6775,-8.9077,-2.1112,-0.0281,-0.012523,0.012217,-18.6,31.62,-10.86
3.6911,-8.8805,-2.0839,-0.025962,-0.012523,0.0073304,-18.54,31.62,-10.8
3.7728,-8.8941,-2.0567,-0.028711,-0.014355,0.021686,-18.42,31.56,-10.8
3.7047,-8.8805,-2.0567,-0.016493,-0.01069,0.013134,-18.42,31.62,-10.68
3.6639,-8.8668,-2.0567,-0.01741,-0.012828,0.014355,-18.36,31.44,-10.68
3.6911,-8.9349,-2.1112,-0.021991,-0.01069,0.021991,-18.54,31.5,-10.68
3.6775,-8.8941,-2.0703,-0.025962,-0.013134,0.020464,-18.54,31.5,-10.68
3.6503,-8.9622,-2.2201,-0.021991,-0.0094684,0.023213,-18.6,31.5,-10.56
3.6775,-8.9349,-2.0839,-0.016493,0.0024435,0.02474,-18.48,31.68,-10.62
3.6775,-8.9213,-2.1248,-0.035125,0.0039706,0.020464,-18.36,31.62,-10.68
3.6911,-8.8941,-2.1248,-0.022907,0.0039706,0.016493,-18.3,31.56,-10.62
3.6775,-8.9622,-2.1248,-0.0281,0.0030543,0.02138,-18.24,31.44,-10.74
3.6639,-8.9349,-2.0839,-0.035736,0.002138,0.020159,-18.18,31.44,-10.86
3.7047,-8.9486,-2.0975,-0.029627,-0.0024435,0.019853,-18.18,31.38,-10.8
3.7047,-8.8668,-2.0975,-0.034514,-0.0051924,0.02138,-18.3,31.5,-10.8
3.6911,-8.9622,-2.1248,-0.0281,-0.0042761,0.019853,-18.3,31.38,-10.92
3.7047,-8.826,-2.1384,-0.039095,-0.0030543,0.02474,-18.18,31.38,-10.8
3.7047,-8.8532,-2.0975,-0.030849,-0.0048869,0.018631,-18.18,31.5,-10.86
3.732,-8.9077,-2.0703,-0.029322,-0.010996,0.016188,-18.18,31.56,-10.86
3.7456,-8.9349,-2.0567,-0.031154,-0.0085521,0.017104,-18.12,31.44,-10.92
3.732,-8.9349,-2.1384,-0.029016,-0.0054978,0.016188,-18.36,31.38,-10.92
3.6503,-8.9213,-2.1248,-0.0281,-0.0012217,0.025351,-18.24,31.44,-10.8
3.732,-8.8668,-2.0839,-0.032681,-0.0042761,0.026267,-18.24,31.56,-10.68
3.7184,-8.9622,-2.1248,-0.024435,-0.013134,0.021686,-18.3,31.62,-10.5
3.7184,-8.9622,-2.1112,-0.024129,-0.017104,0.017715,-18.24,31.68,-10.44
3.6366,-8.9486,-2.1248,-0.031765,-0.021686,0.024435,-18.24,31.74,-10.5
3.6639,-8.9349,-2.152,-0.022602,-0.029627,0.012217,-18.24,31.86,-10.56
3.5958,-8.9486,-2.1248,-0.034514,-0.02138,0.016188,-18.18,31.92,-10.62
3.6366,-8.9349,-1.9886,-0.03879,-0.0042761,0.01741,-18.24,32.1,-10.68
3.7047,-8.8941,-2.1248,-0.027489,-0.000916,0.020464,-18.12,31.92,-10.5
3.7047,-8.8941,-2.0839,-0.02138,-0.020769,0.022297,-18.0,31.92,-10.62
3.6775,-8.9349,-2.0567,-0.021991,-0.026878,0.013744,-18.06,32.1,-10.56
3.6775,-8.8941,-2.0975,-0.029932,-0.014661,0.013134,-18.06,32.28,-10.5
3.5958,-8.8668,-2.1929,-0.03879,-0.0012217,0.0039706,-18.12,32.28,-10.5
3.6775,-8.9758,-2.0567,-0.044288,-0.0036652,0.0094684,-18.12,32.1,-10.5
3.7184,-8.8668,-1.9613,-0.039095,-0.0048869,0.017104,-18.0,32.04,-10.56
3.6911,-8.8941,-2.1248,-0.023213,-0.019548,0.019548,-18.12,32.04,-10.44
3.6366,-8.9213,-2.0567,-0.026878,-0.025656,0.014966,-18.12,32.04,-10.44
3.6366,-8.8805,-2.152,-0.023213,-0.025656,0.0097738,-18.18,32.04,-10.5
3.6366,-8.8941,-2.0839,-0.029322,-0.0076358,0.009163,-18.24,32.1,-10.32
3.5822,-8.9349,-2.0022,-0.0281,-0.0042761,0.015272,-18.3,32.1,-10.26
3.6366,-8.8941,-2.1248,-0.035125,-0.000305,0.028405,-18.36,32.04,-10.32
3.7184,-8.9622,-2.0567,-0.025656,0.0012217,0.026267,-18.42,31.92,-10.26
3.7047,-8.9486,-2.0839,-0.027794,0.009163,0.015882,-18.42,31.86,-10.32
3.6775,-8.8941,-2.1248,-0.027184,0.024129,0.013134,-18.42,31.8,-10.32
3.6366,-9.0031,-2.2201,-0.030238,0.019853,0.007025,-18.42,31.92,-10.38
3.6775,-8.9349,-2.152,-0.032681,0.020769,0.010996,-18.48,32.1,-10.44
3.7047,-8.8805,-2.0294,-0.040928,0.019853,0.019548,-18.42,32.16,-10.56
3.6911,-8.8668,-2.1248,-0.038485,0.013744,0.024129,-18.42,32.16,-10.62
3.6639,-8.9349,-2.0839,-0.034819,0.012217,0.019242,-18.36,32.16,-10.74
3.623,-8.9077,-2.1929,-0.036957,0.0073304,0.012523,-18.48,31.98,-10.86
3.6094,-8.9213,-2.152,-0.034819,0.0058032,0.013134,-18.42,31.86,-10.92
3.6775,-8.9349,-2.0839,-0.041233,0.0054978,0.012828,-18.36,31.68,-10.86
3.732,-8.9758,-2.1112,-0.034514,0.0024435,0.018021,-18.3,31.74,-10.8
3.6503,-8.8941,-2.0975,-0.034514,0.0079412,0.012523,-18.36,31.86,-10.86
3.6775,-8.8805,-2.1248,-0.029016,0.0024435,0.010079,-18.42,31.74,-10.86
3.6094,-8.9486,-2.1384,-0.025351,0.0048869,0.019242,-18.42,31.68,-10.74
3.7047,-8.9622,-2.0975,-0.033292,-0.000305,0.018021,-18.54,31.62,-10.62
3.6775,-8.9622,-2.0839,-0.029016,-0.000305,0.021686,-18.6,31.5,-10.62
3.6639,-8.8668,-2.152,-0.039706,0.010385,0.022297,-18.66,31.44,-10.68
3.6639,-8.8668,-2.1248,-0.03543,0.0036652,0.017715,-18.54,31.44,-10.74
3.6094,-9.0031,-2.0839,-0.034514,-0.0036652,0.014661,-18.36,31.26,-10.56
3.6775,-8.9894,-2.0294,-0.033903,0.0015272,0.016799,-18.36,31.2,-10.44
3.6503,-8.9894,-2.0975,-0.035125,0.018631,0.023824,-18.36,31.38,-10.38
3.7047,-8.9077,-2.0294,-0.030543,0.010079,0.019242,-18.66,31.44,-10.56
3.732,-8.8532,-2.0975,-0.028405,-0.0048869,0.019548,-18.6,31.44,-10.5
3.7047,-8.8941,-2.1248,-0.03146,-0.0082467,0.016799,-18.42,31.56,-10.5
3.6503,-8.9894,-2.0703,-0.037568,0.0064141,0.013744,-18.42,31.5,-10.44
3.732,-8.9486,-2.0294,-0.04948,0.0085521,0.016188,-18.3,31.56,-10.62
3.6366,-8.9349,-2.0975,-0.044288,0.0076358,0.016188,-18.18,31.56,-10.62
3.6639,-8.9077,-2.0703,-0.033598,-0.0039706,0.013134,-18.06,31.62,-10.56
3.6094,-8.8805,-2.0839,-0.034819,-0.0067195,0.019853,-18.3,31.68,-10.5
3.7184,-8.8396,-2.1929,-0.0281,-0.007025,0.011301,-18.24,31.74,-10.56
3.6094,-8.8941,-2.0567,-0.033903,-0.000611,0.011912,-18.3,31.8,-10.56
3.6366,-9.0303,-2.1248,-0.033903,0.0058032,0.012217,-18.18,31.86,-10.62
3.6366,-8.8668,-2.0839,-0.030543,0.000611,0.022602,-18.12,31.8,-10.62
3.732,-8.9349,-2.0839,-0.031154,0.0082467,0.028405,-17.94,31.92,-10.44
3.6911,-8.9486,-2.0839,-0.023824,0.0045815,0.016493,-18.0,31.98,-10.56
3.6639,-8.9349,-2.1112,-0.025962,0.0073304,0.023213,-18.06,32.1,-10.38
3.6639,-8.8941,-2.1384,-0.030238,0.0061087,0.012523,-18.0,31.98,-10.56
3.6775,-8.9486,-2.152,-0.038485,0.013744,0.019548,-18.12,31.98,-10.68
3.6775,-8.9349,-2.1929,-0.037263,0.007025,0.020769,-18.12,32.1,-10.8
3.7184,-8.8805,-2.0975,-0.037874,0.0094684,0.018937,-18.0,32.1,-10.86
3.6503,-8.8668,-2.0567,-0.041233,-0.0015272,0.022602,-17.88,32.16,-10.92
3.6775,-8.9349,-2.0839,-0.032681,0.0051924,0.012523,-17.94,32.04,-10.92
3.623,-8.8668,-2.152,-0.034514,0.0048869,0.020769,-18.0,32.28,-10.8
3.6094,-8.9077,-2.0839,-0.030849,0.0030543,0.0097738,-18.06,32.28,-10.86
3.6639,-8.8941,-2.1656,-0.032987,0.0088575,0.017715,-18.0,32.34,-10.86
3.6775,-8.9213,-2.1248,-0.040012,0.016493,0.01405,-17.94,32.28,-11.1
3.6775,-8.9349,-2.0975,-0.040623,0.016493,0.014355,-17.88,32.28,-10.98
3.6366,-8.9213,-2.1384,-0.040928,0.0048869,0.016493,-17.94,32.04,-11.1
3.6503,-8.9077,-2.1248,-0.043371,0.012523,0.014355,-18.06,32.22,-10.86
3.6366,-8.9622,-2.1112,-0.043982,0.017104,0.023824,-17.94,32.1,-10.74
3.6775,-8.9486,-2.0567,-0.034514,0.0088575,0.017715,-17.94,31.98,-10.68
3.6775,-8.9349,-2.0839,-0.037874,0.014355,0.022907,-18.12,31.92,-10.74
3.732,-8.826,-2.1384,-0.023518,0.01069,0.017104,-18.24,31.92,-10.68
3.7047,-8.9213,-2.1112,-0.041233,0.0073304,0.019853,-18.24,31.92,-10.56
3.6366,-8.8941,-2.1248,-0.034819,-0.0054978,0.019853,-18.42,31.8,-10.86
3.6503,-8.9894,-2.1384,-0.046731,0.0036652,0.017715,-18.66,31.68,-10.92
3.6639,-8.9622,-2.1248,-0.036652,0.016188,0.020159,-18.66,31.68,-10.86
3.7184,-8.9213,-2.0567,-0.036652,0.023824,0.025045,-18.84,31.62,-10.8
3.6775,-8.9077,-2.0839,-0.023824,0.01069,0.023824,-18.9,31.62,-10.86
3.7728,-8.8941,-2.0567,-0.033598,-0.0033598,0.016799,-18.72,31.74,-10.98
3.6366,-8.8941,-2.1656,-0.029322,0.0073304,0.010079,-18.66,31.74,-10.92
3.623,-8.9349,-2.152,-0.040317,0.01069,0.012523,-18.72,31.8,-10.86
3.7047,-8.9349,-2.0703,-0.038485,0.0027489,0.010996,-18.72,31.86,-10.8
3.623,-8.8668,-2.0567,-0.03879,0.0064141,0.011301,-18.72,31.92,-10.62
3.6503,-8.826,-2.0703,-0.035736,-0.000611,0.010996,-18.78,31.86,-10.62
3.7184,-8.9349,-2.0975,-0.035736,0.0039706,0.0094684,-18.78,32.04,-10.68
3.6639,-8.9077,-2.0431,-0.031765,-0.000305,0.0073304,-18.72,31.98,-10.5
3.6366,-8.9349,-2.1248,-0.039706,0.0042761,0.017104,-18.48,32.16,-10.5
3.6366,-8.8941,-2.0839,-0.034514,0.0088575,0.0085521,-18.48,32.1,-10.5
3.7047,-8.8941,-2.0839,-0.029322,0.016493,0.020159,-18.48,32.16,-10.44
3.6639,-8.9486,-2.0158,-0.024129,0.013439,0.012217,-18.48,32.28,-10.26
3.6639,-8.9894,-2.1248,-0.031154,0.018021,0.012523,-18.54,32.22,-10.26
3.7184,-8.9213,-2.1793,-0.038485,0.015882,0.0058032,-18.54,32.1,-10.2
3.7047,-8.9213,-2.1248,-0.041233,0.018021,0.012828,-18.54,32.1,-10.32
3.6639,-8.9349,-2.0839,-0.04612,0.018937,0.010079,-18.66,32.1,-10.32
3.6366,-8.9077,-2.1248,-0.04215,0.013744,0.0094684,-18.54,32.04,-10.44
3.7047,-8.9349,-2.0839,-0.047953,0.016493,0.023518,-18.42,32.16,-10.44
3.7184,-8.9213,-2.0567,-0.034819,0.019242,0.013744,-18.3,32.1,-10.44
3.6775,-8.9213,-2.1112,-0.037568,0.01741,0.016493,-18.3,32.16,-10.38
3.6775,-8.9077,-2.0567,-0.050702,0.011301,0.020464,-18.36,32.04,-10.38
3.6775,-8.8805,-2.152,-0.034208,0.016493,0.013744,-18.36,32.1,-10.44
3.6775,-8.9349,-2.152,-0.039401,0.017715,0.015882,-18.3,32.04,-10.5
3.6366,-8.9213,-2.0975,-0.042455,0.016493,0.019548,-18.18,32.16,-10.8
3.6775,-8.9077,-2.1656,-0.035736,0.017715,0.015577,-18.18,32.1,-10.74
3.7047,-8.8941,-2.1248,-0.036041,0.016188,0.019853,-18.18,31.98,-10.86
3.7456,-8.9213,-2.152,-0.043982,0.016188,0.022602,-18.06,32.16,-10.86
3.6911,-8.9894,-2.0975,-0.038179,0.0097738,0.010996,-17.88,32.28,-10.98
3.7047,-8.8805,-2.1384,-0.038485,0.007025,0.012523,-17.88,32.34,-11.04
3.6911,-8.9077,-2.0703,-0.044288,0.0082467,0.023213,-17.88,32.22,-11.1
3.732,-8.8532,-2.0567,-0.040623,-0.000916,0.020159,-17.94,32.22,-11.04
3.7456,-8.8396,-2.152,-0.040012,0.01405,0.025045,-17.82,32.34,-11.04
3.7184,-8.9077,-2.152,-0.03543,0.0033598,0.014966,-17.76,32.28,-11.04
3.6639,-8.8668,-2.1248,-0.035125,0.0024435,0.015577,-17.82,32.22,-10.86
3.7184,-8.8941,-2.152,-0.032376,0.0036652,0.01741,-17.82,32.28,-10.86
3.6503,-8.9349,-2.0567,-0.047037,0.011301,0.019853,-17.64,32.28,-10.86
3.6094,-8.8532,-2.152,-0.04215,0.020769,0.022907,-17.64,32.4,-11.04
3.7456,-8.8805,-2.152,-0.038485,0.012828,0.023518,-17.64,32.52,-11.04
3.7592,-8.9077,-2.0567,-0.036957,0.0012217,0.015577,-17.7,32.4,-10.92
3.7047,-8.8805,-2.1793,-0.030543,-0.0036652,0.015577,-17.76,32.28,-10.8
3.6911,-8.9213,-2.1384,-0.029322,-0.0085521,0.010079,-17.76,32.34,-10.92
3.732,-8.9758,-2.1384,-0.041233,-0.0045815,0.014661,-17.82,32.34,-11.04
3.7047,-8.9622,-2.1248,-0.036041,-0.010385,0.012828,-17.7,32.28,-10.98
3.6775,-8.9349,-2.0975,-0.032987,-0.017715,0.010079,-17.82,32.22,-11.04
3.6366,-8.9349,-2.0703,-0.032376,-0.018937,0.010079,-17.88,32.22,-11.04
3.6775,-8.9213,-2.0294,-0.032376,-0.014966,0.013439,-17.88,32.28,-11.16
3.6775,-8.9622,-2.0294,-0.034819,-0.011912,0.016493,-17.82,32.28,-11.16
3.7047,-8.9349,-2.0294,-0.020159,-0.012828,0.010996,-17.88,32.28,-11.04
3.6639,-8.9077,-2.0567,-0.017104,-0.0079412,0.014661,-17.82,32.16,-10.98
3.6366,-8.9622,-2.1384,-0.0281,-0.0027489,0.01741,-17.88,32.16,-10.92
3.6366,-8.9622,-2.0839,-0.026878,0.0039706,0.015577,-17.94,32.04,-11.1
3.6775,-8.9077,-2.1929,-0.034208,0.002138,0.023213,-17.82,31.98,-11.1
3.7047,-8.9077,-2.152,-0.031765,0.0027489,0.01405,-17.82,32.04,-10.86
3.7047,-8.8941,-2.152,-0.032681,0.0058032,0.021686,-17.94,32.04,-10.92
3.6911,-8.9486,-2.1248,-0.036652,0.0024435,0.018326,-17.94,32.04,-10.98
3.7047,-8.8668,-2.1248,-0.043066,0.0073304,0.026878,-17.88,31.92,-10.92
3.732,-8.9349,-2.1384,-0.041233,0.0030543,0.017104,-18.0,32.04,-11.04
3.732,-8.9213,-2.0839,-0.034208,0.0015272,0.018021,-17.94,31.98,-11.1
3.7184,-8.7987,-2.0703,-0.038179,-0.000916,0.011912,-18.12,31.98,-11.16
3.6911,-8.9077,-2.0839,-0.0281,-0.000916,0.01069,-18.24,31.92,-11.22
3.6366,-8.9077,-2.0567,-0.031765,-0.002138,0.012828,-18.18,31.92,-11.28
3.6366,-8.9077,-2.0567,-0.036041,-0.0015272,0.021075,-18.18,31.92,-11.28
3.6775,-8.9077,-2.1112,-0.04215,0.000611,0.022297,-18.18,31.8,-11.34
3.6775,-8.9349,-2.2065,-0.029627,0.0054978,0.016799,-18.42,31.92,-11.46
3.6775,-8.8941,-2.0975,-0.025656,0.002138,0.017715,-18.42,31.86,-11.58
3.6775,-8.826,-2.0839,-0.037263,-0.0018326,0.023518,-18.54,31.86,-11.46
3.732,-8.9349,-2.1248,-0.038179,0.0015272,0.02138,-18.48,31.74,-11.46
3.7047,-8.8668,-2.0975,-0.031154,-0.000305,0.015272,-18.36,31.8,-11.28
3.7047,-8.8668,-2.0839,-0.027794,-0.0073304,0.015882,-18.36,31.8,-11.34
3.732,-8.9622,-2.0839,-0.030849,-0.0067195,0.018937,-18.54,31.74,-11.22
3.6775,-8.9077,-2.0839,-0.025351,-0.0097738,0.021075,-18.54,31.68,-11.22
3.732,-8.9077,-2.0839,-0.026267,-0.013439,0.014966,-18.48,31.62,-11.28
3.623,-8.8941,-2.0431,-0.026878,-0.016188,0.0082467,-18.54,31.68,-11.16
3.6911,-8.9213,-2.0839,-0.039095,-0.0061087,0.0088575,-18.6,31.74,-11.28
3.6775,-8.8941,-2.0567,-0.030238,0.0018326,0.014355,-18.6,31.68,-11.16
3.6911,-8.8396,-2.0567,-0.028405,-0.0076358,0.019242,-18.6,31.86,-10.98
3.7728,-8.9349,-2.0703,-0.013439,-0.014355,0.019242,-18.6,31.86,-11.04
3.7047,-8.9213,-2.1929,-0.013439,-0.026878,0.016493,-18.48,31.92,-11.04
3.7047,-8.8941,-2.2065,-0.016799,-0.020769,0.014661,-18.48,31.92,-10.98
3.7456,-8.9077,-2.0839,-0.016799,-0.021075,0.011301,-18.54,31.92,-10.98
3.6911,-8.8941,-2.1248,-0.026267,-0.021686,0.012523,-18.48,31.8,-10.86
3.6775,-8.9213,-2.0975,-0.027184,-0.029932,0.0024435,-18.3,31.8,-11.04
3.6366,-8.8805,-2.0703,-0.022907,-0.036346,0.0076358,-18.42,31.8,-10.98
3.6366,-8.9213,-2.0703,-0.024435,-0.029322,0.0042761,-18.54,31.74,-10.98
3.7047,-8.9486,-2.0975,-0.031765,-0.023824,0.0058032,-18.48,31.62,-10.86
3.7047,-8.9349,-2.0294,-0.024129,-0.023518,0.010079,-18.42,31.56,-10.98
3.6911,-8.7715,-2.1112,-0.031154,-0.019548,0.016493,-18.42,31.62,-11.04
3.6639,-8.9349,-2.0839,-0.023213,-0.016493,0.013439,-18.3,31.56,-11.04
3.7047,-8.9077,-2.0703,-0.01741,-0.01069,0.012828,-18.24,31.38,-11.04
3.7047,-8.9486,-2.0839,-0.033292,-0.0064141,0.017715,-18.36,31.44,-11.1
3.6639,-8.9622,-2.1384,-0.032681,-0.0030543,0.016493,-18.42,31.32,-11.04
3.6503,-8.9486,-2.1656,-0.040012,-0.0030543,0.016493,-18.36,31.2,-11.16
3.6639,-8.9349,-2.0839,-0.030238,-0.0012217,0.015882,-18.36,31.2,-11.16
3.6366,-8.9486,-2.0975,-0.036652,-0.0018326,0.015882,-18.36,31.14,-11.22
3.7184,-8.9622,-2.0431,-0.028405,-0.0064141,0.014966,-18.24,31.2,-11.16
3.6366,-8.9486,-2.1248,-0.035736,-0.0048869,0.016188,-18.3,31.2,-11.16
3.6775,-8.9349,-2.1929,-0.029627,-0.000305,0.010079,-18.42,31.2,-11.34
3.6503,-8.8941,-2.152,-0.032681,-0.0012217,0.011301,-18.48,31.2,-11.16
3.732,-8.9077,-2.0567,-0.028711,0.0039706,0.017715,-18.36,31.26,-11.1
3.6775,-8.8941,-2.0839,-0.036041,0.0015272,0.019548,-18.42,31.14,-11.1
3.8001,-8.8668,-2.0703,-0.031154,0.000611,0.013134,-18.48,31.14,-11.04
3.7865,-8.8805,-2.0975,-0.035736,-0.002138,0.015882,-18.48,31.08,-10.92
3.732,-8.8941,-2.1248,-0.026878,-0.0054978,0.011606,-18.48,31.38,-10.92
3.7047,-8.8941,-2.152,-0.030238,-0.011912,0.01405,-18.48,31.62,-10.98
3.6775,-8.9213,-2.0294,-0.026267,-0.0058032,0.014355,-18.54,31.5,-10.92
3.732,-8.9077,-2.0839,-0.029016,-0.010079,0.01405,-18.6,31.74,-10.8
3.7728,-8.9622,-2.0567,-0.027489,-0.0058032,0.015882,-18.66,31.68,-10.8
3.6639,-8.8941,-2.0703,-0.029016,-0.009163,0.015882,-18.66,31.74,-10.62
3.7047,-8.8396,-2.0975,-0.0281,-0.013439,0.0097738,-18.6,31.74,-10.44
3.732,-8.9077,-2.1384,-0.021991,-0.014966,0.016799,-18.54,31.86,-10.5
3.6775,-8.9213,-2.1656,-0.036652,-0.0082467,0.015272,-18.72,31.68,-10.5
3.6639,-8.9758,-2.0567,-0.027489,-0.0033598,0.017715,-18.78,31.74,-10.68
3.6639,-8.9622,-2.1112,-0.01741,-0.0048869,0.019853,-18.78,31.74,-10.8
3.732,-8.8805,-2.152,-0.024129,-0.024435,0.015882,-18.9,31.86,-10.86
3.732,-8.8805,-2.1929,-0.012217,-0.02474,0.0088575,-18.9,31.74,-10.74
3.732,-8.8396,-2.152,-0.029322,-0.020769,0.012217,-18.96,31.5,-10.68
3.7456,-8.9213,-2.1384,-0.030849,-0.018326,0.0094684,-18.96,31.74,-10.8
3.6094,-8.9077,-2.0975,-0.032376,-0.020769,0.013134,-18.9,31.74,-10.8
3.6094,-8.9349,-2.152,-0.037263,-0.018326,0.020464,-18.9,31.92,-10.8
3.7184,-8.9486,-2.0294,-0.023518,-0.020769,0.014966,-18.78,31.92,-10.92
3.7047,-8.8941,-2.1112,-0.025962,-0.021075,0.012523,-18.72,31.98,-10.98
3.6366,-8.9486,-2.0294,-0.033598,-0.013744,0.01069,-18.72,31.92,-11.16
3.6366,-8.9349,-2.0839,-0.0281,-0.010996,0.0067195,-18.66,32.04,-11.28
3.6094,-8.9077,-2.0839,-0.024129,-0.015577,0.018021,-18.66,32.22,-11.22
3.6911,-8.9622,-2.0703,-0.024435,-0.0073304,0.025656,-18.66,32.22,-11.1
3.7184,-8.9349,-2.1112,-0.024435,-0.0088575,0.026573,-18.48,32.16,-11.04
3.7047,-8.8941,-2.0839,-0.025962,-0.0039706,0.029016,-18.48,32.28,-11.1
3.6775,-8.9213,-2.152,-0.03146,0.0015272,0.026573,-18.54,32.46,-11.22
3.732,-8.8941,-2.1656,-0.037263,0.0051924,0.020769,-18.54,32.4,-11.22
3.6775,-8.9622,-2.0703,-0.039706,0.0076358,0.018326,-18.66,32.46,-11.16
3.7047,-8.9213,-2.152,-0.037568,0.000611,0.026267,-18.72,32.04,-11.1
3.7047,-8.9349,-2.0567,-0.032681,0.0024435,0.015272,-18.78,32.04,-11.04
3.6775,-8.9758,-2.1384,-0.02474,0.0048869,0.018631,-18.9,32.04,-10.98
3.6775,-8.8941,-2.1248,-0.026573,0.0064141,0.016493,-18.96,31.92,-10.62
3.7047,-8.9486,-2.2882,-0.031765,0.0051924,0.011912,-18.96,31.86,-10.5
3.732,-8.8668,-2.1248,-0.032376,0.0048869,0.013744,-18.78,31.74,-10.5
3.7592,-8.826,-2.1793,-0.026878,0.000611,0.017104,-18.66,31.74,-10.62
3.7047,-8.8532,-2.0294,-0.029016,-0.0030543,0.020159,-18.72,31.68,-10.74
3.7047,-8.8941,-2.0703,-0.024435,-0.0012217,0.013744,-18.78,31.56,-10.74
3.6775,-8.8941,-2.152,-0.019548,-0.0067195,0.021686,-18.72,31.38,-10.56
3.6639,-8.9213,-2.0839,-0.025962,-0.0064141,0.025351,-18.72,31.38,-10.5
3.6366,-8.8941,-2.152,-0.035736,-0.0054978,0.020464,-18.6,31.26,-10.56
3.6775,-8.8941,-2.152,-0.02474,-0.0048869,0.016493,-18.54,31.56,-10.56
3.6503,-8.826,-2.152,-0.032376,-0.0073304,0.014661,-18.6,31.44,-10.5
3.623,-8.9758,-2.0567,-0.033903,-0.01069,0.012217,-18.6,31.44,-10.68
3.6503,-8.9894,-2.0703,-0.031765,0.000305,0.015882,-18.6,31.44,-10.86
3.6503,-8.9077,-2.0839,-0.023213,0.0085521,0.02474,-18.66,31.38,-10.8
3.7456,-8.9077,-2.0567,-0.023213,0.0012217,0.023518,-18.78,31.38,-10.68
3.6639,-8.826,-2.1248,-0.017104,-0.016493,0.019853,-18.78,31.5,-10.68
3.5958,-8.8396,-2.1793,-0.021075,-0.012523,0.014966,-18.78,31.56,-10.68
3.6366,-8.8668,-2.1112,-0.031154,0.0064141,0.011301,-18.72,31.68,-10.8
3.5958,-8.9077,-1.9068,-0.043066,0.011301,0.019242,-18.66,31.68,-10.8
3.6094,-8.8668,-2.0839,-0.036652,0.01069,0.016493,-18.78,31.68,-10.86
3.7047,-8.9622,-2.0294,-0.026267,0.0064141,0.020159,-18.66,31.86,-10.86
3.7047,-8.9349,-2.0431,-0.016493,-0.0051924,0.013744,-18.84,31.68,-10.8
3.5958,-8.9349,-2.1248,-0.02138,-0.0045815,0.013134,-18.54,31.74,-10.92
3.5685,-8.9758,-2.0294,-0.032987,0.002138,0.0088575,-18.54,31.74,-10.98
3.5685,-8.9077,-2.0567,-0.032987,0.0097738,0.019853,-18.48,31.74,-10.98
3.7456,-8.9213,-2.0567,-0.03207,0.015577,0.01741,-18.42,31.86,-11.04
3.732,-8.9077,-2.0703,-0.021686,0.016188,0.023518,-18.54,31.74,-10.98
3.7456,-8.9349,-2.0294,-0.027184,0.0061087,0.017715,-18.6,31.8,-10.98
3.6775,-8.9077,-2.1384,-0.028711,0.021075,0.011606,-18.66,31.8,-10.8
3.6366,-9.0167,-2.1656,-0.030849,0.022297,0.013744,-18.66,31.68,-10.74
3.6366,-8.9349,-2.1112,-0.037568,0.026878,0.011606,-18.72,31.68,-10.86
3.732,-8.8941,-2.1112,-0.040317,0.016188,0.011606,-18.66,31.68,-10.98
3.7047,-8.8805,-2.0567,-0.040317,0.01069,0.02138,-18.78,31.68,-10.92
3.7047,-8.9213,-2.0975,-0.036957,0.0048869,0.01405,-18.66,31.68,-11.04
3.7456,-8.9213,-2.0975,-0.037263,-0.000611,0.015882,-18.9,31.68,-10.98
3.7456,-8.9758,-2.0567,-0.033903,-0.000916,0.022297,-18.9,31.74,-10.98
3.7592,-8.9349,-2.1384,-0.030238,-0.0067195,0.017104,-18.84,31.8,-10.98
3.6503,-8.8941,-2.0294,-0.033292,-0.0067195,0.0088575,-18.78,31.8,-11.1
3.6503,-8.9077,-2.0158,-0.025962,0.0024435,0.011301,-18.66,31.92,-11.16
3.623,-8.9622,-2.0975,-0.030238,-0.0045815,0.015272,-18.48,31.86,-11.22
3.6911,-8.9213,-2.0567,-0.034514,0.002138,0.012828,-18.36,31.68,-11.16
3.6775,-8.9213,-2.0703,-0.037568,0.0054978,0.022297,-18.36,31.86,-11.1
3.6775,-8.9486,-2.0975,-0.037568,0.011301,0.022907,-18.42,31.98,-10.98
3.7592,-8.8668,-2.1248,-0.03207,0.0082467,0.018326,-18.48,31.86,-10.8
3.6503,-8.9622,-1.9886,-0.035736,0.000305,0.011912,-18.42,31.8,-10.62
3.6366,-8.9894,-2.0431,-0.037568,0.0061087,0.021686,-18.36,31.92,-10.5
3.6911,-8.9077,-2.0294,-0.043371,0.013744,0.019242,-18.3,32.04,-10.5
3.6775,-8.9213,-2.0567,-0.034208,0.015882,0.021686,-18.12,31.86,-10.32
3.7184,-8.9213,-2.0839,-0.029322,0.0015272,0.020159,-18.24,31.92,-10.26
3.7184,-8.8941,-2.1248,-0.034514,-0.007025,0.014661,-18.36,31.92,-10.26
3.6775,-8.9349,-2.1793,-0.029932,-0.0076358,0.011606,-18.42,31.86,-10.26
3.6094,-8.9213,-2.0567,-0.040928,0.0048869,0.014966,-18.6,31.86,-10.08
3.6503,-8.9349,-2.0567,-0.040623,0.000305,0.011912,-18.54,31.8,-10.2
3.6094,-8.8941,-2.0703,-0.037568,0.000916,0.012828,-18.54,31.62,-10.26
3.6911,-8.8805,-2.1248,-0.033903,-0.007025,0.014355,-18.48,31.44,-10.38
3.623,-8.8805,-2.0294,-0.034208,-0.0042761,0.020769,-18.42,31.44,-10.44
3.7047,-8.9486,-1.9205,-0.037568,-0.0061087,0.013439,-18.42,31.44,-10.62
3.6775,-8.9077,-2.0022,-0.03543,-0.0027489,0.018631,-18.42,31.5,-10.62
3.6366,-8.9622,-2.0567,-0.034514,-0.0054978,0.018021,-18.48,31.5,-10.74
3.6366,-8.9349,-2.1112,-0.034819,0.002138,0.019548,-18.54,31.56,-10.68
3.7456,-8.9622,-2.0975,-0.034514,-0.0015272,0.01405,-18.42,31.56,-10.8
3.7047,-8.9486,-2.0703,-0.03207,0.0027489,0.017104,-18.36,31.5,-10.56
3.7456,-8.8941,-2.0839,-0.035736,0.000305,0.012217,-18.3,31.56,-10.56
3.7184,-8.8805,-2.0567,-0.036957,0.0042761,0.011301,-18.18,31.5,-10.68
3.6911,-8.8941,-2.0975,-0.04215,-0.000305,0.013744,-18.3,31.68,-10.86
3.6639,-8.8941,-2.1793,-0.042455,0.0018326,0.017104,-18.3,31.68,-10.86
3.6775,-8.9349,-2.1929,-0.036346,0.0012217,0.016799,-18.3,31.74,-10.86
3.6366,-8.8941,-2.0567,-0.04215,0.0064141,0.017104,-18.24,31.8,-10.86
3.6366,-8.8668,-2.0839,-0.039095,0.0082467,0.018631,-18.12,31.74,-10.74
3.623,-8.8668,-2.1248,-0.027794,0.0085521,0.014355,-18.24,31.62,-10.86
3.7047,-8.9213,-2.0839,-0.039706,0.012217,0.019242,-18.18,31.68,-10.74
3.6775,-8.8941,-2.1384,-0.035736,0.011912,0.014661,-18.36,31.62,-10.86
3.6366,-8.8941,-2.1112,-0.036652,0.012523,0.018631,-18.54,31.62,-10.8
3.7047,-8.8805,-2.0703,-0.040623,0.016799,0.021686,-18.66,31.68,-10.98
3.6366,-8.8805,-2.152,-0.040317,0.015577,0.016493,-18.66,31.74,-11.04
3.6911,-8.9349,-2.0703,-0.040928,0.012523,0.021686,-18.48,31.8,-10.86
3.6775,-8.9349,-2.0294,-0.033292,0.011301,0.021075,-18.54,31.86,-10.8
3.732,-8.9622,-2.0839,-0.0281,0.0051924,0.016493,-18.36,32.1,-10.98
3.6639,-8.9622,-2.0567,-0.036041,0.000611,0.016493,-18.24,31.86,-10.92
3.732,-8.9622,-2.0294,-0.033903,0.0079412,0.022602,-18.3,31.86,-11.1
3.7047,-8.8941,-2.0567,-0.034514,0.01741,0.027184,-18.3,32.1,-11.04
3.7184,-8.8668,-2.0567,-0.022297,0.013134,0.021686,-18.3,32.1,-11.22
3.732,-8.8532,-2.1112,-0.025045,-0.000611,0.022297,-18.24,32.1,-11.28
3.7047,-8.8941,-2.2474,-0.030543,0.0012217,0.01741,-18.24,32.04,-11.4
3.6366,-8.9349,-2.1248,-0.036652,0.0085521,0.013744,-18.24,32.1,-11.52
3.6775,-9.0303,-2.2201,-0.037568,0.012523,0.018021,-18.12,32.1,-11.52
3.6639,-8.9077,-2.0431,-0.039095,0.0058032,0.013439,-18.18,31.98,-11.46
3.6775,-8.8941,-2.0158,-0.036957,0.0015272,0.015272,-18.24,32.16,-11.28
3.6775,-8.8941,-2.0567,-0.035125,0.000916,0.013439,-18.06,32.04,-11.22
3.6094,-8.9349,-1.9341,-0.036346,0.007025,0.015577,-18.18,31.86,-11.1
3.6911,-8.8668,-2.0431,-0.033903,0.0024435,0.013134,-18.24,31.86,-11.1
3.623,-8.8941,-2.0567,-0.031154,0.0067195,0.02474,-18.12,31.8,-10.98
3.6911,-8.8668,-2.1248,-0.022602,0.0036652,0.015577,-18.18,31.86,-11.1
3.732,-8.9349,-2.1112,-0.036346,0.011606,0.018326,-18.18,31.86,-11.04
3.6366,-8.9077,-2.1929,-0.027489,0.009163,0.011912,-18.12,31.92,-10.86
3.6639,-8.9077,-2.0022,-0.034819,0.011606,0.01741,-18.06,31.98,-10.68
3.6503,-8.9213,-2.1248,-0.045815,0.0067195,0.010996,-18.18,31.8,-10.56
3.6639,-8.8668,-2.1248,-0.043677,0.014355,0.015882,-18.18,31.92,-10.5
3.6639,-8.9077,-2.0975,-0.041233,0.014966,0.015577,-18.3,31.86,-10.5
3.6366,-8.9213,-2.0567,-0.043982,0.014355,0.020159,-18.3,31.92,-10.62
3.732,-8.9622,-2.0567,-0.045815,0.011606,0.015882,-18.36,31.86,-10.8
3.7047,-8.8941,-2.1248,-0.040623,0.015272,0.013439,-18.54,31.92,-10.8
3.732,-8.9077,-2.0294,-0.038179,0.009163,0.013744,-18.66,32.04,-10.8
3.7047,-8.8941,-2.1248,-0.043066,0.013134,0.012217,-18.72,31.98,-10.92
3.6775,-8.8941,-2.1112,-0.044288,0.0085521,0.017104,-18.66,31.98,-10.86
3.7047,-8.9077,-2.0839,-0.040012,0.0051924,0.014661,-18.78,32.04,-11.1
3.7047,-8.9077,-2.1112,-0.032376,0.0048869,0.019242,-18.66,31.92,-11.28
3.6639,-8.8941,-2.0567,-0.038179,0.0094684,0.020464,-18.66,31.8,-11.28
3.6639,-8.826,-2.1248,-0.036652,0.014355,0.010996,-18.6,31.86,-11.4
3.7047,-8.9077,-2.0703,-0.033903,0.01069,0.019853,-18.6,31.74,-11.4
3.7047,-8.8805,-2.0567,-0.033292,0.0076358,0.014355,-18.66,31.74,-11.28
3.6911,-8.8941,-2.0567,-0.024435,0.0051924,0.0097738,-18.78,31.62,-11.4
3.6366,-8.9894,-2.0567,-0.038179,0.0048869,0.012523,-18.72,31.68,-11.46
3.6503,-8.9077,-2.1248,-0.040317,0.017104,0.017104,-18.6,31.5,-11.4
3.7728,-8.8805,-2.0703,-0.034514,0.010079,0.025351,-18.66,31.56,-11.4
3.7728,-8.8941,-2.0567,-0.026878,-0.002138,0.016493,-18.66,31.56,-11.4
3.7184,-8.8805,-2.1929,-0.037263,-0.012828,0.0054978,-18.66,31.56,-11.34
3.7047,-8.9213,-2.1248,-0.036346,-0.011301,0.0094684,-18.72,31.56,-11.28
3.6366,-8.8941,-2.0839,-0.035736,-0.011301,0.014966,-18.84,31.56,-11.22
3.6775,-8.8941,-2.0431,-0.03543,-0.0054978,0.0045815,-18.72,31.62,-11.22
3.7047,-8.9077,-2.0703,-0.031154,-0.0033598,0.015882,-18.78,31.68,-11.28
3.6775,-8.9213,-2.1248,-0.028711,-0.0061087,0.01069,-18.48,31.74,-11.28
3.6639,-8.8805,-2.1384,-0.036041,-0.010079,0.011301,-18.48,31.8,-11.34
3.5685,-8.9213,-2.0431,-0.038485,0.0015272,0.010079,-18.3,31.86,-11.4
3.6503,-8.9077,-2.0839,-0.029322,0.000305,0.011606,-18.24,31.92,-11.4
3.6366,-8.9349,-2.0431,-0.025045,0.0061087,0.01741,-18.3,31.98,-11.28
3.6639,-8.9349,-2.0839,-0.034514,0.01069,0.015882,-18.24,31.98,-11.28
3.7047,-8.9349,-2.1384,-0.031765,0.011301,0.0073304,-18.12,31.98,-11.34
3.7728,-8.9349,-2.152,-0.043066,0.0085521,0.010385,-18.18,32.04,-11.4
3.7047,-8.8941,-2.152,-0.041233,0.002138,0.01069,-18.12,32.04,-11.34
3.7047,-8.9213,-2.0975,-0.04215,0.0082467,0.01069,-18.12,32.04,-11.22
3.7184,-8.9486,-2.152,-0.043066,-0.000305,0.015577,-18.24,32.1,-11.22
3.7047,-8.8941,-2.0158,-0.043371,0.0018326,0.011606,-18.36,31.86,-11.1
3.7047,-8.9894,-1.9613,-0.03146,-0.0058032,0.014966,-18.6,31.86,-11.22
3.623,-8.9349,-2.0567,-0.03879,-0.0054978,0.009163,-18.54,31.86,-11.22
3.6639,-8.9077,-2.152,-0.037568,-0.007025,0.01741,-18.72,31.86,-11.1
3.6911,-8.826,-2.1384,-0.026878,-0.0085521,0.012523,-18.84,31.68,-11.04
3.6775,-8.8805,-2.1248,-0.037874,-0.0061087,0.013439,-18.78,31.62,-11.04
3.8001,-8.8124,-1.9341,-0.029016,-0.002138,0.0088575,-18.78,31.5,-10.92
3.7456,-8.8941,-2.0294,-0.033903,0.0015272,0.01405,-18.78,31.62,-10.92
3.7184,-8.8941,-2.0839,-0.036957,0.0051924,0.019242,-18.84,31.62,-10.92
3.732,-8.8941,-2.1248,-0.035125,0.000916,0.01741,-18.84,31.62,-10.98
3.732,-8.9622,-2.0839,-0.030238,-0.0042761,0.018631,-18.78,31.62,-10.98
3.8001,-8.9213,-2.0703,-0.031765,-0.0061087,0.016799,-18.66,31.68,-11.16
3.7592,-8.8532,-2.0839,-0.025045,-0.020464,0.012523,-18.72,31.86,-10.98
3.7456,-8.9213,-2.152,-0.027489,-0.026267,0.012523,-18.66,31.92,-10.92
3.6639,-8.9486,-2.1384,-0.034514,-0.019853,0.013744,-18.66,31.92,-10.92
3.6775,-8.8941,-2.0703,-0.03146,-0.011606,0.019242,-18.72,31.86,-10.8
3.6775,-8.8396,-2.0567,-0.02474,-0.023518,0.018631,-18.6,31.92,-10.8
3.6775,-8.8396,-2.0567,-0.02138,-0.032987,0.014661,-18.6,32.04,-10.92
3.732,-8.9077,-2.1112,-0.024435,-0.029322,0.017715,-18.48,32.04,-10.98
3.6911,-8.9077,-2.1248,-0.02138,-0.02138,0.0073304,-18.48,31.74,-10.86
3.7184,-8.9349,-2.0703,-0.023824,-0.024435,0.010385,-18.42,31.74,-10.8
3.7047,-8.9077,-2.152,-0.029932,-0.019548,0.0094684,-18.48,31.74,-10.62
3.732,-8.8668,-2.0703,-0.021991,-0.031154,0.010385,-18.42,31.74,-10.68
3.6911,-8.8805,-2.1248,-0.017715,-0.033903,0.013744,-18.42,31.68,-10.62
3.7047,-8.9077,-2.0703,-0.021991,-0.022602,0.011912,-18.24,31.68,-10.62
3.6775,-8.8668,-2.1248,-0.025351,-0.022297,0.0079412,-17.94,31.68,-10.56
3.6775,-8.9486,-2.1248,-0.023518,-0.030238,0.02138,-17.94,31.74,-10.74
3.6639,-8.9077,-2.0567,-0.010385,-0.025962,0.012217,-17.76,31.74,-10.86
3.6911,-8.9213,-2.1384,-0.021686,-0.016493,0.018937,-17.88,31.86,-10.86
3.7184,-8.9349,-2.152,-0.025656,-0.011301,0.021075,-17.88,31.92,-10.92
3.732,-8.8805,-2.0839,-0.026573,-0.013439,0.018631,-18.0,31.92,-10.86
3.6639,-8.8941,-2.2201,-0.032376,-0.01069,0.018631,-18.18,31.98,-10.86
3.6366,-8.9213,-2.152,-0.029016,-0.012523,0.01405,-18.18,31.98,-10.8
3.7047,-8.9349,-2.0839,-0.029322,-0.014661,0.020159,-18.18,31.98,-10.86
3.732,-8.8941,-2.0703,-0.027794,-0.0094684,0.014661,-18.24,31.98,-10.86
3.7728,-8.9894,-2.1112,-0.021686,-0.012523,0.011301,-18.12,32.04,-10.86
3.7047,-8.8941,-2.0975,-0.025351,-0.0067195,0.015272,-18.3,32.04,-10.8
3.6503,-8.9349,-2.0431,-0.031765,-0.007025,0.014966,-18.36,31.92,-10.86
3.7047,-8.9486,-2.0567,-0.024435,-0.0036652,0.011912,-18.42,31.86,-10.74
3.6911,-8.8941,-2.0703,-0.023824,0.0054978,0.012828,-18.6,31.92,-10.62
3.7047,-8.9894,-2.0975,-0.023824,0.0033598,0.0067195,-18.54,31.8,-10.62
3.6366,-8.8805,-2.0703,-0.026267,0.000916,0.016188,-18.6,31.8,-10.56
3.7047,-8.8805,-2.0839,-0.031154,-0.0015272,0.0085521,-18.54,31.74,-10.62
3.6775,-8.9349,-2.0975,-0.03146,0.0030543,0.018631,-18.42,31.92,-10.74
3.7047,-8.9077,-2.0294,-0.026878,-0.0027489,0.021075,-18.36,31.98,-10.8
3.7047,-8.8941,-2.0975,-0.026573,-0.0088575,0.014966,-18.3,31.98,-10.8
3.7047,-8.8941,-2.0975,-0.026267,-0.017104,0.016493,-18.3,31.98,-10.86
3.6366,-8.9894,-2.1248,-0.022297,-0.013134,0.010996,-18.18,31.92,-10.8
3.6366,-8.9077,-2.0839,-0.032376,-0.0048869,0.019242,-18.18,31.98,-10.86
3.6366,-8.9077,-2.1112,-0.018631,0.0030543,0.019853,-18.3,32.1,-10.98
3.7184,-8.8668,-2.2474,-0.02138,-0.010996,0.023824,-18.3,32.16,-11.04
3.6366,-8.8532,-2.152,-0.024129,-0.02138,0.011301,-18.24,32.16,-11.1
3.7047,-8.8396,-2.2201,-0.021686,-0.012523,0.010385,-18.24,32.1,-11.16
3.732,-8.9349,-2.0431,-0.03146,-0.012523,0.0085521,-18.24,32.16,-11.04
3.6094,-9.0303,-2.1112,-0.032681,-0.010079,0.011912,-18.36,32.1,-10.98
3.732,-8.9486,-2.0567,-0.030543,-0.0079412,0.010079,-18.3,31.92,-10.92
3.7047,-8.9349,-2.0567,-0.018021,-0.017104,0.014661,-18.36,31.74,-10.98
3.7592,-8.9213,-2.0703,-0.022297,-0.012217,0.015882,-18.36,31.74,-10.92
3.6639,-8.8941,-2.1248,-0.016799,-0.01741,0.01405,-18.54,31.68,-10.74
3.7184,-8.8668,-2.0431,-0.018326,-0.016799,0.014355,-18.54,31.68,-10.86
3.5822,-8.9349,-2.1384,-0.016799,-0.017104,0.016188,-18.6,31.62,-10.86
3.6366,-8.8941,-2.0294,-0.025962,-0.0067195,0.020159,-18.54,31.74,-10.74
3.6775,-8.9349,-2.1248,-0.030543,-0.0012217,0.024129,-18.6,31.56,-10.8
3.7184,-8.9349,-2.0839,-0.024129,-0.0042761,0.016799,-18.6,31.74,-10.74
3.6775,-8.9213,-2.0158,-0.033598,0.0012217,0.015577,-18.54,31.74,-10.56
3.6775,-8.9349,-2.2065,-0.040317,0.0064141,0.018021,-18.3,31.86,-10.56
3.732,-8.9213,-2.2474,-0.035736,0.0048869,0.021686,-18.3,32.04,-10.56
3.6775,-8.9622,-2.2201,-0.030543,0.0012217,0.016188,-18.3,32.04,-10.44
3.732,-8.8941,-2.0567,-0.038485,0.002138,0.019242,-18.3,32.1,-10.44
3.6775,-8.9077,-2.1384,-0.039095,0.0076358,0.022907,-18.3,32.16,-10.5
3.732,-8.9622,-2.0839,-0.039095,0.0039706,0.020159,-18.06,32.28,-10.56
3.6911,-8.8805,-2.0839,-0.027794,-0.0030543,0.018631,-18.18,32.34,-10.56
3.6094,-8.8532,-2.0703,-0.032987,-0.0018326,0.012828,-18.12,32.28,-10.74
3.6911,-8.9213,-2.0839,-0.027184,0.000611,0.017715,-18.24,32.22,-10.62
3.6503,-8.9213,-2.0975,-0.038179,-0.000305,0.019548,-18.06,32.22,-10.56
3.7728,-8.9486,-2.0567,-0.033598,-0.0027489,0.017104,-17.94,31.92,-10.68
3.6775,-8.8805,-2.0567,-0.02474,-0.0058032,0.018631,-18.0,31.92,-10.92
3.6366,-8.8941,-2.1112,-0.030849,-0.0036652,0.022907,-18.24,31.68,-10.92
3.6366,-8.9213,-2.1248,-0.034819,0.0042761,0.023824,-18.24,31.56,-10.92
3.5685,-8.8805,-2.0975,-0.033598,-0.0051924,0.017715,-18.18,31.62,-11.04
3.623,-8.8668,-2.0431,-0.026573,-0.015272,0.018021,-18.06,31.5,-11.1
3.6775,-8.9758,-2.0022,-0.03543,-0.0012217,0.019548,-18.06,31.5,-11.04
3.6366,-8.9894,-2.0703,-0.026573,0.0036652,0.017104,-18.06,31.38,-11.04
3.6775,-8.9077,-2.1248,-0.030238,0.0045815,0.02474,-18.18,31.38,-11.04
3.6366,-8.9349,-2.0567,-0.025351,-0.0094684,0.020769,-18.24,31.32,-10.92
3.6366,-8.8668,-1.9886,-0.023213,-0.0051924,0.01741,-18.3,31.26,-11.04
3.6366,-8.9213,-2.1248,-0.03207,0.0067195,0.013134,-18.36,31.32,-11.16
3.7456,-8.9349,-2.0703,-0.036041,0.011301,0.016493,-18.48,31.38,-11.16
3.732,-8.9213,-2.152,-0.044593,0.0073304,0.013134,-18.48,31.5,-11.04
3.6503,-8.8941,-2.0567,-0.030238,-0.000916,0.014966,-18.48,31.56,-11.16
3.7592,-8.9622,-1.975,-0.023213,-0.0051924,0.01405,-18.36,31.62,-11.22
3.6366,-8.9349,-2.1384,-0.029932,-0.000916,0.013439,-18.48,31.68,-11.16
3.6094,-8.9758,-2.0703,-0.034819,0.0094684,0.0048869,-18.48,31.68,-11.04
3.6094,-8.9213,-2.0839,-0.036041,0.0082467,0.009163,-18.54,31.74,-11.04
3.6094,-8.8941,-2.0567,-0.032681,0.011606,0.019548,-18.66,31.74,-11.04
3.6775,-8.9486,-2.0431,-0.030849,0.011301,0.023518,-18.48,31.74,-10.86
3.6911,-8.9758,-2.1248,-0.03146,0.011301,0.018326,-18.48,31.86,-10.86
3.7184,-8.9349,-2.2201,-0.039706,0.01741,0.014355,-18.48,31.98,-10.86
3.732,-8.8396,-2.1384,-0.037568,0.018326,0.0058032,-18.42,31.98,-10.86
3.732,-8.8941,-2.0839,-0.04612,0.016493,0.0036652,-18.42,32.04,-10.8
3.732,-8.9622,-2.0839,-0.044593,0.013439,0.012217,-18.36,32.1,-10.8
3.7184,-8.8941,-2.0703,-0.046731,0.0094684,0.013744,-18.3,32.16,-10.62
3.7047,-8.8668,-2.1248,-0.040012,0.0048869,0.018937,-18.42,32.16,-10.68
3.7728,-8.9077,-2.0431,-0.033292,0.002138,0.018631,-18.3,32.1,-10.62
3.6366,-9.0575,-2.1793,-0.041844,-0.0039706,0.013134,-18.48,31.98,-10.44
3.6366,-8.9622,-2.1656,-0.044288,0.000916,0.016799,-18.42,32.04,-10.5
3.7047,-8.9349,-2.0839,-0.043982,0.0015272,0.014966,-18.42,32.04,-10.5
3.7047,-8.8941,-2.0839,-0.042761,0.011606,0.018937,-18.3,31.92,-10.5
3.7047,-8.9213,-2.0703,-0.043982,0.0054978,0.014355,-18.24,31.92,-10.5
3.6775,-8.9622,-2.1248,-0.039706,0.0076358,0.017715,-18.24,31.8,-10.62
3.6775,-8.8941,-2.0839,-0.041539,0.010385,0.01741,-18.12,31.98,-10.56
3.7047,-8.9486,-2.1248,-0.03879,0.0076358,0.014661,-18.24,32.04,-10.68
3.6911,-8.9349,-2.1112,-0.041844,0.0061087,0.015882,-18.24,31.98,-10.8
3.732,-8.9349,-2.1248,-0.030849,0.0048869,0.016493,-18.24,32.04,-10.68
3.623,-8.9213,-2.1656,-0.045204,0.0076358,0.018937,-18.18,32.1,-10.56
3.623,-8.9349,-2.1248,-0.032987,0.018937,0.018937,-18.18,32.04,-10.68
3.6639,-9.0167,-2.0839,-0.032376,0.017715,0.029932,-18.12,32.22,-10.8
3.6775,-8.8941,-2.1248,-0.029932,0.011301,0.021991,-18.12,32.22,-10.8
3.7184,-8.8396,-2.0839,-0.031765,-0.0033598,0.019548,-18.24,32.22,-10.86
3.7184,-8.9077,-2.2201,-0.032376,-0.0036652,0.013744,-18.36,32.28,-10.86
3.7047,-8.9349,-2.1929,-0.037568,-0.000916,0.014355,-18.42,32.4,-10.98
3.6775,-8.8532,-2.152,-0.036957,-0.0030543,0.01741,-18.42,32.28,-10.98
3.7047,-8.9077,-2.0703,-0.028405,-0.0042761,0.01741,-18.54,32.28,-11.1
3.6911,-8.9486,-2.0431,-0.03146,-0.0024435,0.023518,-18.6,32.22,-10.86
3.7047,-8.9213,-2.0839,-0.032987,0.000305,0.026267,-18.48,32.16,-10.8
3.7184,-8.8941,-2.0703,-0.033292,-0.0027489,0.015272,-18.42,32.22,-10.8
3.6775,-8.9213,-2.0431,-0.035736,-0.0045815,0.018631,-18.54,32.1,-10.98
3.732,-8.8668,-2.0294,-0.030849,-0.0033598,0.025351,-18.6,32.28,-11.04
3.6775,-8.9349,-2.152,-0.020464,-0.0027489,0.027794,-18.6,32.34,-11.04
3.7047,-8.8941,-2.1248,-0.02474,-0.0085521,0.029932,-18.54,32.28,-10.98
3.732,-8.9349,-2.1929,-0.029322,0.0045815,0.027184,-18.42,32.22,-10.98
3.732,-8.9349,-2.0839,-0.03146,0.0085521,0.01405,-18.48,32.22,-11.22
3.732,-8.9077,-2.1248,-0.040012,0.0067195,0.02138,-18.6,32.22,-10.8
3.6366,-8.9077,-2.0567,-0.045204,0.0088575,0.019242,-18.6,32.16,-10.86
3.6639,-8.8941,-2.0703,-0.039095,0.01069,0.018326,-18.54,32.1,-10.8
3.6775,-8.8668,-2.0839,-0.035736,0.0085521,0.017104,-18.6,31.98,-10.92
3.6775,-8.9077,-2.0294,-0.029016,0.0036652,0.013744,-18.66,32.1,-10.98
3.6366,-8.8941,-2.1929,-0.027184,0.0024435,0.012828,-18.78,32.04,-10.98
3.6094,-8.9077,-2.152,-0.030849,0.0051924,0.020769,-18.66,32.16,-11.16
3.6639,-8.9077,-2.1248,-0.029627,0.0036652,0.018021,-18.6,32.1,-11.16
3.623,-8.9349,-2.1248,-0.043371,0.007025,0.02138,-18.66,32.04,-11.28
3.6775,-8.9213,-2.0703,-0.03543,0.0073304,0.016188,-18.72,32.1,-11.34
3.6094,-8.9349,-2.0431,-0.0281,0.0045815,0.018021,-18.66,32.1,-10.98
3.7184,-8.9349,-2.0703,-0.027184,0.0030543,0.021686,-18.6,32.16,-11.04
3.7184,-8.9349,-2.0567,-0.029627,0.010079,0.019548,-18.54,32.16,-11.16
3.6775,-8.9077,-2.1112,-0.032681,0.0036652,0.025962,-18.66,32.16,-11.1
3.6639,-8.9213,-2.152,-0.025045,-0.002138,0.020464,-18.66,32.1,-11.16
3.6639,-8.9894,-2.1248,-0.03146,-0.0036652,0.017104,-18.6,32.16,-11.16
3.6911,-8.9486,-2.152,-0.030238,-0.0015272,0.014661,-18.6,32.1,-11.16
3.6775,-8.9213,-2.0294,-0.043371,0.0054978,0.020769,-18.6,32.16,-11.22
3.6094,-8.9213,-2.0839,-0.041539,0.01405,0.026878,-18.54,32.04,-11.04
3.6094,-8.8941,-2.0294,-0.041844,0.019853,0.022602,-18.48,31.98,-10.98
3.732,-8.8805,-2.0975,-0.030849,0.0067195,0.021075,-18.3,32.04,-10.98
3.6775,-8.9213,-2.152,-0.027794,0.000305,0.016188,-18.3,32.1,-10.86
3.7456,-8.9349,-2.1384,-0.034819,0.0054978,0.012523,-18.54,32.04,-11.22
3.6366,-8.8805,-2.1112,-0.046426,0.011606,0.013744,-18.48,31.98,-11.22
3.6911,-8.8668,-2.0567,-0.043982,0.012217,0.013134,-18.36,32.1,-11.22
3.732,-8.9077,-2.0294,-0.037263,0.0061087,0.012217,-18.12,32.16,-11.22
3.6775,-8.9077,-2.0839,-0.045509,0.0061087,0.022602,-18.18,32.1,-11.16
3.7184,-8.9486,-2.0567,-0.032681,0.000305,0.014355,-18.12,32.1,-11.16
3.6366,-8.8941,-2.1112,-0.045815,0.0027489,0.012828,-18.12,31.86,-11.4
3.6639,-8.9077,-2.0839,-0.030238,0.0030543,0.018631,-18.06,31.74,-11.34
3.6503,-8.8668,-1.9886,-0.029322,0.0015272,0.019853,-18.12,31.68,-11.46
3.7184,-8.9486,-2.0839,-0.0281,0.011301,0.022907,-18.3,31.68,-11.64
3.7592,-8.8941,-2.1384,-0.032681,0.0094684,0.019242,-18.18,31.62,-11.64
3.7047,-8.8941,-2.0975,-0.036041,0.0088575,0.0094684,-18.12,31.5,-11.64
3.7047,-8.9758,-2.1929,-0.037874,0.013439,0.0030543,-17.88,31.56,-11.46
3.6366,-8.9486,-2.2201,-0.041539,0.011606,0.0079412,-17.88,31.56,-11.4
3.6366,-8.8941,-2.1384,-0.050702,0.015272,0.012217,-17.94,31.44,-11.22
3.6503,-8.9622,-2.0703,-0.037263,0.013744,0.017715,-18.0,31.44,-11.34
3.7184,-8.9758,-2.0294,-0.037568,0.013744,0.01405,-18.0,31.44,-11.4
3.6639,-8.9622,-2.1929,-0.029932,0.013134,0.016493,-18.06,31.5,-11.28
3.6911,-8.8668,-2.0975,-0.04215,0.01069,0.018326,-17.88,31.68,-11.16
3.732,-8.8396,-2.0839,-0.039401,0.0094684,0.018631,-18.0,31.8,-11.1
3.6775,-8.9077,-2.0431,-0.043371,0.0097738,0.023213,-18.12,31.8,-11.04
3.6775,-8.9486,-2.1248,-0.042761,0.01069,0.020464,-18.18,31.86,-10.86
3.7047,-8.9758,-2.0294,-0.034208,0.01069,0.018326,-18.24,31.92,-10.8
3.6775,-8.9894,-2.0975,-0.025656,0.014661,0.019242,-18.3,31.98,-10.8
3.6094,-8.9077,-2.0703,-0.043677,0.018631,0.021686,-18.3,31.86,-10.86
3.6503,-8.8941,-2.0431,-0.035125,0.029016,0.021991,-18.3,31.92,-10.86
3.732,-8.9077,-2.0839,-0.034514,0.02474,0.022907,-18.3,31.86,-10.86
3.7047,-8.9622,-2.1793,-0.032376,0.018631,0.016493,-18.24,31.86,-10.68
3.7592,-8.9622,-2.0975,-0.026573,0.013439,0.025656,-18.24,31.86,-10.68
3.732,-8.9758,-2.1384,-0.024435,0.0012217,0.017104,-18.42,31.62,-10.8
3.6911,-8.9622,-2.152,-0.030238,-0.0018326,0.016493,-18.6,31.62,-10.92
3.6639,-9.0031,-2.0975,-0.036346,0.0015272,0.023824,-18.36,31.68,-11.16
3.732,-8.8941,-2.1384,-0.036652,0.0030543,0.026878,-18.36,31.68,-11.1
3.7184,-8.9213,-2.0567,-0.022602,-0.016493,0.021991,-18.3,31.56,-11.1
3.6911,-8.9349,-2.0839,-0.018631,-0.019548,0.020769,-18.3,31.5,-11.22
3.6775,-8.9077,-2.0567,-0.024129,-0.013439,0.01741,-18.48,31.74,-11.16
3.6775,-8.9349,-2.0839,-0.034208,-0.0067195,0.011606,-18.48,31.8,-11.16
3.6775,-8.9349,-2.0567,-0.033598,-0.0048869,0.018326,-18.3,31.74,-11.16
3.6911,-8.9894,-2.0839,-0.029016,-0.0088575,0.019853,-18.3,31.68,-11.22
3.6775,-8.8941,-2.0839,-0.029016,-0.010079,0.025351,-18.24,31.86,-11.4
3.6366,-8.8805,-2.0567,-0.029016,-0.010079,0.016493,-18.18,31.74,-11.34
3.6775,-8.9349,-2.0158,-0.026573,-0.0079412,0.015272,-18.18,31.8,-11.34
3.6503,-8.9349,-2.0839,-0.029016,-0.013439,0.018326,-17.82,31.92,-11.22
3.6911,-8.9758,-2.0567,-0.026878,-0.010079,0.022297,-17.94,31.98,-11.16
3.6775,-8.9622,-2.0703,-0.032376,-0.0054978,0.018937,-17.94,31.8,-11.28
3.6775,-8.9622,-2.0975,-0.032681,-0.002138,0.018631,-18.06,32.1,-11.22
3.732,-8.9622,-2.2201,-0.027794,-0.0036652,0.011606,-18.06,32.04,-11.34
3.6366,-8.9213,-2.0839,-0.043066,-0.0039706,0.012828,-18.12,32.04,-11.22
3.6775,-8.9213,-2.1248,-0.043066,0.0039706,0.018326,-18.3,32.04,-11.22
3.732,-8.8941,-2.0567,-0.04612,0.000611,0.020159,-18.48,32.22,-11.04
3.6775,-8.9894,-2.0567,-0.041844,0.0054978,0.015577,-18.54,32.1,-11.04
3.7592,-8.8941,-1.9613,-0.043982,-0.0033598,0.014966,-18.6,32.04,-11.1
3.6503,-8.8941,-2.0839,-0.037568,-0.0036652,0.013439,-18.6,32.34,-11.1
3.6775,-8.9894,-2.0567,-0.028711,-0.010079,0.015577,-18.54,32.4,-11.16
3.6775,-8.8805,-2.0567,-0.031765,0.000305,0.01069,-18.78,32.22,-11.22
3.6366,-8.8941,-2.1248,-0.030543,-0.0061087,0.02138,-18.84,32.1,-10.98
3.6503,-8.8941,-2.1112,-0.035125,-0.010996,0.015272,-18.84,32.16,-11.1
3.732,-8.9349,-2.1112,-0.029016,-0.013439,0.018631,-18.84,31.92,-11.28
3.7456,-8.8805,-2.0975,-0.033292,-0.014966,0.016188,-18.78,31.86,-11.16
3.6775,-8.9349,-2.1384,-0.034514,-0.019548,0.016799,-18.66,31.74,-11.22
3.6775,-8.9894,-2.0158,-0.034514,-0.020769,0.014661,-18.54,31.74,-11.28
3.6775,-8.9213,-2.0839,-0.029932,-0.021991,0.011301,-18.42,31.5,-11.28
3.6911,-8.8941,-2.1248,-0.032987,-0.015577,0.0067195,-18.48,31.5,-11.46
3.732,-8.8805,-2.0975,-0.0281,-0.0097738,0.014355,-18.48,31.56,-11.28
3.6366,-8.8941,-2.0703,-0.039401,-0.0067195,0.011606,-18.24,31.32,-11.22
3.6094,-8.9213,-2.0839,-0.03543,-0.0042761,0.0085521,-18.24,31.08,-11.04
3.5685,-8.8941,-2.0567,-0.032376,-0.0048869,0.0097738,-18.12,31.14,-11.04
3.6094,-8.9349,-2.1248,-0.03146,0.0024435,0.015272,-18.12,31.08,-10.86
3.6503,-8.9894,-2.0567,-0.036041,0.0018326,0.015577,-18.06,31.26,-10.8
3.6775,-8.9077,-2.1248,-0.037874,0.0048869,0.015882,-17.94,31.32,-10.86
3.6639,-8.8668,-2.1248,-0.023824,-0.0033598,0.023824,-18.06,31.32,-10.68
3.6503,-8.8532,-2.3018,-0.017715,-0.018326,0.017715,-18.0,31.5,-10.86
3.7047,-8.8668,-2.1384,-0.022602,-0.024435,0.016493,-18.06,31.44,-10.86
3.732,-8.8941,-2.0703,-0.028405,-0.016493,0.0067195,-17.94,31.68,-10.74
3.6639,-8.9213,-2.2065,-0.030849,-0.013439,0.0045815,-17.94,31.8,-10.86
3.6775,-8.8941,-2.0839,-0.032681,-0.018021,0.000916,-18.0,32.04,-10.98
3.6775,-8.9213,-2.0839,-0.02474,-0.023824,0.013744,-18.06,32.1,-11.1
3.7047,-8.9077,-2.152,-0.026267,-0.029016,0.0094684,-17.94,31.98,-10.92
3.6094,-8.9349,-2.0431,-0.03146,-0.023213,0.0097738,-18.0,31.92,-10.86
