Ax,Ay,Az,Gx,Gy,Gz,Mx,My,Mz
4.018,-9.0031,-0.64016,-0.05681,-0.013744,0.083078,-4.26,41.34,-12.72
4.0044,-8.9758,-0.61292,-0.045509,-0.017104,0.078802,-4.26,41.34,-12.9
4.0997,-9.0167,-0.6674,-0.042761,-0.011606,0.067501,-4.26,41.22,-12.9
4.0316,-9.0439,-0.65378,-0.041233,-0.012523,0.07086,-4.32,41.1,-13.02
4.0725,-9.0303,-0.68102,-0.037568,-0.0042761,0.056505,-4.44,41.1,-12.78
4.0044,-8.9758,-0.62654,-0.037874,0.0051924,0.049175,-4.32,40.92,-12.72
3.9771,-9.0031,-0.8036,-0.043982,0.011301,0.03543,-4.26,40.86,-12.6
4.0044,-9.0575,-0.72188,-0.050091,0.026573,0.03207,-4.26,40.8,-12.6
3.9635,-8.9213,-0.61292,-0.049786,0.068111,0.029932,-4.08,40.68,-12.66
3.9908,-8.826,-0.54481,-0.029627,0.12339,0.029932,-3.96,40.68,-12.66
4.0044,-8.7443,-0.57205,0.0061087,0.17104,0.0045815,-4.08,40.56,-12.72
4.0589,-8.431,-0.6674,0.049175,0.17746,-0.01069,-4.14,40.56,-12.72
4.018,-8.3084,-0.74912,0.11729,0.13164,-0.024435,-4.14,40.5,-12.9
4.1814,-8.1177,-0.84446,0.16188,-0.014355,-0.029322,-4.08,40.5,-12.84
4.127,-8.1858,-0.85808,0.15363,-0.092852,-0.038179,-4.02,40.68,-12.84
4.0589,-8.5672,-0.83084,0.10018,-0.11912,-0.047037,-3.96,40.74,-12.84
3.8546,-8.8668,-0.72188,0.015272,-0.059559,-0.05284,-3.9,40.68,-12.84
3.8001,-9.3572,-0.46309,-0.077885,0.077274,-0.057116,-4.02,40.8,-12.84
3.7728,-9.507,-0.44947,-0.16493,0.26114,-0.069944,-3.96,40.86,-12.9
3.8137,-9.4661,-0.36775,-0.21136,0.43707,-0.085827,-4.08,40.86,-12.96
3.8546,-9.3436,-0.21793,-0.23854,0.58735,-0.095906,-4.02,40.86,-13.08
3.9227,-9.2482,-0.068102,-0.21075,0.5959,-0.10018,-3.9,41.1,-13.2
3.9908,-9.2074,0.027241,-0.17257,0.55222,-0.074526,-3.78,41.16,-13.26
4.018,-9.1529,0.040861,-0.085827,0.43768,-0.016799,-3.66,41.1,-13.38
4.0316,-9.0439,0.12258,-0.050091,0.3879,0.009163,-3.42,41.16,-13.38
4.0589,-9.0848,-0.040861,0.011301,0.27825,0.051007,-3.42,41.16,-13.38
4.018,-8.9213,-0.31327,0.09896,0.11118,0.10965,-3.42,41.16,-13.38
4.1678,-9.0303,-0.36775,0.13286,0.011606,0.12095,-3.48,41.22,-13.38
4.0452,-8.9894,-0.44947,0.12859,-0.041539,0.12248,-3.48,41.28,-13.32
3.9363,-9.1256,-0.49033,0.10232,-0.019853,0.12309,-3.24,41.52,-13.32
3.9499,-9.1393,-0.50395,0.043371,0.064141,0.13073,-3.24,41.46,-13.5
3.9908,-9.0984,-0.61292,0.0067195,0.096517,0.13195,-3.12,41.4,-13.5
4.1678,-9.2074,-0.61292,-0.0024435,0.10232,0.12034,-3.06,41.52,-13.5
4.0725,-9.2891,-0.46309,-0.014355,0.1011,0.12462,-3.06,41.58,-13.44
4.0861,-9.2482,-0.55843,-0.016493,0.089797,0.12065,-2.94,41.64,-13.44
4.1951,-9.1665,-0.46309,-0.011606,0.036346,0.12217,-2.7,41.58,-13.38
4.1951,-9.1665,-0.46309,-0.014355,0.022297,0.12401,-2.7,41.58,-13.38
4.1814,-9.0712,-0.57205,-0.017104,-0.0076358,0.13347,-2.82,41.58,-13.44
4.2223,-9.1256,-0.57205,-0.018326,-0.029932,0.13561,-2.82,41.52,-13.56
4.1678,-9.1529,-0.47671,-0.040012,-0.040317,0.13561,-2.52,41.58,-13.74
4.1678,-9.2074,-0.57205,-0.06017,-0.037568,0.12584,-1.98,41.52,-13.92
4.2359,-9.1937,-0.54481,-0.07758,-0.035736,0.11484,-1.86,41.4,-14.1
4.2495,-9.1256,-0.49033,-0.084605,-0.033292,0.085216,-1.68,41.4,-14.1
4.2495,-9.0575,-0.46309,-0.10385,-0.043677,0.069944,-1.44,41.28,-14.16
4.2632,-9.0031,-0.36775,-0.11301,-0.059254,0.044288,-1.44,41.1,-13.98
4.2495,-9.0031,-0.42223,-0.12278,-0.066584,0.027184,-1.14,41.1,-14.04
4.127,-8.9758,-0.50395,-0.12401,-0.069944,-0.0064141,-0.78,41.28,-13.92
4.2223,-9.0303,-0.40861,-0.13928,-0.067806,-0.023213,-0.66,41.22,-13.74
4.1678,-9.0984,-0.36775,-0.14813,-0.050396,-0.05284,-0.9,41.46,-13.56
4.1542,-9.0984,-0.32689,-0.16463,-0.036652,-0.076358,-1.02,41.64,-13.56
4.1542,-9.112,-0.29965,-0.1689,-0.024435,-0.092241,-1.02,41.64,-13.38
4.2223,-9.0848,-0.24517,-0.16096,-0.0051924,-0.10507,-1.08,41.88,-13.26
4.1542,-9.0575,-0.25879,-0.14416,-0.0061087,-0.12584,-1.08,41.94,-13.26
4.1542,-8.8396,-0.21793,-0.13653,-0.011606,-0.15058,-1.14,41.94,-13.2
4.0997,-8.7306,-0.27241,-0.10721,-0.031765,-0.18143,-1.2,42.06,-13.2
4.0589,-8.826,-0.24517,-0.096517,-0.03543,-0.18326,-1.38,42.24,-13.26
4.0997,-8.826,-0.21793,-0.086437,-0.04612,-0.18692,-1.44,42.3,-13.38
4.0589,-8.8941,-0.31327,-0.069028,-0.051007,-0.18479,-1.8,42.24,-13.32
4.0316,-8.9622,-0.28603,-0.066584,-0.044288,-0.17379,-2.04,42.3,-13.38
4.018,-8.9486,-0.34051,-0.0562,-0.025962,-0.1573,-2.22,42.24,-13.5
4.127,-8.9622,-0.40861,-0.039706,-0.023824,-0.14447,-2.4,42.3,-13.44
4.0861,-9.0031,-0.43585,-0.038485,-0.029627,-0.13714,-2.4,42.3,-13.44
4.0861,-9.0303,-0.43585,-0.029627,-0.042761,-0.1292,-2.52,42.18,-13.44
3.9908,-8.9758,-0.34051,-0.026878,-0.043982,-0.1124,-2.76,42.06,-13.32
3.9908,-8.9622,-0.35413,-0.033598,-0.035125,-0.092546,-2.94,42.0,-13.32
4.0044,-8.9894,-0.36775,-0.029322,-0.020159,-0.078191,-2.82,42.06,-13.38
4.0452,-9.0167,-0.35413,-0.011606,-0.012523,-0.051313,-3.06,42.0,-13.32
4.0861,-8.9622,-0.32689,-0.0054978,-0.023213,-0.033903,-3.12,42.0,-13.26
4.0316,-9.0712,-0.44947,-0.010385,-0.034208,-0.018326,-3.24,41.88,-13.2
4.0589,-9.1665,-0.51757,-0.010385,-0.016493,-0.0036652,-3.48,42.06,-13.14
4.0589,-9.2755,-0.58567,-0.033903,0.029322,0.014355,-3.42,42.12,-13.08
4.0316,-9.3572,-0.6674,-0.047342,0.084299,0.0015272,-3.42,41.94,-12.9
4.127,-9.5615,-0.72188,-0.089797,0.15149,-0.010996,-3.54,42.06,-12.9
4.1542,-9.5479,-0.65378,-0.10171,0.18418,-0.032987,-3.66,42.06,-12.84
4.1406,-9.4117,-0.6674,-0.099266,0.17868,-0.032987,-3.72,42.12,-12.84
4.0997,-9.2618,-0.70826,-0.079718,0.14019,-0.029322,-3.78,42.12,-12.84
4.1678,-9.221,-0.76274,-0.060476,0.045509,0.016493,-3.78,42.06,-12.78
4.0997,-9.0712,-0.77636,-0.053451,-0.051313,0.050091,-4.14,42.06,-12.6
3.9499,-8.6762,-0.9398,-0.049786,-0.13653,0.090103,-3.96,42.18,-12.72
3.9499,-8.7034,-0.83084,-0.048258,-0.18998,0.12004,-3.9,42.18,-12.66
3.909,-8.6762,-0.78998,-0.058032,-0.19273,0.16616,-3.9,42.12,-12.54
3.9227,-8.8668,-0.8036,-0.090103,-0.14569,0.23274,-3.66,41.94,-12.36
4.018,-8.9894,-0.85808,-0.12828,-0.10599,0.25809,-3.6,41.88,-12.42
4.0861,-8.8396,-0.76274,-0.16249,-0.058032,0.27397,-3.54,41.82,-12.48
4.0997,-8.7851,-0.7355,-0.18326,0.014355,0.2645,-3.42,41.76,-12.36
4.1542,-8.7579,-0.65378,-0.20586,0.057421,0.24404,-3.3,41.58,-12.3
4.1406,-8.7851,-0.5993,-0.20403,0.088575,0.21564,-3.24,41.64,-12.3
4.2087,-8.6898,-0.43585,-0.19242,0.087354,0.18845,-3.0,41.64,-12.12
4.2768,-8.7306,-0.40861,-0.17257,0.05284,0.16768,-2.94,41.76,-12.0
4.2768,-8.8668,-0.40861,-0.15119,0.020464,0.17715,-2.82,41.76,-12.0
4.2632,-8.9758,-0.46309,-0.11454,0.018937,0.16249,-2.7,41.7,-11.82
4.2495,-8.9077,-0.31327,-0.099266,0.034208,0.14813,-2.46,41.64,-11.76
4.2768,-8.9486,-0.38137,-0.085216,0.03207,0.12767,-2.34,41.7,-11.64
4.3585,-9.1256,-0.54481,-0.047647,-0.013744,0.087965,-2.22,41.76,-11.7
4.3449,-9.1256,-0.57205,-0.023518,-0.050702,0.055589,-2.22,41.88,-11.7
4.2223,-8.9622,-0.76274,0.007025,-0.097738,0.025351,-2.04,42.18,-11.52
4.1133,-8.8668,-0.83084,0.029932,-0.13011,-0.024129,-1.98,42.3,-11.46
4.0452,-8.826,-0.83084,0.03879,-0.15944,-0.03879,-1.8,42.24,-11.46
3.9908,-8.9213,-0.89894,0.040012,-0.16218,-0.046426,-1.74,42.36,-11.22
3.8954,-9.0167,-0.92618,0.020464,-0.14569,-0.044593,-1.8,42.24,-11.16
3.8818,-9.0575,-0.96704,-0.010996,-0.11087,-0.018021,-1.74,42.3,-11.04
3.8682,-8.9894,-0.95342,-0.027184,-0.069944,0.0015272,-1.8,42.3,-11.22
3.8273,-9.0167,-1.0215,-0.035736,-0.046426,0.0085521,-1.86,42.3,-11.16
3.9363,-8.9349,-0.98067,-0.027489,-0.054672,0.011606,-1.98,42.24,-11.1
3.9771,-8.8805,-0.85808,-0.027794,-0.076358,0.022602,-1.98,42.3,-11.22
3.9908,-8.8941,-0.98067,-0.020769,-0.11454,0.029932,-1.92,42.36,-11.1
3.909,-8.9622,-0.92618,-0.019242,-0.12278,0.032681,-1.98,42.12,-11.22
3.8954,-9.0303,-1.0215,-0.011912,-0.12675,0.037568,-2.16,42.12,-11.4
3.8682,-9.1393,-1.0624,-0.025351,-0.11454,0.045509,-2.1,42.12,-11.34
3.8818,-9.1937,-1.0896,-0.051618,-0.07086,0.048869,-2.34,41.94,-11.46
3.8954,-9.1529,-1.0215,-0.058032,-0.058948,0.04948,-2.28,42.0,-11.46
3.909,-9.1937,-1.0624,-0.059865,-0.040012,0.04612,-2.22,41.94,-11.64
4.0452,-9.3163,-1.0896,-0.058032,-0.058643,0.012828,-2.22,41.88,-11.76
3.9363,-9.221,-1.1441,-0.058338,-0.079412,-0.0094684,-2.1,42.0,-11.52
3.8682,-9.1937,-1.185,-0.043066,-0.1014,-0.030543,-2.16,42.06,-11.64
3.8954,-8.9758,-1.0896,-0.04612,-0.15088,-0.03207,-2.22,42.0,-11.52
3.7728,-8.8668,-1.1577,-0.048258,-0.1744,-0.0079412,-2.28,42.0,-11.46
3.7728,-8.826,-1.1577,-0.046731,-0.18845,0.0079412,-2.34,42.0,-11.46
3.6911,-8.9622,-1.185,-0.068417,-0.15669,0.064446,-2.28,41.82,-11.4
3.7592,-8.9622,-1.076,-0.084605,-0.11515,0.096822,-2.22,41.88,-11.28
3.732,-9.0575,-1.0896,-0.11026,-0.067806,0.12431,-2.4,41.88,-11.4
3.8409,-9.1256,-1.0896,-0.13256,-0.042761,0.1124,-2.28,41.88,-11.22
3.8137,-9.1801,-0.92618,-0.12523,-0.036652,0.10507,-2.46,41.88,-11.04
3.909,-9.1393,-0.92618,-0.11729,-0.050396,0.10171,-2.52,42.12,-10.98
3.9363,-9.0984,-1.0079,-0.087659,-0.096517,0.080023,-2.46,42.0,-10.86
3.8954,-9.0575,-1.0351,-0.080023,-0.11393,0.061697,-2.52,41.88,-10.86
3.8001,-9.0439,-1.0624,-0.087048,-0.10171,0.043371,-2.4,41.94,-10.8
3.7047,-8.9758,-1.0624,-0.10018,-0.052229,0.036957,-2.22,42.06,-10.68
3.7728,-9.0303,-1.0215,-0.10965,-0.024435,0.0281,-2.28,41.94,-10.5
3.7047,-9.1256,-1.0215,-0.11668,-0.0064141,0.035736,-2.22,41.88,-10.44
3.7456,-9.0712,-0.99429,-0.10873,-0.0012217,0.041539,-2.16,42.0,-10.44
3.8001,-8.9894,-0.99429,-0.10415,-0.0054978,0.036652,-1.98,42.06,-10.26
3.7865,-8.9894,-0.89894,-0.08827,-0.011301,0.025656,-2.04,42.06,-10.2
3.732,-8.9486,-0.99429,-0.076053,-0.017715,-0.0033598,-2.04,42.24,-10.2
3.7456,-8.9486,-1.0624,-0.076664,-0.007025,-0.002138,-1.98,42.24,-10.2
3.7456,-8.9894,-1.0896,-0.062003,-0.0036652,-0.0073304,-1.98,42.12,-10.08
3.7592,-8.9349,-1.0624,-0.055283,-0.000305,-0.012523,-2.04,42.3,-9.84
3.8001,-8.9349,-1.076,-0.049786,-0.0027489,0.000305,-2.04,42.3,-9.84
3.8001,-9.0031,-1.1305,-0.042455,-0.013744,-0.000305,-2.1,42.36,-9.9
3.7592,-8.9758,-1.1169,-0.023824,-0.03146,0.0042761,-2.28,42.36,-9.84
3.8001,-9.0031,-1.1169,-0.019853,-0.033598,0.0051924,-2.34,42.3,-9.84
3.7728,-8.8668,-1.1441,-0.018631,-0.029322,0.0039706,-2.46,42.36,-10.08
3.8001,-8.9622,-1.3348,-0.018021,-0.024435,0.000916,-2.4,42.3,-10.02
3.7456,-8.9894,-1.2667,-0.023824,-0.014966,-0.0058032,-2.52,42.24,-10.08
3.7728,-8.9349,-1.185,-0.033903,-0.0067195,-0.013439,-2.46,42.36,-9.96
3.7728,-8.9349,-1.185,-0.041233,0.01741,-0.019853,-2.46,42.3,-9.84
3.6775,-8.8941,-1.1577,-0.048258,0.030238,-0.02474,-2.52,42.3,-9.84
3.7865,-8.9622,-1.076,-0.043677,0.045815,-0.020159,-2.64,42.24,-10.02
3.6775,-9.0031,-1.0624,-0.050702,0.051313,-0.025962,-2.52,42.12,-10.14
3.6775,-9.0575,-1.0624,-0.049786,0.071166,-0.03146,-2.7,42.12,-10.08
3.7047,-9.1801,-0.99429,-0.040623,0.089186,-0.036041,-2.52,42.06,-9.96
3.6639,-9.1937,-1.0351,-0.021991,0.11148,-0.036346,-2.46,42.12,-10.02
3.7728,-9.1937,-1.076,-0.0027489,0.10324,-0.038179,-2.4,42.12,-10.02
3.8001,-9.0575,-1.0624,0.012217,0.08094,-0.04612,-2.4,42.18,-9.96
3.7592,-9.0303,-1.1577,0.041539,0.029932,-0.040928,-2.4,42.18,-9.96
3.6911,-9.0303,-1.185,0.049786,0.016188,-0.026573,-2.4,42.24,-9.96
3.6639,-8.9486,-1.3212,0.04612,0.013134,-0.007025,-2.46,42.06,-10.14
3.623,-9.0303,-1.3212,0.037874,0.014661,0.025045,-2.4,42.06,-10.14
3.7047,-8.8805,-1.3076,0.015577,0.044593,0.059559,-2.28,42.06,-10.08
3.6775,-8.8941,-1.3484,0.0033598,0.047342,0.074526,-2.22,42.12,-9.9
3.7592,-8.9349,-1.2803,-0.009163,0.046731,0.092546,-2.4,42.12,-10.02
3.8682,-8.8941,-1.1986,-0.0073304,0.029932,0.098655,-2.4,42.24,-10.02
3.8818,-8.9486,-1.2122,-0.017715,0.024435,0.10629,-2.4,42.06,-10.26
3.9363,-9.0848,-1.185,-0.012523,0.014966,0.10629,-2.4,42.12,-10.26
3.9908,-9.1937,-1.185,-0.015272,0.014661,0.098655,-2.46,42.12,-10.26
3.9908,-9.1529,-1.2531,-0.0281,0.026573,0.082772,-2.28,42.18,-10.26
3.9908,-9.1256,-1.2122,-0.035125,0.035125,0.072998,-2.22,42.12,-10.2
4.0316,-9.1256,-1.1305,-0.043982,0.052534,0.032987,-2.1,42.3,-10.02
3.9635,-9.0984,-1.1713,-0.046426,0.065057,0.011912,-2.16,42.3,-9.9
4.018,-9.1665,-1.1305,-0.046426,0.066584,-0.0058032,-2.22,42.3,-9.84
4.0316,-9.0848,-1.1032,-0.043371,0.055283,-0.020769,-2.16,42.36,-9.96
4.0044,-9.0439,-1.0624,-0.040928,0.042761,-0.024435,-2.1,42.42,-10.08
3.9635,-8.9758,-1.0351,-0.033598,0.039401,-0.036346,-2.04,42.54,-10.02
3.8954,-8.9349,-1.0488,-0.033598,0.023213,-0.039401,-1.86,42.48,-10.14
3.8954,-8.9894,-0.98067,-0.021991,0.017104,-0.03207,-1.86,42.48,-10.14
3.8682,-8.9894,-1.1441,-0.032376,0.017715,-0.027489,-1.62,42.42,-10.08
3.8682,-8.9894,-1.1169,-0.022907,0.030238,-0.021686,-1.56,42.36,-10.02
3.8954,-8.9077,-1.1713,-0.039095,0.043066,-0.019853,-1.68,42.3,-10.08
3.9227,-8.9894,-1.0896,-0.043371,0.04948,-0.019853,-1.68,42.3,-10.14
3.9635,-8.9758,-1.1577,-0.045509,0.050091,-0.021075,-1.68,42.36,-10.14
3.9908,-8.9486,-1.0896,-0.047037,0.045204,-0.018937,-1.68,42.3,-10.32
4.0044,-8.8941,-1.1305,-0.043677,0.043982,-0.027489,-1.68,42.24,-10.44
4.018,-8.8805,-1.0624,-0.04948,0.050091,-0.033903,-1.8,42.24,-10.38
4.0316,-8.9077,-1.0351,-0.058643,0.057421,-0.044899,-2.04,42.18,-10.44
4.0861,-8.9213,-1.0624,-0.049786,0.056505,-0.06689,-1.98,42.0,-10.38
4.0316,-8.9622,-1.0896,-0.054367,0.0562,-0.07025,-2.1,42.06,-10.38
4.0861,-8.9622,-0.99429,-0.054367,0.06017,-0.082467,-2.22,41.88,-10.56
4.0725,-8.9894,-0.8717,-0.04948,0.065668,-0.09163,-2.46,42.0,-10.68
4.018,-8.9622,-0.95342,-0.047647,0.071166,-0.091935,-2.52,42.0,-10.86
3.9908,-9.0439,-0.89894,-0.040317,0.071166,-0.10507,-2.58,42.12,-10.8
4.0044,-9.0575,-0.96704,-0.036041,0.058948,-0.10751,-2.7,42.24,-10.92
3.9635,-9.0303,-1.0488,-0.026878,0.046731,-0.10721,-2.82,42.18,-11.04
3.9227,-8.8805,-0.99429,-0.018937,0.03146,-0.091935,-2.94,42.18,-10.98
3.9363,-8.9077,-0.99429,-0.011301,0.014966,-0.076358,-3.06,42.0,-11.1
3.8818,-8.9213,-1.0215,-0.014355,0.016188,-0.065057,-3.0,41.82,-11.16
3.9499,-8.9486,-1.0624,-0.01405,0.010385,-0.040317,-3.0,41.88,-11.04
3.8954,-9.0984,-1.076,-0.012523,0.0079412,-0.020769,-3.06,41.88,-10.98
3.9227,-9.0984,-1.0215,-0.01741,0.0018326,0.010079,-3.12,41.82,-10.92
3.9908,-9.0712,-1.0624,-0.0067195,-0.01069,0.027184,-3.18,42.06,-10.62
4.0316,-9.0575,-1.0351,-0.0048869,-0.025045,0.047647,-3.24,41.94,-10.5
4.0589,-8.9894,-1.0215,-0.0033598,-0.032376,0.058032,-3.3,41.88,-10.32
4.0316,-8.9758,-0.98067,-0.0033598,-0.019548,0.055894,-3.48,41.88,-10.2
4.0589,-8.9758,-1.0079,-0.021075,-0.023213,0.054978,-3.42,41.76,-10.14
4.0725,-8.9622,-0.99429,-0.025351,-0.019242,0.05284,-3.36,41.82,-9.96
3.9908,-8.9758,-0.96704,-0.027489,0.0048869,0.054978,-3.24,41.88,-9.96
4.0316,-8.9622,-0.89894,-0.033903,0.017104,0.0562,-3.3,41.94,-9.96
4.0725,-9.0303,-0.83084,-0.034819,0.018631,0.059865,-3.24,42.0,-10.02
4.0997,-8.9349,-0.8036,-0.015272,-0.0073304,0.064752,-3.06,41.94,-10.08
4.1133,-8.9622,-0.78998,-0.010385,-0.021075,0.067806,-3.12,42.0,-10.2
4.0316,-8.9758,-0.89894,-0.009163,-0.019853,0.064752,-3.12,41.94,-10.32
4.0589,-8.9349,-0.9398,-0.0030543,-0.020464,0.059254,-3.12,42.0,-10.5
4.1406,-8.9758,-0.85808,-0.0033598,-0.026878,0.058338,-3.12,41.88,-10.62
4.0861,-8.9077,-0.88532,-0.0076358,-0.034208,0.06017,-3.12,41.88,-10.8
4.127,-8.7579,-0.70826,0.002138,-0.078496,0.074526,-3.0,41.88,-11.04
4.2495,-8.5672,-0.50395,0.029016,-0.1576,0.090103,-3.0,42.0,-10.98
4.2223,-8.4991,-0.54481,0.071471,-0.25595,0.14172,-3.0,41.88,-10.98
4.1678,-8.9622,-0.61292,0.089797,-0.33201,0.19517,-3.0,41.94,-11.04
4.1133,-9.0439,-0.8036,0.093157,-0.28924,0.20097,-2.82,42.0,-11.1
4.0316,-9.1256,-0.8036,0.069028,-0.15272,0.18082,-2.82,42.0,-11.04
4.2223,-9.1256,-0.96704,0.048564,-0.024435,0.086743,-2.94,42.06,-11.04
4.2495,-9.1529,-0.99429,0.021991,0.053756,0.01069,-2.82,42.06,-11.1
4.3177,-9.221,-0.92618,0.027489,0.040317,-0.023518,-2.76,42.06,-10.98
4.2223,-9.1801,-0.96704,0.040928,0.012523,-0.12187,-2.7,42.0,-10.92
4.127,-9.1937,-1.1169,0.047953,-0.011606,-0.16249,-2.64,41.94,-10.92
4.0861,-9.221,-1.1577,0.047647,-0.023824,-0.18204,-2.82,41.88,-10.92
3.9499,-9.0712,-1.1577,0.026267,-0.01741,-0.18815,-2.88,41.94,-10.98
3.9499,-9.0167,-1.185,0.0042761,-0.020769,-0.16982,-2.82,41.82,-11.16
3.9635,-9.0303,-1.1713,-0.0067195,-0.025351,-0.16371,-2.82,41.88,-11.34
3.8137,-9.0167,-1.185,-0.03146,-0.029627,-0.12278,-3.06,41.7,-11.52
3.8682,-8.9622,-1.185,-0.047342,-0.029322,-0.099876,-3.12,41.58,-11.46
3.8273,-8.9077,-1.1169,-0.065057,-0.010385,-0.071471,-3.24,41.64,-11.46
3.8546,-8.9622,-1.0351,-0.064141,-0.020464,-0.04215,-3.36,41.52,-11.52
3.8682,-8.9758,-1.1169,-0.080634,-0.059254,0.013439,-3.6,41.58,-11.7
3.8546,-9.0031,-0.99429,-0.084605,-0.055283,0.023213,-3.54,41.64,-11.82
3.8546,-8.9894,-0.96704,-0.095906,-0.038179,0.057421,-3.66,41.58,-11.82
3.8818,-9.0439,-0.89894,-0.10018,-0.039095,0.072998,-3.6,41.58,-11.94
3.9908,-9.0575,-0.92618,-0.10629,-0.033292,0.068722,-3.42,41.58,-11.88
3.9908,-9.0031,-0.8036,-0.099571,-0.019548,0.073609,-3.42,41.4,-11.64
4.0316,-8.9894,-0.7355,-0.10385,-0.020159,0.071166,-3.54,41.52,-11.58
4.0316,-8.9213,-0.70826,-0.091324,-0.029322,0.063835,-3.66,41.46,-11.46
4.0316,-8.7987,-0.69464,-0.083383,-0.042761,0.065973,-3.6,41.58,-11.4
4.0725,-8.7851,-0.61292,-0.053756,-0.0956,0.09499,-3.6,41.58,-11.28
4.0589,-9.0303,-0.72188,-0.03543,-0.11668,0.10171,-3.42,41.64,-11.34
3.9908,-9.112,-0.7355,-0.026573,-0.078802,0.10751,-3.3,41.58,-11.28
3.9771,-9.0303,-0.76274,-0.020464,0.0048869,0.098349,-3.06,41.58,-11.1
4.1678,-9.0303,-0.84446,-0.019853,0.013439,0.078496,-3.18,41.58,-10.86
4.0725,-8.9894,-0.8036,-0.012217,0.0079412,0.061697,-3.0,41.64,-10.92
4.127,-9.1937,-0.88532,-0.0048869,-0.0079412,0.034819,-3.18,41.58,-10.68
4.0589,-9.1937,-0.96704,0.002138,-0.015882,0.012828,-3.24,41.58,-10.74
4.0589,-9.1256,-1.0624,0.0030543,-0.015577,-0.000611,-3.24,41.64,-10.86
3.9227,-8.9894,-1.1169,0.0045815,-0.014661,-0.011606,-3.3,41.52,-10.86
3.9635,-8.9758,-1.1305,0.0064141,-0.009163,-0.0073304,-3.12,41.52,-10.98
3.9499,-8.9894,-1.1441,-0.0036652,-0.009163,0.0015272,-3.12,41.4,-10.98
3.9227,-8.9349,-1.1441,-0.01741,-0.019548,0.011912,-3.0,41.34,-10.86
3.9635,-8.9894,-1.1441,-0.018631,-0.029016,0.01741,-3.12,41.28,-10.92
3.9499,-8.9486,-1.2122,-0.018631,-0.029322,0.028711,-3.24,41.34,-10.98
3.9499,-9.0712,-1.2258,-0.036346,-0.038179,0.051313,-3.3,41.28,-11.1
3.9771,-9.0575,-1.185,-0.044593,-0.043066,0.061697,-3.3,41.22,-11.1
4.0044,-8.9894,-1.1713,-0.053145,-0.043371,0.076053,-3.3,41.16,-11.16
3.9499,-8.9622,-1.1169,-0.058338,-0.04948,0.078802,-3.36,41.28,-11.28
4.018,-8.9622,-1.1577,-0.073304,-0.046731,0.081245,-3.42,41.28,-11.28
3.9635,-9.0031,-1.1441,-0.073915,-0.039706,0.069639,-3.24,41.28,-11.28
4.0861,-9.0167,-1.0896,-0.082467,-0.036346,0.061087,-3.18,41.22,-11.22
4.018,-8.9758,-0.99429,-0.086132,-0.029322,0.040012,-3.3,41.28,-11.04
3.9908,-9.0439,-1.0079,-0.092852,-0.015882,0.034819,-3.24,41.34,-10.98
4.0589,-9.0303,-0.96704,-0.091324,-0.0085521,0.025045,-3.18,41.22,-11.1
3.9363,-9.0031,-0.89894,-0.079107,-0.0030543,0.016799,-3.18,41.16,-10.92
3.9227,-9.0303,-0.99429,-0.083689,-0.0045815,0.010079,-3.12,40.98,-10.8
3.9227,-8.9894,-0.91256,-0.067195,-0.017715,-0.0039706,-3.06,40.98,-10.74
3.8818,-9.0167,-0.99429,-0.055283,-0.016188,0.0033598,-3.06,41.04,-10.8
3.9227,-8.9894,-0.85808,-0.046731,-0.032376,0.0079412,-3.06,41.22,-10.74
3.9363,-8.9213,-0.92618,-0.040928,-0.049786,0.009163,-3.0,41.34,-10.62
3.8409,-8.9349,-0.9398,-0.021075,-0.044288,0.0088575,-2.94,41.4,-10.56
3.8818,-8.8941,-1.1032,-0.031765,-0.03543,0.0073304,-3.0,41.22,-10.62
3.8818,-8.9213,-0.92618,-0.022907,-0.03207,0.0097738,-3.12,41.4,-10.5
3.909,-8.8941,-1.0896,-0.028711,-0.030849,0.011912,-3.3,41.28,-10.56
3.9227,-8.9622,-1.0488,-0.016188,-0.038485,0.015577,-3.24,41.4,-10.5
3.8682,-8.9213,-1.1169,-0.013134,-0.043371,0.011301,-3.24,41.58,-10.5
3.9227,-8.8941,-1.0215,-0.0042761,-0.047953,0.010996,-3.12,41.7,-10.74
3.909,-8.9622,-1.0079,-0.000611,-0.05681,0.018631,-3.06,41.76,-10.8
3.909,-8.9486,-1.0624,0.0012217,-0.051313,0.021991,-2.94,41.94,-10.92
3.9635,-9.0031,-1.1032,-0.0048869,-0.037568,0.015272,-3.12,41.88,-10.92
3.9635,-9.0439,-1.076,0.0036652,-0.035736,0.000916,-3.24,41.7,-10.86
4.018,-8.9758,-1.0351,0.000916,-0.039401,-0.010385,-3.24,41.7,-11.04
3.9771,-9.0439,-1.0351,0.007025,-0.053145,-0.020159,-3.36,41.52,-10.98
3.9227,-9.0031,-1.0215,0.000611,-0.041539,-0.024435,-3.48,41.58,-11.1
3.909,-9.0031,-1.1169,-0.000916,-0.036957,-0.0281,-3.48,41.7,-11.22
3.8682,-9.0984,-1.0215,-0.0064141,-0.05284,-0.029322,-3.54,41.76,-11.22
3.9363,-9.1665,-1.1577,-0.000611,-0.062003,-0.030849,-3.42,41.76,-11.22
3.8273,-9.0303,-1.1577,-0.0024435,-0.062919,-0.023518,-3.54,41.64,-11.34
3.8273,-9.0303,-1.1577,-0.0015272,-0.069639,-0.023824,-3.54,41.64,-11.34
3.8546,-9.1529,-1.2395,0.0024435,-0.073609,-0.017715,-3.54,41.64,-11.34
3.9227,-9.1937,-1.3484,0.027794,-0.18845,-0.062003,-4.08,41.34,-11.34
3.7728,-9.1529,-1.4438,0.023518,-0.2642,-0.073304,-4.32,41.22,-11.4
3.732,-9.1393,-1.471,0.013134,-0.28802,-0.064752,-4.2,41.22,-11.46
3.5549,-8.9894,-1.4438,-0.017104,-0.22816,-0.037874,-4.32,41.22,-11.46
3.5277,-8.8668,-1.362,-0.053756,-0.13897,0.0058032,-4.38,41.28,-11.22
3.6094,-8.7987,-1.3076,-0.069028,-0.065363,0.063225,-4.38,41.16,-11.22
3.6775,-8.7715,-1.1986,-0.096822,0.0033598,0.10537,-4.38,41.04,-11.16
3.8001,-8.7715,-1.1032,-0.096517,0.035125,0.13775,-4.26,40.98,-11.1
3.8954,-8.8668,-1.0488,-0.10996,0.044593,0.14905,-4.32,40.98,-11.34
3.9227,-8.8668,-0.8036,-0.10293,0.043066,0.16005,-4.38,40.92,-11.28
3.9908,-8.8941,-0.9398,-0.086132,0.038179,0.16463,-4.2,40.86,-11.4
3.9635,-9.0167,-0.88532,-0.066584,0.023824,0.15821,-4.14,41.28,-11.1
4.0452,-9.0575,-0.91256,-0.051313,0.0073304,0.14294,-4.14,41.28,-11.04
4.127,-9.1256,-0.98067,-0.025045,-0.020769,0.12553,-4.14,41.34,-10.92
4.1542,-9.1256,-0.95342,-0.013744,-0.031765,0.089186,-4.08,41.34,-11.1
4.0861,-9.1529,-0.99429,-0.000916,-0.032376,0.050396,-3.9,41.28,-10.92
4.0589,-9.1801,-1.0624,-0.0045815,-0.029322,0.031765,-3.78,41.34,-11.16
4.018,-9.1393,-1.0079,0.0018326,-0.018326,-0.027794,-3.78,41.34,-10.98
3.909,-9.0167,-1.0079,0.013439,-0.015882,-0.055894,-3.72,41.52,-11.04
3.8682,-9.0712,-1.0896,0.012217,-0.0030543,-0.068111,-3.72,41.46,-11.04
3.732,-9.0439,-1.0896,0.012217,0.0027489,-0.058948,-3.6,41.52,-10.8
3.7456,-9.0031,-1.1713,-0.0073304,0.031154,-0.05681,-3.6,41.58,-10.8
3.7728,-8.9894,-1.1169,-0.013744,0.039706,-0.050091,-3.72,41.64,-10.62
3.8409,-8.8941,-1.1577,-0.0048869,0.039095,-0.036346,-3.66,41.58,-10.68
3.8546,-8.8941,-1.0896,0.000916,0.022297,-0.024129,-3.78,41.4,-10.86
3.8546,-8.9758,-1.1577,0.011301,-0.0054978,-0.0039706,-3.84,41.46,-10.8
3.8273,-9.0575,-1.1305,0.022907,-0.018631,0.0042761,-3.9,41.34,-10.8
3.8818,-8.9894,-1.1032,0.02138,-0.031765,0.010996,-4.02,41.34,-10.86
3.7865,-9.0575,-1.1169,0.026267,-0.034514,0.012828,-4.14,41.4,-10.92
3.8273,-9.0848,-1.1577,0.018937,-0.027489,0.0082467,-4.14,41.34,-11.04
3.7728,-9.0848,-1.185,0.012217,-0.012217,0.0024435,-4.14,41.22,-11.1
3.7728,-9.0848,-1.0624,-0.0051924,0.0076358,-0.0048869,-4.26,41.34,-11.16
3.8001,-9.0848,-1.0351,0.0018326,0.014355,-0.0051924,-4.2,41.22,-11.22
3.7592,-8.9758,-1.0488,-0.012523,0.02138,-0.0033598,-4.2,41.28,-11.28
3.7728,-8.9758,-1.0896,-0.023518,0.027489,0.0076358,-4.2,41.16,-11.46
3.8137,-8.9349,-0.99429,-0.0030543,0.015272,0.013134,-4.02,41.22,-11.46
3.7456,-8.9213,-1.0079,0.0061087,0.0012217,0.025045,-4.08,41.16,-11.46
3.7865,-8.9349,-0.92618,0.0085521,-0.0079412,0.043982,-3.9,41.22,-11.52
3.8818,-9.1256,-0.9398,0.019853,-0.0082467,0.054978,-3.9,41.04,-11.82
3.8273,-9.0984,-0.99429,0.014661,-0.0088575,0.049786,-3.9,41.04,-11.88
3.8409,-9.1256,-0.9398,0.01069,0.0024435,0.042761,-3.78,41.16,-11.88
3.8818,-9.1529,-1.0079,0.0064141,0.018631,0.015272,-3.84,41.04,-12.0
3.8682,-9.1665,-0.96704,0.0082467,0.020464,0.022297,-3.84,41.16,-12.0
3.8682,-9.0848,-0.95342,0.01069,0.0085521,0.030543,-3.66,41.1,-11.94
3.8546,-9.0303,-0.95342,0.023824,0.0027489,0.035125,-3.54,40.98,-12.0
3.7728,-8.9213,-1.0896,0.036957,-0.010079,0.031765,-3.54,41.04,-12.0
3.8001,-8.9894,-1.0351,0.043371,-0.022297,0.040623,-3.48,41.1,-12.0
3.7456,-8.9349,-1.1032,0.041233,-0.010996,0.046731,-3.6,41.04,-12.06
3.7728,-9.0848,-0.99429,0.036957,-0.0051924,0.059254,-3.54,41.28,-12.3
3.7728,-9.1529,-1.0624,0.04215,0.012217,0.058338,-3.54,41.16,-12.36
3.8273,-9.0848,-1.0624,0.051313,0.011606,0.044899,-3.48,41.28,-12.3
3.8682,-9.0303,-1.0896,0.069944,0.0018326,0.0039706,-3.48,41.4,-12.24
3.8001,-9.0575,-1.1577,0.072388,-0.0079412,-0.0054978,-3.3,41.34,-12.36
3.7592,-8.9894,-1.2258,0.079718,-0.043066,-0.033598,-3.3,41.34,-12.6
3.6911,-9.0439,-1.3076,0.083383,-0.051313,-0.037874,-3.18,41.34,-12.66
3.623,-9.0848,-1.3484,0.068417,-0.029322,-0.032987,-3.24,41.4,-12.78
3.6639,-9.0848,-1.2395,0.053145,0.011606,-0.0076358,-3.42,41.4,-12.78
3.6911,-9.0303,-1.0896,0.074831,-0.014966,0.022297,-3.48,41.4,-12.66
3.8273,-9.0303,-0.99429,0.12339,-0.14905,0.057727,-3.48,41.28,-12.84
4.0044,-9.0303,-0.98067,0.2025,-0.35919,0.075442,-3.48,41.28,-12.9
3.7728,-8.9622,-0.89894,0.25045,-0.5287,0.081551,-3.3,41.16,-13.08
3.6366,-8.8668,-1.0351,0.26756,-0.56902,0.078191,-3.42,41.16,-13.08
3.4187,-8.9622,-1.2258,0.23091,-0.47067,0.083994,-3.42,41.16,-13.08
3.3642,-9.0439,-1.1305,0.16005,-0.29291,0.093462,-3.54,40.98,-13.26
3.4459,-9.0303,-1.1441,0.015272,0.0088575,0.10476,-3.66,40.98,-13.14
3.514,-8.9894,-1.0896,-0.047342,0.15974,0.10079,-3.6,40.8,-13.2
3.6775,-8.9213,-0.92618,-0.08491,0.25565,0.089492,-3.66,40.74,-13.2
3.8273,-8.9622,-0.76274,-0.10201,0.3036,0.098349,-3.78,40.74,-13.2
3.9771,-9.0167,-0.76274,-0.094684,0.30085,0.082161,-3.54,40.62,-13.26
4.1814,-9.0848,-0.74912,-0.057116,0.22205,0.08491,-3.54,40.62,-13.56
4.1951,-9.0575,-0.91256,-0.0085521,0.10537,0.063835,-3.6,40.8,-13.44
4.1542,-9.0575,-0.95342,0.063835,-0.067501,0.014661,-3.72,40.8,-13.56
4.0861,-9.1937,-1.0079,0.083994,-0.12492,-0.011606,-3.54,40.68,-13.62
3.9908,-9.0984,-1.076,0.085216,-0.13714,-0.037263,-3.42,40.62,-13.62
3.8682,-9.0848,-1.0351,0.072388,-0.11973,-0.059254,-3.36,40.56,-13.68
3.7456,-9.0439,-1.0624,0.039401,-0.078802,-0.071777,-3.18,40.5,-13.62
3.8001,-9.0984,-1.0488,0.031154,-0.061697,-0.07758,-3.06,40.5,-13.56
3.8001,-9.0848,-0.99429,0.014966,-0.031154,-0.083078,-3.06,40.5,-13.74
3.8137,-9.0303,-1.0215,-0.0039706,-0.042455,-0.1014,-3.0,40.44,-13.74
3.7728,-9.1937,-0.91256,-0.0281,-0.029322,-0.098349,-3.06,40.5,-13.74
3.6775,-9.112,-0.92618,-0.051924,-0.0076358,-0.10049,-3.12,40.56,-13.8
3.732,-8.9622,-0.70826,-0.085521,0.029932,-0.08491,-3.3,40.56,-13.74
3.7047,-9.0031,-0.65378,-0.10446,0.037874,-0.064446,-3.3,40.44,-13.74
3.6775,-9.0167,-0.58567,-0.1069,0.047342,-0.051313,-3.24,40.5,-13.68
3.7728,-8.9349,-0.55843,-0.12462,0.073304,-0.033598,-3.6,40.5,-13.68
3.7456,-8.8668,-0.51757,-0.146,0.096211,-0.026573,-3.66,40.5,-13.74
3.8001,-8.9486,-0.44947,-0.15913,0.10171,-0.027489,-4.02,40.56,-13.68
3.8409,-8.8532,-0.31327,-0.14875,0.085827,-0.025962,-4.26,40.68,-13.74
3.9227,-8.7987,-0.36775,-0.14233,0.07086,-0.037568,-4.38,40.68,-13.74
3.9227,-8.8124,-0.31327,-0.14172,0.025045,-0.053145,-4.5,40.62,-13.62
3.909,-9.0984,-0.25879,-0.14997,0.021075,-0.050702,-4.56,40.38,-13.38
3.8273,-9.2755,-0.21793,-0.1686,0.054672,-0.058032,-4.62,40.32,-13.26
3.8546,-9.2346,-0.24517,-0.19517,0.13103,-0.072388,-4.68,40.44,-13.2
3.7728,-8.9894,-0.081722,-0.20739,0.27122,-0.11606,-4.74,40.5,-13.26
3.7047,-8.7306,-0.027241,-0.19426,0.35277,-0.15272,-4.74,40.44,-13.32
3.7047,-8.6081,-0.027241,-0.17501,0.41753,-0.19059,-4.68,40.38,-13.2
3.6911,-8.431,0.054481,-0.14691,0.47617,-0.21136,-4.86,40.74,-12.96
3.8001,-8.5536,-0.01362,-0.13042,0.48533,-0.20403,-4.92,40.74,-12.9
3.9635,-8.7034,-0.01362,-0.14325,0.46578,-0.17623,-4.86,40.86,-12.84
3.8546,-9.1256,0.054481,-0.1741,0.46762,-0.1347,-4.86,40.86,-12.78
3.8409,-9.1256,0.095342,-0.23518,0.60353,-0.11606,-4.92,40.92,-12.78
3.732,-9.0303,0.21793,-0.24832,0.68264,-0.11637,-4.86,41.1,-12.66
3.8001,-8.8941,0.44947,-0.2697,0.91599,-0.11881,-4.92,41.52,-12.72
3.9635,-8.7987,0.47671,-0.25229,1.0177,-0.11545,-4.92,41.76,-12.78
4.0316,-8.7443,0.44947,-0.21564,1.0498,-0.09163,-4.92,41.58,-12.78
4.1951,-8.7443,0.65378,-0.10965,0.92332,-0.044593,-4.92,41.82,-12.48
4.2904,-8.8805,0.69464,-0.037263,0.74984,0.0030543,-4.8,41.94,-12.36
4.3721,-8.9758,0.68102,0.051313,0.55039,0.065057,-4.8,41.88,-12.36
4.3858,-8.9894,0.55843,0.12095,0.36346,0.12614,-4.56,41.82,-12.48
4.304,-8.8668,0.61292,0.17715,0.21044,0.1854,-4.5,41.88,-12.42
4.3449,-8.8668,0.44947,0.23121,0.1069,0.22358,-4.44,41.88,-12.48
4.2768,-8.6081,0.35413,0.26909,0.046426,0.27,-4.14,42.06,-12.6
4.2768,-8.7306,0.36775,0.2865,0.051007,0.27611,-4.02,42.0,-12.66
4.3721,-9.112,0.29965,0.28375,0.069333,0.3036,-4.02,42.0,-12.78
4.522,-9.4117,0.25879,0.27397,0.041844,0.32681,-3.84,42.06,-12.96
4.7399,-9.8611,0.35413,0.26206,-0.011301,0.35369,-3.6,41.88,-13.08
4.7399,-9.9565,0.24517,0.26114,-0.064752,0.36255,-3.3,41.94,-13.2
4.6718,-9.6568,0.14982,0.25992,-0.10904,0.33506,-2.82,41.7,-13.56
4.7671,-9.3708,0.16344,0.26786,-0.17837,0.28802,-2.7,41.7,-13.8
4.8625,-9.1529,0.16344,0.28527,-0.27489,0.23976,-2.52,41.7,-13.86
4.8625,-9.1256,-0.10896,0.29383,-0.37935,0.19639,-2.4,41.82,-13.98
4.7944,-9.2755,-0.14982,0.29871,-0.46029,0.13592,-2.1,41.52,-14.4
4.6582,-9.4253,-0.21793,0.27611,-0.48533,0.091324,-1.92,41.52,-14.76
4.6445,-9.3299,-0.28603,0.25443,-0.46151,0.046731,-1.62,41.4,-14.88
4.522,-9.221,-0.28603,0.18631,-0.41233,-0.0051924,-1.38,41.28,-15.36
4.522,-9.0712,-0.36775,0.15241,-0.40134,-0.022907,-1.14,41.22,-15.48
4.4266,-8.9622,-0.44947,0.12431,-0.40225,-0.047037,-1.14,41.1,-15.6
4.413,-8.9486,-0.36775,0.087354,-0.40867,-0.051313,-1.14,41.04,-15.96
4.3313,-8.6489,-0.31327,0.063835,-0.42608,-0.053145,-1.08,41.04,-16.32
4.3721,-8.6081,-0.28603,0.051924,-0.44471,-0.047342,-1.14,40.92,-16.44
4.3449,-8.6489,-0.24517,0.009163,-0.48075,-0.04948,-1.32,40.92,-16.44
4.3721,-8.6353,-0.081722,-0.000305,-0.48167,-0.047647,-1.44,41.04,-16.74
4.3449,-8.7443,-0.095342,-0.025351,-0.49022,-0.069639,-1.44,40.92,-16.92
4.3858,-8.826,-0.095342,-0.069028,-0.45693,-0.1066,-1.62,41.04,-16.86
4.2632,-8.717,-0.095342,-0.10568,-0.3879,-0.16371,-1.86,40.8,-16.8
4.1542,-8.4582,0.027241,-0.13897,-0.29352,-0.22144,-2.22,40.8,-16.8
3.8682,-7.9951,0.19068,-0.16035,-0.16921,-0.28008,-2.58,40.68,-16.74
3.8001,-7.8998,0.34051,-0.18387,0.054978,-0.35155,-2.88,40.62,-16.86
3.7865,-8.0905,0.40861,-0.19242,0.12645,-0.36805,-3.06,40.5,-16.74
3.8273,-8.2539,0.46309,-0.19151,0.32406,-0.35827,-3.24,40.5,-16.62
4.2223,-9.5751,0.61292,-0.20464,0.37354,-0.29108,-3.54,40.5,-16.38
4.5901,-9.9973,0.57205,-0.21197,0.3375,-0.17043,-3.78,40.44,-16.38
4.6718,-9.9429,0.64016,-0.22449,0.24221,-0.076358,-4.02,40.5,-16.38
4.5356,-9.6296,0.85808,-0.20403,0.11301,-0.034819,-4.44,40.38,-16.38
4.4402,-9.4798,0.84446,-0.16524,0.089492,-0.087965,-4.8,40.44,-16.2
4.4675,-9.3844,0.76274,-0.14478,0.09163,-0.1182,-4.8,40.38,-16.26
4.4811,-9.221,0.76274,-0.051313,0.037874,-0.23274,-5.28,40.56,-16.14
4.522,-9.2074,0.72188,0.0018326,-0.061392,-0.28497,-5.46,40.56,-16.02
4.1406,-9.3163,0.58567,0.041539,-0.16402,-0.34208,-5.82,40.68,-15.84
3.8682,-9.1529,0.54481,0.04612,-0.15882,-0.35766,-6.0,40.74,-15.72
3.732,-9.1529,0.49033,0.044899,-0.077274,-0.36896,-6.18,40.8,-15.66
3.6503,-9.0439,0.42223,0.030543,0.086743,-0.33537,-6.3,40.86,-15.72
3.7728,-8.9077,0.44947,0.018326,0.14325,-0.26206,-6.84,40.74,-15.66
3.8546,-8.9349,0.42223,0.017104,0.13592,-0.16249,-7.02,40.8,-15.72
3.8273,-8.7987,0.43585,0.025656,0.078496,-0.044899,-7.08,40.74,-15.66
3.8682,-8.6898,0.29965,0.055283,-0.0051924,0.12553,-7.38,40.8,-15.48
3.8682,-8.7306,0.34051,0.07086,-0.029016,0.20311,-7.44,40.74,-15.48
3.9499,-8.7034,0.29965,0.08491,-0.025351,0.25717,-7.74,40.8,-15.66
3.9635,-8.6217,0.17706,0.097433,-0.048564,0.29749,-7.74,40.68,-15.72
4.1133,-8.6762,0.12258,0.10263,-0.091019,0.32773,-7.86,40.62,-15.9
4.1406,-8.7715,0.068102,0.1066,-0.12339,0.34789,-7.86,40.5,-16.02
4.1542,-8.9213,0.095342,0.083689,-0.13806,0.37721,-7.86,40.38,-16.14
4.1814,-8.9486,0.095342,0.042761,-0.076053,0.40897,-7.74,40.32,-16.14
4.1814,-8.9622,0.054481,0.036957,-0.051007,0.41203,-7.8,40.32,-16.2
4.3177,-8.9349,0.027241,-0.012523,0.021075,0.42608,-7.44,40.32,-16.44
4.304,-8.9349,0.01362,-0.040012,0.053451,0.43341,-7.32,40.26,-16.5
4.3721,-8.9622,0.081722,-0.05681,0.090713,0.43249,-7.14,40.38,-16.5
4.4266,-9.0167,0.14982,-0.073915,0.12248,0.40225,-6.72,40.38,-16.68
4.4675,-9.0303,0.20431,-0.085216,0.12737,0.39065,-6.42,40.38,-16.68
4.5083,-9.0712,0.17706,-0.080023,0.11148,0.38362,-6.06,40.38,-16.56
4.6173,-9.0848,0.17706,-0.079107,0.055894,0.37507,-5.7,40.5,-16.56
4.6037,-9.1393,0.095342,-0.071166,0.026267,0.35919,-5.4,40.62,-16.56
4.6037,-9.112,0.10896,-0.079107,0.015577,0.32651,-5.04,40.68,-16.44
4.5901,-9.0575,0.14982,-0.11301,0.042455,0.25717,-4.5,40.86,-16.5
4.6037,-8.8941,0.10896,-0.12126,0.074831,0.20036,-4.26,40.92,-16.5
4.5901,-8.8668,0.12258,-0.13286,0.087965,0.14539,-3.78,40.74,-16.5
4.6173,-8.9622,0.081722,-0.13164,0.093157,0.093157,-3.18,40.68,-16.38
4.6309,-9.0303,0.19068,-0.15791,0.09896,0.062919,-2.88,40.8,-16.32
4.522,-9.0031,0.12258,-0.16768,0.13256,0.009163,-2.52,40.8,-16.32
4.4402,-8.9486,0.17706,-0.16463,0.1576,-0.014966,-2.34,40.86,-16.08
4.4811,-8.9349,0.24517,-0.16463,0.17104,-0.05284,-2.28,40.98,-16.14
4.4811,-8.8941,0.31327,-0.16066,0.1631,-0.067501,-2.04,40.92,-16.14
4.4402,-8.9622,0.24517,-0.13714,0.1066,-0.10263,-1.74,41.04,-15.84
4.3858,-8.9486,0.24517,-0.12767,0.07086,-0.11454,-1.62,40.86,-15.84
4.2495,-8.9486,0.21793,-0.12248,0.067806,-0.1295,-1.38,41.04,-15.72
4.2768,-8.8532,0.29965,-0.11393,0.074526,-0.16005,-1.2,41.04,-15.48
4.2223,-8.8532,0.29965,-0.092546,0.052229,-0.16432,-1.2,41.04,-15.48
4.2223,-8.8941,0.29965,-0.081551,0.029016,-0.16432,-1.26,41.28,-15.36
4.1542,-8.8941,0.31327,-0.069639,0.0054978,-0.15852,-1.5,41.34,-15.3
4.1406,-8.8805,0.27241,-0.051924,-0.011606,-0.15638,-1.5,41.34,-15.18
4.127,-9.0031,0.27241,-0.043066,-0.02474,-0.14997,-1.56,41.22,-15.0
4.127,-9.0303,0.19068,-0.0048869,-0.051007,-0.13714,-1.74,40.98,-15.12
4.1406,-9.0303,0.19068,-0.0051924,-0.077274,-0.13561,-1.74,40.92,-15.06
4.2087,-9.0439,0.10896,0.012217,-0.082161,-0.13592,-1.92,41.1,-15.12
4.0589,-8.9077,0.17706,0.012828,-0.10171,-0.14111,-2.16,41.22,-15.36
4.0316,-8.9349,0.10896,0.021075,-0.096822,-0.14416,-2.28,41.28,-15.3
4.0589,-8.9349,0.14982,0.024435,-0.087659,-0.15027,-2.52,41.22,-15.42
4.0452,-8.8941,0.054481,0.024129,-0.087965,-0.15363,-2.7,41.28,-15.54
3.9908,-8.8532,0.027241,0.024435,-0.09163,-0.14752,-2.88,41.28,-15.6
3.9771,-8.8532,0.027241,0.01741,-0.090103,-0.13134,-2.88,41.28,-15.6
3.9227,-8.8396,0.068102,0.018021,-0.073609,-0.11179,-3.06,41.22,-15.66
3.8682,-8.9486,0.068102,0.0085521,-0.063835,-0.082772,-3.24,41.28,-15.6
3.9771,-8.9486,0.027241,0.0061087,-0.055894,-0.065057,-3.48,41.28,-15.72
3.9908,-9.0303,0.068102,-0.0030543,-0.052229,-0.026573,-3.66,41.52,-16.02
3.9635,-9.0167,0.068102,-0.0027489,-0.048258,-0.01069,-3.72,41.58,-15.96
3.9771,-9.0303,0.027241,-0.0048869,-0.041844,0.0030543,-3.96,41.64,-16.02
4.0316,-9.0575,0.027241,-0.0097738,-0.030543,0.012828,-4.14,41.58,-16.02
4.018,-8.9349,0.054481,-0.029016,-0.0027489,0.011301,-4.26,41.46,-15.96
4.0044,-8.9349,0.10896,-0.038485,0.025351,0.0082467,-4.32,41.4,-16.14
3.9635,-8.8805,0.095342,-0.039095,0.040012,0.013134,-4.44,41.4,-16.02
4.0316,-8.8805,0.095342,-0.032376,0.015882,0.037874,-4.68,41.28,-15.84
3.9908,-8.9349,0.17706,-0.035736,0.007025,0.078191,-4.56,41.28,-15.9
4.018,-8.9486,0.095342,-0.039095,0.0045815,0.093462,-4.62,41.22,-16.02
4.0861,-8.9758,0.054481,-0.043066,0.014355,0.12828,-4.68,41.1,-16.08
4.1406,-8.9894,0.21793,-0.045509,0.013134,0.14325,-4.56,41.1,-16.08
4.304,-8.9077,0.14982,-0.054672,0.017104,0.14997,-4.56,41.04,-15.96
4.3585,-8.9213,0.054481,-0.051618,-0.0036652,0.14172,-4.62,40.98,-16.02
4.2904,-8.9349,0.095342,-0.047037,-0.011606,0.13286,-4.62,40.92,-16.2
4.2904,-9.0031,0.027241,-0.022907,-0.014355,0.12095,-4.44,40.92,-16.02
4.413,-8.9894,0.040861,0.0061087,-0.027794,0.12523,-4.38,40.98,-15.84
4.3449,-8.9349,0.027241,0.0076358,-0.069639,0.11729,-4.5,40.92,-15.72
4.413,-8.9622,0.027241,0.0018326,-0.08827,0.11729,-4.26,40.98,-15.96
4.3177,-8.9077,0.040861,-0.029016,-0.073609,0.10537,-4.2,40.86,-16.08
4.3449,-8.9486,0.040861,-0.043677,-0.040623,0.095295,-4.32,40.86,-16.02
4.4402,-8.9894,0.054481,-0.050702,-0.028405,0.087354,-4.26,40.98,-15.96
4.3994,-8.9894,0.054481,-0.07025,0.0054978,0.055589,-4.26,41.04,-15.78
4.4402,-8.9622,0.20431,-0.062003,0.013744,0.029932,-4.26,41.22,-15.66
4.3994,-8.9077,0.14982,-0.063835,-0.0045815,0.0079412,-4.2,41.28,-15.78
4.2904,-8.8941,0.17706,-0.049786,-0.040317,-0.0024435,-4.08,41.52,-15.72
4.2087,-8.8805,0.14982,-0.039095,-0.07086,-0.0015272,-4.02,41.4,-15.72
4.1814,-8.8124,0.14982,-0.011606,-0.090713,-0.0054978,-4.02,41.4,-15.9
4.1406,-8.7851,0.24517,-0.0018326,-0.10507,-0.0015272,-4.02,41.4,-15.96
4.1542,-8.8124,0.19068,-0.000611,-0.12553,0.012828,-3.96,41.46,-16.08
4.1406,-8.8668,0.14982,0.000916,-0.13042,0.025656,-4.14,41.4,-15.96
4.127,-8.9077,0.095342,-0.0058032,-0.12217,0.043371,-4.08,41.58,-15.96
3.9771,-9.0167,0.1362,-0.020159,-0.069944,0.064752,-3.9,41.52,-16.08
4.127,-9.0575,0.14982,-0.030238,-0.020159,0.040623,-3.9,41.46,-15.96
4.127,-9.0848,0.14982,-0.031765,0.012217,0.015577,-3.84,41.4,-16.02
4.1542,-9.0031,0.20431,-0.033903,0.023213,-0.0012217,-3.84,41.28,-16.08
4.1542,-8.9758,0.27241,-0.021686,0.016799,-0.019242,-3.84,41.28,-15.96
4.0725,-8.9622,0.31327,-0.0024435,-0.007025,-0.0097738,-3.84,41.16,-15.9
4.0589,-8.8668,0.29965,0.014966,-0.03207,-0.0045815,-3.84,41.22,-15.78
4.0452,-8.8532,0.25879,0.023213,-0.043982,0.0054978,-3.84,41.22,-15.66
4.0316,-8.8941,0.23155,0.036041,-0.072998,0.020464,-3.9,41.22,-15.66
4.0589,-8.9349,0.17706,0.038179,-0.078191,0.051618,-3.9,41.1,-15.6
4.0589,-9.0031,0.068102,0.027794,-0.065057,0.059254,-3.96,41.04,-15.48
4.0997,-9.0031,0.081722,0.020159,-0.038485,0.059865,-3.96,40.98,-15.6
4.2904,-8.9349,0.027241,0.0033598,-0.016188,0.068417,-4.02,40.8,-15.66
4.2768,-8.9486,0.01362,-0.000611,-0.012828,0.052229,-4.08,40.74,-15.66
4.1814,-8.9758,0.10896,0.0088575,-0.02474,0.040928,-4.14,40.74,-15.72
4.2495,-9.0303,0.16344,0.0024435,-0.027184,0.036041,-4.2,40.62,-15.6
4.1814,-9.0031,0.095342,-0.0045815,-0.025962,0.030543,-4.26,40.5,-15.72
4.2223,-9.0031,0.19068,-0.0030543,-0.029322,0.022602,-4.32,40.5,-15.78
4.1814,-9.1393,0.095342,-0.013744,-0.02138,0.0094684,-4.32,40.44,-15.9
4.2223,-9.0848,0.095342,-0.020769,0.0018326,0.0024435,-4.38,40.56,-16.08
4.2495,-9.0575,0.040861,-0.020769,-0.0064141,-0.021991,-4.44,40.5,-16.02
4.127,-9.0303,0.10896,-0.040012,0.0015272,-0.025045,-4.38,40.62,-15.96
4.1406,-9.0167,0.10896,-0.040012,0.0094684,-0.047953,-4.32,40.62,-16.08
4.0589,-8.9758,0.081722,-0.053145,0.019548,-0.046731,-4.26,40.56,-16.02
4.0044,-8.9894,0.054481,-0.055894,0.029016,-0.040012,-4.26,40.8,-15.84
3.9635,-8.9894,0.16344,-0.061087,0.027489,-0.035736,-4.26,40.92,-15.84
4.0316,-8.9486,0.12258,-0.067501,0.030849,-0.021686,-4.26,40.98,-15.9
4.0044,-8.9622,0.1362,-0.069028,0.03543,-0.000916,-4.14,41.16,-16.08
3.9771,-8.9622,0.24517,-0.065057,0.031765,0.0082467,-4.02,41.04,-16.08
3.9908,-8.9077,0.28603,-0.056505,0.015882,0.024129,-4.14,41.04,-15.9
4.0725,-9.0712,0.25879,-0.051007,0.0012217,0.033903,-4.08,41.16,-15.72
4.018,-9.112,0.1362,-0.046426,0.0042761,0.038485,-4.02,41.04,-15.66
4.127,-9.0303,0.21793,-0.042761,0.0058032,0.04215,-4.02,41.04,-15.72
4.0861,-8.9758,0.14982,-0.051313,0.01069,0.044899,-3.9,40.98,-15.84
4.1542,-9.0303,0.19068,-0.040623,0.014661,0.034819,-3.9,41.1,-15.78
4.127,-8.9894,0.25879,-0.050091,0.022602,0.034514,-3.96,41.22,-15.84
4.1406,-8.9894,0.16344,-0.050396,0.027794,0.031765,-4.14,41.04,-16.08
4.1678,-8.9213,0.14982,-0.049175,0.025656,0.036041,-4.14,41.1,-16.2
4.1133,-8.9486,0.20431,-0.050091,0.021991,0.033903,-4.14,41.04,-16.2
4.1678,-8.9349,0.14982,-0.039095,0.0042761,0.029322,-4.14,40.92,-16.2
4.1542,-8.9622,0.14982,-0.034819,0.0064141,0.035736,-4.2,41.04,-16.14
4.1406,-8.9622,0.19068,-0.034819,0.000305,0.032376,-4.14,41.04,-16.2
4.127,-8.9758,0.12258,-0.035736,0.0048869,0.025962,-4.14,41.04,-16.08
4.127,-8.9622,0.054481,-0.028405,0.000611,0.023213,-4.26,41.04,-16.38
4.1406,-8.9622,0.17706,-0.039401,-0.0018326,0.027184,-4.26,40.98,-16.2
4.127,-8.9894,0.19068,-0.032987,-0.0079412,0.026267,-4.2,41.1,-16.2
4.018,-9.0031,0.10896,-0.033598,-0.002138,0.037874,-4.26,41.16,-16.2
4.1133,-9.0167,0.054481,-0.029627,-0.0067195,0.039706,-4.26,41.1,-16.2
4.0452,-8.9894,0.040861,-0.030849,0.0027489,0.036652,-4.32,41.16,-16.14
4.0861,-8.9758,0.081722,-0.033903,-0.0024435,0.041844,-4.08,41.16,-16.2
4.127,-8.9894,0.081722,-0.038179,-0.0067195,0.041844,-4.14,41.22,-15.96
4.0997,-8.9894,0.081722,-0.045509,0.0048869,0.037874,-4.14,41.22,-15.96
4.1133,-9.0303,0.095342,-0.047342,0.0085521,0.034208,-4.02,41.1,-15.9
4.1678,-9.1801,0.12258,-0.04215,0.0076358,0.029322,-4.14,40.98,-15.84
4.1406,-8.8941,0.081722,-0.033598,-0.0015272,0.02474,-4.08,41.04,-15.9
4.0452,-8.8805,0.1362,-0.030849,-0.015577,0.018326,-4.02,41.04,-15.6
4.0861,-8.9622,0.19068,-0.031154,-0.012828,0.018937,-4.02,41.22,-15.78
4.0589,-8.9486,0.25879,-0.024129,-0.015272,0.021686,-4.02,41.1,-15.72
4.1678,-8.9894,0.19068,-0.020159,-0.034514,0.042455,-4.08,41.04,-15.66
4.127,-8.9894,0.10896,-0.018631,-0.030849,0.046731,-4.02,41.1,-15.48
4.127,-9.0303,0.14982,-0.023824,-0.0097738,0.033903,-4.02,40.98,-15.48
4.2223,-9.0303,0.19068,-0.03146,0.000611,0.019242,-3.96,40.92,-15.42
4.1814,-8.9894,0.24517,-0.026878,0.0027489,0.0045815,-4.02,40.98,-15.48
4.2495,-9.0848,0.21793,-0.029322,0.0076358,-0.015577,-3.96,41.04,-15.48
4.1133,-9.0167,0.16344,-0.027794,0.0064141,-0.024129,-4.02,41.16,-15.54
4.1542,-8.9894,0.16344,-0.026573,0.012523,-0.039401,-3.96,41.22,-15.6
4.127,-9.0167,0.17706,-0.019853,0.0082467,-0.043982,-3.9,41.28,-15.78
4.0452,-8.8805,0.12258,-0.026573,0.000305,-0.030238,-3.96,41.1,-15.9
4.0316,-8.8668,0.054481,-0.025045,-0.0030543,-0.019242,-3.96,40.98,-15.78
4.0316,-8.8668,0.095342,-0.028405,-0.0018326,-0.010079,-4.02,40.98,-15.84
4.0452,-9.0303,0.14982,-0.025962,0.0024435,-0.0018326,-3.84,40.92,-16.08
4.0589,-9.0712,0.1362,-0.021991,-0.0039706,0.0082467,-3.96,40.92,-16.14
4.0589,-9.0848,0.1362,-0.023824,-0.0051924,0.016799,-3.96,40.92,-16.14
4.0861,-9.0439,0.19068,-0.0281,-0.012828,0.016493,-3.9,40.98,-16.02
4.0725,-9.0575,0.10896,-0.028405,-0.0085521,0.012828,-3.78,40.86,-16.08
4.0725,-9.0303,0.10896,-0.030849,-0.0073304,0.0064141,-3.84,40.74,-16.14
4.0861,-8.9758,0.1362,-0.037263,0.0033598,0.01069,-3.78,40.56,-16.08
4.0589,-8.9894,0.12258,-0.029932,0.0051924,0.0036652,-3.84,40.68,-16.14
4.0589,-8.9349,0.12258,-0.034514,0.016799,0.0033598,-3.84,40.68,-15.96
4.1542,-8.9486,0.081722,-0.036041,0.011912,0.01741,-3.78,40.86,-16.08
4.1133,-8.9077,0.12258,-0.027489,-0.0045815,0.012523,-3.78,40.92,-16.14
4.0997,-8.9349,0.16344,-0.0281,-0.0094684,0.021075,-3.72,40.86,-16.14
4.1133,-8.9349,0.10896,-0.026573,-0.0064141,0.021686,-3.72,40.98,-16.26
4.1542,-8.9622,0.1362,-0.02474,-0.0051924,0.017715,-3.84,40.98,-16.32
4.0725,-8.9213,0.17706,-0.030238,-0.002138,0.016188,-3.78,40.92,-16.26
4.0861,-9.0303,0.17706,-0.036041,0.0045815,0.014966,-3.9,40.92,-16.26
4.0997,-9.0984,0.17706,-0.041539,0.007025,0.013134,-3.96,41.04,-16.32
4.0861,-9.0167,0.19068,-0.032681,0.0048869,0.0085521,-3.9,41.16,-16.44
4.0997,-9.0303,0.068102,-0.040623,0.01741,0.014966,-3.96,41.4,-16.5
4.1406,-9.0167,0.16344,-0.039095,0.018937,0.016799,-3.84,41.4,-16.62
4.1814,-9.0439,0.23155,-0.034819,0.015272,0.016188,-3.9,41.22,-16.74
4.0861,-9.0031,0.23155,-0.033598,0.018021,0.02474,-3.78,41.16,-16.56
4.0997,-8.8941,0.25879,-0.03543,0.0054978,0.018021,-3.84,41.22,-16.5
4.0725,-8.9486,0.12258,-0.03146,0.002138,0.011912,-3.84,41.34,-16.38
4.0725,-8.9894,0.095342,-0.029932,0.0058032,0.028405,-3.9,41.16,-16.44
4.1542,-8.9622,0.12258,-0.032681,0.0064141,0.027794,-3.72,41.1,-16.32
4.127,-9.0031,0.19068,-0.03543,0.0036652,0.030238,-3.84,41.16,-16.32
4.0861,-8.8668,0.10896,-0.033292,-0.0015272,0.020769,-3.78,41.1,-16.32
4.0725,-8.9622,0.23155,-0.034514,-0.0042761,0.025351,-3.72,41.16,-16.44
4.0589,-8.9622,0.19068,-0.031154,-0.0048869,0.030849,-3.66,41.16,-16.38
4.0861,-8.9894,0.16344,-0.033903,-0.0076358,0.055589,-3.66,41.1,-16.32
4.0861,-9.0303,0.16344,-0.029016,-0.010996,0.05284,-3.66,41.16,-16.32
4.0589,-8.9894,0.19068,-0.0281,-0.0015272,0.058948,-3.6,41.22,-16.32
4.2087,-9.0303,0.19068,-0.031765,-0.0024435,0.059254,-3.18,41.16,-16.44
4.1542,-9.0167,0.1362,-0.021075,-0.013439,0.053451,-3.12,40.92,-16.5
4.2223,-9.0575,0.01362,-0.025045,-0.017104,0.048564,-3.12,41.04,-16.5
4.1814,-8.9894,0.068102,-0.030543,-0.025656,0.036957,-3.0,40.92,-16.56
4.2495,-8.9349,0.14982,-0.029627,-0.019548,0.030543,-3.06,40.74,-16.56
4.1814,-8.9349,0.068102,-0.043677,-0.018021,0.020769,-3.12,40.8,-16.62
4.1814,-8.8805,0.068102,-0.039706,-0.0036652,0.014966,-3.12,40.8,-16.74
4.1814,-8.8941,0.1362,-0.052534,0.000305,0.0088575,-3.06,40.86,-16.62
4.1814,-8.9213,0.14982,-0.059254,-0.0067195,-0.0045815,-3.12,40.92,-16.56
4.0997,-9.0303,0.12258,-0.055283,-0.0051924,-0.0024435,-3.54,40.92,-16.56
4.127,-9.0439,0.19068,-0.058338,-0.0067195,-0.0033598,-3.6,40.92,-16.56
4.0589,-9.0303,0.17706,-0.059865,-0.0045815,-0.0073304,-3.78,40.92,-16.38
4.0861,-9.0303,0.1362,-0.06017,0.0045815,0.000305,-3.72,40.98,-16.38
4.1406,-8.9622,0.21793,-0.054978,-0.000916,-0.0048869,-3.66,41.28,-16.44
4.0316,-8.9758,0.23155,-0.047647,-0.016493,0.0045815,-3.72,41.16,-16.14
4.0316,-9.0031,0.24517,-0.036041,-0.013744,0.0088575,-3.72,41.04,-15.96
4.0316,-8.9894,0.14982,-0.033292,-0.010385,0.020769,-3.78,41.22,-16.02
4.0316,-8.9894,0.19068,-0.038179,0.000916,0.029322,-3.84,41.16,-15.84
4.0044,-9.0167,0.17706,-0.03146,0.0079412,0.037874,-3.78,41.16,-15.96
4.0997,-8.9758,0.095342,-0.033292,0.013744,0.034208,-3.72,40.98,-15.84
4.0861,-9.0575,0.095342,-0.0281,0.0097738,0.036652,-3.54,41.04,-16.14
4.1406,-9.0575,0.10896,-0.034208,0.0079412,0.018631,-3.54,41.04,-16.2
4.1406,-9.0984,0.01362,-0.029016,0.0036652,0.012523,-3.54,40.92,-16.08
4.0861,-9.0575,-0.095342,-0.048258,0.0076358,0.018631,-3.48,40.98,-15.96
3.9908,-9.0031,-0.040861,-0.047953,0.011606,0.01405,-3.42,40.98,-16.2
4.0725,-8.8805,-0.14982,-0.048564,0.020464,0.013744,-3.42,40.86,-16.2
4.0589,-8.9486,-0.040861,-0.048258,0.022907,0.011301,-3.36,40.8,-16.2
4.0861,-8.8941,-0.040861,-0.059559,0.011301,0.017104,-3.42,40.98,-16.26
4.018,-8.9349,-0.027241,-0.067806,0.0039706,0.03207,-3.54,40.92,-16.26
4.018,-8.8941,-0.027241,-0.071777,0.014661,0.040317,-3.6,40.92,-16.26
4.0316,-8.8532,-0.040861,-0.08827,0.016188,0.04612,-3.54,40.86,-16.02
4.127,-8.9077,0.10896,-0.085216,0.021075,0.049786,-3.48,40.92,-15.9
4.1951,-8.9213,0.16344,-0.071166,0.012523,0.057421,-3.42,40.98,-15.96
4.2223,-9.0303,0.10896,-0.069028,-0.0073304,0.05681,-3.48,40.92,-15.96
4.2904,-8.9894,0.1362,-0.065973,-0.013134,0.046426,-3.36,41.1,-15.9
4.304,-8.9622,0.20431,-0.066584,-0.012523,0.044288,-3.48,41.04,-15.9
4.3177,-9.0439,0.12258,-0.062003,-0.0082467,0.031154,-3.36,40.98,-15.66
4.3177,-9.0439,0.054481,-0.059559,-0.016493,0.017104,-3.12,40.92,-15.48
4.2359,-8.9894,0.14982,-0.053451,0.0073304,-0.0045815,-3.12,41.16,-15.48
4.1406,-8.9349,0.21793,-0.054978,0.007025,-0.018326,-3.06,41.16,-15.48
4.2223,-8.9349,0.21793,-0.05284,0.014661,-0.047037,-3.36,41.22,-15.54
4.1951,-8.9622,0.1362,-0.042761,0.0079412,-0.04948,-3.42,41.22,-15.6
4.0725,-8.9622,0.14982,-0.031765,-0.0073304,-0.037874,-3.36,41.22,-15.48
4.0316,-8.9349,0.1362,-0.022602,-0.0088575,-0.028405,-3.48,41.1,-15.3
4.0316,-8.9758,0.12258,-0.023213,-0.0036652,-0.018021,-3.48,41.16,-15.24
4.127,-9.0575,0.040861,-0.036957,-0.0030543,-0.018937,-3.48,41.34,-15.48
4.0861,-9.0303,0.054481,-0.032376,-0.0045815,-0.028405,-3.48,41.22,-15.48
4.0589,-8.9894,0.054481,-0.039706,0.0027489,-0.026878,-3.72,41.22,-15.42
4.0044,-8.9486,-0.01362,-0.026267,-0.0030543,-0.033292,-3.9,41.16,-15.36
3.9908,-8.9349,-0.01362,-0.034819,-0.022297,-0.0281,-3.84,41.1,-15.3
3.9908,-8.9077,-0.095342,-0.034819,-0.032376,-0.017104,-3.72,41.28,-15.12
4.127,-8.826,-0.054481,-0.032376,-0.025656,0.0039706,-3.72,41.1,-15.12
4.0044,-8.8805,-0.027241,-0.047953,-0.0051924,0.021991,-3.66,41.22,-15.12
4.018,-8.9213,0.027241,-0.054672,-0.0033598,0.022602,-3.78,41.1,-15.24
4.0725,-8.9349,0.027241,-0.057116,-0.0073304,0.022907,-3.84,40.86,-15.36
4.127,-8.9894,0.040861,-0.053145,-0.0067195,0.026573,-4.02,40.74,-15.36
4.1133,-9.0575,0.095342,-0.055589,0.000611,0.023518,-4.02,40.74,-15.48
4.127,-8.9758,0.054481,-0.054367,0.0030543,0.019548,-3.96,40.62,-15.54
4.1542,-8.9894,0.054481,-0.043677,-0.0015272,0.009163,-3.84,40.68,-15.66
4.1133,-8.9894,0.027241,-0.050702,0.0033598,0.013134,-3.78,40.56,-15.54
4.1542,-9.0031,0.14982,-0.045815,0.0033598,0.007025,-3.96,40.5,-15.66
4.1814,-8.9349,0.095342,-0.042455,0.014966,0.0033598,-4.14,40.44,-15.72
4.1542,-8.9622,0.081722,-0.041539,0.018937,-0.000916,-4.2,40.44,-15.6
4.127,-8.8941,0.095342,-0.04215,0.020464,-0.0024435,-4.14,40.56,-15.42
4.1542,-8.9077,0.054481,-0.045815,0.015577,0.0018326,-3.9,40.56,-15.36
4.1951,-8.9894,0.12258,-0.037568,0.024129,0.0064141,-3.84,40.44,-15.12
4.1951,-9.0167,0.10896,-0.046426,0.027489,-0.0033598,-3.9,40.56,-15.12
4.1814,-8.9622,0.040861,-0.046426,0.023518,-0.0033598,-4.08,40.56,-15.18
4.1814,-8.9622,0.027241,-0.039095,0.02474,-0.0048869,-4.2,40.62,-15.24
4.127,-9.0031,0.027241,-0.044899,0.02138,0.0030543,-4.26,40.68,-15.12
4.1814,-9.0712,0.027241,-0.041844,0.029016,0.007025,-4.2,40.8,-15.0
4.1814,-8.9894,0.01362,-0.052229,0.025962,0.0097738,-4.2,40.8,-15.0
4.1133,-8.9622,0.040861,-0.044899,0.027184,0.002138,-4.2,40.86,-14.82
4.127,-8.9077,-0.068102,-0.052229,0.025656,0.0036652,-4.14,40.86,-15.0
4.0316,-8.9349,-0.027241,-0.049175,0.025351,0.0027489,-4.5,40.74,-15.18
4.018,-8.9894,-0.027241,-0.054062,0.021991,0.0079412,-4.44,40.86,-15.24
3.9908,-9.0303,-0.068102,-0.062919,0.027794,0.017104,-4.38,40.86,-15.18
4.018,-9.0303,0.027241,-0.069639,0.035736,0.015577,-4.56,40.92,-15.18
4.127,-8.9758,-0.068102,-0.068722,0.044899,0.027489,-4.38,41.04,-15.24
4.0589,-8.9622,0.027241,-0.065668,0.044593,0.029627,-4.38,41.04,-15.06
4.0316,-8.9349,-0.01362,-0.066584,0.041539,0.033903,-4.38,40.98,-15.3
4.0589,-8.9213,0.054481,-0.058032,0.035125,0.038179,-4.38,41.1,-15.18
4.0316,-8.9758,0.027241,-0.065668,0.04215,0.042455,-4.38,40.98,-15.06
3.9499,-8.9486,0.095342,-0.069028,0.052229,0.052534,-4.44,41.22,-15.0
4.0044,-8.9758,0.1362,-0.062003,0.036346,0.073609,-4.38,41.28,-14.88
4.0725,-8.9894,0.095342,-0.055283,0.032987,0.087048,-4.26,41.34,-14.94
4.0997,-9.0439,0.16344,-0.053451,0.027794,0.10721,-4.26,41.22,-14.94
4.2087,-9.0167,0.12258,-0.043982,0.035125,0.094684,-4.14,41.1,-14.94
4.2223,-8.9622,0.081722,-0.04948,0.036652,0.083689,-4.02,41.16,-14.82
4.1814,-9.0167,0.01362,-0.043371,0.031765,0.055894,-3.9,41.04,-14.82
4.2087,-8.8396,-0.081722,-0.047342,0.027794,0.040012,-3.72,40.98,-15.0
4.1814,-8.9213,0.027241,-0.039706,0.030238,0.035125,-3.66,41.04,-15.0
4.1814,-8.9894,0.081722,-0.040623,0.034208,0.034819,-3.72,40.98,-15.0
4.2495,-8.8396,0.027241,-0.040317,0.037874,0.030543,-3.6,40.74,-14.94
4.1542,-8.8532,0.054481,-0.033292,0.027794,0.027794,-3.6,40.68,-14.94
4.1951,-8.8941,0.068102,-0.031765,0.019548,0.01741,-3.48,40.8,-14.94
4.2359,-8.9213,0.01362,-0.030238,0.0067195,0.0097738,-3.48,40.92,-14.94
4.2087,-9.0439,0.054481,-0.016799,-0.011301,0.013744,-3.48,40.74,-14.88
4.2223,-9.0575,-0.027241,-0.019853,-0.014661,0.02138,-3.66,40.68,-15.0
4.1814,-9.0575,-0.027241,-0.020159,-0.020159,0.017715,-3.72,40.68,-14.88
4.1678,-9.0167,-0.054481,-0.0097738,-0.022297,0.007025,-3.66,40.74,-15.0
4.1814,-8.9894,-0.027241,-0.020159,-0.018937,0.0076358,-3.6,40.8,-15.0
4.1542,-8.9486,-0.081722,-0.021686,-0.0094684,-0.007025,-3.54,40.86,-15.0
4.1814,-8.9758,-0.054481,-0.035736,0.000916,-0.0088575,-3.54,40.92,-15.18
4.1542,-8.9349,0.01362,-0.032376,0.0024435,-0.012828,-3.66,41.22,-15.36
4.1542,-8.9622,0.01362,-0.03146,-0.013134,0.01069,-3.78,41.16,-15.48
4.1406,-8.9622,0.040861,-0.020464,-0.022297,0.0073304,-3.72,41.28,-15.42
4.1951,-8.9758,-0.027241,-0.0067195,-0.040012,0.0094684,-3.66,41.4,-15.36
4.1678,-9.0439,-0.01362,0.0048869,-0.061392,0.021991,-3.66,41.52,-15.54
4.1542,-9.0984,-0.054481,0.0094684,-0.072082,0.028405,-3.66,41.46,-15.3
4.1814,-9.0439,-0.054481,0.016493,-0.075442,0.023518,-3.66,41.52,-15.42
4.1678,-9.0984,-0.040861,0.017715,-0.079412,0.020464,-3.72,41.58,-15.36
4.1542,-9.0984,-0.054481,0.018021,-0.084605,0.022297,-3.9,41.34,-15.3
4.1406,-9.0848,-0.12258,0.034514,-0.096822,0.028711,-3.96,41.34,-15.3
4.1814,-9.1256,-0.14982,0.032987,-0.12431,0.039706,-3.96,41.34,-15.24
4.1542,-9.0575,-0.068102,0.038179,-0.15119,0.055894,-3.9,41.22,-15.06
4.1814,-8.9894,-0.040861,0.040623,-0.17685,0.075136,-3.9,41.1,-15.06
4.1542,-8.7987,-0.14982,0.041539,-0.197,0.076358,-3.78,41.1,-14.94
4.2359,-8.6762,-0.1362,0.030849,-0.23427,0.076053,-3.72,40.98,-15.06
4.2904,-8.8124,-0.14982,-0.0030543,-0.2587,0.094073,-3.84,40.98,-15.24
4.3177,-8.9894,-0.027241,-0.03543,-0.26389,0.13622,-3.9,40.98,-15.18
4.3994,-9.1529,0.14982,-0.059865,-0.25443,0.15149,-3.72,40.98,-15.42
4.4539,-9.3027,0.17706,-0.07758,-0.20342,0.15149,-3.78,40.92,-15.42
4.5628,-9.1256,0.28603,-0.093157,-0.15944,0.13347,-3.78,40.92,-15.66
4.699,-9.0848,0.29965,-0.06689,-0.19426,0.10599,-3.66,40.92,-15.6
4.6309,-9.1937,0.42223,-0.058643,-0.2474,0.080329,-3.66,40.86,-15.54
4.6854,-9.1801,0.31327,-0.052534,-0.27825,0.051924,-3.78,40.86,-15.54
4.5083,-9.2755,0.28603,-0.047647,-0.28924,0.026267,-3.78,40.8,-15.54
4.5083,-9.2074,0.21793,-0.059559,-0.25351,-0.0015272,-3.72,40.92,-15.48
4.4266,-9.1256,0.19068,-0.094379,-0.19426,-0.040012,-3.96,40.92,-15.48
4.3177,-8.8532,0.16344,-0.11606,-0.13347,-0.090103,-4.08,40.8,-15.42
4.3177,-8.9349,0.095342,-0.13317,-0.092241,-0.1463,-4.14,40.74,-15.36
4.304,-8.9349,0.054481,-0.14844,-0.088881,-0.18173,-4.2,40.74,-15.48
3.9635,-8.9758,0.24517,-0.1631,-0.068722,-0.18906,-4.56,40.74,-15.42
4.018,-9.2482,0.38137,-0.17776,-0.024435,-0.22449,-4.62,40.8,-15.24
3.9771,-9.3163,0.44947,-0.15272,-0.075747,-0.21747,-4.68,41.04,-15.24
3.8954,-10.215,0.44947,-0.13622,-0.1518,-0.14875,-5.1,41.22,-15.12
3.8954,-10.215,0.31327,-0.12339,-0.16707,-0.12553,-5.22,41.16,-15.12
3.7728,-10.011,0.17706,-0.077885,-0.17898,-0.072693,-5.22,41.28,-15.24
3.8546,-9.4117,-0.095342,0.0067195,-0.19426,-0.055894,-5.64,41.34,-15.18
3.9635,-9.0848,-0.27241,0.041844,-0.29596,-0.064446,-5.88,41.4,-15.18
3.8546,-8.7715,-0.89894,0.071166,-0.40653,-0.064141,-5.88,41.34,-15.06
3.514,-8.6353,-1.0215,0.06689,-0.40745,-0.10537,-6.36,41.52,-14.94
3.5958,-8.6353,-1.0215,-0.012828,-0.32956,-0.11759,-6.54,41.58,-14.94
3.4596,-8.6489,-0.99429,-0.062614,-0.27733,-0.11515,-6.6,41.52,-14.76
3.337,-8.6625,-0.95342,-0.17349,-0.10629,-0.061392,-6.66,41.46,-14.7
3.514,-8.7987,-0.76274,-0.23152,-0.043066,-0.014966,-6.84,41.4,-14.76
3.4323,-8.8668,-0.72188,-0.2584,-0.010079,0.043677,-7.08,41.04,-14.82
3.6639,-8.8668,-0.7355,-0.26664,-0.0073304,0.10079,-7.08,40.92,-14.7
3.5958,-8.4855,-0.8036,-0.23457,-0.069944,0.13867,-7.44,40.92,-14.64
3.5685,-8.1722,-0.76274,-0.19945,-0.12278,0.135,-7.56,40.8,-14.34
3.5277,-8.1586,-0.74912,-0.18784,-0.14508,0.12859,-7.68,40.8,-14.34
3.4868,-8.6081,-0.85808,-0.13867,-0.20189,0.16127,-7.68,40.56,-14.04
3.4323,-9.0848,-1.0215,-0.13011,-0.17287,0.208,-7.74,40.68,-14.04
3.5549,-9.3163,-1.1305,-0.13989,-0.10507,0.26878,-7.74,40.62,-13.74
3.6094,-9.2346,-1.3212,-0.17898,0.044288,0.29902,-7.68,40.68,-13.56
3.6366,-9.1937,-1.2122,-0.20464,0.12339,0.2926,-7.8,40.62,-13.32
3.7184,-9.1937,-1.1577,-0.21411,0.15638,0.28344,-7.8,40.68,-13.08
3.909,-9.3844,-1.185,-0.21655,0.19792,0.29505,-7.86,40.92,-13.02
4.0044,-9.2891,-1.2395,-0.18845,0.16738,0.31673,-7.62,41.1,-12.96
4.0316,-9.2618,-1.2395,-0.15394,0.10934,0.35003,-7.38,41.28,-12.6
3.9635,-8.7715,-1.2939,-0.135,0.065668,0.35461,-7.14,41.22,-12.54
3.9771,-8.54,-1.362,-0.13592,0.066584,0.35522,-6.84,41.46,-12.6
3.9635,-8.4446,-1.3484,-0.13531,0.080329,0.35888,-6.6,41.46,-12.48
4.0316,-8.4855,-1.3893,-0.14203,0.10232,0.36621,-6.18,41.76,-12.42
4.0725,-8.5127,-1.3212,-0.12859,0.13286,0.36774,-5.88,41.88,-12.36
4.2087,-8.4446,-1.4301,-0.10385,0.13897,0.37232,-5.64,41.88,-12.48
4.3313,-8.4174,-1.4574,-0.053145,0.088881,0.36011,-4.98,41.94,-12.36
4.3858,-8.4174,-1.4982,-0.000916,0.014966,0.34422,-4.62,42.12,-12.42
4.4675,-8.4174,-1.4301,0.021075,-0.030238,0.32529,-4.38,42.24,-12.48
4.5764,-8.6762,-1.4301,0.079718,-0.17013,0.28466,-3.96,42.18,-12.36
4.7671,-9.2346,-1.6208,0.087354,-0.24221,0.26848,-3.36,42.24,-12.06
4.6445,-9.0984,-1.6889,0.061697,-0.26909,0.20372,-3.12,42.24,-12.18
4.5356,-8.826,-1.3484,0.029322,-0.22327,0.1014,-2.64,42.42,-12.06
4.6445,-9.0984,-1.2939,-0.026878,-0.16524,-0.078496,-2.46,42.3,-12.06
4.6718,-9.4117,-1.3484,-0.063835,-0.13042,-0.19242,-2.22,42.36,-11.94
4.6854,-9.8339,-1.2803,-0.10843,-0.047647,-0.2981,-2.1,42.42,-12.0
4.5083,-10.025,-0.98067,-0.14783,0.050396,-0.41844,-1.8,42.24,-12.0
4.3858,-9.7794,-0.89894,-0.16432,0.1295,-0.54275,-1.74,42.3,-11.94
4.413,-9.398,-0.78998,-0.15638,0.14752,-0.65363,-1.8,42.24,-11.76
4.3449,-9.2482,-0.77636,-0.096211,0.016188,-0.74739,-2.04,42.24,-11.88
4.3449,-9.2482,-0.7355,-0.072998,-0.051924,-0.76664,-2.22,42.12,-11.76
4.3313,-9.1937,-0.72188,-0.025045,-0.25626,-0.78924,-2.46,42.12,-11.64
3.9635,-9.0303,-0.78998,0.000916,-0.34331,-0.7761,-3.12,42.0,-11.64
3.8954,-9.0439,-0.76274,0.017715,-0.38393,-0.74373,-3.54,42.06,-11.52
3.7047,-9.112,-0.92618,0.023213,-0.37568,-0.69211,-3.84,41.88,-11.58
3.6503,-9.0848,-0.92618,0.015577,-0.35949,-0.60292,-4.62,42.0,-11.52
3.5958,-9.0848,-0.92618,0.02138,-0.33292,-0.54734,-5.16,41.76,-11.46
3.7456,-9.0575,-0.98067,0.015272,-0.33628,-0.51526,-5.76,41.76,-11.34
3.6366,-9.0575,-0.92618,0.029016,-0.37354,-0.43463,-6.84,41.58,-11.34
3.5685,-8.9622,-0.96704,0.023824,-0.39034,-0.38912,-7.38,41.28,-11.28
3.4732,-8.826,-0.99429,0.018326,-0.36285,-0.36255,-8.58,41.04,-11.1
3.3778,-8.7715,-1.1032,0.013744,-0.29871,-0.34789,-9.18,40.86,-11.04
3.3642,-8.7034,-1.1169,0.0036652,-0.25168,-0.36346,-9.72,40.86,-11.1
3.3097,-8.7034,-1.185,-0.0061087,-0.21594,-0.37202,-10.32,40.74,-11.04
3.2008,-8.8396,-1.185,-0.013744,-0.1857,-0.38087,-11.1,40.56,-10.92
3.2144,-8.9622,-1.2531,-0.0094684,-0.13775,-0.36072,-11.46,40.32,-10.92
3.2553,-9.1256,-1.2803,-0.012523,-0.095906,-0.30604,-12.0,40.38,-10.86
3.228,-9.2891,-1.3076,-0.0058032,-0.047342,-0.23366,-12.84,39.84,-10.74
3.2825,-9.2074,-1.2803,-0.009163,0.034514,-0.049175,-13.26,39.78,-10.92
3.2825,-9.0303,-1.2803,-0.014355,0.051924,0.027489,-13.62,39.66,-10.98
3.4187,-8.6217,-1.2258,0.0058032,0.052229,0.28986,-14.16,39.48,-10.92
3.5685,-8.4446,-1.2395,0.027489,0.025351,0.47464,-14.4,39.42,-10.8
3.7047,-8.2131,-1.2531,0.035125,-0.043066,0.65546,-14.52,39.3,-10.8
3.6775,-8.1586,-1.4301,0.043677,-0.09896,0.80481,-14.58,39.24,-10.98
3.732,-8.2131,-1.3076,0.032376,-0.12156,0.93096,-14.52,39.12,-10.92
3.8273,-8.3765,-1.4029,-0.015577,-0.063225,1.0296,-14.28,39.24,-10.92
3.8954,-8.8124,-1.4165,-0.05284,0.02138,1.0464,-13.86,39.24,-11.16
4.0589,-8.9349,-1.3484,-0.080634,0.096822,1.0302,-13.62,39.24,-11.1
4.2632,-9.1801,-1.4301,-0.082467,0.14966,0.98044,-13.14,39.24,-11.1
4.5492,-9.5751,-1.471,-0.06017,0.1744,0.87201,-12.3,39.72,-11.34
4.7535,-9.6568,-1.5527,-0.050396,0.16768,0.81825,-11.7,39.84,-11.28
4.7671,-9.7385,-1.7025,-0.029016,0.11332,0.71563,-11.04,39.84,-11.22
4.8352,-9.6704,-1.58,-0.011912,0.021991,0.51343,-10.5,39.96,-11.22
4.7944,-9.4798,-1.6072,-0.0039706,-0.000305,0.36408,-9.9,40.2,-11.22
4.5764,-9.1256,-1.7025,-0.021075,0.029932,0.14813,-8.58,40.56,-11.4
4.4947,-9.0303,-1.5936,-0.054367,0.067501,0.014966,-8.04,40.68,-11.16
4.3858,-8.9486,-1.6072,-0.073609,0.098349,-0.051924,-7.56,40.98,-11.1
4.1678,-8.9894,-1.4574,-0.14936,0.24374,-0.18112,-6.48,41.16,-11.16
3.9771,-8.826,-1.2803,-0.20892,0.36744,-0.2587,-5.88,41.22,-10.92
3.9635,-8.8124,-1.2803,-0.24496,0.48717,-0.33017,-5.64,41.28,-10.92
3.9363,-8.8941,-1.0488,-0.25045,0.55161,-0.37049,-5.22,41.46,-10.98
3.9908,-8.9622,-1.0488,-0.23579,0.52687,-0.35583,-5.04,41.34,-10.74
4.1951,-9.0031,-0.99429,-0.22358,0.489,-0.34728,-4.98,41.46,-10.68
4.127,-8.8396,-0.96704,-0.17501,0.35705,-0.27428,-4.98,41.52,-10.38
4.0589,-8.8941,-0.99429,-0.13195,0.26267,-0.23885,-5.04,41.46,-10.26
3.9227,-8.826,-1.0079,-0.090408,0.19548,-0.21961,-5.1,41.52,-10.2
3.9771,-8.8668,-1.2531,-0.044593,0.13317,-0.20831,-5.34,41.52,-10.08
4.0725,-8.8941,-1.2803,0.011301,-0.014966,-0.18906,-5.46,41.52,-10.2
3.8001,-8.7987,-1.5663,0.010079,-0.064141,-0.17013,-5.52,41.28,-10.14
3.6775,-8.826,-1.757,0.013134,-0.10171,-0.14203,-5.76,41.34,-10.14
3.6094,-8.9894,-1.9341,-0.021686,-0.048258,-0.10873,-5.82,41.28,-10.14
3.6775,-9.0439,-2.0294,-0.083994,0.16402,-0.057421,-6.06,41.34,-10.2
4.1678,-9.1801,-2.1929,-0.14264,0.25381,-0.039095,-6.3,41.22,-10.32
4.2904,-9.2074,-2.1384,-0.19456,0.27458,-0.031154,-6.42,41.34,-10.32
4.3721,-8.9622,-1.9886,-0.1967,0.23824,-0.025962,-6.42,41.22,-10.26
4.1814,-8.826,-1.8387,-0.17257,0.12645,-0.016188,-6.42,41.28,-10.44
4.018,-8.7443,-1.6072,-0.087048,-0.052534,0.051618,-6.42,41.22,-10.56
3.8954,-8.6081,-1.471,-0.047647,-0.12126,0.11851,-6.66,41.1,-10.62
3.8409,-8.54,-1.3893,-0.022907,-0.16371,0.16157,-6.72,41.28,-10.74
3.8273,-8.4174,-1.4029,-0.0067195,-0.16738,0.2025,-6.6,41.22,-10.8
3.8273,-8.2812,-1.3076,-0.0054978,-0.16829,0.21564,-6.66,41.22,-10.68
3.8546,-8.4582,-1.3348,-0.01741,-0.15394,0.23793,-6.66,41.1,-10.56
3.9635,-8.6081,-1.3348,-0.021075,-0.099266,0.27428,-6.78,41.04,-10.62
4.127,-9.0575,-1.362,-0.020769,-0.076358,0.28191,-6.54,41.16,-10.44
4.2359,-9.1256,-1.4846,-0.015882,-0.10507,0.27336,-6.42,41.22,-10.32
4.2223,-9.2891,-1.4982,-0.016799,-0.13286,0.24679,-6.36,41.04,-10.5
4.1951,-9.3027,-1.4438,-0.019242,-0.11698,0.16768,-6.36,41.04,-10.5
4.2223,-9.2482,-1.5119,-0.019853,-0.10171,0.097433,-6.24,41.04,-10.44
4.2632,-9.0575,-1.5119,-0.018937,-0.096211,0.020769,-6.24,41.16,-10.44
4.2223,-8.9758,-1.5119,-0.018631,-0.10079,-0.015577,-6.06,41.1,-10.32
4.0452,-8.7987,-1.3757,-0.041233,-0.10812,-0.098349,-5.64,40.98,-10.02
4.0452,-8.7987,-1.3757,-0.041233,-0.10812,-0.098349,-5.64,40.98,-10.02
4.018,-8.7851,-1.3212,-0.040012,-0.087048,-0.11026,-5.58,41.1,-9.96
4.0316,-8.7851,-1.2395,-0.02474,-0.068722,-0.097128,-5.46,41.1,-9.9
4.0316,-8.8532,-1.2531,-0.009163,-0.085216,-0.096211,-5.4,41.22,-9.84
4.0997,-8.9622,-1.2258,0.014355,-0.13195,-0.10446,-5.7,41.04,-9.72
4.0861,-9.0303,-1.3893,0.033598,-0.18082,-0.1066,-5.64,41.04,-9.78
3.9635,-9.1256,-1.6617,0.032987,-0.22388,-0.12737,-5.82,41.16,-9.54
3.8137,-9.1393,-1.6208,0.021075,-0.2361,-0.13408,-5.88,41.1,-9.72
3.7728,-9.1393,-1.6072,0.019548,-0.21258,-0.1631,-6.06,41.04,-9.72
3.6911,-9.1393,-1.7298,-0.0054978,-0.12095,-0.18234,-6.3,41.1,-9.72
3.7592,-9.0303,-1.7162,-0.025656,-0.068722,-0.19303,-6.42,41.22,-9.54
3.5549,-8.9077,-1.5663,-0.034208,-0.021075,-0.19181,-6.72,41.16,-9.72
3.623,-8.9349,-1.6072,-0.053451,0.016799,-0.19945,-6.9,41.1,-9.84
3.6775,-8.8668,-1.58,-0.071777,0.022602,-0.17623,-7.08,41.16,-9.96
3.4459,-8.826,-1.58,-0.076664,0.037568,-0.16402,-7.56,41.1,-10.02
3.4732,-8.8532,-1.5119,-0.080329,0.083689,-0.13958,-7.62,41.1,-10.08
3.5004,-8.826,-1.4029,-0.083689,0.11759,-0.058338,-7.5,41.1,-10.08
3.5004,-8.826,-1.4029,-0.085216,0.11484,-0.03879,-7.5,41.1,-10.08
3.5277,-8.8668,-1.4438,-0.08491,0.13897,0.000916,-7.56,41.04,-10.14
3.5413,-9.0031,-1.4982,-0.093768,0.17685,0.034819,-7.56,40.98,-10.14
3.6503,-8.9622,-1.4165,-0.095295,0.23427,0.04215,-7.86,41.04,-9.96
3.732,-8.8396,-1.4982,-0.097433,0.26359,0.055283,-7.8,41.04,-9.96
3.8137,-8.826,-1.4165,-0.091324,0.25168,0.079412,-7.8,40.92,-10.02
4.0316,-8.8532,-1.471,-0.076053,0.22541,0.093768,-7.8,40.98,-10.14
4.0044,-8.8668,-1.4165,-0.06689,0.18234,0.12523,-7.32,40.86,-10.02
3.9908,-8.8668,-1.3212,-0.051313,0.12553,0.17043,-7.08,40.92,-9.96
3.9771,-8.8805,-1.2531,-0.051618,0.13347,0.18173,-6.72,40.98,-9.54
4.0997,-8.9077,-1.5255,-0.062003,0.1631,0.1857,-6.72,40.92,-9.54
4.1678,-8.8941,-1.58,-0.073609,0.15547,0.19487,-6.78,40.98,-9.66
4.2087,-8.9622,-1.5936,-0.068722,0.16066,0.19364,-6.54,40.92,-9.78
4.3449,-8.9213,-1.6481,-0.083383,0.17501,0.18692,-6.42,40.92,-9.84
4.4539,-8.8668,-1.6344,-0.081245,0.17471,0.15852,-6.36,40.86,-9.72
4.4811,-8.8805,-1.6072,-0.087965,0.14416,0.1179,-6.36,40.92,-9.66
4.3994,-9.0167,-1.5391,-0.084299,0.10385,0.10568,-6.6,40.98,-9.6
4.3858,-9.0031,-1.5119,-0.081551,0.066279,0.098349,-6.72,40.8,-9.9
4.2223,-8.8941,-1.471,-0.067806,0.057727,0.10568,-6.54,40.98,-10.2
4.2768,-8.9349,-1.5119,-0.070555,0.050396,0.1014,-6.42,40.98,-10.02
4.2359,-8.8396,-1.4574,-0.061697,0.041233,0.086743,-6.12,41.04,-9.84
4.1951,-8.8668,-1.4301,-0.060476,0.047647,0.079107,-6.0,41.28,-9.84
4.0997,-8.8805,-1.3212,-0.065057,0.062003,0.051313,-5.76,41.46,-9.66
4.1542,-8.8532,-1.3893,-0.055283,0.058643,0.023213,-5.64,41.4,-9.78
4.1814,-8.8396,-1.3484,-0.040317,0.040928,0.0015272,-5.52,41.52,-9.78
4.1542,-8.8668,-1.362,-0.034819,0.011606,0.0058032,-5.52,41.52,-9.72
4.0725,-8.8941,-1.4029,-0.024129,-0.0088575,0.011912,-5.4,41.46,-9.84
3.9908,-8.8668,-1.4438,-0.02138,-0.0082467,0.0051924,-5.34,41.64,-9.84
4.0589,-8.9077,-1.4165,-0.014966,-0.015882,0.014355,-5.46,41.4,-9.66
4.0316,-8.9213,-1.5119,-0.013439,-0.030238,0.016799,-5.4,41.52,-9.78
3.9908,-8.8941,-1.5391,-0.0051924,-0.047953,0.018326,-5.28,41.34,-9.84
3.9908,-8.9077,-1.471,-0.007025,-0.059865,0.027794,-5.22,41.16,-9.72
3.9908,-8.9349,-1.4982,-0.0048869,-0.058032,0.016188,-5.34,41.16,-9.6
3.9227,-8.9213,-1.4982,-0.013439,-0.04948,0.01069,-5.16,41.1,-9.54
3.9499,-8.8941,-1.4982,-0.010385,-0.054672,0.010079,-5.1,41.04,-9.54
3.8954,-8.9213,-1.4846,-0.015882,-0.043982,0.0045815,-5.16,41.16,-9.66
3.9635,-8.9622,-1.4574,-0.016493,-0.03207,0.0045815,-4.98,41.34,-9.78
3.909,-8.9077,-1.3757,-0.014355,-0.028711,-0.002138,-4.98,41.4,-9.9
4.0316,-8.8668,-1.4301,-0.025351,-0.031765,0.009163,-4.86,41.52,-9.84
3.909,-8.9486,-1.4165,-0.010996,-0.033292,-0.0061087,-4.98,41.64,-9.72
3.9227,-8.9349,-1.4165,-0.018326,-0.034514,-0.017104,-5.04,41.64,-9.84
3.8954,-8.9622,-1.4165,-0.021686,-0.028711,-0.030849,-5.1,41.76,-9.9
3.9227,-8.9349,-1.4438,-0.019548,-0.020769,-0.025045,-4.92,41.76,-10.02
3.9635,-8.9213,-1.3893,-0.020464,-0.0085521,-0.032376,-5.22,41.82,-10.02
3.9227,-8.9077,-1.4574,-0.020464,-0.013744,-0.028711,-5.16,41.82,-9.9
3.8682,-8.9077,-1.3757,-0.017715,-0.013439,-0.019853,-5.28,41.7,-9.84
3.8273,-8.9349,-1.4301,-0.022297,0.002138,-0.020769,-5.64,41.4,-9.84
3.8682,-8.9213,-1.4165,-0.029016,0.016799,-0.016493,-5.64,41.4,-9.84
3.8409,-8.9349,-1.4301,-0.027794,0.0064141,-0.0094684,-5.76,41.34,-9.9
3.8273,-8.9622,-1.471,-0.029932,-0.000916,-0.0015272,-5.82,41.22,-9.9
3.8682,-8.9622,-1.471,-0.025656,0.0054978,0.000611,-5.94,41.22,-9.84
3.8818,-8.9622,-1.5255,-0.027794,0.022297,0.015577,-6.24,41.1,-9.6
3.9227,-9.0303,-1.5391,-0.034208,0.036957,0.027184,-6.24,41.1,-9.72
3.9363,-8.9349,-1.5255,-0.03879,0.03543,0.017715,-6.12,41.16,-9.54
3.9227,-8.8941,-1.471,-0.045815,0.031765,0.015882,-6.12,41.4,-9.54
3.8954,-8.9622,-1.4982,-0.043982,0.038485,0.012523,-6.0,41.4,-9.54
3.8954,-8.9622,-1.3893,-0.05284,0.049175,0.031765,-6.0,41.34,-9.42
3.909,-8.8941,-1.4438,-0.050396,0.054062,0.036652,-5.88,41.34,-9.66
3.9771,-8.9486,-1.4438,-0.04948,0.047647,0.058643,-6.0,41.4,-9.54
3.9635,-8.8941,-1.3484,-0.041844,0.036957,0.056505,-5.88,41.46,-9.6
4.0589,-8.9349,-1.3484,-0.039095,0.034514,0.045204,-6.0,41.46,-9.72
3.9908,-8.9758,-1.4438,-0.039706,0.040317,0.033292,-5.76,41.34,-9.78
4.0589,-8.9622,-1.3757,-0.046426,0.036957,0.031154,-5.76,41.4,-9.96
4.0316,-8.9213,-1.3893,-0.044593,0.033598,0.025962,-5.76,41.34,-10.02
3.9908,-8.9077,-1.4438,-0.043982,0.025656,0.026573,-5.76,41.22,-10.02
4.018,-8.9758,-1.4301,-0.039095,0.019853,0.039706,-5.7,41.22,-10.02
4.0452,-8.9349,-1.4574,-0.042455,0.021991,0.041539,-5.76,41.22,-10.14
4.0589,-8.9622,-1.4846,-0.046731,0.023824,0.05681,-5.7,41.34,-10.14
4.0861,-9.0575,-1.471,-0.049786,0.023824,0.060781,-5.7,41.34,-10.32
4.0861,-9.0031,-1.471,-0.050091,0.01405,0.058032,-5.52,41.46,-10.26
4.0861,-8.9758,-1.5936,-0.053451,0.011606,0.043371,-5.46,41.76,-10.26
4.1542,-8.9349,-1.5391,-0.053756,0.012828,0.042455,-5.28,41.64,-10.08
4.1406,-8.8668,-1.471,-0.053756,-0.0045815,0.022602,-5.28,41.52,-10.02
4.0452,-8.8941,-1.4574,-0.051313,-0.0036652,0.01741,-5.22,41.64,-10.02
4.0316,-8.8805,-1.3893,-0.0562,0.0073304,0.0027489,-5.16,41.58,-9.84
3.9908,-8.8941,-1.471,-0.065363,0.027794,0.0036652,-5.16,41.58,-9.72
4.0044,-8.826,-1.4165,-0.072388,0.032376,0.0085521,-5.04,41.52,-9.84
4.0044,-8.7987,-1.5119,-0.067501,0.030543,0.012828,-5.1,41.34,-9.84
4.0316,-8.8668,-1.4301,-0.056505,0.0061087,0.020159,-5.16,41.22,-9.84
4.0044,-8.8805,-1.4846,-0.042761,-0.0039706,0.014966,-5.28,41.1,-9.84
4.018,-8.7987,-1.4165,-0.033292,-0.0054978,0.011606,-5.28,40.98,-9.84
3.9635,-8.826,-1.4846,-0.030543,-0.0036652,0.018631,-5.28,41.16,-9.84
3.9908,-8.8668,-1.5119,-0.030849,-0.000916,0.012523,-5.16,41.22,-9.78
3.9908,-8.8941,-1.4846,-0.034208,-0.0024435,0.012523,-5.16,41.28,-9.78
3.9363,-8.9349,-1.4574,-0.041844,0.017104,0.013439,-5.16,41.1,-10.02
3.9771,-8.8941,-1.4574,-0.03879,0.012217,0.014355,-5.28,41.16,-9.84
3.9635,-8.9486,-1.5119,-0.030849,0.009163,0.014355,-5.16,41.28,-9.9
3.9635,-8.9486,-1.471,-0.035736,0.000916,0.018937,-5.28,41.4,-9.78
3.9499,-8.8805,-1.4301,-0.03146,-0.0094684,0.018326,-5.22,41.58,-9.66
4.0589,-8.8941,-1.4574,-0.02474,-0.011301,0.021075,-5.28,41.52,-9.78
4.0589,-8.826,-1.4574,-0.029932,-0.015577,0.023518,-5.28,41.58,-9.9
4.0589,-8.826,-1.471,-0.015577,-0.019548,0.027794,-5.34,41.64,-9.9
3.9908,-8.9349,-1.4029,-0.016188,-0.025045,0.027489,-5.34,41.58,-9.96
4.0452,-8.9213,-1.4165,-0.019242,-0.022907,0.025045,-5.34,41.64,-10.08
4.0316,-8.8941,-1.471,-0.0051924,-0.029322,0.017715,-5.52,41.76,-9.78
4.0316,-8.9622,-1.4982,-0.01069,-0.033292,0.0076358,-5.52,41.76,-9.66
4.0316,-8.826,-1.5255,-0.0039706,-0.043371,0.0018326,-5.52,41.82,-9.66
3.9227,-8.8532,-1.4846,-0.0061087,-0.049786,-0.0094684,-5.46,41.82,-9.84
3.9227,-8.8532,-1.5255,-0.010996,-0.03146,-0.018021,-5.34,41.76,-10.08
3.9227,-8.9894,-1.471,-0.020464,-0.016493,-0.017104,-5.4,41.76,-9.9
3.8409,-8.9213,-1.4982,-0.01405,-0.014661,-0.0051924,-5.28,41.58,-9.72
3.8546,-8.9486,-1.4165,-0.023824,-0.012828,0.007025,-5.58,41.58,-9.96
3.8682,-8.9349,-1.4574,-0.021686,-0.01069,0.0030543,-5.52,41.58,-9.9
3.8682,-8.9758,-1.4574,-0.020769,-0.01405,0.0076358,-5.28,41.64,-9.9
3.8137,-8.9894,-1.58,-0.024129,-0.0094684,0.0024435,-5.22,41.64,-9.96
3.8273,-8.9758,-1.4438,-0.029016,0.0036652,-0.000305,-5.16,41.7,-10.08
3.8409,-8.8805,-1.3076,-0.030238,0.015882,0.0097738,-5.16,41.7,-9.84
3.8273,-8.9486,-1.3757,-0.029322,0.011912,0.0051924,-5.28,41.64,-9.72
3.8409,-8.9349,-1.3348,-0.028405,0.0085521,0.01069,-5.34,41.64,-9.6
3.7865,-8.9349,-1.3893,-0.029322,0.022297,0.0048869,-5.34,41.52,-9.72
3.8001,-8.8941,-1.4029,-0.025656,0.021686,0.01405,-5.4,41.4,-9.78
3.8273,-8.9622,-1.3757,-0.025045,0.018021,0.022602,-5.22,41.34,-9.66
3.7592,-8.9622,-1.3212,-0.023518,0.023213,0.034819,-5.1,41.4,-9.3
3.7865,-8.9894,-1.2803,-0.034514,0.038485,0.040317,-5.1,41.28,-9.3
3.7592,-8.9486,-1.4029,-0.026878,0.051618,0.045509,-5.28,41.1,-9.36
3.8682,-8.9349,-1.3484,-0.032376,0.068722,0.061697,-5.34,40.98,-9.6
3.9227,-8.9213,-1.4438,-0.03543,0.054672,0.062308,-5.52,41.04,-9.66
3.9908,-8.9622,-1.4438,-0.030238,0.041844,0.06689,-5.4,41.04,-9.54
3.9227,-9.0031,-1.4438,-0.037874,0.04612,0.069639,-5.7,40.92,-9.66
3.8954,-8.9894,-1.3757,-0.037263,0.074831,0.071471,-5.58,40.86,-9.78
3.9227,-8.9622,-1.3348,-0.03879,0.076664,0.057727,-5.52,40.92,-9.9
4.0589,-8.9894,-1.4165,-0.047037,0.064446,0.075136,-5.4,40.98,-10.02
4.0316,-9.0303,-1.3212,-0.045815,0.0562,0.062614,-5.28,41.1,-9.96
4.0316,-8.9622,-1.2531,-0.041844,0.056505,0.063225,-5.52,40.98,-10.14
3.9908,-8.9622,-1.3484,-0.042455,0.067195,0.054062,-5.46,40.98,-10.38
4.0044,-8.9894,-1.4574,-0.047647,0.06689,0.047037,-5.34,41.04,-10.5
3.9908,-8.9349,-1.3484,-0.04612,0.062614,0.037874,-5.22,41.16,-10.62
4.0725,-8.9349,-1.4165,-0.055589,0.062003,0.037263,-5.22,41.22,-10.56
4.018,-8.9349,-1.4438,-0.05681,0.071777,0.037568,-5.04,41.22,-10.5
4.018,-8.9622,-1.3484,-0.0562,0.072693,0.035125,-4.86,41.22,-10.44
4.0589,-8.9894,-1.3076,-0.054978,0.072693,0.015577,-4.68,41.22,-10.44
4.0044,-8.8941,-1.3484,-0.052229,0.065668,0.018326,-4.62,41.34,-10.26
4.0044,-8.9894,-1.3212,-0.047342,0.053756,0.007025,-4.62,41.22,-10.14
3.9363,-8.9894,-1.3893,-0.052229,0.045509,0.010996,-4.68,41.28,-10.02
3.8682,-9.0303,-1.3484,-0.046426,0.051313,0.0097738,-4.8,41.16,-10.08
3.9227,-8.9758,-1.4982,-0.053756,0.051313,0.0015272,-4.8,41.22,-9.96
3.8137,-9.0167,-1.3757,-0.051924,0.0562,0.0042761,-4.74,41.22,-9.9
3.8001,-9.0031,-1.3484,-0.060781,0.058948,0.0042761,-4.8,41.28,-9.78
3.8001,-9.0167,-1.471,-0.055894,0.060476,0.0088575,-4.74,41.28,-9.72
3.732,-8.9894,-1.471,-0.062919,0.066584,0.014355,-4.86,41.46,-9.54
3.8001,-9.0303,-1.2939,-0.054367,0.075747,0.024129,-4.92,41.34,-9.48
3.8273,-8.9894,-1.4438,-0.052229,0.059559,0.035125,-4.86,41.46,-9.6
3.8546,-8.8941,-1.4438,-0.04948,0.041233,0.044899,-4.98,41.64,-9.54
3.8409,-8.8124,-1.3212,-0.04948,0.029932,0.046731,-5.04,41.64,-9.6
3.8001,-8.8941,-1.2803,-0.056505,0.036652,0.06689,-4.8,41.88,-9.66
3.8546,-8.8668,-1.3212,-0.055589,0.040012,0.078496,-4.74,42.0,-9.54
3.9363,-8.9349,-1.2803,-0.051618,0.032681,0.09163,-4.86,41.94,-9.6
3.8818,-8.9758,-1.3484,-0.034819,0.025962,0.10232,-4.62,41.94,-9.6
4.018,-8.9622,-1.362,-0.040623,0.021991,0.097433,-4.56,42.0,-9.6
4.0725,-9.0031,-1.3484,-0.030238,0.017104,0.080023,-4.38,41.94,-9.72
4.018,-9.0031,-1.4165,-0.032987,0.016188,0.063225,-4.26,41.82,-9.84
4.0861,-8.9758,-1.2395,-0.03879,0.022907,0.051313,-4.08,41.76,-9.96
4.0316,-9.0031,-1.3076,-0.038485,0.028405,0.025045,-3.96,41.82,-10.02
3.9908,-8.9349,-1.3484,-0.030238,0.03146,0.0048869,-3.96,41.82,-9.9
3.9499,-8.8805,-1.3348,-0.030849,0.031765,-0.0042761,-3.84,41.88,-9.96
3.9227,-8.8396,-1.1986,-0.036041,0.031765,0.000916,-3.9,41.76,-9.84
3.8954,-8.9213,-1.2531,-0.032376,0.040928,-0.012217,-3.96,41.64,-9.96
3.9363,-8.8941,-1.2939,-0.025045,0.035125,-0.0073304,-3.9,41.52,-10.02
3.9227,-8.8941,-1.2531,-0.026267,0.022297,-0.0067195,-3.72,41.64,-10.02
3.9227,-8.9622,-1.2395,-0.021686,0.0094684,-0.0045815,-3.54,41.64,-10.14
3.8954,-9.0303,-1.2667,-0.0036652,0.0048869,0.0039706,-3.66,41.64,-10.08
3.909,-8.9758,-1.2939,-0.0058032,0.0039706,-0.0030543,-3.6,41.7,-10.08
3.9499,-8.9349,-1.2667,-0.016493,0.017104,-0.0036652,-3.6,41.82,-9.78
3.8954,-8.8941,-1.2258,-0.016188,0.015272,-0.002138,-3.72,41.88,-9.66
3.9227,-8.9758,-1.2395,-0.0067195,0.0097738,-0.0067195,-3.84,41.94,-9.66
3.8954,-8.9622,-1.2803,0.0018326,-0.0045815,-0.0045815,-3.84,41.88,-9.6
3.9227,-8.8941,-1.3484,0.0067195,-0.01741,-0.0054978,-3.9,41.88,-9.72
3.8954,-8.9486,-1.2803,0.007025,-0.020159,-0.0088575,-3.84,42.0,-9.9
3.8954,-9.0303,-1.4165,0.0058032,-0.018937,-0.016188,-3.84,42.06,-9.96
3.909,-8.9622,-1.3757,0.009163,-0.021075,-0.010996,-3.84,42.18,-10.08
3.8954,-9.0303,-1.4029,0.000305,-0.020769,-0.011912,-3.9,42.24,-10.14
3.9363,-9.0439,-1.3212,-0.0027489,-0.024129,-0.010385,-3.96,42.18,-10.26
3.8682,-9.0575,-1.362,-0.0058032,-0.017715,-0.018631,-4.02,42.18,-10.44
3.8273,-9.0167,-1.362,-0.022602,0.010079,-0.015272,-4.08,42.12,-10.44
3.8954,-9.0575,-1.3484,-0.036957,0.03543,-0.026267,-4.08,42.12,-10.26
3.8682,-8.9894,-1.3757,-0.041539,0.054672,-0.029932,-4.2,42.06,-10.32
3.8001,-9.0031,-1.3212,-0.03146,0.069639,-0.029932,-4.14,42.0,-10.14
3.7592,-8.8941,-1.185,-0.039706,0.083078,-0.030849,-4.2,41.88,-10.32
3.732,-8.826,-1.2258,-0.030238,0.083383,-0.033292,-4.14,41.88,-10.32
3.8137,-8.8941,-1.1441,-0.036041,0.097433,-0.022297,-4.26,41.82,-10.5
3.7865,-8.8396,-1.1441,-0.033903,0.10324,-0.010996,-4.32,41.94,-10.32
3.9771,-8.8668,-1.185,-0.034514,0.10629,-0.0054978,-4.32,41.88,-10.2
4.0452,-8.8941,-1.1577,-0.022907,0.082161,-0.0012217,-4.26,41.82,-10.14
4.0589,-8.9622,-1.0896,-0.025045,0.07086,0.021686,-4.2,41.82,-10.2
4.0861,-8.9622,-1.1169,-0.021686,0.06017,0.023824,-4.2,41.94,-10.14
4.127,-8.9758,-0.98067,-0.018326,0.033903,0.041233,-4.2,41.94,-10.14
4.018,-8.8941,-1.0351,-0.010996,0.000305,0.053145,-4.26,41.7,-10.38
3.9771,-8.8941,-1.0488,0.0097738,-0.017715,0.048258,-4.32,41.7,-10.44
4.0997,-8.9894,-1.1169,0.019548,-0.0024435,0.044593,-4.32,41.88,-10.74
4.0997,-8.9622,-1.185,0.019548,-0.0076358,0.038179,-4.14,41.82,-10.68
4.1542,-8.9349,-1.2939,0.011912,-0.0027489,0.038179,-4.14,41.88,-10.68
4.0452,-9.0575,-1.185,0.0061087,0.0088575,0.037568,-3.96,42.0,-10.62
4.0861,-9.112,-1.1713,-0.018631,0.035736,0.019548,-4.02,41.94,-10.62
4.0316,-9.1256,-1.185,-0.015272,0.041233,0.010385,-3.96,42.0,-10.74
3.9499,-9.112,-1.185,-0.026267,0.048564,-0.0058032,-3.96,41.94,-10.74
3.9499,-9.1393,-1.185,-0.041844,0.048869,-0.019548,-3.96,41.82,-10.8
3.732,-9.0848,-1.1713,-0.038179,0.074526,-0.032376,-3.96,41.82,-10.74
3.6366,-9.0984,-1.2531,-0.056505,0.097738,-0.026878,-3.96,41.76,-10.74
3.6775,-9.0712,-1.2803,-0.055283,0.11484,-0.0085521,-4.02,41.64,-10.8
3.6775,-9.0712,-1.2122,-0.065668,0.14569,0.014355,-4.02,41.94,-10.8
3.732,-9.0303,-1.1441,-0.077274,0.15852,0.032987,-4.02,41.76,-10.8
3.6775,-9.0848,-1.1713,-0.076053,0.16463,0.054062,-3.96,41.64,-10.68
3.8273,-8.9349,-1.0896,-0.072388,0.18204,0.072998,-4.08,41.58,-10.8
4.0044,-8.8941,-1.0624,-0.074831,0.18509,0.082467,-4.02,41.52,-10.68
4.0997,-8.9622,-1.1305,-0.065057,0.16585,0.095295,-4.02,41.58,-10.74
4.0725,-8.8941,-1.1169,-0.0562,0.091324,0.11759,-4.02,41.52,-10.74
4.0725,-8.9622,-0.96704,-0.04948,0.089492,0.13103,-4.02,41.58,-10.74
3.9908,-8.9758,-0.92618,-0.051313,0.096517,0.13653,-4.02,41.7,-10.62
4.0589,-8.9622,-0.95342,-0.031154,0.090713,0.1405,-3.96,41.88,-10.5
4.1133,-8.8805,-1.0215,-0.034208,0.068111,0.13928,-3.9,41.88,-10.38
4.2223,-8.8941,-0.92618,-0.017104,0.051618,0.13286,-3.72,41.88,-10.2
4.304,-8.9213,-1.0079,-0.010385,0.03543,0.11973,-3.66,41.7,-10.2
4.2223,-8.9349,-1.0624,-0.0039706,0.03543,0.1124,-3.48,41.76,-10.26
4.127,-8.9213,-1.0215,-0.011606,0.05681,0.098655,-3.42,41.82,-10.26
4.1814,-9.0303,-1.0215,-0.020159,0.13347,0.070555,-3.06,41.88,-10.38
4.2768,-9.1801,-1.0351,-0.023518,0.14966,0.047342,-3.12,41.82,-10.5
4.2768,-9.0031,-0.96704,-0.027489,0.10415,0.028405,-3.12,41.76,-10.56
4.1678,-9.0303,-0.96704,-0.030238,0.033598,-0.000611,-2.94,41.94,-10.74
4.0861,-8.9622,-1.1441,-0.027794,-0.0018326,-0.012217,-2.82,41.88,-10.68
3.9635,-8.9894,-1.0079,-0.033903,-0.0012217,-0.015577,-2.7,41.88,-10.62
3.8954,-8.9622,-1.0896,-0.038485,0.011912,-0.020159,-2.58,41.7,-10.8
3.9635,-8.9894,-1.0215,-0.041233,0.03543,-0.011606,-2.64,41.7,-10.92
3.8682,-9.0303,-0.99429,-0.038179,0.042761,-0.012828,-2.7,41.82,-11.04
3.8818,-8.9622,-1.0215,-0.044288,0.03879,0.0085521,-2.58,41.88,-11.16
3.8409,-9.0303,-0.96704,-0.032987,0.032987,0.017715,-2.64,42.0,-11.22
3.8954,-9.0439,-0.96704,-0.03146,0.027794,0.019548,-2.64,41.94,-11.28
3.8273,-9.0303,-0.96704,-0.023518,0.0079412,0.036346,-2.94,41.94,-11.28
3.8137,-9.1393,-1.0079,-0.024129,0.007025,0.040928,-2.82,41.88,-11.28
3.8137,-9.1529,-0.96704,-0.024435,0.0085521,0.040012,-2.76,42.0,-11.16
3.909,-9.0303,-0.96704,-0.025045,0.019242,0.049786,-2.58,41.82,-10.86
3.9771,-9.0575,-0.99429,-0.012217,-0.01069,0.067501,-2.64,41.88,-11.04
3.9499,-9.0848,-1.0215,-0.01741,-0.0036652,0.06689,-2.58,41.88,-11.04
4.0589,-8.9758,-0.89894,-0.03146,0.017104,0.061087,-2.52,41.94,-10.98
4.1406,-8.9758,-1.0215,-0.040012,0.0048869,0.042455,-2.58,42.0,-11.04
4.0589,-9.0439,-0.9398,-0.041844,-0.0085521,0.033292,-2.46,41.82,-11.1
4.0044,-9.0712,-0.91256,-0.043982,-0.01405,0.015577,-2.34,41.76,-11.16
4.0452,-9.0575,-0.9398,-0.041539,-0.010996,-0.0048869,-2.22,41.88,-10.98
3.9771,-9.0712,-0.89894,-0.040623,-0.015882,-0.010385,-2.28,42.0,-10.98
3.9499,-9.1529,-1.0215,-0.041233,-0.028711,-0.013744,-2.22,41.94,-10.98
3.8137,-9.0303,-0.98067,-0.036652,-0.039706,-0.01405,-2.22,42.12,-10.92
3.8682,-9.0303,-1.0624,-0.048258,-0.023213,-0.017104,-2.22,41.94,-10.86
3.8273,-9.0848,-1.0079,-0.047342,-0.017104,-0.017104,-2.22,41.94,-10.92
3.732,-9.0712,-1.0079,-0.063225,-0.0058032,-0.0094684,-2.34,42.0,-10.86
3.7592,-9.0712,-1.0079,-0.061697,-0.002138,-0.009163,-2.52,41.94,-10.8
3.7728,-9.0031,-0.92618,-0.061087,0.0012217,-0.0067195,-2.52,41.82,-10.86
3.8001,-8.9758,-0.91256,-0.061392,0.027794,0.002138,-2.52,41.76,-10.8
3.7728,-8.9894,-0.92618,-0.054672,0.036041,-0.0024435,-2.52,41.94,-10.74
3.8273,-8.9622,-0.85808,-0.056505,0.022297,0.0097738,-2.52,42.0,-10.62
3.8273,-8.9894,-0.8036,-0.03543,0.0012217,0.024435,-2.82,41.76,-10.68
3.8273,-8.9622,-0.91256,-0.033903,-0.025962,0.047953,-2.7,41.76,-10.68
3.8682,-9.0167,-0.83084,-0.028711,-0.026878,0.050396,-2.64,41.76,-10.62
3.9908,-8.9758,-0.88532,-0.032681,-0.019242,0.06017,-2.52,41.82,-10.56
4.0044,-8.9758,-0.8717,-0.029932,0.002138,0.057727,-2.52,41.94,-10.62
4.0452,-9.0031,-0.85808,-0.037874,0.010385,0.04612,-2.46,42.0,-10.62
4.0589,-8.9758,-0.8717,-0.040317,0.032376,0.02138,-2.46,41.82,-10.56
4.0452,-8.9486,-0.81722,-0.043982,0.040928,0.0027489,-2.34,41.94,-10.68
4.127,-8.8941,-0.96704,-0.040623,0.045204,-0.012523,-2.04,41.94,-10.68
4.0589,-8.9894,-0.99429,-0.035125,0.043066,-0.031765,-2.1,42.06,-10.56
3.9363,-8.9622,-1.0215,-0.033292,0.023213,-0.037874,-1.92,42.0,-10.32
3.909,-8.9758,-1.0079,-0.025351,0.0058032,-0.044899,-1.86,42.0,-10.56
3.8273,-8.9894,-1.0215,-0.022907,0.002138,-0.044593,-1.92,41.82,-10.68
3.7456,-9.0575,-1.1169,-0.027489,-0.0015272,-0.020769,-1.92,41.88,-10.86
3.7456,-9.0439,-1.0351,-0.025351,-0.014661,-0.010079,-1.92,41.88,-10.8
3.7456,-9.0848,-1.1577,-0.023824,-0.02474,0.0012217,-2.1,42.12,-11.22
3.6775,-9.0712,-1.1713,-0.011606,-0.028405,-0.0036652,-2.28,42.0,-11.28
3.6911,-9.0984,-1.1577,-0.018326,-0.0281,0.014661,-2.34,41.7,-11.1
3.732,-9.112,-1.1032,-0.022907,-0.029322,0.028405,-2.46,41.7,-11.34
3.7592,-9.1256,-1.1169,-0.025656,-0.018937,0.039095,-2.52,41.7,-11.4
3.8682,-9.1256,-0.92618,-0.032376,-0.0012217,0.058643,-2.64,41.7,-11.22
3.9499,-9.0712,-0.9398,-0.047037,-0.0033598,0.061697,-2.7,41.76,-11.04
3.9771,-9.0575,-0.92618,-0.041233,-0.016188,0.050396,-2.7,41.52,-10.74
3.9635,-9.0712,-0.81722,-0.040623,-0.018631,0.037263,-2.76,41.46,-10.74
3.9908,-9.0439,-0.85808,-0.040317,-0.02474,0.033903,-2.4,41.28,-10.26
4.0044,-9.0167,-0.98067,-0.032681,-0.020464,0.030238,-2.46,41.22,-10.26
3.9635,-8.9758,-0.92618,-0.029322,-0.029322,0.029627,-2.28,41.52,-10.38
4.0044,-9.0031,-0.89894,-0.026573,-0.047037,0.031154,-2.22,41.58,-10.2
3.9908,-8.9758,-0.98067,-0.01741,-0.06353,0.02474,-2.16,41.52,-10.32
3.9227,-9.0303,-1.0351,-0.018937,-0.059559,0.033598,-2.04,41.58,-10.32
3.9771,-9.0167,-1.0351,-0.018021,-0.069944,0.021075,-1.92,41.64,-10.38
3.9908,-9.0303,-1.0624,-0.021686,-0.082161,0.020159,-1.92,41.76,-10.44
3.9771,-8.9894,-1.1169,-0.01405,-0.10201,0.021075,-2.16,41.76,-10.68
3.9635,-9.0712,-1.0896,-0.015577,-0.10385,0.014355,-2.22,41.7,-10.86
3.909,-9.1256,-1.1032,-0.010996,-0.11209,0.011606,-2.28,41.64,-10.86
3.9499,-9.0575,-1.0896,-0.015272,-0.1182,0.0051924,-2.4,41.7,-10.8
3.8954,-9.0848,-1.1169,-0.022602,-0.11668,0.0042761,-2.58,41.52,-10.98
3.7865,-8.8941,-1.1169,-0.029627,-0.10904,0.0064141,-2.64,41.64,-11.04
3.7047,-9.0439,-1.0215,-0.035125,-0.093157,-0.0027489,-2.52,41.94,-10.74
3.6911,-9.0575,-0.98067,-0.039401,-0.071777,0.01069,-2.76,41.94,-10.8
3.7456,-9.0575,-1.0079,-0.046731,-0.055589,0.002138,-2.88,41.82,-10.62
3.7728,-9.0575,-1.0215,-0.050702,-0.028711,0.0042761,-2.82,41.88,-10.8
3.8001,-9.0031,-0.99429,-0.046731,-0.023518,0.0015272,-2.88,42.0,-10.5
3.7592,-8.9894,-0.99429,-0.042455,-0.032987,0.0027489,-2.94,42.06,-10.44
3.8001,-8.9077,-1.0079,-0.041539,-0.043066,0.016799,-2.7,42.0,-10.62
3.7728,-8.9894,-1.0624,-0.033292,-0.044288,0.023213,-2.88,42.06,-10.56
3.7728,-8.9894,-1.0351,-0.032376,-0.03879,0.021686,-2.82,42.12,-10.68
3.8001,-9.0712,-1.0624,-0.040317,-0.026267,0.018631,-2.88,42.0,-10.8
3.8137,-8.9894,-1.0896,-0.034819,-0.023824,0.0085521,-2.88,41.7,-10.74
3.8001,-8.9894,-1.1441,-0.028711,-0.032681,0.0085521,-2.82,41.52,-10.92
3.7865,-8.9622,-1.0896,-0.027794,-0.034208,0.020464,-3.0,41.4,-10.8
3.8546,-8.8941,-1.1169,-0.029322,-0.034819,0.015882,-2.88,41.4,-10.86
3.7728,-8.8941,-1.1441,-0.037568,-0.015272,0.016799,-2.88,41.52,-11.04
3.8001,-8.9486,-1.1169,-0.040012,-0.000611,0.011301,-3.06,41.7,-10.92
3.8137,-8.8941,-1.0624,-0.040317,0.012217,0.012828,-2.88,41.7,-10.86
3.8682,-8.8941,-1.0624,-0.030238,0.015882,0.01069,-3.0,41.7,-10.92
3.8954,-8.9622,-0.99429,-0.026267,0.027794,0.015882,-2.94,41.7,-10.8
3.8818,-9.0031,-1.0624,-0.029322,0.040012,0.018021,-3.0,41.64,-10.8
3.8546,-8.9894,-1.0215,-0.025656,0.044899,0.0085521,-2.88,41.7,-10.98
3.8682,-9.0303,-1.0351,-0.021991,0.053145,0.0036652,-2.82,41.76,-10.98
3.8682,-9.0303,-0.96704,-0.0082467,0.039706,-0.0018326,-2.7,41.88,-11.1
3.8273,-8.9894,-1.0896,0.0027489,0.027184,0.0039706,-2.7,41.7,-11.04
3.8273,-9.112,-1.0215,0.0033598,0.014661,0.0061087,-2.7,41.52,-11.1
3.8273,-9.0984,-1.0624,0.0061087,0.01405,0.027184,-2.88,41.64,-10.98
3.9227,-9.0439,-1.1577,0.012217,0.0036652,0.030849,-2.94,41.7,-11.1
3.9363,-9.0439,-1.0215,0.015577,-0.0027489,0.045509,-2.88,41.52,-11.16
3.9908,-9.0984,-1.0351,0.014355,-0.020464,0.05284,-2.94,41.46,-11.34
4.0316,-9.1665,-0.96704,0.019853,-0.0281,0.052534,-2.88,41.64,-11.28
3.9908,-9.1529,-0.96704,0.025656,-0.069333,0.065668,-2.88,41.46,-11.28
3.9908,-9.1256,-1.0896,0.046426,-0.098349,0.07758,-2.82,41.46,-11.34
3.9635,-9.0575,-1.0896,0.051924,-0.10904,0.082772,-2.82,41.46,-11.28
4.0589,-9.112,-1.185,0.072998,-0.14019,0.083689,-2.76,41.58,-11.34
3.9227,-8.9758,-1.0624,0.06017,-0.16341,0.087965,-2.34,41.4,-11.46
3.8409,-8.9486,-1.0351,0.069944,-0.17257,0.094379,-2.34,41.28,-11.46
3.909,-8.9894,-1.0896,0.068417,-0.17135,0.10507,-2.28,41.34,-11.7
3.8954,-9.0303,-1.0488,0.071471,-0.18906,0.11148,-2.4,41.4,-11.76
3.8954,-9.0439,-1.0079,0.086437,-0.22907,0.11545,-2.4,41.58,-11.82
3.8954,-9.0575,-0.96704,0.093462,-0.24832,0.12523,-2.22,41.52,-11.82
3.8273,-9.1529,-0.96704,0.1127,-0.25504,0.13806,-2.34,41.64,-11.64
3.9227,-9.221,-0.99429,0.11332,-0.2645,0.14019,-2.34,41.4,-11.7
3.8954,-9.3299,-0.96704,0.13408,-0.29993,0.14691,-2.34,41.52,-11.76
3.8273,-9.2618,-0.98067,0.14203,-0.30757,0.14936,-2.46,41.4,-11.76
3.8001,-9.1665,-0.92618,0.15669,-0.32284,0.14997,-2.46,41.46,-11.94
3.8137,-9.1529,-1.0079,0.17593,-0.35247,0.1576,-2.52,41.46,-12.06
3.909,-9.1529,-0.99429,0.18754,-0.41142,0.16982,-2.64,41.7,-12.0
3.9499,-9.1937,-0.98067,0.20342,-0.48533,0.19975,-2.64,41.52,-11.88
3.9635,-9.2482,-1.0215,0.22297,-0.55711,0.2193,-2.82,41.28,-11.82
4.0044,-9.1937,-1.0624,0.2474,-0.6802,0.27061,-2.82,41.22,-12.24
4.0316,-9.1937,-1.1441,0.24954,-0.76328,0.28039,-2.82,41.16,-12.3
4.0316,-9.3163,-1.2122,0.23732,-0.79046,0.26512,-2.88,41.28,-12.54
3.8682,-9.4661,-1.1441,0.19853,-0.74678,0.2364,-2.94,41.4,-12.66
3.9363,-9.221,-1.076,0.16585,-0.6747,0.18784,-3.18,41.34,-12.66
3.9908,-9.1529,-1.0215,0.13989,-0.6295,0.15821,-3.18,41.28,-12.66
3.909,-9.3027,-1.0079,0.10996,-0.63927,0.12126,-3.18,41.16,-12.96
3.7456,-9.4253,-0.92618,0.067806,-0.62797,0.074831,-3.3,41.28,-13.2
3.7047,-9.3436,-0.92618,0.029322,-0.56169,0.036346,-3.42,41.28,-13.38
3.6775,-9.4117,-0.91256,-0.0051924,-0.48411,-0.013439,-3.54,41.22,-13.68
3.6775,-9.4389,-0.91256,-0.025962,-0.43616,-0.060476,-3.54,41.16,-13.56
3.7592,-9.4798,-0.89894,-0.040317,-0.41875,-0.096517,-3.72,41.04,-13.68
3.6366,-9.2755,-0.78998,-0.054978,-0.42241,-0.13347,-3.96,40.8,-13.8
3.514,-9.221,-0.7355,-0.065057,-0.40959,-0.2303,-4.26,40.8,-13.68
3.5277,-9.1801,-0.76274,-0.054367,-0.39156,-0.30177,-4.2,40.62,-13.8
3.3915,-9.1256,-0.6674,-0.029627,-0.40806,-0.38362,-4.56,40.74,-13.74
3.4459,-9.0303,-0.5993,0.0030543,-0.45173,-0.43433,-5.28,40.68,-13.5
3.337,-8.9622,-0.57205,0.024435,-0.49572,-0.46151,-6.0,40.86,-13.56
3.2144,-8.9622,-0.58567,0.029627,-0.5229,-0.45968,-6.36,40.98,-13.5
3.1191,-9.0712,-0.62654,0.045815,-0.47525,-0.45784,-7.08,41.1,-13.44
3.0646,-9.1529,-0.50395,0.025962,-0.41325,-0.43524,-7.98,41.22,-13.26
3.1599,-9.221,-0.55843,0.017104,-0.3427,-0.41417,-8.4,41.28,-13.26
3.1599,-9.1529,-0.58567,0.0067195,-0.2865,-0.39767,-9.24,41.34,-13.32
3.0782,-9.1801,-0.6674,-0.009163,-0.24038,-0.38759,-10.08,41.28,-13.44
3.0918,-9.0848,-0.61292,-0.0045815,-0.17898,-0.39584,-10.86,41.1,-13.5
3.0918,-9.0712,-0.61292,-0.0045815,-0.16493,-0.39676,-11.16,40.98,-13.62
3.1054,-9.0984,-0.6674,0.042455,-0.15913,-0.3485,-11.52,40.92,-13.8
3.1872,-9.1529,-0.78998,0.065973,-0.1909,-0.30177,-11.82,40.8,-13.8
3.1463,-9.0984,-0.83084,0.088881,-0.22419,-0.25015,-12.42,40.68,-13.98
3.1872,-9.1256,-0.85808,0.11759,-0.23824,-0.20281,-12.78,40.56,-14.16
3.2008,-9.0167,-0.96704,0.13195,-0.25717,-0.1405,-13.56,40.14,-14.28
3.1599,-8.9894,-1.0624,0.14478,-0.27306,-0.073915,-13.8,39.96,-14.4
3.1872,-8.8941,-1.0896,0.16585,-0.29291,-0.0051924,-14.04,39.84,-14.46
3.2825,-8.826,-1.1169,0.19212,-0.30452,0.13073,-14.46,39.84,-14.58
3.228,-8.8668,-1.2395,0.19548,-0.22907,0.23396,-15.0,39.66,-14.82
3.1191,-8.9213,-1.3484,0.17471,0.051313,0.31948,-15.24,39.9,-14.88
3.1872,-8.9349,-1.471,0.14752,0.42761,0.38271,-15.42,39.78,-15.12
4.0997,-9.0167,-1.2803,0.076053,0.57482,0.37263,-15.66,39.9,-15.42
4.5628,-9.1529,-1.3484,-0.01405,0.33201,0.29993,-15.78,39.96,-15.48
4.6445,-9.0303,-1.2531,-0.052534,-0.020464,0.23213,-15.9,40.02,-15.48
4.2495,-9.0303,-1.0215,-0.039095,-0.22449,0.197,-15.78,39.96,-15.6
4.2632,-9.1529,-0.84446,-0.01405,-0.37538,0.15302,-15.72,40.02,-15.66
3.9499,-9.0031,-0.76274,0.018937,-0.50519,0.14539,-15.48,40.44,-15.9
3.8546,-9.0848,-0.78998,0.064446,-0.62583,0.13042,-15.48,40.62,-15.84
3.8001,-9.0439,-0.76274,0.076053,-0.64049,0.12095,-15.36,40.8,-15.78
3.5685,-9.1256,-0.92618,0.090103,-0.64752,0.094684,-15.24,40.92,-15.78
3.4187,-9.1937,-0.95342,0.083689,-0.57238,0.058948,-15.18,40.86,-15.72
3.2689,-9.2346,-0.8717,0.06689,-0.44318,0.014661,-15.0,40.86,-15.72
3.2825,-9.3299,-0.85808,0.048258,-0.29108,-0.032987,-15.0,41.1,-15.78
3.2825,-9.4525,-0.78998,0.031765,-0.24557,-0.017715,-15.06,41.1,-15.84
3.3097,-9.4389,-0.7355,0.032987,-0.23579,-0.014355,-15.06,41.04,-15.84
3.2144,-9.3163,-0.89894,0.03543,-0.23366,-0.026573,-15.0,41.1,-15.96
3.2144,-9.2891,-0.78998,0.047953,-0.24129,-0.04215,-15.3,41.16,-15.96
3.2825,-9.3163,-0.83084,0.04948,-0.25717,-0.051007,-15.42,41.1,-15.9
3.2144,-9.3436,-0.83084,0.0281,-0.25076,-0.041233,-15.78,41.04,-15.66
3.1872,-9.2891,-0.84446,0.011912,-0.23549,-0.033292,-15.84,40.86,-15.72
3.1327,-9.3163,-0.98067,-0.0088575,-0.18234,-0.025962,-16.02,40.92,-15.78
3.0237,-9.2482,-1.0896,-0.01741,-0.14661,-0.027794,-16.08,41.04,-15.78
3.0918,-9.221,-1.1441,-0.028405,-0.025962,-0.030238,-16.38,40.98,-15.72
3.1191,-9.2346,-1.1713,-0.046731,0.025656,-0.0281,-16.62,40.98,-15.72
3.1327,-9.1529,-1.1169,-0.055894,0.029932,-0.031765,-16.68,40.98,-15.72
3.0782,-8.9894,-1.1305,-0.072082,0.030543,-0.044288,-16.92,41.04,-15.54
2.9556,-9.0031,-1.2122,-0.082467,0.07758,-0.047037,-17.1,40.98,-15.54
3.0373,-9.0848,-1.0488,-0.098349,0.12584,-0.05284,-17.16,40.98,-15.36
3.2416,-9.2074,-0.99429,-0.12614,0.22235,-0.03146,-17.28,41.16,-15.3
3.3097,-9.2482,-1.0215,-0.14355,0.23427,0.019242,-17.28,41.22,-15.3
3.1599,-9.2891,-1.0215,-0.14203,0.23732,0.068417,-17.28,41.22,-15.3
3.2416,-9.1665,-0.92618,-0.13897,0.2474,0.097738,-17.22,41.64,-15.24
3.2416,-9.1529,-1.0215,-0.12431,0.26267,0.088575,-17.1,41.52,-15.3
3.2961,-9.1256,-1.0624,-0.12767,0.26298,0.08827,-16.98,41.58,-15.3
3.2825,-9.112,-1.0624,-0.14539,0.27214,0.064752,-16.92,41.46,-15.36
3.3097,-9.2482,-1.0488,-0.16157,0.29505,0.059865,-16.68,41.4,-15.3
3.3234,-9.2891,-1.0896,-0.18845,0.35644,0.07025,-16.5,41.22,-15.18
3.4051,-9.3163,-1.1169,-0.21014,0.4215,0.071777,-16.26,41.28,-15.12
3.6366,-9.2618,-1.0624,-0.23305,0.47525,0.076664,-15.72,41.16,-15.0
3.6503,-8.9894,-1.0896,-0.2251,0.46456,0.071471,-15.48,41.16,-14.82
3.623,-8.9622,-1.0079,-0.21166,0.3656,0.072388,-15.3,41.16,-14.82
3.4323,-9.0167,-1.0624,-0.21044,0.33139,0.063835,-14.88,41.16,-14.52
3.4732,-9.0848,-1.0624,-0.21197,0.33567,0.051007,-14.7,41.04,-14.52
3.3506,-9.3027,-1.0624,-0.2306,0.38851,0.029322,-14.34,40.92,-14.46
3.3778,-9.4525,-1.1169,-0.28802,0.48045,0.0039706,-14.22,40.98,-14.46
3.4732,-9.6023,-1.2122,-0.30604,0.49022,0.012523,-14.04,40.8,-14.46
3.5685,-9.8339,-1.2258,-0.35766,0.51649,0.018937,-13.68,40.86,-14.16
3.5413,-9.7658,-1.3212,-0.37782,0.54275,0.000916,-13.56,40.86,-14.1
3.6094,-9.7658,-1.2803,-0.38485,0.57879,-0.014661,-13.38,40.98,-13.92
3.7728,-9.6023,-1.4165,-0.37782,0.58124,-0.029322,-13.2,40.86,-13.62
3.8001,-9.5342,-1.5119,-0.37538,0.56474,-0.034208,-13.02,40.98,-13.44
3.7728,-9.3163,-1.5119,-0.3711,0.54489,-0.059865,-12.9,41.04,-13.38
3.514,-8.9077,-1.6208,-0.354,0.60384,-0.12401,-12.54,40.74,-13.02
3.4187,-8.6625,-1.6753,-0.35797,0.66493,-0.12889,-12.3,40.68,-12.78
3.5549,-8.6625,-1.7025,-0.36682,0.69914,-0.097433,-12.0,40.68,-12.6
3.4868,-8.4991,-1.5119,-0.39248,0.71685,-0.040623,-11.58,40.32,-12.24
3.3778,-8.4446,-1.4982,-0.39523,0.75839,-0.016188,-11.34,40.32,-12.0
3.3642,-8.3629,-1.4438,-0.39554,0.81642,0.014355,-11.22,40.44,-11.76
3.5822,-8.3765,-1.2395,-0.39004,0.88423,0.076358,-10.68,40.56,-11.52
3.7456,-8.3629,-1.2122,-0.36927,0.87873,0.16157,-10.5,40.56,-11.34
3.7865,-8.3493,-1.1986,-0.34941,0.82406,0.23213,-10.26,40.62,-11.28
3.7865,-8.5808,-1.1986,-0.31582,0.79412,0.30727,-9.66,40.74,-11.22
3.732,-8.6625,-1.1441,-0.29627,0.81031,0.31948,-9.36,40.74,-11.1
3.8001,-8.6762,-1.1305,-0.28191,0.81886,0.32742,-9.12,40.74,-10.98
3.9635,-8.6625,-1.1305,-0.21961,0.82894,0.32101,-8.94,40.8,-11.1
3.9908,-8.6217,-1.1441,-0.17532,0.7703,0.32345,-8.28,40.92,-11.04
3.9908,-8.6353,-1.1577,-0.12401,0.71685,0.32162,-8.04,41.04,-11.1
4.0861,-8.6217,-1.185,-0.061697,0.65332,0.31979,-7.32,41.46,-10.98
4.0589,-8.5944,-1.185,-0.03543,0.62827,0.32651,-7.02,41.58,-10.8
4.0589,-8.6081,-1.3212,-0.0058032,0.61392,0.31612,-6.6,41.64,-10.74
4.1133,-8.6762,-1.3484,0.016493,0.61209,0.30727,-6.3,41.64,-10.74
4.2495,-8.9486,-1.362,0.052534,0.58551,0.30879,-5.28,41.64,-10.98
4.304,-9.2755,-1.2531,0.062614,0.55833,0.30788,-4.98,41.52,-10.98
4.3858,-9.7385,-1.4438,0.05681,0.53848,0.33598,-4.5,41.52,-10.98
4.4402,-10.065,-1.3484,0.022297,0.55222,0.35277,-4.14,41.7,-10.86
4.2632,-9.5479,-1.1305,-0.031765,0.62644,0.30452,-3.48,41.76,-10.86
4.1678,-9.221,-0.99429,-0.058338,0.72846,0.20006,-2.88,41.88,-10.8
4.1814,-8.9349,-0.9398,-0.072998,0.80909,-0.0088575,-2.46,41.82,-10.86
4.2223,-8.7987,-0.76274,-0.038179,0.75045,-0.1179,-1.92,41.88,-10.92
4.304,-8.8532,-0.70826,-0.0079412,0.58246,-0.18509,-1.8,41.94,-11.04
4.0861,-8.9349,-0.5993,0.023213,0.52504,-0.18601,-1.14,41.88,-11.1
4.0589,-8.9894,-0.47671,0.044288,0.42944,-0.17837,-0.84,41.94,-11.1
3.8682,-9.0303,-0.57205,0.054062,0.39798,-0.15485,-0.66,42.0,-11.16
3.8682,-9.0303,-0.43585,0.068722,0.36988,-0.11209,-0.48,42.12,-11.04
4.0316,-8.9349,-0.50395,0.095295,0.29291,-0.071166,-0.3,42.12,-11.16
4.1133,-8.8668,-0.40861,0.13378,0.16066,-0.0045815,-0.36,42.06,-11.1
4.0316,-8.3901,-0.47671,0.19028,-0.12859,0.069333,-0.24,41.94,-11.34
3.9771,-8.0224,-0.35413,0.23213,-0.31032,0.093768,-0.18,41.88,-11.4
3.8546,-8.0088,-0.24517,0.24893,-0.37202,0.096822,-0.18,41.88,-11.46
3.7592,-8.431,-0.19068,0.2529,-0.41386,0.12675,-0.24,41.76,-11.52
3.8409,-9.3027,-0.19068,0.22266,-0.36835,0.15913,-0.06,41.76,-11.76
3.8001,-9.9292,-0.19068,0.17074,-0.28955,0.18754,-0.06,41.76,-11.82
3.8001,-10.351,0.25879,0.078802,-0.10385,0.1857,-0.12,41.82,-11.94
3.8818,-10.311,0.32689,0.037263,-0.0085521,0.15363,-0.12,41.7,-12.18
3.9227,-10.188,0.34051,0.024435,0.025962,0.15119,-0.12,41.64,-12.24
4.018,-10.161,0.35413,0.021686,0.026267,0.1518,-0.18,41.64,-12.36
4.1951,-10.093,0.47671,0.031765,-0.06353,0.15394,-0.06,41.76,-12.48
4.1951,-10.174,0.47671,0.046731,-0.19059,0.1518,-0.06,41.7,-12.54
4.127,-9.9973,0.50395,0.068417,-0.35277,0.088575,0.06,41.52,-12.72
4.0589,-9.6704,0.40861,0.082161,-0.38332,0.069028,0.24,41.64,-12.96
4.018,-9.5751,0.35413,0.10324,-0.43677,0.028711,0.18,41.58,-13.14
3.8954,-9.4117,0.36775,0.1066,-0.4667,-0.036652,0.24,41.64,-13.2
3.8273,-9.3299,0.20431,0.074831,-0.42791,-0.072693,0.12,41.52,-13.26
3.5685,-9.2074,0.28603,0.039401,-0.35613,-0.10446,0.18,41.28,-13.26
3.5277,-9.1665,0.28603,-0.018631,-0.21044,-0.16677,0.18,41.22,-13.32
3.3506,-8.9077,0.32689,-0.069639,-0.15608,-0.18357,0.12,40.98,-13.44
3.3506,-8.7443,0.40861,-0.14264,0.0085521,-0.2251,0.12,40.86,-13.44
3.2825,-8.6762,0.38137,-0.17165,0.051007,-0.23152,0.12,40.92,-13.5
3.2825,-8.5672,0.38137,-0.23091,0.15302,-0.23243,-0.12,40.8,-13.56
3.2689,-8.7034,0.51757,-0.27397,0.19303,-0.20769,-0.42,40.92,-13.56
3.2553,-9.1937,0.69464,-0.32529,0.2303,-0.13775,-0.54,40.8,-13.44
3.2825,-9.6296,0.6674,-0.36255,0.31246,-0.054062,-0.9,40.98,-13.5
3.3506,-9.6977,0.7355,-0.36194,0.43371,0.060476,-1.08,40.92,-13.32
3.5685,-10.243,0.68102,-0.31093,0.43585,0.15455,-1.14,40.98,-13.32
3.909,-9.6432,0.55843,-0.23213,0.36011,0.20403,-1.44,41.1,-13.38
4.1542,-8.8668,0.10896,-0.10079,0.16218,0.23366,-1.56,41.22,-13.08
4.3177,-8.5263,-0.21793,0.028405,-0.10965,0.22724,-1.5,41.16,-12.9
4.2359,-8.3901,-0.53119,0.12675,-0.47739,0.16096,-1.5,41.4,-12.6
4.1542,-8.6489,-0.7355,0.13317,-0.61972,0.10476,-1.5,41.52,-12.3
3.9227,-8.8532,-0.92618,0.080023,-0.63805,0.016799,-1.56,41.46,-12.24
3.6366,-9.2891,-0.77636,-0.0033598,-0.54764,-0.052534,-1.8,41.46,-12.3
3.5413,-9.6023,-0.88532,-0.081245,-0.38026,-0.12156,-1.56,41.34,-12.18
3.5822,-9.6568,-0.8717,-0.135,-0.2138,-0.19028,-1.62,41.4,-12.18
3.5413,-9.4798,-0.7355,-0.15424,-0.071777,-0.23366,-1.74,41.16,-11.82
3.5685,-9.4117,-0.68102,-0.16035,-0.057421,-0.23152,-1.68,41.16,-11.76
3.5958,-9.2482,-0.54481,-0.16799,-0.059865,-0.20433,-1.74,41.04,-11.76
3.4732,-9.0439,-0.55843,-0.15852,-0.060781,-0.1463,-1.74,41.04,-11.58
3.3642,-8.7443,-0.58567,-0.14722,-0.0033598,-0.092852,-1.74,41.04,-11.58
3.3506,-8.6762,-0.6674,-0.14661,0.062003,-0.054978,-1.8,41.04,-11.52
3.5004,-8.5127,-0.74912,-0.15333,0.073304,-0.014966,-2.16,40.8,-11.46
3.3778,-8.5808,-0.85808,-0.1573,0.093462,-0.0067195,-2.28,40.68,-11.52
3.3097,-8.7306,-0.92618,-0.17654,0.12675,-0.0058032,-2.34,40.56,-11.4
3.3778,-9.0439,-0.89894,-0.26695,0.33292,-0.000916,-2.34,40.62,-11.04
3.4732,-9.3027,-0.85808,-0.34086,0.48014,-0.014966,-2.52,40.56,-10.98
3.4596,-9.4798,-0.77636,-0.41997,0.6072,-0.02474,-2.58,40.68,-10.8
3.5685,-9.7385,-0.51757,-0.49816,0.70494,-0.047037,-2.52,40.86,-10.62
3.5277,-9.7113,-0.35413,-0.54306,0.77458,-0.071777,-2.64,40.86,-10.5
3.5413,-9.6296,-0.35413,-0.53115,0.8042,-0.090713,-2.58,40.98,-10.32
3.6775,-9.3299,-0.50395,-0.44104,0.72388,-0.067806,-2.4,41.04,-10.14
3.732,-9.221,-0.64016,-0.33537,0.58765,-0.054672,-2.64,41.04,-9.96
3.6639,-9.0712,-0.61292,-0.23091,0.4444,-0.038179,-2.7,41.1,-9.72
3.5958,-8.5536,-0.84446,-0.075136,0.22724,-0.025656,-2.7,41.28,-9.66
3.6775,-8.2812,-0.96704,-0.031765,0.14783,-0.012217,-2.7,41.4,-9.6
3.623,-8.0088,-1.2531,0.043066,0.0045815,-0.0024435,-2.7,41.58,-9.6
3.4732,-7.6138,-1.58,0.097738,-0.15974,-0.0088575,-2.76,41.58,-9.48
3.3097,-7.8045,-1.4982,0.10537,-0.20097,-0.032681,-2.7,41.64,-9.42
3.2416,-8.5808,-1.6344,0.066584,-0.16677,-0.024435,-2.76,41.76,-9.24
3.4596,-10.569,-1.6072,-0.074526,0.031765,0.070555,-2.82,41.7,-9.3
3.3778,-10.297,-1.3757,-0.19212,0.25045,0.12126,-2.88,41.58,-9.36
3.4187,-9.6432,-1.2667,-0.24709,0.41172,0.19823,-2.88,41.46,-9.36
3.5685,-8.5808,-0.98067,-0.24709,0.48564,0.24068,-2.94,41.52,-9.42
3.732,-7.9815,-1.1441,-0.18662,0.41447,0.26512,-2.76,41.58,-9.54
3.8818,-7.6274,-1.0624,-0.098044,0.26023,0.36133,-2.64,41.64,-9.72
4.1542,-7.8453,-0.99429,0.000305,0.053145,0.5455,-2.28,41.7,-9.54
4.2223,-8.0496,-0.99429,0.09499,-0.31948,0.67776,-2.28,41.82,-9.54
4.2087,-8.4174,-1.076,0.11484,-0.41417,0.75228,-2.16,41.82,-9.48
4.1814,-9.3436,-1.3212,0.14111,-0.53848,0.87506,-1.56,41.82,-9.36
4.2495,-9.6977,-1.2667,0.14844,-0.5226,0.88606,-1.2,41.88,-9.36
4.3858,-9.7249,-1.2531,0.14813,-0.5006,0.83291,-0.78,41.88,-9.54
4.6718,-9.3436,-1.4301,0.1689,-0.54611,0.72479,-0.06,41.94,-9.48
4.6854,-9.221,-1.4029,0.20739,-0.72846,0.49938,0.48,42.0,-9.36
4.699,-9.0848,-1.4165,0.21747,-0.77824,0.43677,0.84,42.24,-9.42
4.5083,-9.1801,-1.3484,0.19364,-0.82253,0.21258,1.68,42.3,-9.42
4.2495,-9.2618,-1.2395,0.15363,-0.7367,0.049175,2.04,42.36,-9.48
4.1406,-9.3844,-1.1577,0.088575,-0.57452,-0.11362,2.4,42.24,-9.42
4.0725,-9.4389,-1.1032,0.028405,-0.39981,-0.2529,2.52,42.18,-9.48
4.0044,-9.6296,-0.92618,-0.030238,-0.20739,-0.44685,3.06,42.06,-9.6
4.0316,-9.6432,-0.8036,-0.051924,-0.1405,-0.562,3.18,41.88,-9.72
3.8818,-9.5479,-0.62654,-0.043677,-0.094073,-0.67684,3.42,41.94,-9.9
3.7728,-9.4934,-0.62654,-0.022907,-0.081856,-0.7761,3.24,41.88,-9.96
3.8137,-9.507,-0.54481,0.0036652,-0.087965,-0.85338,3.06,41.88,-10.14
3.6503,-9.6023,-0.62654,0.033903,-0.10507,-0.93126,2.58,41.94,-10.32
3.5004,-9.5887,-0.57205,0.065363,-0.10201,-0.9502,2.1,41.94,-10.32
3.4459,-9.5751,-0.54481,0.079718,-0.10079,-0.95081,1.74,41.82,-10.44
3.3915,-9.4389,-0.64016,0.1011,-0.094073,-0.95326,1.14,41.76,-10.56
3.4051,-9.4389,-0.5993,0.12614,-0.078496,-0.91355,0.42,41.7,-10.56
3.3506,-9.2891,-0.64016,0.14203,-0.089492,-0.86163,-1.02,41.46,-10.86
3.337,-9.2618,-0.7355,0.16188,-0.11362,-0.78527,-1.62,41.34,-10.98
3.1872,-9.0712,-0.70826,0.17104,-0.14355,-0.65515,-2.94,40.98,-10.98
3.1599,-8.8941,-0.70826,0.16707,-0.14539,-0.55467,-3.72,40.98,-11.04
3.0646,-8.8668,-0.76274,0.17196,-0.14325,-0.49755,-4.5,40.8,-11.22
3.0646,-8.8532,-0.7355,0.16646,-0.15944,-0.29993,-6.06,40.68,-11.34
3.1599,-8.7034,-0.8036,0.15211,-0.18601,-0.1744,-6.78,40.38,-11.46
3.1872,-8.7306,-0.81722,0.14172,-0.21472,-0.036652,-7.44,40.32,-11.58
3.3234,-9.0167,-0.91256,0.12981,-0.23854,0.098655,-8.64,40.2,-11.88
3.3642,-9.2346,-0.98067,0.1066,-0.25534,0.23518,-9.24,40.08,-11.94
3.3642,-9.2482,-0.99429,0.083689,-0.26298,0.37171,-9.54,39.78,-12.0
3.5958,-8.8941,-1.0079,0.023824,-0.24832,0.58154,-10.14,39.42,-12.12
3.5958,-8.8941,-1.0079,0.023824,-0.24832,0.58154,-10.14,39.42,-12.12
3.5549,-8.8396,-1.0624,-0.010385,-0.24374,0.62492,-10.32,39.36,-12.12
3.6094,-8.7443,-1.1032,-0.026878,-0.2364,0.62858,-10.02,39.42,-12.42
3.6094,-8.7987,-1.1169,-0.099876,-0.15913,0.62827,-9.72,39.48,-12.3
3.623,-8.8668,-1.076,-0.15638,-0.061392,0.61056,-9.6,39.36,-12.24
3.5004,-9.0848,-1.076,-0.22877,0.082161,0.56536,-9.12,39.48,-12.42
3.5685,-9.4117,-0.92618,-0.29627,0.25259,0.51649,-8.28,39.48,-12.18
3.7047,-9.5479,-0.70826,-0.34544,0.4102,0.4612,-7.5,39.6,-12.06
3.8546,-9.6023,-0.53119,-0.37263,0.51526,0.39309,-6.72,39.9,-11.94
3.9227,-9.5615,-0.54481,-0.37904,0.5736,0.3207,-6.18,40.14,-11.88
3.9499,-9.4798,-0.44947,-0.34483,0.57238,0.21838,-5.52,40.38,-11.82
4.0316,-9.4389,-0.43585,-0.31398,0.54703,0.16402,-5.34,40.56,-11.64
4.018,-9.2891,-0.40861,-0.27917,0.49724,0.12004,-4.8,40.74,-11.58
3.9499,-9.2346,-0.40861,-0.24404,0.45326,0.082161,-4.44,40.98,-11.58
3.8001,-9.2618,-0.40861,-0.23335,0.43524,0.043066,-3.9,40.98,-11.22
3.7592,-9.398,-0.44947,-0.22633,0.47189,0.033292,-3.78,41.04,-11.1
3.6775,-9.398,-0.39499,-0.23182,0.53329,0.024129,-3.66,41.1,-11.1
3.6775,-9.2482,-0.36775,-0.22297,0.56383,0.018021,-3.36,41.22,-10.92
3.732,-9.1256,-0.25879,-0.18204,0.55375,0.010079,-3.36,41.22,-11.04
3.732,-8.9349,-0.32689,-0.13592,0.49816,0.010385,-2.94,41.22,-10.92
3.732,-8.5536,-0.38137,-0.090103,0.36285,0.026267,-2.16,41.52,-10.62
3.6775,-8.5127,-0.35413,-0.0281,0.28588,0.075747,-2.16,41.64,-10.5
3.6639,-8.5127,-0.44947,-0.0097738,0.25901,0.096517,-2.04,41.64,-10.32
3.6911,-8.6081,-0.61292,0.012217,0.21625,0.16249,-1.92,41.64,-10.32
3.8409,-8.9213,-0.58567,0.014966,0.17318,0.27092,-1.56,41.58,-10.14
3.8682,-9.0031,-0.70826,0.027184,0.14355,0.33506,-1.38,41.46,-10.14
3.909,-9.0303,-0.74912,0.023824,0.13958,0.36866,-1.14,41.7,-10.02
4.1133,-9.0984,-0.96704,0.025351,0.11362,0.39462,-0.66,41.7,-10.08
4.1406,-9.1256,-0.89894,0.039706,0.079718,0.39279,-0.42,41.58,-10.02
4.2223,-9.1665,-1.0351,0.050091,0.025045,0.36408,-0.06,41.4,-9.9
4.2223,-9.3436,-1.1169,0.045204,-0.030849,0.32315,0.54,41.64,-9.9
4.2495,-9.4525,-1.0488,0.045815,-0.053756,0.28436,0.48,41.82,-9.78
4.1542,-9.3572,-1.1032,0.043677,-0.024435,0.22907,0.54,41.76,-9.78
4.1406,-8.9213,-1.0488,0.036652,0.0058032,0.14233,0.84,41.76,-10.02
4.2223,-8.6762,-1.0351,0.027184,-0.014355,0.12889,1.08,41.76,-10.02
4.2632,-8.6489,-0.96704,0.030543,-0.083689,0.10782,1.38,41.76,-9.96
4.2223,-8.7715,-1.0488,0.014355,-0.16188,0.10599,1.62,41.82,-10.08
4.1542,-8.8532,-0.95342,-0.023518,-0.1744,0.066584,1.8,41.82,-10.08
3.9635,-9.1937,-0.83084,-0.079107,-0.10812,0.023213,1.86,41.76,-10.14
3.9771,-9.2482,-0.83084,-0.12737,0.016799,-0.060781,2.04,41.88,-10.2
3.9908,-9.3163,-0.70826,-0.14844,0.055283,-0.091324,1.92,41.88,-10.32
4.018,-9.3436,-0.5993,-0.17837,0.12278,-0.18967,2.1,41.94,-10.32
3.9908,-9.398,-0.44947,-0.17898,0.15088,-0.25045,2.1,42.0,-10.38
3.8954,-9.4117,-0.44947,-0.1631,0.16554,-0.31368,2.1,41.88,-10.32
3.8682,-9.5615,-0.38137,-0.13286,0.14691,-0.34819,1.92,41.94,-10.44
3.8137,-9.5751,-0.32689,-0.062003,0.053756,-0.38454,1.8,42.0,-10.56
3.8682,-9.4389,-0.31327,-0.038485,0.0027489,-0.38882,1.62,42.0,-10.56
3.8546,-9.2891,-0.39499,0.025351,-0.11118,-0.3992,1.26,42.0,-10.56
3.8273,-9.1529,-0.57205,0.10843,-0.2923,-0.3824,0.96,42.0,-10.5
3.7456,-9.0848,-0.6674,0.14539,-0.37874,-0.3711,0.66,41.94,-10.44
3.514,-9.0575,-0.8717,0.15241,-0.40959,-0.36499,0.24,41.94,-10.5
3.4459,-9.0848,-0.89894,0.14508,-0.38546,-0.33537,0.06,41.94,-10.44
3.4323,-9.0712,-0.89894,0.10354,-0.32345,-0.32529,-0.24,42.0,-10.44
3.4323,-9.1529,-0.96704,0.055894,-0.20922,-0.29413,-0.96,42.0,-10.56
3.4459,-9.1801,-0.91256,0.039095,-0.17746,-0.27917,-1.26,41.94,-10.68
3.4051,-9.0984,-0.8717,0.010996,-0.12278,-0.24099,-1.62,41.94,-10.74
3.514,-9.0712,-0.83084,0.009163,-0.13531,-0.20097,-2.22,41.7,-10.92
3.4732,-9.0439,-0.76274,0.027489,-0.17807,-0.14325,-2.64,41.82,-10.8
3.4732,-8.9758,-0.83084,0.027794,-0.19395,-0.11729,-3.06,41.7,-10.74
3.4459,-8.9894,-0.88532,0.037263,-0.22297,-0.080634,-3.36,41.58,-10.86
3.4596,-8.9894,-0.8717,0.04215,-0.23793,-0.033598,-3.6,41.52,-11.04
3.4459,-9.0303,-0.8717,0.030849,-0.23427,0.039095,-3.84,41.46,-11.1
3.5685,-8.9622,-0.91256,0.020159,-0.22113,0.080634,-4.14,41.4,-11.16
3.6503,-8.9622,-0.92618,0.014966,-0.21411,0.11606,-4.38,41.46,-11.22
3.6639,-8.9622,-1.0215,-0.0042761,-0.19059,0.16646,-4.5,41.4,-11.16
3.6775,-9.112,-0.95342,-0.014966,-0.17257,0.1744,-4.56,41.34,-11.04
3.7047,-9.1256,-0.95342,-0.029322,-0.14661,0.18601,-4.74,41.28,-10.86
3.8001,-9.1937,-0.91256,-0.057421,-0.10934,0.18295,-4.86,41.22,-10.86
3.7728,-9.2074,-0.89894,-0.07025,-0.073609,0.16829,-4.8,41.1,-10.92
3.8001,-9.221,-0.8717,-0.076053,-0.023213,0.13806,-4.8,40.92,-11.04
3.7728,-9.1937,-0.8717,-0.096211,-0.0027489,0.10507,-4.68,40.92,-11.1
3.8001,-9.1937,-0.83084,-0.093768,0.0082467,0.089186,-4.62,40.92,-11.16
3.7865,-9.112,-0.74912,-0.094379,0.034514,0.058948,-4.5,40.98,-11.1
3.7728,-9.1256,-0.81722,-0.096211,0.055589,0.052534,-4.38,40.98,-11.1
3.7184,-9.0439,-0.6674,-0.088575,0.068417,0.054672,-4.38,40.98,-10.86
3.732,-8.9758,-0.7355,-0.091935,0.083078,0.052229,-4.38,40.92,-10.86
3.7728,-8.9349,-0.6674,-0.075136,0.072998,0.075747,-4.32,40.92,-10.86
3.7728,-8.9077,-0.76274,-0.075442,0.071166,0.082161,-4.32,41.04,-10.86
3.7456,-8.9894,-0.70826,-0.069944,0.066584,0.094379,-4.14,41.1,-11.04
3.7728,-9.0575,-0.57205,-0.065057,0.071471,0.10171,-4.08,41.16,-10.86
3.8409,-9.0712,-0.65378,-0.059254,0.077885,0.10079,-3.9,41.34,-10.62
3.8273,-9.0031,-0.64016,-0.058032,0.089492,0.090408,-3.78,41.46,-10.44
3.8546,-9.0167,-0.64016,-0.046731,0.10324,0.085521,-3.66,41.52,-10.38
3.8546,-9.1529,-0.65378,-0.045509,0.10324,0.073915,-3.48,41.76,-10.38
3.8137,-9.112,-0.70826,-0.0562,0.11087,0.052229,-3.48,41.76,-10.14
3.7728,-9.112,-0.7355,-0.057727,0.13256,0.038485,-3.54,41.82,-10.08
3.7865,-9.0712,-0.68102,-0.047647,0.14966,0.016799,-3.3,41.64,-10.38
3.7456,-9.0848,-0.72188,-0.034208,0.1405,0.010079,-3.12,41.7,-10.38
3.8137,-9.1665,-0.74912,-0.02138,0.11729,-0.000916,-3.0,41.7,-10.5
3.7047,-9.0848,-0.70826,-0.014661,0.11912,0.0018326,-2.94,41.7,-10.44
3.732,-9.0303,-0.70826,-0.0045815,0.10721,0.01741,-2.94,41.58,-10.38
3.8001,-9.1256,-0.7355,0.01069,0.075747,0.03879,-2.82,41.64,-10.38
3.7865,-9.0848,-0.76274,0.016188,0.049175,0.076053,-2.7,41.7,-10.5
3.732,-9.1937,-0.8036,0.012828,0.050091,0.1014,-2.7,41.64,-10.62
3.7728,-9.1801,-0.81722,0.010385,0.0562,0.10934,-2.76,41.7,-10.5
3.9363,-8.9213,-0.89894,0.0027489,0.045815,0.11393,-2.7,41.52,-10.5
3.9908,-8.8668,-0.89894,0.023824,-0.0036652,0.11942,-2.64,41.46,-10.62
3.9771,-8.7987,-0.99429,0.014661,-0.020464,0.12095,-2.52,41.52,-10.56
3.9908,-8.826,-0.99429,0.011912,-0.055283,0.10843,-2.52,41.64,-10.56
4.0861,-9.0848,-1.0215,0.0088575,-0.044899,0.092852,-2.46,41.64,-10.5
3.9499,-9.0848,-1.0896,-0.0067195,-0.031154,0.076664,-2.34,41.76,-10.26
4.0725,-9.2482,-0.99429,-0.033292,-0.012523,0.061697,-2.34,41.64,-10.32
4.0044,-9.2346,-0.99429,-0.048564,0.0036652,0.032376,-2.04,41.7,-10.5
4.0861,-9.221,-1.0215,-0.054672,0.0030543,0.021075,-2.04,41.64,-10.5
4.0452,-9.1937,-0.92618,-0.062919,0.011606,-0.0030543,-2.1,41.64,-10.62
3.9227,-9.0575,-0.83084,-0.074526,0.033598,-0.010385,-1.8,41.58,-10.68
3.9908,-9.0575,-0.77636,-0.090713,0.054062,-0.040012,-1.68,41.52,-10.92
3.9635,-9.1393,-0.65378,-0.095295,0.062308,-0.064141,-1.62,41.58,-10.86
3.8409,-9.1665,-0.65378,-0.098044,0.090103,-0.097738,-1.56,41.58,-10.86
3.8409,-9.1529,-0.64016,-0.10415,0.10354,-0.11332,-1.5,41.46,-10.92
3.8409,-9.1256,-0.64016,-0.10385,0.14355,-0.13134,-1.5,41.52,-10.92
3.8001,-8.9486,-0.51757,-0.093768,0.14722,-0.12889,-1.44,41.58,-10.8
3.7592,-8.9077,-0.61292,-0.075442,0.13225,-0.11698,-1.5,41.46,-10.92
3.8682,-8.9349,-0.6674,-0.050396,0.089492,-0.084299,-1.44,41.58,-10.8
3.8546,-9.0303,-0.62654,-0.031765,0.039706,-0.058948,-1.5,41.58,-10.68
3.7865,-9.0575,-0.74912,-0.0076358,-0.012217,-0.055589,-1.44,41.64,-10.74
3.8001,-9.0439,-0.74912,-0.000611,-0.009163,-0.063225,-1.44,41.64,-10.68
3.8273,-9.0848,-0.89894,-0.0039706,-0.0036652,-0.078191,-1.68,41.58,-10.5
3.8273,-9.0848,-0.8717,-0.0079412,0.0015272,-0.073609,-1.86,41.58,-10.5
3.732,-9.0439,-1.0624,-0.026267,0.019242,-0.077274,-1.98,41.52,-10.68
3.7592,-9.0303,-0.89894,-0.036041,0.036652,-0.072998,-2.04,41.7,-10.5
3.7184,-8.9077,-0.83084,-0.054978,0.091324,-0.064752,-2.1,41.64,-10.5
3.8001,-8.9349,-0.76274,-0.070555,0.10201,-0.064141,-2.16,41.58,-10.44
3.8954,-8.9622,-0.6674,-0.074526,0.10293,-0.055589,-2.4,41.52,-10.44
3.9363,-9.0984,-0.58567,-0.073609,0.09163,-0.0562,-2.46,41.52,-10.44
3.8954,-9.1393,-0.51757,-0.069333,0.071471,-0.036652,-2.58,41.46,-10.56
3.9227,-9.1393,-0.53119,-0.064752,0.05681,-0.036346,-2.64,41.52,-10.32
3.9227,-9.0575,-0.50395,-0.055283,0.046426,-0.013744,-2.88,41.52,-10.38
3.8954,-9.0303,-0.58567,-0.046731,0.04612,-0.01405,-2.82,41.46,-10.32
3.8954,-8.9349,-0.54481,-0.03207,0.024129,-0.0018326,-2.94,41.52,-10.38
3.9363,-8.9622,-0.54481,-0.025962,0.01741,0.0079412,-2.94,41.52,-10.32
3.9227,-8.9758,-0.61292,-0.032376,0.039401,0.014966,-2.94,41.58,-10.26
3.9227,-9.0575,-0.54481,-0.030849,0.048258,0.011912,-3.18,41.4,-10.32
3.9635,-8.9894,-0.51757,-0.036652,0.071777,0.032987,-3.3,41.58,-10.26
3.9227,-9.0303,-0.64016,-0.043066,0.075747,0.040317,-3.36,41.58,-10.32
3.9908,-8.9894,-0.61292,-0.029016,0.073304,0.041539,-3.42,41.58,-10.38
3.9635,-9.0167,-0.64016,-0.026573,0.065363,0.041844,-3.42,41.82,-10.5
3.9363,-9.0167,-0.61292,-0.018631,0.061392,0.050396,-3.3,41.94,-10.5
3.8954,-9.0439,-0.64016,-0.020159,0.067195,0.064752,-3.6,42.06,-10.62
4.0316,-9.0984,-0.74912,-0.025962,0.066279,0.074831,-3.48,41.88,-10.56
3.9908,-9.1256,-0.64016,-0.018937,0.056505,0.1124,-3.6,41.82,-10.62
3.9227,-9.1937,-0.64016,-0.014355,0.042761,0.12767,-3.48,41.82,-10.74
4.0044,-9.1665,-0.74912,-0.015577,0.032681,0.14142,-3.48,41.88,-10.92
4.0861,-9.0712,-0.8036,-0.0064141,-0.01069,0.14905,-3.3,41.64,-10.86
4.127,-9.0712,-0.70826,0.011301,-0.027489,0.15669,-3.24,41.64,-10.86
3.9771,-9.0575,-0.74912,0.0061087,-0.050702,0.15241,-2.94,41.64,-10.8
4.0316,-9.1393,-0.76274,-0.0015272,-0.062308,0.13653,-2.88,41.58,-10.92
3.9499,-9.0303,-0.83084,-0.0076358,-0.049175,0.12859,-2.88,41.64,-10.8
3.8954,-9.0575,-0.77636,-0.027489,-0.043066,0.10873,-2.88,41.46,-10.86
3.8682,-9.0575,-0.70826,-0.032681,-0.032376,0.092241,-2.7,41.4,-10.98
3.9227,-9.0984,-0.70826,-0.047342,-0.022907,0.07025,-2.46,41.4,-10.98
3.8954,-9.1393,-0.70826,-0.057116,-0.0073304,0.064141,-2.34,41.46,-10.98
3.8273,-9.1801,-0.64016,-0.062003,0.0064141,0.052229,-1.92,41.58,-11.04
3.8682,-9.0848,-0.57205,-0.062003,0.020464,0.047953,-1.86,41.64,-10.86
3.8273,-9.1393,-0.62654,-0.054062,0.013439,0.040012,-1.8,41.58,-10.8
3.8682,-9.0031,-0.65378,-0.058338,-0.0073304,0.034819,-1.8,41.7,-10.92
3.8546,-9.0575,-0.57205,-0.034208,-0.032987,0.029932,-1.8,41.76,-10.92
3.8137,-9.0439,-0.50395,-0.041539,-0.032376,0.035736,-1.8,41.64,-10.98
3.8001,-8.9894,-0.72188,-0.018326,-0.043677,0.029322,-1.8,41.76,-10.92
3.8682,-9.0167,-0.64016,-0.023518,-0.047953,0.032376,-1.62,41.76,-10.92
3.8682,-9.0984,-0.70826,-0.0281,-0.053756,0.037263,-1.68,41.7,-10.8
3.8546,-9.1529,-0.69464,-0.032376,-0.053145,0.033292,-1.74,41.7,-10.86
3.9227,-9.1937,-0.77636,-0.027184,-0.041844,0.01741,-1.74,41.64,-10.8
3.9908,-9.0575,-0.6674,-0.026878,-0.043066,0.012217,-1.86,41.76,-10.8
3.9227,-9.0984,-0.6674,-0.021686,-0.081551,0.0039706,-1.98,41.7,-10.86
3.8818,-9.0848,-0.62654,-0.016799,-0.08491,0.0045815,-1.98,41.52,-10.8
3.909,-9.0712,-0.72188,-0.022907,-0.094379,-0.000611,-1.98,41.58,-10.86
3.8409,-9.0439,-0.78998,-0.022602,-0.07422,-0.0027489,-2.04,41.46,-10.62
3.8682,-9.0303,-0.77636,-0.029322,-0.062919,0.000916,-2.04,41.34,-10.8
3.9227,-8.9622,-0.84446,-0.043371,-0.067806,-0.000305,-1.98,41.34,-10.74
3.909,-9.112,-0.81722,-0.043982,-0.068111,-0.0064141,-1.98,41.34,-10.68
3.8818,-9.0848,-0.74912,-0.052534,-0.063225,-0.0097738,-2.1,41.22,-10.68
3.8682,-9.1529,-0.7355,-0.060476,-0.047953,-0.0076358,-2.04,41.4,-10.68
3.8818,-9.0439,-0.69464,-0.053451,-0.047953,-0.0030543,-1.92,41.52,-10.62
3.8818,-9.0712,-0.69464,-0.058032,-0.04612,-0.012217,-1.98,41.52,-10.62
3.8954,-9.0575,-0.72188,-0.057421,-0.042761,-0.020159,-1.98,41.52,-10.68
3.8682,-9.0303,-0.64016,-0.059254,-0.040012,-0.037874,-2.1,41.4,-10.68
3.8001,-9.112,-0.65378,-0.064752,-0.036652,-0.047647,-2.16,41.58,-10.8
3.7728,-9.0575,-0.7355,-0.064752,-0.019548,-0.058032,-2.22,41.64,-10.8
3.7728,-9.221,-0.70826,-0.068417,-0.0094684,-0.060476,-1.98,41.64,-10.8
3.7592,-9.1937,-0.65378,-0.072998,0.027489,-0.071777,-2.04,41.88,-10.74
3.7456,-9.1256,-0.7355,-0.066279,0.03207,-0.063835,-2.22,41.82,-10.74
3.6366,-9.0575,-0.70826,-0.059254,0.031154,-0.066584,-2.16,41.88,-10.68
3.6503,-9.0575,-0.68102,-0.047647,0.029016,-0.070555,-2.22,41.94,-10.68
3.6503,-9.0031,-0.58567,-0.03879,0.0064141,-0.064141,-2.4,41.76,-10.62
3.6094,-9.0167,-0.6674,-0.016188,-0.013439,-0.049175,-2.46,41.7,-10.56
3.6094,-9.0984,-0.77636,-0.016799,-0.029322,-0.014355,-2.58,41.76,-10.32
3.5685,-9.0575,-0.77636,-0.017715,-0.026267,0.002138,-2.82,41.7,-10.32
3.6094,-9.0575,-0.76274,-0.023213,-0.012828,0.041233,-2.82,41.76,-10.2
3.6094,-9.0712,-0.85808,-0.03207,-0.009163,0.053756,-2.7,41.7,-10.14
3.8682,-9.1256,-0.78998,-0.029932,0.023518,0.048564,-3.0,41.58,-10.2
3.7456,-9.0575,-0.84446,-0.029016,0.027794,0.062919,-3.06,41.52,-10.26
3.732,-9.1937,-0.8036,-0.041844,0.028405,0.034819,-3.12,41.46,-10.14
3.732,-9.221,-0.85808,-0.053451,0.08094,0.025962,-3.18,41.52,-10.32
3.7184,-9.221,-0.83084,-0.067501,0.10721,0.0064141,-3.24,41.46,-10.44
3.732,-9.221,-0.76274,-0.074831,0.11576,-0.0018326,-3.3,41.46,-10.38
3.6366,-9.0984,-0.76274,-0.075442,0.11209,0.0061087,-3.24,41.4,-10.32
3.6503,-9.1256,-0.70826,-0.071777,0.10873,0.019242,-3.12,41.4,-10.44
3.623,-9.0303,-0.65378,-0.059254,0.1011,0.042761,-3.12,41.4,-10.38
3.732,-8.9894,-0.76274,-0.046731,0.07758,0.082772,-2.94,41.52,-10.56
3.7728,-9.0575,-0.72188,-0.043982,0.062614,0.1014,-3.0,41.52,-10.62
3.6911,-8.9894,-0.70826,-0.044593,0.067806,0.10904,-3.0,41.52,-10.56
3.8137,-9.0575,-0.78998,-0.047342,0.059559,0.12798,-3.06,41.46,-10.44
3.9227,-9.0575,-0.83084,-0.051924,0.062003,0.13378,-2.94,41.4,-10.5
3.9227,-9.0167,-0.83084,-0.046731,0.052229,0.12614,-2.82,41.46,-10.56
3.9635,-9.1529,-0.92618,-0.051618,0.057727,0.11851,-2.64,41.4,-10.44
3.9908,-9.0848,-0.85808,-0.057727,0.066584,0.10385,-2.64,41.52,-10.32
3.9499,-9.1256,-0.91256,-0.07422,0.085521,0.059559,-2.46,41.46,-10.44
3.8954,-9.112,-0.77636,-0.076053,0.0956,0.029627,-2.4,41.52,-10.44
3.9227,-9.0303,-0.7355,-0.078496,0.096517,0.033903,-2.4,41.7,-10.44
3.8954,-9.0167,-0.70826,-0.072998,0.08491,0.037568,-2.34,41.64,-10.62
3.8546,-9.0575,-0.64016,-0.081551,0.085216,0.060476,-2.22,41.64,-10.62
3.9227,-8.9622,-0.64016,-0.08094,0.093462,0.061087,-2.04,41.82,-10.38
4.018,-8.8941,-0.70826,-0.069028,0.078802,0.072998,-1.86,41.82,-10.32
4.0452,-8.9077,-0.6674,-0.053451,0.04948,0.063225,-1.62,41.82,-10.26
4.0452,-9.0848,-0.68102,-0.042455,0.039095,0.051924,-1.44,42.12,-10.02
4.0725,-9.1256,-0.68102,-0.027184,0.032376,0.045509,-1.32,42.12,-10.02
4.018,-9.0575,-0.70826,-0.021991,0.030238,0.028711,-1.32,42.12,-9.96
4.0861,-9.0439,-0.69464,-0.016799,0.029322,0.0079412,-1.08,42.12,-9.9
4.0589,-9.0167,-0.70826,-0.0033598,0.0061087,-0.016799,-1.02,42.12,-9.78
3.9771,-8.9894,-0.72188,-0.0088575,0.0067195,-0.022602,-1.08,41.94,-9.84
3.9908,-9.0575,-0.7355,-0.020769,0.016188,-0.045815,-1.08,42.0,-9.72
3.909,-9.0575,-0.76274,-0.027184,0.043677,-0.058032,-1.02,42.0,-9.72
3.909,-9.0031,-0.76274,-0.031154,0.054062,-0.063835,-1.08,42.06,-9.72
3.8682,-9.0712,-0.6674,-0.03146,0.053145,-0.064446,-1.02,42.12,-9.84
3.8546,-9.1665,-0.7355,-0.027794,0.048258,-0.069028,-1.2,42.18,-9.84
3.7456,-9.112,-0.69464,-0.02474,0.043371,-0.062003,-1.32,42.18,-9.96
3.7728,-9.0712,-0.68102,-0.020464,0.044288,-0.061087,-1.44,42.06,-9.96
3.732,-9.0712,-0.72188,-0.013744,0.035736,-0.059254,-1.62,41.94,-10.02
3.7728,-8.9894,-0.70826,-0.011301,0.025962,-0.038485,-1.68,41.94,-10.02
3.7456,-9.0575,-0.74912,-0.010079,0.018326,-0.020769,-1.86,41.7,-10.14
3.7456,-9.0984,-0.68102,-0.010996,0.025962,-0.002138,-1.86,41.7,-10.08
3.7865,-9.0848,-0.69464,-0.017715,0.020159,0.011912,-1.8,41.88,-10.08
3.7728,-9.0848,-0.6674,-0.019548,0.011301,0.015882,-1.56,41.82,-10.14
3.8001,-9.112,-0.72188,-0.02474,0.015882,0.027184,-1.8,41.82,-10.08
3.8273,-9.0848,-0.61292,-0.013744,0.020464,0.034819,-1.92,41.58,-10.2
3.909,-9.0575,-0.70826,-0.014966,0.016799,0.036041,-1.98,41.46,-10.2
3.8682,-9.0575,-0.62654,-0.022602,0.000305,0.04948,-1.86,41.28,-10.2
3.8682,-9.0439,-0.64016,-0.018326,-0.0054978,0.051007,-1.8,41.22,-10.26
3.8273,-9.0575,-0.65378,-0.022602,-0.000305,0.053145,-1.62,41.34,-10.32
3.9227,-9.0303,-0.65378,-0.0094684,-0.000305,0.0562,-1.56,41.4,-10.44
3.9227,-9.0712,-0.5993,-0.013134,-0.0054978,0.056505,-1.5,41.52,-10.26
3.8818,-9.0303,-0.61292,-0.021686,-0.0094684,0.054367,-1.38,41.64,-10.26
3.9227,-9.0712,-0.68102,-0.014661,-0.009163,0.052229,-1.5,41.64,-10.32
3.9227,-9.0575,-0.64016,-0.014355,-0.0064141,0.053451,-1.56,41.64,-10.2
3.9908,-9.0439,-0.54481,-0.011606,-0.0054978,0.046731,-1.68,41.52,-10.26
3.9908,-9.1529,-0.57205,-0.0067195,-0.0042761,0.025962,-1.56,41.64,-10.32
3.9227,-9.1529,-0.64016,-0.0085521,0.0058032,0.018631,-1.5,41.58,-10.2
3.9635,-9.112,-0.61292,-0.014355,0.018021,0.011912,-1.26,41.7,-10.14
3.9635,-9.0712,-0.57205,-0.010079,0.007025,0.012523,-1.2,41.82,-10.2
3.909,-9.112,-0.54481,-0.0051924,0.0015272,0.010385,-1.26,41.88,-10.2
3.909,-9.0848,-0.61292,-0.0067195,-0.0036652,0.0079412,-1.2,41.94,-10.32
3.8546,-9.0712,-0.5993,-0.0024435,-0.0051924,-0.007025,-1.14,41.76,-10.26
3.8818,-9.112,-0.61292,-0.0058032,-0.0076358,-0.0079412,-1.2,41.76,-10.38
3.8273,-9.1529,-0.70826,-0.022297,0.013439,0.0018326,-1.2,41.7,-10.5
3.8546,-9.221,-0.62654,-0.020159,0.024435,-0.0045815,-1.14,41.76,-10.56
3.9227,-9.2482,-0.65378,-0.029932,0.036346,-0.0048869,-1.2,41.7,-10.62
3.8954,-9.1393,-0.5993,-0.044899,0.043982,-0.015882,-1.32,41.76,-10.56
3.8818,-9.0575,-0.7355,-0.043982,0.049175,-0.032681,-1.32,41.64,-10.62
3.8682,-9.0303,-0.57205,-0.050702,0.052534,-0.033292,-1.32,41.64,-10.68
3.8001,-8.9894,-0.69464,-0.041844,0.013439,-0.026267,-1.44,41.46,-10.86
3.8682,-9.0167,-0.57205,-0.036957,-0.017104,-0.0082467,-1.68,41.46,-10.86
3.8001,-9.0303,-0.6674,-0.031765,-0.035736,0.0024435,-1.74,41.52,-10.68
3.7456,-9.0712,-0.5993,-0.040317,-0.025045,0.022907,-1.74,41.4,-10.74
3.8001,-9.0712,-0.57205,-0.044288,-0.0082467,0.027489,-1.8,41.58,-10.8
3.8682,-9.0848,-0.47671,-0.033292,-0.010385,0.029016,-1.86,41.64,-10.74
3.9635,-9.1256,-0.54481,-0.042455,-0.020159,0.026267,-1.98,41.52,-10.8
3.9635,-9.2755,-0.47671,-0.032376,-0.0036652,0.026573,-1.98,41.52,-10.8
3.9499,-9.1256,-0.47671,-0.025045,0.0036652,0.03207,-1.92,41.58,-10.86
3.909,-9.0575,-0.44947,-0.012828,-0.011301,0.022907,-1.98,41.58,-10.8
