Ax,Ay,Az,Gx,Gy,Gz,Mx,My,Mz
2.2474,-9.4389,-1.6208,-0.050091,0.17623,0.063835,0.06,38.82,-2.82
2.3155,-9.4389,-1.58,-0.043371,0.17837,0.069333,-0.06,38.88,-2.76
2.2882,-9.398,-1.5527,-0.04215,0.18326,0.074526,0.18,38.76,-2.7
2.3155,-9.3436,-1.471,-0.043066,0.17501,0.067195,0.24,38.94,-2.76
2.3427,-9.3708,-1.471,-0.038179,0.16829,0.065363,0.3,39.12,-2.58
2.3563,-9.3572,-1.471,-0.030849,0.15241,0.077274,0.42,39.24,-2.46
2.3699,-9.4389,-1.4574,-0.036957,0.14203,0.093462,0.48,39.3,-2.4
2.2474,-9.2755,-1.6072,-0.020464,0.15149,0.10018,0.6,39.3,-2.52
2.3155,-9.3436,-1.58,-0.012828,0.17318,0.1069,0.78,39.3,-2.46
2.4108,-9.3299,-1.5391,-0.010385,0.15944,0.10873,0.78,39.48,-2.58
2.4244,-9.3572,-1.6072,-0.002138,0.1182,0.10263,0.84,39.48,-2.64
2.3699,-9.3844,-1.6072,0.0045815,0.076969,0.1124,0.96,39.48,-2.64
2.4517,-9.4389,-1.6889,0.0027489,0.062308,0.10873,1.02,39.42,-2.52
2.3699,-9.4798,-1.6481,0.0048869,0.063835,0.11393,1.2,39.3,-2.82
2.3427,-9.4117,-1.7025,0.0058032,0.065668,0.11362,1.26,39.24,-2.88
2.3972,-9.4117,-1.6889,0.0048869,0.059865,0.10843,1.38,39.06,-2.94
2.4108,-9.4117,-1.6753,-0.0033598,0.062308,0.092241,1.5,39.06,-3.0
2.5061,-9.3844,-1.6753,-0.012523,0.050702,0.085216,1.62,39.0,-3.12
2.4517,-9.4253,-1.7979,-0.012828,0.03879,0.072998,1.56,39.24,-3.18
2.4517,-9.4798,-1.8251,-0.033903,0.023824,0.055894,1.56,39.24,-3.06
2.4108,-9.4798,-1.7434,-0.035125,0.011912,0.047953,1.5,39.36,-3.18
2.3291,-9.4389,-1.6753,-0.040928,0.0054978,0.026267,1.74,39.42,-2.94
2.438,-9.4661,-1.6344,-0.040623,-0.010996,0.016799,1.8,39.48,-3.0
2.3836,-9.4798,-1.6481,-0.04612,-0.019548,0.015577,1.92,39.48,-3.0
2.3563,-9.4661,-1.5663,-0.049175,-0.036346,0.0051924,1.92,39.48,-3.24
2.3291,-9.4389,-1.5936,-0.050091,-0.05681,-0.0042761,1.98,39.6,-3.12
2.3427,-9.4389,-1.58,-0.053451,-0.057727,-0.0051924,1.98,39.78,-3.06
2.3427,-9.4798,-1.5527,-0.048869,-0.055589,-0.007025,2.1,39.9,-3.06
2.152,-9.4934,-1.5119,-0.048564,-0.058643,-0.020159,2.16,39.84,-3.18
2.3155,-9.4117,-1.4165,-0.048869,-0.058338,-0.023213,2.16,39.9,-3.06
2.2882,-9.4525,-1.471,-0.041539,-0.055894,-0.022602,2.22,39.78,-3.0
2.2746,-9.3844,-1.4438,-0.039706,-0.069639,-0.025656,2.4,39.66,-2.94
2.2474,-9.3844,-1.4846,-0.032987,-0.07422,-0.027794,2.34,39.54,-2.94
2.2337,-9.4253,-1.4846,-0.026878,-0.091019,-0.018937,2.28,39.6,-3.06
2.2337,-9.4117,-1.4574,-0.0281,-0.096211,-0.009163,2.28,39.36,-3.06
2.2201,-9.4525,-1.471,-0.023213,-0.1011,-0.0085521,2.22,39.42,-3.18
2.2201,-9.398,-1.5119,-0.027489,-0.099876,0.0058032,2.4,39.42,-3.36
2.2746,-9.4525,-1.5119,-0.014355,-0.1011,0.0042761,2.46,39.3,-3.36
2.2882,-9.507,-1.5391,-0.019548,-0.11454,0.0036652,2.4,39.24,-3.36
2.2474,-9.4389,-1.6208,-0.02474,-0.11637,0.0076358,2.16,39.24,-3.42
2.261,-9.398,-1.6072,-0.014355,-0.11179,0.0012217,2.22,39.18,-3.66
2.1793,-9.4798,-1.5391,-0.014966,-0.10476,0.0061087,2.1,39.42,-3.78
2.1656,-9.4525,-1.5936,-0.013134,-0.10385,-0.0058032,1.98,39.12,-3.78
2.1929,-9.4117,-1.6617,-0.019242,-0.098655,0.0015272,2.04,39.06,-3.66
2.1929,-9.3708,-1.5527,-0.022602,-0.097738,0.000305,1.98,39.12,-3.6
2.2201,-9.3844,-1.58,-0.029016,-0.10843,-0.0054978,2.1,39.0,-3.6
2.2201,-9.507,-1.5119,-0.027489,-0.1182,0.0079412,1.86,39.06,-3.66
2.152,-9.3844,-1.5255,-0.027184,-0.11698,0.013744,1.92,39.06,-3.66
2.1929,-9.4389,-1.5391,-0.029322,-0.11209,0.012523,1.86,38.88,-3.6
2.2201,-9.4389,-1.5391,-0.026573,-0.099266,0.01405,1.56,38.88,-3.48
2.261,-9.3299,-1.5391,-0.025351,-0.10415,0.013134,1.5,38.94,-3.3
2.1656,-9.4389,-1.4846,-0.025962,-0.10537,0.0027489,1.44,38.88,-3.42
2.2201,-9.4389,-1.5119,-0.024435,-0.1014,-0.0015272,1.44,38.94,-3.48
2.2201,-9.4389,-1.5119,-0.02474,-0.084299,-0.010996,1.44,38.94,-3.48
2.261,-9.5751,-1.4165,-0.02138,-0.078191,-0.010996,1.5,38.94,-3.48
2.2201,-9.4798,-1.471,-0.022297,-0.07086,-0.01405,1.38,38.94,-3.42
2.152,-9.4117,-1.58,-0.025962,-0.078191,-0.016188,1.44,39.06,-3.48
2.152,-9.4798,-1.4846,-0.018021,-0.079412,-0.023213,1.56,38.88,-3.42
2.152,-9.4253,-1.471,-0.020159,-0.071471,-0.03146,1.8,38.88,-3.42
2.152,-9.507,-1.5391,-0.022297,-0.061087,-0.03879,1.98,38.82,-3.36
2.1384,-9.4798,-1.5119,-0.025351,-0.061697,-0.035125,2.04,38.7,-3.3
2.1929,-9.4389,-1.5936,-0.024129,-0.053145,-0.026573,2.22,38.76,-3.36
2.152,-9.4525,-1.5119,-0.024435,-0.050702,-0.020769,2.1,38.7,-3.6
2.1248,-9.4253,-1.4574,-0.020464,-0.050702,-0.0281,2.04,38.64,-3.48
2.0975,-9.4389,-1.5119,-0.032681,-0.042761,-0.023518,2.04,38.7,-3.48
2.0839,-9.4389,-1.4301,-0.026267,-0.036041,-0.015577,2.04,38.58,-3.42
2.1248,-9.4389,-1.471,-0.023518,-0.024435,-0.018021,1.8,38.64,-3.42
2.0839,-9.4389,-1.4574,-0.023518,-0.022297,-0.012523,1.38,38.58,-3.3
2.0975,-9.4253,-1.4438,-0.028711,-0.015272,-0.0073304,1.02,38.7,-3.36
2.0839,-9.4798,-1.4438,-0.025045,-0.018326,0.0042761,0.96,38.76,-3.36
2.0975,-9.4117,-1.5119,-0.028405,-0.0076358,0.010079,0.96,38.82,-3.24
2.0975,-9.4798,-1.471,-0.015882,-0.0033598,0.014661,1.02,38.82,-3.06
2.0975,-9.4389,-1.4438,-0.02138,0.0036652,0.019548,1.08,38.94,-3.06
2.152,-9.4661,-1.4301,-0.015882,0.0073304,0.025962,1.08,38.7,-3.18
2.1929,-9.4253,-1.4438,-0.018021,0.014966,0.03207,0.96,38.88,-3.18
2.152,-9.4661,-1.4438,-0.014966,0.026573,0.035736,0.9,38.88,-3.12
2.152,-9.4389,-1.4982,-0.010996,0.022602,0.042761,0.84,38.82,-3.18
2.2065,-9.4661,-1.471,-0.016188,0.02474,0.053145,0.78,38.76,-3.24
2.2201,-9.3572,-1.4574,-0.011301,0.020464,0.054978,0.66,38.88,-3.24
2.1656,-9.4389,-1.58,-0.017715,0.0079412,0.054978,0.66,38.82,-3.54
2.2201,-9.4798,-1.4982,-0.016493,0.007025,0.060781,0.72,38.76,-3.42
2.3155,-9.507,-1.4165,-0.025045,0.0064141,0.071777,0.72,38.7,-3.54
2.261,-9.4798,-1.4846,-0.016799,0.0042761,0.069028,0.84,38.82,-3.24
2.2337,-9.4253,-1.5255,-0.020769,-0.0018326,0.073915,1.08,38.82,-3.42
2.2882,-9.507,-1.5119,-0.012828,-0.0012217,0.062919,1.14,38.94,-3.48
2.2474,-9.4934,-1.4982,-0.023518,-0.009163,0.057727,1.38,39.12,-3.42
2.3018,-9.4661,-1.5119,-0.027184,-0.013744,0.048258,1.32,39.0,-3.72
2.2201,-9.507,-1.5119,-0.027489,-0.026878,0.044593,1.38,39.0,-3.66
2.2065,-9.4117,-1.4846,-0.029932,-0.022297,0.022297,1.44,38.88,-3.6
2.1929,-9.4525,-1.4574,-0.038179,-0.013134,0.01405,1.5,38.88,-3.66
2.2201,-9.507,-1.4846,-0.03146,-0.012828,0.0024435,1.56,38.94,-3.6
2.2201,-9.4525,-1.471,-0.033598,-0.018021,0.0012217,1.5,38.82,-3.84
2.2065,-9.4389,-1.4846,-0.038179,-0.020769,-0.0067195,1.32,38.82,-3.9
2.1656,-9.4253,-1.4438,-0.036652,-0.015882,-0.01069,1.38,38.88,-3.78
2.1384,-9.4253,-1.4438,-0.03879,-0.018631,-0.0036652,1.2,38.7,-3.78
2.2065,-9.4798,-1.5255,-0.033598,-0.025656,-0.000916,1.26,38.64,-3.72
2.152,-9.4525,-1.4982,-0.030238,-0.027184,-0.0012217,1.38,38.64,-3.66
2.0839,-9.4798,-1.5119,-0.036652,-0.022297,0.0030543,1.38,38.52,-3.84
2.0839,-9.4525,-1.4846,-0.031765,-0.01405,-0.000916,1.2,38.7,-3.72
2.1112,-9.4389,-1.4982,-0.03146,-0.025045,-0.0012217,1.32,38.7,-3.66
2.1929,-9.4389,-1.3757,-0.018631,-0.034819,0.0088575,1.2,38.64,-3.6
2.0839,-9.3844,-1.5119,-0.026573,-0.033598,0.015882,1.32,38.76,-3.6
2.1384,-9.4253,-1.6344,-0.018631,-0.041233,0.018631,1.38,38.82,-3.54
2.152,-9.4798,-1.58,-0.026267,-0.029016,0.01741,1.38,38.7,-3.3
2.1793,-9.4117,-1.5391,-0.029932,-0.03207,0.02474,1.26,38.82,-3.24
2.2201,-9.4389,-1.4846,-0.021075,-0.036346,0.022297,1.32,38.94,-3.0
2.1929,-9.4525,-1.4438,-0.021991,-0.036652,0.025045,1.44,39.06,-2.82
2.2201,-9.3572,-1.471,-0.019853,-0.025656,0.025962,1.56,39.06,-2.76
2.2474,-9.4389,-1.4982,-0.026573,-0.025962,0.026573,1.62,39.06,-2.88
2.2201,-9.4253,-1.4846,-0.017104,-0.030849,0.031154,1.5,39.12,-3.18
2.2746,-9.4389,-1.471,-0.017715,-0.036652,0.030849,1.5,39.06,-3.3
2.2882,-9.4389,-1.3757,-0.014966,-0.041233,0.03146,1.5,39.06,-3.42
2.1929,-9.4253,-1.4301,-0.020159,-0.043677,0.021075,1.56,39.06,-3.54
2.1929,-9.4389,-1.4438,-0.0061087,-0.045509,0.018326,1.38,39.18,-3.9
2.1929,-9.4253,-1.4438,-0.0076358,-0.046731,0.015577,1.5,39.12,-4.08
2.1656,-9.4934,-1.4846,-0.0012217,-0.043371,0.014966,1.44,39.24,-4.14
2.1929,-9.4253,-1.5119,-0.0067195,-0.033292,0.018631,1.38,39.12,-4.32
2.152,-9.4389,-1.5255,-0.0045815,-0.029932,0.012523,1.2,39.18,-4.32
2.1929,-9.4253,-1.4982,-0.0088575,-0.032987,0.012828,1.14,39.3,-4.26
2.1929,-9.4798,-1.4846,-0.017715,-0.041539,0.015882,1.2,39.3,-4.14
2.152,-9.4934,-1.4438,-0.0067195,-0.045815,0.01069,1.2,39.36,-4.02
2.1112,-9.507,-1.6072,-0.018631,-0.038485,0.013134,1.08,39.42,-4.02
2.1112,-9.4798,-1.6072,-0.015577,-0.028405,0.0073304,1.26,39.48,-3.96
2.1929,-9.4798,-1.5391,-0.026878,-0.018631,0.013744,1.38,39.48,-3.78
2.1248,-9.5751,-1.5391,-0.025962,-0.017715,0.015272,1.26,39.3,-3.84
2.1248,-9.507,-1.5391,-0.034208,-0.012523,0.012217,1.2,39.3,-3.84
2.1384,-9.4661,-1.6072,-0.033903,-0.0094684,0.019548,1.2,39.24,-3.72
2.1248,-9.5206,-1.5527,-0.03543,-0.012828,0.021075,1.2,39.12,-3.78
2.1248,-9.4934,-1.58,-0.038485,-0.009163,0.015272,1.26,39.18,-3.72
2.0567,-9.4798,-1.5936,-0.047342,-0.0018326,0.018631,1.26,39.24,-3.72
2.0839,-9.4934,-1.5391,-0.044899,-0.0058032,0.023518,1.14,39.24,-3.72
2.1112,-9.507,-1.5119,-0.054978,0.0027489,0.014661,1.14,39.12,-3.72
2.152,-9.5342,-1.5391,-0.053145,0.007025,0.015882,1.14,39.12,-3.78
2.152,-9.507,-1.5119,-0.061392,0.0048869,0.016493,1.08,39.12,-3.72
2.1112,-9.4117,-1.5663,-0.059865,0.011912,0.0097738,1.26,39.12,-3.84
2.0839,-9.4798,-1.4165,-0.062003,0.012828,0.0042761,1.2,39.24,-3.84
2.152,-9.507,-1.4301,-0.055589,0.0088575,0.0024435,1.2,39.12,-3.72
2.152,-9.507,-1.3348,-0.055894,0.002138,0.0097738,1.2,39.12,-3.72
2.1112,-9.4525,-1.4438,-0.054062,0.011606,0.025962,1.2,39.06,-3.72
2.0839,-9.3844,-1.4438,-0.051924,0.029627,0.023824,1.26,39.06,-3.84
2.1248,-9.4389,-1.471,-0.045815,0.034514,0.030543,1.38,39.18,-3.72
2.1384,-9.4117,-1.5119,-0.054367,0.028405,0.019242,1.2,39.12,-3.72
2.2337,-9.4798,-1.4438,-0.047037,0.021686,0.020769,1.26,39.24,-3.72
2.0975,-9.4798,-1.4846,-0.040012,0.030543,0.014966,1.2,39.12,-3.72
2.0839,-9.4253,-1.4574,-0.037263,0.026573,0.011301,1.26,39.06,-3.66
2.1656,-9.4117,-1.4982,-0.034208,0.028711,0.018937,1.38,39.24,-3.78
2.1248,-9.3436,-1.4574,-0.026267,0.020159,0.027489,1.32,39.12,-3.66
2.1248,-9.4798,-1.4574,-0.034819,0.025045,0.026573,1.32,39.12,-3.78
2.0975,-9.4389,-1.5255,-0.037874,0.029932,0.032376,1.32,39.12,-3.72
2.0839,-9.507,-1.4982,-0.032681,0.032376,0.032987,1.2,39.06,-3.78
2.0839,-9.4798,-1.5119,-0.029627,0.039706,0.041539,1.08,39.06,-3.78
2.152,-9.4525,-1.5391,-0.029627,0.042455,0.039095,1.08,39.0,-3.78
2.1656,-9.4525,-1.5663,-0.028711,0.03879,0.039706,1.2,38.94,-3.72
2.1656,-9.507,-1.471,-0.035125,0.031154,0.045815,1.2,39.06,-3.72
2.1656,-9.5342,-1.4846,-0.036957,0.017715,0.037263,1.14,39.0,-3.66
2.1112,-9.398,-1.5391,-0.044899,0.024435,0.048258,1.14,38.94,-3.72
2.0975,-9.4661,-1.4846,-0.049175,0.033292,0.040012,1.38,39.12,-3.6
2.0839,-9.507,-1.5255,-0.053145,0.03543,0.034514,1.32,39.12,-3.6
2.1248,-9.4389,-1.6072,-0.048869,0.036041,0.039706,1.44,39.12,-3.54
2.0703,-9.4934,-1.4165,-0.053145,0.048564,0.023824,1.62,39.18,-3.6
2.0703,-9.4798,-1.4982,-0.05284,0.055283,0.021991,1.8,39.12,-3.66
2.0431,-9.4525,-1.4846,-0.049786,0.0562,0.014966,1.74,39.18,-3.72
2.0839,-9.4661,-1.4301,-0.047647,0.055589,0.021075,1.62,39.18,-3.54
2.152,-9.5479,-1.471,-0.04612,0.063225,0.023518,1.62,39.06,-3.6
2.0703,-9.4389,-1.4438,-0.046731,0.067806,0.029016,1.56,38.7,-3.54
2.0703,-9.4389,-1.4438,-0.049175,0.062003,0.025962,1.62,38.7,-3.48
2.0703,-9.4389,-1.4438,-0.046731,0.062308,0.030238,1.74,38.82,-3.48
2.1248,-9.507,-1.4982,-0.043677,0.050702,0.029322,1.74,38.76,-3.48
2.0975,-9.4525,-1.5119,-0.041539,0.04612,0.03879,1.62,38.82,-3.54
2.1248,-9.4389,-1.4165,-0.041233,0.045204,0.043066,1.74,38.7,-3.54
2.1384,-9.4661,-1.471,-0.030543,0.047953,0.047647,1.74,38.76,-3.48
2.1793,-9.4525,-1.4574,-0.028405,0.039401,0.046731,1.62,38.7,-3.36
2.1656,-9.4117,-1.5663,-0.032681,0.027794,0.051007,1.68,38.82,-3.24
2.2065,-9.4117,-1.471,-0.023824,0.020769,0.043371,1.68,38.88,-3.12
2.152,-9.4117,-1.471,-0.025962,0.021075,0.045815,1.8,38.76,-3.06
2.1929,-9.4661,-1.5119,-0.037874,0.026573,0.034819,1.86,39.06,-3.12
2.1656,-9.5479,-1.5527,-0.029322,0.028405,0.022297,1.74,39.06,-3.06
2.1793,-9.507,-1.5255,-0.030849,0.024435,0.020159,1.68,39.06,-3.12
2.1929,-9.4389,-1.5391,-0.042761,0.013134,0.010996,1.92,39.06,-3.18
2.1384,-9.4253,-1.5391,-0.045204,0.012523,0.0097738,1.74,39.0,-3.24
2.152,-9.4117,-1.5391,-0.051618,0.018937,-0.0061087,1.74,39.12,-3.24
2.1248,-9.5479,-1.4165,-0.041233,0.0094684,-0.0061087,1.26,39.3,-3.12
2.152,-9.5342,-1.6072,-0.049175,0.0042761,0.002138,1.2,39.3,-3.18
2.152,-9.5342,-1.6072,-0.050702,0.0082467,0.0082467,1.2,39.3,-3.18
2.152,-9.5342,-1.6072,-0.045204,0.0079412,0.0012217,1.2,39.3,-3.18
2.0703,-9.4798,-1.5527,-0.050702,0.0012217,0.000611,1.2,39.24,-3.24
2.0975,-9.4389,-1.5119,-0.048564,-0.020464,-0.000916,1.08,39.3,-3.24
2.152,-9.4525,-1.5255,-0.045204,-0.023824,-0.0058032,1.08,39.3,-3.42
2.152,-9.4389,-1.5119,-0.044593,-0.018937,-0.007025,0.96,39.3,-3.72
2.1112,-9.5479,-1.5391,-0.045204,-0.010996,-0.0082467,1.02,39.42,-3.78
2.0975,-9.4117,-1.4165,-0.036041,-0.011606,-0.010385,0.96,39.36,-3.78
2.0839,-9.3708,-1.471,-0.03207,-0.019242,-0.0076358,0.84,39.42,-3.72
2.0975,-9.4525,-1.4982,-0.036346,-0.020464,-0.0027489,0.72,39.36,-3.72
2.0975,-9.4389,-1.471,-0.021991,-0.018631,-0.0036652,0.66,39.3,-3.6
2.0431,-9.4253,-1.4301,-0.027184,-0.014661,0.0030543,0.72,39.18,-3.66
2.0567,-9.4389,-1.471,-0.015882,-0.022297,0.0024435,0.9,39.06,-3.84
2.0703,-9.507,-1.4301,-0.016799,-0.026267,0.02474,0.84,38.94,-3.9
2.1248,-9.4661,-1.4438,-0.0033598,-0.035125,0.015272,0.84,39.0,-3.84
2.1112,-9.4389,-1.4029,-0.0015272,-0.044899,0.01741,0.78,38.94,-3.84
2.1248,-9.4525,-1.5255,-0.0039706,-0.049175,0.019548,0.84,38.76,-3.78
2.1384,-9.4389,-1.471,-0.0042761,-0.051924,0.027489,0.84,38.82,-3.6
2.1248,-9.4798,-1.471,-0.002138,-0.042455,0.022297,0.6,38.76,-3.6
2.0839,-9.4798,-1.471,-0.0033598,-0.040317,0.021686,0.6,38.88,-3.6
2.1248,-9.4798,-1.4574,-0.014661,-0.04215,0.023213,0.78,38.94,-3.72
2.0975,-9.4934,-1.4574,-0.0048869,-0.039095,0.0094684,0.78,38.94,-3.78
2.0703,-9.4934,-1.5119,-0.0088575,-0.040012,0.016188,0.72,39.12,-3.66
2.0567,-9.4117,-1.4438,-0.017104,-0.036957,0.018631,0.72,39.06,-3.48
2.0839,-9.4934,-1.5119,-0.012523,-0.03146,0.0094684,0.66,39.06,-3.18
2.0703,-9.4525,-1.471,-0.017104,-0.034514,0.018631,0.78,39.24,-3.12
2.0567,-9.507,-1.471,-0.018631,-0.028711,0.015577,0.78,39.24,-3.18
2.0567,-9.4934,-1.4438,-0.02138,-0.026878,0.020159,0.9,39.12,-3.12
2.0294,-9.507,-1.4301,-0.023518,-0.027489,0.022602,0.84,39.24,-3.24
2.0839,-9.507,-1.4982,-0.025962,-0.007025,0.0079412,0.72,39.24,-3.18
2.1248,-9.5206,-1.471,-0.02138,-0.0027489,0.0097738,0.78,39.24,-3.24
2.1112,-9.5615,-1.4982,-0.035736,0.0024435,0.0064141,0.72,39.3,-3.24
2.0567,-9.4389,-1.4574,-0.033903,0.0039706,0.017715,0.78,39.24,-3.06
2.0975,-9.4661,-1.4438,-0.034819,0.0051924,0.01741,0.72,39.18,-3.18
2.0294,-9.5479,-1.4438,-0.038179,0.0018326,0.019548,0.84,39.12,-3.3
2.1248,-9.507,-1.471,-0.043066,0.0012217,0.017715,0.84,39.24,-3.42
2.0839,-9.4661,-1.4438,-0.039095,0.0039706,0.023824,0.96,39.42,-3.66
2.1248,-9.4525,-1.471,-0.038485,0.0051924,0.022297,1.08,39.24,-3.84
2.0975,-9.4389,-1.471,-0.032681,0.0082467,0.023824,0.9,39.36,-3.9
2.1248,-9.4934,-1.4301,-0.029016,0.017104,0.012523,1.02,39.48,-3.78
2.0839,-9.4798,-1.4029,-0.033903,0.020464,0.021991,1.14,39.3,-3.72
2.0975,-9.4389,-1.3484,-0.018937,0.018631,0.024435,1.2,39.42,-3.84
2.0431,-9.398,-1.4438,-0.029016,0.022907,0.025656,1.38,39.42,-3.9
2.0975,-9.4934,-1.3212,-0.0281,0.038179,0.019548,1.38,39.36,-3.84
2.0294,-9.5751,-1.3484,-0.025045,0.045815,0.024129,1.32,39.18,-3.9
2.0703,-9.507,-1.4438,-0.019548,0.040012,0.020769,1.32,39.18,-3.78
2.0294,-9.4253,-1.4029,-0.021075,0.045509,0.022297,1.14,39.24,-3.96
2.0431,-9.398,-1.3757,-0.012828,0.058948,0.019548,1.08,39.0,-4.08
2.0294,-9.3708,-1.3757,-0.0058032,0.05681,0.023518,1.08,38.88,-4.02
2.0431,-9.4253,-1.4301,-0.013744,0.051313,0.023824,1.02,38.88,-3.84
2.1112,-9.5479,-1.4029,-0.011301,0.048564,0.028711,1.02,38.7,-3.84
2.0703,-9.4117,-1.4029,0.000305,0.043677,0.03146,1.08,38.76,-3.78
1.9886,-9.507,-1.4165,-0.0058032,0.047037,0.029322,1.14,38.88,-3.9
2.1112,-9.5342,-1.3893,-0.0033598,0.03879,0.040317,1.08,38.94,-3.72
2.0839,-9.4389,-1.4165,-0.0015272,0.030849,0.036957,0.96,38.88,-3.72
2.1248,-9.4117,-1.3212,0.0054978,0.021991,0.035736,1.08,38.88,-3.84
2.0839,-9.4661,-1.3757,0.007025,0.01069,0.037568,1.2,38.88,-4.2
2.0567,-9.507,-1.3076,-0.0012217,0.023518,0.043371,1.2,38.88,-4.2
2.0839,-9.507,-1.3757,0.0015272,0.022602,0.041539,1.2,38.76,-4.2
2.152,-9.507,-1.3212,-0.0015272,0.026878,0.054367,1.32,38.82,-4.2
2.1656,-9.4798,-1.3757,-0.0048869,0.029322,0.047953,1.26,38.88,-4.32
2.2065,-9.4117,-1.3076,-0.0061087,0.026267,0.037263,1.26,38.94,-4.32
2.0703,-9.3844,-1.3076,-0.010079,0.028711,0.023518,1.44,39.18,-4.44
2.0839,-9.4389,-1.3348,-0.010996,0.04612,0.0030543,1.26,39.12,-4.56
2.1112,-9.616,-1.3212,-0.0088575,0.048564,0.0054978,1.14,39.12,-4.56
2.0839,-9.6023,-1.2803,-0.0097738,0.045204,-0.007025,1.26,39.06,-4.86
2.0567,-9.507,-1.2803,-0.0064141,0.051618,-0.0094684,1.2,39.06,-4.74
2.0567,-9.507,-1.2939,-0.012828,0.047037,-0.0030543,1.14,39.12,-4.74
2.0294,-9.5479,-1.3348,-0.018937,0.041539,0.0079412,1.14,39.3,-4.56
2.0703,-9.4798,-1.2667,-0.01741,0.029932,0.011606,1.14,39.36,-4.68
2.152,-9.5751,-1.4165,-0.016799,0.02138,0.010385,1.26,39.48,-4.44
2.1929,-9.4389,-1.3893,-0.016188,0.01069,0.011606,1.26,39.36,-4.38
2.2201,-9.4934,-1.3484,-0.013439,0.0067195,0.01405,1.26,39.36,-4.5
2.2337,-9.4117,-1.4029,-0.0082467,-0.0058032,0.014355,1.38,39.18,-4.44
2.261,-9.4253,-1.2939,-0.018937,-0.014661,0.020464,1.5,39.12,-4.32
2.3018,-9.398,-1.2803,-0.015272,-0.031765,0.0094684,1.5,39.12,-4.26
2.2746,-9.3436,-1.3757,-0.0058032,-0.03879,0.0067195,1.56,39.18,-4.38
2.3018,-9.4389,-1.3348,-0.0024435,-0.047953,0.0036652,1.38,39.06,-4.38
2.3427,-9.5615,-1.2531,0.000305,-0.075136,0.0030543,1.5,39.06,-4.44
2.3155,-9.5206,-1.3348,0.014966,-0.087048,-0.0015272,1.5,38.94,-4.44
2.3836,-9.6023,-1.3484,0.021991,-0.11026,0.0027489,1.68,39.0,-4.38
2.438,-9.6704,-1.4982,0.012217,-0.14722,0.011606,1.62,39.12,-4.56
2.4108,-9.5887,-1.4029,0.000916,-0.16157,0.007025,1.56,39.0,-4.5
2.3427,-9.5615,-1.4029,-0.0027489,-0.1741,0.0073304,1.56,39.06,-4.62
2.261,-9.507,-1.3348,-0.02474,-0.18906,-0.015272,1.56,39.12,-4.5
2.152,-9.5206,-1.3893,-0.031765,-0.18295,-0.035736,1.56,39.0,-4.62
2.1384,-9.5751,-1.4029,-0.026878,-0.18692,-0.039706,1.44,38.94,-4.68
2.0294,-9.507,-1.2803,-0.038179,-0.17471,-0.041844,1.38,38.88,-4.8
1.9886,-9.5615,-1.2531,-0.037263,-0.10996,-0.058032,1.38,38.88,-4.68
2.0022,-9.6568,-1.2258,-0.051007,-0.09499,-0.051618,1.5,38.88,-4.74
2.0703,-9.5206,-1.1713,-0.045204,-0.096517,-0.040012,1.44,38.82,-4.62
1.9886,-9.4798,-1.2258,-0.044288,-0.083078,-0.034514,1.38,38.88,-4.68
2.0567,-9.4661,-1.1986,-0.048564,-0.065668,-0.021991,1.2,38.76,-4.62
1.9886,-9.4117,-1.2122,-0.054672,-0.047647,-0.023824,1.26,38.64,-4.44
1.975,-9.4934,-1.1713,-0.048258,-0.048258,-0.016493,1.2,38.76,-4.32
2.0022,-9.5751,-1.1577,-0.048258,-0.051313,-0.0061087,1.08,38.7,-4.38
1.9477,-9.5751,-1.1169,-0.045204,-0.045204,-0.0064141,1.08,38.88,-4.56
1.8796,-9.5479,-1.1169,-0.05284,-0.014966,0.0018326,1.02,39.06,-4.56
1.866,-9.5751,-1.1305,-0.047037,0.013744,0.0061087,0.84,39.06,-4.5
1.9886,-9.5206,-1.2258,-0.04612,0.035125,0.0027489,0.84,39.0,-4.5
1.9341,-9.4525,-1.0896,-0.045204,0.047037,0.0024435,0.66,38.94,-4.5
1.8932,-9.5615,-1.2803,-0.048258,0.04612,0.0076358,0.6,39.06,-4.5
1.8932,-9.507,-1.2939,-0.046731,0.046731,0.024129,0.66,39.0,-4.5
1.8932,-9.507,-1.3484,-0.047037,0.064446,0.043066,0.6,39.06,-4.5
1.9613,-9.4389,-1.3076,-0.047037,0.064446,0.043066,0.6,39.12,-4.56
1.9886,-9.5479,-1.2803,-0.05681,0.092546,0.064446,0.6,39.18,-4.62
2.0839,-9.5887,-1.3484,-0.050702,0.068722,0.083078,0.54,39.36,-4.86
2.1248,-9.5479,-1.3757,-0.058032,0.047342,0.10201,0.54,39.24,-4.68
2.0975,-9.5751,-1.2939,-0.05681,0.036041,0.10934,0.6,39.18,-4.56
2.0975,-9.5206,-1.471,-0.068111,0.050091,0.1179,0.6,39.12,-4.56
2.0839,-9.4798,-1.471,-0.079718,0.076358,0.11026,0.72,39.12,-4.5
2.0975,-9.6296,-1.471,-0.083078,0.089492,0.10934,0.9,39.18,-4.38
2.1248,-9.4934,-1.471,-0.095295,0.1066,0.099266,0.78,39.24,-4.5
2.2065,-9.4934,-1.4029,-0.10049,0.10904,0.07422,0.78,39.18,-4.32
2.1112,-9.4389,-1.3484,-0.10415,0.12187,0.052534,0.78,39.36,-4.2
2.152,-9.398,-1.3212,-0.10965,0.12828,0.041844,0.78,39.24,-4.32
2.1112,-9.4117,-1.4029,-0.096517,0.135,0.025656,0.96,39.18,-4.38
2.0839,-9.4117,-1.2803,-0.10232,0.14264,0.013439,1.08,39.06,-4.08
2.1248,-9.4389,-1.2395,-0.083078,0.13561,0.0061087,1.08,39.0,-4.02
2.1248,-9.398,-1.2803,-0.085216,0.1295,0.016188,1.08,39.24,-4.14
2.0975,-9.2891,-1.2122,-0.068722,0.12523,0.011606,1.08,39.18,-4.14
2.0975,-9.2891,-1.2122,-0.062308,0.11545,0.010996,1.08,39.18,-4.14
2.1248,-9.3844,-1.2122,-0.054062,0.10324,0.012523,1.26,39.12,-4.08
2.152,-9.398,-1.2531,-0.038485,0.09896,0.024435,1.32,39.24,-4.02
2.1248,-9.4117,-1.3212,-0.030543,0.089492,0.014661,1.5,39.24,-4.02
2.1248,-9.4389,-1.3484,-0.019853,0.087659,0.019242,1.8,39.0,-3.96
2.1248,-9.4389,-1.3484,-0.02138,0.086743,0.021075,1.86,38.76,-3.84
2.1656,-9.4661,-1.4574,-0.01069,0.074526,0.022297,1.74,38.82,-3.72
2.1656,-9.5342,-1.4982,-0.0094684,0.058948,0.025962,1.68,38.76,-3.72
2.2201,-9.4525,-1.6072,-0.0045815,0.037263,0.038485,1.8,38.76,-3.72
2.2201,-9.4934,-1.5527,-0.010079,0.01405,0.037568,1.98,38.76,-3.72
2.2882,-9.4934,-1.5663,-0.0097738,0.0097738,0.031765,1.86,38.88,-3.66
2.261,-9.4389,-1.58,-0.016493,0.0082467,0.026878,1.98,38.7,-3.6
2.261,-9.5615,-1.5255,-0.028711,-0.015272,0.024435,1.92,38.58,-3.72
2.3563,-9.4934,-1.5663,-0.03146,-0.035125,0.019242,2.16,38.76,-3.78
2.261,-9.4389,-1.4846,-0.030238,-0.044899,0.018631,1.92,38.7,-3.78
2.2746,-9.3844,-1.4438,-0.021686,-0.048869,0.014661,2.1,38.7,-3.72
2.2746,-9.4117,-1.3484,-0.031765,-0.070555,0.0058032,2.16,38.76,-3.78
2.261,-9.4798,-1.3076,-0.032376,-0.083383,-0.0064141,2.16,38.7,-3.78
2.1384,-9.4117,-1.3484,-0.028711,-0.092546,-0.0097738,2.1,38.76,-3.78
2.1248,-9.4389,-1.2803,-0.023518,-0.084605,-0.022907,2.1,38.76,-3.9
2.1384,-9.507,-1.2531,-0.021075,-0.063835,-0.026267,1.98,38.88,-3.96
2.1384,-9.4798,-1.2258,-0.015882,-0.055894,-0.036652,1.92,38.82,-3.84
2.152,-9.4389,-1.2667,-0.0018326,-0.081856,-0.036041,1.86,38.76,-3.78
2.152,-9.4389,-1.3484,0.0036652,-0.087659,-0.032376,1.8,38.76,-3.78
2.0567,-9.5206,-1.2531,0.0058032,-0.084299,-0.019853,1.8,38.76,-3.9
2.0294,-9.507,-1.2531,0.0012217,-0.074526,-0.020159,1.74,38.82,-3.9
2.0567,-9.4798,-1.3484,-0.000916,-0.063835,-0.0064141,1.8,38.82,-3.96
2.0703,-9.4798,-1.362,0.0045815,-0.05681,-0.0030543,1.62,38.94,-4.08
1.9886,-9.4661,-1.4165,0.0097738,-0.049786,-0.0039706,1.56,39.06,-4.02
2.0839,-9.507,-1.4438,0.0018326,-0.050702,0.0027489,1.44,39.06,-3.96
2.0567,-9.4253,-1.4165,0.0012217,-0.045815,0.0012217,1.44,39.0,-4.02
2.0839,-9.507,-1.4165,-0.0054978,-0.043066,0.0097738,1.38,39.06,-3.9
2.0431,-9.6023,-1.4029,-0.0085521,-0.03879,0.019853,1.32,39.12,-3.96
2.0703,-9.5479,-1.3893,-0.014661,-0.036957,0.020769,1.38,39.12,-4.02
2.0294,-9.4934,-1.3757,-0.020464,-0.039401,0.029322,1.32,39.3,-4.2
2.152,-9.5479,-1.3212,-0.021991,-0.040317,0.028405,1.2,39.3,-4.26
2.0703,-9.507,-1.3484,-0.022297,-0.044593,0.038179,1.02,39.36,-4.2
2.0975,-9.4934,-1.362,-0.025351,-0.038485,0.024435,1.02,39.42,-4.08
2.0839,-9.4661,-1.3212,-0.023824,-0.041233,0.028405,1.02,39.36,-4.14
2.0975,-9.507,-1.3212,-0.023824,-0.038179,0.023824,1.14,39.3,-4.14
2.152,-9.5479,-1.3076,-0.029016,-0.040623,0.035736,1.08,39.3,-4.02
2.0839,-9.4934,-1.2258,-0.026878,-0.032376,0.029627,1.2,39.24,-4.08
2.1248,-9.4798,-1.2395,-0.031154,-0.033598,0.028711,1.14,39.18,-4.02
2.152,-9.5206,-1.2939,-0.028711,-0.025045,0.02138,1.26,39.18,-4.08
2.1384,-9.507,-1.2803,-0.038485,-0.021075,0.027489,1.2,39.3,-4.08
2.152,-9.507,-1.2258,-0.033598,-0.010996,0.026267,1.14,39.3,-3.96
2.0158,-9.4525,-1.2939,-0.040317,-0.0088575,0.030238,1.26,39.24,-3.96
2.0567,-9.4934,-1.1986,-0.035736,-0.0039706,0.033598,1.38,39.3,-4.02
2.0431,-9.4661,-1.3212,-0.048258,0.0012217,0.028405,1.44,39.24,-4.02
2.0294,-9.4798,-1.3212,-0.038179,0.012217,0.021686,1.5,39.18,-4.08
2.0567,-9.5479,-1.2531,-0.045204,0.021991,0.017715,1.44,39.18,-4.08
1.9886,-9.4661,-1.3757,-0.042455,0.028405,0.015577,1.44,39.24,-4.14
2.0294,-9.5342,-1.3212,-0.049175,0.037874,0.022297,1.38,39.18,-4.26
2.0158,-9.5206,-1.3212,-0.040317,0.047647,0.027489,1.2,39.24,-4.38
2.0567,-9.4525,-1.3484,-0.040928,0.055283,0.027489,1.26,39.06,-4.38
2.0431,-9.3844,-1.3893,-0.042761,0.058032,0.029016,1.14,39.12,-4.32
2.0567,-9.4661,-1.3484,-0.042761,0.06017,0.026878,1.32,39.0,-4.32
2.1112,-9.5479,-1.3757,-0.043371,0.053145,0.020159,1.44,39.0,-4.38
2.152,-9.5751,-1.2939,-0.04215,0.043371,0.030849,1.32,38.88,-4.08
2.152,-9.4661,-1.2667,-0.045204,0.036957,0.036041,1.32,38.94,-4.14
2.1248,-9.4117,-1.3484,-0.034819,0.035736,0.030543,1.32,38.88,-4.08
2.0703,-9.4389,-1.3212,-0.044899,0.035125,0.030849,1.32,38.88,-4.2
2.1248,-9.4525,-1.3484,-0.041539,0.027794,0.018631,1.38,38.7,-4.08
2.1112,-9.4525,-1.2939,-0.04215,0.011301,0.015882,1.32,38.64,-3.96
2.0975,-9.4253,-1.3212,-0.03543,0.011912,0.014661,1.38,38.7,-3.84
2.0839,-9.4253,-1.3076,-0.042761,0.027794,0.011301,1.56,38.64,-3.84
2.0975,-9.507,-1.3212,-0.040928,0.034514,0.014355,1.62,38.76,-3.78
2.0567,-9.4525,-1.3484,-0.037568,0.032987,0.010079,1.56,38.64,-3.66
2.0703,-9.4798,-1.2803,-0.036957,0.03146,0.007025,1.32,38.52,-3.78
2.0294,-9.4934,-1.2395,-0.030543,0.035125,0.0033598,1.32,38.52,-3.84
1.9886,-9.5615,-1.185,-0.023824,0.050702,0.013134,1.26,38.64,-3.84
1.9886,-9.507,-1.2258,-0.027489,0.054062,0.01741,1.26,38.64,-3.84
2.0022,-9.507,-1.2939,-0.018631,0.055283,0.019548,1.2,38.64,-3.78
2.0431,-9.3844,-1.4029,-0.0061087,0.052534,0.039401,1.26,38.7,-3.96
2.1112,-9.4389,-1.3484,-0.010996,0.054062,0.044593,1.2,38.7,-3.84
2.152,-9.4117,-1.3484,-0.0064141,0.043982,0.059865,1.26,38.88,-3.96
2.2882,-9.4253,-1.3484,-0.0048869,0.025351,0.062308,1.26,38.82,-4.2
2.2746,-9.4798,-1.3484,-0.0088575,-0.000611,0.063225,1.14,38.82,-4.02
2.2201,-9.507,-1.4029,-0.012523,-0.010079,0.063225,1.26,38.88,-4.08
2.2882,-9.4798,-1.3757,-0.010079,-0.018326,0.0562,1.2,38.94,-4.26
2.2201,-9.4934,-1.362,-0.015272,-0.019853,0.034819,1.44,38.94,-4.2
2.2201,-9.4661,-1.3212,-0.01741,-0.035736,0.017104,1.56,38.94,-4.2
2.261,-9.5479,-1.4165,-0.020159,-0.046731,0.0058032,1.62,38.88,-4.32
2.1112,-9.6023,-1.3484,-0.017104,-0.060781,0.000611,1.74,38.7,-4.38
1.9886,-9.5479,-1.3757,-0.019242,-0.04612,-0.0036652,1.68,38.64,-4.38
2.0567,-9.507,-1.3348,-0.029627,-0.03207,0.002138,1.74,38.52,-4.5
2.0975,-9.5479,-1.362,-0.019853,-0.026878,0.013439,1.86,38.4,-4.44
2.0567,-9.5479,-1.3212,-0.022602,-0.026878,0.020769,1.86,38.46,-4.44
2.0294,-9.507,-1.2667,-0.021686,-0.032681,0.021686,1.86,38.46,-4.32
2.0703,-9.4798,-1.3212,-0.020769,-0.026267,0.0281,1.92,38.46,-4.62
2.0839,-9.5479,-1.2803,-0.029627,-0.03543,0.027489,1.8,38.52,-4.5
2.0431,-9.5479,-1.2667,-0.026267,-0.037263,0.023213,1.86,38.52,-4.44
2.152,-9.4934,-1.3212,-0.029322,-0.037874,0.022907,1.8,38.46,-4.38
2.1112,-9.5479,-1.2531,-0.026573,-0.044593,0.027489,1.98,38.52,-4.38
2.0567,-9.5751,-1.2667,-0.020464,-0.051924,0.020769,1.8,38.58,-4.32
2.0839,-9.507,-1.3076,-0.018937,-0.056505,0.017715,1.8,38.7,-4.5
2.0431,-9.507,-1.2667,-0.014355,-0.068111,0.022907,1.92,38.7,-4.44
2.0567,-9.5479,-1.2258,-0.020769,-0.073304,0.014355,1.92,38.82,-4.38
2.0294,-9.4934,-1.2803,-0.016493,-0.067806,0.02138,1.8,38.82,-4.5
1.9886,-9.5342,-1.3076,-0.018937,-0.065057,0.025045,1.8,38.82,-4.44
1.9886,-9.5206,-1.2531,-0.015272,-0.061697,0.020464,1.74,38.88,-4.5
1.9613,-9.5206,-1.2939,-0.026267,-0.058032,0.020464,1.68,39.0,-4.44
1.8932,-9.5751,-1.185,-0.018937,-0.041233,0.021686,1.74,38.88,-4.62
1.9613,-9.5751,-1.2258,-0.022297,-0.03879,0.020159,1.62,38.88,-4.62
1.9886,-9.5342,-1.2395,-0.026573,-0.038485,0.042455,1.68,38.82,-4.68
1.9341,-9.5206,-1.3484,-0.032681,-0.018631,0.043066,1.62,39.0,-4.62
1.9613,-9.507,-1.3484,-0.034208,0.0067195,0.04612,1.68,38.94,-4.68
1.975,-9.4525,-1.362,-0.030543,0.020769,0.036041,1.68,38.94,-4.62
2.0294,-9.4934,-1.2803,-0.050702,0.022602,0.029322,1.62,38.94,-4.62
2.0294,-9.4798,-1.3348,-0.043677,0.016493,0.023824,1.68,38.94,-4.56
1.9886,-9.507,-1.3076,-0.043982,0.021686,0.021991,1.68,38.7,-4.5
1.9341,-9.4798,-1.2258,-0.049175,0.032376,0.021075,1.68,38.88,-4.62
1.9886,-9.5751,-1.185,-0.050091,0.048869,0.019853,1.56,38.7,-4.62
1.9886,-9.4253,-1.2531,-0.038179,0.050396,0.016799,1.68,38.7,-4.62
2.0294,-9.507,-1.3212,-0.050702,0.054672,0.011606,1.8,38.64,-4.62
1.9886,-9.4525,-1.2939,-0.035736,0.044288,0.017715,1.8,38.64,-4.56
1.9886,-9.4253,-1.2803,-0.041233,0.045204,0.020464,1.74,38.7,-4.56
2.0158,-9.507,-1.2803,-0.03879,0.022602,0.032681,1.8,38.52,-4.5
1.9886,-9.4798,-1.2531,-0.035736,0.020159,0.041539,1.74,38.52,-4.5
1.9613,-9.5342,-1.2395,-0.029627,0.012217,0.040623,1.56,38.58,-4.5
1.9613,-9.6296,-1.3212,-0.036957,0.014966,0.033598,1.5,38.58,-4.44
1.9068,-9.5615,-1.2667,-0.033598,0.016188,0.03543,1.62,38.64,-4.44
1.9613,-9.5751,-1.3348,-0.036652,0.033598,0.020769,1.44,38.64,-4.44
1.9477,-9.616,-1.3212,-0.051924,0.055589,0.022907,1.56,38.58,-4.44
1.9341,-9.6023,-1.2803,-0.045204,0.055589,0.021075,1.74,38.7,-4.38
1.8251,-9.6023,-1.3212,-0.058643,0.059865,0.019242,1.8,38.64,-4.44
1.8524,-9.5751,-1.185,-0.054672,0.064752,0.024435,1.74,38.64,-4.38
1.8387,-9.4798,-1.4029,-0.051007,0.078802,0.030849,1.86,38.64,-4.44
1.8932,-9.507,-1.2667,-0.057421,0.095295,0.036346,1.86,38.64,-4.44
1.866,-9.507,-1.2803,-0.055283,0.089186,0.041233,1.98,38.76,-4.56
1.9613,-9.5615,-1.3348,-0.048869,0.088575,0.039095,2.22,38.7,-4.5
2.0158,-9.5342,-1.2803,-0.054367,0.087965,0.043982,2.34,38.76,-4.44
2.0975,-9.4934,-1.3484,-0.065057,0.093157,0.039706,2.52,38.7,-4.44
2.1248,-9.507,-1.185,-0.066279,0.095295,0.023518,2.4,38.82,-4.38
2.0975,-9.4798,-1.2803,-0.061697,0.092546,0.020464,2.58,38.82,-4.26
2.0703,-9.507,-1.2667,-0.055589,0.083994,0.018937,2.46,38.82,-4.32
2.152,-9.507,-1.1986,-0.050091,0.057116,0.012523,2.58,38.82,-4.38
2.0567,-9.5206,-1.2531,-0.039401,0.041539,0.011301,2.46,38.82,-4.32
2.0294,-9.5206,-1.362,-0.041844,0.0281,0.018021,2.46,38.88,-4.44
2.0022,-9.4389,-1.4438,-0.040317,0.025351,0.021991,2.52,38.88,-4.5
2.0294,-9.4661,-1.4438,-0.050702,0.0082467,0.019853,2.4,38.88,-4.44
1.9613,-9.4798,-1.3757,-0.055283,0.0042761,0.0061087,2.28,39.0,-4.5
1.8932,-9.4798,-1.362,-0.050091,0.012828,0.0024435,2.04,39.12,-4.5
1.8932,-9.5751,-1.3757,-0.053145,0.01741,0.0048869,2.1,39.12,-4.56
1.8932,-9.616,-1.2531,-0.047647,0.027184,0.0051924,2.22,39.24,-4.68
1.8796,-9.5342,-1.3348,-0.048869,0.019242,0.0094684,2.22,39.18,-4.74
1.866,-9.4798,-1.2803,-0.045509,0.034819,0.022297,2.28,39.06,-4.68
1.7979,-9.4389,-1.2258,-0.041844,0.072998,0.024129,2.34,39.12,-4.86
1.9341,-9.4798,-1.3212,-0.033598,0.085521,0.020769,2.28,39.12,-4.8
1.9886,-9.4798,-1.362,-0.037874,0.064752,0.026878,2.16,39.12,-4.74
2.0022,-9.5206,-1.3212,-0.032681,0.050091,0.018021,2.22,39.06,-4.68
2.1248,-9.507,-1.3484,-0.029016,0.040928,0.021991,2.34,39.0,-4.62
2.0975,-9.5479,-1.3484,-0.027184,0.044593,0.022907,2.16,39.06,-4.56
2.1384,-9.5206,-1.362,-0.032987,0.033903,0.0079412,2.28,38.94,-4.62
2.152,-9.4798,-1.2803,-0.031154,0.01741,0.010996,2.28,38.76,-4.56
2.1248,-9.4661,-1.2531,-0.036041,0.0033598,-0.0012217,2.28,38.7,-4.5
2.0567,-9.4389,-1.2531,-0.034819,0.000305,-0.011606,2.22,38.64,-4.44
2.0294,-9.507,-1.2803,-0.030238,0.0018326,-0.011606,1.86,38.7,-4.08
2.0022,-9.5206,-1.2258,-0.032681,-0.0088575,-0.000916,1.74,38.82,-4.26
1.975,-9.507,-1.2531,-0.026267,-0.007025,0.0073304,1.74,38.88,-4.26
2.0294,-9.4389,-1.3348,-0.02474,-0.0024435,0.0054978,1.74,38.76,-4.2
1.9205,-9.5479,-1.2939,-0.022602,-0.0067195,0.01069,1.74,38.82,-4.2
1.9886,-9.507,-1.2939,-0.022907,-0.0067195,0.0088575,1.74,38.88,-3.96
2.0022,-9.5479,-1.3076,-0.021075,-0.0027489,0.009163,1.68,39.0,-4.08
2.0294,-9.5479,-1.362,-0.024435,0.0030543,0.010996,1.68,38.94,-4.08
1.9886,-9.5479,-1.3212,-0.025351,-0.000305,0.014966,1.62,39.06,-3.9
2.0567,-9.5479,-1.362,-0.020159,-0.013439,0.01405,1.74,39.18,-4.08
2.0975,-9.4934,-1.2939,-0.029932,-0.021075,0.020464,1.74,39.18,-4.14
2.1112,-9.507,-1.3076,-0.032681,-0.023213,0.015882,1.74,39.3,-4.02
2.1248,-9.5206,-1.3076,-0.026267,-0.04215,0.020159,1.92,39.06,-4.08
2.1929,-9.5887,-1.3348,-0.034514,-0.051007,0.0079412,2.1,38.88,-4.02
2.0839,-9.5751,-1.3757,-0.040317,-0.048258,0.015882,2.1,38.88,-3.9
2.0703,-9.4934,-1.2395,-0.040928,-0.051007,0.01069,2.16,38.94,-3.96
2.0158,-9.4661,-1.2803,-0.040012,-0.055283,-0.000305,2.16,38.88,-4.02
1.9886,-9.4934,-1.2258,-0.03207,-0.062003,-0.0027489,2.22,38.88,-4.02
2.0022,-9.5615,-1.185,-0.0281,-0.062919,0.0054978,2.22,38.7,-4.08
1.9886,-9.6023,-1.2395,-0.033903,-0.049175,0.024435,2.22,38.76,-4.08
1.9613,-9.616,-1.3076,-0.038179,-0.036652,0.026267,2.16,38.7,-4.08
1.9205,-9.5206,-1.2395,-0.036957,-0.010385,0.029627,2.04,38.7,-3.96
1.9205,-9.5479,-1.2531,-0.042761,-0.0015272,0.019853,2.04,38.58,-3.9
1.975,-9.5751,-1.1986,-0.036652,-0.0051924,0.0088575,2.04,38.4,-4.02
2.0294,-9.5342,-1.2258,-0.041233,-0.0051924,0.011301,2.04,38.58,-4.26
1.975,-9.4934,-1.2939,-0.047037,-0.010996,0.02138,1.98,38.52,-4.32
1.9886,-9.5206,-1.3484,-0.042455,-0.0036652,0.018631,1.86,38.58,-4.26
1.8387,-9.4661,-1.362,-0.046426,0.013439,0.019853,2.04,38.64,-4.44
1.9341,-9.5342,-1.2258,-0.051007,0.037874,0.012217,1.98,38.7,-4.44
1.9477,-9.5615,-1.185,-0.047037,0.033903,0.030543,1.92,38.7,-4.56
1.9613,-9.5479,-1.2122,-0.035736,0.035125,0.028711,1.92,38.7,-4.56
2.0158,-9.4934,-1.2395,-0.031765,0.043066,0.033598,1.98,38.76,-4.56
2.0294,-9.507,-1.2531,-0.030849,0.040928,0.032376,1.98,38.76,-4.56
2.0839,-9.507,-1.2939,-0.029322,0.029016,0.029627,1.74,38.88,-4.5
2.1248,-9.4661,-1.3348,-0.033292,0.024129,0.018937,1.8,39.12,-4.56
2.0839,-9.507,-1.2531,-0.038179,0.037874,0.015577,1.8,39.12,-4.56
2.0158,-9.5206,-1.2667,-0.041539,0.038179,0.0082467,1.8,39.0,-4.44
2.0567,-9.507,-1.2395,-0.048258,0.036041,0.0018326,1.92,39.12,-4.38
2.0567,-9.5206,-1.3076,-0.047953,0.029932,-0.0036652,1.86,39.18,-4.5
2.0022,-9.4934,-1.2939,-0.04215,0.028405,-0.000305,1.8,39.18,-4.38
1.9477,-9.4253,-1.2395,-0.04948,0.03207,0.0064141,1.86,39.12,-4.26
2.0022,-9.507,-1.2531,-0.034208,0.030849,0.007025,2.04,39.06,-4.32
2.0294,-9.4798,-1.3484,-0.035125,0.023213,0.014355,2.04,39.18,-4.2
2.0839,-9.5479,-1.2258,-0.026573,0.0073304,0.016493,2.16,39.0,-4.26
2.0703,-9.5342,-1.3212,-0.031765,0.0030543,0.017104,2.22,38.88,-4.26
2.1248,-9.4798,-1.3076,-0.029016,0.0039706,0.01405,2.4,38.7,-4.32
2.0975,-9.4798,-1.3076,-0.032376,-0.0061087,0.010996,2.4,38.7,-4.38
2.1112,-9.5342,-1.3212,-0.032987,-0.0048869,0.01405,2.22,38.82,-4.44
2.0567,-9.4798,-1.3212,-0.028405,-0.014966,0.0067195,2.22,39.0,-4.32
2.0431,-9.5206,-1.3212,-0.034819,-0.014355,0.0094684,2.1,38.94,-4.44
2.0703,-9.5751,-1.2939,-0.03146,-0.020769,0.0045815,2.16,38.88,-4.32
2.0703,-9.5479,-1.2803,-0.032376,-0.021075,0.010385,2.16,38.76,-4.32
2.0294,-9.5206,-1.2122,-0.034819,-0.017715,0.0018326,2.22,38.88,-4.44
1.9477,-9.5206,-1.2258,-0.033903,-0.0018326,-0.000305,1.98,39.0,-4.44
2.0294,-9.507,-1.2258,-0.034514,0.0048869,0.012217,1.92,39.06,-4.62
1.9886,-9.5342,-1.3076,-0.027184,0.0018326,0.016799,1.86,39.18,-4.56
1.9613,-9.5206,-1.3212,-0.028711,0.0036652,0.021075,1.8,39.12,-4.62
2.0294,-9.5751,-1.2803,-0.028405,-0.0045815,0.019242,1.86,39.12,-4.44
2.0703,-9.507,-1.3484,-0.033903,0.000611,0.022297,1.98,39.06,-4.2
2.0839,-9.5751,-1.2939,-0.045204,0.0073304,0.013744,2.1,38.88,-4.38
2.0294,-9.5751,-1.3212,-0.043677,0.0061087,0.0058032,2.1,38.88,-4.38
2.0294,-9.5615,-1.3212,-0.05284,0.0097738,0.0051924,2.16,38.94,-4.38
2.0703,-9.5342,-1.3212,-0.044288,0.0079412,0.007025,2.16,38.94,-4.38
2.0567,-9.507,-1.2803,-0.042761,0.007025,0.0079412,2.22,38.88,-4.38
1.9886,-9.4934,-1.2939,-0.042455,0.0027489,0.0097738,2.28,38.82,-4.5
2.0839,-9.4798,-1.2395,-0.042761,0.0030543,0.020159,2.28,38.88,-4.32
2.0839,-9.4798,-1.2395,-0.043066,0.000611,0.013134,2.4,38.88,-4.14
2.0158,-9.4525,-1.2667,-0.040928,-0.0027489,0.009163,2.22,38.88,-4.26
2.0022,-9.4934,-1.2803,-0.044899,0.0076358,0.009163,2.22,39.0,-4.2
2.0431,-9.4798,-1.2939,-0.036957,0.016493,0.0051924,2.22,39.06,-4.38
2.0294,-9.6023,-1.3484,-0.029322,0.020159,0.0088575,2.28,39.12,-4.38
2.0431,-9.5751,-1.3212,-0.035125,0.023518,0.025656,2.28,39.18,-4.2
1.975,-9.5479,-1.3484,-0.0281,0.035125,0.022907,2.4,39.12,-4.2
2.0567,-9.4934,-1.4846,-0.033903,0.050702,0.01741,2.46,39.18,-4.26
2.0839,-9.4798,-1.4301,-0.041539,0.040623,0.011301,2.46,39.06,-4.2
2.1112,-9.4798,-1.3893,-0.043371,0.044899,0.0088575,2.34,39.06,-4.14
2.1248,-9.507,-1.2803,-0.039706,0.059254,0.0067195,2.28,38.94,-4.08
2.1793,-9.4798,-1.2531,-0.041844,0.0562,0.0097738,2.4,38.94,-4.2
2.1929,-9.4798,-1.2803,-0.036041,0.034819,0.0033598,2.28,38.94,-4.2
2.1384,-9.4117,-1.1986,-0.023824,0.0064141,0.0018326,2.58,38.82,-4.08
2.1384,-9.398,-1.3212,-0.021686,-0.03207,0.0015272,2.46,38.76,-4.08
2.0839,-9.3844,-1.2531,-0.018021,-0.03879,0.0085521,2.52,38.76,-4.02
2.0431,-9.5342,-1.3076,-0.021991,-0.04948,0.015882,2.34,38.82,-3.96
2.0839,-9.4934,-1.3348,-0.021075,-0.046731,0.027794,2.4,38.82,-3.96
2.0294,-9.4661,-1.3212,-0.029932,-0.047953,0.022602,2.34,38.88,-3.9
2.0567,-9.5615,-1.2531,-0.018937,-0.048258,0.022602,2.34,38.76,-3.9
2.1248,-9.5479,-1.3212,-0.026878,-0.053145,0.010996,2.34,38.76,-3.96
2.0294,-9.5887,-1.1713,-0.022907,-0.054367,0.0054978,2.16,39.12,-3.78
1.9205,-9.4934,-1.3212,-0.018021,-0.062308,0.000916,2.04,39.12,-3.72
1.9068,-9.4389,-1.3212,-0.021686,-0.048258,0.0039706,1.92,39.06,-3.84
1.9613,-9.4525,-1.362,-0.028405,-0.024129,0.014355,1.8,39.12,-3.84
2.0567,-9.507,-1.3484,-0.029932,-0.0033598,0.017715,1.74,39.3,-3.78
2.0567,-9.5479,-1.3348,-0.040928,0.0030543,0.024435,1.86,39.24,-3.72
2.1248,-9.5751,-1.3212,-0.041233,0.0018326,0.018631,1.86,39.12,-3.72
2.1384,-9.5615,-1.2395,-0.042455,0.0076358,0.012828,1.8,39.3,-3.66
2.1384,-9.4525,-1.2803,-0.040623,0.0097738,0.0036652,1.56,39.24,-3.72
2.1248,-9.4798,-1.3076,-0.024129,-0.0015272,-0.014355,1.56,39.18,-3.72
2.1384,-9.4661,-1.2531,-0.034514,-0.021991,-0.0082467,1.56,39.3,-3.66
2.0975,-9.4934,-1.3348,-0.03146,-0.046426,-0.0033598,1.56,39.24,-3.9
2.0975,-9.4253,-1.4029,-0.035125,-0.04612,-0.0042761,1.62,39.12,-3.96
2.1112,-9.4798,-1.3757,-0.033903,-0.03879,-0.000305,1.8,39.12,-3.9
2.1248,-9.4661,-1.3757,-0.039401,-0.03146,-0.0076358,1.86,39.24,-3.84
2.1248,-9.5479,-1.2667,-0.045815,-0.029322,-0.0076358,1.86,39.18,-3.78
2.1248,-9.4934,-1.2667,-0.040928,-0.029932,-0.0024435,1.98,39.06,-3.84
2.0703,-9.4798,-1.2531,-0.04215,-0.040317,-0.012828,1.86,39.12,-3.9
2.0703,-9.4798,-1.2258,-0.04612,-0.03543,-0.0085521,1.8,39.3,-3.96
1.9886,-9.4798,-1.2122,-0.041844,-0.026573,-0.01069,1.92,39.12,-3.96
1.9613,-9.5615,-1.1713,-0.035125,-0.019548,-0.0039706,1.92,39.12,-4.02
2.0431,-9.5342,-1.2258,-0.037263,-0.014355,0.0015272,1.92,39.18,-4.02
2.0431,-9.5342,-1.2531,-0.037568,-0.021075,0.0082467,1.92,39.18,-4.02
1.9341,-9.5479,-1.2395,-0.025656,-0.0036652,0.01405,1.86,39.12,-3.9
1.9613,-9.5479,-1.2258,-0.041233,0.013744,0.009163,1.86,39.18,-3.84
1.9613,-9.5887,-1.2531,-0.036346,0.024435,0.014355,1.8,39.12,-3.84
1.9886,-9.5887,-1.3212,-0.04215,0.018631,0.026878,1.8,38.94,-3.72
1.9341,-9.6704,-1.362,-0.035125,0.03146,0.032681,1.68,38.94,-3.72
1.975,-9.6296,-1.3757,-0.040928,0.043677,0.03879,1.62,39.0,-3.9
1.9613,-9.5479,-1.4165,-0.048869,0.046426,0.038179,1.62,39.0,-3.78
1.8524,-9.5751,-1.4165,-0.060476,0.048258,0.034208,1.74,38.82,-3.96
1.9341,-9.616,-1.3348,-0.067501,0.054367,0.040317,1.68,38.88,-3.96
1.8387,-9.6704,-1.4301,-0.062003,0.063835,0.037874,1.68,38.82,-3.96
1.8932,-9.6841,-1.3757,-0.073915,0.10537,0.054367,1.68,38.82,-4.02
1.9477,-9.7385,-1.3484,-0.072388,0.11301,0.062919,1.56,38.64,-4.02
1.8932,-9.7385,-1.4165,-0.076969,0.10751,0.080023,1.74,38.58,-3.9
1.8932,-9.6432,-1.4301,-0.073915,0.082772,0.10385,1.8,38.64,-3.9
1.8387,-9.507,-1.3757,-0.070555,0.071166,0.11912,1.68,38.64,-4.02
1.7025,-9.4525,-1.2122,-0.064141,0.095295,0.11881,1.62,38.7,-4.14
1.7434,-9.4389,-1.1169,-0.062614,0.1182,0.12095,1.62,38.76,-4.14
1.7979,-9.4253,-1.1713,-0.062614,0.13164,0.12798,1.56,38.58,-3.96
1.7298,-9.507,-1.185,-0.063835,0.14752,0.12278,1.5,38.46,-4.02
1.757,-9.4389,-1.2258,-0.072082,0.16982,0.11606,1.5,38.58,-3.96
1.7706,-9.5479,-1.1577,-0.077274,0.18479,0.11973,1.32,38.4,-3.96
1.7434,-9.6023,-1.1032,-0.069944,0.24465,0.12309,1.32,38.4,-3.9
1.7434,-9.5206,-1.1169,-0.067501,0.28986,0.11912,1.26,38.46,-3.72
1.7979,-9.5751,-1.076,-0.053451,0.3146,0.11912,1.2,38.58,-3.66
1.866,-9.398,-1.1577,-0.050091,0.31185,0.12278,0.84,38.64,-3.6
1.8251,-9.3844,-1.2803,-0.038485,0.27428,0.12156,0.78,38.64,-3.66
1.757,-9.3436,-1.3076,-0.032376,0.26267,0.12675,0.84,38.7,-3.66
1.7706,-9.4525,-1.4165,-0.031154,0.25045,0.13225,0.72,38.76,-3.6
1.7025,-9.4389,-1.4301,-0.034819,0.27764,0.14844,0.66,38.82,-3.78
1.6617,-9.3436,-1.471,-0.040928,0.30268,0.15944,0.54,39.0,-3.6
1.6753,-9.4389,-1.5391,-0.043371,0.31948,0.14661,0.48,39.12,-3.54
1.7434,-9.4934,-1.4165,-0.045204,0.35064,0.14355,0.48,39.18,-3.42
1.7979,-9.5751,-1.5527,-0.045815,0.39431,0.11698,0.54,39.54,-3.36
1.8932,-9.5479,-1.4574,-0.055283,0.4105,0.1011,0.48,39.54,-3.3
1.9341,-9.5342,-1.4574,-0.055283,0.42486,0.06689,0.42,39.54,-3.42
2.0703,-9.4798,-1.3484,-0.061392,0.42241,0.043371,0.36,39.66,-3.42
2.1248,-9.398,-1.4029,-0.060781,0.40684,0.020159,0.54,39.66,-3.36
2.0839,-9.3844,-1.2531,-0.05681,0.3656,0.0048869,0.6,39.66,-3.3
2.0022,-9.4117,-1.3076,-0.049175,0.30452,0.016188,0.72,39.78,-3.18
1.9205,-9.4253,-1.362,-0.050702,0.31826,0.027184,0.9,39.78,-3.0
2.0022,-9.4117,-1.3484,-0.049175,0.354,0.045509,1.02,39.72,-2.88
2.1929,-9.4798,-1.4165,-0.050702,0.32681,0.053145,1.32,39.72,-2.88
2.2882,-9.4934,-1.4846,-0.040623,0.29352,0.059559,1.56,39.6,-2.82
2.2337,-9.4661,-1.5527,-0.036957,0.25443,0.063835,1.62,39.42,-2.88
2.2882,-9.4798,-1.5936,-0.040012,0.22541,0.04612,1.74,39.24,-3.0
2.3018,-9.5751,-1.5391,-0.051618,0.20311,0.023824,1.92,39.24,-3.0
2.2065,-9.5615,-1.6617,-0.060476,0.20922,-0.0076358,2.46,39.3,-2.88
2.2337,-9.5479,-1.6753,-0.082161,0.21319,-0.050091,2.58,39.3,-2.94
2.2474,-9.6432,-1.7025,-0.09896,0.22419,-0.093157,2.64,39.3,-2.88
2.152,-9.5615,-1.6753,-0.12431,0.1857,-0.13256,2.88,39.3,-2.7
2.0567,-9.6023,-1.6208,-0.13439,0.16463,-0.13714,2.82,39.3,-2.64
1.9205,-9.616,-1.4982,-0.14142,0.15944,-0.14783,2.94,39.12,-2.7
1.8251,-9.4798,-1.2667,-0.13836,0.15974,-0.14233,3.12,39.24,-2.64
1.7843,-9.4389,-1.2803,-0.1179,0.13744,-0.1347,3.12,39.3,-2.52
1.7706,-9.3844,-1.2122,-0.1237,0.13286,-0.12248,3.18,39.3,-2.46
1.7298,-9.4798,-1.1577,-0.11484,0.135,-0.093462,3.24,39.48,-2.4
1.7298,-9.507,-1.1169,-0.098044,0.11606,-0.046731,3.42,39.54,-2.34
1.7706,-9.6023,-1.0896,-0.090103,0.10904,-0.035736,3.42,39.6,-2.16
1.5527,-9.6023,-1.0624,-0.081245,0.13531,0.018937,3.54,39.54,-1.92
1.5663,-9.5342,-1.0488,-0.069333,0.15058,0.029627,3.48,39.48,-1.68
1.6344,-9.4117,-1.1577,-0.068722,0.19395,0.040928,3.48,39.48,-1.56
1.7843,-9.2891,-1.0488,-0.071166,0.22174,0.044593,3.66,39.3,-1.5
2.0022,-9.2618,-0.9398,-0.092852,0.23335,0.090713,3.48,39.3,-1.2
2.152,-9.4934,-0.8036,-0.095906,0.16768,0.10721,3.42,39.24,-1.14
2.1384,-9.5615,-0.8717,-0.098349,0.11545,0.11698,3.3,39.24,-1.38
2.0158,-9.5479,-0.7355,-0.096822,0.13561,0.1405,3.36,38.94,-1.32
2.0703,-9.7794,-0.58567,-0.097128,0.16341,0.16249,3.48,38.94,-1.32
2.1793,-9.9565,-0.51757,-0.083383,0.18234,0.19059,3.36,38.94,-1.32
2.1929,-10.052,-0.50395,-0.077885,0.20464,0.20831,3.42,39.0,-1.32
2.2746,-10.052,-0.47671,-0.045509,0.21472,0.21655,3.54,39.24,-1.26
2.2882,-10.052,-0.58567,-0.016493,0.20036,0.20433,3.54,39.12,-1.14
2.3699,-9.902,-0.61292,0.007025,0.17623,0.19609,3.72,39.0,-1.14
2.4244,-9.7522,-0.57205,0.018326,0.16066,0.19303,4.08,39.06,-0.96
2.3836,-9.6432,-0.6674,0.026573,0.15577,0.18021,4.14,39.06,-0.96
2.3972,-9.5479,-0.69464,0.014355,0.15211,0.1799,4.26,39.3,-0.78
2.3155,-9.3844,-0.76274,-0.000916,0.13867,0.1689,4.38,39.24,-0.84
2.3018,-9.3436,-0.68102,-0.040317,0.13989,0.14355,4.56,39.3,-0.96
2.2882,-9.4661,-0.61292,-0.058948,0.13653,0.11851,4.8,39.36,-0.96
2.3291,-9.507,-0.61292,-0.089797,0.13011,0.11087,4.8,39.12,-1.02
2.2474,-9.5751,-0.5993,-0.11606,0.11729,0.086437,4.92,39.18,-1.08
2.2201,-9.7522,-0.49033,-0.14264,0.12187,0.072388,5.04,39.3,-1.2
2.0703,-9.7113,-0.50395,-0.16677,0.15363,0.057421,5.22,39.54,-1.32
2.0294,-9.8611,-0.47671,-0.20036,0.22174,0.012828,5.28,39.6,-1.08
2.0431,-9.9292,-0.51757,-0.20708,0.25595,-0.002138,5.28,39.48,-1.2
2.0158,-10.188,-0.43585,-0.21136,0.27978,-0.012217,5.16,39.54,-1.02
1.8932,-10.011,-0.47671,-0.21014,0.30452,-0.024129,4.92,39.54,-0.72
1.7843,-9.7385,-0.64016,-0.19853,0.35216,-0.036652,4.74,39.6,-0.54
1.7979,-9.6568,-0.70826,-0.18509,0.42119,-0.052534,4.74,39.54,-0.36
1.8251,-9.4661,-0.81722,-0.16982,0.45601,-0.073609,4.38,39.54,-0.3
1.7979,-9.4389,-0.98067,-0.13439,0.44318,-0.086743,4.2,39.42,-0.06
1.866,-9.3844,-1.1441,-0.13347,0.39523,-0.081856,4.08,39.42,0.06
1.7706,-9.3844,-1.4029,-0.13195,0.36163,-0.067806,3.96,39.48,0.24
1.8932,-9.4798,-1.6344,-0.12126,0.33139,-0.05284,3.72,39.72,0.24
1.8932,-9.4525,-1.7706,-0.12248,0.29993,-0.024435,3.66,39.72,0.18
2.0294,-9.6023,-2.0975,-0.11423,0.20708,0.019548,3.6,39.54,0.42
1.9886,-9.5479,-2.5061,-0.1463,-0.0042761,0.11423,3.48,39.6,0.24
1.6753,-9.4934,-2.8467,-0.16768,-0.19028,0.19426,3.42,39.72,0.48
1.2122,-9.4389,-2.9556,-0.18784,-0.23427,0.25534,3.3,39.78,0.72
1.1577,-9.4389,-2.9284,-0.20556,-0.040012,0.29993,3.18,39.78,0.78
1.2531,-9.398,-2.9556,-0.22174,0.2474,0.33109,3.0,39.78,0.72
1.8387,-9.4525,-2.7786,-0.23121,0.4667,0.35919,2.88,39.6,1.02
2.1929,-9.3844,-2.6832,-0.24435,0.43707,0.35094,2.94,39.6,1.38
2.2474,-9.2755,-2.5061,-0.24129,0.29352,0.3259,3.0,39.54,1.5
2.0839,-9.0984,-2.2882,-0.23702,0.13989,0.27947,3.18,39.66,1.44
1.757,-9.0439,-2.1656,-0.22938,0.093157,0.23549,3.48,39.84,1.8
1.7025,-9.0303,-2.1384,-0.22113,0.17043,0.16585,3.42,39.96,1.68
1.7843,-9.0439,-2.0294,-0.21502,0.27489,0.10873,3.48,40.02,1.68
1.8796,-9.0984,-2.0294,-0.18326,0.31185,0.044288,3.72,40.14,1.68
1.866,-9.112,-2.0567,-0.1573,0.27703,0.021991,4.08,40.2,1.86
1.7979,-8.9622,-1.9886,-0.13867,0.25901,-0.000305,4.2,40.08,1.98
1.7706,-9.1801,-1.9886,-0.12401,0.25748,-0.023213,4.26,40.14,2.1
1.7162,-9.1937,-2.0158,-0.096517,0.27397,-0.047037,4.2,40.44,2.04
1.7706,-9.0439,-2.1248,-0.074831,0.29322,-0.052229,4.2,40.44,2.28
1.7706,-9.0712,-2.2201,-0.039706,0.30757,-0.045815,4.14,40.32,2.28
1.7706,-9.0575,-2.2201,-0.015882,0.29199,-0.045509,4.14,40.26,2.52
1.9205,-9.507,-2.152,-0.0054978,0.24893,-0.010996,4.32,40.2,2.7
2.0567,-10.283,-2.3427,-0.0048869,0.041844,0.055283,4.38,40.2,2.88
1.3484,-10.093,-2.5334,-0.011301,-0.11362,0.12156,4.26,40.08,3.3
1.185,-9.6704,-2.5198,-0.043982,-0.065973,0.11973,4.2,40.08,3.36
0.8036,-8.7851,-2.2474,-0.10568,0.22602,0.11026,4.14,40.02,3.6
0.78998,-8.7579,-2.152,-0.13164,0.44135,0.071777,4.14,40.02,3.66
1.1577,-9.0439,-1.9613,-0.1518,0.60292,0.034514,4.08,39.78,3.9
1.5663,-9.3163,-1.6617,-0.17715,0.67501,0.009163,3.9,39.78,4.26
1.7706,-9.6023,-1.5119,-0.18204,0.70402,-0.0079412,3.66,39.54,4.32
1.866,-9.5479,-1.4438,-0.18967,0.68478,-0.020464,3.6,39.48,4.56
1.9613,-9.5887,-1.2395,-0.16127,0.61361,0.017104,3.42,39.36,4.86
2.0158,-9.5615,-1.2258,-0.11606,0.56658,0.015882,3.54,39.3,4.8
2.0567,-9.3163,-1.2531,-0.076358,0.53359,0.022907,3.48,39.3,4.92
2.0975,-9.2891,-1.185,-0.039095,0.46548,0.033903,3.72,39.24,4.8
2.1248,-9.1256,-1.2395,-0.0015272,0.38851,0.030238,3.84,39.18,4.98
2.0567,-9.0031,-1.4165,0.018631,0.33964,0.029016,3.9,39.12,5.1
1.9613,-9.0303,-1.362,0.032987,0.3091,0.025351,4.08,39.12,4.92
2.0839,-9.0575,-1.362,0.053756,0.31062,0.02474,4.38,39.18,4.92
2.0703,-9.1801,-1.362,0.05681,0.32742,0.034819,4.74,39.24,4.92
2.1248,-9.221,-1.58,0.067195,0.36713,0.044288,4.92,39.24,4.86
2.2201,-9.3844,-1.6344,0.081245,0.39309,0.043371,5.4,39.12,5.04
2.261,-9.4389,-1.7706,0.084605,0.416,0.053451,5.82,39.0,5.1
2.3699,-9.5479,-1.8115,0.076664,0.39951,0.04215,6.12,39.06,5.22
2.3836,-9.6568,-1.9886,0.069639,0.3708,0.051618,6.36,39.0,5.04
2.4517,-9.6432,-1.8796,0.06353,0.31857,0.040317,6.54,39.0,4.92
2.3836,-9.6023,-1.9205,0.054367,0.27947,0.028405,6.96,38.76,4.98
2.3972,-9.5751,-1.975,0.039401,0.22602,0.01405,7.26,38.7,4.98
2.3427,-9.5479,-1.8932,0.03207,0.20586,-0.002138,7.5,38.64,4.86
2.2746,-9.507,-1.8387,0.0088575,0.17868,-0.026878,7.62,38.64,4.68
2.2882,-9.4934,-1.8115,-0.011912,0.16952,-0.037568,7.68,38.82,4.62
2.2746,-9.5479,-1.7706,-0.027184,0.15608,-0.04612,7.62,38.64,4.38
2.2201,-9.5751,-1.6072,-0.03207,0.13867,-0.049175,7.5,38.58,4.38
2.2065,-9.6023,-1.4846,-0.030238,0.10568,-0.036957,7.56,38.52,4.38
2.1112,-9.5479,-1.3893,-0.025045,0.076664,-0.038179,7.62,38.58,4.44
2.0294,-9.5751,-1.3484,-0.011301,0.065363,-0.034208,7.5,38.94,4.32
2.0431,-9.6432,-1.3484,-0.0094684,0.062614,-0.013439,7.62,39.0,4.26
2.0158,-9.6023,-1.2803,-0.0061087,0.075747,-0.0051924,7.56,39.0,4.26
1.9341,-9.5342,-1.362,-0.0018326,0.095906,0.0030543,7.5,38.82,4.38
1.9886,-9.4798,-1.3484,0.0012217,0.11973,0.018021,7.38,38.94,4.2
2.0431,-9.4389,-1.2531,0.0061087,0.13134,0.030849,7.38,39.0,4.32
2.152,-9.5615,-1.4029,0.0061087,0.13256,0.051618,7.62,39.06,4.26
2.152,-9.5342,-1.4165,0.0085521,0.12278,0.062614,7.56,38.88,4.26
2.2474,-9.5751,-1.4438,0.015577,0.11332,0.069639,7.44,39.18,4.08
2.2337,-9.5206,-1.4846,0.022297,0.12339,0.068111,7.38,39.06,4.02
2.3018,-9.5342,-1.5391,0.01069,0.12309,0.060781,7.44,38.94,4.14
2.4108,-9.5615,-1.5391,0.01405,0.11545,0.070555,7.44,39.06,4.02
2.438,-9.507,-1.5391,-0.0054978,0.087965,0.069333,7.44,38.94,3.9
2.438,-9.4798,-1.5663,-0.017715,0.053756,0.073609,7.5,39.0,3.72
2.3836,-9.4798,-1.5119,-0.027794,0.047953,0.068417,7.44,39.0,3.72
2.5742,-9.4253,-1.471,-0.04948,0.011301,0.047953,7.5,39.06,3.6
2.4925,-9.4117,-1.471,-0.057727,-0.021991,0.041233,7.5,39.12,3.66
2.4517,-9.398,-1.3484,-0.066279,-0.043982,0.033292,7.38,39.06,3.6
2.3836,-9.4253,-1.2803,-0.068417,-0.065363,0.0058032,7.32,39.0,3.42
2.3836,-9.4798,-1.2258,-0.061392,-0.081551,-0.012523,7.38,38.7,3.42
2.2882,-9.4525,-1.2667,-0.051924,-0.096211,-0.034514,7.38,38.94,3.42
2.261,-9.4525,-1.2122,-0.048869,-0.11026,-0.036041,7.44,38.94,3.42
2.0158,-9.4389,-1.3757,-0.050091,-0.11301,-0.034208,7.32,39.06,3.3
2.0703,-9.507,-1.3212,-0.047037,-0.096211,-0.026267,7.26,38.94,3.36
2.0431,-9.4934,-1.3484,-0.046731,-0.072082,-0.026878,7.32,39.0,3.66
2.1248,-9.507,-1.3484,-0.041233,-0.069639,-0.021075,7.26,39.0,3.66
2.1384,-9.507,-1.4029,-0.042761,-0.073609,-0.027794,7.32,39.06,3.78
2.0567,-9.4798,-1.3757,-0.031154,-0.087354,-0.030849,7.38,38.94,3.72
2.1656,-9.4798,-1.3757,-0.036346,-0.097738,-0.030238,7.38,38.94,3.84
2.1248,-9.5342,-1.3212,-0.040012,-0.10934,-0.018021,7.44,39.3,4.02
2.0567,-9.4661,-1.3757,-0.034514,-0.10996,-0.030849,7.44,39.3,4.08
2.0431,-9.4661,-1.3212,-0.034819,-0.10446,-0.022602,7.44,39.36,4.08
2.0294,-9.4661,-1.362,-0.036652,-0.087659,-0.020464,7.38,39.36,4.14
2.0567,-9.507,-1.3348,-0.027794,-0.08491,-0.017715,7.44,39.06,4.14
2.0839,-9.5206,-1.2531,-0.030543,-0.082161,-0.013134,7.44,39.12,4.38
2.0567,-9.5479,-1.3212,-0.021686,-0.086743,-0.0076358,7.44,39.12,4.32
2.0294,-9.5615,-1.3757,-0.016493,-0.085827,0.0076358,7.38,39.12,4.08
2.0567,-9.6023,-1.3484,-0.013439,-0.08827,0.0067195,7.38,39.12,3.96
2.0567,-9.616,-1.3076,-0.0085521,-0.093462,0.007025,7.32,39.0,3.84
2.0022,-9.5479,-1.3484,-0.010996,-0.10171,0.016188,7.26,39.06,3.72
1.9341,-9.4253,-1.3212,-0.000305,-0.089492,0.0097738,7.14,38.94,3.66
2.0022,-9.3844,-1.2803,0.0027489,-0.091935,0.016799,7.2,38.88,3.66
1.9068,-9.3299,-1.3757,0.0036652,-0.092852,0.025351,7.2,38.76,3.48
1.866,-9.3844,-1.4029,0.010996,-0.078496,0.037568,7.44,38.82,3.36
1.9341,-9.3572,-1.3212,0.0079412,-0.070555,0.043677,7.38,38.76,3.3
2.0294,-9.507,-1.3484,0.0018326,-0.05284,0.055283,7.26,39.0,3.24
2.0158,-9.5615,-1.4165,-0.012523,-0.03543,0.061392,7.26,38.94,3.3
2.0158,-9.5206,-1.4846,-0.0097738,-0.016493,0.059254,7.26,38.88,3.3
2.0431,-9.507,-1.4438,-0.024435,0.027184,0.049175,7.32,38.7,3.12
2.0839,-9.4798,-1.4165,-0.022297,0.0562,0.037874,7.38,38.82,3.18
2.0431,-9.4661,-1.362,-0.031154,0.080329,0.040012,7.44,38.88,3.18
2.0294,-9.3572,-1.2667,-0.039095,0.12798,0.029322,7.62,38.82,3.24
2.1112,-9.4253,-1.2531,-0.033598,0.15485,0.019242,7.62,38.94,3.06
2.1248,-9.4117,-1.2803,-0.0281,0.15119,0.01069,7.56,39.0,3.0
2.1793,-9.4661,-1.3076,-0.020464,0.14416,0.017715,7.5,39.12,3.06
2.1656,-9.4117,-1.2803,-0.012217,0.13225,0.019242,7.38,39.24,3.18
2.1248,-9.4117,-1.3212,-0.0048869,0.11759,0.016493,7.5,39.18,3.18
2.2201,-9.5751,-1.3348,-0.000305,0.11301,0.016493,7.56,38.88,3.06
2.1384,-9.6704,-1.4165,0.0058032,0.10904,0.017104,7.56,39.0,3.0
2.2201,-9.6023,-1.4029,-0.0054978,0.092852,0.023213,7.5,39.06,2.94
2.3563,-9.5206,-1.4029,-0.015577,0.045204,0.016493,7.62,39.3,3.0
2.4108,-9.4934,-1.4846,-0.032376,-0.065363,-0.0048869,7.62,39.18,2.88
2.4517,-9.507,-1.4438,-0.036957,-0.1182,-0.024435,7.56,39.42,2.88
2.4108,-9.507,-1.4438,-0.044288,-0.13744,-0.03207,7.44,39.48,2.88
2.2882,-9.507,-1.4438,-0.058032,-0.093768,-0.04948,7.44,39.42,2.94
2.2882,-9.4798,-1.4029,-0.06353,-0.047037,-0.058643,7.44,39.42,2.76
2.3018,-9.4389,-1.4846,-0.075442,-0.0030543,-0.072388,7.44,39.3,2.82
2.2882,-9.4253,-1.5663,-0.09163,0.012828,-0.082467,7.44,39.3,2.76
2.3291,-9.4253,-1.5527,-0.10629,0.010385,-0.097128,7.32,39.24,2.76
2.2746,-9.3299,-1.4301,-0.1069,0.015577,-0.10812,7.38,39.24,2.82
2.2201,-9.4389,-1.3757,-0.10293,0.026267,-0.10446,7.5,39.06,2.82
2.1929,-9.4525,-1.3757,-0.096822,0.032681,-0.10354,7.56,39.06,3.0
2.152,-9.4525,-1.362,-0.091324,0.042761,-0.078496,7.26,38.94,3.12
2.0703,-9.3299,-1.2803,-0.082467,0.062919,-0.06689,7.08,39.0,3.3
2.0294,-9.2891,-1.3212,-0.064446,0.080329,-0.074526,7.2,38.82,3.42
2.0839,-9.3027,-1.3757,-0.048258,0.085216,-0.066279,7.26,38.7,3.36
2.1384,-9.4525,-1.185,-0.03207,0.088575,-0.058032,7.02,38.64,3.36
2.1929,-9.5342,-1.1305,-0.022907,0.093157,-0.045204,6.96,38.58,3.6
2.3018,-9.6432,-1.3076,-0.0054978,0.075747,-0.016188,6.9,38.58,3.72
2.2337,-9.5751,-1.4301,-0.0030543,0.06689,0.0033598,6.78,38.64,3.78
2.261,-9.5751,-1.4165,-0.0073304,0.090103,0.016493,6.78,38.7,3.78
2.2882,-9.507,-1.4846,-0.0079412,0.10263,0.02138,6.72,38.76,3.72
2.4244,-9.3299,-1.4438,-0.014355,0.10629,0.037568,6.42,39.0,3.78
2.4517,-9.3436,-1.3757,-0.014355,0.08491,0.051007,6.3,38.94,3.66
2.5061,-9.3844,-1.3484,-0.014661,0.07758,0.04612,6.42,38.94,3.72
2.5334,-9.2346,-1.3484,-0.015577,0.089186,0.044593,6.48,39.06,3.48
2.5334,-9.3163,-1.3484,-0.012828,0.078191,0.045815,6.36,39.0,3.42
2.547,-9.221,-1.3348,-0.0085521,0.071777,0.058338,6.18,39.0,3.42
2.6287,-9.4117,-1.2803,-0.01405,0.059559,0.062003,6.24,39.18,3.48
2.6423,-9.4525,-1.3212,-0.021075,0.05681,0.06017,6.36,39.06,3.36
2.6423,-9.4798,-1.3212,-0.023213,0.057116,0.073304,6.3,39.12,3.3
2.6015,-9.4117,-1.2803,-0.023213,0.081551,0.047342,6.18,39.06,3.0
2.6423,-9.4389,-1.3212,-0.025045,0.092546,0.025962,6.12,39.18,3.0
2.6151,-9.4117,-1.2803,-0.023213,0.083689,0.013744,6.0,39.18,3.06
2.547,-9.3844,-1.3076,-0.01741,0.059559,-0.012217,6.18,39.48,2.94
2.5334,-9.4117,-1.2939,-0.021686,0.036957,-0.0094684,6.24,39.42,3.0
2.3699,-9.4661,-1.3076,-0.012523,0.03146,-0.0061087,6.18,39.48,3.06
2.3836,-9.3436,-1.3348,-0.0058032,0.054367,0.0088575,5.94,39.42,3.0
2.3836,-9.4117,-1.2258,-0.0030543,0.060781,0.013744,5.88,39.54,3.06
2.4244,-9.3708,-1.2803,0.0012217,0.058338,0.027794,6.0,39.6,3.06
2.4517,-9.4117,-1.2803,0.0061087,0.06017,0.044899,5.94,39.48,3.06
2.4789,-9.4661,-1.3076,0.014966,0.050396,0.06017,5.82,39.72,3.18
2.5061,-9.4798,-1.2803,0.019853,0.034514,0.072998,5.88,39.66,3.06
2.5879,-9.4389,-1.2939,0.017104,-0.0042761,0.083078,6.12,39.78,3.06
2.5061,-9.4798,-1.3484,0.01405,-0.036346,0.090103,6.18,39.72,2.94
2.5198,-9.4525,-1.3212,0.0097738,-0.071777,0.083078,6.42,39.72,2.82
2.4517,-9.4389,-1.2531,-0.0048869,-0.086132,0.075442,6.42,39.66,2.7
2.4517,-9.5342,-1.185,-0.0012217,-0.10537,0.076664,6.42,39.78,2.64
2.4517,-9.6023,-1.185,-0.0094684,-0.12248,0.066279,6.48,39.72,2.46
2.3155,-9.5206,-1.2122,-0.020159,-0.14172,0.055589,6.54,39.78,2.58
2.3563,-9.5342,-1.1577,-0.018326,-0.16952,0.03207,6.6,39.78,2.52
2.1929,-9.5342,-1.1713,-0.021686,-0.18418,0.034514,6.72,39.78,2.58
2.0975,-9.5751,-1.1305,-0.023824,-0.19059,0.032681,6.84,39.96,2.58
2.0839,-9.5615,-1.1305,-0.035125,-0.18662,0.023824,6.96,39.84,2.4
2.0567,-9.616,-1.1169,-0.038179,-0.18051,0.02138,6.96,39.78,2.46
1.8387,-9.616,-1.1713,-0.041539,-0.15516,0.011912,7.02,39.66,2.58
1.8387,-9.5206,-1.0624,-0.050091,-0.069333,0.014966,7.02,39.78,2.7
1.7162,-9.4389,-0.99429,-0.045509,-0.0012217,0.0097738,6.84,39.66,2.88
1.8387,-9.4798,-1.0215,-0.03879,0.08491,0.011912,6.9,39.6,3.0
1.866,-9.507,-1.1305,-0.029016,0.15149,0.010996,6.96,39.54,3.12
1.975,-9.4253,-1.1305,-0.036346,0.2025,0.016188,7.08,39.6,3.12
2.0158,-9.4525,-1.1032,-0.036041,0.22999,0.025045,7.26,39.48,3.06
2.2065,-9.4525,-1.1169,-0.037874,0.26725,0.036957,7.2,39.6,3.0
2.2201,-9.4934,-1.1305,-0.033292,0.27122,0.048869,7.14,39.6,2.94
2.2882,-9.4798,-1.1986,-0.026878,0.27275,0.059865,7.2,39.48,2.88
2.2746,-9.4389,-1.1169,-0.022907,0.2642,0.074831,7.14,39.66,2.94
2.4517,-9.5479,-1.185,-0.02138,0.24984,0.081245,7.08,39.72,2.94
2.5061,-9.507,-1.2531,-0.013744,0.2364,0.079107,7.14,39.78,2.88
2.4925,-9.5479,-1.2803,-0.013744,0.18631,0.084299,7.08,39.84,2.64
2.5606,-9.5342,-1.3348,-0.018937,0.1686,0.073915,7.02,39.9,2.64
2.5334,-9.4525,-1.4301,-0.023518,0.12126,0.062614,7.02,39.9,2.46
2.5334,-9.4798,-1.3348,-0.030238,0.048869,0.04948,7.02,39.9,2.28
2.5334,-9.507,-1.185,-0.048869,0.0073304,0.051313,7.08,39.84,2.34
2.4653,-9.4525,-1.2803,-0.055589,-0.040928,0.053451,7.14,40.02,2.46
2.3291,-9.4934,-1.2258,-0.059559,-0.08827,0.050396,7.2,39.9,2.46
2.3155,-9.5615,-1.1986,-0.053145,-0.091019,0.043066,7.2,39.9,2.46
2.1793,-9.5342,-1.1713,-0.065668,-0.08094,0.036652,7.26,39.9,2.4
2.1793,-9.5479,-1.1169,-0.062003,-0.063835,0.036041,7.26,39.84,2.58
2.1929,-9.5615,-1.2531,-0.054062,-0.043066,0.038485,7.26,39.78,2.7
2.1929,-9.507,-1.2531,-0.060476,-0.024435,0.042455,7.2,39.66,2.7
2.152,-9.507,-1.2122,-0.071471,-0.01069,0.045815,7.32,39.72,2.76
2.1929,-9.507,-1.2395,-0.07422,0.000305,0.039401,7.38,39.66,2.7
2.1929,-9.4661,-1.2667,-0.069028,0.000611,0.033292,7.26,39.6,2.82
2.1248,-9.3844,-1.2395,-0.073609,0.012217,0.03543,7.26,39.66,2.76
2.0839,-9.398,-1.2258,-0.068111,0.029627,0.033903,7.14,39.54,2.76
2.152,-9.4117,-1.1713,-0.064141,0.052229,0.043371,7.2,39.42,2.76
2.152,-9.3844,-1.1305,-0.05681,0.07086,0.04215,7.2,39.48,2.94
2.261,-9.4798,-1.185,-0.064446,0.060781,0.048869,7.26,39.42,3.0
2.3155,-9.507,-1.3212,-0.059865,0.041233,0.049786,7.14,39.36,3.0
2.2882,-9.5206,-1.3212,-0.061087,0.021686,0.042455,7.14,39.12,2.88
2.3155,-9.4798,-1.3212,-0.062919,0.000916,0.040623,7.26,39.12,2.82
2.3155,-9.4661,-1.2667,-0.063225,-0.020159,0.036041,7.32,39.12,2.94
2.2337,-9.4389,-1.3484,-0.067806,-0.037874,0.026878,7.26,38.94,3.0
2.2201,-9.4934,-1.2531,-0.062919,-0.039095,0.026878,7.44,39.0,3.06
2.1384,-9.4253,-1.2395,-0.061392,-0.044288,0.025045,7.5,39.18,3.06
2.1384,-9.4389,-1.2258,-0.065057,-0.021991,0.022602,7.56,39.24,3.06
2.1384,-9.4661,-1.185,-0.062919,-0.0097738,0.02138,7.68,39.24,3.3
2.1656,-9.4934,-1.3484,-0.05681,0.010996,0.021991,7.68,39.3,3.3
2.1248,-9.4798,-1.2939,-0.056505,0.024129,0.022602,7.68,39.18,3.18
2.1384,-9.4117,-1.2258,-0.051007,0.029322,0.017104,7.8,39.24,3.24
2.1929,-9.4389,-1.2803,-0.044593,0.026878,0.013134,7.86,39.12,3.3
2.152,-9.4117,-1.185,-0.039095,0.022297,0.01405,7.8,39.3,3.18
2.1248,-9.4798,-1.2803,-0.01741,0.0094684,0.024435,7.98,39.36,3.12
2.1248,-9.4798,-1.2803,-0.013744,0.0067195,0.027489,8.1,39.3,3.18
2.152,-9.5751,-1.3076,-0.013744,0.0067195,0.027489,8.1,39.3,3.18
2.152,-9.4661,-1.2939,0.000916,0.010079,0.037568,8.04,39.3,3.18
2.2882,-9.507,-1.2939,0.0054978,0.0015272,0.039095,8.04,39.12,3.24
2.3155,-9.507,-1.4029,0.0045815,-0.021686,0.065973,8.04,39.0,3.0
2.3427,-9.5342,-1.4165,-0.0015272,-0.07025,0.055894,7.86,39.12,3.0
2.2882,-9.4934,-1.4165,-0.02138,-0.085827,0.044899,7.8,39.12,3.06
2.261,-9.4389,-1.2803,-0.035125,-0.092852,0.026878,7.74,39.12,2.88
2.1248,-9.5342,-1.2531,-0.047647,-0.091935,0.016493,7.74,39.12,2.94
2.0567,-9.4253,-1.185,-0.048564,-0.068722,-0.000916,7.8,39.12,2.94
1.975,-9.4389,-1.1441,-0.050396,-0.029016,-0.014966,7.92,39.06,3.12
1.9886,-9.4389,-1.2667,-0.052534,0.044899,-0.025045,7.8,39.12,3.36
1.9613,-9.4389,-1.2531,-0.049786,0.085521,-0.040012,7.8,39.12,3.3
2.0703,-9.4798,-1.2395,-0.055589,0.099876,-0.041539,7.62,39.0,3.3
2.0839,-9.4117,-1.2395,-0.047953,0.11362,-0.034208,7.62,39.12,3.3
2.0975,-9.4661,-1.2258,-0.044593,0.12431,-0.034514,7.86,39.12,3.3
2.1112,-9.507,-1.1305,-0.044899,0.13775,-0.032376,7.8,39.12,3.42
2.152,-9.507,-1.185,-0.029322,0.14844,-0.029627,8.1,39.0,3.48
2.2201,-9.4934,-1.2258,-0.023518,0.1463,-0.021075,8.22,38.82,3.54
2.2474,-9.6296,-1.3212,-0.017715,0.13317,-0.009163,8.22,38.82,3.54
2.3291,-9.5887,-1.2395,-0.013134,0.11668,0.010385,8.16,39.0,3.54
2.3427,-9.4389,-1.3757,-0.0088575,0.10446,0.021991,8.16,39.12,3.54
2.3972,-9.4525,-1.2667,-0.01405,0.060781,0.035736,8.1,39.36,3.36
2.4925,-9.4798,-1.3212,-0.019242,0.02474,0.044899,8.04,39.36,3.36
2.438,-9.4253,-1.4982,-0.012523,-0.022907,0.039706,7.98,39.36,3.42
2.4108,-9.3708,-1.2939,-0.023518,-0.058338,0.047953,7.92,39.36,3.42
2.2882,-9.507,-1.2258,-0.032681,-0.074831,0.032681,7.98,39.6,3.42
2.2746,-9.507,-1.2122,-0.041233,-0.072082,0.027184,7.86,39.54,3.36
2.2474,-9.507,-1.1577,-0.041844,-0.076969,0.018021,7.86,39.66,3.42
2.1793,-9.5479,-1.2258,-0.037263,-0.075136,0.007025,7.68,39.6,3.54
2.1112,-9.5342,-1.185,-0.037874,-0.062003,0.0012217,7.44,39.72,3.48
2.0158,-9.4934,-1.2395,-0.034819,-0.031154,0.0024435,7.44,39.72,3.54
1.9477,-9.4525,-1.2258,-0.034208,0.0079412,0.010079,7.62,39.72,3.54
2.0022,-9.5206,-1.2531,-0.027794,0.019242,0.019242,7.62,39.66,3.66
2.0294,-9.4798,-1.2122,-0.029016,0.026878,0.034819,7.56,39.54,3.6
2.152,-9.5206,-1.185,-0.025351,0.035125,0.037568,7.68,39.48,3.54
2.1929,-9.507,-1.1441,-0.018326,0.043371,0.045815,7.74,39.48,3.48
2.2065,-9.507,-1.1577,-0.022907,0.031154,0.045509,7.74,39.42,3.36
2.2065,-9.507,-1.2531,-0.024435,0.0061087,0.045509,7.8,39.3,3.42
2.2746,-9.5479,-1.2395,-0.03146,-0.016493,0.057421,7.86,39.3,3.48
2.2882,-9.5479,-1.185,-0.035736,-0.040928,0.045509,7.8,39.3,3.42
2.1656,-9.5479,-1.2258,-0.041233,-0.052229,0.043982,7.86,39.36,3.18
2.0975,-9.5751,-1.2395,-0.048564,-0.055589,0.040623,7.98,39.48,3.18
2.0431,-9.4525,-1.1577,-0.045204,-0.044593,0.025351,7.98,39.6,3.12
1.9613,-9.507,-1.185,-0.052229,-0.018631,0.029627,7.8,39.48,3.06
1.9341,-9.5479,-1.076,-0.054672,0.019548,0.027489,7.8,39.42,3.0
1.8387,-9.5479,-1.1577,-0.050702,0.034819,0.026573,7.8,39.48,3.18
1.9341,-9.5479,-1.1032,-0.042761,0.072388,0.029016,7.92,39.54,3.12
1.9341,-9.6432,-1.1169,-0.03543,0.093462,0.032681,7.98,39.48,3.12
2.0022,-9.6432,-1.1032,-0.029627,0.11026,0.044288,7.98,39.48,3.24
2.0567,-9.5206,-1.2395,-0.03207,0.13164,0.048258,8.04,39.36,3.18
2.1656,-9.4661,-1.2258,-0.03146,0.14508,0.048869,7.92,39.42,3.18
2.1793,-9.4798,-1.2667,-0.043066,0.13806,0.045815,8.1,39.3,3.18
2.2201,-9.4798,-1.2122,-0.054978,0.11118,0.035736,8.1,39.48,3.3
2.2474,-9.5342,-1.1986,-0.061392,0.091019,0.029627,8.22,39.3,3.3
2.2474,-9.5751,-1.1169,-0.062308,0.081245,0.0281,8.28,39.12,3.54
2.1793,-9.507,-1.1986,-0.064752,0.069333,0.027184,8.46,39.06,3.6
2.0975,-9.5206,-1.1577,-0.062003,0.062614,0.018021,8.4,39.06,3.6
2.0567,-9.4798,-1.2122,-0.0562,0.057727,0.02138,8.34,39.0,3.42
1.9613,-9.4798,-1.1577,-0.049175,0.065363,0.030543,8.22,39.06,3.54
2.0294,-9.4661,-1.1577,-0.053145,0.063835,0.029322,8.28,39.12,3.6
2.0294,-9.5206,-1.3076,-0.05284,0.07086,0.034208,8.22,39.12,3.72
1.9886,-9.507,-1.2667,-0.055894,0.076358,0.040317,8.16,39.18,3.72
2.0975,-9.4798,-1.185,-0.052534,0.086437,0.041233,8.28,39.18,3.96
2.1248,-9.4798,-1.2531,-0.050091,0.11576,0.036041,8.22,39.18,3.96
2.1656,-9.4253,-1.1713,-0.044899,0.12248,0.029627,8.22,39.12,4.14
2.1656,-9.4934,-1.1441,-0.050702,0.1292,0.029016,8.1,39.12,4.26
2.2065,-9.5206,-1.2122,-0.055283,0.13439,0.029627,7.92,39.24,4.26
2.1929,-9.4934,-1.2395,-0.057421,0.13622,0.019853,7.86,39.42,4.14
2.2337,-9.507,-1.2803,-0.055283,0.13103,0.021686,8.04,39.48,4.26
2.261,-9.4934,-1.2122,-0.061087,0.12675,0.022907,8.1,39.48,4.26
2.1929,-9.5206,-1.2803,-0.063225,0.10996,0.012828,8.04,39.36,4.5
2.1929,-9.4525,-1.2531,-0.061087,0.10446,0.01741,8.04,39.36,4.56
2.2201,-9.4389,-1.2531,-0.057727,0.098655,0.017715,8.04,39.48,4.62
2.2474,-9.398,-1.2803,-0.057727,0.087354,0.027184,8.04,39.42,4.44
2.3018,-9.4798,-1.185,-0.045509,0.066584,0.0281,8.1,39.36,4.32
2.3018,-9.4389,-1.2531,-0.053451,0.04948,0.032376,8.16,39.24,4.14
2.3836,-9.4525,-1.2531,-0.037263,0.032681,0.030238,8.1,39.24,4.14
2.3155,-9.4661,-1.1713,-0.036652,0.013439,0.023518,8.1,39.36,4.08
2.2882,-9.507,-1.2531,-0.039401,-0.0067195,0.022907,8.28,39.24,4.02
2.2474,-9.507,-1.2803,-0.032376,-0.016493,0.016493,8.34,39.12,4.08
2.1929,-9.5751,-1.185,-0.027184,-0.013744,0.020159,8.22,38.94,4.08
2.1384,-9.4117,-1.2531,-0.028405,-0.018937,0.010385,8.28,38.94,3.9
2.1929,-9.4661,-1.2258,-0.020464,-0.011912,0.015882,8.28,38.94,3.84
2.1112,-9.4661,-1.2667,-0.019853,-0.0079412,0.021075,8.34,39.0,3.72
2.152,-9.4389,-1.2531,-0.014966,-0.0015272,0.016799,8.4,38.94,3.78
2.1929,-9.4661,-1.1032,-0.02138,-0.0036652,0.021075,8.4,39.12,3.84
2.1793,-9.5342,-1.2395,-0.019242,-0.011301,0.020464,8.28,39.12,3.96
2.1929,-9.4934,-1.185,-0.022297,-0.016188,0.022297,8.28,39.12,3.96
2.1656,-9.5206,-1.1577,-0.018021,-0.019242,0.023518,8.28,39.06,3.84
2.1248,-9.5751,-1.2531,-0.024435,-0.020464,0.023824,8.34,39.12,3.96
2.1929,-9.5479,-1.3348,-0.021075,-0.036652,0.033598,8.28,39.18,4.02
2.1248,-9.5615,-1.2531,-0.020769,-0.053145,0.03207,8.28,39.24,4.08
2.1656,-9.507,-1.3076,-0.023213,-0.069639,0.034208,8.46,39.36,4.02
2.1384,-9.4798,-1.2531,-0.037568,-0.099571,0.041539,8.46,39.3,3.96
2.1793,-9.5887,-1.2258,-0.031765,-0.1066,0.03207,8.52,39.3,3.96
2.1112,-9.5206,-1.1577,-0.025351,-0.10629,0.025656,8.46,39.3,3.96
2.0294,-9.5479,-1.3076,-0.026267,-0.082161,0.019242,8.34,39.3,3.84
2.0294,-9.5751,-1.185,-0.023213,-0.071471,0.02138,8.34,39.3,3.96
2.0294,-9.5887,-1.2667,-0.035736,-0.072998,0.0281,8.46,39.42,3.84
2.0158,-9.507,-1.2531,-0.04612,-0.056505,0.032376,8.28,39.48,4.02
2.0294,-9.4798,-1.2258,-0.052229,-0.039401,0.024435,8.46,39.6,3.96
1.9613,-9.4661,-1.2258,-0.051924,0.0036652,0.01405,8.46,39.48,3.84
2.0294,-9.4934,-1.2258,-0.062308,0.05284,0.0079412,8.58,39.48,3.84
1.9886,-9.507,-1.2531,-0.059865,0.065363,0.0064141,8.52,39.48,3.72
1.975,-9.507,-1.2803,-0.060476,0.067501,0.01069,8.46,39.48,3.72
2.0567,-9.4798,-1.2395,-0.056505,0.064141,0.013439,8.4,39.54,3.84
2.0975,-9.507,-1.185,-0.062614,0.063225,0.013134,8.28,39.54,3.84
2.1248,-9.4798,-1.185,-0.048258,0.053145,0.012523,8.34,39.54,3.84
2.1384,-9.507,-1.3076,-0.055283,0.050396,0.01741,8.4,39.36,4.02
2.1384,-9.4798,-1.2531,-0.043371,0.033903,0.014966,8.46,39.3,3.9
2.1248,-9.5206,-1.1986,-0.052229,0.022602,0.021075,8.46,39.3,3.84
2.1384,-9.4798,-1.2531,-0.044899,0.000611,0.024435,8.34,39.18,3.84
2.1112,-9.5206,-1.1986,-0.043982,-0.010996,0.018937,8.28,39.12,3.84
2.2201,-9.4934,-1.2803,-0.043677,-0.02474,0.0054978,8.28,39.0,3.84
2.1248,-9.5206,-1.2258,-0.04948,-0.025045,0.012217,8.22,38.88,3.78
2.152,-9.4798,-1.2667,-0.037263,-0.029322,0.0085521,8.28,39.0,3.78
2.0294,-9.4798,-1.2803,-0.037568,-0.015272,0.014661,8.34,38.88,3.72
2.0703,-9.4661,-1.3348,-0.039095,-0.019242,0.016493,8.4,39.06,3.72
2.0975,-9.4389,-1.2258,-0.042761,-0.014661,0.02474,8.22,38.88,3.66
2.0703,-9.507,-1.2667,-0.043066,-0.013439,0.021991,8.34,38.88,3.66
2.0294,-9.4798,-1.2258,-0.031765,-0.012828,0.022297,8.34,39.0,3.78
2.1248,-9.5206,-1.1713,-0.030543,-0.012828,0.022907,8.34,39.0,3.66
2.1248,-9.507,-1.1713,-0.03207,-0.013134,0.025656,8.28,39.0,3.84
2.152,-9.4934,-1.2531,-0.034208,-0.021991,0.02474,8.28,39.0,3.84
2.1656,-9.5342,-1.3484,-0.029016,-0.03207,0.029932,8.34,39.06,3.9
2.1248,-9.507,-1.3076,-0.032987,-0.035736,0.031765,8.28,39.18,3.84
2.1248,-9.5206,-1.2667,-0.034514,-0.043677,0.028405,8.4,39.12,4.02
2.0975,-9.5342,-1.2803,-0.035125,-0.041844,0.024435,8.28,39.06,4.08
2.0839,-9.5751,-1.3212,-0.033903,-0.046731,0.028711,8.22,39.24,4.2
2.0839,-9.5751,-1.2803,-0.040012,-0.054062,0.024435,8.16,39.06,4.14
2.0022,-9.4661,-1.2531,-0.039095,-0.041844,0.023213,8.4,39.24,4.26
2.0022,-9.507,-1.2395,-0.041539,-0.035736,0.024129,8.22,39.24,4.26
1.9613,-9.5342,-1.2258,-0.0281,-0.012217,0.026267,8.16,39.3,4.02
1.9886,-9.5615,-1.2803,-0.033903,-0.0030543,0.034208,8.1,39.3,4.08
1.9613,-9.5342,-1.3484,-0.030849,0.0058032,0.041233,8.22,39.3,3.96
1.9886,-9.4934,-1.3076,-0.027794,0.0045815,0.043371,8.22,39.36,4.02
2.0294,-9.4798,-1.362,-0.036346,-0.011301,0.034514,8.16,39.42,3.96
2.0839,-9.5479,-1.2939,-0.032376,-0.016188,0.034819,8.1,39.48,3.9
2.0567,-9.5615,-1.2803,-0.024129,-0.021686,0.034208,8.16,39.6,3.78
2.0294,-9.507,-1.3076,-0.034208,-0.026878,0.033292,8.34,39.48,3.78
2.0567,-9.5615,-1.3212,-0.021991,-0.034514,0.030238,8.28,39.36,3.78
2.0158,-9.5206,-1.2803,-0.029016,-0.041844,0.036652,8.4,39.54,3.78
2.0703,-9.4525,-1.3076,-0.037874,-0.043677,0.040623,8.34,39.48,3.6
2.0294,-9.4661,-1.3076,-0.024129,-0.045509,0.029627,8.28,39.54,3.66
2.0431,-9.398,-1.185,-0.024129,-0.041844,0.024129,8.34,39.48,3.84
2.0567,-9.4253,-1.2258,-0.03207,-0.036346,0.025962,8.28,39.48,3.96
1.9341,-9.5342,-1.2667,-0.038179,-0.026267,0.027794,8.28,39.48,4.02
1.9477,-9.4389,-1.2803,-0.037568,-0.020769,0.020159,8.22,39.42,4.08
1.9886,-9.4389,-1.3484,-0.034208,0.0036652,0.012523,8.58,39.42,4.08
1.8932,-9.4798,-1.3212,-0.039401,0.016188,0.01405,8.64,39.36,4.02
1.975,-9.507,-1.3076,-0.035125,0.025351,0.0097738,8.52,39.42,4.02
1.9886,-9.4525,-1.3484,-0.031154,0.046426,0.0015272,8.34,39.66,4.08
2.0703,-9.5342,-1.2803,-0.034514,0.044593,0.000916,8.28,39.54,4.14
2.0567,-9.5479,-1.2939,-0.027794,0.033598,0.0018326,8.34,39.54,4.08
2.0839,-9.4934,-1.2531,-0.031765,0.020464,0.0051924,8.58,39.6,4.14
2.0703,-9.4798,-1.2803,-0.03146,0.014966,-0.000611,8.64,39.48,4.2
2.0975,-9.4798,-1.3212,-0.029016,0.010385,0.0036652,8.58,39.42,4.08
2.0294,-9.4661,-1.2667,-0.020464,0.0051924,0.0039706,8.64,39.6,4.08
2.0703,-9.4934,-1.2258,-0.024435,-0.0051924,0.0042761,8.76,39.6,4.08
2.0839,-9.5479,-1.3212,-0.029322,-0.0027489,0.015882,8.7,39.6,3.96
2.0567,-9.5479,-1.3212,-0.019548,0.000611,0.007025,8.58,39.6,3.9
2.0975,-9.507,-1.2258,-0.021686,-0.000611,0.010079,8.46,39.6,3.96
2.0567,-9.5206,-1.2939,-0.021686,-0.0030543,0.010079,8.58,39.54,4.2
2.0022,-9.5479,-1.3076,-0.020769,-0.0067195,0.012523,8.76,39.54,4.08
2.0158,-9.5479,-1.2939,-0.021075,-0.0018326,0.012828,8.82,39.48,4.2
2.0294,-9.6023,-1.2531,-0.025045,0.0039706,0.0097738,8.64,39.42,4.32
2.0839,-9.5479,-1.2803,-0.025351,0.0015272,0.0097738,8.52,39.24,4.2
2.0703,-9.5615,-1.3076,-0.032681,-0.000611,0.018937,8.58,39.24,4.26
2.0567,-9.616,-1.3212,-0.03543,0.000305,0.022297,8.46,39.3,4.26
2.0567,-9.4389,-1.2667,-0.039706,-0.010385,0.017104,8.58,39.18,4.14
1.975,-9.4798,-1.1986,-0.033598,0.0012217,0.017104,8.58,39.24,4.14
2.0158,-9.5751,-1.2258,-0.037263,0.011606,0.0045815,8.58,39.3,4.2
2.0294,-9.5751,-1.3484,-0.040928,0.012828,0.020159,8.52,39.18,4.44
2.0567,-9.507,-1.2531,-0.034208,-0.0094684,0.025045,8.58,39.18,4.44
2.0431,-9.5206,-1.2531,-0.04215,-0.0088575,0.030238,8.58,39.24,4.26
2.0294,-9.4389,-1.3076,-0.046426,-0.02474,0.027184,8.52,39.12,4.14
2.0567,-9.4661,-1.2531,-0.043677,-0.029016,0.011912,8.4,39.12,3.96
2.0294,-9.5206,-1.2803,-0.04948,-0.028711,0.013744,8.52,39.12,3.84
1.9613,-9.4934,-1.2258,-0.043982,-0.028405,0.015577,8.52,39.12,3.9
2.0158,-9.4798,-1.1577,-0.047647,-0.014355,0.015577,8.46,39.3,3.84
2.0022,-9.507,-1.2122,-0.04612,-0.0061087,0.013439,8.64,39.18,3.78
1.9886,-9.4525,-1.2258,-0.037568,0.01405,0.0058032,8.7,39.24,3.9
1.9886,-9.4389,-1.2258,-0.037263,0.025656,0.0054978,8.64,39.06,3.84
2.0158,-9.507,-1.2395,-0.030849,0.029932,0.000611,8.7,39.06,3.84
2.0567,-9.5206,-1.3484,-0.033598,0.024435,0.0064141,8.7,39.12,3.72
2.0294,-9.4934,-1.2939,-0.025656,0.013744,0.0073304,8.76,39.18,3.66
2.1112,-9.507,-1.2667,-0.029932,0.01405,0.011912,8.64,39.18,3.72
2.152,-9.5479,-1.2258,-0.0281,-0.0012217,0.0082467,8.64,39.24,3.9
2.152,-9.4798,-1.2803,-0.032987,-0.012828,0.0051924,8.64,39.12,4.02
2.1112,-9.5206,-1.2939,-0.036652,-0.0085521,0.0024435,8.52,39.12,4.02
2.0567,-9.4798,-1.3212,-0.032681,-0.0067195,-0.0012217,8.58,39.24,3.96
2.1384,-9.4798,-1.2531,-0.039706,-0.0012217,-0.0018326,8.52,39.3,4.02
2.0839,-9.507,-1.3212,-0.037874,0.0051924,-0.0024435,8.46,39.3,4.14
2.0703,-9.4389,-1.2667,-0.033292,0.01069,-0.0079412,8.4,39.3,4.14
2.0294,-9.507,-1.2395,-0.033292,0.015577,-0.0045815,8.4,39.24,4.14
2.0839,-9.4389,-1.2803,-0.025351,0.019853,-0.012217,8.28,39.12,4.2
2.0567,-9.4253,-1.2395,-0.028711,0.019853,0.0012217,8.4,39.06,4.14
2.1929,-9.4661,-1.2667,-0.025656,0.013134,-0.0018326,8.4,39.0,4.26
2.0839,-9.5206,-1.3348,-0.019548,0.0067195,0.009163,8.58,38.82,4.26
2.1656,-9.4661,-1.3348,-0.013439,0.0064141,0.01405,8.7,38.82,4.32
2.1929,-9.5615,-1.3484,-0.0088575,-0.0018326,0.026878,8.76,39.0,4.26
2.2201,-9.5479,-1.4029,-0.02138,-0.015577,0.023518,8.76,39.06,4.38
2.1793,-9.6023,-1.362,-0.020159,-0.034514,0.024435,8.82,39.06,4.32
2.1248,-9.5206,-1.3484,-0.024435,-0.043371,0.014966,8.82,39.06,4.08
2.0567,-9.507,-1.3484,-0.028405,-0.045509,0.019853,8.82,39.12,4.02
2.0431,-9.5479,-1.2803,-0.030238,-0.036652,0.012828,8.76,39.24,4.02
1.9613,-9.4934,-1.3348,-0.029932,-0.009163,0.010996,8.88,39.3,4.02
1.9886,-9.507,-1.2258,-0.036957,0.0018326,0.022602,8.82,39.36,3.84
1.9886,-9.507,-1.185,-0.030543,0.016799,0.010996,8.82,39.42,3.78
1.9886,-9.4934,-1.2667,-0.033598,0.027489,0.013134,8.7,39.42,3.72
2.0431,-9.5887,-1.2395,-0.043982,0.040928,0.018021,8.64,39.6,3.66
2.0839,-9.5751,-1.2531,-0.034208,0.037263,0.027489,8.58,39.72,3.66
2.1112,-9.5479,-1.2531,-0.034208,0.030849,0.037263,8.46,39.72,3.66
2.1248,-9.507,-1.2258,-0.03146,0.020159,0.044899,8.46,39.54,3.54
2.1793,-9.5206,-1.2667,-0.022602,0.0067195,0.038485,8.58,39.48,3.6
2.0839,-9.4934,-1.2531,-0.044593,-0.0085521,0.035125,8.64,39.42,3.66
2.1248,-9.5479,-1.2939,-0.026267,-0.019548,0.032681,8.64,39.3,3.72
2.0703,-9.5479,-1.2803,-0.034208,-0.018937,0.034514,8.7,39.18,3.72
2.0839,-9.4934,-1.3212,-0.029016,-0.013134,0.029322,8.7,39.12,3.78
2.0703,-9.507,-1.2531,-0.024435,-0.011301,0.033598,8.64,39.18,3.96
2.0158,-9.4798,-1.2803,-0.030849,-0.0067195,0.034514,8.64,39.12,3.9
2.0839,-9.4798,-1.2803,-0.036041,0.000916,0.027489,8.46,39.06,4.08
2.0431,-9.4661,-1.2122,-0.028405,0.014661,0.018631,8.4,38.94,4.02
2.0294,-9.5342,-1.2531,-0.036957,0.020159,0.026573,8.4,38.88,4.08
1.975,-9.4525,-1.185,-0.032681,0.026267,0.023213,8.4,38.88,4.08
2.0703,-9.4798,-1.1577,-0.023213,0.020769,0.021075,8.28,39.0,4.2
2.0839,-9.507,-1.1986,-0.020159,0.015882,0.033292,8.22,39.12,4.14
2.0567,-9.5751,-1.1986,-0.015272,0.0079412,0.03207,8.28,39.12,4.08
2.1248,-9.5342,-1.1986,-0.016799,-0.018326,0.041233,8.46,39.36,3.96
2.0567,-9.4798,-1.2531,-0.010079,-0.026878,0.033598,8.4,39.3,4.02
2.0431,-9.5206,-1.2531,-0.021991,-0.031765,0.039401,8.34,39.36,3.96
2.1112,-9.5342,-1.2122,-0.022907,-0.044593,0.03146,8.46,39.24,3.9
2.0431,-9.5615,-1.2667,-0.030849,-0.041844,0.023824,8.52,39.36,3.9
2.0294,-9.5479,-1.2803,-0.029932,-0.034819,0.020769,8.7,39.54,3.9
1.866,-9.507,-1.2122,-0.025351,-0.023213,0.0094684,8.82,39.54,3.9
1.866,-9.5479,-1.2531,-0.032376,0.0012217,0.018631,8.82,39.48,3.78
1.8796,-9.5206,-1.2258,-0.030543,0.027184,0.015577,9.0,39.48,3.72
1.9068,-9.5206,-1.185,-0.029932,0.042455,0.010996,9.06,39.3,3.66
2.0567,-9.4798,-1.2258,-0.026267,0.053451,0.021075,9.12,39.24,3.84
1.9613,-9.5206,-1.2258,-0.026878,0.057421,0.016799,9.0,39.36,3.84
2.0975,-9.5751,-1.1577,-0.023213,0.047647,0.023518,8.94,39.24,3.66
2.0567,-9.5342,-1.1032,-0.019548,0.025656,0.029322,8.94,39.36,3.36
2.0703,-9.6023,-1.2258,-0.018937,0.019242,0.030849,9.06,39.3,3.42
2.0567,-9.5615,-1.2258,-0.018631,-0.0048869,0.035736,9.18,39.12,3.3
2.0975,-9.5479,-1.1577,-0.018021,-0.021686,0.021991,9.06,39.06,3.3
2.0567,-9.4798,-1.2531,-0.022602,-0.030543,0.03146,8.94,38.94,3.24
2.0567,-9.5751,-1.185,-0.029627,-0.029322,0.039401,9.06,38.88,3.36
2.0567,-9.5615,-1.2122,-0.026878,-0.032681,0.03207,9.0,39.0,3.42
2.0158,-9.5751,-1.185,-0.038485,-0.031154,0.025656,9.0,39.0,3.48
1.9613,-9.6023,-1.1986,-0.040317,-0.028405,0.024129,8.88,39.24,3.54
1.9205,-9.6296,-1.1441,-0.048869,-0.01069,0.014966,8.82,39.3,3.48
2.0294,-9.6296,-1.2122,-0.042761,0.0018326,0.011606,8.88,39.24,3.54
1.9341,-9.5479,-1.1713,-0.048869,0.018631,0.015882,8.7,39.3,3.72
1.9886,-9.5751,-1.1577,-0.045509,0.012217,0.0061087,8.76,39.24,3.9
1.9613,-9.5479,-1.1713,-0.04215,0.010385,0.0079412,8.64,39.36,3.96
2.0567,-9.5479,-1.1441,-0.044899,-0.0054978,0.011301,8.58,39.42,3.96
1.9205,-9.4934,-1.1441,-0.035736,-0.01069,0.017715,8.76,39.6,3.72
1.9341,-9.507,-1.1169,-0.026573,-0.012217,0.01405,8.82,39.54,3.78
1.9205,-9.5206,-1.2258,-0.022297,-0.009163,0.024129,8.94,39.48,3.78
2.0294,-9.5479,-1.2122,-0.016799,-0.019853,0.040012,9.06,39.48,3.72
1.9613,-9.5206,-1.2258,-0.011912,-0.036652,0.042761,8.94,39.42,3.72
2.0839,-9.4798,-1.2258,-0.011301,-0.051007,0.044288,8.94,39.42,3.72
2.0431,-9.5206,-1.2258,-0.015882,-0.061087,0.036652,9.18,39.3,3.66
2.0839,-9.5479,-1.1986,-0.019548,-0.058948,0.032376,9.12,39.12,3.6
2.0158,-9.5751,-1.1986,-0.029016,-0.054367,0.023518,9.12,39.18,3.48
1.9068,-9.5751,-1.2395,-0.035125,-0.048869,0.017104,9.06,39.0,3.48
1.9613,-9.4389,-1.1577,-0.037263,-0.033903,0.0051924,9.18,38.88,3.48
1.866,-9.507,-1.1169,-0.034208,-0.023518,0.0054978,9.12,38.88,3.54
1.8387,-9.4798,-1.1441,-0.036346,0.02138,-0.010385,9.06,38.82,3.72
1.8932,-9.4934,-1.1169,-0.041539,0.047037,-0.0039706,9.06,38.88,3.66
1.866,-9.5206,-1.1577,-0.041844,0.055283,-0.0094684,8.88,38.94,3.66
1.9886,-9.5751,-1.185,-0.03146,0.058338,0.0018326,8.82,39.06,3.48
1.9613,-9.5479,-1.1577,-0.025656,0.053145,0.0097738,8.94,39.0,3.48
2.0158,-9.5479,-1.1986,-0.019242,0.043677,0.0039706,8.82,38.94,3.42
2.0975,-9.5887,-1.2395,-0.021686,0.019853,0.013439,8.76,39.0,3.3
2.1248,-9.616,-1.2531,-0.019853,-0.010079,0.012523,8.76,39.12,3.24
2.1112,-9.5479,-1.2803,-0.026573,-0.039706,0.026267,8.82,39.06,3.3
2.0431,-9.5206,-1.2667,-0.027794,-0.055894,0.025351,8.88,39.24,3.3
2.0022,-9.5479,-1.185,-0.034208,-0.058948,0.011606,8.76,39.36,3.3
1.9613,-9.507,-1.1577,-0.029016,-0.049786,0.0088575,8.7,39.42,3.36
1.8932,-9.5479,-1.1577,-0.040623,-0.024129,0.0039706,8.64,39.48,3.24
1.866,-9.4934,-1.185,-0.042761,-0.0042761,-0.0039706,8.58,39.42,3.3
1.8387,-9.5479,-1.1032,-0.041233,0.022602,-0.01069,8.58,39.48,3.24
1.8932,-9.5479,-1.2122,-0.032681,0.067806,-0.018631,8.34,39.3,3.36
1.9613,-9.4798,-1.185,-0.045204,0.083383,-0.012523,8.4,39.36,3.36
2.0158,-9.4934,-1.2258,-0.034514,0.081551,-0.0082467,8.4,39.36,3.36
2.0294,-9.5479,-1.2395,-0.038485,0.069944,-0.0064141,8.28,39.36,3.36
2.0975,-9.5206,-1.185,-0.041539,0.054367,0.0027489,8.28,39.3,3.54
2.0975,-9.5479,-1.1986,-0.040012,0.024129,0.0045815,8.22,39.42,3.6
2.1248,-9.6023,-1.185,-0.040928,0.0045815,-0.000611,8.16,39.3,3.66
2.1248,-9.507,-1.3484,-0.037568,-0.021075,0.0061087,8.22,39.3,3.66
2.1384,-9.4934,-1.2122,-0.04215,-0.024435,-0.0012217,8.34,39.24,3.54
2.0158,-9.507,-1.185,-0.04215,-0.017715,0.0042761,8.22,39.24,3.54
2.0839,-9.5479,-1.1441,-0.036346,-0.010996,0.000305,8.16,39.3,3.54
2.0158,-9.5342,-1.2667,-0.036957,0.0039706,-0.0064141,8.1,39.3,3.48
2.0294,-9.4798,-1.2667,-0.041844,0.010079,0.000611,8.34,39.3,3.54
2.0703,-9.5479,-1.1577,-0.035736,0.0061087,-0.01069,8.16,39.24,3.54
2.0703,-9.4934,-1.2122,-0.039706,0.0085521,-0.014355,8.34,39.3,3.48
2.0431,-9.507,-1.1986,-0.040317,0.0067195,-0.016493,8.28,39.3,3.66
2.1248,-9.4934,-1.1986,-0.04215,0.02474,-0.0067195,8.4,39.18,3.48
2.0703,-9.4934,-1.2258,-0.040012,0.025962,-0.014661,8.46,39.06,3.36
2.0294,-9.4798,-1.2122,-0.033292,0.020464,-0.014355,8.52,39.12,3.42
2.0839,-9.4253,-1.2667,-0.037263,0.01069,-0.0094684,8.64,39.18,3.3
2.0839,-9.4117,-1.2258,-0.03879,0.012828,-0.011301,8.58,39.3,3.36
2.0567,-9.4934,-1.2803,-0.026267,0.011606,-0.01405,8.58,39.36,3.24
2.0294,-9.507,-1.1986,-0.027794,0.024435,-0.0045815,8.7,39.3,3.48
2.1112,-9.4934,-1.2803,-0.032681,0.025656,0.0067195,8.64,39.48,3.6
2.1384,-9.5342,-1.2258,-0.025962,0.023518,0.014661,8.46,39.54,3.54
2.1248,-9.5887,-1.185,-0.02474,0.015272,0.020159,8.46,39.66,3.36
2.2474,-9.5479,-1.1986,-0.027794,0.010996,0.018937,8.34,39.66,3.48
2.1793,-9.5479,-1.2258,-0.025351,-0.0027489,0.011301,8.46,39.72,3.42
2.1793,-9.5342,-1.2122,-0.030238,-0.019548,0.011301,8.46,39.84,3.6
2.152,-9.507,-1.185,-0.024435,-0.020159,0.0036652,8.34,39.96,3.54
2.1384,-9.507,-1.1713,-0.026878,-0.016799,0.010385,8.28,40.02,3.6
2.1248,-9.5206,-1.185,-0.027184,-0.0018326,0.011606,7.98,39.96,3.6
2.152,-9.507,-1.1713,-0.030849,0.0015272,0.015882,8.1,39.9,3.6
2.1248,-9.4798,-1.2395,-0.029016,0.0064141,0.016188,8.04,39.84,3.6
2.152,-9.4934,-1.2395,-0.0281,0.010079,0.014355,8.04,39.54,3.48
2.152,-9.4389,-1.2122,-0.03543,0.01741,0.020464,8.16,39.48,3.42
2.1656,-9.5342,-1.2122,-0.029322,0.0097738,0.010996,8.22,39.48,3.42
2.2065,-9.4661,-1.2258,-0.034514,0.0073304,0.015577,8.22,39.6,3.48
2.1929,-9.4934,-1.1986,-0.025656,-0.0042761,0.015577,8.22,39.6,3.54
2.1793,-9.4661,-1.2258,-0.026573,-0.0045815,0.011301,8.04,39.6,3.48
2.1384,-9.4389,-1.2122,-0.030238,-0.0036652,0.0097738,7.92,39.48,3.36
2.152,-9.5206,-1.185,-0.029932,-0.0024435,0.012523,8.04,39.36,3.48
2.2201,-9.5206,-1.185,-0.021686,-0.0012217,0.014966,8.1,39.3,3.42
2.2201,-9.5342,-1.2667,-0.017715,-0.0058032,0.021686,8.22,39.42,3.54
2.3155,-9.4934,-1.3212,-0.02138,-0.022602,0.01405,8.1,39.42,3.6
2.261,-9.4798,-1.2803,-0.027184,-0.029932,0.01741,8.16,39.36,3.66
2.1656,-9.5206,-1.185,-0.029627,-0.031765,0.0088575,8.1,39.48,3.66
2.152,-9.4389,-1.185,-0.035125,-0.034208,0.011606,8.1,39.54,3.72
2.1248,-9.4798,-1.1032,-0.03543,-0.040317,0.018631,8.1,39.54,3.72
2.1248,-9.4117,-1.2531,-0.036041,-0.03543,0.011912,8.04,39.36,3.72
2.0975,-9.4389,-1.1713,-0.035125,-0.024129,0.013134,8.04,39.36,3.66
2.0703,-9.507,-1.1305,-0.039401,-0.0097738,0.015882,8.1,39.36,3.6
2.0839,-9.5206,-1.2122,-0.026573,0.0061087,0.016493,8.04,39.42,3.84
2.1384,-9.507,-1.1986,-0.030238,0.0094684,0.019548,7.98,39.48,3.9
2.1248,-9.4934,-1.1577,-0.025962,0.016188,0.024435,7.92,39.6,3.78
2.1793,-9.4253,-1.185,-0.034514,0.0036652,0.022602,8.04,39.48,3.78
2.1248,-9.507,-1.1441,-0.030849,-0.011912,0.015882,8.04,39.48,3.66
2.152,-9.5206,-1.185,-0.032376,-0.010079,0.018021,8.1,39.48,3.66
2.0975,-9.507,-1.1986,-0.026573,-0.007025,0.011301,8.1,39.6,3.48
2.1248,-9.4253,-1.185,-0.019242,-0.0042761,0.016188,8.1,39.48,3.54
2.1384,-9.5206,-1.1441,-0.028405,-0.000916,0.022907,8.1,39.42,3.54
2.1384,-9.507,-1.1441,-0.036346,0.0030543,0.018326,7.98,39.3,3.54
2.1929,-9.507,-1.1577,-0.030543,0.0088575,0.019242,7.92,39.36,3.42
2.1248,-9.5206,-1.185,-0.029627,0.0064141,0.022297,7.8,39.24,3.36
2.152,-9.4389,-1.185,-0.03543,0.0079412,0.016799,7.98,39.18,3.0
2.2201,-9.4934,-1.1577,-0.027489,0.0030543,0.025351,8.04,39.24,2.94
2.2474,-9.507,-1.1713,-0.029627,-0.0048869,0.020769,8.1,39.24,3.0
2.1248,-9.4525,-1.1713,-0.030238,-0.0067195,0.021991,7.98,39.36,2.88
2.1929,-9.5615,-1.0896,-0.02474,-0.01741,0.025962,7.98,39.36,3.0
2.152,-9.5615,-1.1577,-0.023824,-0.015577,0.030849,7.98,39.24,2.94
2.1248,-9.5479,-1.1305,-0.025351,-0.015577,0.034208,7.98,39.24,3.0
2.1248,-9.4934,-1.0624,-0.020464,-0.014355,0.029932,8.1,39.24,3.18
2.0975,-9.507,-1.1305,-0.023213,-0.022907,0.029627,8.16,39.36,3.3
2.0839,-9.507,-1.1032,-0.018326,-0.027794,0.024435,8.22,39.36,3.42
2.152,-9.507,-1.1169,-0.021991,-0.0281,0.032987,8.46,39.24,3.6
2.0839,-9.5479,-1.1441,-0.018021,-0.025045,0.030238,8.64,39.3,3.78
1.9886,-9.5342,-1.0624,-0.026573,-0.019853,0.03543,8.64,39.36,3.96
2.0567,-9.5479,-1.185,-0.027489,-0.016799,0.032987,8.64,39.18,4.02
2.0294,-9.5479,-1.1305,-0.0281,-0.0042761,0.027184,8.52,39.06,4.02
2.0431,-9.507,-1.1577,-0.032987,0.014661,0.023213,8.58,39.0,4.14
2.0294,-9.5751,-1.1305,-0.031154,0.034208,0.020159,8.46,39.0,4.08
2.0703,-9.5479,-1.1032,-0.043371,0.040317,0.015577,8.58,39.18,3.9
2.152,-9.5615,-1.2395,-0.046731,0.042455,0.018326,8.64,39.18,3.84
2.1656,-9.5479,-1.1169,-0.04948,0.047037,0.01069,8.58,39.12,3.84
2.1793,-9.4661,-1.2395,-0.041539,0.040317,0.0051924,8.64,39.12,3.6
2.0975,-9.4798,-1.1713,-0.059254,0.028711,0.015882,8.76,39.18,3.54
2.0567,-9.4389,-1.1169,-0.050091,0.020769,0.015272,8.76,39.18,3.36
2.0703,-9.6023,-1.185,-0.048564,0.020464,0.011301,8.58,39.24,3.42
2.0567,-9.5342,-1.1577,-0.05284,0.013439,0.010079,8.76,39.24,3.66
2.0567,-9.616,-1.2122,-0.040623,0.01405,0.018631,8.76,39.18,3.66
2.0567,-9.5615,-1.1577,-0.040623,0.010996,0.016493,8.82,39.0,3.78
2.0839,-9.5206,-1.0896,-0.040317,0.014661,0.0088575,8.7,39.24,3.9
2.0567,-9.5751,-1.1577,-0.040623,0.027184,0.012828,8.7,39.06,3.9
2.0975,-9.5479,-1.1169,-0.045204,0.029322,0.022907,8.58,39.12,3.78
2.152,-9.4525,-1.1577,-0.042455,0.031765,0.02474,8.64,39.18,3.84
2.1384,-9.4798,-1.1577,-0.04612,0.022297,0.021991,8.76,39.24,3.96
2.1793,-9.4389,-1.1169,-0.043982,0.0082467,0.012523,8.76,39.24,3.84
2.1656,-9.5479,-1.185,-0.039095,-0.000611,0.014966,8.7,39.42,3.78
2.0703,-9.5342,-1.185,-0.036652,0.007025,0.019548,8.7,39.36,3.78
2.1248,-9.5615,-1.1305,-0.036346,0.0045815,0.014661,8.58,39.42,3.72
2.0839,-9.507,-1.185,-0.032376,0.0018326,0.015882,8.7,39.3,3.36
2.0839,-9.4798,-1.2258,-0.037568,0.000916,0.019242,8.64,39.48,3.48
2.0975,-9.4389,-1.076,-0.029932,0.0039706,0.014661,8.46,39.3,3.72
2.1112,-9.4934,-1.1169,-0.030849,0.0058032,0.013744,8.58,39.24,3.78
2.152,-9.4661,-1.1577,-0.025045,0.016188,0.012828,8.52,39.24,3.6
2.0158,-9.507,-1.1305,-0.027794,0.013134,0.020464,8.52,39.3,3.54
2.1656,-9.507,-1.1441,-0.025351,0.01069,0.025656,8.52,39.36,3.6
2.2201,-9.507,-1.2122,-0.033903,0.0027489,0.027489,8.58,39.42,3.66
2.1793,-9.4798,-1.1986,-0.030238,-0.0088575,0.017104,8.7,39.48,3.72
2.1384,-9.507,-1.185,-0.02138,-0.011606,0.029932,8.46,39.3,3.84
2.152,-9.507,-1.1032,-0.029627,-0.027184,0.024435,8.58,39.36,3.84
2.0839,-9.4798,-1.1577,-0.027489,-0.023824,0.027794,8.52,39.48,3.54
2.1248,-9.616,-1.1713,-0.026573,-0.028711,0.034819,8.46,39.48,3.48
2.0975,-9.5479,-1.1169,-0.023213,-0.033598,0.036041,8.46,39.48,3.54
2.0975,-9.5479,-1.1577,-0.022907,-0.039706,0.037263,8.4,39.48,3.36
2.1112,-9.5479,-1.185,-0.015882,-0.043371,0.034819,8.46,39.3,3.6
1.975,-9.507,-1.1441,-0.025962,-0.047953,0.039095,8.58,39.24,3.6
2.0294,-9.5615,-1.1032,-0.023518,-0.048869,0.040623,8.34,39.12,3.54
2.0431,-9.5479,-1.1577,-0.024435,-0.045815,0.03879,8.28,39.12,3.54
2.0158,-9.507,-1.0896,-0.033292,-0.029016,0.034819,8.28,39.12,3.54
2.0022,-9.4798,-1.0624,-0.029016,-0.022907,0.027489,8.28,39.18,3.54
2.0567,-9.5342,-1.076,-0.037874,-0.0094684,0.0281,8.16,39.12,3.78
2.0158,-9.5479,-1.1713,-0.034208,-0.000916,0.022297,8.04,39.0,3.72
1.9341,-9.507,-1.0896,-0.037263,0.011301,0.03146,8.1,39.0,3.72
2.0294,-9.4934,-1.1577,-0.04215,0.0085521,0.025351,8.04,39.0,3.48
2.0294,-9.5751,-1.2258,-0.040623,0.012828,0.023213,8.1,38.88,3.54
2.0158,-9.5751,-1.1577,-0.042761,0.010996,0.021686,8.04,38.76,3.42
2.0294,-9.5479,-1.1577,-0.039401,0.015272,0.026573,8.16,38.82,3.54
1.9613,-9.4934,-1.1169,-0.036041,0.021991,0.020464,8.34,38.7,3.36
2.0567,-9.5615,-1.185,-0.029932,0.016493,0.022602,8.46,38.64,3.24
2.0431,-9.507,-1.2122,-0.037568,0.016188,0.020769,8.52,38.52,3.06
2.0294,-9.5206,-1.185,-0.039401,0.023213,0.027489,8.64,38.64,3.18
2.0294,-9.4798,-1.1577,-0.036346,0.025045,0.015577,8.7,38.76,3.36
2.0567,-9.5887,-1.1577,-0.036652,0.028405,0.013744,8.76,38.94,3.6
2.0294,-9.5751,-1.1577,-0.041844,0.028405,0.019548,8.7,39.12,3.48
2.0975,-9.4934,-1.1169,-0.036957,0.031154,0.025962,8.76,39.06,3.42
2.1112,-9.4661,-1.2395,-0.04215,0.021075,0.021075,8.82,39.12,3.36
2.0294,-9.4934,-1.1577,-0.047037,0.016188,0.017715,8.76,39.18,3.18
1.9886,-9.5342,-1.1441,-0.040317,0.0082467,0.014355,8.76,39.3,3.12
1.975,-9.5615,-1.1577,-0.04215,0.012217,0.0085521,8.76,39.36,3.3
2.0158,-9.5887,-1.1169,-0.043066,0.026878,0.010079,8.76,39.48,3.06
2.0294,-9.5206,-1.1713,-0.038485,0.029016,0.010079,8.82,39.42,3.0
1.975,-9.5206,-1.1986,-0.040623,0.025656,0.012523,8.7,39.42,2.88
1.9886,-9.5206,-1.2531,-0.03879,0.024435,0.012828,8.82,39.42,3.0
1.9886,-9.4389,-1.2258,-0.034514,0.021991,0.01069,8.88,39.42,3.0
2.0567,-9.5206,-1.1577,-0.043677,0.023518,0.011606,8.94,39.42,2.88
2.0431,-9.5751,-1.1577,-0.040623,0.018631,0.016799,9.0,39.3,3.24
2.0703,-9.5751,-1.0351,-0.039095,0.010996,0.018937,8.94,39.24,3.18
2.0839,-9.5479,-1.0624,-0.035125,0.000916,0.023213,8.88,39.24,3.24
2.0294,-9.5206,-1.185,-0.033903,-0.011912,0.016493,9.0,39.12,3.42
2.0294,-9.4253,-1.1305,-0.030849,-0.013744,0.017715,8.82,39.18,3.42
2.0567,-9.4798,-1.1713,-0.033292,-0.0058032,0.013744,8.94,39.12,3.48
2.0294,-9.5887,-1.2803,-0.036652,-0.0054978,0.016188,9.0,39.06,3.66
2.0431,-9.5206,-1.1441,-0.039095,-0.0027489,0.019242,8.7,38.94,3.84
2.0839,-9.5751,-1.1577,-0.038485,-0.0058032,0.020159,8.64,39.0,3.9
2.0294,-9.507,-1.185,-0.032681,-0.009163,0.025656,8.64,39.0,3.9
2.0703,-9.5206,-1.2258,-0.033903,-0.011301,0.021075,8.58,39.0,3.96
2.0294,-9.5206,-1.1713,-0.028711,-0.011606,0.019853,8.82,38.82,3.96
1.9613,-9.507,-1.1713,-0.033598,-0.012828,0.022907,8.82,38.64,3.84
1.9886,-9.5479,-1.1986,-0.03146,-0.016188,0.019242,9.0,38.58,3.9
1.9886,-9.5615,-1.2395,-0.031154,-0.016493,0.018631,8.94,38.64,3.78
2.0431,-9.5887,-1.1305,-0.034819,-0.011301,0.025351,9.0,38.58,3.78
2.0567,-9.5751,-1.0896,-0.028711,-0.0061087,0.015882,9.06,38.64,3.96
2.0431,-9.5751,-1.1032,-0.034208,-0.000916,0.011606,9.18,38.64,4.08
2.0022,-9.4798,-1.2531,-0.029932,-0.000916,0.016188,9.24,38.76,4.02
2.0431,-9.5479,-1.2122,-0.027184,-0.0097738,0.018326,9.24,38.94,3.96
2.0703,-9.4934,-1.1169,-0.032987,-0.007025,0.012523,9.3,39.12,4.02
2.0431,-9.507,-1.076,-0.037263,-0.0061087,0.01741,9.3,39.18,4.02
2.0703,-9.5342,-1.2258,-0.033903,-0.014966,0.019853,9.18,39.36,4.02
2.0567,-9.4798,-1.185,-0.039095,-0.019853,0.021686,9.18,39.36,4.08
2.0975,-9.5342,-1.1577,-0.035125,-0.027184,0.016493,9.06,39.3,3.84
2.0567,-9.507,-1.185,-0.030849,-0.033292,0.015577,9.0,39.42,3.84
2.0839,-9.5342,-1.1577,-0.035125,-0.029932,0.021991,9.0,39.18,3.66
2.0294,-9.5206,-1.1169,-0.029932,-0.019548,0.016493,8.94,39.18,3.66
1.9613,-9.5479,-1.1986,-0.034514,-0.0085521,0.0085521,8.94,39.24,3.78
2.0567,-9.5751,-1.1305,-0.032681,0.0024435,0.01741,8.88,39.12,3.9
2.0839,-9.5887,-1.1713,-0.031765,0.0036652,0.025351,8.88,39.24,4.08
2.0294,-9.5206,-1.185,-0.033292,0.011912,0.023213,8.88,39.36,3.96
1.9886,-9.4798,-1.2395,-0.03207,0.000611,0.022602,8.94,39.3,4.02
2.0839,-9.4525,-1.185,-0.030238,-0.0058032,0.027794,8.64,39.24,4.14
2.0431,-9.4798,-1.1713,-0.035736,-0.0048869,0.025656,8.7,39.36,4.08
2.0567,-9.5206,-1.076,-0.032987,0.0036652,0.0085521,8.64,39.42,3.96
2.0158,-9.5206,-1.1441,-0.033598,0.01741,0.0076358,8.52,39.48,4.02
1.975,-9.5479,-1.2122,-0.032376,0.026267,0.0085521,8.64,39.36,4.14
2.0839,-9.5751,-1.2122,-0.032376,0.03207,0.012523,8.52,39.3,3.78
2.0839,-9.5479,-1.2395,-0.034819,0.030849,0.007025,8.52,39.18,3.78
2.0567,-9.5615,-1.1713,-0.040012,0.025045,0.002138,8.46,39.12,3.84
2.0567,-9.5479,-1.2667,-0.03543,0.018326,0.000916,8.52,39.0,3.6
2.1384,-9.5751,-1.1441,-0.037874,0.01069,0.0073304,8.76,39.06,3.6
2.152,-9.5479,-1.1169,-0.034208,0.0054978,0.012523,8.64,39.06,3.66
2.0703,-9.5206,-1.076,-0.038179,-0.0027489,0.011301,8.7,38.88,3.72
2.0294,-9.507,-1.2258,-0.034208,-0.0097738,0.0079412,8.82,38.82,3.72
2.0567,-9.507,-1.1169,-0.03207,-0.010079,0.010996,8.58,38.88,3.48
1.9477,-9.507,-1.1441,-0.031765,-0.0097738,0.007025,8.64,38.94,3.6
2.0022,-9.5479,-1.1169,-0.038179,-0.002138,0.011301,8.7,38.94,3.78
2.0294,-9.5479,-1.1577,-0.027489,-0.007025,0.012828,8.64,39.0,3.6
2.0567,-9.5342,-1.185,-0.029016,-0.012523,0.012523,8.64,39.06,3.6
2.0294,-9.4934,-1.3076,-0.029932,-0.022907,0.015577,8.64,39.12,3.48
2.0703,-9.4661,-1.185,-0.032681,-0.024129,0.01405,8.58,39.06,3.48
2.152,-9.5342,-1.1305,-0.032376,-0.014661,0.011301,8.58,39.18,3.42
2.0294,-9.5751,-1.185,-0.030238,-0.013439,0.017104,8.52,39.24,3.54
1.9886,-9.5479,-1.2258,-0.02474,-0.010079,0.019853,8.4,39.42,3.6
2.0975,-9.5479,-1.185,-0.032681,-0.009163,0.015272,8.58,39.36,3.6
2.0567,-9.4661,-1.185,-0.027794,-0.013134,0.020769,8.46,39.36,3.42
2.0294,-9.5206,-1.1986,-0.03207,-0.01069,0.018021,8.58,39.48,3.42
2.0294,-9.4798,-1.2122,-0.025351,-0.017104,0.012828,8.58,39.48,3.48
2.0567,-9.5479,-1.1441,-0.028711,-0.025045,0.01741,8.52,39.48,3.24
2.0567,-9.5479,-1.185,-0.030849,-0.023518,0.024435,8.52,39.54,3.36
2.0567,-9.5206,-1.2122,-0.03146,-0.028711,0.025045,8.4,39.48,3.36
2.0839,-9.5887,-1.1577,-0.026573,-0.025656,0.024435,8.4,39.42,3.48
2.0567,-9.4661,-1.2258,-0.030238,-0.01405,0.022907,8.28,39.42,3.54
1.9613,-9.5206,-1.2122,-0.03207,-0.015882,0.021075,8.34,39.36,3.6
1.9477,-9.5751,-1.2803,-0.032681,-0.0018326,0.014966,8.4,39.42,3.3
1.9886,-9.5342,-1.1305,-0.041539,-0.0012217,0.018021,8.34,39.3,3.24
1.975,-9.5479,-1.185,-0.036346,-0.0039706,0.014661,8.4,39.48,3.12
1.9613,-9.5615,-1.1032,-0.042761,0.0064141,0.022602,8.4,39.42,3.18
1.9477,-9.6296,-1.0896,-0.040317,0.021686,0.024129,8.4,39.42,3.06
1.9613,-9.6023,-1.0896,-0.031765,0.0281,0.023213,8.22,39.36,3.12
1.9886,-9.507,-1.1032,-0.033598,0.026878,0.021686,8.22,39.36,3.12
2.1248,-9.5342,-1.185,-0.031154,0.017104,0.023824,8.28,39.3,3.12
2.1248,-9.507,-1.185,-0.040317,-0.0015272,0.020159,8.28,39.36,3.12
2.0158,-9.5479,-1.1713,-0.031765,-0.011301,0.013439,8.04,39.36,3.18
2.0158,-9.507,-1.1577,-0.044899,-0.0033598,0.011912,8.22,39.3,3.18
2.0294,-9.5615,-1.1305,-0.03207,0.009163,0.011606,8.1,39.36,3.18
2.0294,-9.4661,-0.99429,-0.03207,0.018021,0.011301,8.28,39.24,3.24
2.0839,-9.507,-1.185,-0.036346,0.025962,0.013439,8.22,39.3,3.3
2.0294,-9.4798,-1.0624,-0.035125,0.033292,0.01069,8.16,39.24,3.36
2.0567,-9.4934,-1.1169,-0.039401,0.032681,-0.000305,8.04,39.12,3.42
2.0022,-9.4389,-1.1577,-0.037263,0.039095,0.0067195,8.1,39.12,3.48
2.0839,-9.5206,-1.1986,-0.041539,0.036957,0.011606,8.22,39.06,3.48
2.1248,-9.5342,-1.1713,-0.030543,0.030849,0.0045815,8.28,39.06,3.54
2.0839,-9.507,-1.2122,-0.036041,0.024435,0.007025,8.16,39.12,3.48
2.0294,-9.4661,-1.185,-0.039095,0.015272,0.0082467,8.28,39.24,3.36
2.0294,-9.4798,-1.185,-0.03543,0.0076358,0.0033598,8.46,39.12,3.36
2.0294,-9.507,-1.1577,-0.032376,0.0094684,0.0018326,8.46,39.24,3.24
2.0975,-9.507,-1.1169,-0.036041,0.015577,0.0079412,8.46,39.24,3.18
2.0839,-9.5342,-1.1305,-0.036041,0.0097738,0.010079,8.28,39.36,3.42
2.0839,-9.5342,-1.1032,-0.030543,0.010079,0.007025,8.34,39.3,3.42
2.0703,-9.5206,-1.0624,-0.035736,0.0036652,0.011301,8.28,39.18,3.3
2.0839,-9.5479,-1.2122,-0.035125,0.0015272,0.0042761,8.4,39.18,3.24
2.1112,-9.5751,-1.1032,-0.034208,0.0061087,0.0079412,8.22,39.12,3.06
1.9886,-9.5479,-1.1577,-0.036346,0.0018326,0.015882,8.28,39.18,3.12
2.0567,-9.4389,-1.1441,-0.035736,0.000916,0.000916,8.22,39.18,3.12
2.0975,-9.5342,-1.1577,-0.032681,-0.0012217,0.010385,8.28,39.06,3.0
2.0975,-9.507,-1.185,-0.037874,-0.010385,0.01405,8.22,38.94,3.06
2.0975,-9.507,-1.2122,-0.029627,-0.0088575,0.017715,8.1,38.94,3.0
2.0839,-9.5206,-1.1577,-0.02474,-0.015882,0.010996,7.98,38.94,3.06
2.0703,-9.507,-1.2531,-0.033292,-0.01741,0.010996,8.04,38.94,3.18
2.0975,-9.5342,-1.1986,-0.036041,-0.021686,0.012217,8.22,38.88,3.0
2.1248,-9.507,-1.1032,-0.037263,-0.018631,0.021075,8.22,38.82,2.94
2.0839,-9.4798,-1.2258,-0.03207,-0.018326,0.016799,8.22,38.88,2.94
1.9886,-9.507,-1.2531,-0.03146,-0.011912,0.015272,8.22,38.88,3.0
2.0839,-9.5479,-1.1986,-0.031154,-0.0064141,0.018631,8.34,39.12,3.18
2.1248,-9.3708,-1.1169,-0.027489,-0.010385,0.016188,8.34,39.06,3.06
2.1248,-9.4934,-1.1441,-0.037263,-0.0085521,0.016493,8.46,39.12,3.12
2.0567,-9.3436,-1.1169,-0.029932,-0.010996,0.010385,8.4,39.12,3.06
1.9886,-9.5206,-1.1305,-0.035736,-0.0045815,0.01405,8.46,39.12,3.06
1.9613,-9.6023,-1.2258,-0.025351,0.0012217,0.021991,8.4,39.12,3.12
2.0294,-9.4934,-1.185,-0.025351,-0.0030543,0.029322,8.46,39.0,3.12
2.1248,-9.4389,-1.1577,-0.021686,-0.020159,0.03207,8.52,39.06,3.12
2.0839,-9.507,-1.1577,-0.023213,-0.025656,0.035125,8.52,39.12,3.12
2.0975,-9.4798,-1.1441,-0.020769,-0.039401,0.033598,8.58,39.24,3.18
2.1248,-9.5342,-1.1169,-0.03146,-0.043066,0.029932,8.52,39.24,3.12
1.9886,-9.5887,-1.2258,-0.027794,-0.035125,0.030238,8.52,39.24,3.18
2.0431,-9.5887,-1.185,-0.03146,-0.025656,0.026573,8.52,39.18,3.24
2.0567,-9.5479,-1.2258,-0.03543,-0.018326,0.036346,8.4,39.12,3.36
1.9886,-9.5479,-1.1577,-0.038485,-0.01405,0.031154,8.52,39.06,3.24
2.0022,-9.4661,-1.2258,-0.03146,-0.0015272,0.02138,8.46,38.94,3.24
1.9886,-9.4934,-1.2122,-0.035125,0.0097738,0.0076358,8.52,38.88,3.36
2.0839,-9.5206,-1.1441,-0.04215,0.021075,0.016799,8.28,38.88,3.48
2.0567,-9.507,-1.1577,-0.037874,0.023824,0.0097738,8.46,38.94,3.42
2.0567,-9.5342,-1.1032,-0.039401,0.023213,0.014355,8.4,38.88,3.36
2.0431,-9.4525,-1.1441,-0.032681,0.01405,0.0088575,8.52,38.94,3.36
2.0158,-9.4934,-1.1441,-0.031154,0.0058032,0.012828,8.52,39.0,3.48
1.9886,-9.507,-1.1577,-0.025962,0.011301,0.018021,8.64,39.0,3.48
1.9886,-9.507,-1.1441,-0.02138,0.019242,0.025351,8.52,38.88,3.6
2.0975,-9.5751,-1.1032,-0.01405,0.016493,0.029016,8.46,38.88,3.6
2.1384,-9.5751,-1.2122,-0.02474,0.011606,0.037263,8.52,39.0,3.66
2.152,-9.5615,-1.1577,-0.022907,-0.011301,0.045204,8.34,39.18,3.54
2.0975,-9.5206,-1.185,-0.020464,-0.018326,0.034514,8.52,39.06,3.6
2.0975,-9.507,-1.1986,-0.035736,-0.023518,0.034514,8.52,39.06,3.54
2.0703,-9.4661,-1.1169,-0.028711,-0.025656,0.022907,8.64,39.18,3.24
1.9886,-9.5479,-1.0624,-0.036346,-0.015272,0.027184,8.7,39.3,3.36
1.9613,-9.5206,-1.0896,-0.042761,-0.011606,0.023213,8.7,39.42,3.36
1.9613,-9.5206,-1.0896,-0.041233,0.0054978,0.01405,8.64,39.48,3.36
1.975,-9.5479,-1.185,-0.047342,0.0073304,0.014355,8.7,39.48,3.48
2.0839,-9.507,-1.2531,-0.054978,0.007025,0.011912,8.58,39.3,3.24
2.0294,-9.507,-1.0896,-0.067806,0.0042761,-0.0018326,8.58,39.24,3.3
1.9341,-9.4798,-1.185,-0.062919,0.032376,-0.012217,8.76,39.48,3.06
1.866,-9.4389,-1.1032,-0.055589,0.062003,-0.019853,8.88,39.36,3.06
1.9341,-9.4117,-1.0215,-0.058338,0.062003,-0.022907,8.88,39.24,3.24
1.8932,-9.4117,-1.0215,-0.049786,0.067501,-0.019853,8.64,39.24,3.06
1.8932,-9.4798,-1.0215,-0.035736,0.0956,-0.017104,8.7,39.18,3.18
1.975,-9.4934,-1.0624,-0.023518,0.10476,-0.0067195,8.7,39.18,3.12
2.0839,-9.6432,-1.185,-0.016188,0.096517,0.011606,8.76,39.12,3.3
2.1929,-9.6432,-1.2531,-0.0064141,0.057116,0.037263,8.76,39.06,3.24
2.2474,-9.507,-1.2395,-0.010996,0.035125,0.044288,8.7,39.12,3.24
2.3155,-9.5615,-1.2395,-0.019242,-0.0085521,0.037874,8.7,39.12,3.3
2.3018,-9.5479,-1.3212,-0.026573,-0.041539,0.039401,8.7,39.12,3.36
2.2474,-9.5206,-1.185,-0.031765,-0.068111,0.028405,8.82,39.24,3.36
2.0703,-9.5751,-1.1305,-0.037263,-0.07025,0.02474,8.7,39.06,3.54
2.0294,-9.5206,-1.0896,-0.033598,-0.03543,0.013439,8.58,39.12,3.48
2.0022,-9.5342,-1.1305,-0.04948,-0.026267,0.01069,8.7,39.18,3.42
2.0294,-9.507,-1.1577,-0.041233,0.021686,-0.002138,8.82,39.3,3.42
2.0431,-9.5206,-1.1577,-0.050396,0.036346,0.0024435,8.88,39.42,3.48
2.0294,-9.3436,-1.1441,-0.044288,0.048258,0.0064141,8.94,39.42,3.6
2.1384,-9.507,-1.2122,-0.043677,0.038485,-0.0039706,8.76,39.48,3.6
2.0839,-9.507,-1.2122,-0.048258,0.029932,-0.0054978,8.82,39.6,3.66
2.1248,-9.4798,-1.1577,-0.043066,0.0067195,0.009163,8.82,39.48,3.66
2.152,-9.507,-1.1441,-0.030543,-0.0027489,0.010996,8.76,39.42,3.72
2.152,-9.5751,-1.1713,-0.028711,-0.019548,0.018326,8.76,39.48,3.78
2.1929,-9.507,-1.1577,-0.027489,-0.044593,0.02474,8.64,39.48,3.72
2.152,-9.4934,-1.1441,-0.025351,-0.069639,0.030238,8.58,39.54,3.78
2.152,-9.4934,-1.1713,-0.014661,-0.10018,0.026573,8.52,39.48,3.66
2.0975,-9.5887,-1.1713,-0.019242,-0.11332,0.021991,8.58,39.66,3.66
2.0703,-9.5479,-1.185,-0.028405,-0.10446,0.020159,8.58,39.54,3.78
1.9613,-9.5342,-1.1169,-0.032376,-0.082772,0.014355,8.46,39.36,3.54
1.9205,-9.5342,-1.0624,-0.034208,-0.054672,0.016493,8.58,39.36,3.36
1.9341,-9.5751,-1.0624,-0.033903,-0.014661,0.012217,8.46,39.36,3.3
2.0567,-9.5887,-1.1032,-0.032987,0.01741,0.010385,8.52,39.42,3.42
2.0431,-9.5615,-1.2258,-0.03543,0.034514,0.014661,8.46,39.42,3.36
2.0567,-9.5751,-1.185,-0.036041,0.034819,0.013134,8.52,39.36,3.3
2.1248,-9.5206,-1.1169,-0.036346,0.030238,0.016188,8.46,39.36,3.12
2.1248,-9.5206,-1.2395,-0.033292,0.011606,0.018326,8.64,39.3,3.06
2.152,-9.5342,-1.2258,-0.042455,-0.0076358,0.018937,8.58,39.36,2.94
2.2201,-9.507,-1.185,-0.041233,-0.026267,0.017104,8.64,39.36,3.12
2.1929,-9.4798,-1.2667,-0.032681,-0.050091,0.025045,8.64,39.3,3.18
2.1793,-9.4389,-1.2531,-0.034819,-0.051007,0.025656,8.7,39.36,3.3
2.1248,-9.4934,-1.1305,-0.034208,-0.051924,0.022297,8.52,39.36,3.42
2.0975,-9.4798,-1.0896,-0.037568,-0.045815,0.028711,8.46,39.3,3.54
2.0294,-9.5206,-1.1169,-0.03146,-0.037568,0.025045,8.52,39.36,3.6
2.0839,-9.4661,-1.1713,-0.0281,-0.037263,0.025351,8.28,39.24,3.48
2.0839,-9.5342,-1.1577,-0.034514,-0.037263,0.021686,8.52,39.06,3.36
2.0839,-9.4661,-1.0896,-0.033292,-0.031765,0.023213,8.46,39.06,3.36
2.1384,-9.4661,-1.2122,-0.03146,-0.039095,0.029627,8.4,38.88,3.42
1.9886,-9.5206,-1.1577,-0.028711,-0.044288,0.014966,8.7,39.0,3.36
1.9886,-9.5206,-1.1577,-0.028711,-0.044288,0.014966,8.7,39.0,3.36
1.9886,-9.507,-1.1169,-0.025962,-0.051313,0.013134,8.76,38.82,3.36
1.9613,-9.4934,-1.1032,-0.028405,-0.034819,0.019548,8.76,38.88,3.42
2.0567,-9.4934,-1.1169,-0.026573,-0.033292,0.025045,8.7,38.88,3.3
2.0294,-9.507,-1.0624,-0.029932,-0.02474,0.029016,8.82,38.88,3.3
2.0294,-9.507,-1.0896,-0.024435,-0.022907,0.034208,8.88,38.88,3.18
1.9886,-9.4525,-1.185,-0.022602,-0.029322,0.02474,9.0,38.94,3.36
2.0703,-9.4798,-1.1305,-0.02474,-0.036346,0.022907,9.06,39.0,3.3
2.0158,-9.616,-1.185,-0.022907,-0.03146,0.020464,8.88,39.18,3.3
2.0839,-9.5479,-1.185,-0.032376,-0.019242,0.025962,8.88,39.24,3.18
2.0567,-9.616,-1.0896,-0.037568,-0.025351,0.016493,8.88,39.42,3.18
2.0431,-9.5206,-1.1577,-0.041844,-0.011606,0.018937,8.7,39.3,3.3
2.0022,-9.4661,-1.2531,-0.059559,0.0094684,0.0036652,8.64,39.24,3.48
1.9886,-9.4389,-1.185,-0.05681,0.03543,-0.0024435,8.64,39.42,3.36
1.9613,-9.4525,-1.0624,-0.059865,0.054367,-0.011912,8.76,39.18,3.42
2.0294,-9.507,-1.1577,-0.055589,0.076969,-0.016493,8.82,39.3,3.48
2.0839,-9.4934,-1.185,-0.061087,0.079107,-0.013744,8.94,39.48,3.48
2.0703,-9.507,-1.1441,-0.052534,0.075747,-0.02138,8.88,39.42,3.54
2.1384,-9.4798,-1.3076,-0.053756,0.066584,-0.026267,8.88,39.42,3.48
2.0975,-9.5206,-1.185,-0.053756,0.06017,-0.016799,8.88,39.36,3.54
2.1248,-9.5615,-1.2122,-0.044593,0.044593,-0.01069,8.94,39.48,3.54
2.1248,-9.5751,-1.1713,-0.046426,0.027489,-0.012828,8.88,39.54,3.6
2.1112,-9.5751,-1.2122,-0.038179,0.015577,-0.0082467,8.82,39.66,3.36
2.1384,-9.507,-1.2258,-0.043982,-0.0076358,-0.000916,8.88,39.54,3.48
2.1384,-9.4661,-1.1713,-0.035125,-0.021991,0.0064141,8.76,39.66,3.42
2.0839,-9.507,-1.2531,-0.029322,-0.021686,0.011301,8.64,39.72,3.36
2.0839,-9.5751,-1.2258,-0.021991,-0.029322,0.016799,8.58,39.78,3.42
2.1248,-9.5342,-1.185,-0.031765,-0.033292,0.027184,8.58,39.66,3.24
2.0703,-9.4525,-1.2667,-0.029016,-0.036346,0.025656,8.46,39.66,3.3
2.1248,-9.5206,-1.2803,-0.026878,-0.040317,0.037568,8.4,39.66,3.3
2.152,-9.4798,-1.2258,-0.029932,-0.047953,0.036957,8.4,39.6,3.3
2.0703,-9.4934,-1.2122,-0.033598,-0.053145,0.036346,8.46,39.48,3.36
2.0567,-9.507,-1.2122,-0.036652,-0.058032,0.040623,8.46,39.36,3.36
2.0567,-9.5342,-1.1577,-0.032376,-0.0562,0.036346,8.4,39.42,3.48
2.0567,-9.507,-1.2122,-0.032987,-0.049786,0.030849,8.46,39.3,3.54
2.0022,-9.4798,-1.2258,-0.033292,-0.041844,0.025351,8.4,39.3,3.54
1.975,-9.4389,-1.185,-0.034819,-0.0281,0.029932,8.46,39.12,3.54
1.9613,-9.507,-1.185,-0.036346,-0.019242,0.024435,8.58,39.12,3.72
1.9886,-9.4798,-1.2258,-0.025351,-0.009163,0.024435,8.64,39.24,3.72
1.975,-9.4389,-1.2803,-0.027794,0.0085521,0.022297,8.46,39.18,3.72
1.9886,-9.5479,-1.2531,-0.029016,0.011301,0.020769,8.46,39.12,3.66
1.9886,-9.5479,-1.2531,-0.025351,0.021991,0.025962,8.58,39.24,3.66
2.0975,-9.4661,-1.2122,-0.029016,0.01405,0.028711,8.52,39.42,3.66
2.0703,-9.507,-1.1577,-0.026573,0.013439,0.030543,8.52,39.36,3.48
2.0294,-9.4661,-1.1713,-0.025962,0.013744,0.019548,8.64,39.36,3.54
2.0703,-9.4389,-1.1577,-0.027489,0.012217,0.018021,8.7,39.36,3.54
2.0839,-9.4934,-1.185,-0.030849,0.000916,0.01405,8.64,39.24,3.6
2.0567,-9.507,-1.1169,-0.030238,-0.000305,0.019548,8.7,39.36,3.54
2.0158,-9.507,-1.185,-0.036041,0.0048869,0.027794,8.76,39.42,3.6
2.0975,-9.507,-1.185,-0.029016,0.009163,0.015882,8.76,39.36,3.48
2.0022,-9.507,-1.2122,-0.0281,0.0030543,0.021075,8.7,39.42,3.36
2.0294,-9.4798,-1.185,-0.033903,0.0045815,0.012523,8.76,39.48,3.42
2.0022,-9.5479,-1.2667,-0.032376,0.010996,0.014661,8.82,39.42,3.42
2.0158,-9.5206,-1.185,-0.043371,0.011912,0.021991,8.82,39.48,3.42
2.1112,-9.507,-1.185,-0.034514,0.012523,0.018021,8.76,39.36,3.54
2.0975,-9.5479,-1.2803,-0.039095,0.0064141,0.017715,8.76,39.3,3.66
2.0975,-9.5887,-1.185,-0.044899,0.011301,0.014355,8.58,39.24,3.6
2.0022,-9.5615,-1.2395,-0.040928,-0.0012217,0.015272,8.4,39.18,3.66
2.0703,-9.5479,-1.2395,-0.043982,0.0076358,0.0097738,8.4,39.3,3.48
2.0431,-9.5751,-1.2258,-0.046731,0.01069,0.013134,8.34,39.24,3.36
2.0294,-9.507,-1.1713,-0.03879,0.0027489,0.012523,8.34,39.24,3.36
2.0294,-9.4798,-1.2258,-0.049175,-0.0054978,0.010385,8.28,39.18,3.42
2.0567,-9.507,-1.1169,-0.053756,-0.0039706,0.0045815,8.16,39.0,3.42
2.0975,-9.507,-1.2258,-0.058338,-0.016493,0.0012217,8.22,38.94,3.36
2.1248,-9.5479,-1.2258,-0.047953,-0.032681,0.0018326,8.22,38.82,3.18
2.0294,-9.5206,-1.1986,-0.056505,-0.035736,-0.0024435,8.22,38.82,3.12
1.9886,-9.4661,-1.1305,-0.062614,-0.029932,-0.0051924,8.28,38.94,3.06
1.9341,-9.4389,-1.1986,-0.060476,0.010996,-0.016799,8.28,38.94,3.0
1.9886,-9.5342,-1.1577,-0.054672,0.028405,-0.014966,8.52,39.0,2.94
1.9205,-9.4934,-1.185,-0.051618,0.038179,-0.0082467,8.46,39.06,2.88
1.9477,-9.507,-1.2122,-0.041539,0.041233,-0.0045815,8.4,39.06,3.0
1.9068,-9.4525,-1.2531,-0.051313,0.06017,-0.002138,8.34,39.0,3.06
1.9205,-9.4798,-1.2939,-0.039401,0.083078,0.0024435,8.34,39.06,3.06
2.0975,-9.4661,-1.3484,-0.026878,0.082772,0.0088575,8.28,39.0,3.24
2.2882,-9.4389,-1.1986,-0.032376,0.061697,0.018631,8.4,39.12,3.24
2.2746,-9.4798,-1.1713,-0.025351,0.025351,0.027184,8.28,39.18,3.36
2.261,-9.5206,-1.2803,-0.021686,-0.024435,0.033292,8.16,39.42,3.48
2.3155,-9.507,-1.2395,-0.021075,-0.057727,0.032681,8.04,39.36,3.36
2.3018,-9.5751,-1.2803,-0.027489,-0.072082,0.039401,7.98,39.3,3.48
2.2746,-9.5615,-1.2667,-0.033903,-0.12767,0.047037,7.98,39.18,3.48
2.1248,-9.5751,-1.2395,-0.033292,-0.135,0.043982,7.92,39.18,3.48
2.0839,-9.4253,-1.2939,-0.043371,-0.12737,0.029627,8.04,39.12,3.66
2.1112,-9.507,-1.362,-0.048564,-0.11668,0.018631,8.22,39.12,3.6
2.0431,-9.4934,-1.2667,-0.049786,-0.10629,0.0094684,8.22,39.18,3.54
2.0431,-9.4798,-1.2258,-0.051618,-0.089186,0.012828,8.28,39.12,3.54
1.9205,-9.4389,-1.1169,-0.049786,-0.048258,0.0018326,8.28,39.18,3.42
1.8796,-9.4525,-1.1032,-0.055589,-0.01405,-0.0054978,8.22,39.18,3.54
1.8932,-9.507,-1.1577,-0.047342,0.025656,-0.0051924,8.34,39.24,3.42
2.0158,-9.3844,-1.2803,-0.037568,0.053145,0.009163,8.34,38.94,3.36
2.0567,-9.4661,-1.2531,-0.040317,0.052534,0.014661,8.34,39.0,3.42
2.0975,-9.4934,-1.2531,-0.031765,0.052229,0.013439,8.4,38.94,3.36
2.2201,-9.4661,-1.2667,-0.029627,0.035125,0.0097738,8.34,39.12,3.24
2.2474,-9.4798,-1.2803,-0.033292,0.017715,0.013134,8.28,39.18,3.18
2.2201,-9.507,-1.2531,-0.033292,-0.0094684,0.0027489,8.28,39.18,3.24
2.152,-9.4798,-1.3348,-0.037874,-0.025962,-0.0058032,8.1,39.3,3.06
2.1384,-9.4798,-1.185,-0.036041,-0.017104,0.0015272,8.1,39.3,3.06
2.0703,-9.5206,-1.1713,-0.036957,0.000916,-0.002138,8.04,39.36,3.0
1.9613,-9.4934,-1.2531,-0.032987,0.015577,-0.0045815,7.98,39.48,2.88
1.9886,-9.4934,-1.2258,-0.036346,0.025351,0.0012217,8.04,39.54,2.88
2.0158,-9.4934,-1.2395,-0.030849,0.025962,0.002138,7.98,39.42,2.88
2.1112,-9.6023,-1.3212,-0.023213,0.030543,0.0048869,7.86,39.48,3.06
2.0567,-9.507,-1.2803,-0.03543,0.022907,0.016799,7.92,39.48,3.12
2.1112,-9.5342,-1.3212,-0.027489,0.018937,0.015882,7.8,39.48,3.18
2.152,-9.5342,-1.2667,-0.025351,-0.017104,0.023518,7.8,39.36,3.54
2.152,-9.5479,-1.2939,-0.019853,-0.032376,0.022602,7.86,39.3,3.6
2.1929,-9.5206,-1.185,-0.025351,-0.054062,0.031765,7.92,39.3,3.6
2.1656,-9.5479,-1.2803,-0.023518,-0.063225,0.035736,7.92,39.12,3.54
2.0975,-9.5479,-1.2122,-0.030238,-0.07422,0.033292,7.98,39.18,3.42
2.0567,-9.5206,-1.2531,-0.034819,-0.058338,0.027489,8.04,39.0,3.36
2.0567,-9.4798,-1.3484,-0.027184,-0.036041,0.03207,7.98,38.94,3.24
1.9886,-9.4525,-1.3212,-0.036346,-0.014966,0.029322,7.98,38.94,3.18
2.0294,-9.5206,-1.2939,-0.032376,-0.0033598,0.036346,8.1,39.0,3.24
2.0703,-9.5206,-1.3484,-0.03146,0.000305,0.040928,8.28,39.0,3.24
2.0431,-9.5615,-1.2258,-0.036041,0.000916,0.027794,8.28,39.18,3.12
2.1112,-9.5751,-1.2258,-0.044899,0.0027489,0.026267,8.46,39.18,3.18
2.0839,-9.5615,-1.3212,-0.045204,0.0018326,0.036652,8.58,39.24,3.18
2.0294,-9.4798,-1.2939,-0.042455,-0.0039706,0.036652,8.46,39.12,3.18
2.0294,-9.4934,-1.2258,-0.03879,-0.0054978,0.035736,8.34,39.18,3.18
2.0975,-9.4253,-1.2667,-0.043371,-0.0036652,0.040317,8.4,39.06,3.36
1.9886,-9.4253,-1.2531,-0.041233,0.000611,0.041539,8.4,39.06,3.54
1.9886,-9.4798,-1.2258,-0.034819,0.015272,0.038179,8.4,39.24,3.6
2.0158,-9.4798,-1.2667,-0.036957,0.025045,0.03543,8.52,39.12,3.66
2.0158,-9.4798,-1.2667,-0.033903,0.02138,0.03879,8.52,39.12,3.54
2.0022,-9.4798,-1.2531,-0.032681,0.022602,0.037263,8.58,39.06,3.54
2.1248,-9.5206,-1.2395,-0.037874,0.020464,0.040317,8.46,39.0,3.66
2.0294,-9.5479,-1.2258,-0.033598,0.010996,0.029322,8.46,38.88,3.6
2.0294,-9.5751,-1.2122,-0.026573,0.0048869,0.030543,8.58,38.76,3.66
2.0839,-9.5342,-1.2667,-0.017715,-0.012217,0.031765,8.58,38.82,3.48
2.0294,-9.4389,-1.3757,-0.019853,-0.013134,0.033903,8.64,38.7,3.36
1.9886,-9.4798,-1.2258,-0.029932,-0.0076358,0.022602,8.64,38.82,3.66
1.9205,-9.4253,-1.2122,-0.0281,0.0097738,0.019242,8.64,38.82,3.54
1.9341,-9.4525,-1.1032,-0.027489,0.047342,0.000305,8.64,38.76,3.6
2.0022,-9.5206,-1.1441,-0.02474,0.081856,0.010385,8.82,38.64,3.48
1.9886,-9.5479,-1.1577,-0.018021,0.10721,0.010385,8.76,38.64,3.48
1.9613,-9.5751,-1.2531,-0.02474,0.11301,0.016188,8.88,38.46,3.54
2.0567,-9.4934,-1.2667,-0.026573,0.10873,0.014355,8.88,38.58,3.48
2.1384,-9.4798,-1.3076,-0.023824,0.091019,0.0064141,8.82,38.64,3.54
2.152,-9.507,-1.3212,-0.029627,0.073304,0.0027489,8.7,38.76,3.54
2.1248,-9.5342,-1.2258,-0.039706,0.056505,-0.0012217,8.64,38.7,3.48
2.0975,-9.5206,-1.2395,-0.039401,0.041844,-0.0030543,8.58,38.88,3.42
2.0294,-9.4798,-1.1577,-0.040623,0.040928,-0.0076358,8.46,39.0,3.12
2.0839,-9.4525,-1.2122,-0.039401,0.039095,-0.014355,8.46,38.94,3.24
2.0431,-9.4934,-1.1305,-0.038485,0.046426,-0.012828,8.46,38.94,3.3
2.0839,-9.5206,-1.1032,-0.034208,0.055589,-0.010996,8.28,39.3,3.06
2.0567,-9.5342,-1.185,-0.03207,0.065363,-0.009163,8.22,39.3,3.06
2.0294,-9.5751,-1.2531,-0.033292,0.067195,-0.0061087,8.22,39.36,3.0
2.0703,-9.5479,-1.2258,-0.03543,0.057727,-0.0024435,8.4,39.24,3.0
2.0839,-9.5479,-1.2803,-0.029932,0.053451,0.0058032,8.34,39.18,3.06
2.1112,-9.5615,-1.2667,-0.034514,0.034819,0.009163,8.46,39.18,3.0
2.2201,-9.4798,-1.2803,-0.03543,0.025045,0.0039706,8.4,39.06,3.18
2.1793,-9.4661,-1.1713,-0.034208,0.0030543,0.0082467,8.4,39.0,3.12
2.1929,-9.5615,-1.1577,-0.033292,-0.0073304,0.0042761,8.34,38.88,3.06
2.1248,-9.5342,-1.2531,-0.032376,-0.010079,0.0085521,8.46,38.76,3.06
2.0839,-9.5887,-1.1577,-0.040928,-0.016799,0.0073304,8.52,38.82,3.0
2.0703,-9.4798,-1.2122,-0.03543,-0.024129,0.014661,8.46,38.88,3.0
2.0703,-9.507,-1.1986,-0.036957,-0.029016,0.014355,8.58,38.7,3.24
2.0567,-9.4798,-1.185,-0.034819,-0.024435,0.019548,8.46,38.7,3.24
2.0294,-9.616,-1.1577,-0.034208,-0.017104,0.01405,8.52,38.7,3.42
2.0567,-9.507,-1.1577,-0.039706,-0.009163,0.015577,8.46,38.7,3.36
2.0839,-9.4798,-1.185,-0.035736,-0.0030543,0.019548,8.34,38.94,3.42
2.0839,-9.4934,-1.1986,-0.038485,0.000916,0.018937,8.46,39.0,3.48
2.0975,-9.4798,-1.2803,-0.029322,0.000611,0.015272,8.46,38.94,3.36
2.0431,-9.4934,-1.2531,-0.036957,0.0033598,0.023824,8.52,39.06,3.36
2.0294,-9.5206,-1.2395,-0.038485,-0.0024435,0.027184,8.52,39.0,3.54
2.1112,-9.507,-1.2395,-0.033598,0.0036652,0.025351,8.58,39.06,3.42
2.1248,-9.4389,-1.2531,-0.030849,0.0012217,0.030543,8.52,39.0,3.36
2.152,-9.507,-1.2667,-0.022602,-0.0039706,0.036652,8.52,38.94,3.24
2.1248,-9.5342,-1.3076,-0.034208,-0.0097738,0.033903,8.46,39.0,3.3
2.1656,-9.4934,-1.2939,-0.030543,-0.022602,0.034819,8.52,39.0,3.3
2.1384,-9.4798,-1.185,-0.030543,-0.03543,0.0281,8.46,38.88,3.18
2.1656,-9.4661,-1.1986,-0.030849,-0.035736,0.022297,8.4,39.0,3.24
2.1112,-9.4934,-1.1986,-0.035125,-0.028405,0.014355,8.22,39.0,3.12
2.0567,-9.5342,-1.0896,-0.030849,-0.0097738,0.018021,8.04,38.88,3.12
2.0567,-9.507,-1.185,-0.028711,0.0024435,0.0073304,8.1,39.0,3.12
2.0839,-9.507,-1.185,-0.036041,0.010996,0.0058032,8.1,38.94,3.18
2.0975,-9.507,-1.185,-0.028711,0.024435,-0.0033598,8.16,39.12,3.0
2.1793,-9.507,-1.2531,-0.032987,0.025962,-0.010079,8.16,39.06,3.18
2.152,-9.4389,-1.2395,-0.039095,0.026573,0.000305,8.04,39.06,3.24
2.1248,-9.4798,-1.1577,-0.039401,0.019548,-0.011912,8.28,39.24,3.36
2.1384,-9.4661,-1.1577,-0.024435,0.0058032,-0.0045815,8.28,39.18,3.42
2.2201,-9.507,-1.2258,-0.030238,0.0030543,-0.0061087,8.28,39.12,3.24
2.1929,-9.4798,-1.185,-0.023213,-0.0024435,-0.0015272,8.22,39.18,3.18
2.1793,-9.507,-1.2395,-0.024129,-0.013744,0.000611,8.34,39.24,3.24
2.1929,-9.5615,-1.2531,-0.03543,-0.023518,0.0030543,8.28,39.18,3.24
2.1929,-9.507,-1.2667,-0.032681,-0.026878,0.0030543,8.28,39.3,3.24
2.1793,-9.4934,-1.185,-0.033598,-0.02474,0.0045815,8.22,39.3,3.24
2.0567,-9.5206,-1.1441,-0.03543,-0.013134,0.000305,7.98,39.18,3.18
2.0839,-9.507,-1.2531,-0.026573,-0.000916,-0.0058032,7.98,39.12,3.18
2.0567,-9.507,-1.2122,-0.032681,0.0048869,-0.002138,7.98,39.24,3.24
2.0703,-9.507,-1.1713,-0.031765,0.0067195,-0.0051924,7.98,39.24,3.24
2.0567,-9.5479,-1.1577,-0.025351,0.018631,0.0073304,7.98,39.24,3.24
2.0567,-9.5479,-1.1305,-0.012828,0.017715,0.01405,7.98,39.3,3.12
2.1793,-9.4798,-1.1441,-0.011912,0.018631,0.0281,8.1,39.36,3.18
2.1656,-9.4798,-1.2258,-0.009163,-0.0064141,0.035125,8.1,39.36,3.18
2.2201,-9.4389,-1.185,-0.022297,-0.034514,0.040623,8.16,39.18,3.12
2.1248,-9.4525,-1.0896,-0.016493,-0.051007,0.034208,8.28,39.24,3.24
2.1384,-9.507,-1.2258,-0.018326,-0.041844,0.039706,8.34,39.24,3.3
2.0703,-9.5342,-1.2258,-0.012523,-0.035125,0.033292,8.34,39.24,3.48
2.0567,-9.5751,-1.0624,-0.023824,-0.018326,0.039706,8.64,39.48,3.48
2.0294,-9.5751,-1.076,-0.018631,-0.0085521,0.039095,8.7,39.54,3.48
1.9886,-9.4798,-1.1305,-0.02474,0.007025,0.041844,8.64,39.48,3.36
2.1248,-9.5479,-1.1032,-0.031765,0.01741,0.034208,8.64,39.48,3.42
2.1248,-9.507,-1.1305,-0.029322,0.016188,0.032681,8.64,39.3,3.36
2.1929,-9.5479,-1.2122,-0.029016,0.0076358,0.037874,8.76,39.36,3.48
2.0839,-9.4798,-1.185,-0.034819,0.0082467,0.036957,8.7,39.3,3.48
2.2065,-9.507,-1.2258,-0.027794,-0.010996,0.042455,8.7,39.24,3.42
2.1656,-9.4798,-1.185,-0.036346,-0.023518,0.036652,8.58,39.3,3.36
2.0567,-9.4934,-1.0896,-0.027794,-0.024129,0.037263,8.64,39.24,3.3
2.0839,-9.5342,-1.185,-0.034208,-0.018631,0.033903,8.58,39.18,3.3
2.0839,-9.5206,-1.0896,-0.028405,-0.01741,0.034208,8.46,39.24,3.12
2.0431,-9.4934,-1.1305,-0.030543,-0.010385,0.034514,8.52,39.12,3.12
2.0567,-9.5342,-1.185,-0.041539,-0.0051924,0.033903,8.46,39.06,3.12
2.0431,-9.4798,-1.0896,-0.036957,-0.0033598,0.035736,8.34,39.06,3.06
2.0431,-9.3436,-1.1169,-0.036041,0.0030543,0.026267,8.34,39.12,3.12
2.0431,-9.4798,-1.1713,-0.025962,0.012217,0.027794,8.34,39.18,3.0
2.1248,-9.5615,-1.1441,-0.036041,0.0058032,0.018937,8.28,39.18,2.88
2.0839,-9.5206,-1.1305,-0.037874,0.0067195,0.024435,8.28,39.12,2.94
2.0158,-9.5206,-1.1713,-0.038485,0.011606,0.022297,8.4,39.12,3.0
2.0839,-9.5479,-1.0896,-0.045509,0.014966,0.010996,8.58,39.0,3.06
2.0839,-9.5751,-1.1169,-0.047342,0.014355,0.0082467,8.52,39.12,3.06
2.0567,-9.5479,-1.1577,-0.050396,0.015882,0.010996,8.52,39.12,3.0
2.0022,-9.507,-1.1169,-0.043371,0.018937,0.017715,8.52,39.06,3.12
1.975,-9.5206,-1.2258,-0.035125,0.017715,0.014661,8.4,39.06,3.18
1.9886,-9.5206,-1.1169,-0.049175,0.028405,0.0076358,8.58,39.06,2.94
2.0022,-9.5479,-1.0896,-0.045204,0.024129,0.0054978,8.52,39.0,2.88
1.9886,-9.5342,-1.1986,-0.044593,0.022907,0.015272,8.58,39.0,2.94
2.0431,-9.5479,-1.1577,-0.048564,0.020769,0.014661,8.58,39.06,2.94
2.0839,-9.5887,-1.2395,-0.043982,0.026267,0.011912,8.46,39.0,2.94
2.0431,-9.5615,-1.1441,-0.040928,0.027489,0.0042761,8.46,39.24,3.0
2.0839,-9.5751,-1.1713,-0.048564,0.036957,0.010079,8.4,39.24,2.94
2.0839,-9.6568,-1.2258,-0.045509,0.038179,0.011606,8.28,39.3,2.88
2.0839,-9.507,-1.1441,-0.047342,0.043371,0.016493,8.34,39.42,3.0
2.0839,-9.4934,-1.185,-0.044288,0.034514,0.014355,8.34,39.42,2.88
2.0294,-9.5615,-1.2531,-0.051924,0.027184,0.011606,8.4,39.3,2.82
2.0703,-9.5615,-1.1986,-0.047342,0.022907,0.0030543,8.46,39.24,2.82
2.0431,-9.4798,-1.1441,-0.057116,0.030543,0.013134,8.34,39.24,3.06
2.0567,-9.5479,-1.185,-0.053756,0.033903,0.015272,8.4,39.3,3.18
2.0022,-9.5206,-1.1441,-0.051924,0.03543,0.016188,8.28,39.24,3.06
2.0703,-9.507,-1.1986,-0.047342,0.034514,0.010385,8.4,39.36,3.24
2.0567,-9.4525,-1.2122,-0.043982,0.033598,0.016188,8.4,39.36,3.3
2.0294,-9.4525,-1.2122,-0.048869,0.039095,0.015882,8.34,39.24,3.3
2.1248,-9.6432,-1.2258,-0.047037,0.030238,0.021991,8.4,39.24,3.24
2.0567,-9.5615,-1.185,-0.034819,0.027794,0.020159,8.58,39.12,3.3
2.0839,-9.5342,-1.1305,-0.041539,0.022602,0.031154,8.4,39.06,3.18
2.0975,-9.5479,-1.2531,-0.045509,0.0073304,0.025962,8.58,39.12,3.18
2.1112,-9.4798,-1.2258,-0.035125,-0.000916,0.019853,8.58,39.12,3.12
2.0975,-9.398,-1.2122,-0.041233,-0.0039706,0.016799,8.76,39.18,3.0
2.0431,-9.4934,-1.2803,-0.044593,-0.0085521,0.025962,8.76,39.18,3.06
2.1248,-9.507,-1.2122,-0.039706,-0.0079412,0.02138,8.82,39.18,3.12
2.0839,-9.4934,-1.2122,-0.033292,-0.0079412,0.02138,8.76,39.24,3.3
2.0703,-9.4934,-1.1577,-0.032376,-0.0082467,0.019548,8.64,39.18,3.3
2.0839,-9.4661,-1.2531,-0.039401,-0.0094684,0.029016,8.76,39.24,3.3
2.0839,-9.507,-1.2803,-0.021991,-0.0088575,0.02138,8.76,39.12,3.3
2.1248,-9.5342,-1.2395,-0.039706,-0.01741,0.025351,8.64,39.24,3.42
2.0975,-9.5206,-1.2531,-0.032987,-0.017715,0.025045,8.58,39.3,3.48
2.0567,-9.5479,-1.2395,-0.032376,-0.02138,0.021075,8.52,39.24,3.66
2.1793,-9.4798,-1.1713,-0.028405,-0.02474,0.022907,8.58,39.12,3.78
2.1112,-9.4934,-1.1577,-0.040623,-0.028405,0.026267,8.52,39.18,3.72
2.0567,-9.4389,-1.185,-0.036041,-0.025351,0.018937,8.34,39.12,3.96
2.1112,-9.4389,-1.1713,-0.034819,-0.025351,0.024435,8.22,39.12,3.96
2.0431,-9.4798,-1.185,-0.028711,-0.019242,0.019548,8.16,39.12,3.78
2.0294,-9.4117,-1.2122,-0.033598,-0.0097738,0.013744,8.22,39.18,3.72
2.0839,-9.5342,-1.1713,-0.036652,-0.0018326,0.015577,8.22,39.06,3.72
2.0431,-9.5887,-1.185,-0.03543,0.000305,0.020769,8.22,39.06,3.66
2.0294,-9.507,-1.2531,-0.03543,0.0036652,0.020464,8.28,39.06,3.54
2.0839,-9.5342,-1.1169,-0.039401,0.0039706,0.010079,8.4,39.06,3.54
2.1112,-9.5751,-1.2258,-0.037263,-0.0030543,0.012523,8.22,38.88,3.36
2.0975,-9.5479,-1.2939,-0.030849,-0.0058032,0.021686,8.22,38.88,3.24
2.0839,-9.507,-1.2939,-0.032376,-0.0094684,0.016493,8.16,38.88,3.18
2.0431,-9.507,-1.2395,-0.033598,-0.015577,0.020464,8.34,38.88,3.12
2.0158,-9.5751,-1.3484,-0.031154,-0.017715,0.019853,8.46,38.94,2.94
2.0839,-9.4661,-1.2258,-0.034208,-0.027184,0.011912,8.52,39.0,2.82
2.0294,-9.4389,-1.1441,-0.033292,-0.0085521,0.01069,8.64,39.06,2.82
2.0158,-9.5479,-1.1986,-0.035736,0.0039706,0.014661,8.64,39.06,2.82
2.0158,-9.5479,-1.1986,-0.030238,0.0067195,0.016799,8.82,38.94,2.94
2.0158,-9.4798,-1.1441,-0.030543,0.018631,0.018326,8.7,39.0,3.18
2.0567,-9.507,-1.2258,-0.036041,0.016493,0.017715,8.7,39.06,3.36
1.9886,-9.4934,-1.1577,-0.036957,0.016799,0.016799,8.7,38.94,3.36
2.0703,-9.6023,-1.2531,-0.036346,0.015577,0.023824,8.94,39.06,3.36
2.0294,-9.4934,-1.1577,-0.032376,0.0054978,0.020464,9.0,38.94,3.42
2.0431,-9.4934,-1.185,-0.038485,0.0042761,0.025962,9.0,38.94,3.6
2.0975,-9.5342,-1.1577,-0.037568,-0.0076358,0.022907,8.88,38.94,3.54
2.1248,-9.5751,-1.1577,-0.038179,0.0012217,0.020464,8.82,38.94,3.66
2.0158,-9.5206,-1.2531,-0.038485,0.012217,0.018021,8.88,38.88,3.6
2.0022,-9.4525,-1.2258,-0.043066,0.024129,0.010996,8.94,38.82,3.48
2.0294,-9.507,-1.2122,-0.036652,0.029932,0.017104,8.94,38.7,3.42
2.0022,-9.4934,-1.2258,-0.03879,0.025962,0.019548,8.82,38.88,3.42
2.0431,-9.5206,-1.2258,-0.039095,0.027794,0.018326,8.88,38.88,3.24
2.0158,-9.4661,-1.1169,-0.044899,0.025045,0.027794,8.82,38.82,3.24
2.0294,-9.507,-1.1577,-0.040928,0.016188,0.026878,8.82,38.88,3.24
2.0431,-9.5479,-1.1169,-0.040623,0.011301,0.030238,8.64,38.76,3.36
