Ax,Ay,Az,Gx,Gy,Gz,Mx,My,Mz
3.5685,-9.0167,0.29965,-0.0094684,0.14447,-0.0061087,-1.2,38.46,-18.24
3.6639,-9.1529,0.27241,-0.000916,0.09499,-0.0079412,-1.14,38.4,-18.24
3.6366,-9.221,0.24517,-0.0042761,0.05681,-0.000611,-0.96,38.34,-18.12
3.5413,-9.1801,0.28603,-0.019242,0.041233,-0.0051924,-0.96,38.22,-18.18
3.514,-9.2891,0.24517,-0.024435,0.015577,-0.0094684,-0.96,38.28,-18.12
3.6094,-9.1937,0.34051,-0.036041,-0.020464,-0.0027489,-0.72,37.98,-18.24
3.5413,-9.2755,0.40861,-0.041233,-0.060476,0.0027489,-0.54,37.86,-18.24
3.4868,-9.3027,0.39499,-0.041539,-0.073304,0.021075,-0.42,38.04,-18.36
3.4323,-9.3163,0.50395,-0.041844,-0.033292,0.03146,-0.42,38.04,-18.36
3.5685,-9.3299,0.44947,-0.040317,-0.014355,0.041233,-0.42,38.22,-18.42
3.623,-9.3163,0.50395,-0.030849,0.0061087,0.030543,-0.36,38.34,-18.54
3.5958,-9.1937,0.50395,-0.030849,-0.000611,0.033292,-0.24,38.4,-18.6
3.6775,-9.1801,0.53119,-0.030238,-0.017104,0.033292,-0.36,38.58,-18.54
3.5958,-9.1256,0.35413,-0.025962,-0.040317,0.0281,-0.42,38.52,-18.66
3.5413,-9.1256,0.40861,-0.026878,-0.0562,0.018326,-0.48,38.58,-18.48
3.5822,-9.0848,0.44947,-0.027794,-0.067501,0.018021,-0.66,38.82,-18.42
3.5549,-9.1256,0.42223,-0.028405,-0.077885,0.0079412,-0.72,38.88,-18.36
3.514,-9.112,0.47671,-0.019548,-0.087659,0.0039706,-0.84,38.7,-18.3
3.4732,-9.2482,0.42223,-0.019853,-0.090408,-0.0048869,-0.9,38.82,-18.18
3.3778,-9.2891,0.38137,-0.022602,-0.073609,0.0076358,-0.84,38.82,-18.18
3.3778,-9.3844,0.38137,-0.029322,-0.069333,0.028405,-1.02,38.94,-17.94
3.3506,-9.2074,0.31327,-0.032681,-0.053451,0.032987,-1.02,38.88,-17.82
3.337,-9.2755,0.31327,-0.032376,-0.020769,0.039095,-1.08,38.94,-17.76
3.2416,-9.1937,0.31327,-0.034819,0.021991,0.022907,-1.02,38.88,-17.88
3.2144,-9.0712,0.38137,-0.042761,0.057421,0.027489,-1.2,38.7,-18.0
3.3778,-9.0848,0.32689,-0.035125,0.1124,0.012828,-1.26,38.7,-18.06
3.4868,-9.0848,0.47671,-0.044899,0.14355,0.014355,-1.26,38.82,-18.0
3.5549,-9.1393,0.54481,-0.050702,0.14294,0.01405,-1.26,38.94,-17.88
3.6911,-9.0303,0.53119,-0.039706,0.04948,0.023518,-1.26,38.88,-17.88
3.6366,-9.1937,0.61292,-0.025351,0.01741,0.030849,-1.32,38.88,-18.06
3.6366,-9.0575,0.61292,-0.0097738,0.010079,0.02138,-1.44,38.64,-18.18
3.6366,-9.0439,0.54481,0.023213,-0.019242,0.015577,-1.32,38.52,-18.42
3.6094,-9.0984,0.54481,0.030543,-0.015577,-0.0027489,-1.2,38.46,-18.24
3.623,-9.1665,0.44947,0.015577,-0.0048869,-0.010079,-1.14,38.58,-18.24
3.5413,-9.1937,0.35413,0.010996,-0.025045,-0.021075,-0.96,38.64,-18.24
3.4459,-9.1665,0.24517,0.0079412,-0.042761,-0.019242,-0.72,38.64,-18.12
3.4187,-9.1937,0.24517,0.0018326,-0.061697,-0.015882,-0.84,38.46,-18.12
3.3234,-9.3163,0.14982,-0.0088575,-0.087048,-0.023213,-0.84,38.34,-18.3
3.228,-9.6023,0.040861,-0.020464,-0.1347,-0.0018326,-0.78,38.1,-18.18
3.3097,-9.5887,0.12258,-0.048564,-0.14936,0.015882,-0.78,38.16,-18.18
3.2144,-9.6568,0.24517,-0.089492,-0.13592,0.033292,-0.9,38.16,-17.88
3.1599,-9.4525,0.35413,-0.11545,-0.083994,0.047647,-1.02,38.22,-17.94
3.2144,-9.4253,0.47671,-0.13042,-0.016188,0.030849,-1.14,38.1,-17.76
3.2144,-9.1937,0.50395,-0.11576,0.042761,0.029016,-1.26,38.1,-17.88
3.2689,-9.1529,0.61292,-0.093768,0.14172,0.034208,-1.38,37.98,-17.88
3.3234,-9.1665,0.61292,-0.08094,0.1799,0.042761,-1.2,38.04,-17.88
3.4596,-8.9758,0.69464,-0.064446,0.18937,0.051007,-1.32,37.98,-18.0
3.5822,-8.9758,0.62654,-0.045204,0.12095,0.06353,-1.2,38.04,-17.94
3.5549,-8.8668,0.57205,-0.035125,0.073304,0.065057,-1.2,38.16,-17.88
3.6366,-8.9486,0.5993,-0.025351,0.064752,0.075442,-0.96,38.28,-18.18
3.6094,-8.9758,0.46309,-0.0024435,0.08827,0.069944,-0.96,38.34,-18.18
3.6366,-9.0575,0.47671,0.0024435,0.091324,0.064446,-0.9,38.34,-18.06
3.7456,-9.112,0.36775,0.000305,0.081856,0.052229,-0.78,38.4,-18.12
3.7865,-9.1665,0.29965,0.0048869,0.051924,0.039401,-0.54,38.46,-18.12
3.7728,-9.2346,0.44947,0.0061087,0.025962,0.03146,-0.42,38.52,-18.3
3.8137,-9.3708,0.42223,-0.0033598,-0.022297,0.01405,-0.36,38.52,-18.36
3.7592,-9.3163,0.44947,-0.013439,-0.031765,0.0045815,-0.36,38.76,-18.48
3.7047,-9.221,0.35413,-0.019242,-0.059865,-0.010385,-0.3,38.7,-18.48
3.6639,-9.2618,0.38137,-0.0073304,-0.09896,-0.023518,-0.48,38.94,-18.42
3.6094,-9.2482,0.35413,-0.015882,-0.13195,-0.036652,-0.48,38.76,-18.48
3.4459,-9.1937,0.38137,-0.0097738,-0.15882,-0.051313,-0.6,38.82,-18.84
3.3097,-9.1529,0.40861,-0.020464,-0.13897,-0.05681,-0.78,38.82,-18.9
3.2416,-9.1529,0.35413,-0.025962,-0.092852,-0.052229,-0.9,38.88,-18.78
3.2416,-9.1665,0.47671,-0.0281,-0.02474,-0.033903,-1.38,38.76,-18.72
3.2553,-9.1937,0.42223,-0.014966,-0.027489,-0.020769,-1.38,38.82,-18.72
3.228,-9.2755,0.39499,-0.013744,-0.041233,0.01405,-1.56,38.76,-18.66
3.2553,-9.2755,0.40861,-0.010079,-0.051924,0.019853,-1.74,38.76,-18.78
3.2553,-9.2346,0.32689,-0.009163,-0.030238,0.026878,-1.62,38.64,-18.9
3.2416,-9.3299,0.31327,-0.0097738,0.033903,0.03146,-1.62,38.76,-18.9
3.2961,-9.3027,0.36775,-0.028405,0.062919,0.037874,-1.74,38.82,-18.84
3.4323,-9.221,0.31327,-0.040928,0.079718,0.040012,-1.56,38.7,-18.66
3.4732,-9.1937,0.29965,-0.043066,0.068722,0.045204,-1.32,38.7,-18.78
3.5004,-9.1256,0.36775,-0.051924,0.039706,0.040012,-1.14,38.82,-18.9
3.514,-9.1937,0.40861,-0.042455,0.018631,0.031154,-1.08,38.88,-18.84
3.5685,-9.2482,0.46309,-0.042455,0.000611,0.033598,-0.9,39.06,-18.84
3.5277,-9.1529,0.53119,-0.04948,-0.0048869,0.032376,-0.96,39.12,-18.96
3.514,-9.1937,0.49033,-0.053145,0.0039706,0.024129,-0.84,39.12,-18.9
3.4868,-9.1529,0.47671,-0.047953,-0.016188,0.019548,-0.78,39.06,-18.78
3.4459,-9.221,0.38137,-0.045204,-0.013134,0.018631,-0.84,39.0,-18.78
3.4187,-9.2755,0.46309,-0.036041,-0.010996,0.018326,-0.96,38.94,-18.96
3.3778,-9.1937,0.43585,-0.041539,0.016493,0.027794,-0.84,38.76,-19.02
3.3778,-9.1937,0.43585,-0.041539,0.016493,0.027794,-0.84,38.76,-19.02
3.4459,-9.1937,0.35413,-0.051313,0.0054978,0.024129,-0.9,38.7,-19.02
3.4596,-9.2346,0.44947,-0.03879,-0.010996,0.035736,-0.9,38.64,-18.84
3.4459,-9.1937,0.46309,-0.040012,-0.011912,0.034819,-1.02,38.46,-18.9
3.4732,-9.1937,0.36775,-0.039095,-0.0048869,0.030849,-1.02,38.46,-18.96
3.514,-9.1937,0.50395,-0.017104,-0.0064141,0.033598,-0.96,38.4,-18.78
3.5413,-9.2074,0.50395,-0.028711,-0.016799,0.030543,-0.9,38.28,-18.72
3.4596,-9.1801,0.43585,-0.02138,-0.019548,0.026573,-0.9,38.28,-18.78
3.4459,-9.2074,0.47671,-0.019853,-0.025045,0.016799,-0.84,38.46,-18.78
3.3642,-9.1937,0.38137,-0.012828,-0.018326,0.018326,-0.84,38.34,-18.72
3.4051,-9.2618,0.40861,-0.018631,-0.015272,0.016493,-0.72,38.22,-18.66
3.4187,-9.221,0.38137,-0.016188,-0.026878,0.027794,-0.78,38.34,-18.48
3.4596,-9.2482,0.44947,-0.020464,-0.032987,0.029016,-0.72,38.4,-18.54
3.4459,-9.2755,0.47671,-0.030238,-0.030238,0.031154,-0.78,38.52,-18.66
3.4187,-9.1529,0.38137,-0.021991,-0.051313,0.040317,-0.9,38.58,-18.72
3.3778,-9.1937,0.47671,-0.025656,-0.059559,0.031765,-0.84,38.64,-18.72
3.4596,-9.1665,0.50395,-0.028405,-0.0562,0.026573,-0.78,38.52,-18.66
3.3234,-9.1937,0.47671,-0.027489,-0.040317,0.017715,-0.84,38.46,-18.66
3.3506,-9.2074,0.47671,-0.034208,-0.033903,0.022907,-0.84,38.52,-18.54
3.3506,-9.1801,0.47671,-0.029016,-0.014355,0.012523,-0.78,38.52,-18.54
3.2961,-9.1937,0.44947,-0.030849,0.0054978,0.010079,-1.02,38.46,-18.54
3.3915,-9.2618,0.44947,-0.03146,0.012217,0.011606,-1.02,38.64,-18.42
3.2825,-9.2891,0.35413,-0.023824,0.01069,0.011912,-1.02,38.58,-18.36
3.3506,-9.2755,0.38137,-0.035736,0.010385,0.011912,-0.84,38.64,-18.48
3.3234,-9.3027,0.39499,-0.040623,0.020464,0.0281,-0.9,38.7,-18.54
3.3915,-9.2618,0.36775,-0.041844,0.025351,0.022907,-0.9,38.7,-18.48
3.4459,-9.2755,0.38137,-0.044899,0.026573,0.027184,-0.84,38.76,-18.54
3.4323,-9.1393,0.34051,-0.045509,0.022297,0.027184,-0.9,38.7,-18.66
3.4323,-9.112,0.31327,-0.046426,0.016799,0.022602,-0.9,38.76,-18.66
3.4323,-9.0303,0.44947,-0.038179,0.0097738,0.019548,-1.02,38.76,-18.6
3.5004,-9.0575,0.51757,-0.036041,0.0064141,0.017104,-1.08,38.76,-18.66
3.4459,-9.1529,0.49033,-0.028711,0.0027489,0.015272,-1.08,38.76,-18.66
3.4732,-9.1801,0.50395,-0.023213,0.000611,0.013439,-1.02,38.7,-18.54
3.4732,-9.2482,0.49033,-0.027794,0.0073304,0.0097738,-0.96,38.58,-18.6
3.4732,-9.2482,0.44947,-0.02474,0.013744,0.0024435,-0.96,38.46,-18.66
3.4732,-9.2755,0.40861,-0.014661,0.011912,-0.0024435,-1.14,38.34,-18.54
3.4596,-9.2074,0.38137,-0.019548,0.0015272,0.0048869,-1.02,38.34,-18.48
3.4732,-9.2346,0.31327,-0.027794,-0.012217,0.0067195,-1.14,38.28,-18.36
3.4187,-9.2618,0.24517,-0.028405,-0.024129,0.0045815,-1.2,38.22,-18.36
3.4323,-9.2482,0.35413,-0.028405,-0.062003,-0.0015272,-1.14,38.22,-18.3
3.337,-9.2482,0.38137,-0.042455,-0.084299,0.000916,-1.26,38.04,-18.3
3.2553,-9.1256,0.44947,-0.030543,-0.10324,-0.0085521,-1.14,38.04,-18.36
3.3097,-9.1256,0.44947,-0.038179,-0.11851,-0.0030543,-1.26,37.92,-18.3
3.2144,-9.1937,0.50395,-0.041844,-0.11729,-0.0033598,-1.2,37.8,-18.24
3.2144,-9.1665,0.54481,-0.05284,-0.070555,0.007025,-1.14,37.92,-18.48
3.1599,-9.3572,0.54481,-0.052534,0.0085521,0.0061087,-1.26,38.16,-18.36
3.1872,-9.4117,0.58567,-0.043982,0.042761,0.015882,-1.26,38.28,-18.36
3.2008,-9.4798,0.47671,-0.036346,0.11179,0.020159,-1.32,38.4,-18.36
3.3506,-9.3844,0.39499,-0.037568,0.18082,0.01741,-1.32,38.52,-18.36
3.5004,-9.3163,0.24517,-0.043371,0.19792,0.01741,-1.2,38.46,-18.54
3.5822,-9.2891,0.16344,-0.053756,0.16707,0.015882,-1.14,38.34,-18.42
3.6775,-9.2482,0.20431,-0.069944,0.1014,0.014355,-1.26,38.34,-18.36
3.5685,-9.1256,0.20431,-0.067806,0.032376,0.012523,-1.26,38.52,-18.48
3.6094,-9.221,0.31327,-0.073304,-0.0073304,0.010385,-1.14,38.46,-18.48
3.4596,-9.1937,0.39499,-0.070555,-0.034819,0.017715,-1.02,38.64,-18.66
3.514,-9.112,0.44947,-0.051007,-0.051313,0.018021,-1.02,38.64,-18.66
3.514,-9.1256,0.44947,-0.041539,-0.058338,0.03207,-1.02,38.64,-18.54
3.4868,-9.1529,0.57205,-0.026878,-0.050396,0.026573,-1.02,38.76,-18.66
3.4732,-9.1937,0.47671,-0.021075,-0.0281,0.020159,-0.84,38.64,-18.54
3.514,-9.1529,0.50395,-0.023213,0.0085521,0.017104,-0.78,38.64,-18.66
3.4459,-9.1256,0.38137,-0.011606,0.058338,-0.000611,-0.9,38.34,-18.78
3.4732,-9.0984,0.44947,-0.016493,0.061697,-0.000916,-0.96,38.28,-18.66
3.623,-9.1529,0.32689,-0.016493,0.04215,0.0051924,-0.84,38.46,-18.78
3.5685,-9.2074,0.23155,-0.019548,0.0033598,0.012523,-0.72,38.46,-18.9
3.5685,-9.2346,0.31327,-0.020464,-0.050702,0.025045,-0.84,38.52,-18.9
3.5413,-9.2891,0.32689,-0.021991,-0.099876,0.020464,-1.02,38.64,-18.78
3.5413,-9.3027,0.38137,-0.021991,-0.15333,0.027489,-0.96,38.52,-18.72
3.4459,-9.3436,0.34051,-0.014355,-0.17776,0.010996,-0.96,38.52,-18.84
3.3234,-9.2346,0.34051,-0.0054978,-0.14844,0.0061087,-1.02,38.46,-18.84
3.3097,-9.1801,0.44947,-0.017104,-0.10049,0.0085521,-0.96,38.34,-18.78
3.3097,-9.1256,0.43585,-0.018021,-0.065973,0.0058032,-1.08,38.22,-18.84
3.3506,-9.2074,0.43585,-0.022602,-0.03879,0.0048869,-1.14,38.22,-18.72
3.3915,-9.1393,0.49033,-0.031154,0.0045815,0.0073304,-1.26,38.34,-18.54
3.3642,-9.2618,0.43585,-0.026573,0.028711,0.0030543,-1.14,38.4,-18.66
3.4187,-9.2482,0.46309,-0.036041,0.035125,0.0042761,-1.26,38.28,-18.6
3.3915,-9.2891,0.43585,-0.041233,0.031154,0.000916,-1.26,38.28,-18.42
3.4732,-9.3572,0.42223,-0.036957,0.019853,0.0036652,-1.26,38.34,-18.48
3.2961,-9.3436,0.24517,-0.037263,0.023824,0.0067195,-1.08,38.16,-18.36
3.3234,-9.2482,0.28603,-0.0562,0.043371,0.014355,-1.08,38.22,-18.36
3.3642,-9.2482,0.25879,-0.061697,0.049786,0.013134,-1.14,38.4,-18.36
3.3506,-9.2482,0.35413,-0.062003,0.07758,0.0024435,-1.2,38.46,-18.36
3.3097,-9.221,0.40861,-0.077885,0.12065,0.01069,-1.08,38.46,-18.42
3.3778,-9.1256,0.40861,-0.065363,0.1518,0.002138,-1.08,38.64,-18.36
3.4187,-9.0031,0.40861,-0.062614,0.17104,0.0012217,-1.08,38.64,-18.48
3.5277,-9.0303,0.42223,-0.050702,0.17318,-0.000916,-1.08,38.64,-18.48
3.6094,-9.1256,0.39499,-0.038485,0.12126,0.010996,-1.08,38.64,-18.42
3.7047,-9.221,0.40861,-0.040928,0.085827,0.022297,-1.08,38.7,-18.36
3.6775,-9.2074,0.43585,-0.041233,0.040928,0.029016,-1.02,38.76,-18.42
3.6094,-9.2755,0.40861,-0.033292,0.0051924,0.025045,-1.02,39.06,-18.36
3.6911,-9.3163,0.31327,-0.015272,-0.04215,0.01069,-1.02,39.12,-18.42
3.4459,-9.2755,0.38137,-0.020159,-0.07025,0.018021,-1.02,39.12,-18.54
3.3915,-9.221,0.21793,-0.014355,-0.075747,0.012828,-1.02,39.06,-18.48
3.3506,-9.2346,0.23155,-0.040012,-0.049175,0.015577,-0.9,39.06,-18.48
3.3915,-9.2891,0.29965,-0.047647,-0.021075,0.015882,-0.96,39.12,-18.48
3.4187,-9.221,0.35413,-0.050396,-0.0030543,0.029016,-0.9,39.12,-18.48
3.4187,-9.1801,0.36775,-0.043066,0.018021,0.022907,-0.84,39.06,-18.36
3.4459,-9.2482,0.50395,-0.050091,0.01405,0.023213,-0.78,39.24,-18.18
3.514,-9.1665,0.47671,-0.040928,0.0054978,0.027489,-0.78,39.18,-18.42
3.4732,-9.0848,0.40861,-0.029322,-0.0076358,0.029932,-0.78,39.06,-18.12
3.514,-9.0303,0.47671,-0.015577,-0.013134,0.025351,-0.84,39.12,-18.24
3.4732,-9.2482,0.40861,-0.016493,-0.017104,0.013439,-0.78,38.88,-18.3
3.4187,-9.1937,0.36775,-0.012217,-0.014355,0.0085521,-0.78,38.76,-18.24
3.4187,-9.221,0.39499,-0.019242,-0.0030543,0.0061087,-0.78,38.7,-18.18
3.4732,-9.1801,0.35413,-0.036041,0.0097738,0.009163,-0.84,38.64,-18.24
3.4596,-9.2074,0.32689,-0.030238,0.009163,0.0064141,-0.84,38.58,-18.3
3.5004,-9.2346,0.40861,-0.03879,0.0094684,0.012523,-0.84,38.46,-18.18
3.4187,-9.2074,0.40861,-0.040623,-0.0015272,0.015882,-1.02,38.4,-18.3
3.4459,-9.1937,0.35413,-0.022297,-0.0097738,0.012217,-1.26,38.52,-18.42
3.4732,-9.1801,0.38137,-0.029627,-0.015272,0.010385,-1.2,38.58,-18.54
3.4187,-9.2346,0.39499,-0.02138,-0.019242,0.002138,-1.2,38.76,-18.3
3.3778,-9.221,0.42223,-0.025351,-0.012828,0.0036652,-1.2,38.88,-18.54
3.3234,-9.1665,0.29965,-0.023518,-0.0094684,0.0073304,-1.08,38.88,-18.54
3.3642,-9.221,0.32689,-0.029627,0.014661,0.012217,-1.32,38.88,-18.36
3.4459,-9.221,0.34051,-0.025656,0.027184,0.012523,-1.26,39.0,-18.48
3.4459,-9.2482,0.31327,-0.036346,0.034514,0.015272,-1.38,39.06,-18.54
3.4732,-9.2618,0.35413,-0.037874,0.037568,0.012523,-1.38,39.12,-18.36
3.4596,-9.2346,0.36775,-0.033598,0.02138,0.021686,-1.62,39.06,-18.54
3.4187,-9.2618,0.36775,-0.043371,0.020159,0.023213,-1.44,39.06,-18.6
3.4187,-9.221,0.40861,-0.042761,0.0048869,0.026878,-1.5,39.12,-18.6
3.4187,-9.1529,0.35413,-0.036957,0.000305,0.019242,-1.32,39.06,-18.48
3.3506,-9.1393,0.47671,-0.037568,0.0015272,0.021686,-1.32,38.94,-18.42
3.4187,-9.1937,0.38137,-0.027794,0.009163,0.019548,-1.32,38.7,-18.48
3.4459,-9.2074,0.40861,-0.04215,0.01405,0.018631,-1.38,38.76,-18.66
3.4596,-9.2346,0.36775,-0.038179,0.012217,0.015577,-1.44,38.7,-18.6
3.4732,-9.221,0.42223,-0.040012,0.014355,0.013744,-1.26,38.82,-18.66
3.4187,-9.1937,0.34051,-0.039095,0.020159,0.014355,-1.2,38.76,-18.54
3.4596,-9.1801,0.43585,-0.030849,0.017104,0.011606,-1.02,38.76,-18.54
3.4732,-9.2074,0.35413,-0.029932,0.010996,0.017104,-0.9,38.58,-18.54
3.514,-9.1801,0.38137,-0.030238,0.0088575,0.016493,-0.78,38.58,-18.54
3.4732,-9.1529,0.40861,-0.028405,0.0036652,0.013134,-0.96,38.64,-18.54
3.4323,-9.2482,0.31327,-0.023518,-0.0061087,0.02474,-0.96,38.64,-18.6
3.5004,-9.2755,0.40861,-0.025656,-0.01405,0.022297,-0.96,38.7,-18.78
3.4868,-9.1665,0.46309,-0.029016,-0.021075,0.014355,-0.96,38.64,-18.72
3.4051,-9.221,0.35413,-0.022297,-0.021686,0.017715,-1.02,38.64,-18.9
3.4459,-9.1937,0.40861,-0.025351,-0.017715,0.014661,-1.14,38.46,-18.72
3.4323,-9.1937,0.34051,-0.029016,-0.013134,0.018326,-1.2,38.52,-18.6
3.3778,-9.1529,0.40861,-0.026267,-0.0024435,0.017715,-1.2,38.4,-18.66
3.4187,-9.1937,0.39499,-0.025351,-0.016493,0.016493,-1.38,38.4,-18.72
3.3642,-9.2891,0.38137,-0.027489,-0.029322,0.028405,-1.44,38.4,-18.66
3.4187,-9.2755,0.40861,-0.033903,-0.011301,0.021075,-1.5,38.46,-18.6
3.3778,-9.2482,0.40861,-0.029932,0.0097738,0.01741,-1.62,38.7,-18.48
3.4187,-9.221,0.32689,-0.026878,0.015577,0.020769,-1.44,38.82,-18.36
3.4459,-9.2346,0.35413,-0.023518,0.027489,0.016799,-1.26,38.76,-18.42
3.4596,-9.1665,0.36775,-0.029627,0.04948,0.0033598,-1.2,38.64,-18.3
3.4868,-9.2074,0.36775,-0.039401,0.053451,0.013439,-1.2,38.82,-18.36
3.514,-9.1393,0.39499,-0.041844,0.034819,0.01069,-1.02,38.82,-18.42
3.4732,-9.2482,0.42223,-0.04612,0.014661,0.019242,-0.72,38.82,-18.48
3.3915,-9.2618,0.36775,-0.055894,0.02138,0.036041,-0.78,38.7,-18.54
3.4323,-9.3027,0.46309,-0.05284,0.028711,0.033292,-0.84,38.76,-18.6
3.4732,-9.2482,0.42223,-0.040928,0.051007,0.028405,-0.72,38.7,-18.66
3.6366,-9.2618,0.42223,-0.038179,0.036346,0.015882,-0.84,38.7,-18.66
3.6366,-9.1937,0.42223,-0.030238,0.0033598,0.012217,-0.72,38.64,-18.6
3.5685,-9.1529,0.34051,-0.029016,-0.043371,-0.0039706,-0.42,38.46,-18.78
3.4187,-9.1529,0.35413,-0.027794,-0.068111,-0.0045815,-0.54,38.34,-18.84
3.4187,-9.112,0.42223,-0.027184,-0.081856,-0.0045815,-0.6,38.34,-18.72
3.3097,-9.1256,0.43585,-0.020159,-0.1069,0.013134,-0.6,38.52,-18.84
3.2825,-9.0984,0.44947,-0.016799,-0.10079,0.014355,-0.66,38.58,-18.6
3.2416,-9.1665,0.38137,-0.012217,-0.081551,0.022907,-0.72,38.64,-18.48
3.2144,-9.3027,0.46309,-0.01405,-0.045815,0.03543,-0.9,38.7,-18.6
3.2825,-9.2891,0.36775,-0.020769,0.019548,0.028405,-0.9,38.7,-18.6
3.2961,-9.3027,0.42223,-0.034819,0.058032,0.024435,-0.84,38.7,-18.6
3.4187,-9.3163,0.40861,-0.027184,0.086437,0.013744,-0.78,38.7,-18.36
3.514,-9.3163,0.35413,-0.040012,0.10476,0.01741,-0.72,38.76,-18.48
3.5685,-9.2346,0.23155,-0.042455,0.082161,0.022907,-0.84,38.82,-18.54
3.6094,-9.2074,0.35413,-0.042455,0.036957,0.013134,-1.02,38.88,-18.48
3.5685,-9.2074,0.29965,-0.041233,-0.030238,0.014355,-1.08,38.94,-18.54
3.5685,-9.1937,0.34051,-0.047037,-0.06689,0.017715,-1.14,38.88,-18.36
3.4323,-9.1665,0.44947,-0.039706,-0.087048,0.0064141,-1.2,38.82,-18.3
3.337,-9.2482,0.38137,-0.03879,-0.077885,0.013134,-1.2,38.7,-18.48
3.2825,-9.1937,0.51757,-0.042455,-0.063835,0.013134,-1.08,38.76,-18.48
3.3097,-9.2482,0.44947,-0.040928,-0.025045,0.014355,-1.14,38.88,-18.3
3.2825,-9.221,0.43585,-0.039401,0.030849,0.018937,-1.08,38.82,-18.3
3.3097,-9.2482,0.36775,-0.032987,0.050396,0.019548,-1.14,38.76,-18.3
3.4732,-9.2618,0.40861,-0.03879,0.068417,0.027489,-1.2,38.76,-18.3
3.4187,-9.1937,0.34051,-0.044288,0.064141,0.0281,-1.2,38.94,-18.18
3.5004,-9.2074,0.39499,-0.041233,0.054978,0.023824,-1.2,38.94,-18.12
3.514,-9.2482,0.35413,-0.041539,0.03543,0.016188,-1.14,38.88,-18.18
3.4868,-9.2074,0.36775,-0.034819,0.0067195,0.011606,-1.08,38.82,-18.12
3.5413,-9.1801,0.36775,-0.035125,-0.0033598,0.012523,-0.96,38.88,-18.24
3.4732,-9.2346,0.39499,-0.025962,-0.01741,0.014355,-0.78,38.88,-18.18
3.4459,-9.221,0.40861,-0.022602,-0.012523,0.010079,-0.72,38.94,-18.12
3.4596,-9.221,0.38137,-0.025656,-0.015272,0.0085521,-0.66,38.88,-18.06
3.4051,-9.221,0.39499,-0.027489,-0.018631,0.013439,-0.66,38.88,-18.12
3.4051,-9.221,0.39499,-0.02138,-0.014355,0.0088575,-0.66,38.88,-18.12
3.4459,-9.2346,0.46309,-0.021991,-0.01405,0.011301,-0.78,38.94,-18.12
3.4187,-9.2074,0.39499,-0.014966,-0.019242,0.015577,-0.78,39.12,-18.12
3.4187,-9.2482,0.31327,-0.024435,-0.022907,0.023518,-0.84,39.18,-18.18
3.4187,-9.2482,0.40861,-0.013134,-0.02474,0.019548,-0.78,38.94,-18.18
3.3778,-9.2074,0.40861,-0.017715,-0.027489,0.016799,-0.72,38.94,-18.24
3.3778,-9.221,0.29965,-0.019242,-0.02138,0.013744,-0.72,38.94,-18.18
3.3778,-9.2482,0.39499,-0.022297,-0.013744,0.0058032,-0.78,39.0,-18.12
3.4051,-9.1529,0.35413,-0.026267,-0.0079412,0.0085521,-0.9,39.0,-18.24
3.4187,-9.2074,0.36775,-0.028405,-0.000916,0.0082467,-1.02,39.0,-18.36
3.4323,-9.221,0.43585,-0.030238,0.0042761,0.011606,-1.14,39.12,-18.36
3.4187,-9.2891,0.44947,-0.030238,0.013744,0.018021,-1.32,39.06,-18.36
3.4868,-9.2482,0.38137,-0.031765,0.0039706,0.012217,-1.14,39.0,-18.48
3.4732,-9.1937,0.50395,-0.033598,-0.0054978,0.01069,-0.96,38.94,-18.48
3.4596,-9.2346,0.43585,-0.023824,-0.010996,0.013134,-1.14,38.76,-18.36
3.5413,-9.1801,0.40861,-0.028711,-0.018326,0.019548,-1.02,38.7,-18.36
3.4459,-9.2891,0.32689,-0.038179,-0.016799,0.013134,-1.08,38.88,-18.36
3.4596,-9.2755,0.44947,-0.040317,-0.021075,0.019242,-1.14,38.94,-18.42
3.4596,-9.0984,0.44947,-0.043066,-0.019242,0.023518,-1.14,39.0,-18.54
3.4596,-9.1665,0.34051,-0.030238,-0.022297,0.025962,-0.96,39.06,-18.48
3.4459,-9.2482,0.50395,-0.020769,-0.024129,0.020159,-1.02,39.12,-18.54
3.4459,-9.221,0.40861,-0.018631,-0.034819,0.021991,-1.14,39.12,-18.48
3.3778,-9.2482,0.40861,-0.022297,-0.029627,0.012217,-1.14,38.94,-18.42
3.3506,-9.221,0.32689,-0.024435,-0.026878,0.0097738,-0.96,38.94,-18.48
3.4459,-9.2074,0.34051,-0.03879,-0.01405,0.01069,-0.96,38.88,-18.6
3.3234,-9.2482,0.31327,-0.028405,-0.021991,0.0097738,-1.02,38.94,-18.42
3.3778,-9.2346,0.39499,-0.028405,-0.016799,0.020769,-0.96,38.94,-18.66
3.3778,-9.221,0.38137,-0.024435,-0.011301,0.019548,-0.96,38.88,-18.48
3.3642,-9.2755,0.44947,-0.026267,-0.0012217,0.023213,-1.02,38.82,-18.6
3.4323,-9.221,0.46309,-0.029932,-0.000305,0.019242,-1.08,38.64,-18.48
3.4187,-9.2346,0.40861,-0.025656,-0.0015272,0.015882,-1.08,38.64,-18.54
3.4732,-9.2346,0.35413,-0.033598,-0.0033598,0.012217,-1.08,38.52,-18.6
3.4459,-9.2482,0.31327,-0.034208,-0.0048869,0.027184,-1.02,38.46,-18.42
3.4187,-9.2618,0.31327,-0.036957,-0.01069,0.029322,-0.84,38.4,-18.3
3.3915,-9.221,0.38137,-0.03207,-0.013744,0.024435,-0.96,38.52,-18.42
3.4187,-9.2482,0.44947,-0.027489,-0.018631,0.021991,-0.96,38.46,-18.36
3.3778,-9.221,0.44947,-0.02474,-0.018326,0.010385,-1.02,38.52,-18.42
3.4323,-9.1801,0.46309,-0.021991,-0.019242,0.019853,-1.02,38.46,-18.48
3.4596,-9.1937,0.39499,-0.024129,-0.015577,0.015882,-0.96,38.52,-18.36
3.3915,-9.221,0.31327,-0.036041,-0.019853,0.020159,-1.02,38.64,-18.36
3.3097,-9.2074,0.34051,-0.032987,-0.010996,0.012217,-1.14,38.7,-18.48
3.3506,-9.2618,0.44947,-0.03146,0.007025,0.013439,-1.14,38.7,-18.42
3.337,-9.1937,0.31327,-0.033598,0.011301,0.014966,-1.2,38.7,-18.3
3.4051,-9.2482,0.36775,-0.034208,0.028405,0.015882,-1.14,38.82,-18.54
3.3506,-9.1937,0.27241,-0.035736,0.031154,0.016799,-1.2,38.82,-18.66
3.3642,-9.2346,0.38137,-0.030543,0.030543,0.017715,-1.2,38.88,-18.84
3.4323,-9.2346,0.40861,-0.03207,0.031154,0.015882,-1.02,38.82,-18.78
3.4459,-9.2074,0.38137,-0.036652,0.029016,0.025045,-1.08,38.88,-18.72
3.4459,-9.1937,0.38137,-0.032376,0.028711,0.013439,-1.08,38.88,-18.78
3.4051,-9.2891,0.36775,-0.035125,0.027489,0.0088575,-1.02,38.82,-18.78
3.3778,-9.1529,0.38137,-0.035736,0.024129,0.018631,-1.02,38.82,-18.72
3.4051,-9.1937,0.35413,-0.025962,0.021075,0.015882,-0.9,38.76,-18.72
3.3778,-9.2482,0.36775,-0.034819,0.021991,0.014661,-0.78,38.94,-18.54
3.4596,-9.2346,0.42223,-0.036957,0.013134,0.024129,-0.9,38.94,-18.66
3.3506,-9.3163,0.44947,-0.037263,0.01405,0.022602,-0.78,38.94,-18.66
3.4187,-9.221,0.47671,-0.032681,0.013744,0.02138,-0.84,38.94,-18.36
3.4323,-9.1256,0.40861,-0.036346,0.007025,0.025656,-0.96,38.94,-18.36
3.4868,-9.1937,0.40861,-0.033598,0.0039706,0.022602,-1.02,38.94,-18.36
3.3915,-9.221,0.44947,-0.031765,-0.002138,0.023518,-1.08,38.94,-18.54
3.3097,-9.2891,0.54481,-0.030238,-0.0015272,0.021686,-1.08,38.94,-18.66
3.3506,-9.2618,0.40861,-0.029627,-0.0024435,0.02474,-1.2,39.0,-18.6
3.4323,-9.1937,0.39499,-0.026267,0.0039706,0.017104,-1.2,39.18,-18.24
3.3506,-9.221,0.35413,-0.025045,0.0027489,0.019548,-1.26,39.18,-18.42
3.3506,-9.2346,0.38137,-0.03543,-0.000611,0.012523,-1.26,39.18,-18.48
3.4051,-9.2074,0.38137,-0.036041,0.000305,0.01405,-1.2,39.12,-18.42
3.3234,-9.2346,0.42223,-0.03207,-0.000611,0.01741,-1.26,38.88,-18.66
3.3778,-9.2891,0.36775,-0.033598,0.012828,0.018937,-1.32,39.0,-18.42
3.4323,-9.2618,0.34051,-0.036346,0.021075,0.024435,-1.26,38.94,-18.48
3.4051,-9.2346,0.38137,-0.043371,0.030849,0.030238,-1.26,38.88,-18.48
3.4459,-9.221,0.35413,-0.040623,0.030543,0.026878,-1.26,38.82,-18.42
3.4459,-9.1529,0.42223,-0.041539,0.027184,0.0281,-1.26,38.82,-18.36
3.4187,-9.1937,0.46309,-0.03207,-0.0024435,0.017715,-1.26,38.76,-18.24
3.5004,-9.1937,0.35413,-0.0281,-0.011301,0.0073304,-1.14,38.7,-18.18
3.3778,-9.2482,0.39499,-0.029322,-0.023824,0.0033598,-1.26,38.7,-18.12
3.3506,-9.221,0.36775,-0.025656,-0.022907,-0.002138,-1.08,38.64,-18.24
3.3234,-9.1937,0.44947,-0.029627,-0.017715,-0.0018326,-1.2,38.58,-18.3
3.2825,-9.2618,0.47671,-0.036041,-0.012828,-0.0018326,-1.26,38.7,-18.3
3.3097,-9.2618,0.40861,-0.032987,0.0073304,0.0036652,-0.96,38.64,-18.3
3.3642,-9.2482,0.47671,-0.0281,0.025045,0.011301,-1.02,38.64,-18.36
3.4459,-9.2074,0.42223,-0.03146,0.037874,0.015577,-0.84,38.76,-18.42
3.3915,-9.1801,0.40861,-0.030238,0.036957,0.011912,-0.66,38.7,-18.48
3.4732,-9.2074,0.34051,-0.034208,0.010385,0.025962,-0.6,38.7,-18.36
3.3915,-9.2891,0.35413,-0.037263,0.017104,0.029016,-0.6,38.52,-18.42
3.4187,-9.1529,0.38137,-0.036346,0.013439,0.025656,-0.48,38.7,-18.42
3.4596,-9.2618,0.42223,-0.025962,0.013744,0.025351,-0.42,38.64,-18.36
3.514,-9.2891,0.35413,-0.027489,0.0048869,0.014661,-0.3,38.58,-18.36
3.4732,-9.2482,0.35413,-0.02474,-0.021075,0.015882,-0.3,38.64,-18.42
3.4459,-9.2074,0.38137,-0.03146,-0.024129,0.018631,-0.3,38.64,-18.42
3.4459,-9.2074,0.38137,-0.034819,-0.03879,0.010385,-0.3,38.58,-18.42
3.4459,-9.2074,0.38137,-0.034208,-0.042761,0.01069,-0.3,38.58,-18.42
3.4187,-9.1937,0.43585,-0.036652,-0.041539,0.0030543,-0.18,38.52,-18.42
3.3915,-9.2074,0.47671,-0.041233,-0.026878,-0.000305,-0.18,38.7,-18.48
3.3778,-9.221,0.50395,-0.040317,-0.0027489,-0.0079412,-0.18,38.64,-18.36
3.228,-9.2074,0.47671,-0.044899,0.013439,-0.015577,-0.36,38.58,-18.3
3.2553,-9.1665,0.50395,-0.047647,0.07086,-0.020769,-0.36,38.52,-18.3
3.2008,-9.1801,0.46309,-0.043371,0.098044,-0.020159,-0.12,38.64,-18.48
3.2825,-9.1937,0.36775,-0.030238,0.12156,-0.012828,0.3,38.58,-18.3
3.3642,-9.1801,0.44947,-0.03543,0.1237,0.0051924,0.48,38.58,-18.36
3.4323,-9.1937,0.46309,-0.029932,0.11148,0.015882,0.78,38.52,-18.42
3.514,-9.221,0.42223,-0.033292,0.08491,0.026267,0.78,38.7,-18.42
3.5685,-9.221,0.40861,-0.017104,0.067806,0.023213,0.84,38.64,-18.36
3.5958,-9.221,0.39499,-0.015577,0.039095,0.020464,0.78,38.58,-18.42
3.6094,-9.2891,0.40861,-0.017104,0.013134,0.012828,0.96,38.58,-18.3
3.5958,-9.2074,0.24517,-0.0076358,-0.0061087,0.0094684,0.72,38.58,-18.42
3.5413,-9.1937,0.40861,-0.025962,-0.04215,0.0030543,0.3,38.58,-18.42
3.4732,-9.221,0.42223,-0.022907,-0.087354,0.0064141,-0.06,38.64,-18.54
3.3506,-9.1937,0.47671,-0.027184,-0.083078,0.0033598,-0.42,38.58,-18.42
3.4323,-9.1937,0.51757,-0.019242,-0.074526,0.0073304,-0.42,38.46,-18.36
3.3506,-9.221,0.44947,-0.021075,-0.053451,0.010079,-0.36,38.4,-18.54
3.3234,-9.221,0.47671,-0.022297,-0.022907,0.0054978,-0.3,38.28,-18.54
3.2961,-9.2346,0.54481,-0.020159,0.0027489,0.009163,-0.36,38.28,-18.54
3.337,-9.1256,0.53119,-0.018021,0.021991,0.01069,-0.24,38.64,-18.6
3.4187,-9.2074,0.47671,-0.020464,0.044899,0.0076358,-0.24,38.64,-18.54
3.3778,-9.1665,0.57205,-0.012828,0.03879,0.019853,-0.12,38.7,-18.42
3.4187,-9.1529,0.54481,-0.010385,0.036957,0.024435,-0.36,38.64,-18.36
3.4868,-9.221,0.44947,-0.013744,0.020464,0.030849,-0.48,38.64,-18.36
3.514,-9.2482,0.50395,-0.018326,0.0064141,0.036652,-0.42,38.52,-18.36
3.514,-9.2346,0.40861,-0.016799,0.0033598,0.040012,-0.54,38.52,-18.36
3.4868,-9.2074,0.44947,-0.020464,-0.017715,0.038179,-0.42,38.64,-18.36
3.5413,-9.2074,0.47671,-0.015577,-0.036652,0.018631,-0.36,38.64,-18.36
3.5413,-9.2482,0.50395,-0.021991,-0.05284,0.013744,-0.6,38.4,-18.36
3.4732,-9.1665,0.54481,-0.026878,-0.052534,0.01069,-0.54,38.34,-18.54
3.3642,-9.1529,0.50395,-0.021991,-0.051618,0.000916,-0.78,38.34,-18.6
3.2825,-9.221,0.44947,-0.019853,-0.03207,0.0030543,-0.66,38.34,-18.84
3.2825,-9.2346,0.51757,-0.027184,-0.017104,0.0073304,-0.72,38.28,-18.96
3.2553,-9.1937,0.50395,-0.02474,0.000611,0.016188,-0.78,38.4,-18.84
3.2825,-9.1937,0.49033,-0.02138,0.014966,0.015272,-0.9,38.28,-18.78
3.3778,-9.221,0.54481,-0.023213,0.026573,0.016799,-1.14,38.34,-18.78
3.3506,-9.221,0.46309,-0.022602,0.030543,0.013439,-1.14,38.22,-18.96
3.4323,-9.2891,0.43585,-0.030849,0.026573,0.002138,-1.08,38.1,-19.14
3.4051,-9.1937,0.46309,-0.029016,0.032376,0.0045815,-1.08,38.34,-19.2
3.2825,-9.1393,0.44947,-0.035736,0.041539,0.0027489,-0.96,38.4,-19.14
3.4187,-9.0984,0.36775,-0.030849,0.045509,0.014661,-0.84,38.46,-19.02
3.514,-9.112,0.44947,-0.022907,0.018021,0.026267,-0.72,38.46,-18.84
3.4459,-9.1529,0.42223,-0.027794,-0.029322,0.042761,-0.6,38.4,-19.02
3.5277,-9.2618,0.40861,-0.026878,-0.054978,0.045815,-0.48,38.34,-19.02
3.514,-9.3163,0.50395,-0.026573,-0.075442,0.046426,-0.36,38.22,-19.2
3.4732,-9.3163,0.53119,-0.04948,-0.037874,0.03543,-0.36,38.34,-19.14
3.4732,-9.2482,0.50395,-0.043066,-0.019242,0.021686,-0.3,38.4,-18.96
3.5685,-9.2074,0.42223,-0.038179,-0.047342,0.0045815,-0.36,38.46,-19.02
3.5549,-9.2755,0.47671,-0.028711,-0.079412,-0.007025,-0.24,38.4,-19.02
3.4187,-9.2482,0.51757,-0.039401,-0.098044,-0.0051924,-0.24,38.46,-18.96
3.3097,-9.3163,0.61292,-0.052534,-0.079412,-0.0024435,-0.36,38.4,-19.08
3.2689,-9.3163,0.49033,-0.055283,-0.029627,-0.000611,-0.48,38.46,-18.96
3.337,-9.4525,0.58567,-0.05681,-0.018021,0.016799,-0.42,38.58,-19.08
3.3642,-9.6432,0.50395,-0.055589,-0.0012217,0.031765,-0.48,38.7,-18.72
3.0918,-8.8941,0.42223,-0.039095,0.059559,0.026573,-0.36,38.76,-18.66
3.1191,-8.7034,0.32689,-0.013744,0.14569,0.0058032,-0.48,38.94,-18.72
3.2553,-8.5263,0.28603,0.002138,0.20647,0.007025,-0.48,38.82,-18.54
3.7047,-8.8668,0.47671,0.010996,0.17715,0.024129,-0.6,38.58,-18.54
3.8954,-9.0167,0.54481,-0.016493,-0.096822,0.080023,-0.66,38.46,-18.72
3.6639,-9.1937,0.54481,-0.03543,-0.17257,0.10293,-0.6,38.34,-18.66
3.5413,-9.3436,0.70826,-0.045815,-0.07025,0.076664,-0.6,38.4,-18.54
3.8137,-9.4934,0.7355,-0.030543,0.041233,0.033903,-0.6,38.28,-18.6
3.8546,-9.3708,0.6674,0.0064141,-0.059254,-0.0012217,-0.66,38.22,-18.78
3.5822,-9.4117,0.36775,0.052534,-0.3036,-0.0073304,-0.78,38.34,-18.9
3.4323,-9.398,0.31327,0.055283,-0.35247,-0.0018326,-0.72,38.28,-19.02
3.051,-9.3844,0.1362,0.026573,-0.2865,0.0097738,-0.72,38.28,-19.14
2.9829,-9.3572,0.17706,-0.017104,-0.13164,0.019548,-0.6,38.34,-19.14
3.0646,-9.4117,0.24517,-0.068417,0.0094684,0.015577,-0.66,38.4,-18.84
3.2008,-9.221,0.29965,-0.0956,0.10293,0.0067195,-0.72,38.58,-18.96
3.3642,-9.1256,0.44947,-0.092241,0.13531,0.0054978,-0.54,38.64,-18.96
3.5277,-9.1256,0.51757,-0.068722,0.10476,0.0067195,-0.66,38.64,-18.96
3.5413,-9.2074,0.55843,-0.06353,0.064446,0.011606,-0.6,38.64,-18.84
3.5549,-9.1665,0.65378,-0.045204,0.011606,0.020769,-0.6,38.46,-18.66
3.5549,-9.1393,0.62654,-0.030543,-0.03543,0.018937,-0.72,38.4,-18.6
3.4187,-9.1937,0.50395,-0.027489,-0.064446,0.014966,-0.78,38.4,-18.54
3.4187,-9.2074,0.50395,-0.018021,-0.061087,0.0015272,-0.78,38.4,-18.36
3.2825,-9.1937,0.35413,-0.02138,-0.019853,-0.0054978,-0.84,38.52,-18.48
3.1872,-9.2891,0.24517,-0.021075,0.020159,-0.0039706,-1.02,38.46,-18.36
3.2825,-9.2891,0.24517,-0.030849,0.045509,0.0061087,-1.02,38.28,-18.54
3.337,-9.221,0.19068,-0.03207,0.057727,0.016493,-1.14,38.4,-18.48
3.4459,-9.2482,0.32689,-0.048869,0.059559,0.026878,-1.26,38.22,-18.6
3.4732,-9.2074,0.35413,-0.051007,0.045509,0.027184,-1.2,38.28,-18.48
3.4732,-9.1256,0.50395,-0.053451,0.016799,0.02138,-1.02,38.22,-18.48
3.5413,-9.0984,0.5993,-0.036957,0.0045815,0.0051924,-0.9,38.16,-18.36
3.4732,-9.1256,0.58567,-0.037874,-0.0058032,-0.000916,-0.9,38.28,-18.66
3.4323,-9.1393,0.57205,-0.027184,-0.0027489,-0.002138,-0.72,38.16,-18.54
3.3778,-9.221,0.49033,-0.021686,0.0054978,0.002138,-0.66,38.28,-18.6
3.3506,-9.0303,0.38137,-0.024129,0.025045,0.0048869,-0.78,38.34,-18.54
3.2961,-9.2074,0.34051,-0.023824,0.035125,0.0079412,-0.54,38.28,-18.54
3.3234,-9.2618,0.35413,-0.032987,0.047037,0.0051924,-0.54,38.34,-18.48
3.4596,-9.2074,0.39499,-0.029932,0.056505,0.016493,-0.48,38.46,-18.66
3.4459,-9.2618,0.35413,-0.041539,0.047037,0.020159,-0.48,38.64,-18.78
3.4732,-9.2346,0.38137,-0.041539,0.036041,0.021075,-0.6,38.64,-18.84
3.5004,-9.221,0.49033,-0.051313,0.022297,0.02138,-0.6,38.7,-18.84
3.4459,-9.221,0.47671,-0.038485,0.0027489,0.019548,-0.6,38.52,-18.96
3.4459,-9.1937,0.47671,-0.032681,0.0042761,0.015577,-0.84,38.28,-18.96
3.4596,-9.2482,0.50395,-0.032987,0.0027489,0.013134,-0.72,38.34,-18.84
3.3915,-9.2618,0.42223,-0.038485,0.0045815,0.0088575,-0.66,38.34,-18.72
3.3778,-9.221,0.42223,-0.03543,0.014355,0.0085521,-0.72,38.34,-18.9
3.3778,-9.2346,0.43585,-0.033292,0.026573,0.019242,-0.84,38.1,-18.84
3.3642,-9.2074,0.50395,-0.039706,0.030849,0.011301,-0.9,37.92,-18.66
3.4187,-9.2482,0.40861,-0.038485,0.033598,0.017104,-0.9,38.04,-18.54
3.4051,-9.1937,0.39499,-0.035736,0.037568,0.020159,-0.66,38.16,-18.54
3.4323,-9.2074,0.44947,-0.034819,0.033292,0.019853,-0.54,38.4,-18.48
3.4868,-9.221,0.40861,-0.028405,0.027489,0.018631,-0.3,38.7,-18.66
3.4732,-9.2482,0.46309,-0.03543,0.023824,0.025045,-0.18,38.58,-18.6
3.4459,-9.2618,0.46309,-0.020159,0.0067195,0.021991,-0.12,38.64,-18.72
3.4732,-9.2074,0.44947,-0.03146,-0.000611,0.03146,-0.24,38.82,-18.72
3.4459,-9.221,0.50395,-0.029627,-0.0097738,0.021686,-0.12,39.06,-18.78
3.4596,-9.1665,0.39499,-0.030238,-0.015272,0.023213,-0.3,39.12,-19.02
3.4868,-9.1937,0.44947,-0.020769,-0.018631,0.022297,-0.3,39.06,-19.02
3.4732,-9.1937,0.44947,-0.026267,-0.019242,0.018021,-0.42,38.94,-18.9
3.4051,-9.1801,0.43585,-0.024435,-0.019548,0.030849,-0.48,38.7,-19.02
3.3915,-9.1665,0.43585,-0.013439,-0.013439,0.020464,-0.48,38.52,-18.78
3.337,-9.2346,0.44947,-0.030238,-0.0088575,0.0097738,-0.48,38.46,-18.6
3.3778,-9.2346,0.46309,-0.018021,0.0027489,0.020159,-0.6,38.4,-18.66
3.3506,-9.1801,0.47671,-0.018021,0.000305,0.018021,-0.6,38.34,-18.72
3.3778,-9.2891,0.43585,-0.025656,0.0042761,0.030238,-0.72,38.22,-18.66
3.3915,-9.3436,0.47671,-0.037568,0.014355,0.034819,-0.6,38.1,-18.36
3.4187,-9.2482,0.40861,-0.044288,0.018937,0.035125,-0.6,38.28,-18.42
3.4323,-9.2482,0.44947,-0.040317,0.011912,0.036957,-0.66,38.22,-18.48
3.4051,-9.2755,0.51757,-0.037568,0.0012217,0.029932,-0.6,38.22,-18.54
3.4051,-9.221,0.40861,-0.030543,-0.0018326,0.023824,-0.72,38.34,-18.48
3.3915,-9.1529,0.51757,-0.032376,0.013134,0.021075,-0.72,38.16,-18.42
3.4323,-9.1529,0.51757,-0.041844,0.023213,0.014355,-0.72,38.22,-18.42
3.514,-9.1529,0.46309,-0.035125,0.022907,0.011301,-0.84,38.4,-18.36
3.4051,-9.1665,0.50395,-0.033292,0.000611,0.0033598,-0.9,38.52,-18.3
3.3915,-9.2482,0.50395,-0.019548,-0.016799,0.0042761,-0.84,38.64,-18.36
3.3506,-9.2618,0.46309,-0.0097738,-0.016799,0.011301,-0.78,38.7,-18.36
3.337,-9.221,0.36775,-0.02138,-0.018631,0.013134,-0.66,38.7,-18.36
3.3097,-9.1937,0.38137,-0.0281,-0.01741,0.0094684,-0.66,38.7,-18.6
3.3234,-9.2482,0.47671,-0.028711,0.000916,0.010996,-0.48,38.76,-18.6
3.337,-9.2891,0.47671,-0.030238,0.015577,0.01405,-0.48,38.76,-18.54
3.337,-9.2891,0.44947,-0.039706,0.029932,0.012523,-0.66,38.88,-18.54
3.4459,-9.221,0.47671,-0.037874,0.020159,0.018021,-0.78,38.94,-18.9
3.4459,-9.2482,0.44947,-0.040623,0.024435,0.020464,-0.72,38.94,-18.9
3.4732,-9.1937,0.44947,-0.033292,0.017104,0.011606,-0.72,38.94,-19.14
3.5004,-9.221,0.54481,-0.031765,0.0088575,0.013134,-0.72,39.06,-19.14
3.4732,-9.2346,0.40861,-0.040623,-0.0033598,0.011606,-0.66,38.94,-19.2
3.3778,-9.1937,0.49033,-0.037568,-0.0079412,0.014661,-0.72,39.06,-19.2
3.4187,-9.1937,0.40861,-0.03543,-0.015272,0.012828,-0.6,39.12,-19.14
3.3642,-9.1937,0.44947,-0.038179,-0.014966,0.01069,-0.54,39.06,-19.08
3.4323,-9.2346,0.42223,-0.039706,-0.0097738,0.012828,-0.54,39.24,-19.02
3.3506,-9.2346,0.32689,-0.03207,-0.0085521,0.019548,-0.54,39.18,-18.9
3.3778,-9.2618,0.47671,-0.037568,0.0024435,0.019853,-0.54,39.12,-19.02
3.3778,-9.2482,0.46309,-0.04215,-0.0012217,0.013744,-0.42,39.06,-19.14
3.3915,-9.221,0.49033,-0.040317,-0.0030543,0.014661,-0.54,39.12,-18.96
3.3778,-9.221,0.47671,-0.036652,-0.0012217,0.0073304,-0.72,39.12,-19.02
3.4459,-9.2346,0.54481,-0.033598,0.002138,0.009163,-0.54,39.0,-18.6
3.3642,-9.221,0.50395,-0.03543,0.0097738,0.010079,-0.48,39.06,-18.66
3.3778,-9.221,0.47671,-0.032987,0.011606,0.0079412,-0.42,39.18,-18.66
3.4323,-9.2346,0.44947,-0.037263,0.014355,0.012523,-0.54,38.94,-18.54
3.4187,-9.221,0.47671,-0.03543,0.009163,0.015272,-0.66,39.06,-18.66
3.3778,-9.2891,0.50395,-0.028405,0.007025,0.01069,-0.66,38.88,-18.66
3.4732,-9.2346,0.44947,-0.032987,-0.0012217,0.012523,-0.66,39.0,-18.66
3.4459,-9.2482,0.43585,-0.036346,-0.015272,0.0094684,-0.66,39.06,-18.54
3.4323,-9.2074,0.54481,-0.03543,-0.022907,0.01405,-0.54,39.06,-18.54
3.337,-9.221,0.44947,-0.029627,-0.027184,0.018937,-0.54,39.0,-18.36
3.4187,-9.1937,0.50395,-0.039706,-0.019548,0.021686,-0.54,38.82,-18.3
3.3778,-9.1937,0.35413,-0.035736,-0.017715,0.018326,-0.12,38.94,-18.18
3.337,-9.1529,0.40861,-0.032987,-0.02138,0.011912,-0.18,39.0,-18.48
3.337,-9.1801,0.44947,-0.03207,-0.019548,0.0097738,-0.18,39.0,-18.48
3.3506,-9.1937,0.47671,-0.034819,-0.018631,0.0061087,-0.3,38.94,-18.36
3.3778,-9.221,0.36775,-0.027184,-0.013134,0.0079412,-0.3,38.82,-18.42
3.3097,-9.2346,0.46309,-0.029627,-0.000611,0.01069,-0.18,38.76,-18.48
3.3778,-9.2618,0.46309,-0.036346,0.011606,0.016799,-0.24,38.58,-18.54
3.3506,-9.2891,0.54481,-0.041844,0.025045,0.014966,-0.36,38.7,-18.54
3.3506,-9.2891,0.46309,-0.036652,0.027794,0.012217,-0.48,38.76,-18.72
3.4868,-9.221,0.47671,-0.042455,0.016188,0.018326,-0.54,38.7,-18.78
3.4459,-9.1937,0.49033,-0.03146,0.0018326,0.010385,-0.66,38.82,-18.96
3.4051,-9.2482,0.43585,-0.031154,-0.013134,0.010385,-0.66,38.82,-18.9
3.4187,-9.1801,0.39499,-0.030849,-0.014661,0.000611,-0.84,38.88,-18.84
3.3778,-9.1529,0.38137,-0.032987,-0.002138,0.0097738,-0.9,38.82,-18.72
3.3097,-9.221,0.47671,-0.03207,-0.0064141,0.0097738,-1.08,38.76,-18.72
3.3915,-9.2482,0.42223,-0.029627,-0.0067195,0.011606,-1.08,38.88,-18.78
3.3778,-9.221,0.39499,-0.033598,-0.010079,0.024129,-1.08,39.06,-18.66
3.4187,-9.2074,0.47671,-0.024129,-0.022907,0.020159,-1.14,39.06,-18.72
3.4323,-9.1256,0.49033,-0.029016,-0.030849,0.02138,-1.08,39.18,-18.72
3.4051,-9.1665,0.39499,-0.032987,-0.026878,0.010996,-1.08,39.12,-18.66
3.4459,-9.1937,0.47671,-0.027794,-0.022602,0.01069,-1.02,38.94,-18.66
3.3506,-9.2346,0.44947,-0.03146,-0.0045815,0.010385,-1.14,39.0,-18.66
3.4596,-9.2074,0.40861,-0.036652,0.018021,0.016188,-1.02,38.94,-18.42
3.4187,-9.2482,0.42223,-0.036957,0.016188,0.0094684,-1.08,38.76,-18.66
3.4732,-9.2618,0.46309,-0.037263,0.0085521,0.000916,-1.08,38.7,-18.78
3.5004,-9.2482,0.42223,-0.036346,0.017715,-0.010079,-0.9,38.76,-18.84
3.4323,-9.2346,0.39499,-0.039095,0.018631,-0.015272,-0.9,38.7,-18.9
3.4732,-9.2891,0.47671,-0.042455,0.013439,-0.0048869,-0.9,38.64,-18.9
3.514,-9.2074,0.53119,-0.041539,0.013439,-0.010385,-0.96,38.7,-19.02
3.5004,-9.0848,0.54481,-0.044288,-0.0054978,-0.0054978,-1.02,38.58,-18.9
3.4323,-9.1801,0.51757,-0.037568,-0.035125,-0.0048869,-1.02,38.52,-18.84
3.4187,-9.1393,0.54481,-0.029322,-0.062003,-0.0039706,-0.96,38.58,-18.9
3.3506,-9.1393,0.50395,-0.024435,-0.08827,0.0073304,-0.9,38.58,-18.9
3.3097,-9.1665,0.47671,-0.019548,-0.083689,0.012217,-1.02,38.52,-18.78
3.2553,-9.1937,0.50395,-0.016493,-0.071166,0.014966,-0.96,38.52,-18.84
3.2416,-9.221,0.44947,-0.014661,-0.028711,0.015272,-0.9,38.58,-18.9
3.3097,-9.2755,0.47671,-0.021075,0.0085521,0.031154,-0.78,38.52,-18.72
3.4459,-9.2482,0.44947,-0.027184,0.038179,0.021686,-0.84,38.58,-18.72
3.4868,-9.2891,0.36775,-0.032681,0.054978,0.021075,-0.78,38.52,-18.72
3.514,-9.2482,0.39499,-0.044593,0.044288,0.022297,-0.78,38.52,-18.84
3.6094,-9.2482,0.39499,-0.034514,0.03207,0.019242,-0.66,38.34,-18.9
3.5549,-9.2074,0.38137,-0.040317,-0.012523,0.021075,-0.72,38.46,-18.9
3.5549,-9.1801,0.42223,-0.036041,-0.045204,0.016799,-0.72,38.58,-18.96
3.6503,-9.1937,0.42223,-0.031765,-0.072998,0.01741,-0.72,38.64,-18.96
3.4459,-9.1937,0.31327,-0.037874,-0.084299,0.022907,-0.6,38.58,-18.78
3.4732,-9.1665,0.42223,-0.039095,-0.073915,0.023824,-0.54,38.7,-18.84
3.3778,-9.1801,0.42223,-0.039706,-0.069944,0.025351,-0.72,38.76,-18.9
3.4187,-9.3163,0.44947,-0.035125,-0.043066,0.02138,-0.66,38.82,-18.84
3.3778,-9.221,0.47671,-0.034208,-0.018326,0.02138,-0.72,38.88,-18.78
3.3642,-9.2074,0.54481,-0.036957,-0.0061087,0.025962,-0.72,38.82,-18.9
3.3915,-9.1665,0.46309,-0.03543,0.0042761,0.019853,-0.84,38.82,-18.9
3.3642,-9.221,0.35413,-0.037568,0.0097738,0.018631,-0.72,38.88,-18.72
3.3915,-9.1937,0.38137,-0.032987,0.023824,0.019853,-0.78,39.0,-18.66
3.4596,-9.2482,0.42223,-0.030543,0.022602,0.015882,-0.84,39.06,-18.72
3.4596,-9.2618,0.50395,-0.041233,0.034819,0.024435,-0.84,39.06,-18.84
3.4187,-9.1937,0.47671,-0.042455,0.047953,0.023824,-0.96,38.94,-18.84
3.4459,-9.1529,0.42223,-0.041233,0.058032,0.012523,-1.02,39.0,-18.96
3.5413,-9.1665,0.44947,-0.033903,0.05284,0.011301,-1.08,38.88,-19.14
3.4732,-9.1665,0.43585,-0.030543,0.047647,0.002138,-0.96,38.82,-19.08
3.4596,-9.1529,0.40861,-0.037874,0.039095,0.0045815,-0.96,38.88,-19.02
3.4596,-9.221,0.42223,-0.025962,0.032987,0.0018326,-0.96,38.82,-19.02
3.4459,-9.2891,0.32689,-0.023824,0.028711,-0.000611,-0.96,38.94,-18.9
3.4187,-9.3027,0.40861,-0.029627,0.0067195,0.0094684,-0.96,39.0,-19.02
3.4323,-9.2482,0.34051,-0.025045,0.0039706,0.010079,-1.08,39.06,-19.08
3.4459,-9.2482,0.28603,-0.022297,0.002138,0.018021,-1.08,39.06,-18.9
3.3778,-9.2482,0.47671,-0.025656,0.013744,0.013744,-1.02,39.06,-18.84
3.3915,-9.2482,0.34051,-0.0281,0.016188,0.013744,-0.96,39.0,-18.72
3.3778,-9.1665,0.38137,-0.025656,0.018021,0.014355,-0.9,39.12,-18.78
3.3915,-9.2346,0.46309,-0.025045,0.015272,0.01741,-1.02,39.18,-18.84
3.4323,-9.2482,0.46309,-0.025656,0.0024435,0.014966,-0.96,39.36,-18.72
3.4187,-9.1937,0.39499,-0.032376,-0.002138,0.022297,-0.96,39.42,-18.66
3.3915,-9.2074,0.46309,-0.033598,0.0030543,0.019853,-0.96,39.36,-18.96
3.4187,-9.221,0.43585,-0.033903,0.017104,0.01405,-1.02,39.36,-19.08
3.4323,-9.2074,0.40861,-0.036346,0.020769,0.019242,-1.02,39.36,-19.14
3.4323,-9.2346,0.50395,-0.041539,0.018631,0.01741,-1.08,39.54,-19.08
3.4459,-9.2074,0.54481,-0.044899,0.017104,0.012523,-1.08,39.42,-19.02
3.4732,-9.2346,0.61292,-0.040623,0.022297,0.014355,-1.08,39.24,-19.08
3.4459,-9.221,0.50395,-0.044288,0.030238,0.009163,-1.08,39.24,-19.02
3.4187,-9.0303,0.50395,-0.028711,0.047037,0.0036652,-1.02,39.24,-19.32
3.4051,-9.1665,0.47671,-0.028711,0.058338,0.0048869,-1.2,39.06,-19.38
3.4732,-9.1665,0.38137,-0.036652,0.059254,0.021075,-1.2,39.0,-19.38
3.4868,-9.1529,0.44947,-0.03879,0.058338,0.015577,-1.2,38.82,-19.44
3.4323,-9.1665,0.43585,-0.03879,0.049175,0.013744,-1.26,38.82,-19.56
3.4868,-9.1393,0.40861,-0.0281,0.02138,0.022602,-1.2,38.82,-19.38
3.4732,-9.1937,0.51757,-0.018021,0.012828,0.016493,-1.26,38.76,-19.38
3.5004,-9.221,0.53119,-0.027184,0.018021,0.025045,-1.2,38.76,-19.32
3.4459,-9.2482,0.49033,-0.017104,0.009163,0.019853,-0.96,38.58,-19.08
3.4732,-9.2755,0.44947,-0.025351,0.012217,0.025045,-1.02,38.64,-19.08
3.4732,-9.2755,0.44947,-0.022907,-0.000305,0.023213,-1.02,38.64,-19.08
3.4732,-9.2074,0.42223,-0.022907,-0.0085521,0.021686,-0.9,38.64,-19.08
3.4732,-9.2346,0.47671,-0.027184,-0.015272,0.018021,-0.84,38.7,-19.02
3.4868,-9.1529,0.46309,-0.02138,-0.019853,0.014355,-0.72,38.76,-18.84
3.4187,-9.221,0.50395,-0.028711,-0.025656,0.010385,-0.48,38.7,-18.84
3.4051,-9.221,0.40861,-0.028405,-0.029932,0.018631,-0.48,38.76,-18.72
3.3506,-9.2074,0.50395,-0.022297,-0.029016,0.022297,-0.42,38.58,-18.36
3.3506,-9.221,0.44947,-0.020769,-0.026573,0.023518,-0.42,38.52,-18.24
3.3506,-9.2074,0.34051,-0.023518,-0.016188,0.024129,-0.66,38.52,-18.36
3.3778,-9.221,0.46309,-0.034514,-0.000305,0.025045,-0.78,38.46,-18.6
3.4051,-9.1937,0.39499,-0.035125,0.01069,0.026267,-0.84,38.58,-18.6
3.4187,-9.1801,0.42223,-0.039095,0.018937,0.02474,-0.84,38.52,-18.66
3.4187,-9.2074,0.47671,-0.037263,0.027489,0.022297,-1.02,38.46,-18.66
3.3778,-9.2346,0.50395,-0.037568,0.027794,0.019548,-1.08,38.46,-18.54
3.4323,-9.1529,0.50395,-0.029016,0.019548,0.017715,-0.9,38.34,-18.6
3.3642,-9.221,0.46309,-0.034514,-0.0024435,0.027489,-0.9,38.64,-18.78
3.4051,-9.3027,0.55843,-0.044593,0.023518,0.017104,-0.78,38.64,-18.84
3.4187,-9.2482,0.49033,-0.042761,0.038179,0.027184,-0.6,38.58,-18.78
3.4323,-9.1937,0.47671,-0.037568,0.03207,0.019853,-0.66,38.64,-18.72
3.4732,-9.1256,0.47671,-0.030238,0.013744,0.014966,-0.72,38.64,-18.66
3.5413,-9.1937,0.44947,-0.025656,-0.0027489,0.002138,-0.72,38.64,-18.6
3.4187,-9.2074,0.43585,-0.029932,-0.000916,0.0048869,-0.6,38.82,-18.6
3.4051,-9.1529,0.44947,-0.036346,0.0042761,-0.000916,-0.6,38.82,-18.6
3.3778,-9.221,0.46309,-0.034514,0.011912,0.0033598,-0.48,38.82,-18.48
3.3506,-9.2074,0.44947,-0.0281,0.0097738,0.0033598,-0.72,38.82,-18.48
3.3642,-9.1801,0.50395,-0.029322,0.015272,0.014661,-0.6,38.82,-18.36
3.4187,-9.2346,0.58567,-0.025351,0.0054978,0.009163,-0.66,38.88,-18.48
3.3642,-9.2482,0.50395,-0.018631,-0.013744,0.02138,-0.78,38.76,-18.54
3.4051,-9.2482,0.53119,-0.028405,0.0097738,0.013134,-0.96,38.76,-18.6
3.4459,-9.1937,0.49033,-0.024129,0.02474,0.01405,-0.96,38.82,-18.36
3.4732,-9.1801,0.47671,-0.027489,-0.016799,0.020159,-0.96,38.76,-18.42
3.4459,-9.2618,0.44947,-0.030849,-0.01741,0.020159,-0.96,38.7,-18.42
3.4187,-9.2346,0.46309,-0.027184,-0.000611,0.0061087,-0.96,38.7,-18.36
3.4732,-9.221,0.49033,-0.03146,0.007025,0.010385,-1.02,38.4,-18.48
3.3778,-9.221,0.47671,-0.03207,-0.014661,0.01741,-0.96,38.46,-18.66
3.3915,-9.2346,0.51757,-0.030543,0.0015272,0.0064141,-1.08,38.58,-18.72
3.4187,-9.2074,0.47671,-0.029322,-0.0033598,0.0045815,-1.02,38.58,-18.72
3.4459,-9.2755,0.53119,-0.034819,-0.000916,0.0033598,-1.02,38.64,-18.78
3.3778,-9.221,0.50395,-0.033598,0.010996,0.007025,-1.08,38.7,-18.72
3.3915,-9.2346,0.44947,-0.032987,0.0082467,0.01069,-0.9,38.76,-18.78
3.3915,-9.221,0.43585,-0.039095,0.013439,0.01405,-0.9,38.76,-18.66
3.3778,-9.2074,0.47671,-0.036652,0.018326,0.013134,-0.78,38.82,-18.78
3.3915,-9.1529,0.47671,-0.036041,0.021686,0.009163,-0.66,38.76,-18.96
3.5004,-9.0575,0.54481,-0.040928,0.020464,0.01741,-0.6,38.94,-18.9
3.4459,-9.1937,0.44947,-0.040317,0.015882,0.012828,-0.54,39.0,-18.9
3.3915,-9.221,0.54481,-0.030238,0.013134,0.0079412,-0.66,39.3,-18.84
3.4596,-9.1529,0.49033,-0.034514,0.013744,0.0088575,-0.6,39.18,-18.72
3.4459,-9.221,0.46309,-0.031154,0.014661,0.011606,-0.42,39.06,-18.6
3.4459,-9.2346,0.50395,-0.031154,0.011912,0.012217,-0.36,39.12,-18.42
3.3778,-9.2346,0.54481,-0.029322,0.011606,0.0082467,-0.3,39.12,-18.48
3.4732,-9.2891,0.50395,-0.033598,0.0064141,0.020464,-0.3,38.94,-18.48
3.5004,-9.1529,0.50395,-0.023213,-0.012828,0.016493,-0.42,38.82,-18.54
3.4187,-9.221,0.42223,-0.029322,-0.016493,0.029627,-0.42,38.7,-18.54
3.4732,-9.2074,0.43585,-0.018021,-0.014966,0.012217,-0.36,38.7,-18.48
3.3778,-9.1801,0.54481,-0.017104,-0.02138,0.0054978,-0.48,38.88,-18.36
3.3915,-9.1665,0.44947,-0.016188,-0.020159,0.011606,-0.42,38.82,-18.48
3.3778,-9.1529,0.40861,-0.02138,-0.042455,0.01741,-0.42,38.82,-18.6
3.3778,-9.2482,0.47671,-0.027794,-0.035736,0.020159,-0.48,38.7,-18.72
3.3915,-9.2346,0.50395,-0.022907,-0.025351,0.02138,-0.54,38.82,-18.84
3.3915,-9.221,0.43585,-0.021075,-0.019853,0.02138,-0.6,38.76,-18.96
3.4732,-9.2482,0.46309,-0.018631,-0.014661,0.016493,-0.78,38.7,-19.2
3.4459,-9.221,0.44947,-0.019548,-0.022602,0.02138,-0.84,38.7,-19.14
3.4459,-9.2482,0.38137,-0.027489,-0.01069,0.018021,-0.9,38.88,-19.14
3.4459,-9.2074,0.44947,-0.03207,-0.024435,0.022297,-0.84,38.94,-18.9
3.514,-9.2482,0.44947,-0.031154,-0.030849,0.02474,-0.78,39.0,-19.02
3.4732,-9.2482,0.50395,-0.03543,-0.040623,0.016188,-0.84,39.12,-19.02
3.4596,-9.1801,0.42223,-0.036346,-0.04215,0.011912,-0.96,39.06,-18.96
3.4459,-9.2482,0.44947,-0.030849,-0.041844,0.002138,-0.84,38.94,-18.84
3.4459,-9.2482,0.47671,-0.034819,-0.03146,0.0030543,-0.84,38.94,-18.72
3.4459,-9.3163,0.36775,-0.038179,-0.024129,0.0051924,-0.78,38.88,-18.6
3.3778,-9.2482,0.50395,-0.036652,-0.021991,0.01069,-0.78,38.82,-18.48
3.4459,-9.2346,0.44947,-0.036346,-0.021686,0.014661,-0.72,38.88,-18.54
3.4459,-9.2891,0.54481,-0.039095,-0.019548,0.020464,-0.72,38.94,-18.66
3.4459,-9.2482,0.43585,-0.045815,-0.020464,0.01741,-0.78,38.82,-18.6
3.4459,-9.2346,0.51757,-0.039095,-0.015577,0.021686,-0.84,38.76,-18.66
3.4732,-9.1256,0.47671,-0.036652,-0.017104,0.022602,-0.84,38.88,-18.72
3.4459,-9.1801,0.57205,-0.033292,-0.018021,0.021075,-0.9,38.88,-18.84
3.4459,-9.1801,0.40861,-0.027794,-0.024129,0.011301,-0.9,38.82,-18.78
3.3915,-9.1393,0.44947,-0.031765,-0.027794,-0.0024435,-0.78,38.76,-18.66
3.4187,-9.1393,0.39499,-0.031154,-0.02474,-0.000916,-0.9,38.7,-18.72
3.4459,-9.221,0.46309,-0.036957,-0.028405,0.0015272,-1.02,38.58,-18.78
3.4187,-9.1937,0.42223,-0.026267,-0.034514,0.010385,-1.14,38.64,-18.9
3.4732,-9.2346,0.46309,-0.027794,-0.038179,0.0058032,-1.26,38.58,-18.96
3.4732,-9.1937,0.49033,-0.029322,-0.032987,0.018326,-1.26,38.52,-18.9
3.4868,-9.1937,0.5993,-0.030543,-0.029932,0.011912,-1.08,38.46,-18.72
3.4187,-9.221,0.43585,-0.036041,-0.027794,0.012217,-0.96,38.52,-18.78
3.3778,-9.2074,0.43585,-0.030543,-0.023824,0.011912,-1.02,38.52,-18.6
3.4051,-9.221,0.44947,-0.032681,-0.012828,0.015882,-0.9,38.46,-18.66
3.4187,-9.2755,0.35413,-0.033292,-0.0076358,0.017104,-0.84,38.4,-18.6
3.3642,-9.2482,0.43585,-0.037263,-0.0058032,0.017715,-0.96,38.4,-18.72
3.4459,-9.221,0.42223,-0.039706,-0.0042761,0.019242,-1.02,38.28,-18.96
3.4732,-9.1529,0.40861,-0.036652,0.0030543,0.017104,-1.02,38.34,-19.02
3.4459,-9.221,0.40861,-0.040928,0.0027489,0.011912,-0.9,38.4,-19.02
3.4323,-9.0984,0.54481,-0.038179,0.0048869,0.0061087,-0.78,38.52,-18.96
3.4323,-9.1665,0.43585,-0.046731,0.01405,0.0061087,-0.72,38.52,-19.02
3.4459,-9.1529,0.44947,-0.035736,0.017715,0.0051924,-0.78,38.52,-18.9
3.4459,-9.2346,0.54481,-0.044593,0.023824,0.013744,-0.78,38.64,-18.84
3.4459,-9.1393,0.38137,-0.037874,0.040317,0.0088575,-0.84,38.52,-18.84
3.4323,-9.1665,0.42223,-0.04612,0.047342,0.014355,-0.84,38.52,-18.9
3.4459,-9.1529,0.47671,-0.042761,0.044593,0.010385,-0.78,38.64,-19.02
3.4732,-9.1665,0.40861,-0.041233,0.041844,0.0085521,-1.08,38.7,-19.02
3.4596,-9.2074,0.47671,-0.036346,0.032987,0.0067195,-1.2,38.64,-19.08
3.4732,-9.1529,0.53119,-0.036041,0.0281,0.007025,-1.26,38.7,-19.02
3.514,-9.2891,0.47671,-0.03543,0.016799,0.009163,-1.38,38.88,-18.84
3.4459,-9.2891,0.43585,-0.040317,0.020769,0.01741,-1.38,38.76,-18.72
3.5413,-9.2618,0.43585,-0.041539,0.016493,0.0094684,-1.38,38.64,-18.72
3.4459,-9.1937,0.42223,-0.034819,0.016799,0.014661,-1.5,38.7,-18.6
3.4051,-9.1665,0.44947,-0.026573,0.0094684,0.016493,-1.5,38.7,-18.72
3.4051,-9.1665,0.44947,-0.026573,0.0094684,0.016493,-1.5,38.7,-18.72
3.4051,-9.221,0.46309,-0.030849,0.0042761,0.014661,-1.56,38.64,-19.02
3.4187,-9.221,0.46309,-0.030849,0.0042761,0.014661,-1.56,38.64,-19.02
3.4459,-9.1665,0.50395,-0.018021,0.007025,0.015882,-1.68,38.46,-18.96
3.4051,-9.1937,0.44947,-0.029322,0.0079412,0.013134,-1.38,38.34,-19.02
3.4323,-9.1937,0.49033,-0.027794,0.015272,0.015882,-1.2,38.34,-18.96
3.4732,-9.1393,0.47671,-0.031154,0.017104,0.011301,-1.08,38.1,-19.02
3.3642,-9.1665,0.47671,-0.034208,0.016493,0.020769,-1.02,38.04,-19.08
3.4323,-9.1937,0.38137,-0.030543,0.024435,0.011301,-1.02,38.1,-19.26
3.4596,-9.221,0.51757,-0.032376,0.023824,0.023213,-0.84,38.04,-19.38
3.4868,-9.221,0.49033,-0.032987,0.018631,0.024435,-0.72,38.1,-19.44
3.4187,-9.2618,0.47671,-0.031765,0.020464,0.020464,-0.84,38.1,-19.32
3.4868,-9.221,0.50395,-0.031765,0.018937,0.019548,-0.72,38.34,-19.26
3.4459,-9.221,0.51757,-0.032376,0.027794,0.01741,-0.72,38.4,-19.14
3.4459,-9.1801,0.39499,-0.030543,0.020159,0.02474,-0.6,38.52,-19.14
3.4596,-9.1529,0.42223,-0.037874,0.0082467,0.019242,-0.66,38.7,-19.02
3.4459,-9.1665,0.43585,-0.036957,0.0039706,0.018021,-0.72,38.76,-19.02
3.4459,-9.1937,0.54481,-0.03879,0.0015272,0.014661,-0.9,38.94,-18.96
3.4868,-9.1665,0.43585,-0.025351,-0.0024435,0.015882,-0.84,39.12,-18.9
3.4459,-9.2346,0.50395,-0.021075,-0.0042761,0.01405,-0.6,39.24,-18.6
3.3234,-9.2618,0.57205,-0.035736,-0.019548,0.028405,-0.54,39.3,-18.54
3.4187,-9.2755,0.46309,-0.040012,0.022297,0.020769,-0.66,39.3,-18.54
3.4051,-9.1937,0.40861,-0.043066,0.036041,0.019853,-0.66,39.3,-18.6
3.4732,-9.1801,0.40861,-0.031154,0.01069,0.022907,-0.72,39.24,-18.54
3.4187,-9.221,0.44947,-0.027794,0.014661,0.012828,-0.78,39.18,-18.48
3.3778,-9.2346,0.55843,-0.029016,0.025045,0.014355,-0.78,39.0,-18.48
3.3915,-9.1529,0.47671,-0.029016,-0.000916,0.017104,-0.72,39.18,-18.48
3.4187,-9.2074,0.55843,-0.030543,0.019548,0.011606,-0.48,39.06,-18.54
3.3778,-9.1937,0.47671,-0.04215,0.027794,0.020464,-0.54,38.94,-18.42
3.4323,-9.221,0.47671,-0.029016,0.021075,0.029627,-0.42,39.0,-18.48
3.3778,-9.221,0.47671,-0.020159,0.019853,0.030543,-0.48,38.94,-18.54
3.3915,-9.221,0.54481,-0.023824,0.018326,0.033292,-0.48,38.88,-18.6
3.4323,-9.1937,0.49033,-0.019548,0.014355,0.026573,-0.48,38.76,-18.6
3.5413,-9.1529,0.47671,-0.022602,0.011912,0.02474,-0.54,38.7,-18.66
3.4459,-9.2482,0.42223,-0.024129,0.013744,0.020464,-0.54,38.64,-18.54
3.4459,-9.2482,0.49033,-0.0281,0.0030543,0.016188,-0.3,38.52,-18.54
3.4868,-9.2482,0.49033,-0.027489,-0.0039706,0.023213,-0.3,38.4,-18.72
3.4459,-9.2618,0.39499,-0.038179,-0.015577,0.013439,-0.3,38.34,-18.72
3.4459,-9.221,0.50395,-0.030238,-0.021075,0.010996,-0.48,38.34,-18.66
3.3778,-9.2346,0.53119,-0.032987,-0.023518,0.012828,-0.66,38.22,-18.6
3.3642,-9.1937,0.51757,-0.025045,-0.02138,0.010385,-0.54,38.22,-18.66
3.4187,-9.221,0.49033,-0.034208,-0.0012217,0.007025,-0.54,38.04,-18.72
3.3915,-9.2346,0.54481,-0.03146,0.0082467,0.015882,-0.48,38.16,-18.72
3.3778,-9.2074,0.50395,-0.036957,0.010996,0.015882,-0.66,38.28,-18.84
3.3642,-9.2482,0.49033,-0.041539,0.018326,0.019853,-0.78,38.16,-18.9
3.4323,-9.1665,0.44947,-0.042455,0.022297,0.016799,-0.78,38.22,-18.78
3.4187,-9.2074,0.50395,-0.037263,0.016493,0.021686,-0.66,38.28,-18.9
3.4459,-9.2346,0.44947,-0.03543,0.0082467,0.01741,-0.66,38.34,-18.9
3.4459,-9.1801,0.49033,-0.029627,0.0048869,0.01741,-0.66,38.52,-18.96
3.4868,-9.221,0.55843,-0.039095,0.0033598,0.010079,-0.78,38.64,-18.84
3.4187,-9.2074,0.49033,-0.038485,-0.0012217,0.015882,-0.6,38.52,-18.96
3.4187,-9.1801,0.49033,-0.044288,-0.0027489,0.009163,-0.6,38.64,-19.02
3.3778,-9.2891,0.57205,-0.036346,0.0058032,0.02138,-0.6,38.7,-18.84
3.3642,-9.2482,0.51757,-0.031154,-0.0015272,0.015272,-0.6,38.82,-18.84
3.3915,-9.1937,0.49033,-0.030543,0.0076358,0.0094684,-0.66,38.88,-18.84
3.4596,-9.2482,0.47671,-0.030543,0.007025,0.013439,-0.72,38.7,-18.72
3.4732,-9.1937,0.54481,-0.029322,0.0067195,0.014661,-0.78,38.94,-18.84
3.4596,-9.221,0.44947,-0.02474,-0.0033598,0.0085521,-0.66,38.88,-18.84
3.4732,-9.221,0.50395,-0.030543,-0.0042761,0.009163,-0.72,38.94,-18.84
3.4732,-9.2346,0.57205,-0.027489,-0.0067195,0.013439,-0.6,38.82,-18.84
3.4187,-9.2346,0.51757,-0.027794,-0.012523,0.011912,-0.6,38.94,-18.84
3.3915,-9.1665,0.40861,-0.025351,-0.020769,0.014355,-0.72,38.76,-18.84
3.3642,-9.2891,0.43585,-0.0281,-0.015272,0.01741,-0.78,38.76,-18.9
3.4187,-9.2346,0.47671,-0.030543,-0.018326,0.016188,-0.78,38.82,-18.78
3.4459,-9.1529,0.44947,-0.026267,-0.019242,0.017715,-0.84,38.88,-19.08
3.3778,-9.1801,0.50395,-0.023518,-0.02474,0.016188,-0.78,38.94,-19.02
3.4051,-9.2891,0.42223,-0.035736,-0.028711,0.014966,-0.78,38.82,-19.02
3.3778,-9.3027,0.47671,-0.021075,-0.018937,0.015272,-0.9,38.88,-19.02
3.4187,-9.2074,0.44947,-0.029932,-0.018937,0.018631,-0.9,38.82,-19.02
3.3915,-9.3027,0.46309,-0.029322,-0.013134,0.017104,-1.02,38.82,-19.02
3.4187,-9.1801,0.44947,-0.033292,-0.01405,0.017104,-1.02,38.82,-18.78
3.4187,-9.221,0.49033,-0.027794,-0.0094684,0.015577,-1.2,38.82,-18.96
3.3778,-9.2074,0.54481,-0.035125,-0.0048869,0.017715,-1.14,38.82,-18.84
3.4596,-9.2482,0.50395,-0.034819,-0.0085521,0.023213,-1.14,38.88,-18.96
3.4323,-9.1937,0.51757,-0.024435,-0.023824,0.025656,-1.14,39.0,-19.02
3.4459,-9.2074,0.47671,-0.026878,-0.034514,0.016493,-1.08,39.0,-19.14
3.4051,-9.2482,0.47671,-0.030849,-0.030849,0.012828,-1.08,38.94,-19.08
3.4323,-9.2618,0.43585,-0.037874,-0.034208,0.023824,-1.08,38.64,-19.02
3.4187,-9.112,0.42223,-0.034208,-0.030238,0.022907,-1.2,38.46,-18.96
3.4459,-9.1937,0.43585,-0.030543,-0.037874,0.019242,-1.08,38.46,-18.84
3.4868,-9.3163,0.40861,-0.023518,-0.048869,0.020464,-1.08,38.34,-19.02
3.5413,-9.2618,0.47671,-0.02474,-0.05681,0.0097738,-0.96,38.34,-18.96
3.4187,-9.1937,0.50395,-0.030543,-0.050396,0.011606,-1.02,38.4,-19.08
3.2961,-9.221,0.50395,-0.032681,-0.044899,0.0033598,-0.96,38.52,-18.96
3.337,-9.221,0.50395,-0.028711,-0.037874,0.0015272,-1.08,38.4,-19.02
3.4459,-9.1665,0.46309,-0.034514,-0.025351,0.011606,-0.9,38.34,-19.02
3.3097,-9.2346,0.44947,-0.030543,-0.02138,0.012217,-0.9,38.28,-19.02
3.3778,-9.1937,0.47671,-0.026573,-0.020769,0.019853,-0.9,38.28,-19.08
3.4187,-9.221,0.42223,-0.021686,-0.019242,0.025045,-1.02,38.34,-19.14
3.4459,-9.2346,0.43585,-0.03207,-0.016493,0.021075,-1.02,38.4,-19.08
3.3915,-9.1937,0.51757,-0.029016,-0.020159,0.0094684,-0.96,38.46,-19.08
3.4187,-9.1937,0.42223,-0.034208,-0.018326,0.000916,-0.96,38.4,-19.14
3.4187,-9.221,0.44947,-0.026267,-0.018631,0.0082467,-0.84,38.46,-18.9
3.4323,-9.1937,0.40861,-0.036652,-0.018631,0.0079412,-0.84,38.64,-18.9
3.4187,-9.112,0.51757,-0.041844,-0.015882,0.013439,-0.72,38.58,-18.96
3.4459,-9.1937,0.43585,-0.037874,-0.010079,0.010079,-0.72,38.4,-19.02
3.4459,-9.1529,0.50395,-0.040317,-0.011301,0.0051924,-0.72,38.46,-19.02
3.4323,-9.1256,0.44947,-0.03543,-0.0067195,0.0012217,-0.84,38.46,-18.96
3.4323,-9.221,0.50395,-0.032987,-0.0079412,0.01069,-0.84,38.4,-18.78
3.4459,-9.221,0.47671,-0.038485,0.000611,0.0067195,-0.9,38.46,-18.72
3.4187,-9.2346,0.38137,-0.044593,0.0030543,0.0082467,-0.96,38.52,-18.6
3.4187,-9.221,0.51757,-0.036041,0.0085521,0.0094684,-0.9,38.46,-18.66
3.4051,-9.221,0.44947,-0.033292,0.013744,0.015577,-0.84,38.46,-18.66
3.4323,-9.221,0.40861,-0.034819,0.01741,0.0085521,-1.02,38.46,-18.72
3.4051,-9.2074,0.44947,-0.033903,0.010996,0.0067195,-1.02,38.52,-18.84
3.4459,-9.2074,0.46309,-0.034819,0.0073304,0.013439,-1.26,38.52,-18.78
3.3778,-9.1937,0.50395,-0.036652,0.0088575,0.017715,-1.26,38.52,-18.9
3.4323,-9.2346,0.54481,-0.040012,0.0082467,0.01069,-1.32,38.64,-18.72
3.4596,-9.1529,0.50395,-0.038179,0.0082467,0.018021,-1.26,38.64,-18.78
3.4187,-9.1801,0.44947,-0.040317,0.012217,0.021075,-1.2,38.64,-18.72
3.3915,-9.1937,0.44947,-0.025351,0.021075,0.018631,-1.26,38.7,-18.78
3.4459,-9.221,0.49033,-0.03146,0.015882,0.020769,-1.14,38.64,-18.9
3.4459,-9.1529,0.44947,-0.029627,0.02138,0.019548,-1.02,38.76,-19.02
3.4187,-9.2346,0.39499,-0.034819,0.016799,0.024129,-1.02,38.76,-18.96
3.4732,-9.2074,0.40861,-0.026573,0.018937,0.019242,-1.02,38.82,-18.96
3.4187,-9.1937,0.47671,-0.033598,0.0079412,0.018937,-0.9,38.7,-19.02
3.4732,-9.2482,0.44947,-0.026267,0.0054978,0.020159,-0.96,38.76,-18.9
3.4323,-9.2074,0.47671,-0.028405,0.0033598,0.013439,-0.78,38.58,-18.84
3.4187,-9.1937,0.57205,-0.024435,0.0042761,0.01405,-0.78,38.64,-18.84
3.4187,-9.2346,0.43585,-0.027794,0.000611,0.018631,-0.78,38.58,-18.84
3.4187,-9.2074,0.44947,-0.031765,-0.0012217,0.024435,-0.78,38.58,-18.84
3.3915,-9.1529,0.47671,-0.034514,0.0079412,0.023824,-0.78,38.7,-18.84
3.4187,-9.221,0.46309,-0.0281,0.0094684,0.02138,-0.72,38.58,-18.9
3.3778,-9.1937,0.44947,-0.03543,0.014661,0.021991,-0.78,38.76,-18.72
3.3915,-9.2482,0.44947,-0.037874,0.017104,0.017715,-0.84,38.64,-18.78
3.4323,-9.2346,0.46309,-0.044288,0.015577,0.016188,-0.84,38.64,-18.6
3.4051,-9.2346,0.49033,-0.029627,0.014966,0.018326,-0.78,38.64,-18.72
3.3506,-9.1937,0.47671,-0.029627,0.021686,0.016799,-0.66,38.64,-18.48
3.4051,-9.1937,0.47671,-0.039095,0.020769,0.018631,-0.66,38.46,-18.54
3.3506,-9.2891,0.46309,-0.043982,0.026573,0.025045,-0.72,38.4,-18.54
3.514,-9.2482,0.44947,-0.055283,0.040012,0.029322,-0.78,38.34,-18.66
3.4187,-9.221,0.40861,-0.04948,0.036041,0.036957,-0.72,38.34,-18.66
3.514,-9.2482,0.46309,-0.046731,0.038179,0.037263,-0.78,38.34,-18.66
3.5004,-9.1665,0.55843,-0.032376,0.018021,0.019242,-0.6,38.4,-18.54
3.4459,-9.221,0.46309,-0.029627,0.014661,0.012828,-0.72,38.4,-18.54
3.4459,-9.221,0.51757,-0.03146,0.010996,0.0073304,-0.6,38.22,-18.66
3.4187,-9.221,0.44947,-0.032987,0.009163,0.011301,-0.6,38.28,-18.66
3.4051,-9.2891,0.49033,-0.029627,0.0027489,0.013134,-0.6,38.28,-18.72
3.3234,-9.2346,0.50395,-0.029932,0.000611,0.021686,-0.6,38.1,-18.66
3.4051,-9.221,0.51757,-0.027794,-0.0027489,0.021686,-0.66,37.92,-18.66
3.4596,-9.221,0.34051,-0.029322,0.002138,0.019242,-0.78,38.22,-18.78
3.4459,-9.221,0.38137,-0.029932,0.0033598,0.022602,-0.72,38.28,-18.72
3.4459,-9.1393,0.47671,-0.029016,0.0045815,0.015882,-0.54,38.34,-18.72
3.4459,-9.2618,0.46309,-0.020769,-0.0018326,0.01741,-0.66,38.34,-18.66
3.4459,-9.2346,0.47671,-0.032376,-0.0018326,0.018021,-0.66,38.28,-18.78
3.3234,-9.1937,0.43585,-0.037874,-0.000916,0.019242,-0.72,38.28,-18.72
3.3778,-9.2618,0.44947,-0.033292,-0.000305,0.018937,-0.84,38.4,-18.78
3.3778,-9.2482,0.44947,-0.027489,0.0042761,0.01741,-0.84,38.46,-18.78
3.3778,-9.2074,0.46309,-0.02474,0.015272,0.014661,-0.72,38.46,-18.78
3.3642,-9.2891,0.38137,-0.029932,0.017104,0.011301,-0.84,38.52,-18.78
3.3506,-9.1801,0.46309,-0.029322,0.023824,0.010385,-0.9,38.76,-18.72
3.4323,-9.1801,0.50395,-0.03543,0.020464,0.010996,-0.9,38.7,-18.72
3.3778,-9.2346,0.40861,-0.044899,0.023824,0.016188,-0.78,38.88,-18.66
3.4187,-9.221,0.47671,-0.037568,0.020464,0.020464,-0.78,39.0,-18.66
3.3778,-9.1529,0.54481,-0.037568,0.013134,0.025351,-0.96,39.0,-18.66
3.3234,-9.1937,0.50395,-0.038179,0.023518,0.023518,-0.9,38.88,-18.66
3.4187,-9.221,0.50395,-0.041233,0.033292,0.018021,-0.84,39.0,-18.6
3.4732,-9.1937,0.42223,-0.036957,0.033598,0.015577,-0.72,38.94,-18.6
3.4732,-9.221,0.38137,-0.028405,0.021686,0.01741,-0.72,38.82,-18.6
3.3778,-9.1937,0.54481,-0.035125,0.023518,0.014661,-0.6,38.76,-18.54
3.4868,-9.2346,0.57205,-0.034819,0.022297,0.017104,-0.54,38.7,-18.54
3.4732,-9.1937,0.44947,-0.036346,0.017104,0.017715,-0.66,38.76,-18.6
3.4051,-9.221,0.44947,-0.025656,0.0015272,0.016799,-0.66,38.7,-18.72
3.3642,-9.2618,0.49033,-0.031765,-0.015272,0.029322,-0.54,38.88,-18.9
3.3915,-9.2074,0.55843,-0.028405,0.0012217,0.030849,-0.66,38.76,-18.96
3.3915,-9.1937,0.54481,-0.029322,0.0027489,0.024129,-0.84,38.7,-19.14
3.4596,-9.2074,0.50395,-0.021686,-0.0064141,0.018326,-0.72,38.64,-19.02
3.3915,-9.2346,0.43585,-0.023518,-0.012828,0.015882,-0.6,38.76,-19.14
3.3234,-9.2482,0.51757,-0.0281,-0.011606,0.012523,-0.54,38.64,-19.08
3.3778,-9.2891,0.49033,-0.036652,0.000305,0.019548,-0.66,38.76,-19.14
3.4459,-9.221,0.54481,-0.032376,0.0018326,0.016493,-0.6,38.76,-19.2
3.4051,-9.2074,0.44947,-0.026267,-0.000916,0.021686,-0.66,38.64,-19.08
3.4459,-9.2482,0.53119,-0.033292,0.0039706,0.019548,-0.84,38.7,-19.02
3.4187,-9.221,0.50395,-0.032376,0.0045815,0.019242,-0.78,38.7,-19.02
3.3642,-9.2482,0.53119,-0.033292,0.0024435,0.020464,-0.66,38.58,-19.14
3.3642,-9.2482,0.44947,-0.033598,0.0067195,0.02138,-0.84,38.52,-19.02
3.3915,-9.2482,0.44947,-0.033903,0.0030543,0.010385,-0.84,38.58,-19.08
3.4187,-9.2346,0.53119,-0.032681,0.0067195,0.0088575,-0.78,38.64,-18.96
3.3915,-9.2346,0.46309,-0.033598,0.0018326,0.011606,-0.84,38.64,-19.08
3.4051,-9.2891,0.53119,-0.039401,0.0036652,0.017104,-0.9,38.64,-18.96
3.4596,-9.2482,0.50395,-0.040623,0.0024435,0.011301,-0.9,38.64,-19.02
3.3642,-9.1937,0.50395,-0.039095,0.0030543,0.011301,-1.02,38.64,-19.08
3.3506,-9.2482,0.49033,-0.03879,0.0079412,0.010996,-1.02,38.58,-19.02
3.3642,-9.2346,0.47671,-0.035125,0.010996,0.014661,-1.02,38.82,-19.08
3.4187,-9.2755,0.49033,-0.04215,0.012217,0.014355,-0.9,38.82,-19.14
3.4459,-9.2891,0.49033,-0.054062,0.0085521,0.018631,-0.72,38.76,-19.14
3.4323,-9.1937,0.57205,-0.037263,0.0039706,0.0281,-0.72,38.88,-19.2
3.4732,-9.221,0.44947,-0.028405,-0.0039706,0.016799,-0.66,38.88,-19.14
3.4459,-9.1937,0.47671,-0.027184,-0.01405,0.013744,-0.66,38.94,-19.14
3.4187,-9.1801,0.50395,-0.037263,-0.022602,0.0064141,-0.6,38.64,-19.14
3.3778,-9.2346,0.43585,-0.034819,-0.025962,0.01069,-0.6,38.76,-19.02
3.3778,-9.1937,0.47671,-0.034208,-0.012828,0.012828,-0.6,38.88,-19.14
3.3506,-9.3163,0.35413,-0.027489,-0.014661,0.013439,-0.6,38.88,-19.2
3.3778,-9.1665,0.40861,-0.027794,-0.011912,0.016493,-0.54,38.82,-19.08
3.3097,-9.221,0.42223,-0.023213,-0.0042761,0.016188,-0.48,38.94,-19.02
3.3915,-9.2482,0.49033,-0.022907,-0.0033598,0.021075,-0.6,38.76,-19.02
3.3642,-9.2482,0.43585,-0.032681,0.0045815,0.019548,-0.72,38.76,-18.96
3.4187,-9.1937,0.47671,-0.036346,0.000305,0.01069,-0.9,38.82,-18.84
3.3915,-9.2482,0.53119,-0.027794,-0.01069,0.0039706,-0.9,38.64,-18.84
3.3915,-9.1529,0.61292,-0.03543,-0.0042761,0.0082467,-0.84,38.64,-18.96
3.3778,-9.2074,0.50395,-0.033292,-0.0079412,0.010996,-0.78,38.64,-18.84
3.4187,-9.221,0.50395,-0.030238,-0.010996,0.01405,-0.78,38.88,-18.84
3.4732,-9.221,0.46309,-0.033292,-0.0088575,0.010079,-0.84,38.82,-18.78
3.3778,-9.1937,0.50395,-0.030849,-0.0094684,0.01405,-0.84,38.7,-18.84
3.3778,-9.221,0.44947,-0.027794,-0.0085521,0.013439,-0.78,38.7,-18.78
3.4187,-9.2346,0.47671,-0.037263,-0.015272,0.010079,-0.72,38.82,-18.84
3.4732,-9.2482,0.49033,-0.034514,-0.015577,0.012217,-0.72,38.82,-18.9
3.4459,-9.2482,0.40861,-0.043371,-0.013744,0.014661,-0.66,38.82,-18.96
3.4187,-9.2346,0.53119,-0.036346,-0.0079412,0.015272,-0.66,38.94,-19.08
3.4459,-9.2346,0.51757,-0.033598,-0.016799,0.019548,-0.6,39.06,-19.08
3.4596,-9.1937,0.49033,-0.031154,-0.027184,0.021686,-0.66,39.06,-18.96
3.4051,-9.2074,0.44947,-0.033903,-0.022297,0.023213,-0.72,39.12,-18.84
3.4596,-9.1529,0.46309,-0.034819,-0.014966,0.018631,-0.72,39.06,-18.96
3.4323,-9.1937,0.44947,-0.029016,-0.021075,0.018631,-0.78,39.0,-18.9
3.5004,-9.1801,0.42223,-0.031765,-0.021075,0.02138,-0.9,38.94,-18.96
3.514,-9.221,0.49033,-0.03207,-0.026878,0.016188,-0.72,38.82,-18.96
3.4459,-9.2482,0.43585,-0.037263,-0.03879,0.015272,-0.66,38.88,-19.08
3.4051,-9.1529,0.50395,-0.023824,-0.037263,0.012828,-0.66,38.76,-18.96
3.4187,-9.1801,0.47671,-0.024129,-0.03146,0.018326,-0.66,38.7,-18.96
3.4323,-9.2482,0.47671,-0.027489,-0.034208,0.016188,-0.54,38.64,-18.9
3.3642,-9.1937,0.47671,-0.01741,-0.040623,0.026267,-0.78,38.64,-18.84
3.3778,-9.2346,0.50395,-0.026573,-0.043066,0.022602,-0.78,38.52,-18.84
3.3915,-9.2482,0.47671,-0.023824,-0.045204,0.027184,-0.9,38.64,-18.78
3.337,-9.1937,0.42223,-0.025962,-0.037263,0.016188,-0.9,38.58,-18.96
3.3234,-9.1256,0.46309,-0.023518,-0.0281,0.015882,-0.96,38.76,-18.66
3.3234,-9.1801,0.50395,-0.036041,-0.018631,0.013744,-0.84,38.7,-18.66
3.4459,-9.221,0.50395,-0.03146,-0.021075,0.016799,-0.6,38.7,-18.72
3.4051,-9.2074,0.54481,-0.029627,-0.025351,0.016493,-0.72,38.82,-18.66
3.3642,-9.2074,0.53119,-0.037263,-0.025351,0.02138,-0.9,38.82,-18.66
3.4187,-9.3436,0.46309,-0.030849,-0.019548,0.023213,-1.08,39.0,-18.78
3.4187,-9.2755,0.44947,-0.028405,-0.018021,0.018937,-1.14,39.06,-18.84
3.3915,-9.221,0.40861,-0.037874,-0.010996,0.019242,-1.26,38.94,-18.9
3.3778,-9.1937,0.38137,-0.029627,-0.010996,0.017104,-0.84,38.94,-18.84
3.4051,-9.221,0.43585,-0.03207,-0.009163,0.016188,-0.9,38.94,-18.9
3.4323,-9.1937,0.42223,-0.036957,-0.009163,0.02138,-0.96,38.82,-19.08
3.4187,-9.2891,0.44947,-0.040317,-0.013134,0.021991,-0.84,38.76,-19.02
3.3506,-9.1937,0.44947,-0.029627,-0.018326,0.024435,-0.84,38.64,-19.14
3.4187,-9.1937,0.42223,-0.030238,-0.02474,0.023518,-0.96,38.7,-19.2
3.3778,-9.3436,0.44947,-0.039095,-0.011606,0.021075,-0.96,38.82,-19.14
3.3506,-9.221,0.50395,-0.040012,-0.012217,0.021686,-0.96,38.76,-19.2
3.3778,-9.1937,0.49033,-0.039706,0.0061087,0.023518,-0.96,38.7,-19.2
3.4187,-9.1801,0.39499,-0.029627,-0.0024435,0.01741,-0.84,38.64,-19.32
3.3778,-9.1393,0.46309,-0.027184,-0.0097738,0.012523,-0.78,38.52,-19.26
3.3506,-9.1937,0.49033,-0.032987,-0.0073304,0.014966,-0.72,38.7,-19.32
3.3642,-9.2074,0.40861,-0.03543,-0.0033598,0.013134,-0.9,38.76,-19.2
3.3778,-9.2482,0.47671,-0.030849,0.0033598,0.016799,-0.84,38.64,-19.2
3.3642,-9.1937,0.44947,-0.036652,0.0042761,0.014966,-0.78,38.64,-19.2
3.3506,-9.2346,0.44947,-0.021991,0.0082467,0.013134,-0.6,38.7,-19.14
3.337,-9.1937,0.43585,-0.028405,0.019548,0.016799,-0.6,38.76,-19.2
3.4187,-9.2482,0.44947,-0.0281,0.023518,0.01741,-0.6,38.88,-19.32
3.4187,-9.1529,0.46309,-0.023824,0.025656,0.015272,-0.84,38.7,-19.26
3.3778,-9.1665,0.40861,-0.029627,0.027794,0.0094684,-0.78,38.7,-19.38
3.3915,-9.2755,0.47671,-0.034208,0.021991,0.01741,-0.78,38.64,-19.38
3.3778,-9.2346,0.54481,-0.029322,0.0067195,0.021075,-0.6,38.7,-19.08
3.4732,-9.2482,0.42223,-0.025045,-0.000305,0.022907,-0.84,38.82,-18.96
3.4459,-9.2074,0.40861,-0.029016,-0.0048869,0.017104,-1.02,38.64,-18.9
3.4051,-9.2074,0.47671,-0.026267,-0.01069,-0.000916,-1.08,38.58,-19.02
3.3778,-9.1937,0.43585,-0.030543,-0.011301,0.009163,-1.14,38.64,-18.9
3.3097,-9.2074,0.42223,-0.029627,0.0048869,0.013744,-1.08,38.7,-18.9
3.2961,-9.2482,0.44947,-0.032987,0.010079,0.019853,-1.2,38.64,-18.9
3.4051,-9.2346,0.47671,-0.040623,0.02474,0.02138,-1.32,38.64,-18.78
3.3097,-9.2346,0.44947,-0.040012,0.034819,0.018937,-1.38,38.52,-18.72
3.3642,-9.2482,0.50395,-0.035736,0.041233,0.016493,-1.26,38.58,-18.72
3.3778,-9.2482,0.43585,-0.029932,0.038179,0.012217,-1.32,38.64,-18.66
3.3915,-9.2482,0.40861,-0.032681,0.037568,0.011912,-1.38,38.7,-18.72
3.4732,-9.221,0.42223,-0.036346,0.040012,0.012217,-1.32,38.52,-18.66
3.4187,-9.1937,0.46309,-0.031154,0.037874,0.012828,-1.44,38.34,-18.78
3.3642,-9.2482,0.50395,-0.038485,0.032376,0.016188,-1.32,38.46,-18.9
3.3778,-9.1937,0.47671,-0.031154,0.030849,0.0094684,-1.2,38.46,-18.96
3.4187,-9.2346,0.53119,-0.032681,0.029322,0.0097738,-1.2,38.64,-18.96
3.4459,-9.2346,0.50395,-0.030849,0.024435,0.016799,-1.14,38.58,-18.96
3.4187,-9.2346,0.44947,-0.030238,0.011912,0.017715,-1.02,38.52,-18.9
3.4459,-9.2618,0.40861,-0.028405,0.013744,0.015882,-0.9,38.64,-18.96
3.3642,-9.221,0.40861,-0.021991,0.0054978,0.019853,-0.84,38.7,-18.9
3.4187,-9.1801,0.44947,-0.027794,-0.002138,0.020159,-0.78,38.7,-19.02
3.3778,-9.221,0.46309,-0.023213,-0.014661,0.016493,-0.78,38.7,-19.08
3.3915,-9.2074,0.44947,-0.032376,-0.0076358,0.016188,-0.78,38.7,-19.08
3.3097,-9.2346,0.49033,-0.035736,-0.009163,0.016493,-0.6,38.64,-19.2
3.3506,-9.221,0.53119,-0.037568,-0.0033598,0.015882,-0.42,38.82,-19.44
3.337,-9.2482,0.38137,-0.035736,-0.0045815,0.020159,-0.48,38.88,-19.38
3.4459,-9.2482,0.49033,-0.034208,0.0027489,0.022297,-0.36,38.88,-19.44
3.4187,-9.1801,0.50395,-0.032681,0.0064141,0.014661,-0.42,38.7,-19.5
3.4051,-9.2891,0.53119,-0.030238,0.0054978,0.01405,-0.48,38.76,-19.44
3.3778,-9.221,0.50395,-0.0281,0.011606,0.0094684,-0.6,38.88,-19.5
3.3506,-9.221,0.44947,-0.035736,0.014966,0.011912,-0.66,38.82,-19.5
3.4187,-9.1937,0.44947,-0.036041,0.011301,0.0079412,-0.66,38.94,-19.68
3.4051,-9.1937,0.44947,-0.030849,0.012523,0.011606,-0.72,38.82,-19.62
3.3506,-9.2482,0.46309,-0.034514,0.013134,0.013134,-0.66,38.88,-19.62
3.3506,-9.2618,0.42223,-0.033598,0.014966,0.017715,-0.72,38.94,-19.5
3.4051,-9.2482,0.40861,-0.040317,0.0064141,0.024435,-0.78,39.0,-19.5
3.4459,-9.2074,0.50395,-0.03879,0.012828,0.012828,-0.78,39.0,-19.26
3.4459,-9.1665,0.53119,-0.040317,0.012217,0.023518,-0.78,39.0,-19.2
3.4187,-9.1529,0.61292,-0.029322,-0.0036652,0.020769,-0.9,38.88,-19.2
3.4459,-9.221,0.50395,-0.02474,-0.018326,0.011912,-0.78,38.94,-19.26
3.3234,-9.1937,0.40861,-0.033292,-0.025656,0.012217,-0.84,38.88,-19.32
3.337,-9.2346,0.50395,-0.026878,-0.018631,0.009163,-0.78,38.88,-19.44
3.3234,-9.2482,0.44947,-0.036041,-0.0076358,0.0045815,-0.84,38.82,-19.14
3.3506,-9.2346,0.49033,-0.039095,-0.0018326,0.011912,-0.78,38.82,-19.26
3.3506,-9.2618,0.47671,-0.032376,0.0015272,0.0085521,-0.72,38.88,-19.26
3.3506,-9.221,0.55843,-0.026878,0.0079412,0.012828,-0.72,38.64,-19.26
3.3097,-9.2482,0.49033,-0.026573,0.012828,0.020769,-0.6,38.88,-19.08
3.4323,-9.2618,0.40861,-0.036346,0.012217,0.016799,-0.6,38.94,-19.08
3.3778,-9.2074,0.47671,-0.029016,0.01069,0.016493,-0.72,39.0,-19.02
3.4051,-9.2074,0.47671,-0.041844,0.007025,0.016493,-0.78,38.94,-19.2
3.3778,-9.2755,0.44947,-0.029932,-0.002138,0.009163,-0.78,38.88,-19.2
3.4459,-9.2482,0.50395,-0.03543,-0.007025,0.0097738,-0.66,38.88,-18.96
3.4596,-9.2482,0.47671,-0.038485,-0.0033598,0.0067195,-0.72,38.94,-18.9
3.4051,-9.1665,0.50395,-0.032376,0.0012217,0.0064141,-0.78,38.94,-18.9
3.3097,-9.221,0.47671,-0.027794,0.0054978,0.009163,-0.66,38.88,-19.02
3.3234,-9.221,0.43585,-0.034819,0.01405,0.0079412,-0.66,38.76,-18.96
3.3097,-9.221,0.54481,-0.029322,0.010079,0.0088575,-0.6,38.82,-19.02
3.4051,-9.1937,0.53119,-0.035125,0.012217,0.016799,-0.66,38.76,-19.02
3.3778,-9.221,0.51757,-0.032376,0.016799,0.010996,-0.84,38.76,-18.96
3.3778,-9.2346,0.55843,-0.034208,0.014661,0.01069,-0.78,38.64,-19.2
3.3778,-9.2482,0.54481,-0.024435,0.016188,0.010996,-0.84,38.58,-19.2
3.3915,-9.2482,0.35413,-0.030238,0.01069,0.012828,-0.66,38.7,-19.14
3.4187,-9.221,0.40861,-0.04612,0.012217,0.019242,-0.6,38.7,-19.14
3.3778,-9.1801,0.40861,-0.038179,0.007025,0.019242,-0.78,38.76,-19.08
3.3778,-9.2346,0.44947,-0.038485,0.000305,0.020159,-0.78,38.7,-19.02
3.3915,-9.221,0.46309,-0.029016,-0.0051924,0.017715,-0.9,38.7,-19.14
3.3778,-9.2346,0.47671,-0.031765,-0.0085521,0.011606,-0.96,38.76,-19.14
3.4187,-9.2074,0.55843,-0.032681,-0.0024435,0.014966,-1.02,38.76,-18.9
3.3506,-9.2074,0.47671,-0.03207,0.000916,0.020159,-0.96,38.7,-18.72
3.3778,-9.1937,0.51757,-0.031154,-0.0058032,0.018937,-0.9,38.7,-18.66
3.4459,-9.2074,0.50395,-0.032376,-0.011301,0.021686,-0.84,38.82,-18.66
3.4051,-9.221,0.47671,-0.022907,-0.013744,0.021686,-0.84,38.88,-18.6
3.4187,-9.1665,0.46309,-0.023518,-0.021991,0.025045,-0.78,38.88,-18.6
3.4459,-9.1529,0.53119,-0.021075,-0.032681,0.015577,-0.84,38.76,-18.54
3.4868,-9.2482,0.50395,-0.035736,-0.03146,0.01741,-0.78,38.7,-18.6
3.4187,-9.2618,0.51757,-0.023213,-0.029932,0.014966,-0.6,38.76,-18.66
3.3778,-9.2346,0.39499,-0.026878,-0.030238,0.013439,-0.66,38.76,-18.78
3.337,-9.221,0.44947,-0.034819,-0.023824,0.011301,-0.54,38.82,-18.72
3.337,-9.1529,0.54481,-0.030543,-0.021686,0.0067195,-0.54,38.88,-18.72
3.3234,-9.221,0.42223,-0.023824,-0.020159,0.015577,-0.48,38.88,-18.84
3.3915,-9.1665,0.47671,-0.026267,-0.0088575,0.02138,-0.6,38.88,-18.84
3.3778,-9.2618,0.44947,-0.03543,-0.0045815,0.019242,-0.54,38.88,-18.9
3.4187,-9.221,0.50395,-0.035125,0.0045815,0.019853,-0.48,38.7,-19.02
3.514,-9.2346,0.44947,-0.027184,0.0024435,0.024129,-0.48,38.7,-19.02
3.4732,-9.2074,0.44947,-0.030238,-0.0048869,0.028405,-0.6,38.64,-19.08
3.4596,-9.1529,0.46309,-0.024129,-0.024435,0.019242,-0.66,38.7,-19.02
3.4868,-9.2891,0.44947,-0.029627,-0.032681,0.014966,-0.72,38.88,-19.08
3.4459,-9.2074,0.38137,-0.033903,-0.036652,0.014966,-0.66,38.94,-19.02
3.3506,-9.221,0.38137,-0.028405,-0.039706,0.0085521,-0.48,39.0,-18.96
3.4051,-9.2482,0.49033,-0.037568,-0.042455,0.010079,-0.54,38.88,-19.02
3.3642,-9.1937,0.54481,-0.039401,-0.036957,0.010079,-0.6,38.94,-18.96
3.4187,-9.2891,0.42223,-0.029016,-0.033903,0.018326,-0.6,38.82,-18.96
3.3915,-9.2618,0.43585,-0.029016,-0.031765,0.022297,-0.66,38.94,-18.96
3.3778,-9.2482,0.51757,-0.029016,-0.029322,0.01741,-0.78,38.94,-18.9
3.4051,-9.1529,0.49033,-0.032376,-0.018937,0.010996,-0.84,39.12,-18.96
3.3506,-9.1937,0.39499,-0.033903,-0.0097738,0.011606,-0.84,39.06,-18.96
3.4187,-9.2891,0.34051,-0.034208,-0.0067195,0.0088575,-0.84,39.0,-18.96
3.4459,-9.221,0.40861,-0.035736,-0.011912,0.010385,-0.72,39.0,-18.84
3.4459,-9.221,0.47671,-0.040623,-0.010079,0.0073304,-0.66,39.0,-18.66
3.337,-9.2618,0.44947,-0.036652,-0.009163,0.0051924,-0.72,38.82,-18.72
3.3915,-9.221,0.35413,-0.04215,-0.0048869,-0.000916,-0.78,38.76,-18.66
3.4051,-9.1937,0.39499,-0.036346,0.000305,0.000916,-0.66,38.58,-18.6
3.337,-9.1937,0.44947,-0.040317,0.0030543,-0.0015272,-0.54,38.7,-18.6
3.3097,-9.2346,0.46309,-0.044288,0.0012217,0.0024435,-0.66,38.7,-18.66
3.4323,-9.1665,0.47671,-0.047037,0.009163,-0.0076358,-0.6,38.46,-18.3
3.4187,-9.1665,0.44947,-0.045509,0.014355,0.011301,-0.54,38.46,-18.3
3.3915,-9.2618,0.35413,-0.034514,0.016493,0.0079412,-0.54,38.64,-18.42
3.4187,-9.221,0.47671,-0.032987,0.012217,0.017104,-0.48,38.46,-18.54
3.4732,-9.221,0.47671,-0.034514,0.0030543,0.014355,-0.54,38.46,-18.72
3.4868,-9.221,0.44947,-0.039095,-0.0039706,0.010079,-0.66,38.46,-18.72
3.3915,-9.221,0.31327,-0.029016,-0.011301,0.013744,-0.72,38.7,-18.9
3.3915,-9.221,0.40861,-0.036957,-0.026573,0.013744,-0.78,38.7,-18.84
3.3778,-9.2346,0.42223,-0.034208,-0.018326,0.0051924,-0.66,38.76,-18.96
3.4459,-9.1665,0.50395,-0.027184,-0.025351,0.011912,-0.9,38.52,-19.02
3.4596,-9.1937,0.43585,-0.031154,-0.027184,0.01069,-0.84,38.58,-18.96
3.3778,-9.1937,0.43585,-0.0281,-0.030543,0.0076358,-0.9,38.64,-18.84
3.4459,-9.2891,0.38137,-0.0281,-0.031765,0.018326,-0.9,38.7,-18.9
3.4459,-9.2074,0.44947,-0.02474,-0.032681,0.013744,-0.84,38.82,-19.02
3.4051,-9.2074,0.44947,-0.031154,-0.022907,0.015272,-0.78,38.94,-19.08
3.3915,-9.221,0.39499,-0.027184,-0.025656,0.011606,-0.54,38.76,-18.9
3.3642,-9.221,0.47671,-0.033292,-0.014355,0.019853,-0.54,38.82,-18.84
3.3778,-9.221,0.44947,-0.029322,0.000305,0.021991,-0.66,38.76,-18.9
3.4051,-9.2482,0.40861,-0.034819,0.000611,0.018937,-0.54,38.76,-19.14
3.4459,-9.2346,0.40861,-0.035125,0.0045815,0.013134,-0.54,38.7,-19.02
3.3778,-9.2482,0.40861,-0.029322,0.0088575,0.017715,-0.54,38.7,-19.02
3.3234,-9.2482,0.40861,-0.032376,0.0097738,0.019853,-0.54,38.58,-18.96
3.3506,-9.2074,0.42223,-0.043677,0.020464,0.021686,-0.66,38.58,-18.84
3.4187,-9.221,0.46309,-0.044899,0.031154,0.023518,-0.96,38.52,-18.48
3.3915,-9.221,0.47671,-0.048258,0.043371,0.019242,-1.02,38.58,-18.48
3.4596,-9.1665,0.44947,-0.039401,0.036041,0.018326,-1.08,38.4,-18.54
3.4868,-9.1937,0.40861,-0.032987,0.026573,0.015272,-1.2,38.64,-18.36
3.4187,-9.2482,0.40861,-0.022297,0.010385,0.010385,-1.14,38.82,-18.3
3.4732,-9.2074,0.38137,-0.040012,0.0064141,0.010996,-1.02,38.94,-18.24
3.3642,-9.221,0.42223,-0.03207,0.0018326,0.009163,-1.14,39.0,-18.3
3.3778,-9.2074,0.38137,-0.034514,0.000611,0.019548,-1.02,39.06,-18.36
3.3642,-9.2074,0.40861,-0.024129,-0.0033598,0.018631,-0.96,39.06,-18.42
3.3097,-9.221,0.38137,-0.024435,0.0042761,0.018021,-1.02,38.88,-18.54
3.3778,-9.2346,0.46309,-0.032376,0.0061087,0.022602,-1.02,38.94,-18.72
3.3915,-9.2482,0.43585,-0.037263,0.017104,0.021686,-0.96,38.88,-18.66
3.4459,-9.2346,0.40861,-0.032987,0.022602,0.014966,-0.9,38.94,-19.02
3.3234,-9.1256,0.40861,-0.031765,0.022907,0.015577,-0.9,38.76,-18.9
3.3915,-9.221,0.42223,-0.029016,0.023213,0.015577,-0.84,38.94,-18.84
3.4187,-9.2755,0.38137,-0.031154,0.019242,0.019548,-0.84,38.82,-18.84
3.4323,-9.2346,0.38137,-0.032681,0.012217,0.015577,-0.78,38.7,-18.96
3.3506,-9.1937,0.49033,-0.034514,0.011912,0.012828,-0.84,38.76,-18.96
3.4459,-9.1937,0.43585,-0.035125,0.0079412,0.011912,-0.6,38.82,-18.72
3.4187,-9.221,0.42223,-0.033903,0.010996,0.009163,-0.54,38.76,-18.9
3.4187,-9.2346,0.31327,-0.033903,0.022297,0.0054978,-0.54,38.7,-18.84
3.4051,-9.2346,0.50395,-0.039401,0.025656,0.010385,-0.54,38.58,-18.6
3.3778,-9.2891,0.44947,-0.041844,0.027184,0.017715,-0.36,38.7,-18.66
3.4459,-9.1937,0.53119,-0.036957,0.033903,0.01741,-0.48,38.52,-18.9
3.4323,-9.2482,0.46309,-0.030849,0.037568,0.013439,-0.48,38.4,-18.9
3.4323,-9.2482,0.47671,-0.034819,0.032987,0.0061087,-0.54,38.28,-18.9
3.3642,-9.2346,0.38137,-0.032987,0.033903,0.01069,-0.66,38.4,-18.96
3.4187,-9.1801,0.46309,-0.03207,0.03207,0.010385,-0.42,38.34,-18.84
3.4596,-9.1937,0.47671,-0.034514,0.025045,0.011912,-0.42,38.4,-18.9
3.4051,-9.2074,0.40861,-0.039095,0.019548,0.01741,-0.36,38.46,-18.84
3.4323,-9.2074,0.46309,-0.032987,0.017104,0.014355,-0.42,38.52,-18.84
3.4596,-9.2482,0.50395,-0.03146,0.009163,0.013439,-0.48,38.52,-18.9
3.5413,-9.2482,0.47671,-0.031154,-0.000611,0.016493,-0.36,38.4,-18.78
3.4323,-9.2346,0.49033,-0.029322,-0.013744,0.018326,-0.3,38.4,-18.66
3.4187,-9.1256,0.40861,-0.025351,-0.014661,0.017715,-0.36,38.52,-18.66
3.3778,-9.2346,0.42223,-0.025351,-0.0088575,0.015882,-0.3,38.52,-18.6
3.4187,-9.221,0.44947,-0.027489,-0.015272,0.025045,-0.3,38.64,-18.42
3.3642,-9.2482,0.47671,-0.031765,-0.012523,0.024129,-0.54,38.64,-18.48
3.3234,-9.221,0.46309,-0.024129,-0.0027489,0.025656,-0.48,38.7,-18.3
3.3778,-9.1937,0.50395,-0.020464,-0.0024435,0.018021,-0.54,38.82,-18.48
3.3506,-9.1937,0.43585,-0.032987,0.0024435,0.016493,-0.36,38.94,-18.66
3.4187,-9.221,0.44947,-0.033903,0.0058032,0.016493,-0.36,38.94,-18.78
3.3778,-9.2755,0.54481,-0.041539,0.000305,0.022602,-0.48,39.12,-18.84
3.3778,-9.2074,0.49033,-0.041233,0.007025,0.01741,-0.42,39.24,-18.84
3.4187,-9.1256,0.42223,-0.038179,0.011301,0.016188,-0.36,39.3,-18.84
3.4459,-9.2346,0.50395,-0.036652,0.002138,0.01405,-0.36,39.36,-19.02
3.4323,-9.2074,0.50395,-0.039095,0.0076358,0.012217,-0.18,39.3,-18.9
3.4596,-9.2346,0.47671,-0.033598,0.0033598,0.0061087,-0.06,39.06,-19.08
3.3778,-9.2074,0.47671,-0.030238,0.0064141,0.010996,-0.06,39.0,-19.02
3.4187,-9.221,0.47671,-0.029932,0.0051924,0.0045815,0.06,39.18,-18.9
3.3915,-9.221,0.47671,-0.0281,0.010079,0.01069,-0.12,39.06,-18.66
3.3778,-9.221,0.47671,-0.035736,0.012523,0.013744,-0.18,38.94,-18.72
3.3642,-9.1937,0.54481,-0.040928,0.021686,0.017715,-0.06,39.12,-18.42
3.3506,-9.1529,0.50395,-0.047647,0.036041,0.030849,-0.06,38.88,-18.66
3.4187,-9.1665,0.44947,-0.034514,0.023824,0.022297,-0.06,39.0,-18.54
3.4459,-9.1801,0.44947,-0.028711,0.007025,0.013744,-0.12,38.7,-18.48
3.5004,-9.221,0.42223,-0.033292,-0.0039706,0.010385,-0.36,38.82,-18.54
3.4323,-9.1937,0.38137,-0.027184,-0.013134,-0.000916,-0.48,38.94,-18.6
3.3778,-9.221,0.44947,-0.03207,-0.010385,0.0024435,-0.54,38.94,-18.36
3.3097,-9.2074,0.40861,-0.030849,-0.0088575,0.010079,-0.54,38.88,-18.54
3.3778,-9.221,0.50395,-0.034514,-0.0018326,0.01405,-0.36,39.06,-18.6
3.3915,-9.221,0.50395,-0.022297,0.000611,0.011606,-0.54,38.82,-18.6
3.4596,-9.221,0.49033,-0.023213,0.0012217,0.020769,-0.6,38.76,-18.6
3.4596,-9.3027,0.47671,-0.031154,-0.0076358,0.020159,-0.78,38.82,-18.48
3.4459,-9.1937,0.46309,-0.035736,-0.0051924,0.018021,-0.72,38.94,-18.48
3.4187,-9.1529,0.39499,-0.025045,-0.0058032,0.010385,-0.72,38.82,-18.42
3.4187,-9.1393,0.54481,-0.027184,-0.0051924,0.015577,-0.6,38.88,-18.3
3.3915,-9.2346,0.55843,-0.032376,-0.011606,0.010079,-0.42,38.88,-18.54
3.3778,-9.2618,0.39499,-0.030238,-0.011912,0.016493,-0.42,38.64,-18.66
3.3234,-9.221,0.49033,-0.034208,-0.0030543,0.015577,-0.54,38.64,-18.54
3.3642,-9.2346,0.35413,-0.035125,0.0024435,0.021686,-0.36,38.52,-18.48
3.3778,-9.2074,0.44947,-0.03146,0.0036652,0.012523,-0.42,38.46,-18.48
3.3915,-9.1801,0.40861,-0.032987,0.01741,0.018326,-0.24,38.34,-18.48
3.4459,-9.2074,0.46309,-0.042455,0.018631,0.01069,-0.12,38.22,-18.66
3.4459,-9.2346,0.42223,-0.040928,0.02138,0.016188,-0.12,38.22,-18.72
3.4187,-9.1529,0.53119,-0.037874,0.020464,0.013134,-0.18,38.28,-18.96
3.4051,-9.1937,0.47671,-0.034514,0.020769,0.017104,-0.24,38.1,-18.9
3.4187,-9.1529,0.42223,-0.029627,0.01069,0.010385,-0.48,38.28,-18.84
3.4459,-9.2346,0.40861,-0.026878,0.0030543,0.011606,-0.42,38.46,-18.84
3.4459,-9.2755,0.53119,-0.028405,-0.0033598,0.012828,-0.54,38.64,-18.9
3.3915,-9.1937,0.44947,-0.037874,-0.0015272,0.014966,-0.66,38.52,-19.02
3.4187,-9.2346,0.49033,-0.037874,-0.002138,0.01741,-0.6,38.7,-19.02
3.4459,-9.2618,0.54481,-0.027794,-0.0061087,0.019242,-0.6,38.82,-19.08
3.4187,-9.2482,0.51757,-0.028711,-0.016188,0.021686,-0.78,38.88,-19.08
3.3778,-9.1937,0.42223,-0.027794,-0.027489,0.022602,-0.72,38.82,-19.08
3.4323,-9.1801,0.54481,-0.035125,-0.034208,0.021686,-0.84,38.88,-19.02
3.4187,-9.2482,0.51757,-0.024129,-0.039095,0.013744,-0.78,38.88,-19.02
3.3506,-9.2618,0.50395,-0.02474,-0.037263,0.016188,-0.54,38.88,-19.02
3.3778,-9.1937,0.53119,-0.027184,-0.037263,0.016493,-0.6,38.88,-19.02
3.3506,-9.2755,0.50395,-0.020159,-0.040623,0.017715,-0.54,38.82,-19.02
3.4187,-9.1665,0.47671,-0.032376,-0.034819,0.019853,-0.66,38.94,-19.08
3.4459,-9.1801,0.47671,-0.025656,-0.029322,0.014355,-0.66,38.76,-18.9
3.4187,-9.1937,0.39499,-0.022297,-0.019242,0.016188,-0.78,38.88,-19.02
3.4459,-9.2482,0.40861,-0.029016,-0.012217,0.014966,-1.02,38.76,-19.14
3.4732,-9.1937,0.46309,-0.020769,-0.022602,0.014355,-1.14,38.76,-19.14
3.4187,-9.2482,0.46309,-0.025045,-0.030849,0.024435,-1.08,38.76,-19.14
3.4187,-9.1529,0.49033,-0.027184,-0.026573,0.017715,-1.14,38.82,-19.26
3.4187,-9.221,0.44947,-0.029932,-0.025962,0.012828,-1.26,38.58,-19.2
3.4459,-9.2074,0.44947,-0.032681,-0.020159,0.020769,-1.38,38.52,-19.14
3.4868,-9.221,0.44947,-0.030238,-0.033598,0.021075,-1.32,38.46,-19.14
3.4732,-9.221,0.47671,-0.021991,-0.045204,0.015882,-1.38,38.4,-19.02
3.4187,-9.2346,0.47671,-0.022602,-0.046731,0.012828,-1.5,38.34,-19.08
3.4459,-9.221,0.38137,-0.024435,-0.056505,0.012217,-1.5,38.28,-19.08
3.3778,-9.2346,0.38137,-0.025045,-0.051313,0.010385,-1.5,38.4,-19.2
3.2961,-9.221,0.54481,-0.03146,-0.050396,0.0094684,-1.32,38.4,-19.26
3.3642,-9.2074,0.47671,-0.037263,-0.040623,0.0073304,-1.26,38.4,-19.08
3.3642,-9.1665,0.42223,-0.03207,-0.027794,0.0067195,-1.14,38.46,-19.08
3.3097,-9.1937,0.47671,-0.034514,-0.024435,0.0058032,-1.2,38.4,-19.02
3.3097,-9.2482,0.44947,-0.037874,-0.010996,-0.002138,-1.26,38.4,-18.84
3.3642,-9.221,0.36775,-0.031154,0.0064141,0.0064141,-1.26,38.52,-18.78
3.4187,-9.221,0.49033,-0.03146,0.022297,0.013439,-1.08,38.52,-18.78
3.4323,-9.3163,0.44947,-0.03207,0.027794,0.020159,-1.08,38.7,-18.9
3.3915,-9.3027,0.40861,-0.038485,0.03146,0.020464,-1.08,38.7,-19.08
3.4459,-9.2074,0.44947,-0.045815,0.029627,0.025351,-1.02,38.7,-18.96
3.4187,-9.2346,0.35413,-0.037263,0.016799,0.026573,-1.02,38.76,-18.9
3.5277,-9.1665,0.42223,-0.032376,-0.0012217,0.016493,-1.08,38.88,-18.78
3.5685,-9.1529,0.47671,-0.039401,-0.0094684,0.0079412,-1.08,38.76,-18.78
3.514,-9.1937,0.40861,-0.031154,-0.030849,0.0051924,-1.14,38.94,-18.72
3.4187,-9.1665,0.40861,-0.026267,-0.041233,0.0036652,-1.14,38.94,-18.66
3.3915,-9.2482,0.44947,-0.025962,-0.039095,0.000916,-1.26,39.0,-18.6
3.4187,-9.2755,0.42223,-0.032376,-0.046426,0.011301,-1.14,39.06,-18.66
3.3778,-9.2074,0.43585,-0.026267,-0.04612,0.016493,-1.08,39.12,-18.72
3.4051,-9.221,0.46309,-0.029627,-0.033598,0.022602,-1.26,39.06,-18.9
3.3642,-9.221,0.57205,-0.025962,-0.015882,0.01741,-1.26,39.0,-18.9
3.3642,-9.1937,0.42223,-0.027184,-0.017104,0.013744,-1.44,39.12,-18.78
3.4187,-9.1665,0.39499,-0.026878,-0.000916,0.015882,-1.44,39.18,-18.84
3.4187,-9.2074,0.47671,-0.029016,0.010385,0.009163,-1.44,39.18,-18.78
3.4187,-9.2074,0.46309,-0.029322,0.013134,0.01069,-1.38,39.06,-18.78
3.4187,-9.2346,0.46309,-0.034514,0.020159,0.014661,-1.44,39.12,-18.72
3.4187,-9.1529,0.49033,-0.038485,0.014966,0.013439,-1.32,39.0,-18.72
3.4323,-9.1937,0.46309,-0.030849,0.021686,0.0054978,-1.2,39.06,-18.78
3.4187,-9.1937,0.43585,-0.03207,0.021991,0.0067195,-1.02,39.18,-18.9
3.4459,-9.221,0.39499,-0.030849,0.028405,0.0079412,-1.14,39.12,-18.78
3.4187,-9.2074,0.38137,-0.035125,0.035125,0.0085521,-1.08,39.12,-18.84
3.3642,-9.1393,0.39499,-0.035125,0.044899,0.0085521,-1.08,39.24,-18.72
3.4187,-9.1529,0.57205,-0.035736,0.045204,0.0097738,-1.02,39.18,-18.54
3.4323,-9.221,0.44947,-0.039401,0.051007,0.013744,-0.9,38.94,-18.48
3.4732,-9.2755,0.49033,-0.032987,0.040317,0.0085521,-0.96,38.88,-18.54
3.3915,-9.221,0.47671,-0.027794,0.039095,0.020159,-1.02,38.82,-18.54
3.4596,-9.1937,0.38137,-0.032376,0.037874,0.013439,-0.96,38.88,-18.66
3.4596,-9.2482,0.38137,-0.035125,0.035125,0.0094684,-0.96,38.82,-18.66
3.4459,-9.2618,0.46309,-0.03207,0.029932,0.014355,-0.96,38.76,-18.78
3.4323,-9.2074,0.36775,-0.034819,0.027794,0.020159,-0.96,38.58,-18.9
3.4459,-9.1937,0.39499,-0.034208,0.017104,0.021686,-1.02,38.34,-18.9
3.4732,-9.1801,0.43585,-0.033903,0.0079412,0.015577,-0.9,38.28,-18.96
3.3915,-9.2891,0.47671,-0.034819,0.0012217,0.011606,-1.08,38.28,-19.02
3.4459,-9.221,0.44947,-0.036041,-0.0054978,0.024129,-1.08,38.16,-19.08
3.4732,-9.2482,0.40861,-0.036652,-0.0027489,0.021991,-1.14,38.16,-19.2
3.3915,-9.2755,0.53119,-0.027184,-0.0045815,0.023518,-1.32,38.34,-19.26
3.4187,-9.1801,0.44947,-0.025045,0.000611,0.024129,-1.14,38.52,-19.26
3.4187,-9.221,0.46309,-0.026573,0.0039706,0.022297,-1.08,38.52,-19.26
3.3915,-9.2891,0.46309,-0.020464,0.0048869,0.025656,-1.02,38.64,-19.2
3.4596,-9.2755,0.44947,-0.033903,0.0079412,0.02138,-1.02,38.64,-19.26
3.4187,-9.221,0.47671,-0.030238,0.0067195,0.020464,-0.96,38.7,-19.08
3.3915,-9.1529,0.42223,-0.037568,0.0079412,0.019242,-1.02,38.82,-18.96
3.3778,-9.1665,0.44947,-0.034208,0.0097738,0.016188,-1.08,38.94,-19.02
3.4596,-9.1937,0.42223,-0.045815,0.012523,0.020159,-1.14,39.06,-18.96
3.3915,-9.221,0.47671,-0.049786,0.011301,0.016799,-1.08,39.06,-19.02
3.4187,-9.2346,0.51757,-0.03207,0.022907,0.012828,-0.84,38.88,-18.9
3.3778,-9.221,0.43585,-0.03146,0.020464,0.013134,-0.72,39.06,-18.9
3.4187,-9.1937,0.47671,-0.034819,0.0281,0.017104,-0.6,38.94,-18.96
3.4323,-9.221,0.40861,-0.03879,0.027184,0.023213,-0.42,39.06,-18.9
3.3506,-9.221,0.34051,-0.031154,0.022297,0.016493,-0.6,38.94,-18.9
3.4868,-9.2755,0.40861,-0.033598,0.016493,0.01741,-0.72,38.94,-18.84
3.4459,-9.2482,0.44947,-0.03207,0.011301,0.01069,-0.6,38.88,-18.78
3.3778,-9.2482,0.44947,-0.034208,0.0051924,0.0097738,-0.66,39.0,-19.02
3.337,-9.2755,0.46309,-0.030238,0.000305,0.01405,-0.84,38.88,-19.02
3.3778,-9.2074,0.43585,-0.029322,-0.002138,0.019853,-0.78,38.88,-19.14
3.3778,-9.3436,0.36775,-0.036652,-0.0088575,0.026573,-0.78,38.82,-19.08
3.3642,-9.2618,0.50395,-0.032376,0.015272,0.025351,-0.9,38.88,-19.02
3.3778,-9.1801,0.53119,-0.040317,0.018631,0.02474,-0.96,39.0,-19.02
3.3915,-9.2482,0.44947,-0.03543,0.019548,0.03146,-0.9,38.88,-19.08
3.4868,-9.1529,0.42223,-0.030543,0.0051924,0.026878,-0.78,39.0,-19.14
3.4051,-9.2618,0.39499,-0.023518,0.0054978,0.013134,-0.84,38.94,-19.14
3.2416,-9.1937,0.44947,-0.03207,0.0079412,0.015577,-0.78,38.94,-19.08
3.4459,-9.2074,0.49033,-0.030238,0.012523,0.014355,-0.72,38.94,-19.02
3.3506,-9.221,0.40861,-0.027794,0.0085521,0.0079412,-0.66,38.88,-18.9
3.337,-9.2074,0.40861,-0.0281,-0.0024435,0.024129,-0.66,38.94,-18.84
3.3506,-9.1937,0.49033,-0.021991,-0.0027489,0.021991,-0.54,38.94,-18.84
3.3915,-9.1937,0.46309,-0.023824,0.0061087,0.024435,-0.66,38.88,-18.84
3.3778,-9.2346,0.50395,-0.026573,-0.0088575,0.018937,-0.54,38.88,-18.96
3.4187,-9.1801,0.50395,-0.03146,-0.017104,0.030543,-0.48,38.88,-18.78
3.3097,-9.2482,0.44947,-0.025351,-0.0027489,0.016493,-0.48,38.88,-18.72
3.3097,-9.3572,0.47671,-0.031154,0.0079412,0.020464,-0.48,38.88,-18.6
3.3642,-9.2482,0.46309,-0.032681,0.015272,0.016493,-0.72,38.76,-18.42
3.4323,-9.221,0.50395,-0.030238,0.013744,0.021075,-0.78,38.64,-18.42
3.4187,-9.2346,0.50395,-0.031765,0.011606,0.015577,-0.84,38.7,-18.42
3.3778,-9.2891,0.47671,-0.032987,0.012217,0.013744,-0.96,38.7,-18.6
3.4051,-9.2891,0.40861,-0.033292,0.010996,0.011606,-0.84,38.58,-18.72
3.3778,-9.2074,0.40861,-0.031765,0.015272,0.017104,-0.84,38.46,-18.72
3.3778,-9.2891,0.40861,-0.035125,0.011606,0.0085521,-0.84,38.34,-18.78
3.3642,-9.2074,0.49033,-0.03879,0.01405,0.016493,-0.72,38.46,-18.9
3.337,-9.1937,0.35413,-0.031765,0.012217,0.011606,-0.78,38.34,-18.84
3.4187,-9.2755,0.47671,-0.032987,0.0058032,0.017104,-0.84,38.34,-19.02
3.3778,-9.1937,0.44947,-0.030238,0.0082467,0.015272,-0.72,38.22,-18.96
3.4051,-9.2074,0.54481,-0.03207,0.0067195,0.013744,-0.66,38.28,-19.32
3.4051,-9.2074,0.47671,-0.036652,0.0027489,0.015577,-0.42,38.34,-19.32
3.3778,-9.1937,0.46309,-0.030849,-0.000611,0.011606,-0.42,38.46,-19.32
3.4187,-9.221,0.54481,-0.038179,-0.0073304,0.018326,-0.18,38.4,-19.38
3.3915,-9.2346,0.44947,-0.03543,-0.0079412,0.0097738,-0.12,38.34,-19.38
3.4323,-9.221,0.49033,-0.037568,-0.009163,0.0097738,-0.06,38.46,-19.56
3.3915,-9.2074,0.44947,-0.036346,-0.0030543,0.017715,-0.12,38.52,-19.32
3.4051,-9.1529,0.53119,-0.029932,-0.010996,0.0097738,-0.12,38.64,-19.2
3.3915,-9.221,0.50395,-0.03543,-0.010996,0.0097738,-0.12,38.7,-19.08
3.4459,-9.1529,0.46309,-0.03207,-0.021075,0.021075,-0.36,38.82,-19.08
3.3778,-9.2074,0.50395,-0.03146,-0.020769,0.018631,-0.18,38.76,-19.02
3.3778,-9.1937,0.57205,-0.024129,-0.026267,0.018021,-0.36,38.82,-19.14
3.4187,-9.2074,0.44947,-0.03146,-0.03543,0.015882,-0.42,38.94,-18.84
3.4187,-9.221,0.42223,-0.027489,-0.038179,0.0085521,-0.42,39.0,-18.84
3.4187,-9.1529,0.47671,-0.030238,-0.033598,0.017715,-0.42,38.94,-18.84
3.3642,-9.2074,0.50395,-0.027489,-0.036957,0.016188,-0.6,38.82,-18.84
3.3506,-9.2074,0.42223,-0.026267,-0.035125,0.01405,-0.6,38.82,-18.72
3.337,-9.2618,0.47671,-0.027794,-0.033598,0.010385,-0.66,38.7,-18.66
3.3097,-9.221,0.49033,-0.033903,-0.027489,0.015577,-0.72,38.7,-18.66
3.3778,-9.2482,0.46309,-0.03543,-0.026267,0.013744,-0.72,38.64,-18.84
3.4051,-9.221,0.44947,-0.033292,-0.024435,0.012828,-0.9,38.64,-19.14
3.3642,-9.2482,0.44947,-0.037263,-0.024435,0.013744,-0.84,38.76,-19.02
3.4051,-9.2482,0.40861,-0.03543,-0.024129,0.016799,-0.9,38.58,-19.08
3.3778,-9.2346,0.44947,-0.041539,-0.016188,0.022602,-0.84,38.52,-19.14
3.3778,-9.221,0.39499,-0.040928,-0.021991,0.018021,-0.96,38.46,-19.02
3.3642,-9.1801,0.34051,-0.030849,-0.022907,0.0088575,-0.84,38.34,-19.32
3.3915,-9.2618,0.42223,-0.036652,-0.034819,0.015272,-1.02,38.28,-19.62
3.3915,-9.221,0.47671,-0.031765,-0.03146,0.018937,-0.96,38.4,-19.86
3.3506,-9.1665,0.43585,-0.03543,-0.030238,0.015577,-0.96,38.52,-19.74
3.3778,-9.2346,0.46309,-0.043371,-0.019853,0.014966,-1.02,38.58,-19.68
3.3778,-9.2618,0.49033,-0.044288,-0.013744,0.020464,-1.08,38.58,-19.62
3.3778,-9.1529,0.44947,-0.045509,0.000611,0.021991,-1.14,38.52,-19.38
3.3778,-9.1529,0.44947,-0.030543,-0.0024435,0.011912,-1.14,38.52,-19.38
3.4051,-9.1256,0.40861,-0.028711,-0.010385,0.016493,-1.02,38.52,-19.32
3.4051,-9.1256,0.40861,-0.028711,-0.010385,0.016493,-1.02,38.52,-19.32
3.4187,-9.1529,0.43585,-0.023518,-0.01405,0.0073304,-1.14,38.7,-19.14
3.4596,-9.2346,0.40861,-0.029932,-0.0085521,0.013134,-0.96,38.64,-19.2
3.3778,-9.221,0.40861,-0.020464,-0.016799,0.018326,-1.02,38.58,-18.96
3.3915,-9.2346,0.42223,-0.025045,-0.020159,0.013439,-1.14,38.64,-18.78
3.4187,-9.1937,0.40861,-0.024435,-0.020769,0.014661,-1.26,38.64,-18.78
3.4187,-9.1801,0.49033,-0.024129,-0.023213,0.011606,-1.14,38.64,-19.02
3.3778,-9.2346,0.46309,-0.026267,-0.022602,0.012217,-1.14,38.58,-19.02
3.3778,-9.1937,0.40861,-0.029016,-0.021686,0.010079,-1.02,38.64,-19.26
3.3778,-9.2755,0.43585,-0.02138,-0.020159,0.011606,-1.08,38.58,-19.38
3.3097,-9.221,0.43585,-0.028405,-0.022602,0.0088575,-1.2,38.58,-19.32
3.337,-9.221,0.35413,-0.024435,-0.014661,0.0067195,-1.2,38.58,-19.5
3.4051,-9.2346,0.40861,-0.032376,-0.0058032,0.013744,-1.08,38.58,-19.44
3.3915,-9.3027,0.40861,-0.034514,-0.0012217,0.010385,-1.26,38.58,-19.56
3.3778,-9.2346,0.31327,-0.037568,0.0039706,0.010996,-1.2,38.7,-19.5
3.3642,-9.3163,0.44947,-0.033292,0.0067195,0.011606,-1.2,38.7,-19.5
3.2553,-9.2755,0.46309,-0.04215,0.010996,0.016493,-1.08,38.7,-19.56
3.3778,-9.221,0.46309,-0.035736,0.025351,0.018326,-1.02,38.82,-19.2
3.4187,-9.1937,0.47671,-0.032987,0.039095,0.011606,-1.08,38.82,-19.08
3.4051,-9.2074,0.44947,-0.036346,0.043371,0.012217,-1.08,38.82,-19.14
3.4459,-9.2482,0.38137,-0.035736,0.04612,0.01405,-1.14,38.76,-19.08
3.4596,-9.1801,0.36775,-0.036346,0.043677,0.011912,-1.14,38.76,-18.78
3.4459,-9.1665,0.46309,-0.036957,0.043677,0.013744,-1.08,38.64,-18.84
3.4051,-9.2346,0.32689,-0.043066,0.039706,0.018937,-1.02,38.52,-18.66
3.4459,-9.221,0.43585,-0.041539,0.039401,0.0076358,-0.96,38.46,-18.66
3.3778,-9.2755,0.50395,-0.030849,0.040928,0.0085521,-0.96,38.52,-18.72
3.4868,-9.221,0.57205,-0.034819,0.039095,0.0097738,-1.08,38.34,-18.84
3.4596,-9.2346,0.42223,-0.032987,0.032681,0.009163,-1.08,38.4,-18.78
3.4732,-9.1665,0.44947,-0.029932,0.0085521,0.011912,-1.08,38.46,-18.78
3.4323,-9.1937,0.46309,-0.02474,-0.0097738,0.012523,-0.96,38.4,-18.96
3.4187,-9.1801,0.44947,-0.020159,-0.03207,0.0058032,-0.9,38.4,-19.02
3.4187,-9.1801,0.51757,-0.018937,-0.037874,0.011301,-0.9,38.4,-18.9
3.4187,-9.1937,0.46309,-0.02138,-0.038179,0.01405,-0.96,38.46,-18.96
3.3506,-9.3299,0.40861,-0.015882,-0.028405,0.018326,-1.02,38.52,-19.14
3.3915,-9.2482,0.49033,-0.024129,-0.016493,0.015272,-1.02,38.52,-19.02
3.514,-9.2891,0.49033,-0.018631,0.0039706,0.014966,-1.08,38.64,-19.02
3.4187,-9.2891,0.40861,-0.023213,0.02138,0.013439,-1.08,38.76,-19.02
3.3778,-9.2891,0.34051,-0.027489,0.027794,0.018937,-1.08,38.7,-19.02
3.3506,-9.2482,0.44947,-0.03543,0.023518,0.014661,-0.96,38.82,-19.02
3.3234,-9.3027,0.40861,-0.04215,0.016188,0.018937,-1.02,38.82,-19.08
3.3642,-9.221,0.40861,-0.038485,0.009163,0.016493,-1.08,38.76,-18.96
3.3915,-9.2346,0.44947,-0.041844,0.010079,0.01741,-1.26,38.7,-18.84
3.3642,-9.2482,0.50395,-0.046731,0.011606,0.014661,-1.32,38.64,-18.84
3.3642,-9.221,0.39499,-0.035125,0.03207,0.019548,-1.2,38.76,-18.9
3.337,-9.221,0.47671,-0.041539,0.030849,0.011606,-1.14,38.82,-18.84
3.3915,-9.221,0.38137,-0.046731,0.038485,0.018631,-0.96,38.76,-18.84
3.4187,-9.2891,0.43585,-0.055283,0.035125,0.021686,-0.9,38.76,-19.02
3.4459,-9.3163,0.43585,-0.047647,0.040623,0.018937,-0.96,38.82,-19.02
3.4459,-9.2346,0.44947,-0.045509,0.039706,0.025351,-0.84,38.64,-18.96
3.4051,-9.2074,0.50395,-0.04215,0.036346,0.027794,-0.78,38.64,-18.72
3.5004,-9.1529,0.43585,-0.036346,0.02138,0.020159,-0.72,38.52,-18.6
3.4732,-9.2074,0.39499,-0.038179,0.0082467,0.02138,-0.72,38.34,-18.72
3.4051,-9.221,0.40861,-0.0281,-0.010079,0.013744,-0.9,38.4,-18.72
3.4459,-9.1801,0.50395,-0.034514,-0.009163,0.015272,-0.72,38.46,-18.78
3.4187,-9.1256,0.44947,-0.036346,-0.010079,0.013134,-0.84,38.46,-18.72
3.4459,-9.2346,0.49033,-0.025351,-0.013744,0.019242,-0.9,38.4,-18.72
3.3778,-9.1937,0.43585,-0.026878,-0.015272,0.010079,-0.84,38.34,-18.66
3.3778,-9.2346,0.5993,-0.024435,-0.015577,0.019853,-0.84,38.46,-18.6
3.3234,-9.221,0.47671,-0.014661,-0.019242,0.01741,-0.84,38.46,-18.54
3.3642,-9.2891,0.50395,-0.025656,-0.010996,0.016493,-0.72,38.4,-18.54
3.3506,-9.2074,0.44947,-0.022907,0.000611,0.014661,-0.84,38.46,-18.54
3.3642,-9.2891,0.46309,-0.030238,0.000916,0.013134,-1.02,38.46,-18.6
3.3778,-9.2891,0.47671,-0.027489,0.0058032,0.013134,-1.02,38.46,-18.54
3.3778,-9.2482,0.46309,-0.027794,0.016493,0.019242,-0.96,38.64,-18.54
3.3915,-9.2482,0.47671,-0.040012,0.013134,0.016493,-0.72,38.76,-18.72
3.4051,-9.2482,0.43585,-0.030543,0.013439,0.015577,-0.78,38.7,-18.54
3.3915,-9.221,0.42223,-0.0281,0.014661,0.0064141,-0.54,38.7,-18.54
3.4187,-9.221,0.43585,-0.03543,0.016493,0.011912,-0.54,38.52,-18.72
3.3778,-9.2482,0.44947,-0.033598,0.017715,0.011301,-0.42,38.58,-18.9
3.3506,-9.221,0.44947,-0.039095,0.017715,0.009163,-0.48,38.58,-18.96
3.3506,-9.2346,0.47671,-0.043371,0.016188,0.014966,-0.3,38.52,-18.9
3.3778,-9.1937,0.47671,-0.029932,0.018937,0.012828,-0.48,38.58,-18.9
3.3506,-9.2755,0.40861,-0.032376,0.023213,0.0067195,-0.42,38.64,-19.02
3.4187,-9.2482,0.36775,-0.040012,0.018631,0.015577,-0.36,38.64,-19.02
3.4187,-9.2346,0.5993,-0.042761,0.03146,0.012523,-0.54,38.76,-19.2
3.3778,-9.221,0.42223,-0.040928,0.026267,0.012828,-0.54,38.64,-19.14
3.3778,-9.2074,0.39499,-0.030543,0.021686,0.0058032,-0.6,38.58,-19.2
3.4051,-9.221,0.50395,-0.035125,0.015577,0.0094684,-0.6,38.58,-19.32
3.4323,-9.1529,0.50395,-0.042761,0.0073304,0.013439,-0.66,38.64,-19.38
3.4051,-9.2346,0.47671,-0.034514,0.011301,0.012523,-0.54,38.82,-19.08
3.4459,-9.221,0.51757,-0.034819,0.0058032,0.01741,-0.66,38.82,-19.02
3.4459,-9.1937,0.49033,-0.031765,-0.0027489,0.013439,-0.78,38.7,-18.9
3.4187,-9.221,0.54481,-0.030238,-0.0088575,0.013439,-0.78,38.88,-18.9
3.4459,-9.221,0.46309,-0.022907,-0.0076358,0.013744,-0.72,38.88,-18.9
3.3778,-9.221,0.50395,-0.027184,-0.0088575,0.011912,-0.78,38.82,-18.9
3.3915,-9.2346,0.49033,-0.031154,-0.013439,0.01741,-0.78,38.82,-18.84
3.4459,-9.2891,0.40861,-0.023213,-0.010079,0.015272,-0.78,38.88,-19.08
3.3642,-9.2482,0.44947,-0.030849,-0.0039706,0.020769,-0.78,38.94,-19.02
3.3778,-9.2482,0.54481,-0.029322,0.000916,0.015882,-0.66,38.94,-19.02
3.4187,-9.221,0.43585,-0.03207,0.0048869,0.014355,-0.54,39.0,-18.84
3.4323,-9.2346,0.50395,-0.029627,-0.0039706,0.012828,-0.48,39.06,-18.78
3.3915,-9.2346,0.50395,-0.035736,-0.0024435,0.014355,-0.48,39.12,-18.78
3.3642,-9.1665,0.51757,-0.032987,-0.000611,0.011606,-0.3,39.06,-18.84
3.3506,-9.2482,0.44947,-0.030849,0.000305,0.0051924,-0.24,39.12,-18.84
3.3506,-9.2346,0.43585,-0.025351,0.0045815,0.0045815,-0.36,39.0,-18.84
3.3506,-9.2891,0.47671,-0.031765,0.0067195,0.0076358,-0.54,38.88,-18.9
3.3642,-9.2482,0.49033,-0.051618,0.020769,0.01741,-0.42,38.88,-18.84
3.4187,-9.2891,0.50395,-0.05284,0.022297,0.020464,-0.48,38.94,-18.9
3.4187,-9.1937,0.44947,-0.040623,0.021075,0.022602,-0.36,38.88,-18.72
3.4732,-9.1937,0.38137,-0.036041,0.0076358,0.022602,-0.42,38.82,-18.72
3.4596,-9.1529,0.42223,-0.039095,-0.0024435,0.020159,-0.48,38.7,-18.66
3.4323,-9.1937,0.47671,-0.043982,-0.010996,0.014355,-0.6,38.82,-18.66
3.3915,-9.2482,0.44947,-0.040317,-0.012217,0.0079412,-0.66,38.64,-18.78
3.3506,-9.2891,0.47671,-0.03543,-0.01741,0.0058032,-0.6,38.52,-18.84
3.3642,-9.2482,0.43585,-0.028711,-0.018937,0.013134,-0.78,38.58,-18.84
3.3506,-9.2482,0.42223,-0.026573,-0.011301,0.015882,-0.78,38.52,-18.84
3.3506,-9.221,0.47671,-0.025962,-0.0067195,0.02138,-0.72,38.58,-18.9
3.4323,-9.2074,0.50395,-0.025045,-0.0012217,0.018937,-0.48,38.7,-18.84
3.4459,-9.2074,0.46309,-0.036041,-0.0018326,0.016799,-0.48,38.76,-18.9
3.4596,-9.1529,0.50395,-0.031154,-0.000916,0.013439,-0.42,38.7,-18.78
3.4732,-9.221,0.51757,-0.033903,-0.0061087,0.010996,-0.42,38.64,-18.78
3.514,-9.2482,0.44947,-0.036041,-0.009163,0.011301,-0.3,38.7,-18.84
3.4732,-9.2482,0.39499,-0.028405,-0.016188,0.0058032,-0.24,38.82,-18.9
3.4051,-9.221,0.43585,-0.021686,-0.023824,0.0073304,-0.3,38.7,-19.08
3.3642,-9.2482,0.44947,-0.031154,-0.026573,0.010996,-0.36,39.0,-19.02
3.4459,-9.2346,0.44947,-0.025656,-0.024435,0.012828,-0.42,39.0,-19.02
3.3915,-9.3163,0.40861,-0.033903,-0.017715,0.0061087,-0.42,39.0,-19.02
3.4051,-9.1665,0.44947,-0.034208,-0.013439,0.011606,-0.42,38.94,-19.32
3.3915,-9.2074,0.49033,-0.028711,-0.0045815,0.0097738,-0.36,38.82,-19.2
3.4051,-9.2346,0.44947,-0.0281,-0.0036652,0.014355,-0.42,38.94,-19.02
3.4732,-9.221,0.46309,-0.03146,-0.000305,0.01069,-0.36,39.0,-19.02
3.4459,-9.1665,0.47671,-0.034819,-0.000305,0.01069,-0.42,38.88,-19.2
3.4187,-9.2482,0.44947,-0.030849,-0.0064141,0.015577,-0.3,38.88,-19.2
3.4596,-9.221,0.44947,-0.035125,0.0015272,0.012217,-0.48,38.88,-19.02
3.4732,-9.2482,0.44947,-0.034819,-0.0079412,0.0097738,-0.48,38.88,-19.14
3.4732,-9.2346,0.40861,-0.037874,-0.011301,0.014355,-0.48,38.88,-19.14
3.4187,-9.2346,0.44947,-0.045815,-0.017104,0.0051924,-0.54,38.64,-19.02
3.4187,-9.1801,0.42223,-0.036346,-0.015577,0.0036652,-0.54,38.76,-19.14
3.4596,-9.1937,0.47671,-0.025351,-0.015882,0.010996,-0.48,38.7,-19.26
3.4459,-9.2074,0.43585,-0.030238,-0.018631,0.019548,-0.54,38.7,-19.08
3.3915,-9.2346,0.44947,-0.030849,-0.018326,0.014966,-0.6,38.76,-19.14
3.4187,-9.221,0.54481,-0.02474,-0.010996,0.017715,-0.66,38.7,-19.14
3.4323,-9.221,0.44947,-0.0281,-0.009163,0.014355,-0.78,38.64,-19.26
3.4459,-9.2755,0.40861,-0.024435,-0.018631,0.013134,-0.84,38.76,-19.26
3.4459,-9.221,0.53119,-0.027794,-0.019853,0.014355,-0.78,38.76,-19.14
3.3778,-9.2482,0.44947,-0.030849,-0.021991,0.013744,-0.9,38.88,-19.32
3.3915,-9.2346,0.47671,-0.030543,-0.025962,0.015577,-0.9,38.88,-19.14
3.4459,-9.2346,0.46309,-0.032681,-0.025351,0.019242,-0.84,38.94,-19.02
3.3915,-9.1937,0.38137,-0.032987,-0.030849,0.015272,-0.78,39.0,-19.14
3.4187,-9.221,0.44947,-0.031154,-0.03879,0.013439,-0.84,38.88,-19.02
3.4187,-9.2074,0.46309,-0.027184,-0.036346,0.016493,-1.02,39.0,-18.84
3.4187,-9.1937,0.44947,-0.034514,-0.03146,0.0079412,-0.96,39.0,-18.78
3.4323,-9.1937,0.44947,-0.03207,-0.0281,0.010996,-0.84,39.12,-18.72
3.4051,-9.2346,0.36775,-0.027794,-0.018631,0.012828,-0.78,39.06,-18.72
3.4051,-9.2346,0.39499,-0.024435,-0.011301,0.017104,-0.78,39.0,-18.72
3.3778,-9.221,0.38137,-0.036346,-0.011301,0.020159,-0.66,38.94,-18.72
3.3506,-9.2891,0.46309,-0.049175,0.0015272,0.021991,-0.84,39.0,-18.84
3.3506,-9.2482,0.42223,-0.052534,0.0085521,0.02474,-0.72,38.94,-18.72
3.4459,-9.1801,0.42223,-0.043371,0.015272,0.019242,-0.84,38.88,-18.84
3.4459,-9.2346,0.39499,-0.036652,0.014355,0.014355,-0.84,38.76,-18.9
3.4051,-9.1937,0.47671,-0.034514,0.010079,0.014966,-0.84,38.76,-18.9
3.5004,-9.1801,0.47671,-0.030849,0.0024435,0.009163,-0.78,38.76,-18.84
3.4732,-9.2346,0.40861,-0.03879,-0.0015272,0.011606,-0.78,38.76,-18.9
3.4187,-9.2755,0.47671,-0.04215,-0.0036652,0.010385,-0.72,38.7,-18.9
3.4323,-9.2482,0.43585,-0.036346,-0.0067195,0.011912,-0.84,38.64,-19.02
3.4187,-9.2074,0.44947,-0.034514,-0.016493,0.018937,-0.84,38.64,-19.02
3.4051,-9.221,0.47671,-0.033292,-0.013439,0.020159,-0.9,38.64,-18.96
3.4323,-9.1801,0.38137,-0.03543,0.0024435,0.025656,-0.96,38.7,-19.02
3.4459,-9.1665,0.53119,-0.031765,0.0033598,0.019242,-1.08,38.52,-19.02
3.4051,-9.1529,0.42223,-0.029932,0.0036652,0.012828,-1.14,38.64,-18.84
3.4323,-9.1801,0.40861,-0.029322,0.0033598,0.011301,-1.2,38.7,-18.9
3.4187,-9.2482,0.43585,-0.029322,0.0033598,0.015577,-1.32,38.76,-18.84
3.3778,-9.1937,0.44947,-0.026267,0.0015272,0.010079,-1.32,38.7,-18.72
3.3642,-9.221,0.39499,-0.028405,0.0018326,0.011606,-1.44,38.82,-18.84
3.4187,-9.2618,0.50395,-0.026267,0.0054978,0.0079412,-1.5,38.76,-18.9
3.4187,-9.2482,0.35413,-0.028711,0.011301,0.011912,-1.32,38.76,-18.72
3.3506,-9.1665,0.39499,-0.033292,0.020769,0.0058032,-1.32,38.82,-18.6
3.3778,-9.2346,0.38137,-0.037568,0.029322,0.0064141,-1.26,38.82,-18.54
3.3642,-9.1937,0.40861,-0.044593,0.027794,0.011301,-1.26,38.88,-18.48
3.3915,-9.1937,0.42223,-0.038485,0.03146,0.011606,-1.2,39.06,-18.54
3.4459,-9.2618,0.44947,-0.03543,0.028711,0.011912,-1.26,38.94,-18.6
3.4459,-9.2482,0.40861,-0.044288,0.033292,0.013134,-1.2,38.94,-18.72
3.4187,-9.221,0.32689,-0.032681,0.030238,0.010385,-1.2,38.76,-18.72
3.3915,-9.2618,0.38137,-0.039706,0.028405,0.0082467,-1.08,38.76,-18.6
3.3778,-9.1801,0.46309,-0.036652,0.03146,0.010079,-1.08,38.88,-18.6
3.4187,-9.2074,0.39499,-0.041539,0.028711,0.0088575,-1.08,38.76,-18.72
3.4051,-9.2346,0.44947,-0.048258,0.023518,0.015577,-1.14,38.7,-18.66
3.4732,-9.2346,0.46309,-0.041539,0.029016,0.011301,-1.14,38.76,-18.96
3.3778,-9.1393,0.47671,-0.040623,0.03146,0.01741,-1.2,38.82,-19.02
3.4732,-9.2618,0.50395,-0.043371,0.029016,0.017104,-1.32,38.76,-19.02
3.4459,-9.1937,0.44947,-0.033903,0.027794,0.016493,-1.2,38.7,-19.08
3.4459,-9.2346,0.39499,-0.026878,0.012217,0.018326,-1.2,38.64,-19.14
3.4323,-9.1801,0.38137,-0.03543,0.000611,0.026573,-0.96,38.64,-19.02
3.4459,-9.2482,0.49033,-0.029932,-0.0076358,0.023824,-0.96,38.64,-18.9
3.4732,-9.2891,0.44947,-0.031154,-0.019548,0.022907,-0.78,38.76,-18.96
3.4459,-9.2891,0.32689,-0.035736,-0.017104,0.022602,-0.84,38.94,-19.08
3.3506,-9.2755,0.39499,-0.047342,-0.0088575,0.01741,-0.84,38.88,-19.14
3.3097,-9.1937,0.43585,-0.04612,0.018631,0.024129,-0.78,38.94,-18.84
3.3778,-9.1665,0.44947,-0.048258,0.028405,0.039401,-0.6,39.0,-18.72
3.3778,-9.1665,0.43585,-0.029932,0.013744,0.054367,-0.6,39.12,-18.78
3.4732,-9.1801,0.40861,-0.038485,-0.022297,0.067195,-0.54,39.06,-18.78
3.4868,-9.1937,0.49033,-0.023213,-0.017104,0.058032,-0.48,39.12,-18.9
3.3778,-9.1665,0.47671,-0.02474,-0.0042761,0.05284,-0.48,39.12,-18.9
3.3915,-9.221,0.49033,-0.018021,-0.0058032,0.050396,-0.48,39.12,-18.84
3.5004,-9.2482,0.38137,-0.029322,-0.014661,0.043371,-0.3,39.36,-18.84
3.4732,-9.221,0.44947,-0.030849,-0.012217,0.033598,-0.42,39.24,-18.96
3.5004,-9.1937,0.32689,-0.022907,-0.020769,0.019548,-0.42,39.3,-18.84
3.3915,-9.2482,0.36775,-0.021686,-0.024435,0.020769,-0.42,39.3,-18.9
3.4459,-9.2482,0.28603,-0.018937,-0.024129,0.013744,-0.3,39.24,-18.96
3.2825,-9.221,0.38137,-0.020464,-0.020159,0.012217,-0.12,39.06,-19.02
3.3506,-9.3027,0.39499,-0.035125,-0.0033598,0.016493,-0.12,39.12,-19.2
3.3506,-9.2346,0.46309,-0.032681,0.0030543,0.01741,-0.3,39.06,-19.32
3.4051,-9.2891,0.44947,-0.03207,0.010385,0.015882,-0.3,38.94,-19.32
3.4051,-9.1937,0.42223,-0.020769,-0.002138,0.010996,-0.54,38.94,-19.2
3.3642,-9.1529,0.46309,-0.029016,0.0030543,0.0054978,-0.48,39.06,-19.2
3.3642,-9.1937,0.47671,-0.023213,0.01069,-0.002138,-0.54,39.0,-19.02
3.3097,-9.1937,0.47671,-0.025962,0.026878,-0.009163,-0.72,38.88,-19.08
3.3778,-9.2618,0.44947,-0.033292,0.040928,-0.0045815,-0.72,38.94,-19.08
3.3778,-9.2482,0.54481,-0.025656,0.050091,0.0061087,-0.54,38.88,-19.2
3.3915,-9.3027,0.43585,-0.026878,0.052229,0.0042761,-0.66,38.82,-19.14
3.337,-9.3027,0.38137,-0.027184,0.043066,0.0067195,-0.72,38.82,-19.14
3.4596,-9.2482,0.42223,-0.03207,0.021991,0.0079412,-0.84,38.88,-19.2
3.4732,-9.2755,0.31327,-0.02474,-0.0033598,0.012828,-0.84,38.76,-19.14
3.3642,-9.2482,0.42223,-0.029932,-0.023518,0.0058032,-0.72,38.76,-19.02
3.3506,-9.1937,0.34051,-0.048564,-0.038485,0.025656,-0.72,38.82,-19.02
3.337,-9.2482,0.38137,-0.0562,-0.039401,0.025962,-0.6,38.82,-19.08
3.3915,-9.2618,0.40861,-0.057116,-0.037874,0.034819,-0.42,38.64,-18.9
3.4459,-9.0575,0.57205,-0.049175,-0.031765,0.031765,-0.18,38.82,-19.08
3.3915,-9.2618,0.54481,-0.046731,-0.013744,0.020769,-0.18,38.7,-19.14
3.3506,-9.2618,0.55843,-0.041844,-0.0067195,0.018021,-0.24,38.7,-19.2
3.4323,-9.2891,0.50395,-0.048258,-0.002138,0.01741,-0.42,38.64,-18.96
3.3642,-9.2891,0.35413,-0.051007,-0.0024435,0.01741,-0.42,38.64,-19.08
3.3642,-9.1665,0.34051,-0.050091,0.0039706,0.020159,-0.36,38.64,-19.14
3.4187,-9.1937,0.38137,-0.044593,0.009163,0.020159,-0.36,38.52,-19.02
3.4732,-9.2346,0.34051,-0.055894,0.0027489,0.018937,-0.42,38.82,-18.96
3.4051,-9.1256,0.39499,-0.054062,-0.010385,0.018631,-0.42,38.88,-19.02
3.4187,-9.1801,0.49033,-0.04612,-0.0061087,0.0027489,-0.3,38.88,-18.84
3.3506,-9.2346,0.39499,-0.044593,0.0024435,0.016493,-0.3,38.76,-18.72
3.3778,-9.1801,0.32689,-0.045815,0.0036652,0.019548,-0.42,38.82,-18.78
3.3506,-9.1393,0.39499,-0.040012,0.0039706,0.037874,-0.54,38.76,-18.54
3.4187,-9.1256,0.53119,-0.030849,0.0015272,0.035125,-0.66,38.82,-18.6
3.4187,-9.221,0.34051,-0.026878,-0.0067195,0.021075,-0.42,38.82,-18.48
3.3915,-9.2755,0.47671,-0.027489,-0.018631,0.012828,-0.42,39.0,-18.48
3.3642,-9.2891,0.43585,-0.02138,-0.03146,0.0094684,-0.48,38.88,-18.48
3.3097,-9.1937,0.35413,-0.030543,-0.045815,0.007025,-0.48,38.88,-18.18
3.228,-9.2346,0.35413,-0.024435,-0.045204,0.0079412,-0.54,39.0,-18.18
3.2825,-9.2482,0.28603,-0.029016,-0.029627,0.0045815,-0.54,39.0,-18.18
3.2416,-9.3299,0.35413,-0.036346,-0.011301,0.010079,-0.54,38.94,-18.24
3.2689,-9.2755,0.35413,-0.035736,-0.0039706,0.015577,-0.66,38.88,-18.48
3.2825,-9.2755,0.35413,-0.035125,0.0030543,0.016188,-0.54,38.94,-18.42
3.2553,-9.221,0.40861,-0.034514,0.017715,0.015882,-0.6,38.94,-18.48
3.3097,-9.3299,0.40861,-0.035736,0.024435,0.020159,-0.6,38.88,-18.72
3.3778,-9.2891,0.47671,-0.046426,0.019548,0.016799,-0.66,38.88,-18.66
3.4459,-9.2891,0.46309,-0.040623,0.011912,0.018021,-0.78,38.94,-18.66
3.4459,-9.2346,0.32689,-0.036957,0.0015272,0.032987,-0.78,38.94,-18.72
3.3915,-9.2346,0.35413,-0.041539,-0.01405,0.024129,-0.66,39.0,-18.78
3.4459,-9.2074,0.34051,-0.036957,-0.0281,0.027489,-0.72,39.06,-18.9
3.3778,-9.1665,0.32689,-0.042455,-0.049175,0.019853,-0.66,38.94,-19.02
3.3097,-9.2074,0.32689,-0.036041,-0.049175,0.015577,-0.72,38.94,-19.02
3.3506,-9.1937,0.38137,-0.041539,-0.025656,0.01405,-0.6,38.94,-19.02
3.2961,-9.1937,0.44947,-0.040012,-0.014661,0.010996,-0.54,38.94,-18.78
3.3778,-9.2482,0.43585,-0.041539,-0.0064141,0.0097738,-0.66,38.88,-18.66
3.4051,-9.2482,0.43585,-0.033292,0.0033598,0.007025,-0.6,38.82,-18.78
3.3506,-9.2755,0.47671,-0.027184,-0.0045815,0.0088575,-0.6,38.82,-18.66
3.2825,-9.2482,0.44947,-0.0281,0.0097738,0.0039706,-0.48,38.94,-18.78
3.3097,-9.2346,0.39499,-0.029016,0.019242,0.000305,-0.54,38.82,-18.84
3.3234,-9.1937,0.38137,-0.033598,0.036957,0.0085521,-0.66,38.7,-18.84
3.3778,-9.2482,0.38137,-0.03879,0.039095,-0.0024435,-0.66,38.64,-18.84
3.3915,-9.2482,0.40861,-0.043677,0.037568,0.0042761,-0.6,38.82,-18.84
3.3778,-9.3027,0.40861,-0.041233,0.031154,0.0058032,-0.54,38.94,-18.72
3.4459,-9.3163,0.40861,-0.041844,0.028405,0.010996,-0.54,38.94,-18.72
3.4323,-9.2891,0.35413,-0.037568,0.0067195,0.0094684,-0.54,38.76,-18.66
3.4323,-9.3027,0.31327,-0.032987,-0.007025,0.0061087,-0.54,38.94,-18.78
3.4459,-9.2482,0.31327,-0.036652,-0.016799,0.018021,-0.54,39.06,-18.84
3.514,-9.2482,0.43585,-0.045509,-0.028405,0.015882,-0.72,39.24,-18.84
3.4187,-9.2482,0.40861,-0.047342,-0.018631,0.025962,-0.66,39.18,-18.9
3.4323,-9.2618,0.39499,-0.049786,-0.014966,0.025962,-0.78,39.12,-18.84
3.4459,-9.221,0.44947,-0.042761,-0.029016,0.013134,-0.54,39.3,-18.6
3.3234,-9.1937,0.38137,-0.045204,-0.022602,0.025656,-0.6,39.36,-18.66
3.4187,-9.2482,0.32689,-0.040317,-0.038179,0.030849,-0.54,39.3,-18.66
3.3642,-9.2618,0.46309,-0.04215,-0.025045,0.023213,-0.66,39.18,-18.84
3.3915,-9.2891,0.28603,-0.033903,-0.026573,0.033598,-0.72,39.18,-18.84
3.4187,-9.2891,0.35413,-0.028405,-0.031154,0.033292,-0.72,39.18,-18.84
3.4868,-9.1801,0.38137,-0.035125,-0.03879,0.022297,-0.78,39.36,-18.72
3.3778,-9.1801,0.35413,-0.028405,-0.043066,0.024129,-0.84,39.24,-18.72
3.4459,-9.2482,0.44947,-0.037874,-0.043677,0.022907,-0.78,39.18,-18.96
3.4459,-9.2482,0.38137,-0.036957,-0.037568,0.019548,-0.6,39.18,-18.84
3.4187,-9.2482,0.35413,-0.026878,-0.040317,0.02474,-0.6,39.36,-18.78
3.3642,-9.2074,0.34051,-0.032376,-0.044899,0.034208,-0.6,39.24,-18.6
3.4187,-9.2074,0.28603,-0.029322,-0.053145,0.029627,-0.72,39.42,-18.72
3.3915,-9.2482,0.34051,-0.025045,-0.05681,0.020159,-0.66,39.54,-18.9
3.3506,-9.1665,0.38137,-0.029627,-0.05681,0.023518,-0.78,39.36,-18.84
3.3642,-9.1393,0.31327,-0.019853,-0.048258,0.016493,-0.6,39.24,-18.48
3.2961,-9.221,0.36775,-0.01741,-0.047647,0.013744,-0.72,39.3,-18.6
3.2825,-9.2482,0.38137,-0.023213,-0.051313,0.01405,-0.6,39.24,-18.6
3.2825,-9.3163,0.29965,-0.026573,-0.053451,0.016188,-0.48,39.48,-18.6
3.2825,-9.3027,0.16344,-0.033903,-0.049786,0.013744,-0.36,39.42,-18.6
3.2144,-9.3027,0.21793,-0.038485,-0.040012,0.012828,-0.36,39.36,-18.36
3.2416,-9.398,0.28603,-0.062003,-0.024435,0.022907,-0.3,39.3,-18.36
3.228,-9.398,0.35413,-0.060781,-0.022297,0.024129,-0.42,39.42,-18.12
3.2008,-9.2891,0.31327,-0.060781,0.025351,0.027794,-0.42,39.42,-18.18
3.1735,-9.2618,0.32689,-0.064752,0.065668,0.019853,-0.36,39.3,-18.18
3.3097,-9.2891,0.44947,-0.04612,0.093768,0.011912,-0.42,39.12,-17.94
3.4459,-9.3163,0.39499,-0.047647,0.078496,0.022297,-0.42,39.24,-17.94
3.4051,-9.2891,0.34051,-0.042761,0.072082,0.022297,-0.42,39.36,-18.12
3.3506,-9.0167,0.27241,-0.039401,0.062614,0.016188,-0.42,39.3,-18.12
3.3642,-8.9622,0.24517,-0.030238,0.069944,0.0094684,-0.54,39.42,-18.0
3.4051,-9.0167,0.27241,-0.016799,0.079412,0.011301,-0.66,39.18,-18.12
3.5685,-9.1937,0.31327,-0.015577,0.034819,0.023518,-0.6,39.18,-18.3
3.5822,-9.2755,0.34051,-0.029016,0.002138,0.027184,-0.6,39.12,-18.3
3.5685,-9.2618,0.36775,-0.030543,-0.062308,0.012523,-0.54,39.18,-18.3
3.4459,-9.3299,0.34051,-0.011301,-0.10079,0.0024435,-0.54,39.06,-18.36
3.2553,-9.3163,0.25879,-0.0058032,-0.1182,0.0018326,-0.54,39.0,-18.3
3.1872,-9.4117,0.12258,-0.0027489,-0.10537,0.0079412,-0.6,39.06,-18.18
3.0101,-9.3436,0.16344,-0.023518,-0.0042761,0.020464,-0.6,39.06,-18.3
3.1191,-9.3027,0.27241,-0.043371,0.07758,0.033903,-0.54,39.18,-18.3
3.3506,-9.1801,0.31327,-0.0562,0.11942,0.027489,-0.54,39.3,-18.24
3.5004,-9.1256,0.40861,-0.05284,0.082161,0.021991,-0.54,39.18,-18.12
3.514,-9.0848,0.44947,-0.043066,0.046731,0.011606,-0.54,39.3,-18.18
3.5413,-9.1256,0.44947,-0.019242,0.013134,0.011606,-0.54,39.36,-18.24
3.5277,-9.1937,0.50395,-0.012828,-0.022297,-0.0018326,-0.78,39.48,-18.12
3.4051,-9.1801,0.38137,-0.0094684,-0.064752,-0.0039706,-0.72,39.6,-18.0
3.3642,-9.2346,0.36775,-0.0018326,-0.087965,0.0033598,-0.78,39.54,-18.06
3.228,-9.2891,0.28603,-0.0051924,-0.080329,0.013744,-0.6,39.54,-18.18
3.1463,-9.3299,0.31327,-0.0051924,-0.063225,0.016188,-0.6,39.66,-18.3
3.1463,-9.3844,0.31327,-0.011912,-0.015577,0.020769,-0.54,39.66,-18.3
3.1191,-9.398,0.31327,-0.025656,0.044899,0.020159,-0.48,39.54,-18.3
3.2553,-9.3299,0.23155,-0.03879,0.063835,0.02138,-0.48,39.54,-18.36
3.337,-9.3027,0.28603,-0.043677,0.054367,0.021991,-0.48,39.42,-18.3
3.3506,-9.2891,0.28603,-0.048869,0.040012,0.01405,-0.48,39.42,-18.24
3.3506,-9.2346,0.28603,-0.04948,0.032376,0.013439,-0.36,39.24,-18.24
3.3778,-9.1801,0.35413,-0.040012,0.0088575,0.013439,-0.36,39.3,-18.24
3.3506,-9.221,0.40861,-0.03879,0.0051924,0.012217,-0.24,39.24,-18.18
3.337,-9.221,0.38137,-0.034514,-0.01405,0.014355,-0.24,39.3,-18.3
3.2553,-9.2755,0.31327,-0.039706,0.0018326,0.018021,-0.36,39.24,-18.3
3.3234,-9.2482,0.34051,-0.042455,0.023824,0.020464,-0.54,39.3,-18.24
3.2553,-9.2891,0.28603,-0.040317,0.036957,0.022297,-0.48,39.12,-18.36
3.3642,-9.2891,0.35413,-0.042761,0.040623,0.018326,-0.54,39.18,-18.48
3.3778,-9.1937,0.27241,-0.041844,0.039095,0.015882,-0.42,39.24,-18.54
3.4187,-9.2346,0.28603,-0.041233,0.026573,0.01069,-0.6,39.18,-18.48
3.3915,-9.221,0.38137,-0.043982,0.013134,0.01405,-0.3,39.24,-18.54
3.3778,-9.221,0.35413,-0.030849,0.0061087,0.0082467,-0.24,39.36,-18.6
3.337,-9.2482,0.35413,-0.028711,-0.000305,0.0082467,-0.18,39.42,-18.54
3.2825,-9.1937,0.35413,-0.029322,0.0015272,0.009163,-0.06,39.36,-18.54
3.228,-9.2346,0.35413,-0.028711,0.020464,0.000916,-0.06,39.3,-18.6
3.3234,-9.3163,0.42223,-0.043677,0.03207,0.01405,-0.06,39.06,-18.48
3.3506,-9.221,0.34051,-0.030543,0.040623,0.01069,-0.06,39.18,-18.36
3.3097,-9.1801,0.31327,-0.033903,0.039706,0.018631,0.12,39.0,-18.24
3.4051,-9.1529,0.32689,-0.025351,0.022602,0.01405,0.06,38.88,-18.12
3.4732,-9.2346,0.32689,-0.019853,0.012217,0.01069,0.06,38.88,-18.12
3.4596,-9.1937,0.35413,-0.030849,-0.0048869,0.0036652,0.18,38.88,-18.06
3.3097,-9.2346,0.38137,-0.029016,-0.010079,0.0073304,0.06,38.82,-18.12
3.3097,-9.2618,0.38137,-0.024435,-0.0085521,-0.0018326,-0.12,38.7,-18.06
3.3097,-9.2482,0.32689,-0.022297,-0.009163,0.0079412,-0.18,38.76,-18.18
3.2825,-9.3027,0.31327,-0.022602,-0.0073304,0.011912,-0.3,38.88,-18.3
3.3778,-9.2482,0.38137,-0.029016,-0.0042761,0.021991,-0.3,38.88,-18.48
3.3915,-9.2482,0.32689,-0.027794,-0.0073304,0.026573,-0.36,39.12,-18.54
3.4323,-9.221,0.34051,-0.026267,-0.012217,0.016188,-0.3,39.18,-18.54
3.3915,-9.2755,0.34051,-0.034819,-0.013439,0.016799,-0.24,39.12,-18.48
3.2825,-9.2482,0.35413,-0.030238,-0.014661,0.0082467,-0.48,39.06,-18.48
3.2961,-9.2482,0.38137,-0.031765,-0.016799,0.01741,-0.24,39.24,-18.84
3.337,-9.2618,0.34051,-0.029322,-0.018326,0.014966,-0.18,39.3,-18.72
3.3097,-9.2482,0.28603,-0.032987,-0.014355,0.024129,-0.36,39.24,-18.78
3.2961,-9.3027,0.28603,-0.032681,-0.01069,0.019242,-0.36,39.12,-18.54
3.337,-9.2891,0.29965,-0.029322,-0.016493,0.020464,-0.42,39.3,-18.54
3.3642,-9.2618,0.28603,-0.025045,-0.011301,0.016799,-0.36,39.06,-18.3
3.5004,-9.1529,0.32689,-0.041844,-0.010385,0.019548,-0.48,39.0,-18.36
3.3097,-9.1801,0.40861,-0.04215,-0.011912,0.017715,-0.48,39.12,-18.36
3.3778,-9.1529,0.35413,-0.037568,-0.0082467,0.01069,-0.6,39.24,-18.48
3.337,-9.221,0.39499,-0.02474,-0.0012217,0.009163,-0.48,39.24,-18.18
3.2553,-9.221,0.29965,-0.025656,-0.0036652,0.000305,-0.54,39.06,-18.0
3.3097,-9.2891,0.35413,-0.035125,0.0015272,0.0073304,-0.36,38.94,-18.3
3.3778,-9.3027,0.34051,-0.041539,0.0073304,0.011912,-0.42,38.88,-18.12
3.3234,-9.1801,0.28603,-0.041539,0.01741,0.0082467,-0.36,38.76,-18.3
3.3097,-9.2891,0.31327,-0.030849,0.028711,0.0039706,-0.36,38.7,-18.54
3.2689,-9.221,0.42223,-0.02474,0.027184,0.000305,-0.3,38.7,-18.6
3.3234,-9.1937,0.29965,-0.02138,0.026878,0.0088575,-0.54,38.82,-18.72
3.3506,-9.221,0.32689,-0.027794,0.021991,0.0088575,-0.42,38.64,-18.78
3.3642,-9.1937,0.29965,-0.032376,0.014966,0.013744,-0.48,38.7,-18.78
3.3234,-9.1801,0.31327,-0.029016,0.0082467,0.0067195,-0.6,38.76,-18.78
3.3234,-9.2755,0.31327,-0.025351,-0.0033598,0.0076358,-0.42,38.76,-18.6
3.4187,-9.2482,0.38137,-0.023213,-0.0067195,0.0079412,-0.36,38.82,-18.6
3.3778,-9.2618,0.40861,-0.024435,-0.0058032,0.010079,-0.3,38.88,-18.48
3.2553,-9.2618,0.29965,-0.02138,-0.0085521,0.0030543,-0.24,38.82,-18.3
3.3778,-9.2482,0.38137,-0.027489,-0.013134,0.007025,-0.3,38.94,-18.42
3.3234,-9.1393,0.35413,-0.029627,-0.011912,0.009163,-0.3,39.24,-18.36
3.3097,-9.2482,0.28603,-0.032987,0.0061087,0.022297,-0.12,39.06,-18.3
3.3778,-9.2618,0.39499,-0.020464,0.0039706,0.021686,-0.12,39.3,-18.42
3.3506,-9.2755,0.35413,-0.033598,0.0079412,0.022602,-0.12,39.36,-18.54
3.4187,-9.3027,0.27241,-0.030238,0.0015272,0.02138,-0.06,39.3,-18.54
3.3915,-9.2891,0.38137,-0.033598,-0.0085521,0.02474,-0.12,39.42,-18.48
3.3506,-9.221,0.36775,-0.032681,-0.0067195,0.020769,-0.06,39.6,-18.48
3.3642,-9.1801,0.32689,-0.020769,0.0015272,0.01405,-0.24,39.6,-18.36
3.4051,-9.2482,0.35413,-0.031154,-0.028405,0.022602,-0.18,39.6,-18.48
3.4187,-9.3436,0.40861,-0.042761,-0.022297,0.023824,-0.18,39.6,-18.3
3.3506,-9.3163,0.39499,-0.045509,-0.014966,0.033598,-0.3,39.72,-18.36
3.4323,-9.2482,0.38137,-0.043066,-0.014355,0.026267,-0.3,39.78,-18.42
3.4051,-9.1937,0.40861,-0.031154,-0.032376,0.019242,-0.48,39.54,-18.48
3.3778,-9.221,0.36775,-0.029932,-0.060781,0.0085521,-0.42,39.48,-18.42
3.3234,-9.2482,0.32689,-0.043371,-0.069333,-0.000305,-0.36,39.6,-18.54
3.2961,-9.2891,0.32689,-0.047342,-0.036346,-0.000916,-0.48,39.54,-18.54
3.2553,-9.2618,0.36775,-0.047342,0.0067195,-0.010079,-0.54,39.42,-18.72
3.2961,-9.1801,0.38137,-0.053451,0.030849,-0.0088575,-0.66,39.42,-18.66
3.3097,-9.2482,0.38137,-0.052229,0.052229,-0.009163,-0.66,39.3,-18.48
3.3234,-9.1256,0.36775,-0.044899,0.054672,-0.018326,-0.6,39.0,-18.66
3.3506,-9.1529,0.34051,-0.034514,0.067501,-0.015882,-0.48,38.7,-18.66
3.4051,-9.1529,0.39499,-0.035736,0.076969,-0.015272,-0.54,38.7,-18.54
