Ax,Ay,Az,Gx,Gy,Gz,Mx,My,Mz
3.8954,-8.9349,-1.1713,-0.028711,0.016493,0.016188,-13.98,47.46,-9.06
3.9227,-8.9622,-1.1441,-0.03146,0.016188,0.034208,-13.98,47.34,-8.94
3.9771,-8.9349,-1.0488,-0.021991,0.014966,0.029322,-14.04,47.34,-8.88
3.9908,-8.9622,-1.0624,-0.029627,0.0088575,0.037874,-14.1,47.46,-8.88
3.9908,-9.0984,-1.1577,-0.012828,0.0018326,0.031154,-14.04,47.64,-8.76
4.0044,-9.0167,-1.1169,-0.010079,-0.0097738,0.032987,-14.16,47.7,-8.76
4.0589,-9.0031,-1.1713,-0.010079,-0.010996,0.035125,-14.16,47.7,-8.88
3.9771,-9.0031,-1.1441,-0.012217,-0.013744,0.033903,-14.16,47.7,-8.76
4.0316,-8.9349,-1.185,-0.016799,-0.012523,0.013134,-14.1,47.58,-8.76
3.9363,-8.9622,-1.1305,-0.015882,-0.0064141,0.011606,-14.1,47.46,-8.7
3.9908,-8.9213,-1.0896,-0.03543,0.01405,0.0058032,-14.16,47.58,-8.82
3.9635,-8.8805,-1.1169,-0.028711,0.018326,-0.01405,-14.22,47.7,-8.82
3.9227,-9.0712,-1.0896,-0.037263,0.017104,-0.015577,-14.22,47.82,-8.7
3.909,-9.112,-1.1441,-0.041539,0.022602,0.0042761,-14.34,47.88,-8.64
3.909,-9.0848,-1.0896,-0.019548,0.016493,0.0082467,-14.28,47.94,-8.7
4.0316,-9.0575,-1.1577,-0.017104,0.018937,0.0058032,-14.28,48.0,-8.76
3.9363,-8.9894,-1.1986,-0.030543,0.015882,-0.0073304,-14.4,47.94,-8.76
3.8546,-8.9894,-1.1441,-0.039095,0.015272,-0.012523,-14.34,47.94,-8.76
3.8546,-8.9622,-1.0215,-0.030543,0.017104,-0.0079412,-14.28,47.76,-8.76
3.8001,-8.8941,-1.1032,-0.022297,0.018326,-0.002138,-14.4,47.7,-8.82
3.8137,-8.9622,-1.0624,-0.024435,0.0042761,0.015272,-14.46,47.82,-8.76
3.8954,-9.0439,-1.1305,-0.043371,-0.000305,0.029932,-14.34,47.76,-8.76
3.8954,-9.0712,-1.0488,-0.025656,-0.010079,0.028405,-14.28,47.82,-8.76
4.0452,-9.0984,-1.076,-0.021686,-0.0085521,0.034514,-14.28,47.46,-8.88
4.018,-9.0848,-1.1169,-0.019548,-0.0085521,0.022602,-14.22,47.4,-9.06
4.0589,-9.0984,-1.1169,-0.013439,-0.0067195,0.012523,-14.22,47.4,-9.18
3.9908,-9.0031,-1.1577,-0.023518,0.0033598,0.015272,-14.16,47.52,-9.3
4.018,-8.9349,-1.1713,-0.024435,-0.0061087,0.0067195,-13.98,47.46,-9.18
3.9635,-8.9622,-1.185,-0.03207,-0.013439,0.011301,-13.98,47.46,-9.24
3.9908,-8.9894,-1.1032,-0.033598,-0.039706,0.014355,-14.16,47.46,-9.24
4.0316,-9.0303,-1.1713,-0.034514,-0.037874,0.016799,-14.22,47.64,-9.24
3.9908,-9.1393,-1.2122,-0.034514,-0.039095,0.0085521,-14.16,47.64,-9.3
3.9499,-9.0984,-1.185,-0.043371,-0.0281,-0.0073304,-14.1,47.52,-9.6
3.909,-9.0439,-1.185,-0.048258,-0.021075,-0.017104,-14.04,47.46,-9.54
3.9499,-9.0712,-1.1577,-0.050396,-0.024129,-0.0027489,-13.98,47.4,-9.66
3.9363,-9.0167,-1.0896,-0.055589,-0.033903,-0.000305,-13.86,47.52,-9.72
3.8546,-9.0303,-1.1986,-0.054672,-0.029627,0.009163,-13.86,47.46,-9.6
3.8682,-9.0031,-1.185,-0.061697,-0.021075,0.0045815,-13.8,47.4,-9.36
3.8546,-8.9077,-1.1305,-0.057116,-0.032987,0.002138,-14.04,47.28,-9.24
3.7728,-9.0167,-1.0215,-0.058643,-0.029016,0.012828,-14.1,47.22,-9.36
3.8273,-9.0439,-1.0079,-0.068111,-0.02474,0.029322,-14.28,47.22,-9.24
3.8682,-9.0031,-1.0215,-0.04215,-0.026573,0.04948,-14.28,47.22,-9.36
4.0861,-9.1529,-1.1441,-0.013134,-0.021991,0.069028,-14.1,47.28,-9.3
4.127,-9.0575,-1.0488,-0.025351,-0.029627,0.045204,-14.1,47.34,-9.3
4.0861,-9.0303,-1.0896,-0.028405,-0.031765,0.010385,-14.1,47.28,-9.12
3.9363,-8.8124,-1.1305,-0.044593,-0.018937,-0.0033598,-14.16,47.46,-9.06
3.8954,-8.8668,-1.1169,-0.044288,-0.011912,-0.007025,-14.22,47.52,-9.0
3.8409,-8.8668,-1.1169,-0.026878,-0.026573,0.0076358,-14.28,47.52,-8.94
3.8818,-8.9349,-1.1441,-0.03207,-0.041539,0.034819,-14.34,47.52,-8.82
3.9227,-9.0167,-1.1169,-0.016188,-0.048258,0.04612,-14.34,47.52,-8.76
4.0589,-9.1801,-1.1169,-0.026267,-0.030543,0.042761,-14.22,47.34,-9.06
4.0725,-9.1393,-1.2395,-0.032376,-0.010385,-0.0061087,-14.16,47.46,-9.06
4.0452,-9.0984,-1.2395,-0.042455,-0.0024435,-0.01405,-14.1,47.52,-9.06
3.8682,-8.9622,-1.2258,-0.045204,0.007025,-0.025351,-14.04,47.58,-9.0
3.7728,-8.826,-1.362,-0.043982,-0.0030543,-0.013134,-13.98,47.58,-8.82
3.7592,-8.9213,-1.2803,-0.045509,-0.015577,0.012523,-13.98,47.58,-8.88
3.8409,-9.0031,-1.2667,-0.053145,-0.020769,0.035736,-13.98,47.52,-9.0
3.8682,-9.0031,-1.1986,-0.049175,-0.023824,0.055894,-13.98,47.64,-9.12
4.0316,-9.0439,-1.1713,-0.043371,-0.035125,0.057727,-14.1,47.52,-9.24
4.0452,-9.0575,-1.1169,-0.036652,-0.039706,0.049175,-14.04,47.46,-9.3
4.0316,-9.1256,-1.1713,-0.036652,-0.029016,0.035125,-14.1,47.52,-9.48
3.9635,-9.0031,-1.185,-0.04215,-0.0097738,0.023213,-14.22,47.58,-9.3
3.9363,-8.9622,-1.1986,-0.049175,0.0027489,0.011301,-14.34,47.82,-9.18
3.9227,-8.8668,-1.1577,-0.048564,0.0030543,0.015272,-14.34,47.76,-9.18
3.9635,-8.9622,-1.1577,-0.047647,-0.002138,0.011912,-14.46,47.82,-9.3
3.9227,-8.8124,-1.1577,-0.057116,-0.0064141,0.018021,-14.46,47.82,-9.3
3.8682,-8.8941,-1.0624,-0.034514,-0.016493,0.002138,-14.52,47.76,-9.42
3.8682,-8.9758,-1.0896,-0.042455,-0.010079,0.0064141,-14.52,47.76,-9.36
3.8954,-9.0031,-1.1169,-0.030849,-0.010996,0.029016,-14.58,47.88,-9.24
3.9635,-9.0575,-1.1577,0.002138,0.0061087,0.034819,-14.64,47.7,-9.18
3.9635,-9.0439,-1.2531,-0.007025,0.012217,0.017104,-14.52,47.82,-9.06
3.9771,-8.9213,-1.3076,-0.033598,0.0076358,-0.010996,-14.52,47.82,-8.94
3.8954,-8.8532,-1.3212,-0.031765,-0.0027489,-0.027489,-14.58,47.88,-8.88
3.7728,-8.8532,-1.2258,-0.028711,-0.0085521,-0.0045815,-14.4,47.76,-9.12
3.7456,-8.9213,-1.1986,-0.035125,-0.0033598,0.011606,-14.52,47.7,-9.18
3.7728,-8.8941,-1.185,-0.034514,0.0030543,0.029627,-14.64,47.76,-9.18
3.8818,-8.9622,-1.1713,-0.037568,-0.0015272,0.040623,-14.4,47.64,-9.12
3.9499,-9.0303,-1.0624,-0.021991,0.0027489,0.032681,-14.52,47.58,-9.18
3.9227,-9.0575,-1.1169,-0.025656,0.018021,0.018631,-14.46,47.64,-9.06
3.9908,-8.9894,-1.1577,-0.012828,0.018326,0.014966,-14.4,47.7,-9.06
3.9635,-8.9622,-1.185,-0.0088575,0.017104,0.013134,-14.4,47.7,-9.06
3.8409,-8.9758,-1.2258,-0.0094684,0.012523,0.013439,-14.4,47.7,-9.06
3.9227,-8.9349,-1.2395,-0.01405,0.023824,0.026573,-14.28,47.7,-9.12
3.9908,-8.8941,-1.2531,-0.025351,0.018021,0.028405,-14.34,47.76,-9.12
3.9227,-8.9349,-1.1986,-0.017715,0.014966,0.023518,-14.22,47.64,-9.12
4.0316,-9.0575,-1.1577,-0.03207,0.007025,0.025656,-14.22,47.64,-8.94
4.0589,-9.0303,-1.1169,-0.017715,0.011606,0.015882,-14.22,47.64,-8.76
4.018,-9.0575,-1.185,-0.015882,0.019242,0.0073304,-14.04,47.64,-8.7
4.0316,-9.0303,-1.2531,-0.024435,0.009163,-0.010385,-14.16,47.76,-8.58
3.9771,-8.9894,-1.2258,-0.023518,0.011606,-0.0085521,-14.16,47.82,-8.52
3.9635,-8.9894,-1.2531,-0.030238,0.014355,-0.011606,-14.22,47.88,-8.64
3.9227,-8.9894,-1.1305,-0.042761,0.028405,-0.015577,-14.28,47.76,-8.76
3.9227,-8.9349,-1.1441,-0.033903,0.026878,-0.01069,-14.1,47.7,-8.88
3.8273,-9.0303,-1.1032,-0.035736,0.0073304,-0.012217,-14.1,47.7,-8.88
3.8001,-9.112,-1.1032,-0.033598,0.010385,0.0064141,-14.28,47.76,-9.0
3.9363,-9.112,-1.0896,-0.0094684,0.0051924,0.024435,-14.28,47.64,-8.94
3.9771,-9.0303,-1.1986,-0.0015272,0.01069,0.023213,-14.34,47.7,-9.0
4.1542,-9.0167,-1.1169,-0.031765,0.011606,0.000305,-14.46,47.52,-9.06
4.0044,-8.9622,-1.1713,-0.048564,0.0076358,-0.018631,-14.28,47.64,-9.3
3.8682,-8.8941,-1.2531,-0.050702,0.021991,-0.019242,-14.28,47.7,-9.3
3.8682,-8.9349,-1.1169,-0.049175,0.035125,-0.01405,-14.16,47.64,-9.48
3.8682,-8.9622,-1.1305,-0.052229,0.0097738,0.012523,-14.28,47.64,-9.48
3.9499,-8.9894,-1.0896,-0.036041,-0.0054978,0.030238,-14.28,47.7,-9.42
3.9635,-8.9894,-1.0488,-0.032681,-0.011912,0.040317,-14.28,47.76,-9.3
3.9908,-9.0303,-1.0624,-0.025351,0.0058032,0.028405,-14.46,47.82,-9.18
4.0044,-9.0984,-1.0896,-0.024435,0.012217,0.01741,-14.4,47.88,-9.18
3.9771,-9.0439,-1.2258,-0.023213,0.015272,0.0079412,-14.4,47.82,-9.18
3.909,-9.0167,-1.0351,-0.03146,0.02138,0.010996,-14.4,48.0,-9.18
3.8001,-8.9758,-1.0624,-0.01069,0.0027489,0.026267,-14.28,48.0,-9.18
3.8273,-8.9622,-1.1441,-0.0030543,-0.002138,0.045815,-14.16,48.06,-9.12
3.8818,-8.9894,-1.1986,0.0094684,-0.033903,0.097128,-14.22,47.88,-9.06
4.0589,-9.2074,-1.2803,-0.011606,-0.044899,0.091019,-14.22,47.94,-8.82
4.0725,-9.1529,-1.3348,-0.054978,-0.010079,0.0562,-14.28,47.82,-8.76
4.0316,-9.221,-1.3212,-0.063225,0.007025,0.038179,-14.28,47.7,-8.7
3.9908,-9.0984,-1.2531,-0.094073,0.046731,0.010996,-14.16,47.64,-8.76
3.9227,-9.0712,-1.3212,-0.10507,0.083994,-0.015577,-14.04,47.7,-8.82
3.8818,-9.0575,-1.2258,-0.12584,0.082161,-0.023213,-13.92,47.64,-8.76
3.7184,-8.8805,-1.1577,-0.13622,0.07422,-0.024129,-13.98,47.52,-8.76
3.5958,-8.9486,-0.99429,-0.15547,0.0956,-0.0033598,-14.1,47.46,-8.76
3.5822,-8.6762,-0.99429,-0.12981,0.091935,0.02138,-13.98,47.4,-8.82
3.5822,-8.7715,-0.91256,-0.099266,0.069944,0.048869,-14.04,47.4,-8.82
3.5958,-8.8941,-0.77636,-0.097128,0.075442,0.058643,-14.1,47.52,-8.7
3.6775,-8.9213,-0.76274,-0.057421,0.092546,0.098044,-14.04,47.64,-8.76
3.9635,-9.0303,-0.77636,-0.015577,0.094073,0.11332,-13.98,47.82,-8.88
4.0725,-9.0031,-0.89894,0.012217,0.095295,0.088575,-13.92,47.88,-8.94
4.127,-8.9758,-1.0215,0.014966,0.089492,0.067806,-13.74,47.94,-9.12
4.0589,-9.0439,-1.1169,0.000305,0.11209,0.032681,-13.68,48.06,-9.0
4.0044,-9.0031,-1.1577,0.0018326,0.12401,0.0085521,-13.8,48.12,-9.06
4.0044,-8.9213,-1.2122,-0.002138,0.1347,-0.0042761,-13.68,48.06,-9.06
4.0316,-8.9486,-1.2803,-0.021991,0.10843,-0.0061087,-13.5,48.06,-9.24
3.9635,-8.9894,-1.2803,-0.034819,0.087048,0.0036652,-13.44,48.12,-9.12
3.9635,-9.0167,-1.3076,-0.035736,0.081856,0.0018326,-13.32,47.94,-9.12
3.9227,-9.0575,-1.185,-0.029627,0.086132,0.0097738,-13.32,47.88,-9.0
4.0452,-9.0848,-1.3212,-0.030238,0.07422,0.0097738,-13.2,48.0,-9.06
4.0589,-9.0712,-1.2667,-0.03543,0.050396,0.015272,-12.96,48.0,-8.94
4.0589,-9.0439,-1.3212,-0.022297,0.026267,0.01069,-13.02,47.88,-9.0
4.0452,-9.0712,-1.2258,-0.045815,0.02474,0.011301,-12.9,47.76,-8.94
4.127,-9.0031,-1.1986,-0.051618,0.030849,-0.007025,-12.96,47.82,-8.94
4.0861,-8.9894,-1.1577,-0.053756,0.0051924,-0.013439,-12.96,47.7,-9.06
4.127,-9.0303,-1.1169,-0.061697,-0.0082467,-0.01405,-12.84,47.52,-8.94
4.0316,-8.9758,-1.0351,-0.054367,-0.047342,-0.01069,-12.84,47.64,-8.82
3.9908,-8.9894,-1.0488,-0.046426,-0.045815,-0.0048869,-12.96,47.58,-8.82
3.9771,-8.9622,-1.076,-0.040012,-0.030849,-0.013134,-12.9,47.58,-8.76
3.9363,-9.0575,-0.99429,-0.045204,-0.02138,-0.023518,-12.96,47.76,-8.76
3.8682,-8.9622,-1.0215,-0.044288,-0.016799,-0.018326,-13.14,47.76,-8.76
3.8546,-8.9622,-1.0896,-0.041233,-0.012523,-0.021991,-13.26,47.64,-8.76
3.8001,-8.9894,-1.0215,-0.028711,-0.01069,-0.0085521,-13.44,47.4,-8.7
3.8546,-9.0575,-1.0624,-0.0079412,-0.011301,0.0079412,-13.38,47.46,-8.82
3.8954,-8.8941,-1.0624,0.0024435,-0.036041,0.025656,-13.5,47.52,-8.82
3.7728,-9.1256,-1.1169,0.013439,-0.058948,0.022297,-13.56,47.4,-8.64
3.7592,-9.1529,-1.1305,-0.021075,-0.029627,0.030849,-13.74,47.4,-8.58
3.8546,-9.0712,-1.076,-0.0027489,-0.023213,0.047647,-13.8,47.4,-8.58
4.0316,-8.9894,-1.1577,0.021991,-0.047647,0.07086,-13.68,47.34,-8.64
4.0861,-9.0575,-1.2258,0.018021,-0.080329,0.063225,-13.74,47.34,-8.64
4.0861,-9.0575,-1.1713,-0.0054978,-0.089797,0.051007,-13.68,47.34,-8.76
4.1542,-9.0303,-1.2122,-0.011606,-0.062614,0.025045,-13.62,47.46,-8.7
4.0589,-8.8941,-1.1986,0.0039706,-0.083689,0.01741,-13.5,47.52,-8.64
3.9635,-8.9077,-1.1986,-0.0058032,-0.11301,0.017104,-13.44,47.52,-8.7
3.8546,-8.826,-1.1169,-0.012828,-0.14508,0.020464,-13.5,47.64,-8.7
3.8682,-8.826,-1.1169,-0.015272,-0.13683,0.046731,-13.56,47.7,-8.82
3.909,-9.0167,-0.98067,-0.0012217,-0.1124,0.046731,-13.5,47.58,-9.12
4.0316,-9.1529,-1.0624,-0.011606,-0.07758,0.039095,-13.56,47.52,-9.06
4.0725,-9.1937,-0.85808,0.0079412,-0.071777,0.022297,-13.38,47.64,-9.18
4.0725,-9.0575,-0.89894,0.043066,-0.098044,0.027489,-13.32,47.64,-9.18
4.0316,-8.9894,-1.0215,0.065668,-0.11698,0.030849,-13.32,47.7,-9.12
3.9635,-8.9894,-1.2258,0.10018,-0.17349,0.054062,-13.38,47.82,-9.12
3.9363,-9.0439,-1.362,0.078191,-0.18906,0.059865,-13.5,47.82,-9.06
3.909,-8.9894,-1.471,0.03146,-0.18387,0.06017,-13.74,47.76,-9.12
3.8954,-9.0167,-1.3757,0.010385,-0.15882,0.059865,-13.62,47.52,-9.18
4.0452,-8.9894,-1.362,-0.0024435,-0.14539,0.058032,-13.56,47.58,-9.12
4.018,-9.0303,-1.2939,-0.022602,-0.14966,0.054672,-13.62,47.52,-9.06
4.0044,-9.112,-1.2258,-0.051007,-0.14325,0.013744,-13.62,47.4,-9.06
3.9363,-9.0575,-1.1577,-0.060476,-0.1179,-0.015272,-13.5,47.4,-9.0
3.8273,-9.0712,-0.96704,-0.059559,-0.083078,-0.0281,-13.56,47.52,-8.94
3.8001,-9.0167,-1.0215,-0.051313,-0.073609,-0.019853,-13.56,47.64,-8.94
3.7047,-9.0303,-1.0896,-0.05681,-0.077274,-0.015882,-13.5,47.82,-8.88
3.6775,-8.9622,-1.0079,-0.057727,-0.07758,-0.0085521,-13.62,47.76,-8.94
3.6775,-8.9077,-0.98067,-0.029627,-0.080023,-0.0094684,-13.86,47.7,-9.0
3.6503,-9.0303,-0.92618,-0.011912,-0.079412,-0.0051924,-13.8,47.64,-9.06
3.5413,-9.0848,-0.99429,-0.021075,-0.073609,0.016188,-13.56,47.64,-9.12
3.6775,-8.9894,-0.99429,0.021991,-0.063225,0.061392,-13.74,47.76,-9.18
3.732,-8.9622,-1.1441,0.027794,-0.053145,0.078191,-13.86,47.82,-9.18
3.8273,-8.8941,-1.0896,0.025351,-0.032681,0.075747,-13.86,47.94,-9.3
3.8954,-8.8668,-1.2667,0.017104,-0.067501,0.051007,-13.8,48.06,-9.18
3.8818,-8.826,-1.2531,0.018631,-0.098044,0.047647,-13.86,48.12,-9.18
3.8546,-8.8668,-1.2258,0.026878,-0.10843,0.053145,-13.74,47.94,-9.12
3.9499,-8.9758,-1.2122,0.03146,-0.095295,0.057727,-13.86,47.7,-9.18
4.0316,-8.9894,-1.1577,0.0076358,-0.11301,0.049786,-14.04,47.34,-9.24
4.1678,-9.0575,-1.2122,-0.002138,-0.135,0.034208,-13.92,47.46,-9.24
4.1678,-9.0575,-1.2122,-0.010385,-0.11881,0.010079,-13.92,47.46,-9.24
4.0589,-9.0031,-1.1169,-0.021075,-0.077885,-0.036652,-13.8,47.46,-9.3
3.9227,-9.0303,-1.1577,-0.043371,-0.043371,-0.069944,-13.74,47.52,-9.36
3.8409,-9.0439,-1.0215,-0.06017,-0.023824,-0.10232,-13.38,47.46,-9.0
3.7456,-9.0575,-1.0488,-0.076053,-0.0045815,-0.11057,-13.2,47.28,-9.0
3.6775,-9.0575,-1.0488,-0.058948,0.0033598,-0.10201,-12.72,47.16,-9.18
3.6094,-8.9622,-1.0624,-0.035736,0.0039706,-0.085216,-12.3,47.16,-9.18
3.5413,-9.0848,-1.0215,-0.032987,-0.000611,-0.076358,-12.3,47.34,-9.12
3.5277,-9.0848,-1.1169,-0.0281,-0.000611,-0.061392,-12.24,47.58,-9.3
3.5413,-9.0439,-1.0896,-0.030543,0.0058032,-0.047342,-12.24,47.64,-9.3
3.4868,-8.9894,-1.0624,-0.030543,0.021075,-0.0281,-12.54,47.64,-9.12
3.5822,-8.9758,-0.99429,-0.012828,0.042455,-0.012217,-12.78,47.52,-9.0
3.623,-9.112,-1.076,0.0018326,0.043371,0.0027489,-13.2,47.7,-9.18
3.6639,-9.0712,-1.2395,0.0076358,0.031765,0.020464,-13.62,47.88,-9.18
3.7047,-9.1665,-1.2803,-0.0048869,0.041539,0.030543,-14.1,47.58,-9.3
3.7728,-9.0848,-1.3212,-0.0045815,0.040012,0.041844,-14.46,47.64,-9.6
3.8001,-9.0712,-1.1577,-0.0042761,0.044593,0.034514,-14.58,47.46,-9.6
3.6775,-9.2482,-1.3484,-0.0281,0.07758,0.021991,-14.7,47.34,-9.3
3.8001,-9.1529,-1.2803,-0.032987,0.099876,0.049175,-14.88,47.4,-9.3
3.8273,-9.1529,-1.2258,-0.014355,0.091935,0.070555,-14.94,47.28,-9.36
4.0589,-8.9622,-1.2803,-0.0045815,0.072998,0.074831,-14.76,47.16,-9.48
4.018,-9.0575,-1.1577,-0.022297,0.050091,0.065057,-14.76,47.22,-9.72
3.9363,-9.0167,-1.1713,-0.028711,0.043371,0.056505,-14.7,47.1,-9.6
3.9635,-8.9077,-1.1577,-0.02474,0.054062,0.053756,-14.7,47.16,-9.48
3.9363,-8.9758,-1.0896,-0.032376,0.059559,0.043371,-14.64,47.04,-9.42
3.9908,-9.0303,-1.1169,-0.025351,0.042455,0.04948,-14.58,47.22,-9.42
3.9908,-9.0303,-1.0351,-0.03146,0.018326,0.06353,-14.52,47.16,-9.66
4.0044,-9.0575,-1.0896,-0.023824,0.016188,0.06353,-14.16,47.22,-9.66
4.0316,-9.0167,-0.99429,-0.013744,0.029627,0.055589,-14.1,47.28,-9.6
4.1542,-9.0848,-0.96704,-0.0054978,0.021991,0.040012,-13.86,47.4,-9.66
4.0861,-8.9213,-1.1305,-0.0039706,0.000916,0.025351,-13.98,47.4,-9.54
4.0725,-8.9213,-1.1305,0.0012217,-0.015882,0.016188,-14.04,47.46,-9.6
3.9771,-8.9622,-1.1986,0.0058032,-0.023518,0.018937,-13.86,47.34,-9.48
3.9908,-8.9349,-1.1032,-0.002138,-0.042761,0.018326,-13.8,47.4,-9.72
4.0589,-8.9894,-1.0488,-0.0051924,-0.058032,0.021075,-13.74,47.34,-9.72
3.9771,-9.0031,-1.0896,-0.017104,-0.072998,0.0082467,-13.74,47.34,-9.72
3.9363,-9.0984,-1.076,-0.010079,-0.058643,-0.010996,-13.68,47.4,-9.78
3.9363,-9.0575,-1.0624,-0.018937,-0.049786,-0.022297,-13.68,47.4,-9.78
3.9363,-9.1665,-1.0488,-0.016799,-0.047342,-0.031154,-13.92,47.46,-9.9
3.8273,-9.1393,-0.99429,-0.029627,-0.04215,-0.049175,-13.86,47.4,-9.78
3.6775,-9.1393,-1.0215,-0.039706,-0.019242,-0.038179,-13.74,47.34,-9.84
3.623,-9.0303,-1.076,-0.028405,-0.010079,-0.034208,-13.74,47.34,-9.84
3.5685,-9.0439,-1.0351,-0.025045,-0.013744,-0.0079412,-13.86,47.52,-9.84
3.7047,-8.8668,-1.0896,-0.0094684,-0.029016,0.0015272,-13.86,47.58,-9.78
3.6366,-9.0031,-1.1169,-0.018021,-0.024435,0.013134,-13.86,47.64,-9.66
3.7592,-9.1256,-0.96704,-0.050091,0.014355,0.010079,-13.98,47.58,-9.54
3.8273,-9.0848,-1.0215,-0.053145,0.03146,0.021075,-14.16,47.4,-9.48
3.9771,-9.0575,-0.92618,-0.034819,0.025962,0.031765,-14.16,47.46,-9.42
3.9908,-9.0575,-0.85808,-0.032987,0.0067195,0.014355,-14.04,47.34,-9.36
3.9499,-8.9894,-0.92618,-0.027489,0.0027489,-0.015577,-14.28,47.52,-9.48
3.8682,-8.9622,-0.8717,-0.029627,0.02138,-0.02474,-14.16,47.34,-9.48
3.8409,-8.9622,-0.99429,-0.013744,0.028711,-0.01069,-14.22,47.4,-9.3
3.9363,-8.9758,-1.0624,-0.010996,0.010385,-0.013744,-14.1,47.34,-9.36
3.8954,-9.0303,-0.91256,-0.025351,-0.019242,-0.0033598,-14.04,47.34,-9.42
3.8954,-8.9894,-0.99429,-0.012523,-0.021075,0.011301,-13.86,47.22,-9.6
3.8954,-9.0303,-0.96704,-0.012217,0.0033598,0.0088575,-13.86,47.22,-9.6
3.909,-9.0848,-1.0215,-0.0067195,0.018021,0.010079,-13.8,47.22,-9.66
3.8954,-9.0303,-0.95342,-0.01741,-0.000305,0.002138,-13.98,47.4,-9.66
3.8954,-9.0167,-1.0215,-0.016799,-0.016799,0.013439,-14.04,47.28,-9.72
3.8409,-9.0167,-1.1441,-0.0042761,-0.0085521,0.018937,-13.98,47.34,-9.78
3.8682,-9.0439,-1.0351,-0.0079412,-0.0079412,0.02138,-13.98,47.4,-9.72
4.0044,-9.0984,-1.0488,-0.000611,-0.010079,0.021991,-14.1,47.22,-9.78
3.9908,-9.112,-1.0624,-0.012523,-0.020159,0.026878,-14.16,47.22,-9.78
3.9635,-9.0439,-0.96704,-0.0064141,-0.022297,0.025045,-14.22,47.22,-9.78
3.8818,-9.0439,-0.96704,-0.000916,-0.023824,0.026573,-14.46,47.28,-9.66
3.8546,-9.0439,-0.99429,-0.0012217,-0.021991,0.022297,-14.4,47.1,-9.84
3.8682,-9.0439,-0.96704,-0.012828,-0.025656,0.025045,-14.4,47.04,-9.9
3.8273,-9.0712,-0.99429,-0.0045815,-0.018631,0.022602,-14.16,46.92,-9.96
3.8954,-9.0984,-0.96704,-0.0097738,-0.024435,0.026573,-14.16,47.04,-9.84
3.9227,-9.0303,-0.99429,-0.0097738,-0.032376,0.022297,-14.16,46.98,-10.08
3.8137,-9.0712,-0.9398,-0.0076358,-0.026878,0.012217,-14.1,47.1,-10.32
3.7592,-8.9486,-0.99429,-0.030543,-0.0058032,0.016493,-14.1,47.28,-10.44
3.8409,-9.0303,-0.95342,-0.019242,0.0036652,0.016493,-14.1,47.22,-10.44
3.8273,-9.112,-0.96704,-0.027794,0.0061087,0.0076358,-13.86,47.22,-10.5
3.8001,-9.2074,-0.98067,-0.036652,0.0097738,0.017715,-13.92,47.22,-10.5
3.8273,-9.1937,-1.076,-0.016493,0.0058032,0.025962,-13.98,47.28,-10.5
3.8546,-9.1256,-1.076,-0.022297,0.0097738,0.024435,-14.1,47.28,-10.5
3.8682,-9.0848,-1.0624,-0.033903,0.000611,0.01741,-14.1,47.34,-10.44
3.9227,-9.0303,-1.076,-0.040623,0.0018326,0.020159,-14.16,47.28,-10.62
3.9635,-9.0303,-1.0896,-0.045509,0.014661,0.020159,-14.34,47.1,-10.5
3.9635,-9.0575,-0.95342,-0.050091,0.015882,-0.0015272,-14.4,47.04,-10.32
3.8546,-8.9758,-0.96704,-0.04612,-0.0039706,-0.0061087,-14.46,47.1,-10.14
3.8001,-8.9622,-0.8717,-0.047342,-0.011301,-0.009163,-14.52,47.1,-10.14
3.7728,-9.0848,-0.99429,-0.051618,-0.0076358,0.01405,-14.76,47.16,-10.08
3.8682,-9.0848,-0.96704,-0.048564,0.0024435,0.025045,-14.76,47.04,-10.08
3.909,-9.0848,-0.89894,-0.053145,-0.013439,0.020464,-14.82,47.1,-9.9
3.909,-9.0848,-0.9398,-0.063225,-0.0042761,-0.0015272,-14.82,47.28,-9.9
3.9363,-9.0712,-1.0079,-0.0562,0.033292,-0.014355,-14.94,47.04,-9.9
3.8001,-8.9894,-1.0488,-0.054672,0.051618,-0.023518,-14.88,47.22,-9.9
3.8546,-9.0303,-1.1441,-0.055894,0.04948,-0.010079,-14.7,47.34,-9.84
3.8001,-9.0303,-1.0896,-0.059559,0.018631,0.000611,-14.64,47.22,-9.9
3.8137,-8.9894,-1.1577,-0.067806,-0.0073304,0.018326,-14.7,47.28,-9.96
3.732,-8.9894,-1.0488,-0.067195,-0.014355,0.025351,-14.7,47.34,-9.96
3.7047,-9.0712,-1.0351,-0.061697,-0.011301,0.023824,-14.58,47.4,-9.96
3.8682,-9.1529,-1.0488,-0.055283,-0.009163,0.027489,-14.64,47.4,-10.02
3.8682,-9.0575,-0.92618,-0.057116,-0.0082467,0.02474,-14.82,47.4,-10.08
3.8682,-9.0712,-1.0215,-0.059865,0.0015272,0.029627,-14.82,47.4,-10.26
3.9227,-9.0575,-0.98067,-0.060781,0.019548,0.027794,-14.82,47.4,-10.08
3.9227,-9.0167,-0.91256,-0.055589,0.018937,0.024435,-14.94,47.28,-9.9
3.909,-9.0031,-0.99429,-0.061697,0.0051924,0.027794,-15.12,47.28,-9.9
3.8137,-8.9622,-0.96704,-0.042455,-0.019242,0.028711,-14.82,47.28,-9.84
3.7728,-9.0303,-0.9398,-0.046426,-0.025351,0.028711,-14.82,47.34,-9.78
3.8954,-9.0848,-1.0079,-0.052229,-0.011912,0.056505,-14.82,47.04,-9.84
3.8954,-9.0984,-1.0351,-0.026878,-0.0085521,0.071471,-14.7,47.1,-9.84
3.9908,-9.0848,-1.0488,-0.020769,-0.0064141,0.07086,-14.64,47.1,-9.72
4.0316,-9.0848,-1.1577,-0.043677,-0.0051924,0.030238,-14.52,47.1,-9.78
3.8682,-8.9622,-1.1577,-0.055894,-0.0073304,0.0054978,-14.46,47.1,-9.54
3.8409,-8.9622,-1.076,-0.058338,-0.010385,0.0018326,-14.46,47.28,-9.48
3.7592,-8.9894,-1.0215,-0.057421,-0.016188,0.017715,-14.58,47.22,-9.6
3.8001,-9.0575,-1.0896,-0.0562,-0.019548,0.028405,-14.52,47.34,-9.84
3.8409,-9.0303,-0.99429,-0.049786,-0.018326,0.03543,-14.34,47.34,-9.84
3.8546,-9.0984,-0.92618,-0.040623,-0.018021,0.038485,-14.46,47.46,-9.9
3.9635,-9.0303,-0.98067,-0.038485,-0.014966,0.023518,-14.58,47.4,-9.78
3.8273,-9.0167,-1.0079,-0.034819,-0.0076358,0.013134,-14.64,47.46,-9.72
3.7865,-9.0167,-0.99429,-0.045509,0.0042761,0.0058032,-14.52,47.58,-9.66
3.7456,-8.9894,-1.0215,-0.043982,0.01405,0.0039706,-14.4,47.52,-9.54
3.7047,-8.9758,-1.0079,-0.02138,0.012828,0.023518,-14.34,47.52,-9.48
3.732,-8.9758,-1.0488,-0.0097738,-0.0018326,0.046731,-14.4,47.58,-9.6
3.8273,-9.0167,-1.1169,0.0036652,-0.013744,0.046731,-14.34,47.64,-9.78
3.8954,-9.112,-1.185,-0.013744,-0.01741,0.04215,-14.4,47.7,-9.9
3.8682,-9.0712,-1.1169,-0.02474,0.0097738,0.020769,-14.28,47.7,-9.84
3.8546,-9.0031,-1.076,-0.038485,0.012217,0.014661,-14.22,47.7,-9.54
3.8682,-8.9894,-1.0896,-0.043677,0.011912,0.015272,-14.28,47.64,-9.66
3.8137,-9.0303,-1.1169,-0.028405,-0.014355,0.027794,-14.34,47.58,-9.66
3.8001,-8.9894,-1.1032,-0.032681,-0.016493,0.032987,-14.1,47.4,-9.72
3.8273,-9.0303,-1.0896,-0.047647,-0.0088575,0.020464,-14.04,47.4,-9.78
3.8954,-9.0303,-1.076,-0.04948,0.016188,0.017104,-14.1,47.46,-9.96
3.8682,-9.0575,-0.98067,-0.057116,0.018631,0.0033598,-14.28,47.52,-9.9
3.7456,-9.112,-0.99429,-0.054672,0.015577,-0.0054978,-14.4,47.46,-9.96
3.7047,-9.0575,-1.0079,-0.047953,0.027184,0.025351,-14.22,47.4,-9.9
3.8546,-9.0712,-1.1169,-0.012523,0.02474,0.03146,-14.52,47.34,-9.78
3.9499,-9.1256,-1.1169,-0.016188,0.027794,0.029932,-14.64,47.22,-9.78
3.9363,-9.0303,-1.076,-0.041844,0.023824,-0.0015272,-14.7,47.22,-9.78
3.8546,-8.8941,-1.1169,-0.04948,0.022297,-0.0073304,-14.7,47.28,-9.84
3.732,-8.9349,-1.0624,-0.029016,0.021991,-0.0012217,-14.76,47.28,-9.78
3.7456,-8.9622,-1.0896,-0.0281,0.01405,0.009163,-14.76,47.22,-9.72
3.7728,-9.0575,-1.0624,-0.047037,0.0018326,0.023518,-14.88,47.46,-9.72
3.8273,-9.0575,-1.0488,-0.037568,-0.0015272,0.038179,-14.88,47.4,-9.66
3.8409,-9.0439,-1.0351,-0.030543,0.018937,0.029322,-15.12,47.4,-9.6
3.9635,-9.1256,-1.0351,-0.029932,0.024435,0.020769,-15.0,47.4,-9.66
3.9227,-9.0848,-1.0624,-0.016799,0.017715,0.010079,-14.94,47.58,-9.66
3.8954,-9.0575,-1.0896,-0.01741,0.013744,-0.0015272,-15.0,47.58,-9.66
3.7592,-8.9758,-1.1305,-0.019242,0.018326,-0.0088575,-14.58,47.52,-9.6
3.7728,-9.0031,-1.0896,-0.029322,0.027489,0.007025,-14.4,47.52,-9.6
3.7184,-9.0575,-1.076,-0.028405,0.023824,0.028711,-14.4,47.46,-9.72
3.7728,-8.9622,-1.0351,-0.02474,0.018326,0.038179,-14.28,47.34,-9.72
3.8409,-9.0167,-1.0624,-0.030849,0.03543,0.029322,-13.92,47.34,-9.72
3.909,-9.0712,-1.0351,-0.0039706,0.03207,0.029627,-13.74,47.46,-9.6
3.9908,-9.0575,-1.0624,0.009163,0.016493,0.036957,-13.44,47.46,-9.6
3.9499,-9.0848,-1.1713,0.0085521,0.0015272,0.033903,-13.2,47.28,-9.78
3.9363,-9.0575,-1.1713,0.000611,0.002138,0.013134,-12.96,47.16,-10.02
3.909,-9.0303,-1.1169,-0.0082467,0.0045815,0.0012217,-13.02,46.92,-9.96
3.909,-9.0575,-1.0624,-0.03207,0.0064141,-0.0094684,-13.14,47.04,-9.96
3.8954,-9.0848,-1.1169,-0.045204,0.0067195,-0.0082467,-13.2,47.04,-10.02
3.9227,-8.8941,-1.1169,-0.038485,-0.0088575,-0.014355,-13.44,47.16,-9.9
3.8273,-9.0848,-0.99429,-0.051007,-0.0073304,-0.030849,-13.56,47.1,-9.96
3.8273,-9.1393,-0.92618,-0.054672,0.0012217,-0.022602,-13.86,47.1,-9.96
3.8273,-9.0848,-0.92618,-0.029322,-0.012523,0.0058032,-13.98,47.22,-9.96
3.909,-9.0712,-0.96704,-0.0076358,-0.02138,0.019242,-14.04,47.46,-9.78
3.909,-9.1256,-1.0488,-0.028711,-0.0281,-0.015272,-14.1,47.46,-9.72
3.8001,-9.1256,-0.96704,-0.043677,-0.0030543,-0.041844,-14.16,47.64,-9.54
3.7184,-9.0303,-0.96704,-0.045509,0.025656,-0.050702,-14.1,47.58,-9.48
3.8001,-9.0031,-1.0624,-0.028405,0.0088575,-0.03146,-14.04,47.76,-9.42
3.8273,-9.0167,-1.0896,-0.0094684,-0.024129,-0.016493,-14.04,47.7,-9.3
3.7728,-9.1256,-1.0488,-0.032376,-0.047647,0.0054978,-13.74,47.7,-9.3
3.7728,-9.1256,-1.0896,-0.045509,-0.0088575,0.0054978,-13.68,47.7,-9.24
3.8546,-9.1529,-1.0488,-0.053145,0.032376,-0.016493,-13.56,47.64,-9.3
3.8682,-9.1256,-1.0351,-0.063835,0.041539,-0.032376,-13.74,47.64,-9.12
3.7456,-8.9758,-1.0215,-0.054062,0.027489,-0.020159,-13.8,47.4,-9.06
3.6366,-8.8941,-0.99429,-0.041539,0.012217,-0.0015272,-14.1,47.22,-9.06
3.5958,-8.8532,-0.92618,-0.025045,0.025656,0.021991,-14.22,47.28,-9.18
3.5822,-8.9349,-0.95342,-0.0036652,0.043982,0.058338,-14.22,47.28,-9.24
3.7184,-8.9349,-0.8036,0.018937,0.032376,0.082772,-14.22,47.22,-9.3
3.8546,-8.9349,-0.89894,0.038179,0.016188,0.11148,-14.22,47.34,-9.48
4.0589,-9.0303,-0.89894,0.058948,0.011912,0.094684,-14.4,47.28,-9.48
4.0997,-9.0848,-1.0488,0.052534,0.013744,0.080329,-14.58,47.28,-9.78
4.018,-9.0439,-0.92618,0.041233,0.025656,0.045509,-14.4,47.22,-9.9
4.0589,-9.0303,-0.99429,0.0094684,0.062003,0.010079,-14.4,47.22,-9.84
4.0452,-9.0712,-0.99429,0.01741,0.058948,-0.0012217,-14.4,47.52,-9.96
4.0316,-9.0575,-0.98067,0.013134,0.028711,0.0051924,-14.28,47.58,-10.14
3.9499,-9.1256,-1.076,0.0030543,0.0030543,-0.0012217,-14.22,47.52,-10.2
3.9227,-9.0984,-1.2258,-0.029932,0.015577,-0.015577,-14.34,47.52,-10.14
3.909,-9.1256,-1.185,-0.052534,0.029016,-0.032987,-14.28,47.46,-10.14
3.8682,-9.221,-1.1032,-0.055283,0.0281,-0.043066,-14.28,47.34,-10.14
3.8409,-9.2618,-1.0624,-0.078802,0.031765,-0.029322,-14.4,47.34,-10.08
3.8682,-9.2346,-0.98067,-0.065973,0.019548,-0.012217,-14.46,47.28,-10.26
3.8954,-9.0984,-0.99429,-0.061087,0.016799,-0.0079412,-14.34,47.46,-10.32
3.9499,-9.1256,-0.91256,-0.084605,0.000611,-0.011606,-14.4,47.1,-10.26
3.8001,-8.9758,-1.0624,-0.071777,-0.002138,-0.016188,-14.4,47.16,-10.2
3.8001,-8.9894,-0.92618,-0.076969,0.0058032,0.0024435,-14.46,47.1,-10.14
3.8409,-9.0439,-0.85808,-0.082467,-0.000305,0.012828,-14.4,47.1,-10.14
3.8546,-9.0303,-0.85808,-0.087659,0.0061087,0.0067195,-14.4,47.1,-10.14
3.8409,-8.9486,-0.7355,-0.088575,0.014966,0.016493,-14.34,47.16,-10.02
3.8273,-8.9758,-0.76274,-0.075136,0.016799,0.021686,-14.28,47.22,-9.9
3.8682,-9.0303,-0.74912,-0.050091,0.020769,0.041233,-14.28,47.4,-9.84
3.9771,-9.0984,-0.8036,-0.0088575,0.0033598,0.05681,-14.34,47.34,-9.84
4.0316,-9.112,-0.91256,0.0036652,-0.019853,0.062614,-14.28,47.28,-9.6
3.9499,-9.0984,-1.1441,0.000611,-0.02474,0.046731,-14.22,47.28,-9.54
3.8954,-9.0575,-1.185,-0.033292,0.0088575,0.025962,-14.16,47.52,-9.36
3.8682,-9.0303,-1.2531,-0.04612,0.034514,0.009163,-14.28,47.52,-9.6
3.8682,-9.112,-1.2258,-0.059559,0.026573,0.013134,-14.28,47.46,-9.48
3.9363,-9.0575,-1.2258,-0.077885,0.010996,0.026573,-14.4,47.52,-9.48
3.8954,-9.0575,-1.185,-0.095906,-0.0061087,0.020464,-14.46,47.52,-9.6
3.8818,-9.0848,-1.185,-0.088575,0.000305,0.026878,-14.46,47.52,-9.54
3.8954,-9.0712,-1.1169,-0.089797,0.0088575,0.021075,-14.46,47.4,-9.48
3.8001,-8.9486,-1.0624,-0.1011,0.014661,0.018631,-14.28,47.52,-9.78
3.7728,-8.9622,-0.99429,-0.10996,0.016188,0.022602,-14.16,47.52,-9.6
3.8001,-8.8941,-0.99429,-0.093462,0.011301,0.028711,-14.28,47.52,-9.66
3.7728,-8.8668,-0.96704,-0.090408,0.0058032,0.049786,-14.1,47.4,-9.66
3.8001,-8.9622,-0.88532,-0.080329,0.02138,0.050396,-13.98,47.46,-9.48
3.8682,-8.9758,-0.83084,-0.067195,0.030849,0.036346,-13.86,47.58,-9.42
3.909,-8.9486,-0.89894,-0.040623,0.01069,0.033903,-13.8,47.7,-9.42
3.8001,-9.0303,-0.85808,-0.031765,0.0039706,0.039401,-13.56,47.7,-9.48
3.7728,-9.0984,-0.85808,-0.028405,0.012523,0.053145,-13.56,47.64,-9.48
4.0589,-9.0575,-0.99429,0.000611,0.016493,0.067806,-13.68,47.52,-9.42
4.0589,-9.0303,-1.1441,0.0058032,0.02474,0.053451,-13.62,47.52,-9.54
4.1133,-8.9894,-1.1169,-0.011912,0.01741,0.025656,-13.68,47.7,-9.48
4.0316,-8.9894,-1.2395,-0.02138,0.009163,0.000916,-13.56,47.52,-9.48
3.8954,-8.9349,-1.1986,-0.044899,0.0051924,0.0061087,-13.68,47.76,-9.36
3.9227,-8.9622,-1.2803,-0.05284,0.0054978,0.020464,-13.74,47.52,-9.42
3.9908,-9.0303,-1.2395,-0.054062,0.0027489,0.034208,-13.74,47.46,-9.3
4.018,-9.0712,-1.2258,-0.069333,-0.0073304,0.024129,-13.86,47.28,-9.24
4.0316,-9.0712,-1.1169,-0.062003,-0.020159,0.015577,-13.86,47.28,-9.0
3.909,-9.0984,-1.0896,-0.058643,-0.007025,-0.0079412,-13.8,47.64,-8.94
3.8682,-9.0848,-1.076,-0.058032,0.0088575,-0.022907,-13.8,47.7,-9.06
3.8546,-8.9894,-1.0624,-0.062003,0.015882,-0.025962,-13.86,47.4,-9.0
3.7456,-8.9622,-1.076,-0.077274,0.020769,-0.016799,-13.86,47.7,-8.94
3.7728,-8.9349,-1.0488,-0.065057,0.012523,-0.0030543,-13.8,47.52,-8.94
3.8546,-8.9622,-1.0488,-0.051924,0.0039706,0.0033598,-13.86,47.58,-8.76
3.8273,-8.9213,-1.0896,-0.048869,-0.010996,0.009163,-13.8,47.76,-8.88
3.8682,-8.9758,-1.1577,-0.044899,-0.01741,0.011606,-13.8,47.94,-8.94
3.9635,-8.9894,-1.0896,-0.033903,-0.01069,0.011912,-13.68,48.0,-9.12
3.8954,-9.0303,-1.0488,-0.027489,-0.0085521,0.013744,-13.62,48.0,-9.06
3.8818,-8.9486,-1.0351,-0.036041,-0.0048869,0.012217,-13.56,47.88,-9.06
3.8682,-8.9894,-1.1577,-0.029322,-0.0088575,0.014355,-13.74,48.0,-8.88
3.8137,-8.9758,-1.1169,-0.020159,-0.0076358,0.016188,-13.62,47.94,-8.76
3.8818,-8.9349,-1.1169,-0.01741,-0.0045815,0.023824,-13.68,47.82,-8.82
3.9635,-9.0575,-1.1986,-0.014966,-0.0061087,0.023213,-13.56,48.12,-8.94
3.8682,-8.7715,-1.1169,-0.029322,-0.0039706,0.013439,-13.68,48.06,-9.0
3.8954,-8.9077,-1.1441,-0.020464,-0.0048869,0.000916,-13.62,48.0,-8.94
3.6775,-9.0575,-1.0624,-0.040623,0.0042761,-0.0076358,-13.62,47.94,-9.0
3.7592,-8.9894,-1.185,-0.043982,0.020464,0.01741,-13.68,48.12,-8.88
3.8954,-9.0303,-1.076,-0.024129,0.024129,0.043066,-13.92,48.0,-9.12
4.0044,-9.0575,-1.0351,-0.034208,0.03543,0.029322,-13.86,47.82,-9.18
4.0316,-9.0031,-1.185,-0.054672,0.010385,-0.020464,-13.62,47.7,-9.18
3.8682,-8.9349,-1.1169,-0.045509,0.0039706,-0.015577,-13.62,47.76,-9.3
3.7728,-8.8668,-1.1577,-0.039706,0.0048869,-0.009163,-13.8,47.64,-9.18
3.6775,-9.0303,-1.076,-0.041844,0.015577,0.0039706,-13.92,47.64,-9.3
3.7047,-9.0031,-1.1032,-0.058338,0.023518,0.014355,-13.86,47.46,-9.3
3.8273,-9.0575,-1.0351,-0.068722,0.032376,0.028711,-13.98,47.46,-9.06
3.8954,-9.0167,-0.95342,-0.0562,0.020769,0.026878,-14.04,47.4,-9.0
3.9227,-9.0848,-0.99429,-0.023213,0.034514,0.0076358,-13.86,47.46,-9.12
3.8001,-9.0712,-1.0215,-0.031765,0.037263,-0.000611,-13.8,47.46,-9.0
3.8001,-9.0303,-1.1577,-0.023213,0.029932,0.0051924,-13.86,47.46,-9.06
3.8546,-9.0575,-1.1986,-0.02474,0.020159,0.03543,-13.92,47.46,-9.12
3.8273,-8.9894,-1.2258,-0.018937,-0.000611,0.046426,-14.1,47.46,-9.12
3.9227,-8.9894,-1.185,-0.035736,-0.010996,0.060781,-13.86,47.46,-9.0
3.9635,-8.9213,-1.1713,-0.029627,-0.0015272,0.057116,-13.68,47.4,-9.0
4.127,-9.0167,-1.1169,-0.039095,0.007025,0.034208,-13.56,47.46,-9.12
4.0861,-9.0031,-1.1169,-0.045815,-0.0088575,0.014966,-13.62,47.34,-9.18
4.0725,-9.0167,-1.0624,-0.044288,0.0064141,0.0036652,-13.44,47.58,-9.3
4.0316,-8.9349,-1.076,-0.037874,0.007025,-0.0064141,-13.5,47.4,-9.24
3.9499,-8.9349,-1.0488,-0.039706,0.011912,-0.013439,-13.56,47.28,-9.12
3.909,-8.9622,-1.0624,-0.037263,0.013744,-0.020159,-13.62,47.22,-9.24
3.9227,-8.9486,-0.92618,-0.030238,0.013744,-0.03146,-13.62,47.28,-9.3
3.8954,-8.9622,-0.99429,-0.026573,0.018021,-0.022602,-13.74,47.46,-9.18
3.8001,-8.8532,-1.0215,0.0051924,0.0030543,-0.017715,-13.74,47.4,-9.12
3.6503,-9.0712,-1.076,0.013134,-0.011912,-0.017715,-13.98,47.58,-9.36
3.6639,-9.0439,-0.96704,-0.012523,-0.002138,0.0048869,-14.1,47.52,-9.3
3.8001,-9.0303,-0.96704,0.0039706,0.0085521,0.029322,-14.34,47.64,-9.12
3.9363,-9.0439,-1.0624,0.024435,0.013134,0.050702,-14.34,47.52,-9.06
4.018,-9.0575,-1.0896,0.023213,-0.0067195,0.031765,-14.4,47.4,-9.06
3.9499,-9.0712,-1.2531,0.0036652,-0.014966,0.015272,-14.28,47.28,-9.48
3.9227,-9.0167,-1.0896,-0.0061087,0.01741,-0.0051924,-14.22,47.4,-9.6
3.9227,-9.0712,-1.2258,-0.0088575,0.042455,-0.0073304,-14.34,47.64,-9.48
3.8954,-9.0031,-1.0896,-0.015882,0.033292,-0.0027489,-14.28,47.7,-9.3
3.8954,-9.0303,-1.185,-0.033598,-0.0024435,0.0076358,-14.1,47.76,-9.3
3.8954,-9.0575,-1.0624,-0.031765,0.002138,0.012828,-14.22,47.64,-9.36
3.8409,-9.0712,-1.0488,-0.0281,0.029016,0.0045815,-14.1,47.52,-9.24
3.8954,-9.0848,-1.0215,-0.031154,0.030238,0.0076358,-14.04,47.4,-9.24
3.9227,-9.112,-1.1305,-0.029627,0.0048869,0.012217,-13.92,47.46,-9.36
3.8818,-9.0575,-1.1032,-0.036041,0.0079412,0.014966,-13.92,47.46,-9.3
3.8682,-9.0031,-1.1169,-0.03146,0.010079,0.018021,-13.98,47.64,-9.36
3.9227,-8.9622,-1.1032,-0.024435,0.020769,0.029627,-13.98,47.7,-9.3
3.9635,-9.0167,-1.185,-0.028711,0.01069,0.034208,-13.98,47.7,-9.18
3.9227,-9.0031,-1.1305,-0.045204,-0.0045815,0.037874,-13.92,47.58,-9.18
3.9908,-8.9622,-0.96704,-0.038485,-0.009163,0.03543,-13.92,47.46,-9.18
3.9771,-9.0167,-0.99429,-0.040928,-0.0079412,0.026267,-13.92,47.46,-9.12
3.9908,-9.0167,-0.95342,-0.026573,-0.0054978,0.023213,-13.98,47.4,-9.12
4.0316,-9.0303,-0.99429,-0.028405,-0.015272,0.01741,-13.98,47.46,-9.12
3.9499,-9.0167,-0.92618,-0.026878,-0.01405,0.0097738,-14.1,47.58,-9.0
3.9227,-8.9894,-1.0215,-0.039401,-0.0036652,0.0045815,-14.04,47.64,-9.06
3.9635,-9.0303,-1.0351,-0.029932,-0.0061087,-0.010079,-14.1,47.46,-9.12
3.9635,-8.9894,-1.0351,-0.038179,-0.011912,-0.0082467,-14.22,47.46,-9.3
3.8682,-9.0848,-1.0624,-0.041539,-0.0039706,-0.0073304,-14.16,47.4,-9.18
3.8682,-8.9622,-1.0624,-0.034514,-0.016188,-0.016493,-14.04,47.4,-9.36
3.8001,-9.0575,-0.95342,-0.039706,-0.022907,-0.0097738,-14.22,47.46,-9.3
3.7047,-9.0848,-0.96704,-0.043066,-0.0088575,-0.0012217,-14.28,47.58,-9.3
3.8954,-9.0848,-1.0351,-0.010079,-0.0085521,0.023213,-14.4,47.58,-9.36
3.8954,-8.9894,-1.1305,-0.016493,-0.009163,0.021686,-14.46,47.58,-9.48
3.9227,-9.0303,-1.0351,-0.021991,-0.025656,0.013134,-14.4,47.52,-9.6
3.7728,-9.0303,-1.0488,-0.03543,-0.010079,0.011606,-14.22,47.4,-9.6
3.8954,-9.0031,-1.0351,-0.033903,0.002138,0.016493,-14.22,47.4,-9.72
3.909,-9.0575,-1.0624,-0.027489,-0.0027489,0.020769,-14.16,47.4,-9.78
3.9363,-9.0167,-1.0215,-0.044288,-0.025045,0.023824,-13.98,47.52,-9.66
3.9635,-9.0439,-1.0215,-0.031154,-0.029322,0.015882,-13.92,47.52,-9.48
3.9908,-9.112,-0.96704,-0.028711,-0.022297,0.0097738,-13.86,47.52,-9.66
3.9635,-9.1256,-1.0488,-0.021075,-0.012828,0.0085521,-13.92,47.52,-9.6
3.9635,-9.0575,-1.1169,-0.02138,-0.026267,0.014966,-14.1,47.64,-9.54
3.8001,-9.0848,-1.1577,-0.022297,-0.029322,0.014355,-14.1,47.58,-9.72
3.8682,-9.0575,-1.1577,-0.014966,0.000305,0.012828,-14.1,47.58,-9.66
3.8546,-9.0303,-1.0896,-0.034819,-0.0097738,0.017715,-14.04,47.7,-9.78
3.8409,-8.9213,-1.0896,-0.040928,-0.036957,0.025351,-14.04,47.7,-9.72
3.8273,-8.9486,-0.99429,-0.04612,-0.046426,0.044593,-14.1,47.82,-9.72
3.8409,-9.0031,-1.0215,-0.036346,-0.032681,0.053451,-14.1,47.64,-9.9
4.0316,-9.0031,-0.92618,-0.029016,-0.038485,0.052229,-14.04,47.64,-9.9
4.0316,-9.0575,-0.98067,-0.018937,-0.062003,0.045204,-14.1,47.52,-9.9
4.0725,-9.0439,-1.0624,-0.021991,-0.061697,0.041233,-13.98,47.58,-9.96
4.0044,-9.0439,-0.85808,-0.026267,-0.040623,0.032681,-13.92,47.58,-9.9
3.9908,-9.0439,-0.98067,-0.036041,-0.016188,0.0085521,-13.8,47.58,-9.96
3.9908,-8.9486,-0.92618,-0.032376,-0.018326,0.0036652,-13.74,47.46,-9.78
3.9499,-8.9622,-1.0624,-0.033598,-0.027489,0.0048869,-13.8,47.58,-9.66
3.9227,-9.0303,-1.0488,-0.033598,-0.010385,-0.0045815,-13.74,47.58,-9.84
3.8546,-9.0303,-1.0896,-0.043982,-0.0048869,-0.000305,-13.68,47.46,-9.66
3.8954,-8.9622,-1.0624,-0.036652,-0.014966,-0.0051924,-13.68,47.46,-9.48
3.8273,-9.0031,-1.0215,-0.023518,-0.043677,-0.0058032,-13.74,47.46,-9.48
3.8001,-9.0848,-1.0624,-0.040317,-0.029016,0.01069,-13.92,47.7,-9.36
3.8001,-9.0848,-1.0896,-0.026267,-0.025656,0.034514,-14.04,47.76,-9.42
3.9227,-9.0984,-1.0488,-0.021991,-0.000916,0.047342,-14.1,47.76,-9.36
3.9499,-9.0439,-1.1169,-0.041539,0.0088575,0.009163,-14.46,47.58,-9.48
3.9908,-9.0575,-1.0896,-0.054062,-0.0024435,-0.014355,-14.58,47.58,-9.42
3.8818,-8.9622,-1.1986,-0.049786,-0.009163,-0.020769,-14.52,47.7,-9.36
3.8273,-8.9349,-1.1986,-0.044899,-0.030849,-0.0054978,-14.4,47.7,-9.54
3.7728,-8.9486,-1.1169,-0.053451,-0.023824,0.0042761,-14.52,47.52,-9.54
3.8818,-8.9894,-1.1305,-0.065057,-0.014966,0.024435,-14.7,47.46,-9.48
3.909,-9.1529,-1.0351,-0.059559,-0.0076358,0.030238,-14.76,47.52,-9.36
3.9908,-9.1256,-0.99429,-0.045509,0.000916,0.018326,-14.76,47.58,-9.48
4.0044,-9.1256,-1.0896,-0.042455,0.0027489,0.013744,-14.82,47.58,-9.54
3.9499,-9.0303,-1.0351,-0.044593,0.007025,0.0051924,-14.76,47.4,-9.36
3.8409,-8.9758,-1.2258,-0.041539,0.0094684,0.0036652,-14.7,47.28,-9.24
3.8273,-8.9622,-1.1713,-0.054367,0.019853,0.0054978,-14.7,47.34,-9.18
3.8546,-8.9077,-1.1169,-0.055894,0.012523,0.013439,-14.52,47.46,-9.0
3.8546,-8.9349,-1.1032,-0.053145,-0.011301,0.028711,-14.4,47.46,-9.12
3.9635,-9.0031,-1.1441,-0.043982,-0.021075,0.032681,-14.52,47.46,-9.12
4.0589,-8.9894,-1.0624,-0.051313,-0.034819,0.029932,-14.58,47.64,-8.88
4.0316,-9.0303,-1.0896,-0.052229,-0.030849,0.019853,-14.46,47.7,-8.82
4.0997,-9.0303,-1.1577,-0.049786,-0.02138,0.0039706,-14.34,47.7,-8.82
4.0861,-9.0575,-1.1577,-0.06353,-0.029627,-0.024129,-14.34,47.64,-8.88
4.0589,-9.0303,-1.185,-0.081856,-0.016188,-0.036041,-14.28,47.58,-8.82
4.0316,-9.0303,-1.1986,-0.099266,0.0048869,-0.06017,-14.16,47.64,-8.88
3.8954,-8.9349,-1.076,-0.10629,0.048869,-0.084605,-14.04,47.7,-8.82
3.8273,-8.6081,-0.91256,-0.093768,0.053145,-0.079412,-14.1,47.82,-8.94
3.6911,-8.717,-0.92618,-0.037568,-0.0024435,-0.059865,-13.86,47.7,-8.94
3.5958,-8.9894,-1.0215,-0.007025,-0.055894,0.0085521,-13.92,47.7,-9.0
3.5685,-9.0031,-1.1169,0.0058032,-0.025656,0.047342,-14.1,47.76,-8.94
3.6911,-9.0439,-1.185,0.019853,0.034208,0.058032,-13.98,47.7,-8.82
3.8273,-9.0984,-1.1169,0.012523,0.057727,0.04215,-14.04,47.7,-8.94
3.9227,-9.0712,-1.1169,-0.021686,0.03543,0.015272,-14.1,47.52,-8.94
3.732,-8.9486,-1.2258,0.000611,0.011606,0.025351,-14.16,47.58,-9.18
3.732,-8.8941,-1.2395,0.012217,0.012523,0.053756,-14.28,47.7,-9.24
3.8001,-8.9758,-1.3484,-0.002138,0.0281,0.058338,-14.34,47.7,-9.24
3.8682,-8.9894,-1.2258,-0.032681,0.029627,0.079718,-14.46,47.82,-9.12
3.9771,-9.0439,-1.1169,-0.03207,0.017104,0.096822,-14.52,47.7,-9.12
4.0725,-9.0984,-1.0896,-0.009163,0.0067195,0.083994,-14.64,47.7,-9.18
4.1814,-9.0575,-1.1169,0.000305,0.015882,0.049175,-14.82,47.82,-9.24
4.1406,-9.0848,-1.2667,-0.019242,0.030238,0.019853,-14.76,47.82,-9.3
3.9363,-8.9894,-1.2395,-0.03146,0.052534,0.0039706,-14.76,47.82,-9.3
4.0452,-9.0031,-1.1577,-0.042455,0.06017,0.012217,-14.76,48.0,-9.3
4.0589,-8.9486,-1.2531,-0.037874,0.043066,0.018937,-14.64,48.06,-9.36
4.1133,-8.9349,-1.185,-0.040928,0.01741,0.031154,-14.58,48.12,-9.3
4.127,-8.9894,-1.1169,-0.034208,-0.0018326,0.024435,-14.52,48.18,-9.36
4.0861,-8.9622,-1.0896,-0.035736,-0.021686,0.0058032,-14.4,48.12,-9.36
4.018,-9.0031,-1.0896,-0.022297,-0.022907,0.0061087,-14.34,48.12,-9.54
3.9908,-9.0575,-1.2258,-0.022602,-0.022297,0.0033598,-14.28,47.94,-9.48
4.0044,-9.0303,-1.1577,-0.028405,-0.0094684,0.0012217,-14.28,48.0,-9.6
4.0316,-9.0303,-1.0896,-0.040317,-0.0012217,-0.020769,-14.28,47.94,-9.6
3.9908,-8.9894,-1.0896,-0.047953,0.007025,-0.032376,-14.34,47.88,-9.66
3.8818,-8.9622,-1.0896,-0.042761,0.013744,-0.034819,-14.4,47.88,-9.66
3.8954,-8.9486,-1.0896,-0.047647,0.02138,-0.026878,-14.34,47.76,-9.78
3.8954,-8.8532,-1.076,-0.026878,-0.010996,-0.016799,-14.4,47.64,-9.84
3.8137,-8.9213,-1.0896,-0.038179,-0.010996,-0.011301,-14.46,47.58,-9.78
3.6911,-9.0712,-1.0351,-0.048258,0.000305,-0.01069,-14.46,47.64,-9.84
3.909,-9.1937,-1.0896,-0.036041,0.040012,0.011912,-14.58,47.46,-9.9
4.0044,-9.0575,-1.0896,-0.025045,0.047037,0.023518,-14.64,47.34,-9.9
3.9635,-9.0167,-1.1713,-0.039095,0.029322,0.000305,-14.52,47.34,-9.72
3.8546,-8.9622,-1.1032,-0.053451,0.021991,-0.011606,-14.52,47.4,-9.9
3.8001,-8.9758,-1.076,-0.047647,0.030238,-0.0018326,-14.46,47.46,-9.78
3.8137,-8.8941,-1.0351,-0.039401,0.036346,0.015577,-14.46,47.34,-9.9
3.9499,-9.0031,-1.1305,-0.04612,0.023824,0.027794,-14.34,47.34,-9.84
4.0452,-8.9894,-1.0351,-0.041844,0.0045815,0.039706,-14.22,47.4,-9.9
4.0316,-9.0575,-1.0624,-0.025045,0.0045815,0.026267,-14.4,47.46,-9.66
4.0452,-9.0848,-1.1169,-0.027794,0.016188,0.012828,-14.4,47.46,-9.78
4.0452,-9.0031,-1.076,-0.025656,0.012828,0.0073304,-14.46,47.46,-9.78
3.9908,-9.0167,-1.1032,-0.02474,0.012828,0.0064141,-14.34,47.46,-9.84
3.9227,-8.8805,-1.1577,-0.029322,0.030543,0.0085521,-14.46,47.58,-9.84
3.9771,-8.8941,-1.1441,-0.039706,0.021991,0.0085521,-14.4,47.64,-9.78
3.8954,-8.8668,-1.0624,-0.062308,0.013439,0.0064141,-14.52,47.58,-9.66
3.8409,-8.9622,-0.92618,-0.073915,0.045204,0.0064141,-14.4,47.46,-9.78
3.8682,-9.0167,-0.83084,-0.058338,0.048564,0.011301,-14.52,47.34,-9.66
4.0725,-9.0303,-0.89894,0.0048869,0.0033598,0.026573,-14.16,47.64,-9.42
4.0725,-9.0303,-0.89894,0.0048869,0.0033598,0.026573,-14.16,47.64,-9.42
3.9635,-8.9486,-0.92618,0.022907,-0.000611,0.014661,-14.04,47.52,-9.3
3.9227,-8.9894,-1.0215,0.026267,0.0051924,0.018326,-13.86,47.46,-9.54
3.8682,-8.9622,-1.185,0.024129,0.018631,0.02474,-13.86,47.52,-9.48
3.9227,-9.0031,-1.0896,0.013439,0.024129,0.024129,-13.92,47.58,-9.48
3.909,-8.9894,-1.1169,0.0012217,0.030543,0.026573,-13.98,47.46,-9.54
3.9227,-8.9349,-1.1441,-0.0088575,0.03543,0.025351,-13.86,47.46,-9.6
3.9635,-8.9894,-1.1305,-0.0073304,0.025351,0.015882,-13.74,47.58,-9.48
3.9227,-9.1256,-1.1305,-0.03146,0.027184,0.0094684,-13.92,47.7,-9.24
3.9363,-9.0712,-0.99429,-0.030849,0.019548,0.029627,-13.8,47.7,-9.42
4.0316,-8.9622,-1.0624,0.0018326,0.0024435,0.04612,-13.74,47.52,-9.36
4.0997,-8.9758,-1.0896,-0.0058032,-0.020159,0.028405,-13.86,47.52,-9.36
3.9908,-9.0303,-1.1169,-0.027184,-0.0067195,0.0064141,-13.92,47.64,-9.48
3.9635,-8.9213,-1.1169,-0.038485,0.022297,0.0076358,-13.86,47.52,-9.6
3.9635,-8.9894,-1.1441,-0.027794,0.032987,0.0051924,-13.92,47.58,-9.48
3.9908,-8.9894,-0.9398,-0.029016,-0.0045815,0.016188,-13.86,47.34,-9.48
3.9635,-8.9622,-0.91256,-0.031154,-0.019242,0.022602,-13.8,47.34,-9.42
3.8682,-8.9622,-0.85808,-0.021075,-0.023213,0.023824,-13.68,47.4,-9.3
3.9908,-9.0848,-0.85808,-0.0024435,0.0033598,0.0281,-13.62,47.28,-9.36
4.0452,-9.0848,-0.96704,0.000916,0.0036652,0.016799,-13.68,47.22,-9.66
4.0589,-8.9894,-0.95342,-0.012828,-0.0042761,0.022297,-13.68,47.22,-9.72
3.9771,-8.9213,-0.96704,-0.012523,-0.0030543,0.018326,-13.8,47.28,-9.66
3.9227,-8.9622,-1.0215,-0.0027489,-0.0024435,0.019242,-13.86,47.4,-9.78
3.9908,-8.9894,-1.0896,-0.0033598,-0.0094684,0.023824,-13.86,47.46,-9.84
3.9771,-8.9758,-0.98067,-0.0082467,-0.032987,0.040012,-13.8,47.4,-9.78
3.9635,-9.0575,-0.96704,-0.018937,-0.032987,0.041844,-13.98,47.34,-9.66
4.0316,-8.9894,-0.88532,-0.019242,-0.023213,0.033903,-13.92,47.28,-9.6
4.018,-9.0303,-0.81722,-0.019853,-0.019242,0.018937,-13.98,47.28,-9.78
3.9499,-9.0303,-0.84446,-0.0076358,-0.028405,0.014355,-13.86,47.28,-9.84
3.9499,-9.0303,-0.95342,-0.0064141,-0.031154,0.020464,-13.92,47.34,-9.84
3.8818,-9.0031,-0.99429,-0.000611,-0.030238,0.020769,-13.98,47.28,-9.78
3.8818,-9.0167,-0.9398,-0.0067195,-0.017715,0.015272,-13.98,47.4,-9.54
3.9499,-9.0848,-0.84446,-0.019853,-0.014661,0.019548,-13.92,47.4,-9.54
3.9227,-8.9894,-0.99429,-0.027794,0.0082467,0.014661,-13.86,47.34,-9.72
3.9499,-8.9349,-0.92618,-0.023518,0.014661,0.0061087,-13.86,47.34,-9.72
3.9227,-9.112,-0.92618,-0.026878,0.017104,0.010996,-13.98,47.28,-9.78
3.9635,-9.1529,-0.91256,-0.024129,0.000916,0.02138,-14.1,47.4,-9.9
3.9771,-9.1256,-0.91256,-0.010996,-0.010385,0.029016,-14.04,47.52,-10.02
3.9635,-9.0848,-0.96704,-0.014966,-0.019548,0.020769,-13.98,47.58,-10.02
3.8546,-8.9622,-0.99429,-0.026573,-0.010079,0.01741,-14.16,47.76,-9.9
3.9499,-8.9622,-0.95342,-0.018631,0.013439,0.023518,-14.28,47.7,-9.84
3.8954,-8.9622,-0.92618,-0.02474,0.011912,0.031154,-14.22,47.7,-9.9
3.9908,-8.9894,-0.96704,-0.012828,-0.0033598,0.032987,-14.28,47.76,-9.96
4.0725,-9.0848,-0.96704,-0.021075,-0.045815,0.032376,-14.22,47.82,-9.96
3.9908,-9.0303,-0.91256,-0.022297,-0.059559,0.025656,-14.28,47.58,-10.26
3.9499,-9.0303,-0.98067,-0.014966,-0.044899,0.020159,-14.28,47.52,-10.14
3.9771,-9.0303,-0.95342,-0.012523,-0.02474,0.027489,-14.22,47.34,-10.14
3.9227,-9.0575,-0.89894,-0.023824,-0.0281,0.026573,-14.1,47.34,-10.14
4.0044,-9.0575,-0.85808,-0.029627,-0.033292,0.01741,-14.1,47.46,-10.14
3.9635,-9.0439,-0.98067,-0.026267,-0.01405,0.0042761,-14.04,47.4,-10.14
3.9635,-9.0303,-0.92618,-0.021991,-0.0048869,-0.000611,-14.16,47.34,-10.26
3.9635,-8.9486,-1.0624,-0.018021,-0.024129,0.0079412,-14.04,47.34,-10.14
3.9227,-8.9894,-0.99429,-0.01741,-0.058032,0.025962,-13.98,47.4,-10.14
3.7728,-9.0303,-1.0079,-0.012217,-0.061697,0.024129,-13.92,47.28,-10.08
3.8954,-9.0575,-0.99429,-0.026267,-0.048564,0.039401,-13.98,47.16,-10.08
3.9908,-9.0575,-0.92618,-0.03207,-0.035736,0.025962,-14.04,47.22,-10.26
3.8954,-9.0303,-0.89894,-0.03146,-0.038485,0.015272,-14.04,47.28,-10.32
3.9363,-9.0575,-0.96704,-0.029016,-0.036652,0.011301,-14.04,47.22,-10.38
3.8546,-9.0575,-0.96704,-0.017104,-0.036652,0.0088575,-14.22,47.4,-10.26
3.8818,-9.1801,-0.92618,-0.027489,-0.036041,0.0076358,-14.4,47.4,-10.2
3.8954,-9.0439,-0.89894,-0.036346,-0.024129,0.0097738,-14.4,47.34,-10.26
3.8137,-8.9349,-0.84446,-0.025045,-0.030849,0.016188,-14.58,47.22,-10.32
3.7865,-9.0439,-0.99429,-0.01741,-0.041233,0.012217,-14.58,47.22,-10.14
3.8273,-9.0575,-1.0351,-0.021991,-0.04215,0.044899,-14.52,47.16,-10.2
3.9635,-9.1256,-0.96704,0.0067195,-0.047647,0.071471,-14.46,47.04,-10.38
4.127,-9.1529,-1.0215,-0.0027489,-0.03879,0.051007,-14.4,47.04,-10.38
4.1814,-9.0712,-1.0624,-0.035125,-0.043677,0.017104,-14.34,47.16,-10.44
4.0589,-9.0712,-1.1577,-0.058948,-0.040012,-0.007025,-14.4,46.98,-10.32
3.8682,-8.9894,-1.185,-0.069333,-0.025351,-0.0064141,-14.52,46.98,-10.2
3.7184,-8.9213,-1.0624,-0.07422,-0.011606,0.0045815,-14.46,47.1,-10.14
3.7728,-8.9622,-0.89894,-0.094073,-0.0042761,0.009163,-14.46,47.16,-10.2
3.8273,-9.0031,-0.76274,-0.091935,0.000611,0.01069,-14.4,47.16,-10.2
3.8409,-9.0848,-0.68102,-0.063835,0.0067195,0.013744,-14.52,47.22,-10.08
3.8954,-9.0575,-0.69464,-0.057727,0.0064141,0.018326,-14.46,47.1,-10.02
3.8954,-9.0575,-0.69464,-0.015272,-0.015882,0.023518,-14.4,47.1,-10.08
3.7592,-8.9349,-0.85808,-0.000916,-0.01405,0.025351,-14.46,47.22,-10.08
3.7728,-8.9213,-0.88532,0.0058032,-0.0030543,0.034208,-14.58,47.28,-9.96
3.8409,-8.9622,-1.0215,0.0079412,-0.0045815,0.042761,-14.7,47.4,-9.96
3.9227,-8.9894,-1.0624,0.0082467,-0.025962,0.061087,-14.76,47.34,-9.84
3.9363,-9.0031,-1.0215,0.0067195,-0.031765,0.054978,-14.76,47.46,-9.78
3.9908,-9.0984,-1.1169,-0.015882,-0.028711,0.039095,-14.58,47.52,-9.9
4.0725,-9.1256,-1.0215,-0.02474,-0.015882,0.015272,-14.64,47.4,-9.96
3.9771,-9.1256,-1.1713,-0.034514,0.000305,0.0018326,-14.52,47.28,-9.78
3.9363,-9.1256,-1.185,-0.03543,-0.0027489,-0.0051924,-14.46,47.34,-9.9
3.9227,-9.0848,-1.2531,-0.051618,0.0048869,-0.0054978,-14.4,47.28,-9.9
3.8409,-9.0848,-1.1305,-0.072388,-0.007025,-0.0045815,-14.34,47.46,-9.84
3.8001,-9.112,-1.2258,-0.086743,0.013744,-0.011912,-14.34,47.4,-9.84
3.7456,-8.9758,-1.1577,-0.092852,0.025351,-0.013439,-14.4,47.46,-9.84
3.7865,-8.9622,-0.98067,-0.098044,0.013439,-0.0082467,-14.22,47.34,-9.96
3.5822,-9.1529,-1.0215,-0.10599,0.016188,0.011606,-14.28,47.46,-9.9
3.7728,-9.0984,-0.85808,-0.098044,0.018021,0.027794,-14.34,47.46,-9.84
3.7865,-9.0848,-0.83084,-0.051313,0.014661,0.054062,-14.34,47.52,-9.9
3.9908,-9.0303,-0.92618,-0.033292,0.0024435,0.045815,-14.34,47.46,-9.84
3.8954,-9.0031,-0.96704,-0.040623,-0.019853,0.022297,-14.34,47.58,-9.84
3.8682,-8.9077,-0.92618,-0.035125,-0.015272,0.024435,-14.34,47.64,-9.84
3.6911,-8.9077,-0.95342,-0.035125,0.029016,0.01069,-14.28,47.58,-9.78
3.8001,-8.9622,-0.96704,-0.034819,0.020159,0.02138,-14.22,47.52,-9.72
3.7728,-8.9349,-0.91256,-0.030238,0.000916,0.03879,-14.28,47.58,-9.78
3.909,-9.0167,-0.92618,0.016493,-0.058032,0.084299,-14.22,47.64,-9.72
3.8682,-9.0848,-0.96704,0.027794,-0.055589,0.080634,-14.16,47.52,-9.66
3.9908,-9.0712,-1.0624,0.020769,-0.021991,0.065057,-14.16,47.52,-9.72
4.0861,-9.1256,-1.2122,-0.0012217,-0.014966,0.028711,-14.34,47.64,-9.78
4.0044,-9.0712,-1.2122,0.0027489,-0.018326,0.016799,-14.28,47.64,-9.66
3.9499,-9.0712,-1.2258,-0.011301,-0.022297,0.012523,-14.1,47.58,-9.6
3.9363,-9.1665,-1.2803,-0.042455,-0.000305,-0.0076358,-14.16,47.64,-9.72
3.8818,-9.0984,-1.185,-0.064446,0.0054978,-0.0082467,-14.16,47.58,-9.66
3.8273,-9.0984,-1.185,-0.072082,0.0033598,-0.0058032,-14.16,47.58,-9.78
3.8273,-9.112,-1.076,-0.066584,-0.0054978,-0.0045815,-14.22,47.64,-9.78
3.7728,-9.0848,-0.96704,-0.067501,-0.0082467,-0.0054978,-14.22,47.7,-9.78
3.7047,-9.0848,-0.96704,-0.067501,-0.0027489,-0.0079412,-14.28,47.7,-9.66
3.6503,-9.0439,-0.95342,-0.075442,0.021991,-0.01741,-14.34,47.76,-9.48
3.5685,-8.9486,-0.89894,-0.072082,0.039095,-0.012828,-14.22,47.64,-9.54
3.5549,-8.9349,-0.81722,-0.049175,0.037568,0.0088575,-14.34,47.76,-9.54
3.5822,-8.8668,-0.7355,-0.014355,0.011606,0.045509,-14.34,47.82,-9.6
3.7456,-8.9349,-0.8036,0.010996,-0.0030543,0.057727,-14.28,47.76,-9.66
3.7728,-9.1665,-0.78998,0.03543,-0.036957,0.075136,-14.34,47.76,-10.02
3.8682,-9.1393,-0.92618,0.036041,-0.04612,0.092546,-14.28,47.76,-9.9
3.9227,-9.1256,-1.0488,0.043066,-0.013439,0.097128,-14.16,47.76,-9.96
4.1814,-9.1256,-1.2531,0.035125,0.01405,0.054367,-14.22,47.82,-10.08
4.1814,-9.1256,-1.2667,-0.000611,0.000611,-0.022907,-14.04,47.82,-10.2
3.8682,-9.0575,-1.2803,-0.037263,0.0033598,-0.031765,-13.98,47.82,-10.2
3.8137,-8.9622,-1.3076,-0.051007,0.025045,-0.040928,-13.92,47.88,-10.26
3.8546,-9.0712,-1.185,-0.055894,0.025351,-0.021991,-13.8,47.76,-10.44
3.8273,-9.0575,-1.185,-0.074831,0.0064141,-0.014661,-13.8,47.82,-10.38
3.732,-9.0984,-1.0488,-0.08491,-0.01741,-0.0064141,-13.8,47.76,-10.44
3.6775,-9.1256,-0.91256,-0.067195,-0.009163,-0.0073304,-13.74,47.7,-10.44
3.7728,-9.1529,-0.85808,-0.05284,0.015577,-0.010996,-13.8,47.58,-10.32
3.6775,-9.1256,-0.96704,-0.058643,0.016493,-0.0033598,-13.86,47.64,-10.14
3.6639,-9.0167,-0.99429,-0.055894,0.019242,-0.0067195,-13.8,47.64,-10.26
3.6094,-8.9349,-0.99429,-0.055283,0.033903,0.0048869,-13.8,47.64,-10.26
3.6366,-8.9213,-0.91256,-0.036652,0.028711,0.033903,-13.74,47.76,-10.14
3.7047,-8.9622,-0.84446,-0.0064141,0.0030543,0.065973,-13.92,47.82,-10.08
3.7728,-8.9894,-0.96704,0.0045815,-0.022297,0.081856,-14.1,47.82,-10.26
3.9227,-9.0848,-0.95342,0.0058032,-0.000916,0.063835,-14.04,47.76,-10.26
4.0589,-9.0712,-1.0215,0.000611,0.0048869,0.053145,-14.1,47.88,-10.32
4.0589,-9.1937,-1.1169,-0.000916,0.0073304,0.034208,-14.04,48.0,-10.44
4.0044,-9.1529,-1.1169,-0.02474,0.0030543,0.0058032,-14.1,48.06,-10.56
3.8818,-9.0848,-1.0896,-0.051618,0.021991,-0.032987,-14.1,48.18,-10.56
3.8001,-9.0303,-1.1577,-0.06689,0.050396,-0.03146,-13.92,48.18,-10.56
3.7456,-9.0303,-0.96704,-0.068111,0.047953,-0.024435,-13.8,48.18,-10.74
3.7728,-8.9486,-0.92618,-0.057421,0.022907,0.0067195,-13.98,48.12,-10.68
3.7592,-8.9077,-0.98067,-0.043066,-0.0079412,0.0015272,-14.04,48.18,-10.62
3.5685,-8.9894,-0.8717,-0.050396,0.0051924,-0.0027489,-14.16,48.0,-10.56
3.5549,-9.0848,-0.8036,-0.058948,0.027794,0.010079,-14.16,47.76,-10.62
3.7728,-9.1393,-0.6674,-0.017104,0.044593,0.043066,-14.22,47.76,-10.5
3.8954,-9.0712,-0.84446,0.025351,0.025045,0.065973,-14.28,47.7,-10.5
4.0044,-9.0303,-0.92618,0.045204,-0.021686,0.057116,-14.22,47.52,-10.26
3.9363,-9.0303,-1.0896,0.032681,-0.035125,0.029322,-14.28,47.4,-10.2
3.8682,-9.0303,-1.2258,0.013744,-0.017715,0.02138,-14.22,47.28,-10.14
3.9227,-8.9758,-1.2531,0.0085521,0.0042761,0.018631,-14.16,47.16,-10.08
4.018,-9.0848,-1.1713,-0.020464,0.0067195,0.022602,-14.28,47.04,-9.96
4.1814,-9.1529,-1.1986,-0.033903,-0.040623,0.013439,-14.28,47.16,-9.84
4.1406,-9.1256,-1.1441,-0.046731,-0.047037,-0.0094684,-14.28,47.1,-9.84
3.9363,-9.2755,-1.0896,-0.047037,-0.022602,-0.032987,-14.28,47.16,-9.72
3.9908,-9.1801,-1.0896,-0.06353,-0.000305,-0.053451,-14.28,47.22,-9.78
3.8273,-9.0848,-1.0896,-0.079412,0.0079412,-0.061697,-14.22,47.28,-9.72
3.732,-9.0303,-1.0351,-0.091935,-0.021075,-0.038485,-14.16,47.1,-9.84
3.6366,-8.9622,-0.96704,-0.072998,-0.021686,-0.034208,-14.1,47.1,-9.9
3.6366,-8.9622,-0.89894,-0.076969,-0.012217,-0.021991,-14.22,47.28,-10.02
3.6094,-8.9622,-0.83084,-0.085521,-0.0012217,-0.015882,-14.22,47.28,-10.02
3.5958,-8.9758,-0.72188,-0.044899,-0.000305,0.0045815,-14.22,47.22,-9.96
3.6911,-9.0031,-0.65378,-0.0097738,-0.026267,0.041539,-14.4,47.22,-10.02
3.7456,-9.1256,-0.76274,0.0067195,-0.054978,0.060476,-14.46,47.34,-10.02
3.8682,-9.1801,-0.85808,0.010385,-0.018631,0.057116,-14.58,47.4,-10.02
3.8682,-9.112,-0.95342,0.0039706,0.011606,0.02474,-14.52,47.46,-10.02
3.8682,-9.0984,-0.96704,-0.010996,0.030238,0.02138,-14.4,47.34,-10.2
3.7184,-9.0031,-1.0079,-0.043066,0.05681,-0.0045815,-14.52,47.22,-10.14
3.7728,-9.0031,-0.95342,-0.048869,0.06017,0.002138,-14.64,47.28,-10.14
3.7047,-8.9622,-0.9398,-0.054672,0.052534,0.025656,-14.82,47.28,-10.14
3.8682,-8.9622,-0.99429,-0.025962,0.023824,0.051007,-14.88,47.4,-10.02
3.8682,-9.1529,-1.0079,-0.0061087,-0.0073304,0.04612,-14.88,47.4,-9.96
3.8682,-9.1529,-1.0624,-0.031765,0.0073304,0.041844,-14.88,47.4,-9.96
3.9227,-9.0712,-0.99429,-0.033598,0.044288,0.04948,-15.0,47.4,-10.08
4.0452,-9.0303,-0.92618,-0.0079412,0.039401,0.044593,-15.0,47.46,-10.08
4.0997,-9.0031,-1.0215,-0.03207,0.0061087,0.027184,-14.82,47.46,-10.14
3.9635,-8.9622,-1.0079,-0.040928,0.0039706,0.0030543,-14.7,47.4,-10.08
3.8273,-8.9349,-0.96704,-0.047037,0.020464,0.0048869,-14.76,47.34,-10.08
3.8954,-8.9486,-0.92618,-0.044899,0.032376,0.0058032,-14.58,47.4,-9.9
3.8818,-9.0167,-0.89894,-0.04215,0.0088575,-0.0042761,-14.7,47.52,-9.9
3.8818,-9.0031,-0.92618,-0.036346,-0.0076358,0.0018326,-14.64,47.46,-9.96
3.7047,-9.0439,-0.89894,-0.025045,-0.0058032,0.0073304,-14.46,47.64,-9.9
3.8273,-9.0575,-0.81722,-0.014661,0.014355,0.000916,-14.34,47.52,-9.96
3.8682,-9.0848,-0.8717,-0.010079,0.036346,-0.015577,-14.34,47.4,-10.02
3.732,-9.1393,-1.0624,-0.03879,0.031765,-0.010385,-14.22,47.34,-9.96
3.8137,-9.1256,-1.0624,-0.042455,0.018326,0.0033598,-14.28,47.28,-9.96
3.8001,-9.0303,-1.0624,-0.039706,0.035125,0.0027489,-14.22,47.28,-9.84
3.8273,-9.0848,-1.0896,-0.039401,0.035736,0.000611,-14.16,47.22,-9.66
3.8682,-9.0303,-1.0896,-0.040317,0.02138,0.007025,-14.22,47.28,-9.84
3.8818,-9.0167,-1.0351,-0.039095,0.018021,0.0061087,-14.16,47.46,-9.84
3.9363,-8.9894,-0.99429,-0.043677,0.015577,0.0051924,-14.28,47.34,-9.96
3.8954,-9.0031,-0.96704,-0.054978,0.015882,0.002138,-14.22,47.28,-9.9
3.8682,-9.0031,-0.89894,-0.043677,0.024435,0.0042761,-14.16,47.28,-9.96
3.8954,-9.0303,-0.76274,-0.047647,0.029322,-0.0036652,-14.22,47.16,-10.02
3.9363,-9.0439,-0.74912,-0.053145,0.033292,-0.0064141,-14.1,47.22,-10.02
3.8954,-9.0167,-0.81722,-0.053451,0.025045,-0.011301,-14.04,47.28,-10.08
3.8273,-9.0848,-0.77636,-0.04612,0.029932,-0.0033598,-14.16,47.28,-9.96
3.8273,-9.0575,-0.83084,-0.046426,0.041539,0.0045815,-13.98,47.34,-10.08
3.8273,-9.0031,-0.91256,-0.025656,0.0281,0.0030543,-13.86,47.46,-10.02
3.8954,-9.1529,-0.99429,-0.035736,0.018326,0.014355,-14.04,47.64,-10.26
3.8137,-9.1937,-0.99429,-0.043982,0.021686,0.023518,-13.98,47.64,-10.26
4.0316,-9.1937,-1.0215,-0.036652,0.024129,0.023824,-13.92,47.58,-10.26
4.127,-9.1937,-1.0215,-0.039401,0.039401,0.025656,-13.98,47.4,-10.32
4.0316,-9.0575,-1.0351,-0.044288,-0.000916,0.010079,-13.92,47.46,-10.26
3.9635,-9.0303,-0.99429,-0.029932,-0.013134,0.0012217,-13.92,47.52,-10.14
3.8273,-8.9758,-1.0624,-0.029322,0.0073304,0.015272,-13.98,47.52,-10.08
3.8546,-9.0031,-1.0079,-0.040317,0.023518,0.022602,-13.98,47.52,-10.2
3.9635,-9.0575,-0.88532,-0.050702,0.022602,0.0281,-13.98,47.46,-9.96
4.0316,-9.0712,-0.81722,-0.05681,-0.000611,0.015577,-13.98,47.46,-9.96
3.9635,-9.0439,-0.92618,-0.045509,-0.021991,0.018326,-13.86,47.46,-9.96
3.9499,-8.9894,-0.91256,-0.055283,-0.026573,0.011606,-13.86,47.52,-9.9
3.8273,-9.0167,-0.92618,-0.058643,-0.0097738,-0.0024435,-13.74,47.52,-9.72
3.909,-9.0303,-0.96704,-0.071777,0.038179,-0.0045815,-13.74,47.46,-9.72
3.9499,-9.0439,-1.0351,-0.072693,0.045815,-0.0073304,-13.68,47.34,-9.78
4.0589,-9.0848,-1.0624,-0.084605,0.033292,-0.0015272,-13.74,47.4,-9.78
4.0044,-9.0575,-0.96704,-0.091935,0.018021,-0.011301,-13.74,47.46,-9.84
3.9771,-9.0303,-0.9398,-0.088575,-0.0024435,-0.020769,-13.92,47.52,-9.96
3.7184,-8.9894,-0.9398,-0.074526,0.022907,-0.014355,-13.92,47.52,-9.96
3.7592,-8.8941,-0.89894,-0.064141,0.030238,-0.010079,-14.04,47.46,-9.96
3.8546,-8.9758,-0.92618,-0.046426,0.0024435,0.031765,-13.98,47.52,-9.96
3.8273,-8.9622,-0.91256,-0.042761,-0.0076358,0.042455,-14.04,47.7,-9.78
3.8954,-8.9622,-0.92618,-0.022907,-0.0067195,0.048564,-14.28,47.7,-9.72
3.9227,-9.0031,-0.91256,-0.010079,0.011606,0.029932,-14.34,47.64,-9.84
3.9635,-8.9622,-0.96704,-0.011301,0.025962,0.021686,-14.46,47.4,-9.78
3.9635,-9.0031,-0.99429,-0.010079,0.022907,0.020769,-14.64,47.46,-9.72
3.9908,-8.9486,-1.0896,-0.016799,0.0030543,0.03543,-14.64,47.52,-9.6
3.9227,-8.9622,-1.0896,-0.014355,-0.0045815,0.036041,-14.64,47.58,-9.54
3.9227,-9.0439,-1.0896,-0.029627,-0.0033598,0.03207,-14.64,47.46,-9.6
3.9908,-9.0848,-1.076,-0.051007,0.019548,0.038179,-14.52,47.4,-9.66
4.1133,-9.1256,-1.0896,-0.033598,0.010385,0.045509,-14.58,47.58,-9.66
4.1542,-9.0848,-1.1305,-0.01741,0.0085521,0.026267,-14.52,47.76,-9.48
4.304,-9.0439,-1.1441,-0.038485,-0.0067195,-0.0085521,-14.52,47.82,-9.48
4.0316,-9.0167,-1.185,-0.062003,-0.027489,-0.01069,-14.46,47.52,-9.84
3.9363,-8.9486,-1.1305,-0.07758,-0.021991,0.000305,-14.34,47.4,-9.84
3.8954,-8.9349,-1.0488,-0.07422,-0.015882,0.0064141,-14.4,47.4,-9.78
3.9908,-8.9486,-0.96704,-0.078191,-0.007025,0.007025,-14.28,47.58,-9.78
4.0589,-9.0439,-0.91256,-0.085827,-0.019242,0.010385,-14.28,47.64,-9.84
4.0316,-9.0575,-0.8036,-0.047953,-0.023518,0.0058032,-14.4,47.58,-9.84
3.8409,-9.0031,-0.89894,-0.03146,-0.015577,-0.013439,-14.34,47.7,-9.78
3.909,-8.9894,-0.92618,-0.020464,-0.0082467,-0.011912,-14.28,47.7,-9.78
3.8682,-8.9349,-0.88532,-0.023518,-0.0097738,-0.0033598,-14.28,47.7,-9.66
3.8954,-8.9622,-1.0079,-0.02138,-0.018326,0.0018326,-14.22,47.58,-9.84
3.7865,-8.9758,-1.0896,-0.023824,-0.015882,0.019548,-14.16,47.52,-9.9
3.8137,-8.9758,-1.0488,-0.016799,-0.016493,0.030543,-14.22,47.58,-9.84
3.8954,-9.0031,-1.0079,-0.0094684,-0.025351,0.031765,-14.34,47.7,-9.66
3.9635,-9.0575,-1.076,-0.029016,-0.034819,0.036041,-14.28,47.82,-9.6
3.9363,-9.0848,-1.0896,-0.026267,-0.033903,0.032681,-14.22,47.88,-9.54
3.9227,-9.1256,-1.1169,-0.031765,-0.0039706,0.018326,-14.1,47.94,-9.42
3.909,-9.0712,-1.1169,-0.039706,0.0079412,0.021075,-13.86,47.88,-9.6
3.9227,-8.9758,-1.0896,-0.043677,-0.0024435,0.029932,-13.98,47.94,-9.6
3.9227,-9.0303,-1.185,-0.047037,-0.01405,0.027489,-13.98,47.94,-9.54
3.9635,-9.0439,-1.1169,-0.054978,-0.021991,0.034819,-14.04,48.12,-9.6
3.9635,-8.9894,-1.076,-0.05284,-0.021991,0.029627,-13.98,48.06,-9.54
3.8818,-8.9758,-1.0624,-0.036346,-0.03146,0.025656,-14.1,48.06,-9.3
3.8001,-9.0167,-1.0215,-0.043982,-0.017715,0.022907,-14.1,47.88,-9.36
3.9635,-9.112,-1.0624,-0.033292,-0.0067195,0.047953,-14.1,47.94,-9.54
4.0589,-9.0167,-1.076,-0.020159,-0.0088575,0.047647,-14.04,47.82,-9.54
4.0861,-8.9349,-1.0624,-0.038179,-0.0027489,0.0039706,-14.16,47.82,-9.54
4.0452,-8.9486,-1.1713,-0.051007,-0.0051924,-0.028405,-14.28,47.7,-9.54
3.8137,-8.8941,-1.1032,-0.060476,0.0015272,-0.018021,-14.46,47.58,-9.72
3.8273,-8.9213,-1.0624,-0.053451,0.009163,0.0058032,-14.64,47.58,-9.66
3.8818,-9.0031,-0.99429,-0.043982,-0.014966,0.019548,-14.58,47.46,-9.66
3.9227,-9.0712,-0.99429,-0.048564,-0.02138,0.022297,-14.52,47.58,-9.78
3.9771,-9.0575,-1.0215,-0.03146,-0.014661,0.0088575,-14.52,47.46,-9.66
3.8954,-9.0848,-0.99429,-0.030543,0.0042761,0.0033598,-14.7,47.52,-9.6
3.8954,-9.0575,-1.1169,-0.022602,0.034208,-0.013439,-14.58,47.4,-9.6
3.8409,-8.9894,-1.0896,-0.030543,0.029322,-0.002138,-14.58,47.46,-9.6
3.8001,-8.9894,-1.1305,-0.029016,0.012828,0.011606,-14.58,47.4,-9.54
3.8409,-8.9622,-1.0896,-0.030849,0.013744,0.026573,-14.58,47.4,-9.54
3.8273,-8.9894,-1.1577,-0.03146,0.017104,0.027489,-14.58,47.34,-9.66
3.9227,-8.9894,-1.185,-0.034514,0.01741,0.038179,-14.46,47.52,-9.78
3.9908,-9.0439,-1.1441,-0.044593,0.0036652,0.030543,-14.46,47.52,-9.66
4.0452,-9.0303,-1.0624,-0.046731,0.0051924,0.021686,-14.46,47.52,-9.66
3.9635,-9.0848,-1.1441,-0.055894,0.009163,0.0085521,-14.28,47.64,-9.66
3.9227,-8.9894,-1.1305,-0.049786,0.028405,-0.0088575,-14.34,47.46,-9.72
3.9499,-8.9758,-1.1169,-0.054062,0.021991,0.0030543,-14.28,47.58,-9.9
3.8682,-8.9486,-1.0624,-0.04215,0.011301,-0.000916,-14.22,47.58,-9.96
3.8954,-8.9758,-0.96704,-0.032987,-0.002138,0.010079,-14.16,47.7,-10.02
3.8954,-9.0303,-0.99429,-0.034514,-0.0088575,0.011301,-13.98,47.82,-10.08
3.8818,-9.0031,-1.0488,-0.021991,-0.014355,0.011912,-13.86,47.94,-10.02
3.7184,-9.0575,-1.0896,-0.037263,-0.000305,0.012523,-13.92,47.94,-9.96
3.8682,-9.0848,-1.0488,-0.037874,0.009163,0.040928,-13.92,48.0,-9.9
4.018,-9.112,-1.0624,-0.012217,0.0024435,0.059865,-14.04,47.88,-9.78
4.1133,-9.0712,-1.0896,-0.0061087,0.017104,0.043982,-13.98,48.0,-9.72
4.1542,-9.0303,-1.185,-0.029322,0.024435,0.021075,-13.92,47.94,-9.84
3.9771,-8.9213,-1.1305,-0.047647,0.012523,-0.025045,-14.16,48.0,-9.78
3.7865,-8.826,-1.1713,-0.036652,0.013744,0.0067195,-14.1,47.94,-9.72
3.8137,-8.9486,-1.1441,-0.027489,-0.0076358,0.025351,-14.16,47.88,-9.6
3.8546,-8.9894,-1.1169,-0.037263,-0.027184,0.038179,-14.22,47.82,-9.66
3.9227,-9.0303,-1.0079,-0.040317,-0.034514,0.040623,-14.22,47.88,-9.66
3.9908,-9.1529,-1.1032,-0.03146,-0.013439,0.026878,-14.4,47.82,-9.48
3.9635,-9.1393,-0.98067,-0.032376,0.01741,0.0039706,-14.4,47.7,-9.48
3.8954,-9.0167,-1.076,-0.034819,0.024435,-0.011301,-14.46,47.7,-9.42
3.8137,-8.9894,-1.185,-0.044899,0.020769,0.000611,-14.4,47.94,-9.48
3.8682,-8.9622,-1.1305,-0.051924,0.018021,0.0061087,-14.22,47.94,-9.42
3.8546,-8.9894,-1.0624,-0.054672,0.020159,0.010385,-14.22,47.88,-9.42
3.9499,-8.9213,-1.0488,-0.036346,0.010079,0.021075,-14.28,47.88,-9.48
3.9635,-8.9213,-1.0624,-0.027489,0.000305,0.022297,-14.28,47.88,-9.48
4.0589,-8.9894,-0.99429,-0.036041,-0.01069,0.011912,-14.04,47.88,-9.54
3.9635,-9.0303,-1.0896,-0.020769,-0.013439,0.013134,-14.1,47.88,-9.54
4.018,-9.0439,-1.076,-0.015577,-0.016799,0.012828,-13.98,48.0,-9.48
4.0044,-9.0303,-1.0896,-0.016799,-0.01405,0.015577,-13.98,48.0,-9.48
3.9635,-9.0167,-1.0896,-0.025045,0.014661,-0.0088575,-14.04,47.82,-9.48
3.9908,-9.0031,-1.1169,-0.036041,0.021991,-0.01741,-14.16,47.88,-9.66
3.9499,-9.0439,-1.1305,-0.046731,0.027489,-0.03207,-14.22,47.82,-9.72
3.8682,-8.9758,-1.1577,-0.058643,0.021075,-0.020464,-14.34,47.82,-9.9
3.8682,-8.8941,-1.1305,-0.048869,0.020464,-0.012828,-14.4,47.88,-9.96
3.8273,-9.0167,-1.0624,-0.054978,0.0097738,0.0030543,-14.46,47.82,-9.78
3.9363,-9.0712,-1.0351,-0.040928,-0.020464,0.025656,-14.46,47.76,-9.66
4.0316,-9.0303,-1.0351,-0.0085521,-0.043677,0.050702,-14.4,47.58,-9.72
4.0997,-8.9894,-1.0488,0.0036652,-0.048564,0.036346,-14.58,47.7,-9.6
3.8954,-8.9213,-1.1169,-0.018021,-0.026267,0.0012217,-14.64,47.82,-9.78
3.8273,-8.9349,-1.0624,-0.031154,0.01405,-0.023213,-14.7,47.76,-9.96
3.8682,-8.8532,-1.0896,-0.028405,0.029932,-0.0024435,-14.7,47.76,-9.84
3.9908,-8.9077,-1.0896,-0.019242,-0.02138,0.029322,-14.7,47.82,-9.78
3.9635,-8.9622,-0.96704,-0.029016,-0.043066,0.023518,-14.64,47.64,-9.72
3.8954,-9.0575,-0.99429,-0.04215,-0.029932,0.019853,-14.76,47.58,-9.6
3.8001,-9.0575,-0.88532,-0.025351,0.011912,0.013439,-14.52,47.64,-9.54
3.8001,-9.0575,-0.88532,-0.025351,0.011912,0.013439,-14.52,47.64,-9.54
3.9908,-9.0575,-0.99429,-0.0082467,0.0281,0.021991,-14.52,47.76,-9.48
3.9499,-9.0303,-1.0351,0.0018326,0.002138,0.029322,-14.28,47.82,-9.66
3.9363,-8.9622,-1.1169,0.0030543,0.0024435,0.029322,-14.28,47.88,-9.54
3.9635,-8.9758,-1.1713,0.0012217,0.0079412,0.022907,-14.04,47.88,-9.3
3.9227,-8.9622,-1.185,-0.0094684,0.0033598,0.025656,-14.04,47.64,-9.3
3.9635,-9.0439,-1.1169,-0.029627,0.015272,0.018021,-13.8,47.64,-9.12
3.9635,-9.0303,-1.1441,-0.032987,0.022602,0.021991,-13.74,47.88,-9.3
4.0861,-9.0167,-1.0624,-0.030238,0.013439,0.019242,-13.5,47.94,-9.42
4.1678,-9.0848,-1.0488,-0.03146,0.0036652,0.025962,-13.62,47.7,-9.36
4.0044,-9.0167,-0.9398,-0.023518,-0.0012217,0.013439,-13.68,47.46,-9.3
3.9635,-8.9077,-1.1577,-0.024435,-0.0073304,0.016493,-13.86,47.64,-9.18
3.9635,-9.0167,-1.0624,-0.025045,-0.0054978,0.01741,-13.8,47.46,-9.3
3.9499,-9.0031,-1.0215,-0.038179,0.012217,0.013744,-13.8,47.4,-9.42
3.9635,-8.8941,-1.0624,-0.03207,0.025656,0.0076358,-13.8,47.46,-9.3
3.9363,-8.9622,-1.0215,-0.03543,0.031154,-0.0018326,-13.92,47.34,-9.42
3.9227,-9.0712,-0.85808,-0.043677,0.028405,-0.0015272,-13.86,47.16,-9.48
3.9635,-8.9894,-0.85808,-0.038179,0.020464,0.021075,-13.92,47.22,-9.24
4.0725,-8.8941,-0.8717,0.0085521,-0.009163,0.036346,-13.86,47.28,-9.3
4.0316,-8.9622,-1.0624,0.011912,-0.02138,0.025351,-13.8,47.34,-9.3
4.0316,-8.9622,-1.0351,-0.0039706,-0.010996,0.0054978,-13.92,47.28,-9.24
3.9908,-9.0439,-1.0215,-0.016799,0.013744,0.0012217,-13.86,47.34,-9.42
3.9908,-8.9349,-1.0215,-0.017715,0.022297,0.0058032,-13.98,47.16,-9.54
4.0044,-8.9349,-0.96704,-0.016799,-0.0012217,0.0058032,-14.04,47.16,-9.48
4.018,-8.9213,-1.0079,-0.017715,-0.017715,-0.000305,-14.1,47.16,-9.42
3.9635,-8.9622,-0.96704,-0.011606,-0.0085521,-0.000611,-14.16,47.22,-9.66
3.8954,-9.0167,-0.92618,-0.011301,0.012523,0.002138,-14.1,47.28,-9.72
3.9499,-9.0712,-1.0624,-0.0097738,0.015577,0.0085521,-14.22,47.34,-9.78
3.9635,-9.0712,-1.1169,-0.020159,-0.0082467,0.019242,-14.28,47.52,-9.9
3.9908,-9.1256,-1.185,-0.020464,0.0048869,0.015577,-14.04,47.58,-9.96
3.9908,-9.0712,-1.2803,-0.022297,0.013744,0.0058032,-13.92,47.58,-9.9
3.8954,-9.0984,-1.1305,-0.029627,-0.013744,0.0061087,-13.86,47.58,-9.84
3.8954,-8.9213,-1.0624,-0.031765,-0.030543,0.015272,-13.92,47.76,-9.78
3.9227,-8.9486,-1.0351,-0.035125,-0.015577,0.028711,-13.74,47.88,-9.78
4.0589,-8.9894,-0.99429,-0.04215,-0.013439,0.035125,-13.68,47.94,-9.66
4.1406,-9.0575,-0.89894,-0.038179,-0.032681,0.033292,-13.86,48.0,-9.6
4.0861,-9.0575,-0.92618,-0.020464,-0.045509,0.020159,-13.8,47.88,-9.54
4.0452,-9.0439,-0.9398,-0.013439,-0.065057,0.0067195,-13.86,47.76,-9.6
3.9635,-8.9894,-1.0351,-0.013134,-0.066279,0.0076358,-13.86,47.52,-9.6
3.8682,-8.9622,-1.1032,-0.027794,-0.053451,0.0061087,-13.86,47.46,-9.6
3.8001,-8.9486,-1.1032,-0.059865,-0.0073304,0.0015272,-14.04,47.22,-9.6
4.0044,-8.9213,-0.95342,-0.051924,0.0048869,0.0067195,-14.28,47.1,-9.6
3.9499,-8.9894,-0.89894,-0.047037,-0.019853,0.013744,-14.28,47.16,-9.72
3.9771,-9.0575,-0.81722,-0.049175,-0.03879,0.023518,-14.34,47.04,-9.96
3.9635,-9.112,-0.9398,-0.013744,-0.039401,0.049175,-14.4,46.92,-9.9
4.018,-9.0439,-0.98067,0.010079,-0.036346,0.045509,-14.4,46.8,-10.02
4.0997,-9.0303,-1.1169,-0.0048869,-0.037874,0.031154,-14.46,46.92,-10.14
3.8682,-9.0167,-1.1577,-0.027794,-0.047037,0.0079412,-14.46,46.92,-10.08
3.8273,-8.8941,-1.1577,-0.048258,-0.034208,0.0045815,-14.52,47.1,-10.08
3.8818,-8.8805,-1.0624,-0.057116,-0.012828,0.018937,-14.64,47.04,-10.08
3.8546,-8.9486,-0.99429,-0.063835,-0.01405,0.025351,-14.46,47.22,-10.02
3.8954,-8.9894,-0.88532,-0.053756,-0.042455,0.037263,-14.28,47.22,-9.78
3.8954,-9.1256,-0.92618,-0.035736,-0.044899,0.043982,-14.22,47.58,-9.6
3.9771,-9.1393,-0.99429,-0.029627,-0.040012,0.030849,-14.22,47.58,-9.54
4.0316,-9.0984,-0.96704,-0.026878,-0.034208,0.025351,-14.34,47.46,-9.48
3.909,-9.0167,-1.0215,-0.027489,-0.030543,0.0079412,-14.22,47.4,-9.48
3.8137,-9.0031,-0.99429,-0.046426,-0.000916,0.0079412,-14.1,47.46,-9.36
3.8001,-8.8805,-1.076,-0.038179,0.009163,0.014966,-14.1,47.4,-9.6
3.8001,-8.8668,-1.0215,-0.044593,0.0024435,0.022297,-14.1,47.34,-9.48
3.8682,-8.9486,-1.0215,-0.046426,-0.019242,0.041539,-14.22,47.22,-9.3
3.9363,-9.0031,-1.0215,-0.039095,-0.036957,0.044288,-14.22,47.22,-9.48
3.9635,-9.0712,-0.99429,-0.026267,-0.029322,0.045204,-14.28,47.04,-9.72
4.0452,-9.0848,-1.0079,-0.023824,-0.022907,0.031765,-14.16,46.92,-9.54
4.018,-9.112,-0.96704,-0.026878,-0.018021,0.026878,-14.22,47.04,-9.66
3.8954,-8.9486,-0.91256,-0.03543,-0.009163,0.015577,-14.28,47.1,-9.6
3.8001,-8.9622,-1.0488,-0.025962,-0.0064141,0.0082467,-14.4,47.1,-9.6
3.9363,-8.9758,-1.0351,-0.023213,-0.0030543,0.012523,-14.52,46.98,-9.54
3.9499,-8.9758,-1.0624,-0.036957,-0.0048869,0.013439,-14.52,47.04,-9.66
3.8409,-8.9349,-1.0624,-0.022297,-0.021075,0.013134,-14.52,47.04,-9.9
3.7456,-9.0575,-1.076,-0.039095,-0.017715,0.010079,-14.46,47.1,-9.9
3.8137,-9.1256,-1.0624,-0.046731,0.000611,0.025351,-14.46,47.16,-9.84
3.9635,-9.0575,-0.99429,-0.019548,0.0042761,0.047342,-14.34,47.46,-9.78
4.0589,-9.0031,-1.0351,-0.018021,0.011301,0.04215,-14.34,47.28,-9.72
4.0589,-9.0439,-1.185,-0.026878,-0.0018326,0.012217,-14.1,47.16,-9.78
3.8818,-8.9486,-1.1169,-0.036652,-0.016799,-0.0015272,-13.92,47.28,-9.84
3.7047,-8.8805,-1.0624,-0.036041,-0.011606,0.016188,-13.86,47.4,-9.78
3.732,-9.0167,-1.0351,-0.041844,-0.000305,0.019242,-13.86,47.52,-9.9
3.8682,-8.9349,-1.0624,-0.051618,-0.0079412,0.033598,-13.86,47.64,-9.78
3.9499,-9.0575,-0.91256,-0.043066,-0.012828,0.035736,-13.8,47.58,-9.78
3.9771,-9.0303,-0.91256,-0.037263,-0.0097738,0.025351,-13.62,47.58,-9.78
3.9635,-9.0303,-0.96704,-0.025656,0.007025,0.010996,-13.62,47.46,-9.9
3.8409,-9.0167,-1.0215,-0.031765,0.028405,-0.0036652,-13.74,47.4,-10.08
3.8409,-9.0031,-1.0488,-0.0281,0.027794,-0.000611,-13.74,47.4,-9.96
3.8409,-8.9486,-1.0896,-0.019548,0.017104,0.0039706,-13.86,47.4,-9.96
3.8001,-8.9486,-1.2258,-0.020159,0.009163,0.013744,-13.86,47.46,-9.9
3.9227,-8.9622,-1.0624,-0.02138,0.0036652,0.026267,-13.86,47.4,-9.9
3.9499,-9.0167,-1.0624,-0.020769,-0.0067195,0.019242,-13.98,47.46,-9.84
3.8273,-9.0439,-1.0351,-0.025656,-0.0015272,0.013134,-13.98,47.46,-9.84
3.8682,-9.0712,-1.0624,-0.01741,0.0097738,0.01069,-14.1,47.46,-9.84
3.8682,-9.0848,-1.1169,-0.030238,0.0094684,0.0094684,-14.28,47.64,-9.66
3.8818,-9.0712,-1.1169,-0.026267,0.010385,0.0058032,-14.28,47.7,-9.72
3.8954,-9.0031,-1.1169,-0.036346,0.0073304,0.007025,-14.22,47.64,-9.84
3.8546,-9.0167,-1.1577,-0.036652,0.016188,0.0088575,-14.1,47.64,-9.66
3.8954,-9.0575,-1.1169,-0.040012,0.027794,0.0064141,-14.22,47.58,-9.66
3.8273,-8.9894,-1.1305,-0.055894,0.021991,0.0064141,-14.28,47.52,-9.84
3.8137,-8.9349,-1.0624,-0.050091,0.015882,-0.002138,-14.22,47.4,-9.72
3.7456,-9.0575,-0.92618,-0.069639,0.023824,0.0067195,-14.34,47.4,-9.84
3.8682,-9.0848,-0.91256,-0.071471,0.041844,0.024129,-14.16,47.46,-9.6
4.0861,-9.0984,-0.91256,-0.034819,0.033292,0.048258,-14.22,47.4,-9.54
4.0589,-9.0984,-0.9398,-0.021075,0.016493,0.033292,-14.16,47.46,-9.48
3.9227,-8.9894,-1.0079,-0.029322,-0.021075,0.014355,-14.1,47.52,-9.48
3.8818,-8.9486,-0.96704,-0.044899,0.01069,-0.0036652,-14.22,47.58,-9.48
3.8001,-8.8941,-1.0079,-0.06017,0.047342,-0.012523,-14.1,47.64,-9.48
3.8137,-8.8941,-0.95342,-0.060781,0.071777,-0.0015272,-13.92,47.7,-9.66
3.8818,-8.8941,-0.85808,-0.065973,0.053756,0.007025,-13.92,47.82,-9.66
3.8682,-8.9213,-0.8036,-0.049175,0.0281,0.020159,-13.74,47.88,-9.84
3.9635,-9.0848,-0.8036,-0.0027489,0.027489,0.016493,-13.68,47.7,-9.84
3.9771,-9.0575,-0.83084,0.013744,0.026573,0.010079,-13.8,47.7,-10.02
3.9363,-9.0303,-0.96704,0.018021,0.015577,0.012523,-13.8,47.58,-9.96
3.9635,-8.9622,-0.99429,0.029627,0.0058032,0.022907,-13.86,47.58,-9.96
3.9227,-8.9486,-1.1032,0.028711,-0.0018326,0.023824,-13.86,47.52,-9.78
3.8954,-8.9894,-1.185,0.019242,0.0073304,0.021075,-13.98,47.46,-9.9
3.909,-8.9349,-1.2258,0.002138,0.010385,0.025351,-14.04,47.58,-9.9
4.0044,-8.8805,-1.1577,-0.017715,0.010996,0.021075,-14.04,47.4,-9.78
4.0589,-9.0303,-1.0624,-0.023518,-0.000611,0.016188,-14.1,47.4,-9.78
4.018,-9.0303,-0.99429,-0.022907,-0.0076358,0.012217,-14.22,47.34,-9.72
4.0452,-9.112,-1.1713,-0.032987,-0.0042761,-0.000611,-14.22,47.4,-9.78
4.018,-9.0848,-1.0624,-0.033598,0.000916,-0.016493,-14.34,47.4,-9.66
3.9499,-9.0848,-1.1169,-0.041844,0.015577,-0.024435,-14.28,47.34,-9.72
3.8954,-9.0575,-1.0624,-0.058948,0.013439,-0.021686,-14.28,47.28,-9.6
3.8001,-9.0575,-0.98067,-0.076664,0.021991,-0.01069,-14.4,47.34,-9.66
3.7456,-8.9486,-0.83084,-0.071471,0.03146,-0.0076358,-14.4,47.22,-9.66
3.7865,-8.8532,-0.74912,-0.045509,0.023824,0.009163,-14.52,47.22,-9.96
3.732,-8.9622,-0.81722,-0.010385,-0.0073304,0.020769,-14.58,47.22,-9.9
3.7456,-8.9894,-0.8717,0.0012217,-0.022602,0.05284,-14.58,47.22,-9.84
3.8682,-9.0575,-0.8717,0.019242,-0.024435,0.074526,-14.58,47.16,-9.72
3.9771,-9.112,-0.91256,0.0082467,0.0097738,0.059559,-14.58,47.16,-9.72
4.1814,-9.0984,-1.0488,-0.019853,0.019242,0.034208,-14.58,47.28,-9.72
4.127,-8.9894,-1.1169,-0.036041,0.0061087,0.0051924,-14.7,47.4,-9.72
4.0044,-8.9349,-1.1032,-0.030238,0.0018326,0.0094684,-14.52,47.4,-9.78
3.9908,-8.9486,-1.0624,-0.035125,-0.013744,0.0033598,-14.52,47.58,-9.72
3.9227,-9.0575,-1.0624,-0.04948,-0.040928,0.0045815,-14.64,47.7,-9.84
3.8273,-9.0575,-0.99429,-0.061697,-0.042455,0.0027489,-14.52,47.58,-9.78
3.8409,-9.0712,-0.85808,-0.054672,-0.016493,-0.0097738,-14.52,47.7,-9.66
3.8682,-9.1529,-0.76274,-0.034208,-0.0048869,-0.0039706,-14.4,47.7,-9.54
3.8682,-9.0848,-0.84446,-0.023824,-0.030849,0.0079412,-14.4,47.64,-9.54
3.8682,-9.0575,-0.89894,-0.024129,-0.03146,0.012217,-14.4,47.52,-9.6
3.7592,-9.0303,-0.98067,-0.02138,0.0018326,0.007025,-14.4,47.46,-9.66
3.8682,-8.9894,-1.0215,-0.027184,0.016799,0.0085521,-14.34,47.46,-9.96
3.8682,-8.9758,-0.96704,-0.02474,0.000611,0.021075,-14.34,47.4,-10.02
3.8954,-8.9486,-0.99429,-0.027184,-0.0082467,0.021991,-14.34,47.4,-9.96
3.909,-9.0167,-0.98067,-0.033903,-0.007025,0.025656,-14.28,47.34,-9.96
3.9499,-9.0031,-0.96704,-0.040623,-0.0058032,0.019853,-14.52,47.52,-10.08
4.0044,-9.0303,-1.0215,-0.034208,-0.002138,0.012523,-14.58,47.22,-10.08
3.9771,-9.0712,-0.99429,-0.036652,0.0018326,0.0097738,-14.52,47.22,-10.08
3.9635,-9.0439,-0.99429,-0.027794,-0.01069,0.0061087,-14.58,47.22,-10.08
3.9227,-8.9894,-1.0351,-0.029932,-0.01741,0.0058032,-14.46,47.16,-10.38
3.8954,-9.0167,-1.0896,-0.033903,-0.021686,0.0088575,-14.52,47.28,-10.26
3.9227,-8.9894,-1.0215,-0.026573,-0.021991,0.012523,-14.46,47.4,-10.26
3.8682,-9.0575,-1.0488,-0.03543,-0.017104,0.0045815,-14.58,47.7,-10.14
3.9771,-8.9486,-0.95342,-0.044593,-0.015272,0.0064141,-14.52,47.64,-9.9
3.9227,-8.9077,-0.98067,-0.03543,-0.020159,0.000916,-14.52,47.52,-9.84
3.8546,-9.0848,-0.85808,-0.037263,-0.031765,0.0042761,-14.52,47.46,-9.9
3.8954,-9.0031,-0.89894,-0.033598,-0.029627,0.036346,-14.46,47.46,-9.9
3.9635,-8.9894,-0.92618,-0.020769,-0.034514,0.043677,-14.22,47.4,-9.78
4.0725,-9.0712,-0.88532,-0.0067195,-0.027794,0.041233,-14.1,47.4,-9.78
4.0725,-9.0712,-1.0624,-0.023824,-0.016188,0.0085521,-14.16,47.64,-9.84
3.9771,-8.8941,-1.0351,-0.030849,-0.01405,-0.01405,-14.16,47.64,-9.84
3.909,-8.8668,-1.1441,-0.041539,-0.014355,-0.018326,-14.28,47.7,-9.78
3.7184,-8.9349,-1.0215,-0.046426,-0.018326,-0.0039706,-14.4,47.58,-9.78
3.732,-8.8668,-0.96704,-0.043066,-0.035736,0.014355,-14.4,47.34,-9.78
3.7456,-8.9349,-1.0215,-0.042455,-0.032987,0.03879,-14.28,47.4,-9.72
3.9908,-9.112,-0.96704,-0.023518,-0.027489,0.054672,-14.22,47.22,-9.84
4.1133,-9.1937,-1.0079,-0.020769,-0.029016,0.034514,-14.28,47.22,-9.9
4.0452,-9.1256,-0.96704,-0.016493,-0.038179,0.016188,-14.28,47.28,-9.9
3.8273,-8.9622,-1.0079,-0.030238,-0.021075,0.000305,-14.64,47.22,-9.72
3.8273,-8.8668,-1.0215,-0.035736,0.022602,0.000916,-14.76,47.16,-9.72
3.8273,-8.9213,-1.0624,-0.042761,0.020464,0.0073304,-14.76,47.22,-9.72
3.909,-8.9622,-1.0215,-0.037263,-0.011606,0.036652,-14.88,47.04,-9.6
3.9635,-8.9622,-0.9398,-0.035736,-0.025962,0.044288,-14.88,47.1,-9.66
4.018,-9.0984,-0.92618,-0.03879,-0.023824,0.041539,-14.82,47.1,-9.66
4.0861,-9.0439,-0.89894,-0.023518,-0.024435,0.021686,-14.7,47.16,-9.66
3.9908,-9.0167,-0.99429,-0.025351,-0.023213,0.0054978,-14.64,47.22,-9.72
4.0044,-8.9894,-0.95342,-0.029322,-0.016493,0.0061087,-14.76,47.16,-9.72
4.0044,-8.9758,-0.99429,-0.025045,-0.012217,0.010385,-14.82,47.28,-10.02
3.9499,-8.9622,-1.0215,-0.0281,-0.015577,0.012217,-14.76,47.4,-9.96
3.9227,-8.9486,-1.0215,-0.031765,-0.014355,0.0088575,-14.7,47.46,-9.96
3.9771,-9.0303,-1.0215,-0.036346,0.000916,0.0054978,-14.52,47.58,-9.9
3.8682,-9.0439,-0.98067,-0.038179,0.0085521,-0.0067195,-14.52,47.64,-9.9
3.9227,-8.9894,-0.99429,-0.041233,0.0012217,-0.0024435,-14.4,47.52,-9.96
3.9363,-8.8532,-0.99429,-0.027794,-0.021686,0.000611,-14.34,47.52,-10.02
3.8137,-9.0303,-0.95342,-0.040623,-0.022907,0.0097738,-14.4,47.58,-10.14
3.8546,-8.9758,-1.1032,-0.027794,-0.013439,0.0281,-14.4,47.58,-10.14
3.9499,-9.0712,-0.99429,-0.0036652,0.0073304,0.045204,-14.46,47.58,-10.14
4.0861,-9.0575,-0.8717,-0.011301,0.0082467,0.039401,-14.64,47.58,-9.96
4.0452,-8.9758,-0.99429,-0.034514,0.0045815,0.015272,-14.58,47.58,-9.84
3.9363,-8.9894,-1.0488,-0.039706,-0.0033598,-0.0024435,-14.52,47.52,-9.72
3.8818,-8.9077,-1.0488,-0.034514,-0.0082467,0.0045815,-14.46,47.46,-9.6
3.8682,-8.9622,-0.96704,-0.038179,-0.014966,0.014966,-14.46,47.28,-9.72
3.8954,-8.9077,-0.92618,-0.045815,-0.019548,0.022602,-14.52,47.28,-9.72
3.9363,-9.0303,-1.0215,-0.033292,-0.013439,0.028405,-14.58,47.28,-9.9
4.0044,-8.9622,-0.9398,-0.025351,0.0054978,0.012217,-14.58,47.34,-9.78
3.9771,-9.0031,-0.96704,-0.036957,0.017715,-0.000916,-14.64,47.46,-9.78
3.8682,-8.9486,-1.0079,-0.042455,0.030543,-0.0036652,-14.58,47.4,-9.78
3.909,-8.9486,-0.91256,-0.032681,0.02474,0.0045815,-14.52,47.52,-9.78
3.9635,-8.8396,-0.92618,-0.032376,0.014661,0.016799,-14.34,47.52,-9.66
3.9908,-8.9758,-0.88532,-0.022297,-0.013134,0.02474,-14.52,47.52,-9.84
3.9771,-9.0031,-1.0215,-0.010385,-0.0076358,0.022297,-14.64,47.46,-9.84
3.9635,-9.0712,-1.0079,-0.018021,-0.0042761,0.02138,-14.64,47.46,-9.9
4.0316,-9.0167,-0.95342,-0.033598,0.013134,-0.000916,-14.7,47.64,-10.08
3.9635,-9.0167,-1.0079,-0.027184,0.0094684,0.0079412,-14.7,47.64,-10.08
3.9908,-9.0303,-1.0351,-0.018326,0.0082467,0.0067195,-14.76,47.58,-9.96
3.9635,-8.9622,-1.0215,-0.018021,0.0039706,0.0033598,-14.64,47.7,-10.08
3.909,-9.0439,-1.0896,-0.0281,0.002138,-0.000916,-14.76,47.52,-10.08
3.909,-9.112,-1.0896,-0.051924,0.015882,-0.000916,-14.82,47.34,-9.96
3.909,-9.0167,-1.0624,-0.050702,0.029016,-0.0073304,-14.88,47.52,-9.9
3.9635,-8.9894,-1.0351,-0.058948,0.037568,-0.0045815,-14.76,47.52,-9.84
3.8954,-9.0167,-1.0488,-0.065057,0.036957,0.0064141,-15.06,47.4,-9.96
3.9635,-8.8941,-0.99429,-0.033598,0.0045815,-0.000611,-14.82,47.46,-9.78
3.8409,-9.0303,-0.95342,-0.041539,-0.0073304,0.0042761,-14.7,47.64,-9.84
3.8001,-9.0439,-0.96704,-0.042761,0.0039706,0.0094684,-14.7,47.58,-9.72
3.909,-9.0712,-1.0079,-0.040623,0.017104,0.029322,-14.7,47.46,-9.66
4.018,-9.0303,-1.0215,-0.029016,0.03543,0.032987,-14.7,47.52,-9.66
4.1133,-8.9622,-0.9398,-0.036346,0.010079,0.017715,-14.64,47.4,-9.72
3.9227,-8.9349,-1.0488,-0.051924,0.011912,-0.0054978,-14.64,47.28,-9.54
3.8682,-8.8941,-0.9398,-0.054978,0.023824,-0.0085521,-14.58,47.34,-9.54
3.7728,-8.9349,-0.99429,-0.051924,0.032681,0.0061087,-14.46,47.52,-9.54
3.8682,-8.9894,-0.88532,-0.055894,0.024435,0.018937,-14.64,47.46,-9.48
3.8954,-9.0303,-0.88532,-0.047342,0.0064141,0.033598,-14.76,47.46,-9.48
4.0044,-9.0439,-0.91256,-0.033292,0.0088575,0.039095,-14.58,47.58,-9.42
4.0452,-9.0848,-0.8717,-0.017715,0.012828,0.027794,-14.58,47.64,-9.42
4.0044,-9.0575,-1.0215,-0.016799,0.014661,0.029322,-14.76,47.52,-9.42
3.9363,-9.0303,-1.076,-0.015882,0.022602,0.025656,-14.7,47.52,-9.54
3.9363,-9.0167,-1.1032,-0.023518,0.036041,0.030543,-14.64,47.52,-9.66
3.9908,-8.9894,-1.1169,-0.022297,0.040317,0.021991,-14.82,47.28,-9.54
4.0044,-8.9622,-1.0351,-0.033903,0.034208,0.026878,-14.76,47.34,-9.48
3.9908,-8.9894,-1.0624,-0.0281,0.016799,0.035736,-14.76,47.4,-9.48
4.0589,-9.0303,-1.1032,-0.028711,0.0012217,0.039706,-14.82,47.64,-9.6
4.0452,-9.0575,-0.92618,-0.034208,-0.0039706,0.033292,-14.7,47.58,-9.6
4.0725,-9.0303,-0.92618,-0.033903,-0.0036652,0.018937,-14.64,47.58,-9.66
4.0044,-9.0848,-1.0624,-0.025962,-0.0042761,0.014966,-14.58,47.52,-9.78
3.9635,-9.0303,-0.99429,-0.029627,0.002138,0.0088575,-14.52,47.28,-9.96
3.9499,-8.9894,-0.99429,-0.044288,0.0097738,0.010385,-14.52,47.22,-10.02
3.8682,-8.9077,-0.99429,-0.032376,0.0067195,0.011606,-14.58,47.1,-10.2
3.9499,-8.9486,-0.91256,-0.034208,0.012217,0.013439,-14.52,47.4,-9.96
3.9227,-8.9758,-1.0079,-0.03146,0.0033598,0.020769,-14.7,47.52,-9.84
3.9363,-9.0575,-0.9398,-0.03879,0.0085521,0.015272,-14.58,47.52,-9.78
3.9771,-8.9894,-0.85808,-0.037263,0.018326,0.014661,-14.52,47.82,-9.9
3.9635,-8.9758,-0.99429,-0.032987,0.010385,0.0051924,-14.52,47.58,-9.96
3.8273,-9.0575,-0.99429,-0.042761,0.015882,0.0088575,-14.46,47.34,-10.02
3.8818,-9.112,-0.95342,-0.045204,0.023518,0.018631,-14.58,47.46,-9.96
4.018,-9.0031,-0.96704,-0.03543,0.03543,0.03146,-14.52,47.52,-10.02
4.1406,-8.9349,-1.0624,-0.027489,0.0073304,0.020159,-14.76,47.58,-10.14
4.0044,-8.9894,-1.0215,-0.033903,-0.025656,0.012523,-14.82,47.64,-10.08
3.9635,-8.9894,-0.99429,-0.029322,-0.02138,0.0094684,-14.64,47.82,-10.2
3.8409,-9.0031,-0.99429,-0.036041,0.0015272,0.01069,-14.7,47.64,-10.14
3.9227,-9.0167,-1.0624,-0.037263,0.0054978,0.014355,-14.7,47.64,-10.26
3.9363,-9.0167,-0.96704,-0.047953,-0.024129,0.0085521,-14.52,47.58,-10.26
3.8682,-9.0167,-0.9398,-0.033903,-0.015577,0.014966,-14.58,47.58,-10.32
3.8409,-8.9894,-0.88532,-0.033598,0.011301,0.013134,-14.64,47.46,-10.26
3.8818,-8.9622,-0.98067,-0.03207,0.0058032,0.010385,-14.52,47.58,-10.14
3.9635,-9.0439,-1.0215,-0.030849,-0.0042761,0.018326,-14.58,47.7,-10.14
3.9635,-9.0439,-0.9398,-0.027184,-0.0042761,0.014355,-14.58,47.64,-10.26
4.0316,-9.0575,-1.1169,-0.033292,0.000611,0.014355,-14.58,47.46,-10.26
3.9908,-8.9894,-1.0215,-0.034819,-0.013134,0.015882,-14.34,47.58,-10.08
3.9635,-9.0575,-1.1169,-0.040317,-0.019853,0.027794,-14.28,47.58,-10.08
3.9635,-9.0575,-1.1169,-0.036957,-0.024435,0.02138,-14.28,47.58,-10.08
3.9635,-9.0439,-1.0624,-0.028405,-0.031765,0.025656,-14.34,47.52,-10.08
3.8818,-8.9894,-0.95342,-0.019242,-0.03543,0.01741,-14.28,47.58,-10.08
3.8273,-9.0303,-1.0215,-0.03146,-0.016188,0.027184,-14.34,47.7,-10.08
3.8954,-9.0439,-0.95342,-0.034208,-0.000916,0.032987,-14.28,47.7,-10.08
3.9635,-9.0984,-0.95342,-0.025045,-0.010385,0.036041,-14.22,47.7,-10.26
4.0044,-9.0303,-0.96704,-0.022602,-0.025656,0.027794,-14.46,47.76,-10.38
3.9908,-9.0712,-1.0624,-0.015272,-0.033598,0.022602,-14.28,47.7,-10.38
3.8409,-9.0439,-1.1169,-0.020464,-0.041539,0.036652,-14.34,47.64,-10.32
3.8818,-9.0303,-1.1577,-0.017715,-0.036346,0.037568,-14.28,47.7,-10.2
3.8682,-9.0848,-1.0896,-0.0281,-0.018326,0.038179,-14.34,47.7,-10.2
4.0044,-8.9622,-0.98067,-0.039706,-0.002138,0.026573,-14.28,47.52,-10.14
3.9499,-8.9622,-1.0488,-0.030543,-0.023518,0.019548,-14.4,47.52,-10.08
3.7728,-9.0848,-1.0079,-0.05284,-0.022297,0.017715,-14.34,47.7,-9.96
3.8818,-9.0575,-0.96704,-0.048564,-0.013744,0.027184,-14.28,47.52,-10.02
3.9227,-9.0848,-0.99429,-0.027184,0.0051924,0.047342,-14.22,47.58,-10.08
4.0452,-9.0712,-1.0624,-0.025962,0.010079,0.043677,-14.28,47.58,-10.14
3.9908,-9.0575,-1.076,-0.04215,-0.014355,0.012217,-14.04,47.52,-10.14
3.8818,-8.9486,-1.1032,-0.029016,-0.013744,-0.0039706,-14.04,47.58,-10.14
3.8001,-8.8941,-1.0624,-0.03146,-0.000916,0.0097738,-14.04,47.52,-10.08
3.8273,-8.9622,-1.0896,-0.03146,-0.010079,0.023518,-14.04,47.64,-10.02
3.7728,-8.8941,-1.0079,-0.042761,-0.021075,0.033903,-14.16,47.58,-10.02
3.8954,-9.0031,-1.0488,-0.040928,-0.019853,0.036957,-14.16,47.58,-9.96
4.0861,-9.0575,-0.99429,-0.026878,-0.024129,0.044593,-14.22,47.58,-10.08
4.0589,-9.112,-0.99429,-0.015272,-0.02474,0.036957,-14.22,47.64,-10.02
3.9771,-9.0984,-1.0488,-0.020159,-0.027489,0.020769,-14.22,47.58,-9.96
3.8682,-9.0031,-1.0488,-0.022297,-0.015272,0.0097738,-14.22,47.52,-9.9
3.9227,-8.9622,-1.1577,-0.022602,-0.016188,0.0085521,-14.28,47.52,-9.9
3.909,-8.9894,-1.1986,-0.031154,-0.018631,0.018326,-14.22,47.64,-9.78
3.9227,-8.9077,-1.0896,-0.042455,-0.031154,0.02474,-14.4,47.64,-9.72
3.9635,-9.0031,-1.0624,-0.043982,-0.037874,0.024129,-14.46,47.64,-9.72
3.9635,-8.9349,-1.076,-0.048564,-0.045815,0.018326,-14.4,47.58,-9.78
3.9227,-8.9894,-0.98067,-0.043066,-0.041844,0.013744,-14.52,47.52,-9.78
3.9363,-9.0031,-0.96704,-0.037568,-0.037568,0.010996,-14.46,47.34,-9.72
3.8818,-9.0575,-1.1169,-0.03879,-0.03543,0.012828,-14.46,47.34,-9.78
3.9227,-9.0167,-1.076,-0.023213,-0.034819,0.01069,-14.46,47.58,-9.66
3.9227,-8.9486,-1.0079,-0.018021,-0.035736,0.0082467,-14.28,47.46,-9.66
3.8273,-9.0031,-1.076,-0.023518,-0.030543,0.0082467,-14.34,47.46,-9.6
3.7865,-8.9622,-1.0896,-0.02138,-0.028405,0.0054978,-14.52,47.4,-9.78
3.7728,-8.9349,-1.0896,-0.016493,-0.0281,0.0027489,-14.46,47.34,-9.78
3.8273,-9.0167,-0.99429,-0.019242,-0.020464,0.0012217,-14.58,47.22,-9.72
3.8682,-8.9077,-1.0215,-0.0036652,-0.033598,0.0054978,-14.52,47.34,-9.66
3.8137,-9.0303,-1.0215,-0.0061087,-0.044593,0.002138,-14.46,47.34,-9.6
3.6503,-9.1256,-1.0351,-0.024129,-0.03146,0.0082467,-14.46,47.34,-9.66
3.8818,-9.0984,-1.0215,0.0018326,-0.0067195,0.040317,-14.58,47.4,-9.78
3.9227,-9.1393,-1.1577,0.0076358,0.0079412,0.019548,-14.58,47.52,-9.96
3.9771,-9.1256,-1.1169,-0.030849,-0.0030543,-0.0024435,-14.52,47.46,-9.84
3.8409,-8.9486,-1.076,-0.046731,-0.01069,-0.034208,-14.46,47.4,-9.84
3.732,-8.9349,-1.1577,-0.04612,0.002138,-0.013134,-14.76,47.34,-9.96
3.6639,-8.9213,-1.0624,-0.047953,0.009163,0.000611,-14.7,47.34,-10.14
3.7728,-9.0167,-1.0351,-0.051313,0.0079412,0.0067195,-14.64,47.4,-9.84
3.7865,-9.0984,-0.84446,-0.047037,0.0073304,0.021075,-14.7,47.46,-9.84
3.8954,-9.0712,-0.8717,-0.027794,0.012828,0.022907,-14.64,47.46,-9.96
3.8001,-9.0848,-1.0624,-0.019242,0.03146,0.013439,-14.46,47.58,-10.02
3.7728,-9.0439,-0.96704,-0.020769,0.03543,0.007025,-14.64,47.52,-9.9
3.8409,-9.0303,-0.96704,-0.025962,0.040012,0.013439,-14.64,47.52,-9.84
3.8001,-8.9758,-1.0488,-0.03543,0.058948,0.015882,-14.52,47.58,-9.72
3.8001,-8.9894,-1.0624,-0.038179,0.057421,0.021991,-14.58,47.58,-9.66
3.8273,-8.9894,-1.0215,-0.036652,0.055589,0.022297,-14.52,47.52,-9.78
3.9363,-9.0575,-1.0215,-0.033903,0.044899,0.033292,-14.76,47.52,-9.84
3.9499,-9.0303,-1.1441,-0.039401,0.040623,0.020159,-14.76,47.46,-9.96
4.0044,-9.0848,-1.0624,-0.037568,0.045204,0.017104,-14.52,47.64,-9.9
4.0044,-9.0848,-1.0624,-0.050702,0.043982,0.010385,-14.52,47.64,-9.9
3.9363,-9.0439,-0.99429,-0.045509,0.044288,0.0024435,-14.58,47.76,-9.96
3.9635,-9.0439,-0.95342,-0.059865,0.048564,0.0058032,-14.46,47.7,-10.02
3.9227,-9.0031,-0.89894,-0.058948,0.047037,-0.0012217,-14.64,47.64,-9.9
3.909,-9.0303,-1.0079,-0.058643,0.053145,-0.0058032,-14.7,47.64,-9.78
3.8273,-8.9758,-0.9398,-0.050702,0.058338,0.0018326,-14.7,47.64,-9.9
3.7592,-8.9486,-0.92618,-0.04948,0.069944,0.011301,-14.7,47.76,-10.08
3.8818,-8.8941,-0.88532,-0.019853,0.043677,0.021075,-14.7,47.64,-10.2
3.8954,-8.9077,-0.99429,-0.0088575,0.031765,0.023518,-14.64,47.64,-10.26
3.8409,-9.0712,-0.98067,-0.035736,0.040012,0.028711,-14.34,47.94,-10.02
3.9499,-9.0848,-0.98067,-0.03207,0.048869,0.037568,-14.34,47.88,-9.9
3.9499,-9.0575,-0.99429,-0.0082467,0.055894,0.038179,-14.28,47.88,-9.84
4.2223,-9.0848,-1.0624,-0.031154,0.045509,0.024129,-14.4,47.76,-9.9
4.1542,-9.0575,-1.0624,-0.047953,0.029322,-0.009163,-14.34,47.64,-9.96
4.0725,-9.1665,-1.0624,-0.045509,0.029016,-0.013134,-14.4,47.7,-9.96
4.1406,-9.112,-1.1577,-0.048869,0.03207,-0.015272,-14.28,47.7,-9.84
4.0589,-9.0712,-1.2122,-0.055283,0.0027489,-0.026267,-14.1,47.76,-9.84
4.018,-9.0575,-1.0215,-0.078802,-0.010385,-0.029932,-14.1,47.76,-9.78
3.9227,-8.9622,-1.0624,-0.078802,-0.024435,-0.02138,-14.04,47.76,-9.48
3.909,-8.9622,-1.0215,-0.07025,-0.017104,-0.019242,-14.04,47.88,-9.48
3.8273,-8.9622,-0.98067,-0.07758,-0.0079412,-0.018021,-13.98,47.88,-9.36
3.7047,-8.8668,-0.81722,-0.071166,-0.0045815,-0.012828,-13.98,47.88,-9.42
3.6094,-8.8396,-0.70826,-0.03207,0.012828,0.029322,-13.86,47.94,-9.48
3.7047,-8.8941,-0.76274,0.025656,-0.000305,0.065363,-13.92,47.94,-9.48
3.8001,-8.9486,-0.92618,0.048258,-0.026267,0.10629,-13.92,47.88,-9.6
3.8954,-9.0303,-1.076,0.04948,-0.018937,0.1066,-13.98,48.0,-9.48
4.0861,-9.112,-1.0896,0.0085521,0.061697,0.07025,-13.8,47.94,-9.42
4.1678,-9.0575,-1.076,-0.0079412,0.071471,0.041844,-13.86,48.0,-9.66
4.2632,-9.0712,-0.99429,-0.0036652,0.040317,0.032987,-13.98,48.06,-9.72
4.0997,-8.9758,-0.92618,-0.010385,0.0048869,0.038485,-13.98,47.88,-9.78
4.0997,-8.9894,-1.0624,-0.018631,-0.014966,0.022602,-13.98,47.94,-9.96
4.0861,-9.0031,-0.96704,-0.033903,-0.018021,0.0058032,-14.04,47.82,-9.9
4.0997,-9.0848,-0.9398,-0.04215,-0.011606,-0.016799,-14.1,47.82,-9.96
3.9771,-9.0712,-1.0624,-0.043982,-0.0027489,-0.023824,-14.04,47.64,-10.02
3.8954,-9.1256,-0.98067,-0.057421,0.013439,-0.041233,-14.34,47.58,-10.08
3.8546,-9.0984,-1.0215,-0.073609,0.038179,-0.045509,-14.34,47.52,-10.14
3.8137,-9.1256,-1.0896,-0.076969,0.048258,-0.05284,-14.28,47.4,-10.02
3.8273,-8.8941,-0.96704,-0.080634,0.041233,-0.045509,-14.28,47.4,-10.08
3.7184,-8.8941,-0.95342,-0.072693,0.046731,-0.037568,-14.52,47.34,-10.26
3.7047,-8.9758,-0.92618,-0.076664,0.032376,-0.025656,-14.46,47.22,-10.26
3.8001,-8.9894,-0.85808,-0.073304,0.030238,-0.0064141,-14.46,47.04,-10.38
3.8954,-8.9349,-0.9398,-0.041539,0.048869,0.0097738,-14.34,47.1,-10.44
3.9771,-8.8941,-0.85808,-0.048258,0.064141,0.000611,-14.4,47.22,-10.56
3.9227,-8.9349,-0.77636,-0.047037,0.050702,-0.015272,-14.34,47.22,-10.56
3.8954,-8.9349,-0.89894,-0.03207,0.065363,0.0094684,-14.34,47.16,-10.62
3.9499,-8.9213,-0.95342,-0.01741,0.071777,0.010996,-14.46,47.28,-10.5
3.9771,-8.9213,-0.99429,-0.011606,0.065363,0.014661,-14.34,47.28,-10.32
4.0589,-9.0167,-1.0351,-0.013134,0.044593,0.015882,-14.46,47.34,-10.2
4.0589,-9.0031,-1.0215,-0.023213,0.027794,0.014355,-14.4,47.64,-10.08
4.127,-9.0167,-1.0896,-0.014355,0.027184,0.025045,-14.34,47.64,-10.08
4.0997,-9.0303,-1.1305,-0.011912,0.025045,0.029016,-14.22,47.76,-9.9
4.1542,-9.0575,-1.0896,-0.009163,0.0018326,0.030543,-14.28,47.88,-9.78
4.1542,-8.9894,-1.0896,-0.0064141,-0.0064141,0.027489,-14.16,47.82,-9.72
4.2087,-8.9077,-1.0215,0.0033598,-0.030849,0.021991,-14.16,47.88,-9.72
4.1678,-9.0031,-0.92618,0.012828,-0.043982,0.020464,-14.1,47.76,-9.54
4.1406,-8.9894,-0.96704,0.012523,-0.069333,0.025656,-14.1,47.88,-9.66
4.0316,-9.0031,-0.96704,0.012523,-0.08827,0.035736,-13.92,47.76,-9.6
4.0316,-8.9894,-0.89894,0.01069,-0.089797,0.026573,-13.86,47.82,-9.6
3.9635,-9.0031,-1.0624,0.011301,-0.089797,0.025045,-13.98,47.7,-9.84
3.9635,-9.0167,-0.98067,0.007025,-0.084299,0.0281,-13.86,47.7,-9.9
3.9363,-9.0439,-0.92618,0.000916,-0.08827,0.032376,-13.92,47.52,-10.08
3.9635,-9.1529,-0.96704,0.0079412,-0.080023,0.024435,-14.16,47.58,-10.08
3.8546,-9.1665,-0.92618,-0.0054978,-0.068722,0.021991,-13.98,47.52,-9.9
3.9635,-9.0167,-0.98067,-0.013134,-0.046731,0.022297,-13.98,47.52,-9.96
3.9227,-9.0439,-0.95342,-0.014661,-0.058643,0.013134,-14.16,47.52,-9.96
3.8273,-9.0303,-0.89894,-0.011606,-0.054062,0.012217,-14.28,47.46,-9.96
3.8273,-8.9894,-0.9398,-0.014966,-0.037874,0.015272,-14.58,47.4,-10.08
3.9227,-8.9213,-0.91256,-0.0085521,-0.033598,0.01741,-14.7,47.4,-9.96
3.9363,-9.0303,-0.85808,-0.010996,-0.04215,0.018631,-14.82,47.52,-10.2
3.9227,-9.0848,-0.81722,-0.019548,-0.045815,0.036346,-14.82,47.52,-10.26
3.9499,-9.0575,-0.83084,-0.0033598,-0.049175,0.045815,-14.76,47.52,-10.2
4.018,-9.0303,-0.88532,0.0067195,-0.039095,0.053145,-14.76,47.52,-10.32
4.0861,-9.0575,-0.85808,0.0073304,-0.029932,0.034514,-14.82,47.46,-10.38
4.0861,-9.0712,-0.99429,-0.0039706,-0.043066,0.011912,-14.7,47.58,-10.32
4.018,-8.9486,-1.0351,-0.0064141,-0.045509,0.0073304,-14.7,47.52,-10.5
3.9227,-8.9349,-0.89894,-0.015577,-0.041539,0.011606,-14.82,47.52,-10.44
3.9363,-8.9213,-0.92618,-0.024129,-0.043982,0.013134,-14.76,47.52,-10.56
3.9635,-8.9213,-0.89894,-0.036041,-0.052229,0.018631,-14.76,47.58,-10.62
3.909,-9.0167,-0.85808,-0.023518,-0.052229,0.01741,-14.46,47.46,-10.5
3.9499,-9.0167,-0.8036,-0.024435,-0.042455,0.022907,-14.34,47.52,-10.5
3.9635,-9.0575,-0.83084,-0.016493,-0.038485,0.012523,-14.1,47.4,-10.5
3.9363,-9.112,-0.88532,-0.0076358,-0.036346,0.0058032,-14.16,47.4,-10.26
3.8682,-9.0167,-0.89894,-0.016493,-0.013744,-0.0097738,-14.1,47.4,-10.26
3.8137,-9.0167,-0.89894,-0.018937,-0.0012217,-0.012523,-14.28,47.46,-10.2
3.7865,-8.9894,-0.92618,-0.016493,0.0033598,-0.0073304,-14.4,47.64,-10.2
3.8682,-8.9213,-0.85808,-0.0085521,-0.0039706,0.016799,-14.64,47.4,-10.14
3.8001,-9.0439,-0.83084,-0.0024435,-0.023518,0.03207,-14.7,47.52,-10.2
3.909,-9.0167,-0.92618,0.0067195,-0.040623,0.037263,-14.7,47.4,-10.44
3.9363,-8.9622,-0.83084,0.0054978,-0.039706,0.039401,-14.7,47.34,-10.38
3.9635,-9.0439,-0.96704,-0.000611,-0.03207,0.037568,-14.64,47.28,-10.32
4.018,-9.0439,-0.92618,0.0018326,-0.014966,0.018326,-15.0,47.4,-10.26
4.018,-9.0575,-0.96704,-0.0067195,-0.018631,0.014661,-15.0,47.4,-10.26
3.9635,-9.0575,-0.92618,-0.0054978,-0.018326,0.010385,-15.06,47.52,-10.32
3.9771,-9.0575,-0.83084,-0.021991,-0.019853,0.010385,-15.12,47.52,-10.5
3.9908,-9.0712,-0.89894,-0.025656,-0.0076358,0.0033598,-15.12,47.46,-10.62
4.0316,-9.0031,-0.92618,-0.033292,-0.0067195,-0.014355,-15.06,47.34,-10.74
4.0044,-8.9213,-0.9398,-0.037874,-0.018631,-0.02138,-14.94,47.28,-10.74
3.8273,-9.0439,-0.78998,-0.038485,-0.0088575,-0.020769,-14.76,47.34,-10.8
3.8546,-9.0712,-0.83084,-0.038485,-0.000916,0.011301,-14.76,47.34,-10.74
4.0861,-9.0712,-0.91256,-0.0082467,-0.0036652,0.0281,-14.7,47.34,-10.62
4.0997,-9.0712,-0.88532,-0.015577,0.0054978,0.014661,-14.58,47.34,-10.74
4.0316,-8.9758,-0.92618,-0.05284,-0.012523,-0.023213,-14.64,47.46,-10.92
3.8546,-8.8941,-0.85808,-0.038179,-0.009163,-0.015577,-14.52,47.4,-10.86
3.7865,-8.8668,-0.85808,-0.038485,-0.009163,0.0079412,-14.52,47.52,-10.98
3.7865,-8.9486,-0.83084,-0.029322,-0.009163,0.026878,-14.52,47.22,-10.86
3.9499,-9.0303,-0.77636,-0.043982,-0.011912,0.031765,-14.52,47.4,-10.98
3.9771,-8.9894,-0.7355,-0.0281,-0.015577,0.030238,-14.64,47.46,-10.92
4.0316,-9.0303,-0.72188,-0.030543,-0.0097738,0.030238,-14.64,47.52,-10.92
3.9908,-9.0303,-0.69464,-0.016188,0.0015272,0.0051924,-14.76,47.34,-10.86
3.9499,-9.0031,-0.81722,-0.012217,0.0042761,0.0054978,-14.7,47.52,-10.98
3.8818,-9.0303,-0.81722,-0.019548,0.0097738,0.0097738,-14.64,47.4,-11.04
3.909,-8.9486,-0.83084,-0.0058032,0.01069,0.0079412,-14.52,47.58,-11.04
3.8954,-8.9894,-0.84446,-0.0088575,0.0085521,0.017104,-14.7,47.58,-11.04
3.9363,-8.9758,-0.89894,0.0064141,-0.0073304,0.027184,-14.76,47.46,-10.92
3.909,-9.0712,-0.91256,0.002138,-0.011912,0.025045,-14.88,47.46,-11.04
3.9908,-9.0303,-0.83084,-0.015882,-0.0054978,0.017715,-15.0,47.46,-10.92
3.909,-9.0167,-0.88532,-0.015882,0.018326,0.014966,-15.06,47.64,-11.04
3.9363,-9.0303,-0.91256,-0.024129,0.032681,0.0045815,-14.94,47.58,-10.92
3.9771,-9.0575,-0.92618,-0.019548,0.012217,0.013439,-15.0,47.46,-10.92
3.9227,-9.0848,-0.9398,-0.025656,-0.0079412,0.01741,-14.94,47.46,-10.86
3.9771,-8.9077,-0.8717,-0.022907,0.0036652,0.01741,-14.88,47.58,-10.86
3.9227,-9.0984,-0.96704,-0.03146,0.017715,0.0012217,-14.94,47.46,-10.8
3.9771,-9.1937,-0.96704,-0.034208,0.032987,0.0015272,-15.12,47.34,-10.8
3.9635,-9.0712,-0.9398,-0.036346,0.013439,0.013439,-15.24,47.22,-10.74
3.8546,-9.1937,-0.91256,-0.018326,-0.017104,0.014966,-15.18,47.22,-10.56
3.7865,-9.1529,-0.92618,-0.046426,-0.015882,0.025656,-15.0,47.28,-10.5
3.8546,-9.1256,-0.95342,-0.050702,0.0039706,0.040012,-14.82,47.22,-10.44
4.0044,-9.0303,-1.0215,-0.045204,0.009163,0.074831,-14.88,47.34,-10.56
4.0589,-9.0167,-0.95342,-0.062308,-0.0088575,0.062919,-14.82,47.28,-10.56
4.127,-9.0303,-0.85808,-0.077885,-0.037568,0.045509,-14.88,47.34,-10.5
3.9499,-8.9486,-0.8036,-0.072693,-0.024435,0.047953,-14.7,47.28,-10.56
3.9908,-8.9622,-0.64016,-0.0562,-0.015882,0.049786,-14.7,47.22,-10.62
4.0316,-8.9622,-0.76274,-0.04948,-0.022907,0.056505,-14.64,47.28,-10.62
4.0861,-8.9622,-0.7355,-0.050091,-0.058338,0.052229,-14.58,47.22,-10.62
4.0589,-8.9486,-0.70826,-0.059559,-0.060476,0.033292,-14.52,47.52,-10.38
4.0044,-8.9622,-0.6674,-0.052229,-0.024129,0.015577,-14.52,47.64,-10.44
4.0589,-8.9486,-0.74912,-0.03207,-0.0088575,0.010079,-14.34,47.46,-10.56
4.1406,-9.0303,-0.6674,-0.014966,-0.018631,0.000916,-14.4,47.4,-10.56
4.0589,-9.0303,-0.76274,-0.01741,-0.036652,-0.0097738,-14.58,47.4,-10.56
3.909,-9.0575,-0.89894,-0.025045,-0.012523,-0.027794,-14.52,47.52,-10.56
3.8954,-9.0848,-0.98067,-0.034208,0.0024435,-0.040012,-14.52,47.58,-10.56
3.8273,-9.0303,-1.0215,-0.036957,0.0082467,-0.03879,-14.4,47.46,-10.5
3.732,-9.0712,-1.0624,-0.049175,0.0036652,-0.03146,-14.58,47.46,-10.44
3.7865,-9.0848,-0.96704,-0.053451,0.0064141,-0.023518,-14.64,47.58,-10.38
3.7728,-9.0848,-0.92618,-0.0562,0.0018326,-0.0054978,-14.7,47.52,-10.38
3.7865,-9.0575,-0.96704,-0.051007,0.0058032,0.0097738,-14.52,47.52,-10.5
3.7456,-9.0303,-0.88532,-0.046426,0.020464,0.0061087,-14.64,47.46,-10.5
3.7728,-9.0167,-0.88532,-0.034819,0.02138,0.014355,-14.76,47.46,-10.62
3.8409,-8.9758,-0.96704,-0.037263,0.0042761,0.030238,-14.94,47.46,-10.62
3.7456,-9.0439,-0.85808,-0.036041,-0.0039706,0.050396,-14.94,47.52,-10.56
3.7456,-9.0575,-0.89894,-0.036041,0.012523,0.04612,-14.82,47.58,-10.62
3.8818,-9.0303,-0.83084,-0.020159,0.025045,0.042455,-14.88,47.34,-10.74
3.8273,-9.0712,-0.8036,-0.017104,0.027489,0.046731,-14.88,47.22,-10.86
3.8273,-9.0712,-0.7355,-0.030543,0.025656,0.054672,-15.06,47.28,-10.98
3.9635,-9.112,-0.74912,-0.018937,0.029932,0.076053,-15.0,47.34,-11.1
4.0452,-9.0167,-0.78998,0.002138,0.035736,0.08094,-15.12,47.34,-11.1
4.0997,-9.0031,-0.91256,-0.013439,0.019853,0.043371,-15.06,47.34,-11.16
3.9908,-9.0303,-0.83084,-0.026267,0.024129,0.019242,-15.18,47.46,-11.04
3.9908,-9.0439,-0.76274,-0.024129,0.053145,0.009163,-15.06,47.46,-11.1
4.0725,-9.0167,-0.83084,-0.018937,0.064752,0.0061087,-15.0,47.46,-11.04
4.127,-9.0712,-0.8036,-0.015272,0.030543,0.009163,-15.06,47.4,-11.04
4.127,-8.9622,-0.83084,-0.033903,0.021075,-0.000305,-15.06,47.4,-11.04
4.0589,-8.9349,-0.83084,-0.036041,0.012828,-0.011606,-15.06,47.28,-11.04
3.9635,-8.9758,-0.88532,-0.036957,0.037874,-0.032376,-15.0,47.28,-10.98
3.8954,-8.9894,-0.8036,-0.037874,0.033292,-0.02474,-14.88,47.52,-10.74
3.8409,-9.1256,-0.91256,-0.043371,0.018631,-0.023213,-14.82,47.58,-10.74
3.8409,-9.1529,-0.85808,-0.051618,0.033292,-0.018021,-14.82,47.7,-10.74
3.8409,-9.1256,-0.83084,-0.041233,0.053756,-0.03146,-14.76,47.76,-10.68
3.8682,-9.0848,-0.83084,-0.038485,0.058032,-0.027489,-14.7,47.7,-10.68
3.8409,-9.0575,-0.88532,-0.03543,0.043066,-0.013439,-14.58,47.46,-10.86
3.8273,-9.0303,-0.92618,-0.018631,0.024435,-0.0015272,-14.64,47.52,-11.04
3.8546,-9.0575,-0.95342,-0.013134,0.0030543,0.023518,-14.76,47.52,-10.92
3.9227,-9.0848,-1.0896,-0.018021,-0.010996,0.041233,-14.88,47.7,-10.92
4.018,-9.0712,-0.99429,-0.032987,-0.0036652,0.035125,-14.94,47.82,-10.98
4.0316,-9.0167,-0.9398,-0.067806,0.033292,-0.000305,-14.94,47.94,-10.92
3.9363,-8.9349,-0.81722,-0.076969,0.050702,-0.014661,-15.0,47.76,-10.86
3.9363,-8.9349,-0.69464,-0.065363,0.05681,-0.016188,-15.12,47.7,-10.8
4.0316,-9.0303,-0.6674,-0.039706,0.023518,0.011301,-15.24,47.52,-10.74
4.0589,-8.9894,-0.69464,-0.0094684,-0.0085521,0.02138,-15.24,47.34,-10.8
4.018,-8.9486,-0.70826,-0.002138,-0.011301,0.01405,-15.24,47.16,-10.86
3.9908,-8.826,-0.76274,0.019853,-0.022907,0.016188,-15.3,47.28,-10.74
3.9908,-8.8532,-0.78998,0.028711,-0.043066,0.021686,-15.48,47.4,-10.74
3.9635,-9.0439,-0.83084,0.02138,-0.056505,0.039401,-15.54,47.46,-10.74
4.0861,-9.0303,-0.85808,0.03146,-0.071166,0.061392,-15.36,47.4,-10.92
4.1951,-9.1256,-0.98067,0.054367,-0.083994,0.062919,-15.18,47.58,-10.98
4.2495,-9.221,-0.99429,0.034208,-0.070555,0.031154,-15.12,47.46,-11.04
4.1542,-9.0984,-1.0488,-0.012217,-0.04612,-0.018021,-15.0,47.46,-11.22
4.1406,-9.112,-1.0215,-0.018631,-0.03879,-0.029322,-14.94,47.4,-11.22
4.018,-9.1256,-1.0351,-0.035736,-0.062308,-0.015272,-14.82,47.34,-11.22
3.9227,-9.0848,-1.0351,-0.050396,-0.061392,-0.0281,-14.94,47.52,-11.34
3.9363,-9.0848,-0.96704,-0.066279,-0.066279,-0.022907,-14.88,47.58,-11.28
3.9227,-9.1529,-0.85808,-0.067501,-0.066584,-0.0033598,-14.82,47.64,-11.34
3.8954,-9.1529,-0.85808,-0.064446,-0.064446,0.000611,-14.88,47.46,-11.46
3.9227,-9.1937,-0.81722,-0.065668,-0.058643,-0.0015272,-14.82,47.46,-11.16
3.8409,-9.1529,-0.83084,-0.069639,-0.048564,0.0082467,-14.94,47.4,-11.04
3.8682,-9.0303,-0.78998,-0.063835,-0.039706,0.010385,-14.94,47.46,-10.92
3.8273,-9.0712,-0.8036,-0.06353,-0.027489,0.014355,-14.94,47.28,-10.8
3.7865,-8.9894,-0.7355,-0.076969,-0.021991,0.013134,-15.0,47.16,-10.62
3.7865,-8.9349,-0.77636,-0.064446,-0.01741,0.03207,-15.12,47.04,-10.56
3.7456,-9.0167,-0.76274,-0.060781,-0.0094684,0.047037,-15.18,47.16,-10.56
3.8682,-8.9894,-0.65378,-0.04612,-0.0042761,0.053451,-15.12,47.22,-10.38
3.909,-9.0167,-0.57205,-0.045204,-0.011606,0.062003,-15.06,47.1,-10.38
3.9635,-8.8805,-0.70826,-0.029016,-0.013744,0.063835,-15.06,47.04,-10.32
3.9227,-9.0848,-0.84446,-0.012217,-0.018937,0.063225,-15.12,46.98,-10.2
4.0452,-9.1393,-0.91256,-0.018021,-0.022907,0.059254,-15.06,47.04,-10.14
4.0452,-9.1937,-0.96704,-0.020769,-0.020769,0.051007,-15.0,46.98,-10.26
3.9635,-9.2074,-1.0215,-0.064141,0.018631,0.018326,-14.94,46.98,-10.44
3.9227,-9.1937,-1.076,-0.094073,0.055283,0.0079412,-15.0,46.92,-10.38
3.8954,-9.0303,-0.89894,-0.085521,0.051007,0.000916,-15.3,46.86,-10.44
3.8001,-9.112,-0.95342,-0.091324,0.020464,0.010385,-15.3,46.92,-10.44
3.7865,-9.112,-0.99429,-0.10171,0.02138,0.027794,-15.18,46.98,-10.56
3.7184,-9.1256,-0.96704,-0.094379,0.033598,0.042761,-15.12,47.04,-10.5
3.8273,-9.0848,-0.95342,-0.10599,0.085216,0.0562,-15.06,46.98,-10.56
3.9227,-9.0439,-0.96704,-0.13042,0.077274,0.025656,-15.12,46.98,-10.62
3.732,-8.8941,-0.83084,-0.13714,0.057116,0.031765,-15.0,47.04,-10.68
3.7047,-8.8668,-0.6674,-0.10934,0.050702,0.055283,-15.0,46.98,-10.68
3.8001,-8.8668,-0.76274,-0.081245,0.06017,0.073304,-14.88,47.16,-10.56
3.8954,-8.8532,-0.8036,-0.072998,0.047647,0.090408,-14.94,47.22,-10.56
3.8954,-8.7987,-0.7355,-0.070555,0.036346,0.085827,-14.94,47.34,-10.38
3.909,-8.9349,-0.64016,-0.060781,0.043066,0.072998,-14.76,47.46,-10.62
3.9227,-8.9349,-0.70826,-0.040317,0.066584,0.062003,-14.58,47.46,-10.5
4.0316,-9.0031,-0.77636,-0.02474,0.069028,0.058338,-14.58,47.64,-10.44
4.0589,-8.9622,-0.85808,-0.022907,0.061392,0.041844,-14.4,47.7,-10.38
4.018,-8.9758,-0.85808,-0.034819,0.065668,0.030543,-14.4,47.7,-10.44
4.0044,-8.9622,-0.96704,-0.036346,0.081245,0.019853,-14.34,47.88,-10.56
3.8954,-8.9486,-1.0079,-0.048869,0.084299,0.012828,-14.28,47.88,-10.5
3.8954,-8.9622,-1.0351,-0.03879,0.07422,0.0018326,-14.28,48.0,-10.5
3.909,-8.9894,-1.0079,-0.042455,0.054062,0.010385,-14.16,47.94,-10.56
3.9227,-9.0575,-1.076,-0.057116,0.051924,0.0094684,-14.1,48.0,-10.38
3.8954,-9.0031,-1.1032,-0.068722,0.068417,0.0076358,-14.04,47.94,-10.5
3.9363,-9.0712,-1.1169,-0.057421,0.072388,0.0030543,-13.92,47.94,-10.56
3.9499,-9.0575,-0.92618,-0.061697,0.06353,0.0018326,-13.92,47.7,-10.56
3.9499,-9.0848,-0.96704,-0.047647,0.029016,0.0094684,-13.98,47.64,-10.5
3.9227,-9.0439,-1.0896,-0.047953,0.016799,0.007025,-13.92,47.52,-10.56
3.8954,-9.1256,-0.98067,-0.059865,0.034208,0.010385,-13.92,47.46,-10.44
3.9227,-8.9758,-1.0215,-0.056505,0.032987,-0.0024435,-13.92,47.34,-10.38
3.8546,-9.0167,-0.99429,-0.073609,0.029016,-0.0082467,-14.04,47.28,-10.2
3.8001,-9.1256,-0.96704,-0.085521,0.037874,0.0097738,-14.28,47.22,-10.2
3.9635,-9.1529,-0.95342,-0.055283,0.033903,0.026878,-14.22,47.16,-10.2
3.9908,-9.0303,-0.96704,-0.030238,0.023518,0.030543,-14.1,47.28,-10.14
4.0725,-9.0848,-0.98067,-0.043677,-0.0067195,-0.010996,-14.1,47.22,-10.32
3.8954,-9.0031,-1.0079,-0.058032,-0.0015272,-0.027489,-13.98,47.22,-10.26
3.8409,-8.9622,-1.185,-0.059559,0.017715,-0.0281,-14.1,47.16,-10.26
3.8001,-8.9622,-1.0079,-0.060476,0.02474,-0.02474,-13.98,47.22,-10.32
3.8001,-8.9077,-0.9398,-0.073915,0.022297,-0.01069,-13.86,47.4,-10.26
3.8001,-8.9622,-0.89894,-0.071471,0.009163,-0.0045815,-13.86,47.28,-10.26
3.8001,-8.9622,-0.83084,-0.066279,0.0079412,0.0051924,-13.86,47.34,-10.14
3.9635,-9.0575,-0.83084,-0.03879,0.01741,0.0039706,-13.62,47.46,-10.14
3.9227,-9.0439,-0.84446,-0.036652,0.010996,0.0033598,-13.56,47.46,-10.02
3.9771,-9.0575,-0.78998,-0.030849,0.0027489,0.0015272,-13.38,47.52,-10.02
3.8954,-9.0303,-0.89894,-0.013439,0.011301,-0.0030543,-13.44,47.58,-10.08
3.9499,-9.0031,-0.96704,-0.010996,0.011912,-0.0030543,-13.62,47.52,-10.08
3.8546,-9.0303,-1.1032,-0.01405,0.010385,-0.0058032,-13.62,47.58,-10.08
3.8273,-9.0167,-1.0488,-0.018326,0.0073304,-0.0030543,-13.56,47.52,-9.96
3.8273,-9.0575,-1.0624,-0.018631,0.011912,-0.0030543,-13.56,47.64,-9.96
3.8954,-9.0575,-1.1441,-0.025045,0.02138,-0.0018326,-13.5,47.58,-9.84
3.9635,-9.0303,-1.1577,-0.03543,0.000916,0.0012217,-13.5,47.58,-9.78
3.9771,-9.0303,-1.1441,-0.039401,-0.010079,0.0012217,-13.62,47.58,-9.78
3.8954,-9.0303,-1.1032,-0.039401,-0.0045815,-0.0018326,-13.5,47.76,-9.78
3.9499,-8.9894,-1.0215,-0.040317,0.0024435,-0.0036652,-13.44,47.64,-9.9
3.9908,-9.0303,-1.0215,-0.045204,-0.0094684,-0.0064141,-13.38,47.58,-9.66
3.9227,-9.0575,-1.0896,-0.050091,-0.0048869,0.002138,-13.38,47.58,-9.96
3.9227,-8.9622,-1.0215,-0.058948,-0.000305,-0.0082467,-13.5,47.52,-10.14
3.8273,-8.8805,-0.99429,-0.043066,0.0030543,-0.015272,-13.62,47.4,-10.14
3.8273,-9.0712,-0.83084,-0.057727,-0.0082467,0.000916,-13.74,47.46,-10.14
3.8954,-9.1529,-0.88532,-0.058643,-0.0058032,0.0039706,-13.86,47.46,-10.14
3.9499,-9.0167,-0.85808,-0.035736,0.000305,0.031154,-14.04,47.28,-10.14
3.9635,-8.9486,-1.0215,-0.030543,-0.0015272,0.0281,-14.1,47.22,-10.08
4.0316,-8.9894,-0.99429,-0.045204,0.0054978,0.013134,-14.34,47.28,-10.14
3.8954,-8.9894,-0.9398,-0.04948,0.020464,-0.0058032,-14.52,47.22,-10.14
3.8682,-8.9486,-1.0624,-0.044288,0.033292,-0.000916,-14.52,47.28,-9.96
3.9771,-8.9758,-0.98067,-0.037263,0.018326,0.016188,-14.64,47.4,-9.78
4.0316,-8.9894,-0.99429,-0.044288,0.0058032,0.019853,-14.52,47.22,-9.6
4.0316,-9.0303,-0.96704,-0.025656,-0.016188,0.029932,-14.52,47.1,-9.54
4.018,-9.0575,-0.98067,-0.023518,-0.0082467,0.019853,-14.7,47.04,-9.42
3.9771,-9.0575,-1.0079,-0.02138,0.01741,-0.0018326,-14.7,47.04,-9.48
4.018,-9.0167,-1.0215,-0.03543,0.024129,-0.0048869,-14.7,47.1,-9.6
3.9635,-8.9758,-1.1169,-0.03879,0.010996,-0.0067195,-14.94,47.04,-9.72
3.9635,-8.9486,-1.0488,-0.037263,0.0012217,0.0015272,-14.94,47.28,-9.72
3.9227,-8.9894,-1.0624,-0.036957,0.0042761,0.0073304,-14.94,47.16,-9.78
3.9635,-9.0303,-1.0624,-0.043982,0.013744,0.0054978,-14.7,47.28,-9.72
3.9499,-9.0575,-0.99429,-0.039095,0.020769,0.0027489,-14.64,47.22,-9.9
3.9499,-9.0303,-0.96704,-0.045204,0.027489,0.0088575,-14.64,47.16,-9.9
3.9635,-9.0031,-1.0215,-0.044288,0.010079,0.0079412,-14.52,46.98,-10.14
3.9363,-9.0303,-1.1169,-0.04215,-0.000305,0.015577,-14.64,47.1,-10.2
3.9499,-9.0848,-1.1032,-0.037874,-0.0058032,0.014966,-14.58,47.28,-10.14
3.9499,-9.0575,-1.0896,-0.031765,-0.015577,0.038179,-14.58,47.28,-10.14
3.909,-8.9758,-1.076,-0.034514,-0.014355,0.035125,-14.52,47.22,-10.14
4.0589,-9.0167,-1.1032,-0.029627,-0.015577,0.039706,-14.52,47.16,-10.2
4.0316,-9.0575,-1.1169,-0.037874,-0.015882,0.039706,-14.22,47.22,-10.08
4.0316,-8.9894,-1.0624,-0.036346,-0.019853,0.036346,-14.34,47.1,-10.08
4.0589,-8.9758,-1.1032,-0.045509,-0.018631,0.03146,-14.34,47.22,-9.96
3.9635,-8.8941,-1.0624,-0.040623,-0.024435,0.022907,-14.22,47.22,-10.02
3.9227,-9.0303,-1.0079,-0.048564,-0.025962,0.023213,-14.28,47.22,-9.96
3.9227,-9.0031,-0.92618,-0.066584,-0.020769,0.037568,-14.28,47.28,-9.9
4.0725,-9.0303,-0.98067,-0.034819,-0.0281,0.056505,-14.34,47.46,-9.6
4.1542,-9.0303,-0.92618,-0.014355,-0.029627,0.041233,-14.34,47.52,-9.6
4.2223,-8.9894,-0.98067,-0.028711,-0.034208,0.0082467,-14.34,47.46,-9.66
4.0044,-8.9349,-1.0624,-0.032376,-0.033292,-0.017104,-14.22,47.46,-9.78
3.9363,-8.8941,-0.99429,-0.044899,-0.028711,-0.0082467,-14.22,47.52,-9.78
3.8273,-8.9077,-1.0215,-0.039706,-0.030849,-0.0079412,-14.22,47.46,-9.54
3.8818,-8.9622,-1.0215,-0.030238,-0.047342,0.019242,-14.28,47.46,-9.36
3.8954,-9.0167,-0.99429,-0.022907,-0.054672,0.030849,-14.16,47.46,-9.36
3.9635,-8.9622,-1.0079,-0.016493,-0.047342,0.029627,-14.1,47.52,-9.42
4.0316,-8.9894,-1.0624,-0.023824,-0.023213,0.0027489,-14.16,47.52,-9.42
3.9363,-9.0712,-0.99429,-0.023824,-0.013744,0.0042761,-14.04,47.46,-9.24
3.8137,-8.9894,-1.0896,-0.020159,-0.019548,0.0036652,-13.92,47.34,-9.36
3.8546,-8.9349,-1.1032,-0.016188,-0.015882,0.015272,-14.04,47.4,-9.48
3.8682,-8.9758,-1.2531,-0.024129,-0.018631,0.03146,-14.16,47.4,-9.66
3.8954,-8.9758,-1.0896,-0.024435,-0.03146,0.035125,-14.1,47.4,-9.54
3.8818,-8.9894,-1.1713,-0.034514,-0.040012,0.046426,-14.04,47.58,-9.3
3.9635,-9.0303,-1.0896,-0.018937,-0.042761,0.050702,-14.04,47.64,-9.48
3.9771,-9.0031,-1.0624,-0.027184,-0.043066,0.04612,-14.16,47.64,-9.9
4.0316,-9.0303,-0.99429,-0.023518,-0.037263,0.039401,-14.22,47.7,-9.78
4.018,-9.0167,-0.99429,-0.027184,-0.030543,0.037263,-14.22,47.64,-9.96
4.0316,-8.9894,-1.1169,-0.034208,-0.028405,0.032987,-14.28,47.52,-9.9
4.018,-8.9894,-1.0896,-0.03207,-0.029627,0.022602,-14.34,47.52,-10.02
4.0044,-8.9894,-1.1169,-0.031154,-0.023824,0.012523,-14.46,47.64,-10.02
4.0725,-8.9213,-1.0079,-0.036346,-0.013744,0.01405,-14.64,47.64,-10.08
3.9908,-8.9077,-0.98067,-0.0281,-0.027794,0.0073304,-14.58,47.52,-10.02
3.9635,-8.8532,-1.0215,-0.029627,-0.043371,0.0027489,-14.58,47.46,-9.78
3.8546,-9.0167,-1.0215,-0.038485,-0.042761,0.0061087,-14.58,47.64,-10.02
4.0044,-9.1256,-0.96704,-0.035125,-0.02474,0.021075,-14.4,47.52,-10.2
4.0725,-9.0575,-1.076,-0.002138,-0.0085521,0.032681,-14.34,47.52,-10.08
4.0861,-9.0031,-1.1305,-0.031765,-0.0036652,-0.0054978,-14.4,47.52,-9.96
3.8954,-8.8941,-1.1169,-0.050702,-0.022907,-0.03879,-14.34,47.34,-9.9
3.8273,-8.8668,-1.1577,-0.04948,-0.011301,-0.025962,-14.4,47.46,-9.78
3.7728,-8.8941,-1.1032,-0.042455,-0.000916,-0.014966,-14.52,47.46,-9.78
3.8954,-8.9622,-0.9398,-0.037874,0.0033598,0.0058032,-14.64,47.7,-9.9
3.9363,-9.0303,-0.96704,-0.041233,-0.019548,0.023213,-14.64,47.64,-9.84
3.8682,-9.0439,-0.9398,-0.03543,-0.01405,-0.000305,-14.46,47.82,-9.84
3.8273,-9.0575,-1.0079,-0.030543,0.01405,-0.011606,-14.46,48.0,-9.78
3.7865,-9.0984,-1.0488,-0.028711,0.03879,-0.0076358,-14.34,47.94,-9.84
3.7865,-8.9758,-1.1305,-0.028405,0.038485,-0.0024435,-14.46,47.58,-9.66
3.8137,-8.9894,-1.0896,-0.033292,0.023213,0.015272,-14.76,47.64,-9.48
3.8001,-9.0303,-1.1986,-0.032987,0.0281,0.023824,-14.82,47.58,-9.54
3.8001,-8.9894,-1.1713,-0.043066,0.044899,0.025045,-14.7,47.64,-9.48
3.9227,-8.9622,-1.2122,-0.045815,0.053145,0.024129,-14.76,47.7,-9.54
3.8818,-8.9894,-1.0624,-0.057727,0.054672,0.025045,-14.7,47.7,-9.42
3.9227,-9.0031,-1.076,-0.055894,0.049786,0.029932,-14.76,47.7,-9.42
3.9635,-9.0303,-1.0624,-0.042455,0.049175,0.039095,-14.64,47.64,-9.36
3.9635,-9.0303,-1.0351,-0.041233,0.043982,0.036346,-14.64,47.58,-9.42
4.0316,-9.0439,-1.076,-0.035736,0.040012,0.025351,-14.76,47.46,-9.36
3.9635,-9.0439,-1.0896,-0.032681,0.046426,0.027794,-14.82,47.46,-9.42
3.9227,-9.0303,-1.0896,-0.022297,0.050396,0.023518,-14.82,47.46,-9.48
3.9635,-9.0303,-1.1169,-0.027184,0.051313,0.025351,-14.88,47.76,-9.72
4.0452,-9.0031,-1.0896,-0.027184,0.035125,0.039401,-14.7,47.76,-9.78
4.0452,-8.9213,-1.1032,-0.024435,0.024129,0.041844,-14.7,47.82,-9.84
3.9908,-8.9758,-1.0896,-0.027184,0.011912,0.029322,-14.88,47.88,-9.96
4.018,-9.0848,-1.1169,-0.043982,0.030849,0.035736,-14.7,47.82,-10.02
4.0452,-8.9894,-1.0896,-0.020159,0.025351,0.047342,-14.64,47.7,-10.14
4.1406,-8.9894,-1.1441,-0.0030543,0.019242,0.051618,-14.4,47.64,-9.96
4.2223,-9.0303,-1.1577,-0.014355,-0.0036652,0.029016,-14.4,47.7,-9.84
4.0725,-8.9758,-1.1577,-0.029016,-0.0064141,-0.0027489,-14.34,47.76,-9.84
3.9908,-8.9758,-1.185,-0.03879,0.010996,-0.01741,-14.22,47.76,-9.84
3.9635,-8.9622,-1.1713,-0.051313,0.0281,-0.028405,-14.22,47.82,-9.84
3.9635,-9.112,-1.185,-0.059865,0.019548,-0.037568,-14.22,47.76,-9.72
3.909,-9.0031,-1.0896,-0.072693,0.0030543,-0.034208,-14.16,47.7,-9.6
3.9635,-9.0575,-0.96704,-0.057421,-0.0024435,-0.032376,-14.1,47.76,-9.6
3.8409,-9.0303,-1.076,-0.043066,-0.0015272,-0.025351,-14.04,47.7,-9.42
3.8409,-9.0167,-1.1169,-0.044899,-0.013439,-0.007025,-14.04,47.64,-9.36
3.7456,-9.0031,-1.0079,-0.043982,-0.0061087,-0.0048869,-14.22,47.7,-9.42
3.7047,-9.0167,-1.0624,-0.041233,0.012828,0.0094684,-14.22,47.82,-9.36
3.7865,-8.9894,-1.1305,-0.041844,0.02474,0.016799,-14.52,47.88,-9.3
3.8409,-9.0303,-1.0215,-0.044288,0.03146,0.013134,-14.52,47.88,-9.48
3.8954,-9.0303,-1.0351,-0.045815,0.020769,0.030238,-14.52,47.82,-9.48
3.8546,-8.9894,-1.0896,-0.043066,0.030238,0.038179,-14.64,47.88,-9.54
3.8682,-8.9894,-1.0488,-0.038179,0.034819,0.04612,-14.64,47.88,-9.48
4.0589,-8.9758,-0.96704,-0.031154,0.031765,0.047647,-14.7,47.82,-9.66
3.9771,-8.9894,-1.0215,-0.027489,0.029932,0.044899,-14.7,47.76,-9.72
3.9635,-8.9622,-1.0215,-0.022602,0.033292,0.030849,-14.76,47.7,-9.6
4.018,-8.9077,-0.99429,-0.033598,0.033903,0.036041,-14.82,47.46,-9.78
4.018,-8.8805,-1.0215,-0.023518,0.014661,0.043982,-14.7,47.46,-9.72
4.0589,-8.9349,-0.92618,-0.011301,0.0018326,0.044899,-14.64,47.34,-9.84
4.1951,-8.9758,-0.96704,-0.0094684,-0.014966,0.044899,-14.46,47.28,-9.84
4.2495,-9.0848,-0.9398,-0.014966,-0.015272,0.014966,-14.46,47.22,-9.84
4.1542,-8.9758,-0.99429,-0.011606,-0.0064141,-0.000305,-14.22,47.22,-9.9
4.127,-8.9894,-1.0351,-0.0045815,-0.0088575,-0.021686,-14.28,47.22,-9.96
3.9635,-9.0848,-1.1169,-0.034819,-0.0051924,-0.042761,-14.22,47.22,-10.08
3.909,-9.1529,-1.0896,-0.019242,-0.009163,-0.024129,-14.1,47.28,-9.96
3.9908,-9.1801,-1.076,0.014966,-0.036041,-0.0045815,-14.16,47.34,-9.9
3.9908,-9.0848,-1.2395,-0.014355,-0.068111,-0.0088575,-14.04,47.46,-9.9
3.8273,-9.1937,-1.2122,-0.036041,-0.043066,-0.020159,-14.1,47.46,-9.9
3.732,-9.1665,-1.3212,-0.05284,-0.0012217,-0.0281,-14.22,47.46,-9.78
3.732,-9.0984,-1.2531,-0.062308,0.021991,-0.022602,-14.28,47.46,-9.78
3.7184,-9.0303,-1.185,-0.077885,-0.0030543,0.002138,-14.58,47.46,-9.6
3.7047,-8.9213,-1.1577,-0.081551,-0.051618,0.03146,-14.64,47.52,-9.42
3.623,-8.9486,-0.96704,-0.070555,-0.06353,0.074831,-14.64,47.52,-9.48
3.7456,-8.9894,-0.96704,-0.059865,-0.030543,0.085216,-14.7,47.58,-9.42
3.8409,-9.0439,-0.95342,-0.064446,-0.016188,0.081245,-14.64,47.58,-9.42
3.8954,-9.1393,-0.92618,-0.067806,0.0012217,0.073915,-14.64,47.64,-9.24
4.0044,-9.0848,-0.92618,-0.053451,0.0061087,0.079718,-14.7,47.46,-9.24
4.0589,-9.0439,-0.89894,-0.035125,0.026573,0.058643,-14.58,47.52,-9.12
4.018,-8.9758,-0.9398,-0.045815,0.047342,0.03207,-14.52,47.58,-9.06
3.9908,-8.8941,-1.0215,-0.059559,0.055894,0.016493,-14.58,47.52,-8.94
3.9227,-8.8805,-1.1713,-0.055283,0.039706,0.03146,-14.46,47.58,-8.94
3.9499,-8.8668,-1.0624,-0.048869,0.020159,0.045204,-14.4,47.7,-8.82
4.127,-8.9349,-1.0896,-0.049175,0.025351,0.054672,-14.28,47.64,-8.82
4.1542,-8.9213,-1.1032,-0.054062,0.025656,0.036652,-14.22,47.52,-8.82
4.1814,-8.9349,-1.2395,-0.064446,0.047037,0.010079,-14.1,47.4,-8.88
4.018,-8.8668,-1.0079,-0.10629,0.085521,-0.030543,-13.92,47.46,-8.76
3.9499,-8.8396,-1.0215,-0.10751,0.084605,-0.029322,-13.92,47.34,-8.76
3.9908,-8.8668,-1.0079,-0.091324,0.060476,-0.016799,-13.86,47.28,-8.76
3.9908,-8.8941,-0.92618,-0.045204,0.022907,0.0094684,-13.68,47.46,-8.82
3.9499,-8.9349,-0.92618,-0.047037,0.027489,-0.0036652,-13.68,47.46,-8.88
3.9635,-8.9894,-0.99429,-0.047953,0.047037,-0.021991,-13.62,47.4,-8.94
3.7865,-8.9622,-1.0896,-0.030543,0.058948,-0.047647,-13.56,47.28,-9.12
3.6775,-9.0439,-1.0624,-0.036041,0.069333,-0.026573,-13.68,47.4,-9.12
3.6366,-9.0575,-1.0896,-0.031765,0.072388,-0.016493,-13.8,47.4,-9.24
3.732,-9.0712,-1.1169,-0.015577,0.058948,0.036346,-13.74,47.4,-9.36
3.8954,-9.0303,-1.2258,-0.0085521,0.045509,0.056505,-13.62,47.4,-9.54
3.9908,-8.9894,-1.3076,-0.010385,0.02474,0.051313,-13.62,47.46,-9.54
3.9227,-8.9758,-1.2122,-0.036957,0.040012,0.034514,-13.92,47.52,-9.6
3.9227,-8.9894,-1.2122,-0.057421,0.058338,0.017104,-13.92,47.64,-9.54
3.8273,-9.0031,-1.185,-0.068111,0.068722,0.01741,-13.98,47.58,-9.54
3.9635,-8.9622,-1.1032,-0.061697,0.040317,0.039095,-14.1,47.52,-9.66
4.0725,-9.0575,-1.1032,-0.044288,-0.000916,0.068111,-14.16,47.4,-9.72
4.127,-9.0439,-1.0079,-0.03207,-0.0054978,0.078191,-14.16,47.34,-9.66
4.2359,-9.0848,-1.1305,-0.024129,0.015577,0.036957,-14.04,47.64,-9.54
4.2632,-9.0575,-1.0896,-0.026878,0.015577,0.0094684,-13.92,47.52,-9.66
4.2223,-8.9758,-1.1305,-0.023213,0.0039706,0.0015272,-13.8,47.46,-9.54
4.0316,-8.8941,-1.1713,-0.034819,0.0067195,-0.017715,-13.8,47.46,-9.48
3.9635,-8.826,-1.1577,-0.043677,0.011912,-0.010079,-13.92,47.46,-9.6
4.0044,-8.8668,-1.076,-0.048869,0.0061087,0.0024435,-13.86,47.52,-9.54
4.1133,-8.9349,-1.0215,-0.021991,-0.022907,0.014966,-13.92,47.46,-9.42
4.0861,-9.0167,-1.0351,-0.017104,-0.050396,-0.000916,-13.86,47.46,-9.6
4.0861,-8.9894,-1.0215,-0.01405,-0.047953,-0.009163,-13.86,47.52,-9.66
3.9771,-9.0848,-1.0215,-0.012217,-0.038485,-0.027794,-13.92,47.4,-9.54
3.8954,-9.0303,-1.076,0.000611,-0.025351,-0.013134,-13.98,47.52,-9.48
3.8818,-8.9894,-1.1032,0.000611,-0.028405,-0.010079,-13.92,47.82,-9.48
3.909,-9.0575,-1.0896,-0.016188,-0.024435,-0.0085521,-13.92,47.76,-9.42
3.8409,-8.9894,-1.1986,-0.029322,-0.023213,-0.009163,-14.1,47.7,-9.36
3.8001,-9.0575,-1.2258,-0.016493,-0.024435,-0.0054978,-14.04,47.76,-9.42
3.8546,-9.0712,-1.1441,-0.032376,-0.011606,0.009163,-14.16,47.64,-9.48
3.8273,-9.0439,-1.1169,-0.036346,-0.0076358,0.0048869,-14.16,47.64,-9.48
3.732,-9.0167,-1.0215,-0.048258,-0.01069,0.0045815,-13.98,47.7,-9.3
3.732,-9.0712,-0.99429,-0.050396,-0.012217,0.018937,-13.98,47.88,-9.48
3.8682,-9.0575,-1.0488,-0.026573,-0.0085521,0.039401,-13.92,47.76,-9.3
3.9771,-9.0712,-1.0624,0.0051924,-0.01741,0.067195,-13.92,47.7,-9.24
4.018,-9.0303,-1.1577,-0.015272,-0.0036652,0.059254,-13.68,47.7,-9.42
4.0725,-9.0031,-1.1713,-0.030849,-0.0012217,0.021686,-13.68,47.7,-9.42
3.8954,-8.8396,-1.1577,-0.047953,0.012523,0.013439,-13.86,47.58,-9.42
4.018,-8.8532,-1.0896,-0.049786,0.017104,0.023518,-13.86,47.64,-9.54
4.0316,-8.9622,-0.95342,-0.035125,-0.0018326,0.02474,-13.86,47.88,-9.66
4.0316,-8.9622,-0.95342,-0.027184,-0.041233,0.047037,-13.86,47.88,-9.66
4.0316,-8.9622,-0.95342,-0.010385,-0.039401,0.040317,-13.86,47.88,-9.66
4.0861,-9.0303,-0.92618,-0.009163,-0.01405,0.022907,-13.8,48.0,-9.66
4.0861,-8.9622,-1.0351,-0.014661,0.0061087,0.0064141,-13.8,48.12,-9.48
4.0589,-8.9758,-1.0215,-0.016493,0.010079,-0.0064141,-13.8,48.24,-9.6
3.9635,-8.9349,-1.1032,-0.0039706,0.0036652,0.007025,-13.98,48.06,-9.18
3.9227,-8.9213,-1.0896,-0.011301,-0.0064141,0.02138,-13.86,48.12,-9.24
3.9908,-8.9349,-1.0079,-0.013439,-0.012828,0.023213,-13.92,48.24,-9.36
4.0861,-8.9349,-1.0215,0.0042761,-0.026573,0.029932,-13.62,48.3,-9.36
4.0589,-8.9758,-1.0079,0.0030543,-0.039095,0.026267,-13.68,48.3,-9.36
4.018,-9.0167,-1.076,-0.0054978,-0.038485,0.0079412,-13.44,48.0,-9.36
3.8954,-9.0303,-1.1169,-0.012217,-0.01405,-0.0015272,-13.32,48.0,-9.42
3.9227,-8.9486,-1.0351,-0.022297,0.0027489,-0.0012217,-13.26,47.94,-9.42
3.8818,-8.9758,-1.0079,-0.026573,0.0061087,0.002138,-13.26,47.94,-9.54
3.9635,-9.0303,-0.99429,-0.022907,-0.0048869,0.0082467,-13.32,48.0,-9.6
4.018,-8.9894,-1.0351,-0.0076358,-0.000611,0.0027489,-13.68,47.94,-9.72
3.9635,-8.9894,-1.0624,-0.0048869,-0.0048869,-0.0042761,-13.74,47.94,-9.72
3.8954,-8.9486,-1.1169,-0.016493,-0.0064141,-0.017104,-13.92,47.94,-9.6
3.9227,-9.0167,-1.0215,-0.023824,-0.0027489,-0.012523,-13.98,47.88,-9.54
3.9227,-8.9758,-0.99429,-0.021686,-0.0051924,-0.0024435,-13.92,47.76,-9.6
3.909,-8.9349,-1.1713,-0.012828,-0.021686,0.009163,-13.86,47.88,-9.42
3.8954,-9.0575,-0.99429,-0.0281,-0.0094684,0.0012217,-14.22,48.06,-9.72
3.9227,-9.112,-0.99429,-0.025962,0.0067195,-0.007025,-14.28,48.0,-9.84
3.9635,-9.0712,-0.98067,0.0012217,0.000611,0.025045,-14.34,48.12,-9.9
4.0316,-9.0303,-1.076,-0.0036652,-0.020464,0.019242,-14.52,48.12,-9.9
4.0589,-8.9894,-0.98067,-0.01741,-0.03146,-0.000611,-14.4,48.18,-9.9
3.9908,-9.0031,-1.0079,-0.025656,-0.0097738,-0.017715,-14.28,48.18,-9.96
