Ax,Ay,Az,Gx,Gy,Gz,Mx,My,Mz
3.5822,-9.7794,-1.0079,0.036652,-0.1854,-0.067195,-1.86,43.08,-10.62
3.5958,-9.7385,-1.1169,0.039706,-0.1912,-0.050091,-2.28,43.02,-10.62
3.732,-9.6704,-1.1169,0.030849,-0.19639,-0.041233,-2.46,43.02,-10.68
3.7184,-9.5479,-1.0215,0.0048869,-0.19151,-0.043677,-2.64,42.78,-10.62
3.6094,-9.3844,-1.0624,-0.019548,-0.17043,-0.10812,-2.88,42.66,-10.92
3.5004,-9.2482,-0.92618,-0.039706,-0.13317,-0.13011,-3.06,42.6,-10.86
3.3778,-9.1801,-0.9398,-0.062003,-0.050396,-0.18692,-3.3,42.6,-10.8
3.4459,-9.0848,-0.76274,-0.054978,-0.046731,-0.20189,-3.48,42.66,-10.98
3.4459,-9.0848,-0.76274,-0.038179,-0.08827,-0.18692,-3.54,42.66,-11.04
3.4459,-9.1665,-0.6674,-0.011606,-0.1576,-0.1573,-3.78,42.6,-11.1
3.3506,-9.1393,-0.44947,-0.0012217,-0.20617,-0.12828,-3.96,42.48,-11.04
3.4323,-9.0575,-0.39499,0.033598,-0.24251,-0.073304,-4.02,42.48,-11.04
3.3915,-8.8941,-0.47671,0.063225,-0.24679,-0.040623,-4.2,42.42,-11.04
3.3915,-8.7715,-0.40861,0.11301,-0.25717,-0.0045815,-4.44,42.48,-10.92
3.5413,-8.6217,-0.49033,0.15852,-0.27153,0.024435,-4.5,42.48,-10.8
3.6094,-8.5263,-0.40861,0.19334,-0.29169,0.058032,-4.74,42.48,-11.04
3.8273,-8.4174,-0.36775,0.22694,-0.32956,0.07086,-4.98,42.36,-10.86
4.1542,-8.6353,-0.21793,0.26206,-0.36316,0.082772,-5.28,42.3,-10.86
4.3721,-8.7851,-0.14982,0.26786,-0.37629,0.072998,-5.4,42.12,-10.86
4.4402,-8.6353,-0.1362,0.27336,-0.42058,0.072998,-5.7,42.06,-10.92
4.4675,-8.7034,-0.12258,0.29108,-0.47556,0.06017,-5.7,42.12,-11.1
4.5901,-8.9077,-0.081722,0.29719,-0.52351,0.072693,-5.82,41.88,-11.22
4.7671,-8.9894,-0.10896,0.2813,-0.58551,0.069333,-6.0,41.88,-11.34
4.6582,-9.0984,0.027241,0.27122,-0.6634,0.077274,-6.06,41.76,-11.34
4.522,-9.3844,0.19068,0.19884,-0.71227,0.051618,-6.12,41.7,-11.52
4.4675,-9.4798,0.19068,0.14019,-0.65515,0.053451,-6.18,41.7,-11.46
4.1542,-9.6977,0.1362,0.075136,-0.54184,0.06689,-6.24,41.64,-11.7
4.1814,-9.7113,0.25879,0.0042761,-0.38332,0.082772,-6.3,41.4,-12.12
4.127,-9.2482,0.43585,-0.03879,-0.22785,0.084299,-6.18,41.4,-12.36
4.1406,-9.0848,0.49033,-0.051007,-0.096517,0.058032,-6.18,41.34,-12.36
4.1814,-8.6353,0.43585,-0.0281,0.0045815,-0.021686,-6.3,41.22,-12.48
4.304,-8.4446,0.32689,0.0094684,-0.0058032,-0.072082,-6.3,41.16,-12.48
4.2495,-8.3493,0.28603,0.043677,-0.071777,-0.095295,-6.18,41.04,-12.6
4.2495,-8.1995,0.1362,0.077274,-0.1686,-0.092852,-6.24,41.1,-12.84
4.0997,-8.5127,0.17706,0.073915,-0.24343,-0.070555,-6.24,41.04,-12.84
4.0316,-8.5672,0.12258,0.037568,-0.24923,-0.072998,-6.42,40.86,-12.84
3.9908,-8.6353,0.12258,-0.029016,-0.13958,-0.060781,-6.48,40.86,-12.72
4.0589,-8.7579,0.40861,-0.060781,-0.045509,-0.058948,-6.72,40.98,-12.84
4.2087,-8.9486,0.43585,-0.069333,0.022907,-0.055894,-6.9,40.98,-12.54
4.2904,-9.0848,0.51757,-0.079412,0.073304,-0.055894,-6.96,40.92,-12.54
4.3721,-9.2755,0.5993,-0.075747,0.1014,-0.050396,-7.02,40.86,-12.48
4.3858,-9.3708,0.62654,-0.051924,0.11148,-0.058338,-7.14,40.86,-12.36
4.3585,-9.3163,0.47671,-0.036041,0.10751,-0.064446,-7.26,40.8,-12.36
4.304,-9.1529,0.42223,0.022297,0.084299,-0.057116,-7.44,40.8,-12.42
4.2632,-9.2891,0.42223,0.076969,0.052534,-0.050702,-7.44,40.92,-12.24
4.3313,-9.3027,0.17706,0.11698,0.030238,-0.048869,-7.44,41.1,-12.54
4.2632,-9.0031,-0.027241,0.15608,-0.0079412,-0.072082,-7.38,40.98,-12.54
4.3177,-8.9894,-0.081722,0.18815,-0.0562,-0.080329,-7.38,40.98,-12.48
4.1814,-8.7851,-0.35413,0.20647,-0.13164,-0.088575,-7.2,40.68,-12.54
4.1678,-8.9213,-0.49033,0.22602,-0.26206,-0.086437,-7.32,40.86,-12.9
3.9635,-9.0031,-0.61292,0.20372,-0.31124,-0.079412,-7.5,40.68,-12.96
3.8546,-9.0303,-0.57205,0.14019,-0.31643,-0.066584,-7.56,40.74,-13.02
3.732,-9.0167,-0.51757,0.072998,-0.28161,-0.041233,-7.5,40.62,-13.2
3.5958,-9.0848,-0.43585,-0.0039706,-0.20159,-0.016799,-7.5,40.56,-13.32
3.5822,-9.2482,-0.35413,-0.062308,-0.088575,0.010079,-7.92,40.5,-13.44
3.732,-9.1665,-0.21793,-0.09163,-0.0058032,0.040928,-7.98,40.44,-13.32
3.7728,-9.0167,-0.12258,-0.098044,0.061392,0.029932,-8.04,40.44,-13.32
3.9227,-8.9486,-0.068102,-0.086743,0.074526,-0.032376,-8.22,40.44,-13.44
3.8682,-9.0712,-0.040861,-0.082161,0.091019,-0.10324,-8.22,40.56,-13.74
3.7728,-9.1529,-0.01362,-0.082772,0.11026,-0.18112,-8.46,40.68,-13.8
3.5685,-9.2891,-0.054481,-0.080329,0.12248,-0.18754,-8.58,40.62,-13.62
3.4459,-9.3844,-0.1362,-0.092241,0.21105,-0.17104,-8.76,40.62,-13.5
3.4051,-9.3027,-0.1362,-0.10232,0.29658,-0.14019,-8.82,40.68,-13.68
3.4732,-9.1529,0.01362,-0.10293,0.35736,-0.11057,-8.82,40.5,-13.68
3.4868,-9.0848,0.040861,-0.10171,0.37049,-0.08827,-9.0,40.56,-13.68
3.7047,-9.0167,-0.040861,-0.093768,0.35186,-0.040012,-9.0,40.56,-13.5
3.7456,-8.9077,-0.10896,-0.066584,0.28344,0.02474,-9.0,40.5,-13.38
3.8001,-8.9622,-0.12258,-0.054978,0.26298,0.045204,-8.88,40.5,-13.44
3.8001,-8.9622,-0.12258,-0.059559,0.24557,0.061087,-8.88,40.5,-13.44
3.8273,-9.0575,-0.24517,-0.065057,0.27764,0.10446,-8.88,40.68,-13.5
3.9908,-9.0984,-0.31327,-0.077274,0.31276,0.11759,-8.82,40.62,-13.32
4.0725,-9.0848,-0.28603,-0.087048,0.31948,0.13622,-8.76,40.56,-13.26
4.2087,-9.0031,-0.24517,-0.088881,0.3149,0.15394,-8.4,40.56,-13.44
4.2632,-9.0303,-0.23155,-0.078191,0.30543,0.1744,-8.34,40.56,-13.5
4.4811,-9.0303,-0.28603,-0.071166,0.28375,0.17685,-7.92,40.8,-13.56
4.5083,-9.0575,-0.31327,-0.069333,0.24282,0.18021,-7.74,40.8,-13.62
4.522,-9.0303,-0.21793,-0.076969,0.21136,0.16982,-7.5,40.8,-13.68
4.4947,-9.0031,-0.23155,-0.079412,0.20281,0.15638,-7.26,40.8,-13.86
4.522,-9.0712,-0.21793,-0.081856,0.22205,0.13011,-6.84,40.44,-14.16
4.5083,-9.0303,-0.19068,-0.072998,0.21228,0.11637,-6.6,40.56,-14.22
4.4675,-8.8941,-0.20431,-0.061392,0.18723,0.10293,-6.48,40.8,-14.46
4.4539,-8.8396,-0.16344,-0.057116,0.16493,0.11148,-6.3,40.92,-14.4
4.3994,-8.826,-0.14982,-0.041844,0.13164,0.10324,-6.18,40.86,-14.4
4.413,-8.8668,-0.14982,-0.034208,0.090713,0.11606,-6.06,40.98,-14.52
4.5083,-9.0031,-0.12258,-0.031765,0.054367,0.12675,-5.88,40.86,-14.52
4.4675,-8.9486,-0.12258,-0.020464,-0.000916,0.13836,-5.64,40.92,-14.46
4.4811,-8.8941,-0.095342,0.0067195,-0.040623,0.13806,-5.58,41.16,-14.34
4.413,-8.9213,-0.17706,0.043066,-0.069944,0.13683,-5.52,41.1,-14.22
4.4539,-8.9758,-0.17706,0.04948,-0.10293,0.14142,-5.34,41.1,-14.22
4.3858,-9.0031,-0.17706,0.050091,-0.14875,0.14019,-5.16,41.16,-13.98
4.4675,-9.0848,-0.24517,0.037874,-0.1857,0.15669,-5.1,41.22,-14.34
4.3994,-8.9894,-0.21793,0.019853,-0.23121,0.13225,-4.98,41.34,-14.52
4.3585,-9.0303,-0.28603,0.013744,-0.24374,0.10843,-4.92,41.34,-14.52
4.2904,-8.9486,-0.28603,0.012523,-0.24923,0.076664,-4.86,41.28,-14.46
4.2495,-8.9758,-0.28603,0.002138,-0.25962,0.053145,-4.86,41.22,-14.52
4.0316,-9.0575,-0.10896,-0.0033598,-0.2587,0.027489,-5.1,41.28,-14.58
4.0589,-9.0984,-0.19068,-0.0039706,-0.25992,0.019242,-5.04,41.22,-14.7
3.9771,-8.9894,-0.12258,-0.0054978,-0.25748,0.0079412,-5.04,41.22,-14.7
3.9635,-8.9349,-0.12258,-0.0061087,-0.27886,0.017715,-5.16,41.16,-14.7
3.9908,-8.9213,-0.14982,-0.017104,-0.29535,0.018937,-5.1,40.98,-14.82
3.8409,-8.8668,-0.054481,-0.029322,-0.29596,0.011912,-5.28,40.8,-14.7
3.8273,-8.8941,0.027241,-0.034208,-0.27519,-0.0073304,-5.34,40.56,-14.46
3.9227,-8.9077,0.027241,-0.029016,-0.25717,-0.017104,-5.34,40.68,-14.64
3.8001,-9.0031,0.054481,-0.013744,-0.25107,-0.029322,-5.52,40.74,-14.64
3.8409,-9.0031,0.14982,-0.0079412,-0.25107,-0.045204,-5.76,40.68,-14.64
3.7184,-8.9894,0.054481,-0.017715,-0.2416,-0.05681,-5.7,40.74,-14.52
3.7184,-9.0303,0.027241,-0.002138,-0.22113,-0.06689,-5.88,40.8,-14.22
3.6366,-9.0167,0.054481,-0.0039706,-0.19181,-0.080023,-6.12,40.8,-14.22
3.5822,-8.9622,-0.027241,0.010079,-0.16127,-0.081245,-6.24,40.8,-14.16
3.6775,-9.0575,-0.01362,0.019548,-0.15211,-0.075442,-6.36,40.68,-14.1
3.6094,-9.0167,0.01362,0.036346,-0.16249,-0.063835,-6.6,40.86,-14.16
3.6639,-8.9894,-0.095342,0.044593,-0.17959,-0.049786,-6.66,40.86,-14.16
3.6911,-9.0984,-0.054481,0.041539,-0.18479,-0.04612,-6.9,40.8,-13.86
3.5958,-9.0712,-0.17706,0.034208,-0.16127,-0.030849,-6.9,40.8,-13.86
3.6639,-9.0303,-0.21793,0.016188,-0.135,-0.031154,-6.96,40.68,-13.74
3.7047,-9.1256,-0.20431,0.014966,-0.10721,-0.028405,-7.2,40.74,-13.86
3.7456,-9.0712,-0.12258,0.010996,-0.096517,-0.041539,-7.38,40.62,-13.86
3.6911,-9.1256,-0.14982,0.0027489,-0.081856,-0.048258,-7.26,40.68,-13.74
3.7592,-9.1937,-0.19068,0.0015272,-0.055894,-0.057727,-7.56,40.62,-13.86
3.6639,-9.1937,-0.14982,-0.0064141,-0.050702,-0.070555,-7.44,40.62,-13.8
3.6503,-9.1393,-0.20431,-0.017715,-0.050091,-0.064752,-7.56,40.62,-14.04
3.6775,-9.1529,-0.23155,-0.012523,-0.055283,-0.058338,-7.62,40.56,-14.1
3.6503,-9.1256,-0.21793,-0.016188,-0.043066,-0.039706,-7.92,40.68,-14.16
3.623,-9.112,-0.19068,-0.035125,-0.036957,-0.0281,-7.8,40.74,-14.34
3.6366,-9.1529,-0.28603,-0.038485,-0.02138,-0.016799,-7.86,40.62,-14.16
3.6094,-9.1801,-0.19068,-0.039706,-0.010385,-0.015577,-7.98,40.5,-14.1
3.6775,-9.221,-0.19068,-0.046426,-0.0076358,-0.0097738,-8.16,40.5,-14.22
3.7184,-9.1256,-0.1362,-0.044288,-0.0048869,-0.0045815,-8.28,40.44,-14.22
3.7047,-9.2074,-0.20431,-0.047647,0.011912,0.012828,-8.52,40.38,-14.16
3.8137,-9.2346,-0.24517,-0.054062,0.020769,0.0039706,-8.58,40.32,-13.98
3.8682,-9.2346,-0.14982,-0.062919,0.036041,-0.0015272,-8.52,40.32,-13.92
3.8409,-9.1937,-0.1362,-0.075442,0.038485,0.0067195,-8.58,40.08,-13.86
3.8273,-9.1393,-0.095342,-0.07422,0.046426,-0.009163,-8.82,40.14,-13.8
3.8409,-9.0848,-0.10896,-0.069944,0.065668,-0.017104,-8.76,40.14,-13.86
3.7728,-9.0984,-0.12258,-0.07758,0.0956,-0.029016,-8.76,40.14,-13.92
3.8001,-9.1529,-0.12258,-0.087965,0.10232,-0.014966,-8.76,40.14,-13.98
3.8273,-9.0984,-0.027241,-0.09163,0.093768,-0.0061087,-8.76,40.32,-13.86
3.8682,-9.1665,-0.095342,-0.092241,0.094379,0.002138,-8.64,40.32,-13.98
3.8682,-9.1529,-0.10896,-0.086132,0.10354,0.010385,-8.64,40.32,-14.1
3.9227,-9.1256,-0.027241,-0.097433,0.11423,0.0076358,-8.82,40.32,-14.04
3.9499,-9.0575,-0.12258,-0.089797,0.12462,-0.010996,-8.76,40.26,-14.34
3.8409,-8.9213,-0.1362,-0.076969,0.14478,-0.030543,-8.64,40.38,-14.22
3.8001,-8.826,-0.095342,-0.075747,0.1628,-0.043982,-8.64,40.38,-14.1
3.7728,-8.8532,-0.21793,-0.063835,0.16616,-0.044593,-8.58,40.26,-14.22
3.7728,-8.9758,-0.01362,-0.050702,0.15669,-0.030238,-8.52,40.2,-14.22
3.8546,-9.0303,-0.054481,-0.04215,0.13531,0.031765,-8.4,40.2,-14.34
3.7728,-9.0575,-0.054481,-0.016799,0.11668,0.068417,-8.4,40.14,-14.22
3.8682,-8.9894,-0.01362,-0.000611,0.1124,0.10079,-8.34,40.02,-14.16
3.8954,-8.9894,-0.095342,0.0076358,0.11759,0.12034,-8.22,40.02,-14.16
4.0589,-9.0167,-0.081722,0.026267,0.11087,0.11881,-8.1,40.14,-14.22
4.127,-9.0848,-0.19068,0.030543,0.10446,0.13134,-8.04,40.2,-14.04
4.1406,-9.0712,-0.1362,0.025656,0.089492,0.13408,-7.92,40.2,-14.28
4.0861,-9.0303,-0.14982,0.033292,0.081856,0.13256,-7.86,40.2,-14.28
4.2223,-9.0984,-0.17706,0.028405,0.083383,0.14019,-7.8,40.32,-14.28
4.2359,-9.0848,-0.054481,0.036346,0.065973,0.13775,-7.74,40.38,-14.28
4.3313,-9.0575,-0.14982,0.035736,0.047037,0.13622,-7.56,40.32,-14.28
4.3449,-9.0439,-0.14982,0.039095,0.014355,0.12889,-7.32,40.62,-14.52
4.3721,-9.1256,-0.21793,0.043677,-0.016799,0.12981,-7.26,40.62,-14.4
4.4811,-9.1937,-0.39499,0.044593,-0.053145,0.12584,-7.08,40.62,-14.46
4.4811,-9.2074,-0.35413,0.025045,-0.092546,0.11118,-6.9,40.68,-14.58
4.5356,-9.221,-0.44947,0.0033598,-0.13256,0.10324,-6.66,40.62,-14.58
4.5083,-9.1529,-0.46309,-0.012828,-0.17013,0.065057,-6.66,40.56,-14.52
4.5083,-9.1529,-0.47671,-0.045204,-0.19395,0.042455,-6.48,40.62,-14.7
4.4811,-9.3027,-0.38137,-0.074526,-0.20189,0.020159,-6.36,40.56,-14.76
4.413,-9.3844,-0.39499,-0.12126,-0.20128,-0.01069,-6.3,40.56,-14.88
4.413,-9.3844,-0.38137,-0.19059,-0.18815,-0.03146,-6.48,40.62,-14.7
4.413,-9.3163,-0.31327,-0.22327,-0.20189,-0.034514,-6.42,40.62,-14.7
4.413,-9.2482,-0.25879,-0.24465,-0.23488,-0.057421,-6.54,40.56,-14.76
4.3449,-9.2346,-0.31327,-0.26786,-0.24251,-0.093462,-6.66,40.56,-14.7
4.2768,-9.2618,-0.38137,-0.27428,-0.22724,-0.13042,-6.84,40.5,-14.46
4.2632,-9.2482,-0.44947,-0.29566,-0.21197,-0.15669,-7.02,40.5,-14.34
4.127,-9.0848,-0.58567,-0.33384,-0.18021,-0.20861,-7.26,40.56,-14.1
4.0044,-9.0439,-0.64016,-0.37568,-0.12645,-0.24404,-7.62,40.74,-13.98
4.0044,-8.9213,-0.49033,-0.39798,-0.071166,-0.27825,-7.98,40.68,-13.8
3.9908,-8.8532,-0.61292,-0.40806,-0.019548,-0.31673,-8.16,40.68,-13.62
3.9499,-8.7851,-0.40861,-0.40867,0.029627,-0.3488,-8.58,40.68,-13.14
3.9908,-8.6081,-0.5993,-0.39523,0.077885,-0.37446,-8.94,40.86,-12.78
4.0589,-8.7306,-0.47671,-0.37568,0.090713,-0.37202,-9.3,40.8,-12.48
4.018,-8.5944,-0.50395,-0.37568,0.081856,-0.36957,-9.36,40.74,-12.3
4.018,-8.5263,-0.50395,-0.3259,0.06689,-0.33934,-9.66,40.86,-12.12
4.1814,-8.5672,-0.58567,-0.31154,0.041844,-0.2923,-10.14,40.92,-11.94
4.3177,-8.6353,-0.50395,-0.29413,0.0030543,-0.25412,-10.32,40.92,-11.88
4.2632,-8.6353,-0.50395,-0.28253,-0.034514,-0.22022,-10.62,40.92,-11.52
4.2768,-8.6353,-0.50395,-0.26206,-0.053145,-0.1909,-10.8,41.04,-11.4
4.2223,-8.6762,-0.55843,-0.22419,-0.031765,-0.14936,-11.22,40.98,-11.22
4.304,-8.7715,-0.51757,-0.19242,-0.013134,-0.12095,-11.4,41.1,-11.1
4.4811,-8.6762,-0.61292,-0.17043,-0.010996,-0.085827,-11.82,41.16,-11.1
4.699,-8.7034,-0.76274,-0.14294,-0.047647,-0.048258,-11.88,41.16,-11.04
4.8488,-8.5808,-0.8036,-0.10843,-0.17165,-0.0058032,-12.18,41.28,-11.04
4.9987,-8.6081,-0.89894,-0.075136,-0.39981,0.0067195,-12.36,41.34,-10.98
4.7807,-8.4855,-1.0488,-0.064752,-0.64843,0.021075,-12.72,41.28,-10.86
4.5628,-8.4174,-1.185,-0.037263,-0.80481,0.031765,-12.96,41.16,-10.8
4.413,-8.4855,-1.3076,-0.000916,-0.74739,0.03879,-13.02,41.22,-10.68
4.3449,-8.717,-1.4165,0.018937,-0.61331,0.023518,-13.08,41.34,-10.38
4.3449,-8.717,-1.4165,0.028405,-0.47739,0.018937,-13.08,41.34,-10.38
4.4811,-8.7715,-1.6889,0.036041,-0.39004,0.0051924,-13.26,41.22,-10.38
4.7944,-8.7306,-1.6481,0.051618,-0.38332,-0.021991,-13.32,41.4,-10.26
4.8625,-8.717,-1.6344,0.070555,-0.41753,-0.034208,-13.68,41.28,-10.08
4.8352,-8.7443,-1.757,0.074831,-0.49175,-0.018021,-13.86,41.22,-9.96
4.699,-8.8124,-1.866,0.066584,-0.58826,-0.0018326,-14.04,41.22,-9.72
4.6582,-8.6762,-1.757,0.05681,-0.60964,0.0085521,-14.1,41.28,-9.6
4.7263,-8.717,-1.8251,0.036346,-0.59651,0.028405,-14.16,41.22,-9.6
4.7671,-8.5672,-1.8796,-0.0073304,-0.60964,0.035736,-14.22,41.34,-9.54
4.6445,-8.5808,-1.7979,-0.0281,-0.61453,0.02138,-14.4,40.98,-9.48
4.4266,-8.4855,-1.8932,-0.052534,-0.54703,0.0048869,-14.64,41.1,-9.48
4.4947,-8.6081,-1.7706,-0.08094,-0.43494,-0.0018326,-14.76,40.8,-9.42
4.5356,-8.4174,-1.6072,-0.11484,-0.35186,-0.009163,-14.64,41.1,-9.48
4.6718,-8.3493,-1.5663,-0.077274,-0.38759,0.0061087,-14.58,41.04,-9.3
4.8352,-8.4038,-1.7298,-0.013744,-0.48381,0.013744,-14.82,41.1,-9.12
4.7535,-8.5127,-1.9477,0.027184,-0.54092,-0.0064141,-14.76,40.92,-8.76
4.413,-8.6898,-2.3291,-0.020159,-0.48075,-0.0562,-14.88,41.04,-8.34
3.732,-8.6353,-2.3155,-0.14783,-0.17165,-0.11851,-15.06,41.04,-8.1
3.514,-8.3901,-2.0431,-0.28191,0.33903,-0.19823,-15.18,41.04,-7.98
3.5413,-8.3765,-2.0294,-0.36896,1.2587,-0.2587,-15.18,41.04,-7.8
3.8818,-8.4719,-1.7706,-0.3824,1.8815,-0.3485,-15.42,41.1,-7.68
4.0725,-8.4582,-1.471,-0.38515,2.3744,-0.43249,-15.66,41.04,-7.68
4.7399,-8.2131,-0.8036,-0.3259,2.6408,-0.50152,-15.78,40.86,-7.86
5.0531,-8.1313,-0.61292,-0.25748,2.7254,-0.56077,-15.84,40.86,-7.98
5.3119,-7.9679,-0.29965,-0.17562,2.707,-0.62186,-16.08,40.74,-8.28
5.5162,-7.8862,-0.19068,-0.089797,2.5045,-0.62461,-16.08,40.74,-8.46
5.9249,-7.8045,-0.095342,-0.043982,2.0898,-0.58032,-16.26,40.56,-9.06
5.7069,-7.6819,-0.095342,0.022907,1.3387,-0.40714,-16.32,40.32,-9.72
5.4345,-7.6683,-0.027241,0.050091,0.97647,-0.26603,-16.32,40.26,-10.02
5.094,-7.6683,0.01362,0.087659,0.69944,-0.15211,-16.38,40.08,-10.86
4.9578,-7.7364,0.12258,0.11148,0.55039,-0.011912,-16.2,39.96,-11.64
5.0259,-7.8589,0.027241,0.14691,0.48411,0.1573,-16.26,39.78,-12.12
5.1213,-7.8317,0.027241,0.16096,0.46029,0.20281,-16.2,39.72,-12.3
5.3392,-7.8453,0.095342,0.20739,0.33934,0.32529,-15.96,39.66,-12.96
5.4073,-7.9951,0.24517,0.21961,0.2813,0.37843,-15.84,39.54,-13.56
5.5026,-8.1177,0.46309,0.23976,0.197,0.40836,-15.6,39.42,-14.22
5.7069,-8.2539,0.36775,0.26267,0.064446,0.44074,-15.36,39.36,-14.46
5.9657,-8.4991,0.28603,0.28986,-0.14478,0.48106,-15.06,39.54,-14.76
5.9249,-8.3765,0.35413,0.31062,-0.40195,0.5058,-14.7,39.42,-14.7
5.884,-8.4174,0.32689,0.37507,-0.73457,0.51221,-14.46,39.48,-14.88
5.489,-8.6898,0.14982,0.3821,-0.80176,0.49602,-14.22,39.54,-15.06
5.1621,-8.6898,0.081722,0.40653,-0.77946,0.44807,-13.8,39.6,-15.42
5.094,-8.6489,-0.1362,0.4047,-0.68906,0.41905,-13.56,39.78,-15.54
5.1076,-8.6625,-0.16344,0.40103,-0.63133,0.40684,-13.32,39.78,-15.66
5.2302,-8.7443,-0.19068,0.38943,-0.6295,0.40775,-13.38,39.78,-15.66
5.094,-8.7851,-0.28603,0.32345,-0.64507,0.43341,-13.14,39.78,-15.72
5.0668,-8.6762,-0.28603,0.29993,-0.65454,0.46456,-12.78,39.78,-15.72
4.9987,-8.7715,-0.42223,0.29291,-0.63744,0.47464,-12.66,39.78,-15.9
5.0531,-8.7034,-0.50395,0.29688,-0.59498,0.46304,-12.6,39.66,-15.66
5.1757,-8.9486,-0.58567,0.29902,-0.5733,0.43494,-12.24,39.66,-15.84
5.203,-9.0303,-0.53119,0.26725,-0.58918,0.36438,-12.0,39.6,-15.72
5.1349,-9.0031,-0.50395,0.17746,-0.57055,0.31001,-11.76,39.36,-15.6
4.9578,-9.0848,-0.47671,0.13195,-0.52198,0.24038,-11.58,39.24,-15.54
4.8897,-9.0848,-0.38137,0.10476,-0.43799,0.17715,-11.16,39.36,-15.6
4.7535,-9.0167,-0.29965,0.07422,-0.35736,0.12339,-11.1,39.42,-15.6
4.5764,-9.0167,-0.24517,0.030238,-0.27611,0.077274,-11.04,39.48,-15.66
4.5083,-8.8941,-0.19068,-0.0088575,-0.18326,0.049175,-11.04,39.48,-15.6
4.5628,-8.8805,0.027241,-0.021991,-0.12675,0.025351,-10.98,39.48,-15.6
4.5764,-8.8941,0.12258,-0.05681,-0.12156,-0.0027489,-10.98,39.54,-15.66
4.4811,-8.7851,0.27241,-0.082161,-0.14142,-0.0076358,-11.16,39.36,-15.54
4.413,-8.7715,0.29965,-0.082161,-0.14355,-0.0079412,-11.1,39.36,-15.54
4.3449,-8.7715,0.38137,-0.084299,-0.13347,-0.007025,-11.16,39.48,-15.3
4.3313,-8.8532,0.34051,-0.075136,-0.11668,-0.013744,-11.46,39.48,-15.06
4.304,-8.9213,0.38137,-0.057727,-0.11179,-0.025045,-11.58,39.42,-15.0
4.3994,-8.8124,0.38137,-0.04215,-0.12523,-0.016493,-11.34,39.42,-15.0
4.4539,-8.8941,0.28603,-0.029322,-0.18082,-0.000916,-11.46,39.36,-14.76
4.4402,-8.9894,0.31327,-0.017104,-0.27153,0.0058032,-11.52,39.42,-15.0
4.2087,-8.8668,0.23155,-0.014355,-0.33353,0.015577,-11.58,39.36,-15.0
4.1133,-8.8668,0.19068,-0.0088575,-0.33781,0.019242,-11.7,39.42,-14.94
4.0861,-8.9213,0.12258,-0.0024435,-0.23182,0.0067195,-11.76,39.36,-14.94
4.0316,-8.9622,0.12258,0.002138,-0.13103,0.0042761,-11.88,39.24,-15.12
4.0589,-8.9213,0.040861,-0.013744,-0.042455,0.0024435,-11.88,39.3,-15.12
4.1542,-8.9077,0.054481,-0.01405,0.009163,0.0061087,-11.94,39.3,-15.18
4.3449,-8.9486,0.054481,-0.019853,0.0042761,0.018021,-12.24,39.3,-15.18
4.3313,-8.9758,0.14982,-0.015882,-0.028711,0.027489,-12.36,39.36,-15.06
4.3177,-8.9758,0.10896,-0.010079,-0.055283,0.030543,-12.48,39.3,-15.0
4.2904,-8.9349,0.027241,-0.002138,-0.055283,0.034514,-12.54,39.3,-14.88
4.2904,-8.9213,-0.095342,-0.000305,-0.050396,0.03879,-12.48,39.18,-14.76
4.1814,-8.826,-0.12258,-0.0067195,-0.033598,0.03879,-12.6,39.18,-14.76
4.2768,-8.9213,-0.054481,-0.018631,0.0094684,0.038179,-12.6,39.36,-14.7
4.2904,-8.8941,-0.16344,-0.037263,0.050091,0.0562,-12.66,39.36,-14.76
4.3858,-8.8805,-0.068102,-0.054672,0.066584,0.062919,-12.6,39.18,-14.7
4.4539,-8.9077,-0.027241,-0.054062,0.048258,0.072998,-12.48,39.12,-14.7
4.4811,-9.0167,-0.068102,-0.062003,0.04215,0.079718,-12.3,39.12,-14.76
4.4811,-8.8941,-0.054481,-0.072388,0.035736,0.070555,-12.12,39.18,-15.06
4.4266,-8.826,-0.054481,-0.079412,0.037874,0.048564,-12.12,39.24,-15.06
4.4266,-8.8668,-0.054481,-0.076358,0.043371,0.039095,-12.18,39.36,-15.12
4.4266,-8.9349,-0.027241,-0.07758,0.055283,0.032376,-12.18,39.48,-15.24
4.4266,-8.9758,-0.040861,-0.086743,0.065363,0.027489,-12.24,39.54,-15.48
4.413,-8.9486,-0.040861,-0.083078,0.076358,0.033598,-12.24,39.42,-15.6
4.4402,-8.9758,-0.027241,-0.08491,0.077885,0.034819,-12.12,39.42,-15.54
4.5083,-8.8805,-0.16344,-0.087048,0.071777,0.036041,-12.12,39.54,-15.66
4.5492,-8.8532,-0.054481,-0.08491,0.064141,0.040317,-11.94,39.66,-15.66
4.4402,-8.8396,-0.14982,-0.083383,0.06017,0.031765,-12.12,39.6,-15.66
4.413,-8.8941,-0.095342,-0.081245,0.060781,0.024129,-12.18,39.54,-15.36
4.4811,-8.826,-0.081722,-0.091019,0.052534,0.025656,-12.3,39.42,-15.3
4.4402,-8.8532,-0.14982,-0.10385,0.049786,0.02138,-12.0,39.54,-15.12
4.413,-8.7987,-0.095342,-0.11606,0.053145,0.025351,-12.0,39.3,-14.94
4.413,-8.8805,-0.095342,-0.11454,0.062308,0.021991,-12.06,39.3,-14.82
4.5083,-8.8668,-0.095342,-0.11057,0.07025,0.018326,-12.0,39.36,-14.7
4.5083,-8.7987,-0.095342,-0.10721,0.073915,0.0045815,-12.12,39.3,-14.82
4.3721,-8.7306,-0.081722,-0.10537,0.076053,0.010079,-12.12,39.12,-14.82
4.413,-8.7579,-0.095342,-0.099571,0.07422,0.009163,-12.06,39.24,-14.76
4.4539,-8.6762,-0.14982,-0.090713,0.065668,0.025351,-12.0,39.36,-14.82
4.4811,-8.717,-0.040861,-0.084605,0.039706,0.037568,-12.0,39.54,-14.88
4.4811,-8.7715,-0.068102,-0.087965,0.011606,0.049175,-11.88,39.3,-15.06
4.4402,-8.8124,-0.12258,-0.087354,0.0033598,0.051618,-11.88,39.54,-15.18
4.5083,-8.7579,-0.095342,-0.077274,0.012217,0.047342,-11.82,39.66,-15.12
4.5356,-8.7987,-0.040861,-0.07025,0.015882,0.019853,-11.58,39.78,-15.12
4.4811,-8.8668,-0.027241,-0.064446,0.012217,0.011606,-11.4,39.78,-15.18
4.3994,-8.8941,-0.10896,-0.062003,0.0064141,0.007025,-11.52,39.9,-15.0
4.413,-8.826,-0.12258,-0.058032,0.0094684,0.007025,-11.4,39.96,-15.06
4.4402,-8.8124,-0.054481,-0.057421,-0.000611,0.012217,-11.52,39.96,-15.0
4.3585,-8.7579,-0.081722,-0.051924,-0.015882,0.0281,-11.46,39.9,-15.06
4.3858,-8.7987,-0.12258,-0.053145,-0.012828,0.039095,-11.52,39.9,-14.94
4.4947,-8.7306,-0.12258,-0.054367,-0.017715,0.038485,-11.4,39.96,-14.76
4.4947,-8.6898,-0.14982,-0.069333,-0.036346,0.059254,-11.46,40.02,-14.64
4.4539,-8.7443,-0.17706,-0.065973,-0.083994,0.065363,-11.46,39.9,-14.64
4.4266,-8.8124,-0.054481,-0.048258,-0.11851,0.065057,-11.4,39.78,-14.76
4.5083,-8.8124,-0.19068,-0.029627,-0.1408,0.064752,-11.52,39.84,-14.64
4.522,-8.8941,-0.16344,0.0045815,-0.18234,0.067501,-11.46,39.9,-14.58
4.7807,-9.0303,-0.14982,0.013744,-0.25626,0.045815,-11.58,39.78,-14.4
5.0123,-9.0439,-0.16344,0.030849,-0.58063,0.040012,-11.4,39.6,-14.4
5.38,-8.9622,-0.17706,0.027184,-0.76358,0.038179,-11.58,39.84,-14.28
5.0395,-8.7306,-0.35413,0.061392,-1.2978,0.052229,-11.58,39.72,-14.04
4.4947,-8.7579,-0.35413,0.090103,-1.3977,0.050396,-11.76,39.72,-13.86
3.7592,-8.9486,-0.50395,0.086132,-1.23,0.039095,-11.82,39.84,-13.98
3.4187,-9.0167,-0.6674,0.063835,-0.87506,-0.01069,-12.12,39.9,-13.92
3.2689,-9.1937,-0.83084,0.034819,-0.42425,-0.074526,-12.24,39.9,-13.86
3.4459,-9.112,-0.72188,-0.012217,0.25412,-0.15577,-12.48,40.02,-13.5
3.6094,-9.0712,-0.7355,-0.034208,0.47189,-0.18967,-12.6,40.14,-13.32
3.7047,-8.9213,-0.7355,-0.046731,0.85674,-0.25045,-12.78,39.96,-13.32
3.9635,-8.9758,-0.49033,-0.065363,1.2593,-0.33628,-13.2,39.78,-13.44
3.9635,-8.9758,-0.49033,-0.065363,1.2593,-0.33628,-13.2,39.78,-13.44
4.4402,-8.8124,-0.14982,-0.11942,1.2779,-0.39584,-13.26,39.78,-13.44
4.413,-8.6625,0.027241,-0.1295,1.2077,-0.37599,-13.26,39.72,-13.38
4.3449,-8.7306,0.068102,-0.14355,1.0284,-0.30513,-13.32,39.72,-13.68
4.3858,-8.6217,0.068102,-0.14722,0.75564,-0.15455,-13.32,39.6,-13.92
4.4266,-8.4174,0.12258,-0.11057,0.57635,-0.025351,-13.38,39.48,-14.04
4.4539,-8.322,0.20431,-0.048564,0.39156,0.094684,-13.26,39.42,-14.28
4.5356,-8.4991,0.14982,0.0076358,0.19364,0.18692,-13.32,39.36,-14.52
4.5764,-8.5536,0.068102,0.034208,0.0079412,0.25565,-13.26,39.42,-14.7
4.5083,-8.6353,0.01362,0.023518,-0.11973,0.30971,-13.26,39.42,-14.76
4.3721,-8.8532,0.054481,0.0067195,-0.17257,0.34147,-12.9,39.48,-14.76
4.3313,-8.9758,0.054481,-0.020159,-0.12889,0.3427,-12.84,39.54,-14.82
4.2904,-8.9486,0.095342,-0.037568,-0.053451,0.32926,-12.78,39.54,-15.06
4.3858,-8.8668,0.054481,-0.029016,0.041539,0.3091,-12.72,39.6,-15.06
4.522,-8.9894,0.027241,-0.019242,0.10934,0.28008,-12.66,39.6,-15.06
4.6718,-8.826,0.1362,-0.0097738,0.12217,0.24587,-12.3,39.78,-14.88
4.6718,-8.9349,0.23155,-0.002138,0.10232,0.21044,-12.06,39.66,-14.82
4.6854,-8.9486,0.19068,-0.0094684,0.081856,0.18692,-11.76,39.84,-14.94
4.6173,-8.9349,0.12258,-0.0018326,0.052534,0.15394,-11.16,39.96,-14.7
4.6173,-8.8396,0.17706,0.0042761,0.052534,0.15149,-10.92,39.96,-14.88
4.5764,-8.7987,0.14982,0.002138,0.070555,0.13011,-10.86,39.84,-14.94
4.699,-8.826,0.054481,-0.0094684,0.076664,0.11668,-10.5,40.02,-15.12
4.7399,-8.8941,0.12258,-0.02474,0.065973,0.10568,-10.2,40.2,-15.18
4.6582,-8.9349,0.027241,-0.019853,0.054978,0.092546,-9.96,40.2,-15.3
4.699,-8.9077,0.081722,-0.036041,0.042761,0.043677,-9.66,40.26,-15.3
4.6718,-8.8532,0.081722,-0.054062,0.054062,0.010079,-9.54,40.2,-15.36
4.5901,-8.8941,-0.027241,-0.0562,0.064446,-0.022297,-9.36,40.2,-15.36
4.5628,-8.9622,0.054481,-0.0562,0.075136,-0.061392,-9.18,40.2,-15.66
4.6037,-9.0303,0.054481,-0.059559,0.068722,-0.076358,-9.18,40.2,-15.84
4.6445,-9.0167,0.068102,-0.054672,0.055283,-0.094379,-9.18,40.2,-15.72
4.5628,-8.8668,-0.054481,-0.062308,0.021075,-0.1182,-9.18,40.14,-15.72
4.4402,-8.8941,-0.040861,-0.060476,0.01741,-0.13928,-9.24,40.08,-15.72
4.4811,-8.8941,-0.054481,-0.078191,0.031154,-0.15455,-9.18,40.14,-15.48
4.4811,-9.0984,-0.1362,-0.097433,0.03146,-0.1518,-9.3,39.9,-15.54
4.3858,-8.9894,-0.095342,-0.11973,0.051313,-0.17654,-9.54,39.84,-15.54
4.2904,-8.8941,-0.12258,-0.17104,0.13347,-0.21075,-9.72,39.78,-15.54
4.3449,-8.8805,-0.054481,-0.22113,0.21747,-0.22266,-9.72,39.72,-15.66
4.3721,-8.826,-0.054481,-0.23824,0.28833,-0.22174,-9.84,39.84,-15.66
4.4539,-8.9213,0.095342,-0.24007,0.30116,-0.2025,-9.9,39.78,-15.6
4.699,-8.8124,0.12258,-0.21044,0.23824,-0.17013,-10.14,39.66,-15.36
4.699,-8.7034,0.19068,-0.16768,0.13989,-0.14997,-10.08,39.6,-15.48
4.6582,-8.826,0.24517,-0.12004,0.035125,-0.13134,-10.26,39.48,-15.3
4.5083,-8.7987,0.1362,-0.08094,-0.071471,-0.092546,-10.44,39.48,-15.24
4.4811,-8.8668,0.12258,-0.056505,-0.11576,-0.07422,-10.32,39.48,-15.3
4.3858,-8.8124,0.12258,-0.047342,-0.12065,-0.04948,-10.56,39.48,-15.48
4.3449,-8.8532,0.10896,-0.045509,-0.096211,-0.021991,-10.86,39.3,-15.42
4.3449,-8.7034,0.17706,-0.048869,-0.088881,-0.010079,-10.86,39.3,-15.3
4.3721,-8.7306,0.12258,-0.04215,-0.081856,0.0033598,-10.86,39.36,-15.24
4.413,-8.6762,0.14982,-0.031154,-0.058032,0.025045,-11.28,39.36,-15.06
4.3858,-8.7034,0.1362,-0.018937,-0.053756,0.042455,-11.34,39.18,-15.0
4.4539,-8.6762,0.10896,-0.015272,-0.059254,0.053451,-11.4,39.12,-15.0
4.5764,-8.717,0.14982,0.000916,-0.085216,0.078802,-11.7,39.18,-15.0
4.5492,-8.7306,0.081722,0.0058032,-0.097738,0.093462,-11.7,39.36,-14.88
4.5764,-8.7306,0.054481,0.0051924,-0.092241,0.10171,-11.52,39.36,-14.94
4.6718,-8.7987,0.054481,0.0027489,-0.092241,0.10934,-11.64,39.3,-14.88
4.6309,-8.7034,0.01362,0.0082467,-0.081245,0.10415,-11.82,39.18,-14.88
4.6037,-8.7715,0.040861,0.028711,-0.091324,0.096822,-11.64,39.12,-14.88
4.6718,-8.7579,0.081722,0.029322,-0.090103,0.085521,-11.58,39.42,-14.94
4.6309,-8.826,0.081722,0.017715,-0.090713,0.079412,-11.46,39.42,-15.12
4.6445,-8.7987,-0.027241,0.019853,-0.080634,0.06689,-11.4,39.48,-15.12
4.6037,-8.7579,-0.095342,0.018326,-0.077885,0.065973,-11.34,39.48,-15.36
4.6445,-8.7987,-0.14982,0.015882,-0.075747,0.06017,-11.28,39.6,-15.36
4.7263,-8.8396,-0.10896,-0.002138,-0.069028,0.050091,-11.22,39.78,-15.3
4.699,-8.8124,-0.081722,-0.026573,-0.065973,0.031154,-10.8,39.72,-15.36
4.6037,-8.7579,-0.12258,-0.024129,-0.05681,0.021686,-10.92,39.78,-15.24
4.5492,-8.7851,-0.16344,-0.030543,-0.037263,0.0067195,-11.04,39.84,-15.24
4.6309,-8.826,-0.1362,-0.033598,-0.021075,0.0067195,-10.86,39.9,-15.42
4.699,-8.8396,-0.054481,-0.034819,-0.031154,0.0073304,-10.68,40.08,-15.12
4.6445,-8.826,-0.095342,-0.041844,-0.04948,0.0027489,-10.8,40.02,-15.12
4.6173,-8.7306,-0.054481,-0.053756,-0.054672,0.0067195,-10.74,40.14,-15.06
4.5764,-8.826,-0.054481,-0.05681,-0.041233,-0.018631,-10.74,40.08,-15.0
4.522,-8.7715,-0.054481,-0.052229,-0.036652,-0.028711,-10.74,40.08,-15.0
4.413,-8.7715,0.027241,-0.053756,-0.023213,-0.031765,-10.74,40.14,-14.82
4.4266,-8.7987,-0.054481,-0.046426,-0.0058032,-0.030849,-10.86,40.14,-14.76
4.413,-8.8124,-0.054481,-0.051924,-0.0082467,-0.018631,-10.92,40.14,-14.76
4.5083,-8.7306,0.095342,-0.051007,-0.014966,-0.011606,-10.98,40.26,-14.7
4.4811,-8.6898,0.081722,-0.048564,-0.026878,0.002138,-11.04,39.96,-14.82
4.3994,-8.7034,0.054481,-0.048258,-0.0064141,-0.000305,-11.1,39.96,-14.7
4.4266,-8.6898,0.1362,-0.049175,-0.000305,0.0036652,-11.28,40.02,-14.64
4.522,-8.7715,0.081722,-0.03543,0.017715,0.015577,-11.52,39.78,-14.58
4.5083,-8.7443,0.081722,-0.022907,0.0058032,0.021075,-11.46,39.84,-14.58
4.5083,-8.7306,0.12258,-0.013134,-0.0073304,0.022602,-11.46,39.9,-14.58
4.4947,-8.7034,0.10896,-0.010385,-0.0082467,0.035125,-11.46,39.9,-14.46
4.4539,-8.7715,0.081722,-0.013134,-0.0061087,0.030543,-11.46,39.72,-14.52
4.4947,-8.7715,-0.040861,-0.011301,0.010385,0.035736,-11.52,39.72,-14.58
4.522,-8.7715,-0.01362,-0.012217,0.024435,0.043982,-11.34,39.72,-14.64
4.5764,-8.8124,-0.040861,-0.007025,0.022297,0.04612,-11.28,39.66,-14.76
4.5764,-8.7715,-0.040861,-0.0048869,0.022907,0.038179,-11.28,39.78,-14.64
4.5356,-8.7987,-0.027241,-0.0054978,0.022297,0.032681,-11.4,39.84,-14.58
4.5764,-8.7851,-0.054481,0.000611,0.032987,0.039706,-11.52,39.96,-14.7
4.5356,-8.7715,-0.081722,0.0030543,0.020769,0.04948,-11.52,39.9,-14.64
4.5901,-8.7851,-0.10896,0.0088575,0.0045815,0.057727,-11.46,40.08,-15.06
4.6037,-8.8668,-0.095342,-0.01069,-0.010996,0.071166,-11.4,40.08,-15.06
4.6445,-8.717,-0.16344,-0.02138,-0.0073304,0.061392,-11.52,40.08,-15.12
4.5492,-8.7034,-0.12258,-0.03207,0.014355,0.036652,-11.7,40.08,-15.24
4.5356,-8.6898,-0.054481,-0.037874,0.03207,0.017104,-11.7,40.08,-15.12
4.5356,-8.7306,-0.10896,-0.041539,0.036957,0.021075,-11.64,40.08,-15.18
4.5083,-8.7306,-0.054481,-0.048869,0.034514,0.028711,-11.58,39.9,-15.18
4.6037,-8.7987,0.081722,-0.044593,0.022297,0.036652,-11.88,39.84,-15.12
4.6037,-8.8124,0.095342,-0.037874,0.013744,0.034819,-12.06,39.72,-15.3
4.6309,-8.7443,0.095342,-0.045204,0.013439,0.033598,-11.94,39.54,-15.3
4.6173,-8.7987,0.027241,-0.025351,0.026267,0.02474,-11.58,39.48,-15.18
4.6854,-8.7987,-0.054481,-0.029627,0.021686,0.021991,-11.58,39.48,-15.24
4.6309,-8.7987,-0.054481,-0.01741,0.014966,0.019242,-11.64,39.54,-15.3
4.5492,-8.8124,0.027241,-0.019548,-0.000305,0.016493,-11.76,39.54,-15.3
4.522,-8.7987,0.027241,-0.025656,-0.002138,0.024435,-11.7,39.48,-15.18
4.5356,-8.8124,-0.040861,-0.026267,0.01069,0.025045,-11.64,39.42,-15.18
4.4811,-8.7579,-0.040861,-0.03207,0.0039706,0.025045,-11.7,39.54,-15.12
4.5083,-8.8124,-0.068102,-0.022602,0.0061087,0.033903,-11.76,39.54,-15.12
4.5492,-8.8668,-0.068102,-0.031154,0.0064141,0.035125,-11.82,39.6,-15.18
4.4811,-8.826,0.054481,-0.03207,0.0048869,0.034819,-11.64,39.72,-15.24
4.5492,-8.7715,0.01362,-0.028711,0.0030543,0.025656,-11.58,39.78,-15.18
4.4947,-8.8668,0.027241,-0.036041,0.0018326,0.023824,-11.52,39.9,-15.18
4.4675,-8.826,-0.027241,-0.038179,0.025962,0.029932,-11.58,39.78,-15.54
4.5628,-8.8124,0.01362,-0.038179,0.025962,0.032376,-11.58,39.72,-15.54
4.5083,-8.8396,0.095342,-0.035736,0.0094684,0.036957,-11.46,39.66,-15.48
4.5764,-8.7715,-0.027241,-0.03207,-0.000611,0.035736,-11.46,39.66,-15.36
4.5492,-8.7987,0.054481,-0.03146,0.0036652,0.030543,-11.28,39.66,-15.42
4.5628,-8.8124,0.054481,-0.033598,0.016799,0.01741,-11.22,39.66,-15.42
4.5356,-8.8668,0.027241,-0.037568,0.01741,0.011912,-11.1,39.42,-15.42
4.4947,-8.8532,-0.054481,-0.038179,0.025962,-0.002138,-11.16,39.36,-15.36
4.5083,-8.7987,0.054481,-0.040623,0.023824,-0.0042761,-11.16,39.42,-15.48
4.4266,-8.7851,-0.027241,-0.03543,0.018326,-0.0024435,-11.22,39.42,-15.48
4.4402,-8.7987,0.01362,-0.040317,0.021686,0.0061087,-11.28,39.36,-15.48
4.4539,-8.826,0.068102,-0.051007,0.023518,0.018326,-11.34,39.3,-15.54
4.4539,-8.7987,0.12258,-0.040012,0.020159,0.015882,-11.46,39.3,-15.42
4.4675,-8.7987,0.027241,-0.04215,0.025351,0.012523,-11.4,39.42,-15.36
4.4402,-8.826,0.027241,-0.026267,0.022297,0.017715,-11.28,39.42,-15.3
4.4811,-8.7579,0.095342,-0.033598,0.025656,0.014966,-11.28,39.42,-15.36
4.4539,-8.7306,0.027241,-0.029322,0.024435,0.018021,-11.4,39.54,-15.42
4.4675,-8.7579,0.095342,-0.027794,0.028711,0.024435,-11.34,39.6,-15.42
4.4947,-8.8396,0.054481,-0.037263,0.023518,0.032987,-11.22,39.72,-15.48
4.5356,-8.826,0.095342,-0.026267,0.018021,0.029627,-11.04,39.84,-15.48
4.4402,-8.8668,0.040861,-0.026878,0.022907,0.028711,-10.92,39.9,-15.36
4.5083,-8.8941,0.24517,-0.02138,0.035736,0.024129,-10.86,39.78,-15.3
4.6309,-8.8124,0.10896,-0.020769,0.036957,0.029016,-10.8,39.84,-15.3
4.522,-8.8532,-0.01362,-0.022602,0.023824,0.018021,-10.74,39.78,-15.24
4.5628,-8.8124,0.095342,-0.019242,0.0281,0.018937,-10.44,39.72,-15.24
4.6037,-8.8668,0.081722,-0.021075,0.025962,0.032681,-10.44,39.72,-15.18
4.522,-8.8124,0.027241,-0.022602,0.013744,0.040012,-10.5,39.78,-15.18
4.5628,-8.826,0.095342,-0.026267,-0.0018326,0.036957,-10.44,39.66,-15.12
4.5764,-8.8668,0.095342,-0.029016,0.0036652,0.03543,-10.38,39.66,-15.12
4.6037,-8.7987,0.095342,-0.032681,0.01069,0.015577,-10.44,39.66,-15.12
4.6445,-8.8668,-0.027241,-0.031765,0.020769,0.0012217,-10.44,39.72,-15.24
4.5492,-8.7987,0.081722,-0.038485,0.023824,0.000305,-10.5,39.66,-15.3
4.5356,-8.826,0.054481,-0.033598,0.02138,-0.0079412,-10.56,39.6,-15.24
4.4811,-8.7987,0.01362,-0.044593,0.019853,-0.0039706,-10.5,39.78,-15.24
4.4947,-8.826,0.068102,-0.054062,0.018631,-0.0048869,-10.62,39.96,-15.3
4.4811,-8.8941,-0.040861,-0.048258,0.011301,-0.0012217,-10.5,40.02,-15.36
4.4266,-8.8668,0.10896,-0.050091,0.013439,0.0036652,-10.68,40.38,-15.24
4.4947,-8.8941,0.027241,-0.051007,0.018631,0.0061087,-10.62,40.26,-15.36
4.5083,-8.826,0.040861,-0.058032,0.022907,0.0015272,-10.56,40.2,-15.3
4.5083,-8.7987,0.027241,-0.057421,0.030543,-0.002138,-10.5,40.32,-15.36
4.522,-8.7715,0.054481,-0.0562,0.021991,0.0076358,-10.56,40.26,-15.24
4.3858,-8.8396,0.12258,-0.052229,0.016188,0.010385,-10.44,40.26,-15.24
4.4811,-8.7987,0.12258,-0.047647,0.019548,0.018631,-10.62,40.26,-14.94
4.5356,-8.7987,0.095342,-0.046426,0.018937,0.019548,-10.68,40.2,-15.06
4.4811,-8.7851,0.095342,-0.045815,0.023518,0.01405,-10.68,40.2,-15.12
4.4947,-8.8124,0.10896,-0.045815,0.023213,0.01741,-10.8,40.02,-15.18
4.5492,-8.7579,0.1362,-0.035736,0.021991,0.016799,-10.62,39.84,-15.06
4.5492,-8.6762,0.081722,-0.027794,0.012217,0.013744,-10.68,39.9,-15.06
4.4675,-8.7443,0.16344,-0.029016,0.013439,0.010996,-10.68,39.66,-15.06
4.4266,-8.8124,0.10896,-0.039401,0.018326,0.025351,-10.8,39.66,-15.06
4.5083,-8.826,0.054481,-0.038179,0.020159,0.025962,-10.8,39.54,-15.18
4.6037,-8.826,0.040861,-0.032681,-0.0018326,0.032681,-10.8,39.66,-15.06
4.4947,-8.8668,0.095342,-0.032987,-0.0030543,0.03207,-10.68,39.84,-15.12
4.5764,-8.9213,0.01362,-0.033598,0.012217,0.020159,-10.68,39.72,-15.12
4.5628,-8.8668,0.040861,-0.031765,0.022602,0.007025,-10.68,39.78,-15.24
4.5492,-8.8668,0.054481,-0.035736,0.02138,0.0048869,-10.74,39.78,-15.18
4.5083,-8.826,0.054481,-0.034208,0.014966,-0.0048869,-10.86,39.78,-15.06
4.4675,-8.8396,0.054481,-0.030238,0.0088575,-0.0030543,-10.8,39.84,-14.88
4.4539,-8.826,0.054481,-0.035125,-0.007025,0.0051924,-10.74,39.84,-14.94
4.4266,-8.8396,0.027241,-0.033903,-0.019242,0.019853,-10.86,39.84,-14.94
4.3721,-8.8396,0.040861,-0.035125,-0.016799,0.032681,-10.92,39.96,-14.94
4.4947,-8.9213,0.040861,-0.030238,-0.016493,0.031154,-10.74,40.02,-14.94
4.4539,-8.8805,0.081722,-0.033292,-0.016188,0.033903,-10.74,40.2,-15.18
4.4266,-8.826,0.027241,-0.031154,-0.011606,0.024129,-10.74,40.14,-15.18
4.4266,-8.8668,0.054481,-0.034514,-0.009163,0.031765,-10.8,40.08,-15.06
4.4402,-8.8124,0.054481,-0.029627,-0.020464,0.024435,-10.86,40.14,-15.18
4.413,-8.826,0.054481,-0.032987,-0.024129,0.029322,-10.74,40.14,-15.18
4.4947,-8.8805,0.095342,-0.031765,-0.027489,0.032376,-10.68,40.08,-15.06
4.522,-8.9213,0.095342,-0.03543,-0.02138,0.025045,-10.68,40.14,-15.24
4.5492,-8.8941,0.054481,-0.048564,-0.014661,0.019853,-10.62,40.08,-15.36
4.522,-8.8532,0.027241,-0.042455,-0.0076358,0.018937,-10.8,40.2,-15.42
4.4811,-8.7987,0.027241,-0.047342,-0.015272,0.0039706,-10.62,40.32,-15.36
4.5083,-8.8396,0.01362,-0.049786,-0.007025,0.013744,-10.5,40.38,-15.42
4.5356,-8.8532,0.01362,-0.055283,-0.0045815,0.016493,-10.8,40.5,-15.42
4.6445,-8.8532,0.040861,-0.062614,-0.018326,0.021686,-10.86,40.44,-15.36
4.6445,-8.8124,0.01362,-0.059254,-0.040623,0.022602,-10.92,40.38,-15.24
4.6309,-8.8668,0.027241,-0.0562,-0.043371,0.018937,-10.86,40.38,-15.3
4.522,-8.7987,0.027241,-0.051007,-0.034819,0.0045815,-10.86,40.2,-15.3
4.6173,-8.8532,0.054481,-0.048564,-0.025656,-0.010079,-10.86,40.2,-15.24
4.5356,-8.7851,0.054481,-0.057421,-0.02138,-0.017104,-10.8,40.14,-15.18
4.4947,-8.7987,0.01362,-0.060781,-0.01741,-0.020159,-10.92,40.2,-15.24
4.5356,-8.826,0.081722,-0.055283,-0.027794,-0.011606,-10.92,40.32,-15.18
4.4947,-8.8396,0.068102,-0.058643,-0.029932,-0.014355,-10.86,40.38,-15.18
4.4811,-8.8124,0.095342,-0.055589,-0.029322,-0.0015272,-11.04,40.26,-15.06
4.5356,-8.7987,0.027241,-0.055894,-0.027489,0.0048869,-11.16,40.2,-15.06
4.4811,-8.7715,0.054481,-0.042761,-0.027184,0.0042761,-11.1,40.08,-15.06
4.5083,-8.8124,0.054481,-0.046426,-0.025962,0.0033598,-10.98,39.84,-14.94
4.522,-8.7851,0.081722,-0.043371,-0.030849,0.011301,-11.04,39.9,-15.0
4.4402,-8.8668,-0.1362,-0.050091,-0.029932,0.014355,-11.16,39.9,-14.94
4.4266,-8.7851,0.027241,-0.036346,-0.030238,0.026267,-11.16,39.9,-15.0
4.5083,-8.7579,0.068102,-0.039095,-0.026878,0.027489,-11.34,39.96,-15.0
4.4811,-8.7987,0.068102,-0.040928,-0.025962,0.030238,-11.52,40.08,-15.06
4.5083,-8.7306,0.068102,-0.036652,-0.021991,0.030238,-11.52,39.96,-15.06
4.4947,-8.7715,0.027241,-0.030543,-0.014355,0.030849,-11.46,40.02,-15.06
4.4811,-8.7987,0.054481,-0.03146,-0.013134,0.037568,-11.46,39.9,-14.88
4.4947,-8.717,0.054481,-0.01741,-0.016799,0.030238,-11.58,39.9,-15.06
4.4811,-8.7306,-0.027241,-0.029932,-0.015882,0.027489,-11.58,39.84,-15.06
4.4675,-8.7443,0.027241,-0.023824,0.0042761,0.03207,-11.58,39.9,-15.12
4.4266,-8.7579,-0.01362,-0.020464,0.0033598,0.049175,-11.64,39.84,-15.24
4.4947,-8.8124,-0.054481,-0.022602,-0.0030543,0.050091,-11.64,39.72,-15.24
4.4811,-8.7306,-0.054481,-0.013134,-0.019853,0.04948,-11.64,39.72,-15.36
4.5356,-8.7851,0.040861,-0.017715,-0.010079,0.034819,-11.58,39.6,-15.3
4.5356,-8.7443,0.040861,-0.018937,-0.0048869,0.021075,-11.58,39.72,-15.3
4.4811,-8.7715,-0.01362,-0.021075,0.0097738,0.0067195,-11.34,39.66,-15.24
4.4402,-8.7579,0.027241,-0.03146,0.017104,0.0088575,-11.28,39.66,-15.18
4.3994,-8.7987,-0.040861,-0.035125,0.021686,0.014355,-11.1,39.6,-15.24
4.3858,-8.7987,-0.01362,-0.025045,0.019853,0.018021,-11.1,39.54,-15.24
4.4402,-8.8668,0.054481,-0.036041,0.018937,0.028405,-10.98,39.54,-15.12
4.4266,-8.7715,0.027241,-0.032987,0.022907,0.0281,-10.86,39.48,-14.94
4.4266,-8.7715,0.027241,-0.020159,0.025045,0.025656,-10.98,39.54,-15.0
4.3994,-8.8124,0.027241,-0.023518,0.03207,0.029627,-10.92,39.54,-14.88
4.4675,-8.7715,0.027241,-0.024435,0.031765,0.03146,-10.8,39.72,-14.82
4.4266,-8.7987,0.027241,-0.029016,0.024435,0.038179,-10.56,39.66,-14.64
4.4402,-8.7715,-0.027241,-0.026573,0.022602,0.044593,-10.5,39.72,-14.7
4.4947,-8.7715,-0.081722,-0.032681,0.028405,0.049175,-10.62,39.66,-14.7
4.5628,-8.7987,-0.054481,-0.025962,0.026267,0.040623,-10.68,39.66,-14.76
4.5764,-8.7851,-0.054481,-0.028711,0.027794,0.038179,-10.68,39.72,-14.7
4.5083,-8.8396,0.01362,-0.03207,0.032987,0.03879,-10.74,39.66,-14.7
4.5492,-8.7851,0.1362,-0.04215,0.037263,0.024435,-10.68,39.72,-14.7
4.5356,-8.7715,0.040861,-0.036957,0.045509,0.015882,-10.74,39.72,-14.82
4.5083,-8.8124,-0.054481,-0.041844,0.052534,0.0042761,-10.68,39.66,-14.94
4.4811,-8.7851,0.095342,-0.036957,0.051618,0.0033598,-10.62,39.66,-14.88
4.5083,-8.7987,0.027241,-0.042455,0.057116,0.0085521,-10.38,39.72,-14.88
4.6037,-8.7851,0.01362,-0.040928,0.030849,0.014966,-10.44,39.6,-15.0
4.5901,-8.7851,0.01362,-0.037263,0.020159,0.016188,-10.5,39.66,-15.12
4.6037,-8.7987,0.081722,-0.028405,0.020769,0.015882,-10.62,39.66,-15.06
4.6037,-8.8124,0.17706,-0.025962,0.019242,0.009163,-10.56,39.6,-15.06
4.6173,-8.8668,0.12258,-0.01741,0.013439,-0.0015272,-10.56,39.72,-15.0
4.5083,-8.8668,0.20431,-0.019242,0.0079412,-0.011912,-10.56,39.6,-15.0
4.4402,-8.7987,0.20431,-0.013439,0.022297,-0.024435,-10.56,39.54,-15.12
4.5356,-8.826,0.20431,-0.010079,0.013134,-0.0094684,-10.56,39.42,-15.12
4.4675,-8.7715,0.027241,-0.015882,-0.000611,-0.0024435,-10.5,39.36,-15.18
4.4947,-8.8396,-0.027241,-0.016188,-0.0051924,-0.002138,-10.5,39.54,-14.82
4.4675,-8.8805,-0.081722,-0.027794,0.007025,0.0039706,-10.62,39.42,-14.82
4.4811,-8.7987,-0.027241,-0.023213,0.012217,-0.0030543,-10.86,39.54,-14.7
4.4811,-8.826,-0.027241,-0.020464,0.0036652,-0.0073304,-10.8,39.72,-14.76
4.4539,-8.8532,0.027241,-0.029322,-0.000305,0.0033598,-10.68,39.78,-14.7
4.4402,-8.8396,0.081722,-0.031765,-0.0024435,0.014355,-10.68,39.78,-14.82
4.4266,-8.826,-0.040861,-0.022602,-0.011301,0.018937,-10.62,39.96,-14.7
4.413,-8.8668,0.027241,-0.025962,-0.011606,0.023824,-10.68,39.78,-14.76
4.5356,-8.8941,0.01362,-0.03146,-0.01741,0.022602,-10.74,39.9,-14.76
4.4947,-8.8396,0.095342,-0.038485,-0.021075,0.018937,-10.68,39.96,-14.7
4.4675,-8.8668,0.095342,-0.040623,-0.015272,0.016799,-10.68,40.08,-14.52
4.5356,-8.8124,0.1362,-0.047647,-0.010385,0.015882,-10.74,39.96,-14.46
4.4675,-8.8532,0.068102,-0.038179,0.0015272,-0.000916,-10.68,39.9,-14.64
4.413,-8.7306,0.054481,-0.044593,0.014966,0.0012217,-10.74,39.96,-14.7
4.4675,-8.7851,0.040861,-0.055283,0.015577,0.011912,-10.74,39.9,-14.7
4.522,-8.7579,0.068102,-0.045204,-0.0067195,0.024435,-10.92,39.78,-14.58
4.5083,-8.8396,0.14982,-0.038179,-0.01405,0.023824,-10.98,39.6,-14.64
4.5356,-8.8532,0.054481,-0.029932,-0.000305,0.031765,-10.98,39.54,-14.7
4.6309,-8.7987,0.10896,-0.033903,0.0015272,0.019242,-11.04,39.48,-14.82
4.6037,-8.7987,0.10896,-0.031154,0.01069,0.002138,-10.98,39.48,-14.82
4.413,-8.7715,0.095342,-0.032376,0.014966,-0.0097738,-10.92,39.6,-14.82
4.5083,-8.7851,0.068102,-0.03543,0.029627,-0.01405,-10.86,39.54,-15.06
4.4402,-8.7851,0.081722,-0.03543,0.023518,-0.0039706,-10.98,39.66,-15.06
4.4402,-8.7987,0.040861,-0.026573,-0.0030543,0.013744,-10.98,39.84,-15.18
4.4811,-8.7715,0.068102,-0.018326,-0.021991,0.026573,-11.1,39.9,-15.24
4.4402,-8.826,0.081722,-0.027489,-0.017104,0.028711,-11.04,39.9,-15.3
4.4402,-8.8124,0.28603,-0.016799,0.0033598,0.025656,-10.92,39.96,-15.24
4.4402,-8.7443,0.1362,-0.011912,0.019242,0.01741,-10.86,39.9,-15.24
4.4539,-8.7579,0.10896,-0.016493,0.012828,0.039095,-10.86,40.08,-15.06
4.4266,-8.7715,0.12258,-0.019242,-0.000305,0.037263,-10.8,40.14,-14.94
4.3177,-8.7987,0.12258,-0.011301,-0.0076358,0.046731,-10.74,40.08,-15.0
4.3858,-8.8668,0.12258,-0.011606,0.0076358,0.0562,-10.8,40.02,-15.06
4.5083,-8.9758,0.23155,-0.014966,0.013744,0.055894,-10.68,39.96,-15.0
4.5356,-8.8941,0.21793,-0.0067195,0.0036652,0.058032,-10.68,39.9,-15.0
4.5492,-8.9077,0.16344,0.01069,0.0012217,0.043677,-10.56,39.84,-15.18
4.522,-8.8396,0.040861,0.0073304,0.0067195,0.041539,-10.44,39.78,-15.18
4.5083,-8.9486,0.027241,-0.010079,0.021686,0.030849,-10.26,39.84,-15.06
4.4402,-8.8668,-0.027241,-0.0061087,0.032681,0.016799,-10.2,39.9,-15.06
4.4675,-8.826,-0.027241,-0.028711,0.027489,0.021991,-10.14,39.84,-15.18
4.5356,-8.8532,-0.027241,-0.041233,0.01741,0.037263,-10.14,39.84,-15.36
4.5901,-8.826,-0.068102,-0.051007,-0.0097738,0.033903,-10.14,39.78,-15.54
4.5764,-8.7851,-0.068102,-0.06353,-0.0082467,0.02474,-10.08,39.72,-15.54
4.5901,-8.8396,-0.068102,-0.062614,0.011606,0.0042761,-10.02,39.84,-15.42
4.4811,-8.8805,0.095342,-0.064446,0.026573,-0.009163,-10.14,39.9,-15.6
4.5492,-8.8396,0.12258,-0.061392,0.03543,-0.017715,-10.26,39.84,-15.6
4.5083,-8.826,0.054481,-0.061087,0.018937,-0.0067195,-10.44,39.84,-15.54
4.5356,-8.7715,0.054481,-0.064141,-0.0048869,0.026878,-10.32,39.96,-15.42
4.5083,-8.8396,0.068102,-0.059865,-0.037568,0.036041,-10.38,39.9,-15.36
4.6445,-8.8805,0.054481,-0.067806,-0.043066,0.038485,-10.5,39.84,-15.42
4.5356,-8.9349,0.095342,-0.076053,-0.021991,0.011912,-10.5,39.78,-15.42
4.5628,-8.9077,0.040861,-0.071471,0.015272,-0.0088575,-10.62,39.72,-15.24
4.5901,-8.8124,0.027241,-0.080634,0.031154,-0.026573,-10.62,39.78,-15.24
4.5628,-8.826,0.1362,-0.086132,0.020159,-0.028711,-10.68,39.78,-15.36
4.5356,-8.7715,0.01362,-0.093768,-0.0027489,-0.0281,-10.8,39.78,-15.48
4.4947,-8.6353,0.027241,-0.090713,-0.0097738,-0.019548,-10.86,39.78,-15.42
4.3721,-8.6762,0.17706,-0.095295,0.013134,-0.02138,-10.86,40.02,-15.36
4.3994,-8.7715,0.054481,-0.081856,0.021686,-0.015577,-10.86,40.08,-15.36
4.3994,-8.7579,0.12258,-0.069333,0.021075,-0.0067195,-10.92,40.14,-15.24
4.5356,-8.7443,0.068102,-0.065363,-0.0073304,0.011606,-10.92,40.08,-15.3
4.5083,-8.7443,0.14982,-0.057727,-0.013134,0.014355,-10.98,40.14,-15.36
4.3721,-8.7443,0.20431,-0.064141,-0.0076358,0.015577,-11.1,40.2,-15.24
4.3177,-8.6898,0.10896,-0.038485,0.025351,0.015577,-11.16,40.08,-15.24
4.413,-8.7715,0.095342,-0.025962,0.044899,0.011606,-11.1,40.14,-15.36
4.5356,-8.7987,0.054481,-0.017715,0.030543,0.028711,-11.22,40.14,-15.3
4.5083,-8.7306,0.095342,-0.018021,-0.012523,0.049786,-11.16,40.32,-15.3
4.4539,-8.7579,0.095342,-0.014966,-0.017715,0.058338,-10.98,40.32,-15.18
4.4539,-8.6625,0.054481,-0.013439,-0.0094684,0.053145,-10.92,40.26,-15.24
4.5356,-8.7443,-0.040861,-0.007025,0.000611,0.050091,-11.04,40.02,-15.36
4.4811,-8.7987,0.01362,-0.0042761,-0.0027489,0.043371,-11.1,40.08,-15.36
4.5356,-8.7851,-0.068102,-0.015577,-0.0036652,0.029627,-11.22,40.08,-15.24
4.5356,-8.826,-0.081722,-0.029322,0.015882,0.013439,-11.28,40.02,-15.48
4.5492,-8.826,-0.081722,-0.034819,0.032681,0.0079412,-11.28,39.96,-15.54
4.5356,-8.8124,-0.081722,-0.037568,0.027184,0.0045815,-11.16,40.02,-15.6
4.5628,-8.7443,0.081722,-0.032376,0.017715,0.009163,-11.1,40.2,-15.66
4.5356,-8.7715,0.14982,-0.0281,0.017715,0.015577,-11.16,40.08,-15.66
4.4539,-8.7034,0.1362,-0.019853,0.0094684,0.0058032,-11.1,39.96,-15.6
4.4811,-8.7715,0.027241,-0.023824,0.0039706,0.025962,-11.04,39.96,-15.42
4.4947,-8.7715,0.027241,-0.021991,-0.0079412,0.020159,-11.22,40.02,-15.3
4.5764,-8.7715,-0.01362,-0.020464,-0.01405,0.025045,-11.1,40.02,-15.18
4.6582,-8.8124,-0.040861,-0.022602,-0.014355,0.0088575,-10.98,40.02,-15.18
4.6173,-8.826,0.027241,-0.030238,-0.0048869,-0.013134,-10.92,40.02,-15.12
4.5764,-8.7715,0.027241,-0.042455,0.018021,-0.034208,-10.86,39.9,-15.18
4.4675,-8.826,0.040861,-0.040623,0.045509,-0.050091,-10.8,39.96,-14.94
4.4811,-8.7715,0.10896,-0.041233,0.044899,-0.037263,-10.62,40.02,-14.88
4.4811,-8.7715,0.040861,-0.043982,0.039401,-0.032987,-10.74,40.02,-14.76
4.3721,-8.7306,0.10896,-0.025962,0.016188,-0.018021,-10.74,39.9,-14.76
4.3585,-8.6625,0.16344,-0.016799,0.0027489,0.013134,-10.74,39.9,-14.76
4.5083,-8.7306,0.1362,-0.009163,-0.0051924,0.032681,-10.74,39.9,-14.58
4.5083,-8.7987,0.14982,-0.0045815,-0.0094684,0.041233,-10.74,39.84,-14.52
4.5083,-8.8396,0.19068,0.012828,-0.028405,0.048869,-10.8,39.84,-14.52
4.5083,-8.8396,0.19068,0.0058032,-0.029627,0.056505,-10.8,39.84,-14.52
4.6582,-8.8668,0.068102,0.0094684,-0.023518,0.033598,-10.62,39.78,-14.58
4.6037,-8.8668,0.095342,0.015577,-0.016493,0.020159,-10.74,39.84,-14.82
4.5356,-8.8941,0.095342,0.01069,0.0036652,0.015577,-10.74,39.72,-14.76
4.522,-8.8396,0.12258,0.011301,0.0085521,0.0082467,-10.62,39.66,-14.7
4.5764,-8.7851,0.027241,0.0082467,-0.0018326,0.012217,-10.74,39.72,-14.88
4.5356,-8.7987,0.027241,0.0018326,-0.022602,0.019548,-10.74,39.6,-14.88
4.5492,-8.8805,0.054481,-0.0054978,-0.031765,0.029627,-10.8,39.54,-15.0
4.522,-8.8668,0.095342,-0.014966,-0.013134,0.029932,-10.8,39.6,-15.12
4.5356,-8.7987,0.095342,-0.0082467,-0.0082467,0.023518,-10.74,39.6,-15.12
4.522,-8.8124,0.01362,-0.015882,-0.015882,0.029016,-10.8,39.72,-15.18
4.4811,-8.8532,0.081722,-0.015577,-0.017715,0.018631,-10.74,39.54,-15.3
4.5083,-8.8668,0.081722,-0.021686,-0.019242,0.029016,-10.68,39.42,-15.36
4.4539,-8.8396,0.095342,-0.032987,-0.019853,0.032681,-10.8,39.48,-15.42
4.4811,-8.8668,0.081722,-0.033292,-0.010385,0.031765,-10.74,39.48,-15.36
4.4947,-8.8668,0.14982,-0.029322,-0.018631,0.03207,-10.8,39.54,-15.42
4.5628,-8.8941,0.12258,-0.032681,-0.019242,0.027794,-10.8,39.54,-15.42
4.5083,-8.8532,0.095342,-0.034819,-0.009163,0.023518,-10.68,39.66,-15.48
4.4811,-8.7987,0.01362,-0.037263,-0.0061087,0.025351,-10.56,39.66,-15.48
4.4539,-8.826,0.027241,-0.034514,-0.0033598,0.025351,-10.5,39.72,-15.48
4.4675,-8.7987,0.19068,-0.025045,-0.0036652,0.036346,-10.32,39.6,-15.6
4.4947,-8.7579,0.17706,-0.030543,-0.024435,0.045509,-10.26,39.54,-15.72
4.522,-8.826,0.14982,-0.035736,-0.037263,0.047647,-10.08,39.66,-15.78
4.4947,-8.826,0.17706,-0.030849,-0.03207,0.04215,-9.96,39.78,-15.84
4.5083,-8.826,0.1362,-0.023213,-0.01405,0.041844,-10.02,39.78,-15.78
4.5492,-8.7987,0.14982,-0.022907,-0.016188,0.024435,-9.96,39.72,-15.78
4.522,-8.8124,0.16344,-0.035125,-0.013439,0.018021,-9.96,39.78,-15.78
4.5083,-8.8396,0.095342,-0.03879,-0.015577,0.013134,-10.08,39.72,-15.78
4.522,-8.8124,0.01362,-0.040012,-0.0015272,0.0079412,-10.08,39.66,-15.78
4.4675,-8.7987,0.14982,-0.039706,0.010385,0.0039706,-10.14,39.54,-15.72
4.413,-8.7715,0.14982,-0.046426,0.0036652,0.013134,-10.26,39.6,-15.78
4.4266,-8.7851,0.20431,-0.045204,-0.016799,0.022907,-10.5,39.48,-15.72
4.4539,-8.7715,0.21793,-0.03879,-0.018326,0.015882,-10.5,39.54,-15.66
4.3858,-8.8124,0.10896,-0.035736,-0.0085521,0.023213,-10.5,39.66,-15.72
4.4402,-8.8805,0.16344,-0.032987,-0.002138,0.015577,-10.74,39.6,-15.72
4.4675,-8.7851,0.12258,-0.029627,-0.0094684,0.020464,-10.74,39.54,-15.84
4.4539,-8.7987,0.081722,-0.028711,-0.012523,0.028711,-10.74,39.48,-16.02
4.4402,-8.7851,0.12258,-0.026878,-0.010385,0.022907,-10.92,39.54,-16.02
4.4947,-8.7851,0.12258,-0.032681,-0.0067195,0.0281,-10.86,39.54,-16.02
4.5356,-8.8124,0.19068,-0.026267,-0.013134,0.028405,-10.8,39.42,-15.96
4.5083,-8.7987,0.12258,-0.020464,-0.021075,0.03543,-10.74,39.48,-15.9
4.413,-8.8941,0.12258,-0.017715,-0.019853,0.032376,-10.68,39.6,-15.84
4.5356,-8.8124,0.21793,-0.024435,-0.015882,0.030238,-10.44,39.48,-15.84
4.4811,-8.8532,0.12258,-0.02474,-0.015577,0.029627,-10.38,39.54,-15.96
4.4675,-8.7987,0.12258,-0.02138,-0.01069,0.020159,-10.2,39.36,-15.9
4.4539,-8.826,0.12258,-0.022602,-0.0067195,0.027184,-10.2,39.42,-15.72
4.4811,-8.8805,0.12258,-0.01069,-0.022907,0.033292,-9.78,39.42,-15.54
4.4539,-8.7715,0.068102,-0.020464,-0.037568,0.034819,-9.72,39.54,-15.36
4.4947,-8.7987,0.054481,-0.02138,-0.033903,0.039401,-9.66,39.54,-15.3
4.5083,-8.9213,-0.027241,-0.007025,-0.031154,0.013744,-9.6,39.54,-15.3
4.4811,-8.8668,-0.01362,-0.02138,-0.017715,0.011606,-9.54,39.36,-15.54
4.4811,-8.8396,0.054481,-0.0281,-0.013439,0.0039706,-9.78,39.54,-15.66
4.3994,-8.8396,0.040861,-0.027184,-0.0094684,-0.0027489,-9.78,39.66,-15.36
4.4266,-8.8668,0.081722,-0.030849,-0.014661,0.0051924,-10.08,39.6,-15.36
4.413,-8.7851,0.054481,-0.038485,-0.01069,0.01069,-10.38,39.78,-15.54
4.3858,-8.7851,0.054481,-0.044899,-0.0073304,0.011301,-10.5,39.78,-15.42
4.3994,-8.8668,0.12258,-0.044593,-0.000916,0.014966,-10.68,39.78,-15.54
4.4402,-8.8668,0.10896,-0.042761,0.0088575,0.011606,-10.56,39.72,-15.54
4.4811,-8.8941,0.23155,-0.036346,0.0051924,0.022907,-10.8,39.78,-15.48
4.3449,-8.8805,0.12258,-0.038179,-0.0018326,0.026267,-10.92,39.72,-15.36
4.3585,-8.8396,0.12258,-0.04215,0.0027489,0.037568,-11.04,39.84,-15.42
4.3449,-8.8124,0.12258,-0.037263,0.0015272,0.037263,-11.04,39.96,-15.24
4.3585,-8.826,0.054481,-0.030543,-0.000916,0.038179,-10.98,39.6,-15.24
4.3721,-8.8668,0.14982,-0.039401,-0.000916,0.04215,-10.98,39.72,-15.3
4.4675,-8.8668,0.1362,-0.031154,0.0058032,0.046426,-11.04,39.78,-15.3
4.3721,-8.9077,0.10896,-0.037263,0.0082467,0.037568,-10.98,39.72,-15.42
4.3858,-8.8396,0.12258,-0.040623,0.011912,0.041233,-10.98,39.54,-15.48
4.4266,-8.7715,0.1362,-0.034208,0.019548,0.046426,-11.1,39.48,-15.36
4.3721,-8.7443,0.21793,-0.031765,0.023518,0.044288,-11.04,39.42,-15.36
4.413,-8.826,0.14982,-0.032987,0.025656,0.045815,-11.04,39.48,-15.3
4.413,-8.7579,0.14982,-0.03879,0.014966,0.059254,-10.98,39.48,-15.48
4.5764,-8.8805,0.027241,-0.035125,0.0067195,0.061392,-10.8,39.6,-15.66
4.5356,-8.826,0.1362,-0.026267,0.0079412,0.057116,-10.86,39.54,-15.72
4.5083,-8.8532,0.095342,-0.03146,0.018631,0.029932,-10.74,39.48,-15.96
4.4402,-8.9213,0.1362,-0.033292,0.0281,0.021991,-10.68,39.54,-15.84
4.4402,-8.826,0.16344,-0.036041,0.032987,0.0088575,-10.74,39.48,-15.96
4.3858,-8.7306,0.10896,-0.04215,0.025656,0.017104,-10.74,39.42,-15.96
4.4402,-8.7987,0.12258,-0.039706,0.029016,0.029932,-10.68,39.54,-15.96
4.413,-8.8805,0.095342,-0.043066,0.022297,0.037874,-10.68,39.54,-15.96
4.4811,-8.8532,0.1362,-0.047647,0.012217,0.038179,-10.44,39.6,-16.14
4.4947,-8.8124,0.068102,-0.043677,0.0082467,0.029322,-10.32,39.6,-16.08
4.4402,-8.7987,0.19068,-0.028711,0.016188,0.026267,-10.38,39.6,-16.32
4.413,-8.8668,0.19068,-0.035736,0.018631,0.025351,-10.5,39.66,-16.14
4.3994,-8.8941,0.12258,-0.040928,0.019548,0.026573,-10.62,39.54,-16.02
4.3994,-8.826,0.081722,-0.032681,0.012217,0.041539,-10.44,39.54,-16.02
4.3858,-8.7715,0.095342,-0.03879,0.000916,0.042761,-10.5,39.54,-16.02
4.4402,-8.8805,0.10896,-0.029932,-0.0076358,0.04948,-10.62,39.66,-16.32
4.4402,-8.8668,0.19068,-0.029322,-0.000916,0.043371,-10.5,39.66,-16.14
4.3858,-8.8532,0.16344,-0.018021,0.0045815,0.037568,-10.44,39.72,-16.14
4.4539,-8.826,0.14982,-0.016799,0.0048869,0.03543,-10.38,39.54,-16.02
4.413,-8.8805,0.12258,-0.029932,0.0039706,0.036041,-10.32,39.66,-15.96
4.413,-8.7987,0.068102,-0.029322,-0.0015272,0.034819,-10.44,39.54,-15.84
4.3858,-8.7987,0.10896,-0.016799,0.0036652,0.030238,-10.44,39.6,-15.72
4.3449,-8.8805,0.12258,-0.020769,0.012828,0.029322,-10.2,39.6,-15.42
4.4266,-8.8668,0.17706,-0.034514,0.0079412,0.050702,-10.2,39.6,-15.6
4.5083,-8.8532,0.19068,-0.034208,-0.01741,0.047037,-10.26,39.6,-15.48
4.5083,-8.9213,0.1362,-0.029322,-0.028405,0.053451,-10.38,39.72,-15.48
4.4947,-8.8396,0.054481,-0.026267,-0.02138,0.036041,-10.26,39.72,-15.24
4.413,-8.8396,0.054481,-0.025351,-0.014661,0.019242,-10.38,39.84,-15.12
4.3721,-8.7987,0.12258,-0.026573,0.0024435,0.0067195,-10.26,39.84,-15.18
4.3585,-8.826,0.14982,-0.036041,0.007025,0.0061087,-10.26,39.84,-15.24
4.3449,-8.7987,0.1362,-0.032376,-0.0045815,0.011606,-10.08,40.02,-15.12
4.3994,-8.826,0.19068,-0.024435,-0.01741,0.014355,-9.96,40.02,-15.12
4.3721,-8.7987,0.12258,-0.021686,-0.024435,0.0082467,-10.02,40.08,-15.18
4.4402,-8.8941,0.19068,-0.017104,-0.021686,0.014355,-9.78,40.14,-15.36
4.3449,-8.8805,0.17706,-0.026573,-0.0039706,0.025045,-9.9,40.2,-15.48
4.3449,-8.826,0.24517,-0.010079,-0.0054978,0.015272,-9.9,40.14,-15.3
4.3177,-8.8396,0.16344,-0.016188,-0.013134,0.01069,-9.84,40.14,-15.36
4.3177,-8.8668,0.14982,-0.016188,-0.01405,0.0079412,-9.78,40.08,-15.42
4.2632,-8.8805,0.20431,-0.018326,-0.0045815,0.011606,-9.84,40.2,-15.54
4.2768,-8.9486,0.20431,-0.010996,-0.000611,0.018631,-9.84,40.02,-15.48
4.2904,-8.8805,0.34051,-0.022602,-0.0015272,0.01405,-10.02,39.96,-15.54
4.3177,-8.8668,0.25879,-0.019853,0.0018326,0.0067195,-10.02,39.96,-15.48
4.2087,-8.8941,0.19068,-0.024129,0.0015272,0.0036652,-10.14,39.96,-15.78
4.2087,-8.9622,0.21793,-0.014355,0.0082467,0.0085521,-10.14,39.9,-15.78
4.304,-8.8941,0.14982,-0.020769,0.012217,0.0094684,-10.14,39.84,-15.78
4.2632,-8.9077,0.16344,-0.023518,0.0082467,0.0079412,-10.2,39.9,-15.9
4.3177,-8.8805,0.20431,-0.022297,0.0094684,0.009163,-10.2,39.9,-15.78
4.3177,-8.8668,0.17706,-0.014966,0.0073304,0.020159,-10.14,39.96,-15.84
4.2495,-8.8941,0.19068,-0.018021,0.0042761,0.024129,-10.26,39.96,-15.84
4.2904,-8.8668,0.12258,-0.029932,-0.0033598,0.035125,-10.2,39.96,-15.78
4.3858,-8.8668,0.081722,-0.029932,-0.0012217,0.027184,-10.2,40.08,-15.72
4.3994,-8.9486,0.095342,-0.028711,0.012523,0.015577,-10.08,39.96,-15.72
4.3449,-8.9486,0.12258,-0.035125,0.010079,0.0079412,-9.96,39.96,-15.72
4.3721,-8.8941,0.14982,-0.040012,0.019548,0.0042761,-9.84,39.84,-15.84
4.3449,-8.8532,0.21793,-0.028405,0.029932,0.0051924,-9.9,39.78,-15.84
4.2495,-8.7987,0.12258,-0.029627,0.025351,0.0030543,-9.9,39.72,-15.78
4.3313,-8.8668,0.12258,-0.03207,0.01069,0.019548,-9.96,39.6,-15.84
4.3177,-8.8668,0.14982,-0.034819,0.000611,0.022907,-10.08,39.48,-15.84
4.3177,-8.8532,0.19068,-0.029627,0.007025,0.023213,-10.2,39.6,-15.78
4.3449,-8.8941,0.21793,-0.032376,0.022297,0.029016,-10.26,39.6,-15.9
4.3585,-8.826,0.21793,-0.021075,0.026267,0.02138,-10.26,39.48,-15.84
4.3449,-8.8668,0.23155,-0.025656,0.022907,0.025045,-10.14,39.36,-16.02
4.3858,-8.8668,0.19068,-0.018937,0.018021,0.022297,-9.96,39.3,-16.02
4.413,-8.8668,0.16344,-0.019548,0.010385,0.023213,-10.14,39.18,-16.08
4.3177,-8.9213,0.14982,-0.023824,0.014355,0.02474,-10.2,39.18,-16.02
4.3449,-8.9486,0.21793,-0.017715,0.011606,0.023518,-10.2,39.12,-15.9
4.3858,-8.8124,0.17706,-0.018937,0.0094684,0.016188,-10.26,39.3,-15.84
4.3858,-8.9349,0.1362,-0.014966,0.014966,0.022907,-10.2,39.3,-15.9
4.3858,-8.8532,0.19068,-0.018631,0.015882,0.010385,-10.2,39.24,-15.78
4.3585,-8.8396,0.12258,-0.016493,0.0027489,0.0064141,-10.08,39.24,-15.84
4.3449,-8.9486,0.24517,-0.018937,0.0061087,0.01405,-10.02,39.12,-15.84
4.3585,-8.8532,0.21793,-0.021075,0.0073304,0.0058032,-9.9,39.06,-15.84
4.4402,-8.8805,0.19068,-0.025962,-0.010079,0.013744,-10.02,39.06,-15.84
4.413,-8.8941,0.14982,-0.03207,-0.016799,0.019242,-9.9,39.12,-15.84
4.413,-8.9349,0.24517,-0.035125,-0.0088575,0.0079412,-9.96,39.18,-15.84
4.4266,-8.8941,0.19068,-0.036652,0.0045815,-0.0051924,-9.9,39.18,-15.66
4.4266,-8.9077,0.20431,-0.033598,0.0027489,-0.0088575,-9.84,39.3,-15.78
4.413,-8.8941,0.27241,-0.034819,-0.0015272,-0.0073304,-9.96,39.42,-15.9
4.2904,-8.8941,0.28603,-0.041844,-0.0030543,-0.013134,-10.02,39.54,-15.96
4.2904,-8.8668,0.20431,-0.031765,-0.0061087,-0.015577,-10.14,39.48,-16.02
4.304,-8.8941,0.27241,-0.033598,-0.0030543,-0.0064141,-10.26,39.6,-16.02
4.3449,-8.9349,0.24517,-0.044899,-0.012523,0.0067195,-10.38,39.72,-16.02
4.3313,-8.8941,0.28603,-0.03879,-0.015882,0.012523,-10.32,39.78,-16.02
4.3449,-8.8532,0.24517,-0.042761,-0.011301,0.018631,-10.5,39.78,-16.14
4.3994,-8.8668,0.23155,-0.037568,-0.01069,0.010385,-10.5,39.84,-16.02
4.3177,-8.9077,0.21793,-0.033292,-0.01069,0.0051924,-10.56,39.84,-16.02
4.3721,-8.9213,0.17706,-0.036346,-0.009163,0.016188,-10.5,39.9,-16.08
4.3858,-8.8941,0.21793,-0.036346,-0.0079412,0.016493,-10.5,40.02,-16.32
4.3994,-8.8805,0.24517,-0.041539,-0.011301,0.014966,-10.5,39.96,-16.2
4.4402,-8.7987,0.24517,-0.043066,-0.015272,0.017104,-10.38,39.78,-16.14
4.4402,-8.8668,0.24517,-0.044288,-0.025351,0.0097738,-10.38,39.72,-16.2
4.4539,-8.8668,0.31327,-0.039095,-0.013134,0.0030543,-10.5,39.9,-16.02
4.3858,-8.8396,0.21793,-0.044899,0.0024435,-0.0088575,-10.5,39.78,-16.02
4.3449,-8.8396,0.31327,-0.045815,-0.0018326,-0.0030543,-10.44,39.78,-15.9
4.3585,-8.826,0.21793,-0.046731,-0.0064141,-0.0015272,-10.44,39.78,-15.84
4.3313,-8.8941,0.24517,-0.040012,-0.018021,0.000305,-10.38,39.72,-15.72
4.4266,-8.9077,0.23155,-0.050091,-0.017715,0.0094684,-10.32,39.9,-15.84
4.3858,-8.9213,0.28603,-0.043066,-0.028405,0.017104,-10.2,39.84,-15.84
4.3449,-8.8941,0.19068,-0.034819,-0.027794,0.012523,-10.26,39.66,-15.84
4.3449,-8.8668,0.19068,-0.036957,-0.017104,-0.0039706,-10.32,39.6,-15.78
4.3177,-8.8668,0.20431,-0.036652,-0.000305,0.000305,-10.5,39.72,-15.78
4.2904,-8.826,0.17706,-0.040317,-0.0012217,-0.0045815,-10.62,39.78,-15.78
4.2904,-8.826,0.16344,-0.035736,0.0015272,-0.000916,-10.62,39.78,-15.78
4.304,-8.8805,0.28603,-0.040012,0.002138,0.0048869,-10.5,39.54,-15.72
4.2768,-8.9077,0.21793,-0.036346,-0.0033598,0.016493,-10.44,39.66,-15.72
4.2223,-8.9758,0.23155,-0.036652,-0.0067195,0.012523,-10.44,39.54,-15.72
4.2495,-8.8941,0.24517,-0.034514,0.000916,0.025045,-10.62,39.54,-15.72
4.3177,-8.8941,0.25879,-0.036652,0.0033598,0.032376,-10.56,39.54,-15.78
4.3177,-8.8124,0.25879,-0.021991,-0.0054978,0.039706,-10.56,39.48,-15.72
4.413,-8.826,0.19068,-0.029016,-0.015577,0.038485,-10.68,39.42,-15.66
4.3449,-8.826,0.25879,-0.027489,-0.0054978,0.036652,-10.68,39.54,-15.72
4.3449,-8.8532,0.14982,-0.033292,0.01069,0.037568,-10.5,39.36,-15.72
4.4539,-8.8668,0.25879,-0.026267,0.0064141,0.033598,-10.56,39.42,-15.6
4.4266,-8.9077,0.23155,-0.032376,-0.0024435,0.036346,-10.5,39.48,-15.36
4.4402,-8.9077,0.21793,-0.035125,-0.007025,0.025351,-10.5,39.42,-15.36
4.3858,-8.8941,0.14982,-0.040317,0.0030543,0.013134,-10.62,39.48,-15.36
4.3449,-8.8941,0.12258,-0.040623,0.015577,0.014355,-10.44,39.54,-15.48
4.4539,-8.8941,0.19068,-0.042761,0.015577,0.016188,-10.44,39.6,-15.66
4.3721,-8.8532,0.24517,-0.029016,0.0094684,0.0088575,-10.2,39.42,-15.54
4.3313,-8.8941,0.19068,-0.03543,0.0024435,0.01069,-10.14,39.36,-15.6
4.3721,-8.8668,0.27241,-0.032681,0.0027489,0.012217,-10.08,39.42,-15.6
4.3721,-8.8941,0.10896,-0.038179,0.000305,0.020464,-10.08,39.42,-15.72
4.413,-8.8668,0.19068,-0.042455,-0.0027489,0.033903,-10.2,39.36,-15.72
4.3858,-8.9077,0.20431,-0.032987,-0.0054978,0.020464,-10.38,39.36,-15.78
4.3994,-8.9077,0.19068,-0.03879,-0.0018326,0.01405,-10.32,39.42,-15.84
4.413,-8.8941,0.20431,-0.03879,0.0012217,0.0058032,-10.38,39.3,-16.02
4.3313,-8.8532,0.20431,-0.041844,0.013134,0.0045815,-10.44,39.3,-15.9
4.3585,-8.8668,0.17706,-0.046731,0.007025,0.0033598,-10.26,39.3,-15.96
4.3449,-8.8668,0.19068,-0.043066,-0.0073304,0.01069,-10.32,39.12,-15.9
4.3313,-8.9349,0.12258,-0.051007,-0.0094684,0.015272,-10.32,39.12,-15.84
4.304,-8.8668,0.21793,-0.045509,-0.0058032,0.021991,-10.38,39.24,-15.84
4.3449,-8.7306,0.14982,-0.040928,0.0027489,0.022907,-10.68,39.36,-15.96
4.3994,-8.8668,0.21793,-0.036957,-0.000305,0.018937,-10.68,39.3,-15.9
4.3585,-8.7987,0.24517,-0.026878,-0.0061087,0.023824,-10.68,39.24,-15.78
4.4402,-8.8532,0.1362,-0.028711,-0.0033598,0.013744,-10.56,39.36,-15.72
4.413,-8.8805,0.21793,-0.039401,-0.0045815,0.019548,-10.62,39.54,-15.72
4.3858,-8.8532,0.12258,-0.044899,-0.0033598,0.018937,-10.56,39.36,-15.6
4.3721,-8.8668,0.16344,-0.0562,-0.0012217,0.012217,-10.56,39.48,-15.66
4.4266,-8.7851,0.10896,-0.049175,-0.0048869,0.012523,-10.5,39.48,-15.72
4.4266,-8.7987,0.17706,-0.027489,0.0018326,0.0039706,-10.56,39.48,-15.66
4.3858,-8.826,0.1362,-0.037263,-0.0018326,0.01069,-10.32,39.6,-15.54
4.413,-8.826,0.12258,-0.038485,-0.012217,0.0082467,-10.44,39.54,-15.6
4.3858,-8.8668,0.12258,-0.032376,-0.012828,0.012217,-10.5,39.48,-15.48
4.3313,-8.8532,0.14982,-0.036346,-0.010385,0.0015272,-10.38,39.54,-15.36
4.2495,-8.7851,0.19068,-0.03146,-0.012828,0.011301,-10.44,39.6,-15.36
4.3994,-8.8941,0.16344,-0.030849,-0.019242,0.01069,-10.32,39.72,-15.48
4.3994,-8.8124,0.17706,-0.03879,-0.032376,0.01405,-10.38,39.54,-15.54
4.4539,-8.8668,0.14982,-0.03543,-0.025045,0.0048869,-10.38,39.48,-15.54
4.3449,-8.8124,0.17706,-0.030238,-0.016188,-0.014966,-10.38,39.6,-15.6
4.3177,-8.826,0.10896,-0.018937,-0.0088575,-0.020464,-10.38,39.54,-15.6
4.3177,-8.8668,0.095342,-0.029627,-0.0051924,-0.011912,-10.44,39.48,-15.6
4.2904,-8.8668,0.12258,-0.033598,-0.0094684,0.000916,-10.5,39.54,-15.72
4.3449,-8.8668,0.17706,-0.025351,-0.009163,-0.0061087,-10.8,39.72,-15.84
4.3177,-8.8941,0.21793,-0.020464,-0.011912,0.000305,-10.74,39.72,-15.78
4.3858,-8.826,0.19068,-0.014661,-0.014355,0.0018326,-10.74,39.78,-15.78
4.3449,-8.7715,0.14982,-0.016799,-0.020464,0.01405,-10.68,39.66,-15.78
4.3585,-8.8805,0.095342,-0.01741,-0.0045815,0.011606,-10.68,39.66,-15.84
4.413,-8.826,0.1362,-0.027184,0.000611,0.0082467,-10.86,39.6,-15.9
4.3721,-8.826,0.16344,-0.029932,-0.013744,0.014966,-10.98,39.84,-15.84
4.3721,-8.7987,0.19068,-0.022602,-0.013134,0.010996,-10.92,39.96,-15.72
4.3994,-8.8396,0.16344,-0.032376,-0.0061087,0.002138,-10.92,39.96,-15.72
4.4811,-8.9213,0.23155,-0.032376,-0.0051924,-0.000305,-10.92,39.9,-15.66
4.4539,-8.9349,0.17706,-0.020159,-0.0051924,0.000916,-10.92,39.9,-15.72
4.4811,-8.8941,0.10896,-0.017715,-0.018631,-0.015272,-10.98,39.9,-15.72
4.413,-8.8668,0.19068,-0.0018326,-0.037568,-0.011606,-10.86,39.9,-15.84
4.3858,-8.8668,0.12258,0.0076358,-0.057421,-0.0036652,-10.92,39.72,-15.84
4.3177,-8.8941,0.1362,0.0054978,-0.082772,-0.000305,-11.1,39.66,-15.9
4.2768,-8.8668,-0.01362,0.0036652,-0.080023,0.0067195,-11.16,39.66,-15.84
4.2087,-8.9622,-0.01362,-0.0048869,-0.064446,0.002138,-11.22,39.72,-15.84
4.2359,-8.9349,0.10896,-0.025045,-0.012828,0.012523,-11.22,39.72,-15.66
4.1814,-8.8124,0.095342,-0.050702,0.016188,0.0097738,-11.22,39.6,-15.66
4.2768,-8.826,0.21793,-0.037263,0.038485,0.018631,-11.4,39.6,-15.72
4.4947,-8.7987,0.19068,-0.039401,0.0048869,0.026267,-11.52,39.48,-15.66
4.4539,-8.7715,0.31327,-0.011301,-0.0562,0.028711,-11.46,39.54,-15.66
4.3858,-8.9894,0.31327,0.0079412,-0.078191,0.033292,-11.4,39.66,-15.66
4.413,-9.0303,0.21793,0.021075,-0.057116,0.018631,-11.4,39.48,-15.6
4.4675,-8.9349,0.19068,0.030849,-0.050396,0.009163,-11.46,39.36,-15.72
4.4266,-8.8941,0.16344,0.027184,-0.029322,0.0012217,-11.64,39.36,-15.66
4.4811,-8.8941,0.17706,0.015577,-0.026573,0.002138,-11.4,39.3,-15.66
4.413,-8.8532,0.21793,0.016493,-0.043371,0.024435,-11.4,39.42,-15.78
4.4402,-8.7987,0.29965,0.028711,-0.062308,0.0281,-11.28,39.24,-15.84
4.5901,-8.7034,0.61292,0.055283,-0.11759,0.048564,-11.16,39.12,-15.78
4.7944,-8.7851,0.74912,0.13775,-0.27825,0.072082,-11.04,39.06,-15.84
4.8625,-9.0303,0.64016,0.26237,-0.49602,0.069333,-11.04,38.88,-15.9
4.4402,-9.0712,0.49033,0.35094,-0.63774,0.019548,-11.04,38.88,-16.02
4.1951,-9.1256,0.40861,0.34728,-0.52993,-0.027794,-11.04,38.88,-16.02
3.9908,-8.9622,0.14982,0.28497,-0.35247,-0.04215,-11.16,38.82,-16.08
4.0861,-9.0167,0.17706,0.22205,-0.23274,-0.059865,-11.22,38.76,-16.02
4.1542,-8.9622,0.28603,0.20403,-0.20495,-0.057727,-11.22,38.76,-16.02
4.5764,-8.9894,0.49033,0.21777,-0.26817,-0.027184,-11.16,38.58,-16.2
4.6037,-8.9213,0.50395,0.26695,-0.37721,-0.043066,-11.28,38.52,-16.38
4.522,-9.0031,0.38137,0.31643,-0.42699,-0.076664,-11.28,38.58,-16.32
4.4675,-8.9894,0.38137,0.32009,-0.35552,-0.1066,-11.52,38.58,-16.44
4.4675,-9.0303,0.31327,0.30085,-0.31643,-0.10782,-11.58,38.58,-16.62
4.5083,-8.8941,0.23155,0.27764,-0.24312,-0.11881,-11.64,38.46,-16.68
4.5764,-8.9894,0.29965,0.23335,-0.23182,-0.13195,-11.64,38.34,-16.68
4.7944,-9.0303,0.36775,0.19639,-0.25351,-0.15791,-11.94,38.16,-16.98
4.9033,-9.0303,0.28603,0.18998,-0.26939,-0.20036,-12.06,38.1,-17.22
5.1213,-9.1529,0.12258,0.17318,-0.28436,-0.27519,-12.18,37.98,-17.22
5.0531,-9.1801,0.19068,0.13958,-0.26786,-0.33078,-12.3,37.8,-17.46
4.9306,-9.2482,0.31327,0.10446,-0.22846,-0.35675,-12.54,37.8,-17.4
4.8488,-9.0031,0.39499,0.093157,-0.208,-0.40348,-12.84,37.68,-17.4
4.9578,-8.9894,0.50395,0.11637,-0.23702,-0.43494,-13.32,37.5,-17.4
5.5843,-9.3844,0.53119,0.15455,-0.39462,-0.45815,-13.56,37.32,-17.58
5.7614,-9.0303,0.40861,0.18112,-0.69578,-0.49847,-13.62,37.26,-17.52
5.2847,-8.7306,0.38137,0.19242,-1.0369,-0.5229,-14.16,36.84,-17.52
5.0259,-8.7443,0.47671,0.21625,-1.0534,-0.50549,-14.58,36.72,-17.58
4.985,-8.7715,0.38137,0.22205,-0.94012,-0.48228,-14.82,36.6,-17.64
4.985,-8.1995,0.12258,0.31001,-0.86651,-0.49999,-15.54,36.42,-17.46
4.985,-8.3493,0.19068,0.36774,-0.82375,-0.45296,-15.78,36.12,-17.34
5.38,-8.2403,0.19068,0.26939,-0.73334,-0.39187,-16.68,35.64,-16.92
5.7069,-8.1722,0.14982,0.25015,-0.70036,-0.36988,-17.1,35.4,-16.8
5.9249,-8.1858,0.17706,0.24129,-0.73059,-0.34911,-17.34,35.22,-16.74
6.0474,-8.3084,0.39499,0.22235,-0.76175,-0.36041,-18.12,34.74,-16.5
6.0474,-8.1858,0.50395,0.2022,-0.8097,-0.38485,-18.54,34.56,-16.44
5.8295,-7.8589,0.40861,0.19059,-0.69211,-0.42913,-19.02,34.26,-16.2
5.7342,-7.4367,0.36775,0.24404,-0.44104,-0.41539,-19.8,33.84,-15.96
5.7886,-7.3277,0.44947,0.26603,-0.39187,-0.35613,-20.22,33.48,-15.66
5.8976,-7.4503,0.28603,0.28955,-0.4444,-0.31185,-20.58,33.24,-15.42
5.9112,-7.3414,0.24517,0.33139,-0.53329,-0.26512,-20.82,33.06,-15.36
6.8647,-7.5048,0.28603,0.37232,-0.75595,-0.25595,-21.3,32.4,-15.12
6.96,-7.4776,0.054481,0.37141,-1.0327,-0.26053,-21.66,32.4,-15.0
6.3743,-7.1643,-0.01362,0.3372,-1.0681,-0.29413,-22.26,32.1,-14.82
5.7069,-7.2596,-0.095342,0.34117,-0.9499,-0.24068,-22.5,32.1,-14.64
6.1155,-7.3958,-0.36775,0.2584,-0.93249,-0.23549,-22.86,31.8,-14.52
6.6059,-7.4503,-0.35413,0.23396,-0.96242,-0.22724,-22.98,31.8,-14.34
6.5786,-7.3141,-0.76274,0.16432,-0.94073,-0.28711,-23.46,31.32,-13.98
6.7557,-7.3414,-0.64016,0.19395,-1.0024,-0.22969,-23.76,31.14,-13.92
7.3414,-7.2052,-0.64016,0.19364,-1.0412,-0.22022,-24.06,31.02,-13.62
7.246,-7.1643,-0.34051,0.22541,-0.97677,-0.25565,-24.36,30.78,-13.44
6.2245,-7.2052,-0.54481,0.20372,-0.81734,-0.2416,-25.08,30.78,-13.32
6.6059,-7.1915,-0.54481,0.17257,-0.44746,-0.2868,-25.44,30.66,-13.02
7.0553,-7.2052,-0.85808,0.0562,-0.31673,-0.29658,-25.68,30.66,-12.84
6.9736,-7.1915,-1.0624,0.019548,-0.37538,-0.25229,-26.46,30.36,-12.66
7.246,-7.0962,-0.81722,0.01069,-0.36957,-0.27794,-26.76,30.36,-12.42
6.96,-6.8783,-0.84446,0.011301,-0.31826,-0.25107,-27.18,30.06,-12.24
7.1098,-7.1371,-0.84446,0.015272,-0.31276,-0.25076,-27.3,29.88,-12.06
7.3958,-7.246,-0.72188,0.019242,-0.30727,-0.28344,-27.54,29.7,-11.88
7.7091,-7.2869,-0.70826,-0.0094684,-0.45571,-0.30391,-27.9,29.64,-11.46
7.4095,-7.0553,-0.61292,-0.0039706,-0.61789,-0.28436,-28.2,29.52,-11.1
7.0145,-6.9872,-0.7355,-0.0018326,-0.73762,-0.26817,-28.38,29.34,-10.74
5.993,-7.0145,-0.85808,0.016188,-0.71471,-0.15577,-28.86,28.98,-10.26
5.7069,-6.9328,-0.54481,0.023824,-0.6463,-0.025962,-28.92,28.86,-9.78
5.7205,-6.96,-0.44947,0.030238,-0.5342,-0.011912,-29.22,28.74,-9.54
6.1428,-7.0826,-0.53119,0.023213,-0.1744,-0.0024435,-29.52,28.5,-8.94
6.2245,-7.0962,-0.25879,0.029322,0.12523,-0.01741,-29.64,28.56,-8.58
6.6059,-6.9872,-0.44947,-0.0036652,0.39462,0.0045815,-29.76,28.26,-8.28
6.4288,-6.9055,-0.84446,0.022907,0.33872,0.085521,-30.12,28.02,-7.74
6.674,-6.9736,-0.72188,-0.0039706,0.34941,0.10171,-30.3,28.08,-7.5
7.0417,-6.5786,-0.92618,-0.037568,-0.08827,0.18418,-30.54,28.08,-7.32
6.6331,-6.5786,-0.91256,-0.025656,0.28222,0.11851,-30.84,27.9,-6.96
7.2052,-6.5378,-0.61292,-0.03146,0.37141,0.12065,-30.84,27.96,-7.14
7.8998,-6.7693,-0.57205,0.0079412,0.36835,0.067195,-30.9,27.96,-7.38
7.7636,-6.7693,-0.89894,0.014355,-0.011912,0.13042,-30.84,27.9,-7.68
7.1643,-6.7012,-1.0624,0.0033598,-0.12737,0.13744,-30.84,27.96,-7.8
6.6331,-6.7012,-1.2258,0.0079412,-0.13653,0.17654,-30.84,27.96,-7.92
6.3743,-6.279,-1.0896,0.015272,-0.085521,0.18051,-30.78,27.84,-8.16
6.8647,-5.8295,-1.2122,0.04215,-0.17654,0.22907,-30.72,27.96,-8.4
6.8238,-5.6524,-1.1577,0.054672,-0.24007,0.21564,-30.66,28.14,-8.76
6.6604,-6.0202,-0.64016,0.11362,-0.033598,0.18631,-30.66,28.2,-8.88
7.1371,-6.8647,-0.39499,0.12675,0.36438,0.24648,-30.42,28.32,-9.18
7.3822,-7.1915,-0.64016,0.16524,0.33934,0.24404,-30.36,28.5,-9.36
7.8045,-7.5865,-0.85808,0.13164,0.093462,0.24648,-30.24,28.56,-9.54
7.1234,-7.5593,-1.0351,0.036652,-0.1576,0.23671,-30.12,28.8,-9.84
6.4833,-7.2596,-0.54481,0.01405,-0.075747,0.20403,-30.06,28.92,-9.9
6.8102,-7.5457,-0.43585,0.0281,0.082161,0.20983,-29.94,29.04,-9.78
7.3277,-7.9951,-0.68102,0.06689,0.23824,0.18143,-29.7,29.4,-9.96
7.5729,-8.036,-0.81722,0.043982,0.21197,0.17929,-29.34,29.52,-9.84
7.4503,-7.8045,-0.84446,0.01069,-0.11332,0.18326,-29.04,29.52,-9.78
6.7829,-7.3822,-0.68102,0.000916,-0.13103,0.17043,-28.74,29.7,-9.9
6.7693,-7.2188,-0.50395,0.0054978,-0.057116,0.16218,-28.62,29.7,-9.9
6.6195,-7.2188,-0.54481,0.023518,-0.047342,0.14875,-28.38,29.88,-9.84
6.5105,-7.3005,-0.69464,0.033598,-0.064446,0.1408,-28.26,30.0,-9.84
6.4833,-7.4231,-0.85808,0.0039706,-0.11668,0.16127,-28.02,30.06,-9.84
6.4424,-7.3822,-0.85808,-0.024435,-0.11759,0.15608,-27.9,30.12,-9.84
6.4288,-7.3005,-0.62654,-0.075136,-0.12828,0.16035,-27.66,30.0,-9.72
6.4424,-7.5321,-0.58567,-0.089797,-0.085827,0.13561,-27.42,30.24,-9.48
6.3471,-7.6683,-0.46309,-0.10415,-0.038179,0.12034,-27.18,30.24,-9.48
6.1155,-7.7364,-0.38137,-0.12798,0.085216,0.10965,-27.0,30.12,-9.48
6.0883,-7.6683,-0.54481,-0.13867,0.23824,0.0956,-27.0,30.06,-9.66
6.2109,-7.6683,-0.70826,-0.15516,0.31765,0.096517,-27.18,30.24,-9.66
6.4152,-7.5593,-0.68102,-0.16677,0.3146,0.10049,-27.18,30.42,-9.54
6.4833,-7.5457,-0.8036,-0.16707,0.23518,0.08094,-27.12,30.48,-9.54
6.3743,-7.5593,-0.85808,-0.17074,0.20006,0.065668,-27.12,30.48,-9.6
6.3471,-7.4776,-0.81722,-0.17074,0.16921,0.058032,-26.64,30.72,-9.66
6.0883,-7.4776,-0.61292,-0.15058,0.14264,0.061697,-26.7,30.78,-9.54
5.993,-7.3141,-0.7355,-0.13683,0.14294,0.058338,-26.58,30.84,-9.6
5.6524,-7.5048,-0.64016,-0.12004,0.094073,0.053756,-26.64,31.08,-9.96
5.3392,-7.4503,-0.65378,-0.12462,0.047037,0.069944,-26.58,31.08,-10.02
5.2983,-7.641,-0.65378,-0.11209,0.098044,0.076053,-26.64,31.26,-10.08
5.7205,-7.8181,-0.84446,-0.094379,0.26237,0.062919,-26.58,31.44,-10.02
5.9793,-8.0905,-1.0079,-0.11087,0.2926,0.065057,-26.58,31.56,-9.96
6.1428,-8.2403,-1.0896,-0.12492,0.27642,0.069028,-26.4,31.5,-9.84
6.1973,-8.3084,-1.0896,-0.16921,0.20556,0.075136,-26.22,31.5,-9.84
5.9249,-8.4582,-1.2803,-0.18051,0.21044,0.064141,-26.16,31.5,-10.02
5.8023,-8.5808,-1.471,-0.20892,0.2248,0.055589,-26.16,31.56,-10.08
5.9249,-8.2539,-1.5255,-0.26848,0.23213,0.064752,-26.34,31.5,-10.26
6.0474,-8.1177,-1.2803,-0.24709,0.24404,0.072693,-26.28,31.5,-10.38
6.1973,-8.1586,-1.1986,-0.23274,0.24221,0.068722,-26.28,31.56,-10.5
6.2654,-8.3084,-1.3212,-0.20922,0.20708,0.073304,-26.22,31.5,-10.68
6.3198,-8.322,-1.4165,-0.21044,0.13103,0.099266,-26.16,31.62,-10.74
6.2381,-8.1586,-1.1713,-0.17043,0.059865,0.10263,-25.98,31.8,-10.86
6.0338,-8.0496,-1.0488,-0.12828,0.011606,0.11545,-26.04,31.8,-11.04
5.7342,-7.7772,-1.0215,-0.10446,-0.009163,0.11881,-25.8,32.16,-10.92
5.7886,-7.6955,-1.1441,-0.083078,-0.010079,0.14111,-25.74,32.34,-11.1
5.8295,-7.5593,-1.1713,-0.067806,0.023518,0.13347,-25.62,32.34,-11.1
5.8023,-7.6819,-1.1032,-0.051924,-0.0082467,0.13439,-25.56,32.76,-11.04
5.7478,-7.8045,-1.2531,-0.049786,-0.051313,0.13378,-25.44,32.76,-11.1
5.6388,-7.8862,-1.076,-0.062308,-0.034514,0.13775,-25.32,32.88,-11.04
5.7478,-8.0088,-1.1305,-0.060476,0.011301,0.12278,-25.08,32.94,-10.98
5.9657,-8.0905,-1.0896,-0.073915,0.028711,0.11362,-25.08,33.06,-10.8
6.0202,-7.8181,-1.0079,-0.073304,0.030849,0.098349,-24.9,33.0,-10.56
5.9521,-7.7636,-1.0488,-0.059559,0.028405,0.088881,-24.78,33.06,-10.56
5.8023,-7.8453,-1.2122,-0.045204,0.014661,0.071777,-24.72,33.0,-10.5
5.7205,-7.7227,-1.1441,-0.044288,0.0094684,0.05284,-24.66,33.12,-10.68
5.8295,-7.7364,-1.1169,-0.025656,0.027489,0.047037,-24.54,33.0,-10.74
5.8976,-7.7908,-1.0624,-0.011606,0.023518,0.033292,-24.48,33.0,-10.74
5.9657,-7.7908,-1.185,-0.0094684,-0.010079,0.026573,-24.48,33.06,-10.86
5.9249,-7.8045,-0.92618,-0.014966,-0.026573,0.012828,-24.3,33.12,-10.86
5.8704,-7.7636,-0.95342,-0.015272,-0.012523,0.0073304,-24.3,33.12,-10.86
5.9112,-7.7227,-1.0215,-0.010079,-0.0058032,-0.0054978,-24.36,33.06,-10.92
5.9793,-7.7364,-0.92618,-0.027489,-0.0058032,-0.0015272,-24.24,33.06,-10.92
5.9249,-7.8045,-0.91256,-0.034514,-0.000611,-0.0058032,-24.18,33.06,-10.98
5.8023,-7.8317,-0.84446,-0.036346,-0.011606,0.0094684,-24.24,33.3,-10.98
5.775,-7.7636,-0.91256,-0.035736,-0.0088575,0.0042761,-24.24,33.42,-10.86
5.8567,-7.8045,-0.8036,-0.033903,0.0061087,0.0036652,-24.24,33.36,-10.98
5.8976,-7.7908,-0.91256,-0.021991,0.01069,0.01069,-24.12,33.24,-10.92
5.8431,-7.8045,-0.85808,-0.009163,0.0036652,0.0085521,-24.06,33.48,-10.8
5.9521,-7.8317,-0.92618,-0.011301,0.015577,-0.0039706,-24.06,33.42,-10.8
5.9521,-7.7908,-0.92618,-0.031154,0.039095,0.0027489,-24.0,33.48,-10.86
6.0474,-7.8589,-0.92618,-0.033292,0.058338,-0.01069,-24.06,33.36,-10.98
6.2245,-8.0224,-0.92618,-0.044288,0.058032,-0.014661,-24.06,33.36,-10.74
6.2381,-8.1041,-0.91256,-0.049175,0.029322,-0.020464,-24.0,33.36,-10.86
6.2517,-8.0224,-0.72188,-0.058032,0.0012217,-0.020159,-23.88,33.6,-10.92
6.0611,-7.9679,-0.83084,-0.055589,-0.0012217,-0.017715,-23.82,33.54,-11.04
6.0883,-7.9134,-0.8717,-0.059559,0.052229,-0.0097738,-23.94,33.48,-11.1
6.0338,-7.8589,-0.89894,-0.054062,0.040928,-0.0030543,-23.82,33.24,-11.22
6.0066,-7.8453,-0.96704,-0.058032,0.019242,-0.0067195,-23.82,33.3,-11.22
6.0202,-7.7908,-0.8036,-0.067501,0.0033598,-0.0067195,-24.0,33.48,-11.1
6.0474,-7.7364,-0.78998,-0.055589,-0.012828,-0.000305,-24.06,33.42,-11.22
5.993,-7.7636,-0.8036,-0.04948,-0.011912,0.011606,-24.06,33.3,-11.22
6.0474,-7.8998,-0.81722,-0.055589,-0.0030543,0.011912,-24.12,33.18,-11.22
5.993,-7.927,-0.83084,-0.065363,0.022297,0.0082467,-24.18,33.06,-11.22
5.9521,-7.8862,-0.74912,-0.067195,0.06353,0.014355,-24.3,33.12,-11.4
5.9249,-7.8589,-0.69464,-0.06017,0.083078,0.018326,-24.3,33.24,-11.34
6.1155,-7.7636,-0.8036,-0.057421,0.10965,0.022297,-24.36,33.0,-11.28
6.1292,-7.8317,-0.81722,-0.075747,0.096211,0.013744,-24.3,33.06,-11.1
6.1019,-7.7636,-0.85808,-0.072388,0.072693,0.021991,-24.24,33.06,-11.04
6.0202,-7.7772,-0.81722,-0.058948,0.053145,0.0281,-24.18,33.12,-11.04
5.9657,-7.8181,-0.8036,-0.057727,0.058338,0.037568,-24.24,33.12,-10.98
6.0883,-7.8317,-0.68102,-0.058948,0.069028,0.028711,-24.24,33.06,-11.16
6.1836,-7.7091,-0.61292,-0.043677,0.07758,0.014661,-24.36,32.94,-11.04
6.1019,-7.7636,-0.6674,-0.0079412,0.062614,0.0054978,-24.6,33.12,-11.1
6.0338,-7.8726,-0.7355,-0.021075,0.03543,0.011606,-24.66,33.18,-11.1
5.9657,-7.7364,-0.8036,-0.034208,0.032987,0.016799,-24.54,33.18,-11.04
5.884,-7.8045,-0.74912,-0.035736,0.057727,0.011301,-24.48,33.24,-11.16
5.884,-7.8589,-0.89894,-0.043982,0.075136,0.012217,-24.54,33.06,-11.16
5.884,-7.75,-1.1169,-0.072693,0.085521,0.0018326,-24.72,33.24,-11.22
5.8976,-7.8045,-1.185,-0.10018,0.11606,-0.0036652,-24.9,33.24,-11.34
5.9657,-7.8998,-1.2395,-0.11332,0.11606,-0.0045815,-24.78,33.18,-11.34
6.1292,-7.9134,-1.1577,-0.12309,0.13286,-0.011912,-24.84,33.18,-11.46
6.2381,-8.0496,-1.1169,-0.11148,0.12584,-0.020159,-24.78,33.18,-11.46
6.279,-8.0769,-1.0896,-0.099571,0.10263,-0.015882,-24.66,33.12,-11.4
6.2517,-8.0632,-1.0215,-0.076053,0.050702,-0.017104,-24.6,33.12,-11.58
6.1019,-8.2676,-0.9398,-0.027489,-0.0064141,-0.0042761,-24.36,33.18,-11.34
6.0338,-8.2539,-1.0215,-0.010385,-0.015272,0.0067195,-24.12,33.12,-11.22
5.9249,-7.7908,-0.96704,0.011606,-0.020464,0.0073304,-24.3,33.24,-11.4
5.8431,-7.6683,-1.0215,0.04215,-0.026878,0.0082467,-24.42,33.18,-11.46
5.8431,-7.6683,-1.1032,0.071777,-0.032681,0.007025,-24.36,33.24,-11.34
5.7614,-7.6138,-1.1032,0.071471,-0.058948,0.01405,-24.3,32.94,-11.28
5.7342,-7.7091,-1.185,0.054978,-0.089186,0.028711,-24.24,32.94,-11.22
5.8567,-7.8181,-1.0624,0.039095,-0.094684,0.030849,-24.3,33.06,-11.34
5.9385,-7.9134,-0.92618,0.029627,-0.086743,0.023518,-24.42,33.12,-11.28
6.1155,-7.8045,-0.77636,-0.0036652,-0.092241,0.029016,-24.54,33.0,-11.34
6.1836,-7.9543,-0.54481,0.043066,-0.14172,0.019242,-24.66,33.0,-11.34
5.9657,-8.2131,-0.65378,0.047037,-0.18234,0.013744,-24.66,32.88,-11.22
5.7069,-8.1313,-0.65378,0.040928,-0.12034,0.000916,-24.54,32.88,-11.52
5.6388,-8.1177,-0.6674,0.030543,-0.089797,0.000916,-24.72,32.82,-11.64
5.6388,-8.0632,-0.78998,0.029016,-0.06017,-0.012523,-24.6,32.64,-11.52
5.7205,-7.9951,-0.83084,0.011912,-0.013439,-0.0073304,-24.6,32.52,-11.34
5.8704,-7.9134,-0.8717,0.0054978,0.007025,-0.01069,-24.72,32.52,-11.28
5.8295,-7.927,-0.84446,-0.025351,0.016188,-0.0082467,-24.6,32.64,-11.22
5.8976,-7.927,-0.99429,-0.061087,0.044593,-0.0082467,-24.54,32.64,-11.28
5.9521,-7.9815,-1.0215,-0.072388,0.047037,-0.009163,-24.48,32.64,-11.22
5.9385,-8.1177,-0.99429,-0.092241,0.036041,-0.002138,-24.42,32.64,-11.16
6.1155,-8.0224,-0.78998,-0.10507,0.035125,-0.0067195,-24.3,32.64,-10.98
6.1292,-8.0224,-0.89894,-0.10385,0.043677,-0.0054978,-24.3,32.58,-10.86
6.2517,-7.9951,-0.99429,-0.1182,0.024129,-0.002138,-24.42,32.64,-10.86
6.2245,-7.8589,-0.84446,-0.13225,0.015272,-0.010996,-24.54,32.82,-10.68
6.1292,-7.9134,-0.88532,-0.12584,-0.0039706,-0.000916,-24.54,32.88,-10.62
6.0474,-7.8998,-0.91256,-0.146,-0.014355,0.0036652,-24.48,33.06,-10.56
6.0202,-7.8317,-0.99429,-0.13806,-0.025962,-0.002138,-24.66,33.24,-10.44
6.0474,-7.7091,-0.95342,-0.14294,-0.018937,-0.0036652,-24.54,33.3,-10.5
6.1292,-7.641,-0.81722,-0.15027,-0.021075,-0.0094684,-24.66,33.3,-10.38
6.1292,-7.7227,-0.78998,-0.13042,-0.044899,-0.011301,-24.6,33.36,-10.2
6.1019,-7.7364,-0.89894,-0.13714,-0.018326,-0.0027489,-24.72,33.42,-10.2
6.1428,-7.7364,-0.91256,-0.12614,-0.021686,-0.01069,-24.66,33.48,-10.32
6.3198,-7.641,-0.77636,-0.12339,-0.061697,-0.0042761,-24.66,33.48,-10.26
6.2245,-7.641,-0.83084,-0.1066,-0.08491,-0.016493,-24.48,33.48,-10.32
6.2381,-7.641,-0.84446,-0.10629,-0.088575,-0.0067195,-24.54,33.48,-10.08
6.0611,-7.5457,-0.8717,-0.10751,-0.067501,-0.009163,-24.54,33.3,-9.78
6.0338,-7.5865,-0.85808,-0.081856,-0.063225,0.0045815,-24.54,33.24,-9.66
6.0611,-7.6683,-0.77636,-0.076664,-0.055894,0.0036652,-24.54,33.24,-9.66
6.0202,-7.6002,-0.81722,-0.077885,-0.044899,-0.0012217,-24.66,33.36,-9.48
6.0202,-7.6002,-0.83084,-0.057421,-0.011606,-0.0036652,-24.54,33.36,-9.24
6.1292,-7.4912,-0.81722,-0.051007,0.011912,-0.0030543,-24.42,33.42,-9.24
6.2517,-7.5729,-0.88532,-0.04612,0.0012217,0.0024435,-24.54,33.36,-9.06
6.2654,-7.5593,-0.89894,-0.038179,-0.017104,0.014966,-24.72,33.24,-8.88
6.3198,-7.5593,-0.85808,-0.040317,-0.024129,0.014661,-24.66,33.12,-8.7
6.4152,-7.5184,-0.89894,-0.027489,-0.026267,0.012217,-24.66,33.18,-8.7
6.4833,-7.6546,-0.98067,-0.013134,-0.055894,0.0051924,-24.78,33.12,-8.7
6.279,-7.8589,-1.0079,-0.012217,-0.11362,0.0067195,-24.78,33.12,-8.7
6.1292,-7.7364,-0.99429,-0.013134,-0.10263,0.0018326,-24.9,33.06,-8.58
6.1155,-7.4912,-0.76274,-0.020159,-0.087354,-0.0064141,-25.02,33.24,-8.4
6.0883,-7.5048,-0.76274,0.0085521,-0.10599,-0.011301,-24.96,33.24,-8.28
6.0611,-7.464,-0.70826,0.031154,-0.076969,-0.0097738,-24.96,33.06,-8.34
6.0066,-7.6002,-0.89894,0.027489,-0.033598,-0.010996,-24.96,32.94,-8.22
6.0883,-7.6002,-0.78998,0.019242,-0.023518,-0.011301,-24.9,32.82,-8.28
6.1155,-7.5593,-0.83084,0.030238,0.0088575,-0.011912,-25.02,32.82,-8.22
6.2245,-7.7091,-0.91256,0.073304,0.027794,-0.014355,-25.08,32.82,-8.22
6.3743,-7.7091,-0.8036,0.080329,0.022907,-0.014355,-25.14,32.82,-8.16
6.4833,-7.6955,-0.84446,0.087965,-0.0097738,-0.009163,-25.14,32.82,-8.16
6.5514,-7.7636,-0.92618,0.095295,-0.022297,-0.01069,-25.32,32.88,-7.98
6.5378,-7.6819,-0.99429,0.071471,-0.048258,-0.019548,-25.2,32.82,-7.98
6.456,-7.5457,-0.9398,0.055589,-0.060476,-0.020769,-25.14,32.76,-7.98
6.3471,-7.5048,-0.96704,0.050396,-0.067501,-0.025351,-25.08,32.64,-8.1
6.279,-7.5321,-0.96704,0.050091,-0.07086,-0.019853,-25.2,32.58,-8.22
6.279,-7.5865,-0.89894,0.031154,-0.076664,-0.019853,-25.26,32.58,-8.1
6.3062,-7.4776,-0.78998,0.032987,-0.069028,-0.019242,-25.38,32.46,-8.1
6.279,-7.5457,-0.72188,0.07025,-0.071471,-0.0064141,-25.56,32.58,-8.22
6.3062,-7.641,-0.70826,0.067195,-0.035736,-0.0073304,-25.5,32.4,-8.34
6.4016,-7.641,-0.85808,0.089492,-0.054062,-0.0051924,-25.56,32.22,-8.46
6.4833,-7.6274,-0.85808,0.10721,-0.066279,0.000611,-25.5,32.16,-8.4
6.5378,-7.6138,-0.89894,0.1124,-0.075747,-0.000916,-25.56,32.04,-8.28
6.4697,-7.641,-0.84446,0.12248,-0.11515,0.0076358,-25.44,32.04,-8.64
6.3607,-7.5457,-0.70826,0.11942,-0.12339,0.012828,-25.56,31.98,-8.7
6.3198,-7.5729,-0.6674,0.13103,-0.11973,0.0064141,-25.62,31.98,-8.58
6.3062,-7.5457,-0.76274,0.14691,-0.11332,0.0061087,-25.86,31.92,-8.64
6.2517,-7.6138,-0.65378,0.14966,-0.10201,0.0079412,-25.86,31.8,-8.58
6.2381,-7.5457,-0.64016,0.14661,-0.08827,0.0082467,-25.86,31.86,-8.7
6.3335,-7.5048,-0.64016,0.14936,-0.069639,0.0027489,-25.86,31.86,-8.76
6.4152,-7.6002,-0.44947,0.15027,-0.055589,-0.011301,-25.86,31.74,-8.52
6.4697,-7.6002,-0.44947,0.13744,-0.040317,-0.012217,-25.98,31.92,-8.64
6.5241,-7.4095,-0.47671,0.11759,-0.027489,-0.028711,-25.92,31.98,-8.7
6.5241,-7.5457,-0.57205,0.096211,-0.030238,-0.029932,-26.16,31.86,-8.88
6.2381,-7.5729,-0.57205,0.087048,-0.0562,-0.034208,-26.1,31.8,-8.88
6.1292,-7.6274,-0.50395,0.077274,-0.035125,-0.029322,-26.1,31.56,-8.88
6.3743,-7.7091,-0.32689,0.065363,-0.0039706,-0.033903,-26.22,31.56,-8.7
6.4016,-7.6002,-0.42223,0.067501,0.018326,-0.040012,-26.22,31.5,-9.0
6.4424,-7.5593,-0.51757,0.04948,0.03146,-0.033598,-26.1,31.56,-9.12
6.5378,-7.6274,-0.69464,0.026878,0.031154,-0.034514,-26.1,31.5,-9.36
6.5378,-7.5865,-0.54481,0.000611,0.02138,-0.036957,-26.1,31.44,-9.42
6.3879,-7.5048,-0.51757,0.0015272,0.015272,-0.029016,-26.22,31.38,-9.42
6.3879,-7.5457,-0.58567,0.0082467,0.029016,-0.034819,-26.28,31.14,-9.54
6.4697,-7.5729,-0.51757,-0.0045815,0.044288,-0.01741,-26.28,30.96,-9.48
6.5786,-7.6002,-0.51757,-0.0033598,0.040928,-0.03207,-26.28,30.9,-9.42
6.5378,-7.5184,-0.44947,-0.014661,0.022907,-0.028405,-26.22,31.02,-9.3
6.4969,-7.6274,-0.38137,-0.015577,0.019853,-0.023518,-26.4,31.14,-9.3
6.456,-7.6138,-0.40861,-0.013439,0.025351,-0.013134,-26.4,31.2,-9.36
6.4697,-7.5729,-0.35413,-0.013134,0.032681,-0.0045815,-26.4,31.2,-9.42
6.3743,-7.5729,-0.46309,-0.018631,0.072693,-0.0015272,-26.46,31.14,-9.66
6.5922,-7.4776,-0.44947,-0.035125,0.10965,-0.0076358,-26.64,31.02,-9.36
6.4697,-7.2733,-0.39499,-0.013439,0.042761,0.024435,-26.58,31.08,-9.3
6.3743,-7.8317,-0.44947,-0.000916,0.0030543,0.013134,-26.46,31.08,-9.18
6.4288,-7.6955,-0.40861,-0.037263,0.033292,0.018937,-26.46,31.02,-9.18
6.4016,-7.6274,-0.42223,-0.019853,0.068722,0.010079,-26.46,31.14,-9.36
6.5105,-7.5048,-0.44947,-0.01405,0.065057,0.016188,-26.28,31.38,-9.48
6.6059,-7.4776,-0.43585,-0.017715,0.055894,0.021991,-26.22,31.32,-9.48
6.674,-7.5048,-0.57205,-0.023213,0.03879,0.019853,-26.04,31.32,-9.54
6.5786,-7.5048,-0.51757,-0.034208,0.000916,0.016188,-26.1,31.2,-9.6
6.5786,-7.5457,-0.47671,-0.039095,-0.0085521,0.013134,-26.04,31.32,-9.48
6.5786,-7.5729,-0.43585,-0.049786,0.0094684,0.011301,-26.16,31.26,-9.48
6.5378,-7.5184,-0.29965,-0.050396,0.012828,0.0012217,-25.98,31.2,-9.48
6.3879,-7.4776,-0.42223,-0.061697,0.013439,0.0064141,-25.92,31.2,-9.48
6.3198,-7.4503,-0.40861,-0.057116,0.025962,-0.0097738,-26.1,31.14,-9.42
6.4152,-7.3686,-0.32689,-0.048564,0.04612,-0.0076358,-26.1,31.14,-9.72
6.3471,-7.4095,-0.38137,-0.029627,0.047953,-0.000611,-26.1,31.08,-9.78
6.3607,-7.4503,-0.43585,-0.010079,0.062919,0.0079412,-26.22,30.9,-9.78
6.5786,-7.5593,-0.44947,-0.0067195,0.06353,0.007025,-26.22,30.84,-9.66
6.6467,-7.5048,-0.36775,-0.0033598,0.044899,0.012828,-26.34,30.72,-9.78
6.674,-7.5457,-0.35413,0.0051924,0.024435,0.01069,-26.34,30.6,-9.9
6.5922,-7.641,-0.57205,-0.0097738,0.007025,0.0033598,-26.28,30.66,-10.08
6.4016,-7.5729,-0.58567,-0.027794,0.0088575,0.0027489,-26.34,30.6,-10.08
6.4016,-7.464,-0.42223,-0.036041,0.012217,-0.0018326,-26.28,30.66,-10.14
6.3471,-7.4095,-0.44947,-0.041233,0.036346,-0.0094684,-26.28,30.66,-10.26
6.3198,-7.246,-0.36775,-0.053451,0.047342,-0.0094684,-26.34,30.72,-10.56
6.5786,-7.4776,-0.43585,-0.050396,0.048564,-0.026573,-26.28,30.6,-10.56
6.5514,-7.6002,-0.38137,-0.057421,-0.0015272,-0.0058032,-26.28,30.42,-10.38
6.4152,-7.8317,-0.58567,-0.060781,-0.011606,-0.012217,-26.22,30.48,-10.32
6.4424,-7.7364,-0.34051,-0.057421,-0.0082467,-0.013439,-26.04,30.42,-10.38
6.4424,-7.6819,-0.28603,-0.054062,0.019242,-0.021686,-25.92,30.36,-10.26
6.6059,-7.4776,-0.35413,-0.052229,0.030238,-0.0061087,-26.1,30.24,-10.32
6.5786,-7.4776,-0.38137,-0.055589,0.0097738,-0.013439,-26.16,30.24,-10.32
6.4697,-7.4776,-0.46309,-0.057116,-0.0018326,-0.013439,-26.1,30.18,-10.26
6.4152,-7.5184,-0.38137,-0.075747,-0.0082467,-0.012523,-26.1,30.18,-10.32
6.3062,-7.4776,-0.35413,-0.070555,0.0051924,-0.012523,-26.1,30.12,-10.32
6.456,-7.5457,-0.36775,-0.08827,0.043066,-0.014966,-26.4,30.12,-10.38
6.4424,-7.5457,-0.35413,-0.10049,0.044593,-0.019548,-26.46,30.12,-10.2
6.4969,-7.4776,-0.44947,-0.09896,0.036957,-0.016799,-26.4,30.3,-10.38
6.3607,-7.3141,-0.40861,-0.084299,0.034208,-0.017715,-26.52,30.3,-10.32
6.4833,-7.641,-0.58567,-0.076664,0.048258,-0.025656,-26.64,30.3,-10.26
6.5922,-7.641,-0.57205,-0.10446,0.044899,-0.0067195,-26.64,30.36,-10.2
6.5922,-7.464,-0.40861,-0.083383,0.016188,-0.0079412,-26.76,30.54,-10.38
6.6331,-7.641,-0.44947,-0.082467,0.019548,-0.024435,-26.76,30.66,-10.5
6.674,-7.5321,-0.54481,-0.11759,-0.000611,-0.01405,-26.82,30.66,-10.44
6.5922,-7.464,-0.46309,-0.092241,-0.024435,-0.027489,-27.0,30.6,-10.32
6.4424,-7.4503,-0.50395,-0.095295,-0.019242,-0.019548,-27.0,30.72,-10.2
6.4424,-7.3414,-0.40861,-0.094684,-0.01069,-0.020464,-27.06,30.66,-10.26
6.4152,-7.4776,-0.31327,-0.087965,0.013134,-0.012217,-26.88,30.54,-10.14
6.5514,-7.4912,-0.24517,-0.097433,0.021075,-0.007025,-26.76,30.42,-10.02
6.5105,-7.4095,-0.38137,-0.087965,0.027489,-0.007025,-26.82,30.42,-9.96
6.6059,-7.4095,-0.44947,-0.07422,0.051007,-0.0079412,-26.52,30.54,-9.96
6.6467,-7.4095,-0.54481,-0.11423,0.046731,0.0054978,-26.46,30.6,-10.08
6.6604,-7.4912,-0.49033,-0.087965,0.013134,-0.0042761,-26.52,30.6,-9.9
6.5922,-7.7364,-0.40861,-0.10751,0.021991,-0.0018326,-26.34,30.54,-9.78
6.6059,-7.641,-0.40861,-0.10629,0.026573,0.0015272,-26.34,30.42,-9.66
6.6059,-7.5184,-0.40861,-0.10996,0.02138,-0.0045815,-26.28,30.42,-9.78
6.4152,-7.3822,-0.5993,-0.0956,0.017104,0.0051924,-26.4,30.42,-9.84
6.4424,-7.4095,-0.65378,-0.094073,0.018326,0.0076358,-26.34,30.42,-9.78
6.4969,-7.3958,-0.61292,-0.091324,0.013439,0.0036652,-26.28,30.54,-9.78
6.4424,-7.4912,-0.51757,-0.09499,0.016493,0.010996,-26.4,30.54,-9.72
6.4833,-7.5048,-0.47671,-0.085521,0.027794,0.013744,-26.52,30.66,-9.9
6.4833,-7.4776,-0.50395,-0.072388,0.032987,0.021686,-26.58,30.66,-9.72
6.4969,-7.4776,-0.38137,-0.048258,0.032376,0.035125,-26.88,30.6,-9.9
6.5378,-7.5593,-0.49033,-0.013134,0.030543,0.044899,-26.82,30.66,-9.84
6.5786,-7.4776,-0.51757,0.0027489,0.021991,0.048869,-26.82,30.72,-9.9
6.5922,-7.5048,-0.50395,0.027489,0.0024435,0.058948,-26.7,30.66,-10.02
6.6331,-7.5321,-0.5993,0.043677,-0.011301,0.065057,-26.7,30.72,-9.9
6.6467,-7.5184,-0.50395,0.044593,-0.027489,0.065973,-26.88,30.66,-9.78
6.456,-7.4503,-0.50395,0.057727,-0.029932,0.067195,-26.76,30.72,-9.72
6.3471,-7.5048,-0.50395,0.073915,-0.018326,0.059865,-26.76,30.66,-9.84
6.3198,-7.5184,-0.57205,0.068722,-0.0033598,0.066584,-26.82,30.54,-9.84
6.4424,-7.5048,-0.47671,0.062003,0.0015272,0.068722,-26.82,30.9,-9.84
6.5105,-7.5184,-0.53119,0.054367,0.0036652,0.069333,-26.76,30.78,-9.78
6.5514,-7.6002,-0.5993,0.043371,-0.0012217,0.062308,-26.64,30.66,-9.9
6.4833,-7.5048,-0.54481,0.041233,-0.015272,0.058032,-26.58,30.66,-9.54
6.4152,-7.5593,-0.47671,0.038179,-0.017104,0.051924,-26.64,30.66,-9.6
6.3743,-7.5048,-0.51757,0.036957,-0.014355,0.052534,-26.58,30.66,-9.6
6.4152,-7.5457,-0.53119,0.033598,-0.020464,0.047037,-26.76,30.66,-9.78
6.4424,-7.5048,-0.50395,0.029932,-0.030238,0.041233,-26.82,30.66,-9.9
6.4424,-7.4503,-0.35413,0.026267,-0.036652,0.043677,-26.76,30.72,-10.08
6.4152,-7.5184,-0.47671,0.028405,-0.036652,0.035125,-26.7,30.78,-10.08
6.4152,-7.5184,-0.42223,0.028405,-0.025656,0.041844,-26.82,30.72,-10.08
6.4969,-7.4776,-0.43585,0.028405,-0.019548,0.037874,-26.7,30.9,-10.02
6.3743,-7.6274,-0.40861,0.047342,-0.019853,0.031154,-26.52,30.6,-10.2
6.3743,-7.5593,-0.43585,0.047647,-0.012217,0.036652,-26.58,30.72,-10.2
6.3743,-7.5048,-0.38137,0.037263,-0.0094684,0.047647,-26.58,30.84,-10.14
6.4969,-7.464,-0.46309,0.043371,-0.0018326,0.042761,-26.52,30.84,-10.5
6.565,-7.5729,-0.47671,0.054978,-0.0097738,0.040012,-26.64,30.66,-10.38
6.5786,-7.5865,-0.44947,0.042455,-0.036041,0.031154,-26.64,30.6,-10.5
6.5786,-7.5457,-0.39499,0.045509,-0.042455,0.030849,-26.58,30.78,-10.38
6.4424,-7.5321,-0.36775,0.040928,-0.044288,0.021075,-26.46,30.72,-10.2
6.3607,-7.5729,-0.31327,0.028711,-0.041539,0.020769,-26.4,30.66,-10.2
6.4152,-7.5321,-0.21793,0.016493,-0.032681,0.015882,-26.46,30.6,-10.2
6.3879,-7.5457,-0.27241,-0.0018326,-0.020159,0.013744,-26.46,30.42,-10.14
6.3743,-7.5048,-0.21793,-0.013134,-0.0097738,0.011606,-26.58,30.36,-10.08
6.3743,-7.5457,-0.32689,-0.015577,-0.0024435,0.0094684,-26.64,30.24,-10.02
6.4288,-7.5457,-0.29965,-0.027794,0.0039706,0.0073304,-26.4,30.0,-9.96
6.5378,-7.5457,-0.38137,-0.032376,-0.0076358,0.01405,-26.4,30.0,-10.14
6.4697,-7.5729,-0.31327,-0.0281,-0.013134,0.0079412,-26.4,29.94,-9.84
6.4833,-7.4776,-0.39499,-0.027489,-0.009163,0.011606,-26.34,30.06,-10.2
6.456,-7.5048,-0.38137,-0.03543,-0.0085521,0.002138,-26.34,30.18,-10.14
6.4152,-7.5048,-0.34051,-0.032987,0.000305,0.0045815,-26.34,30.0,-10.26
6.4833,-7.5729,-0.27241,-0.043066,0.0061087,-0.000611,-26.34,30.18,-10.44
6.5514,-7.6002,-0.32689,-0.045204,0.0048869,-0.0088575,-26.4,30.24,-10.38
6.5105,-7.5457,-0.31327,-0.055589,0.0036652,-0.0015272,-26.46,30.3,-10.5
6.4424,-7.5048,-0.28603,-0.069944,0.0027489,-0.0048869,-26.34,30.48,-10.68
6.4424,-7.4912,-0.27241,-0.058643,0.0097738,-0.0061087,-26.22,30.36,-10.8
6.4833,-7.5184,-0.25879,-0.057727,0.013134,-0.013134,-26.22,30.48,-10.86
6.4833,-7.5048,-0.29965,-0.065363,0.026267,-0.0030543,-26.34,30.54,-10.8
6.4833,-7.464,-0.23155,-0.059865,0.03879,-0.0048869,-26.4,30.6,-10.92
6.5514,-7.5457,-0.38137,-0.058948,0.030849,0.0027489,-26.28,30.54,-11.22
6.5241,-7.4776,-0.44947,-0.060781,0.024435,0.0015272,-26.22,30.66,-11.16
6.5786,-7.5048,-0.42223,-0.045509,0.011912,-0.009163,-26.34,30.48,-11.04
6.5514,-7.5048,-0.31327,-0.053756,-0.0039706,-0.0015272,-26.34,30.54,-10.98
6.5378,-7.4912,-0.31327,-0.052534,-0.011606,-0.0039706,-26.28,30.54,-10.98
6.4152,-7.4776,-0.29965,-0.052229,-0.010996,-0.000305,-26.34,30.42,-10.86
6.3471,-7.464,-0.34051,-0.051924,0.0079412,-0.010079,-26.34,30.42,-10.98
6.4424,-7.4503,-0.24517,-0.056505,0.018326,-0.0024435,-26.34,30.42,-10.86
6.5105,-7.4503,-0.31327,-0.064446,0.024129,-0.0079412,-26.28,30.48,-10.98
6.5105,-7.4912,-0.38137,-0.072998,0.029627,0.0027489,-26.4,30.54,-10.8
6.5378,-7.5184,-0.31327,-0.067806,0.028711,-0.0042761,-26.28,30.48,-10.92
6.6604,-7.4776,-0.47671,-0.065973,0.017715,0.002138,-26.28,30.6,-10.8
6.6195,-7.4912,-0.40861,-0.062614,0.0094684,0.000916,-26.46,30.6,-10.68
6.5786,-7.4231,-0.40861,-0.059865,0.013439,-0.0061087,-26.58,30.54,-10.68
6.5514,-7.3958,-0.31327,-0.054672,0.012523,-0.0048869,-26.58,30.6,-10.68
6.5786,-7.3822,-0.25879,-0.046731,0.0073304,-0.0082467,-26.58,30.42,-10.8
6.6059,-7.3958,-0.27241,-0.053145,0.007025,-0.0073304,-26.52,30.36,-10.86
6.5922,-7.4912,-0.35413,-0.049175,0.0088575,0.0024435,-26.58,30.3,-10.92
6.565,-7.3958,-0.28603,-0.050396,0.016493,-0.0015272,-26.52,30.42,-10.8
6.456,-7.4503,-0.32689,-0.045204,0.024435,-0.0045815,-26.7,30.42,-10.74
6.565,-7.4776,-0.31327,-0.047647,0.024129,0.0036652,-26.76,30.42,-10.68
6.565,-7.4776,-0.38137,-0.058643,0.034514,0.0036652,-26.7,30.3,-10.74
6.6331,-7.4367,-0.31327,-0.058948,0.037874,0.0030543,-26.82,30.18,-10.68
6.6604,-7.4776,-0.31327,-0.04948,0.044288,0.0030543,-27.0,30.12,-10.86
6.674,-7.4776,-0.40861,-0.057421,0.047647,0.0042761,-27.0,30.24,-10.8
6.6331,-7.4503,-0.31327,-0.053451,0.025962,0.0085521,-26.76,30.36,-10.8
6.7285,-7.464,-0.35413,-0.055283,0.01405,0.0030543,-26.7,30.18,-10.86
6.6331,-7.3822,-0.31327,-0.058032,0.002138,0.0054978,-26.64,30.24,-10.8
6.6059,-7.4231,-0.24517,-0.067806,0.0039706,0.0030543,-26.7,30.3,-10.8
6.5105,-7.4231,-0.31327,-0.07025,0.0061087,0.0042761,-26.76,30.24,-10.8
6.4424,-7.3958,-0.27241,-0.068722,0.020159,0.0076358,-26.52,30.24,-10.92
6.4697,-7.4367,-0.31327,-0.072998,0.032681,0.0030543,-26.46,30.36,-10.98
6.5378,-7.4776,-0.19068,-0.069333,0.052229,0.011301,-26.22,30.24,-10.92
6.4697,-7.3141,-0.31327,-0.075136,0.055894,0.022907,-26.16,30.24,-10.98
6.674,-7.5048,-0.38137,-0.058948,0.052229,0.025351,-26.1,30.42,-10.92
6.7148,-7.5184,-0.32689,-0.084299,0.067501,0.018326,-26.1,30.3,-10.98
6.6059,-7.4912,-0.34051,-0.062919,0.049175,0.000916,-25.98,30.24,-11.1
6.6604,-7.464,-0.24517,-0.079412,0.060476,0.014966,-25.98,30.18,-11.1
6.674,-7.355,-0.29965,-0.079412,0.047647,0.0033598,-26.22,30.36,-11.1
6.6059,-7.4231,-0.39499,-0.082161,0.041233,0.0094684,-26.22,30.42,-11.04
6.7012,-7.355,-0.28603,-0.077885,0.030238,0.0024435,-26.16,30.42,-11.04
6.5105,-7.355,-0.27241,-0.086437,0.025656,0.009163,-26.04,30.42,-10.98
6.565,-7.6138,-0.28603,-0.077885,0.043677,-0.0097738,-26.16,30.48,-10.98
6.674,-7.5321,-0.24517,-0.094684,0.033292,0.000305,-26.04,30.24,-10.8
6.5922,-7.4776,-0.31327,-0.085216,0.03146,-0.0024435,-26.34,30.3,-10.86
6.5786,-7.5048,-0.38137,-0.089797,0.043371,-0.007025,-26.28,30.3,-10.92
6.6059,-7.4367,-0.35413,-0.091019,0.043066,-0.0024435,-26.28,30.24,-10.92
6.6331,-7.4095,-0.36775,-0.083689,0.052229,-0.002138,-26.22,30.36,-10.86
6.6876,-7.4367,-0.46309,-0.079718,0.06017,-0.000305,-26.4,30.36,-10.92
6.7285,-7.4095,-0.44947,-0.081856,0.046731,-0.0036652,-26.52,30.24,-10.86
6.7421,-7.3686,-0.38137,-0.086132,0.011912,-0.0033598,-26.34,30.12,-10.8
6.7421,-7.3414,-0.38137,-0.074831,-0.0061087,0.0018326,-26.46,30.18,-10.86
6.6331,-7.3958,-0.40861,-0.068417,-0.013134,0.002138,-26.46,30.12,-10.92
6.6331,-7.3958,-0.40861,-0.068417,-0.013134,0.002138,-26.46,30.12,-10.92
6.6059,-7.4776,-0.36775,-0.051007,-0.010079,-0.0054978,-26.52,30.12,-10.86
6.5378,-7.3414,-0.34051,-0.050091,-0.015272,0.0067195,-26.7,30.12,-10.98
6.6059,-7.4095,-0.39499,-0.048564,0.000611,0.0054978,-26.52,30.12,-10.92
6.674,-7.4503,-0.40861,-0.043371,0.0073304,0.012523,-26.52,30.18,-10.62
6.7421,-7.464,-0.31327,-0.046426,-0.0073304,0.015577,-26.4,30.12,-10.56
6.6331,-7.4095,-0.43585,-0.028711,-0.022907,0.021686,-26.28,29.94,-10.26
6.6467,-7.3822,-0.39499,-0.025962,-0.018631,0.015272,-26.16,30.12,-10.26
6.674,-7.4095,-0.50395,-0.01741,-0.023213,0.014355,-26.04,30.0,-10.32
6.7012,-7.4231,-0.47671,-0.021991,-0.033598,0.02138,-26.1,29.88,-10.08
6.6876,-7.4095,-0.42223,-0.0067195,-0.047037,0.025045,-26.04,29.94,-9.9
6.674,-7.3822,-0.44947,-0.000611,-0.054672,0.017715,-26.1,29.88,-9.66
6.6059,-7.4367,-0.44947,-0.0015272,-0.053451,0.018631,-26.28,29.7,-9.72
6.6059,-7.4367,-0.44947,-0.0088575,-0.060781,0.031765,-26.28,29.7,-9.78
6.5786,-7.4231,-0.47671,-0.0054978,-0.051007,0.03146,-26.52,29.64,-10.2
6.6059,-7.4095,-0.40861,-0.0039706,-0.054672,0.025962,-26.46,29.7,-9.96
6.4697,-7.4231,-0.57205,-0.0058032,-0.057727,0.031154,-26.58,29.76,-9.84
6.5786,-7.3822,-0.49033,-0.007025,-0.05284,0.03879,-26.52,29.88,-10.02
6.565,-7.3686,-0.39499,0.0030543,-0.04948,0.037263,-26.52,29.94,-10.08
6.674,-7.4095,-0.55843,0.010996,-0.03879,0.044593,-26.58,29.94,-10.2
6.7012,-7.5048,-0.61292,0.025656,-0.053451,0.040317,-26.82,29.76,-10.56
6.674,-7.4503,-0.43585,0.014966,-0.087659,0.038485,-26.76,29.94,-10.68
6.5786,-7.3414,-0.50395,0.030849,-0.10079,0.043371,-26.64,30.06,-10.5
6.4833,-7.4503,-0.42223,0.027794,-0.097738,0.045509,-26.52,30.18,-10.38
6.5105,-7.4095,-0.40861,0.03207,-0.088881,0.040317,-26.52,30.36,-10.38
6.4697,-7.3958,-0.36775,0.0281,-0.083078,0.037874,-26.46,30.3,-10.38
6.4833,-7.4503,-0.46309,0.029932,-0.066279,0.044288,-26.52,30.3,-10.44
6.5786,-7.4095,-0.57205,0.033292,-0.057421,0.043066,-26.46,30.3,-10.5
6.674,-7.4503,-0.44947,0.030238,-0.063225,0.035125,-26.46,30.24,-10.56
6.6059,-7.4503,-0.35413,0.032376,-0.07422,0.040012,-26.58,30.36,-10.56
6.5241,-7.4231,-0.40861,0.046426,-0.085216,0.036041,-26.58,30.36,-10.56
6.4697,-7.4912,-0.40861,0.047342,-0.078496,0.036041,-26.52,30.42,-10.44
6.5105,-7.355,-0.44947,0.057421,-0.062919,0.032376,-26.4,30.48,-10.5
6.5786,-7.4095,-0.40861,0.049175,-0.071471,0.035125,-26.4,30.42,-10.26
6.5378,-7.5321,-0.51757,0.056505,-0.077274,0.034819,-26.52,30.54,-10.26
6.565,-7.4776,-0.46309,0.051618,-0.07422,0.037263,-26.58,30.42,-10.26
6.5514,-7.4231,-0.36775,0.039706,-0.07422,0.023518,-26.64,30.24,-10.08
6.5786,-7.3822,-0.34051,0.041539,-0.075136,0.026878,-26.7,30.18,-10.08
6.5378,-7.464,-0.32689,0.047647,-0.073915,0.03879,-26.7,30.18,-10.2
6.4288,-7.6002,-0.38137,0.055283,-0.06689,0.029627,-26.7,30.18,-10.14
6.5241,-7.5321,-0.35413,0.042455,-0.069028,0.021686,-26.76,30.24,-10.02
6.5105,-7.464,-0.28603,0.052534,-0.064141,0.025962,-26.94,30.12,-9.96
6.5241,-7.4776,-0.35413,0.059254,-0.047037,0.029322,-26.94,29.94,-9.96
6.6059,-7.4776,-0.42223,0.065057,-0.050091,0.025351,-26.94,29.88,-9.96
6.5786,-7.4367,-0.39499,0.054062,-0.07758,0.022297,-27.12,29.82,-10.02
6.5105,-7.4095,-0.38137,0.047953,-0.086132,0.02138,-27.12,29.76,-9.96
6.4288,-7.3822,-0.44947,0.048258,-0.075442,0.011912,-27.06,29.76,-10.2
6.4016,-7.5729,-0.39499,0.036957,-0.056505,0.014355,-27.12,29.76,-10.2
6.4152,-7.4776,-0.27241,0.033903,-0.05284,0.014355,-26.94,29.76,-10.32
6.4833,-7.5321,-0.21793,0.030238,-0.026573,0.010385,-26.88,29.82,-10.14
6.5105,-7.5048,-0.31327,0.018021,-0.021991,0.021686,-27.0,29.76,-10.08
6.4969,-7.4776,-0.31327,0.020769,-0.016493,0.019853,-27.0,29.76,-10.26
6.5378,-7.5457,-0.31327,0.012523,-0.010385,0.025351,-27.0,29.64,-10.38
6.5105,-7.3686,-0.34051,0.0085521,-0.000305,0.017104,-26.76,29.64,-10.26
6.6604,-7.246,-0.35413,0.0064141,-0.0036652,0.021075,-26.82,29.76,-10.26
6.4424,-7.2596,-0.27241,0.034208,-0.038179,0.025351,-26.94,29.7,-10.32
6.4424,-7.5048,-0.28603,-0.0067195,-0.020159,0.012217,-26.88,29.7,-10.32
6.4833,-7.4912,-0.21793,0.0058032,-0.0064141,0.015272,-26.82,29.7,-10.38
6.5378,-7.7364,-0.21793,0.015882,-0.010996,0.0073304,-26.88,29.7,-10.38
6.4833,-7.7091,-0.19068,-0.000916,0.0045815,0.0051924,-26.94,29.52,-10.38
6.5786,-7.6546,-0.23155,-0.000916,0.02474,0.000916,-27.06,29.64,-10.32
6.7421,-7.4095,-0.24517,-0.0281,0.048258,-0.000305,-27.12,29.76,-10.38
6.7421,-7.4231,-0.24517,-0.041233,0.03879,-0.000611,-27.0,29.64,-10.32
6.5105,-7.5321,-0.21793,-0.058948,0.024129,0.0024435,-27.06,29.82,-10.26
6.4288,-7.4776,-0.23155,-0.059559,0.037874,0.013134,-27.06,29.82,-10.32
6.4424,-7.5321,-0.28603,-0.065973,0.057116,0.0094684,-27.18,29.88,-10.32
6.5922,-7.5593,-0.27241,-0.067806,0.067195,0.0094684,-27.24,29.7,-10.38
6.5378,-7.4503,-0.32689,-0.071166,0.063225,0.0082467,-27.12,29.7,-10.38
6.6059,-7.4367,-0.27241,-0.072388,0.054672,0.0012217,-27.24,29.64,-10.5
6.6059,-7.3822,-0.20431,-0.080634,0.03879,0.0079412,-27.36,29.76,-10.5
6.5922,-7.4095,-0.34051,-0.072388,0.03543,0.0088575,-27.36,29.7,-10.44
6.4833,-7.464,-0.23155,-0.077885,0.043066,0.0045815,-27.3,29.7,-10.44
6.5241,-7.464,-0.21793,-0.079412,0.070555,0.016493,-27.36,29.64,-10.5
6.6331,-7.4503,-0.28603,-0.085827,0.083383,0.012828,-27.42,29.46,-10.56
6.674,-7.464,-0.28603,-0.082772,0.086743,0.01741,-27.48,29.58,-10.62
6.5922,-7.4776,-0.44947,-0.085521,0.091324,0.0076358,-27.3,29.52,-10.68
6.6331,-7.4503,-0.28603,-0.0956,0.07422,0.025045,-27.3,29.16,-10.56
6.5378,-7.4367,-0.27241,-0.085216,0.069333,0.018326,-27.3,29.22,-10.62
6.5922,-7.3822,-0.24517,-0.082467,0.072082,0.026267,-27.36,29.46,-10.62
6.6195,-7.4503,-0.23155,-0.070555,0.064446,0.032681,-27.42,29.52,-10.62
6.6467,-7.5457,-0.34051,-0.080634,0.073304,0.021075,-27.36,29.46,-10.56
6.5922,-7.4503,-0.24517,-0.080023,0.058643,0.036346,-27.18,29.4,-10.8
6.565,-7.5048,-0.25879,-0.061087,0.061697,0.031765,-27.24,29.52,-10.8
6.5786,-7.4776,-0.19068,-0.066279,0.058948,0.043982,-27.24,29.58,-10.86
6.6331,-7.4776,-0.24517,-0.069333,0.058338,0.040317,-27.36,29.52,-10.86
6.5105,-7.5184,-0.21793,-0.072388,0.054978,0.042455,-27.3,29.52,-10.86
6.4833,-7.5865,-0.17706,-0.066279,0.061087,0.038179,-27.3,29.46,-10.8
6.5786,-7.4367,-0.21793,-0.081245,0.076664,0.050091,-27.24,29.76,-10.92
6.6059,-7.4231,-0.19068,-0.070555,0.076664,0.049175,-27.3,29.94,-10.98
6.5786,-7.5184,-0.28603,-0.083383,0.083994,0.057421,-27.06,29.76,-10.98
6.674,-7.5184,-0.31327,-0.097433,0.07422,0.053756,-26.94,29.7,-10.98
6.6059,-7.5184,-0.25879,-0.1011,0.067195,0.055589,-26.94,29.76,-11.1
6.6331,-7.4231,-0.28603,-0.10018,0.05284,0.051313,-26.82,29.82,-11.1
6.5241,-7.3822,-0.21793,-0.094379,0.047647,0.047037,-26.7,29.94,-10.98
6.4969,-7.4912,-0.20431,-0.094684,0.055589,0.041539,-26.64,29.94,-10.98
6.5378,-7.4776,-0.12258,-0.089797,0.063835,0.041539,-26.58,30.0,-10.98
6.4833,-7.4503,-0.12258,-0.074526,0.079718,0.037568,-26.34,30.06,-11.16
6.565,-7.464,-0.16344,-0.07025,0.084605,0.037874,-26.34,30.18,-11.1
6.5786,-7.464,-0.1362,-0.06689,0.083078,0.042761,-26.4,30.3,-11.16
6.6059,-7.4776,-0.21793,-0.066584,0.07086,0.046426,-26.28,30.3,-11.28
6.6331,-7.4776,-0.28603,-0.068111,0.054672,0.044593,-26.16,30.24,-11.16
6.5514,-7.5457,-0.23155,-0.061087,0.043982,0.040012,-26.1,30.24,-11.16
6.5378,-7.4231,-0.12258,-0.07086,0.04612,0.040317,-26.04,30.42,-11.16
6.4833,-7.464,-0.27241,-0.07086,0.058948,0.04215,-25.92,30.42,-11.28
6.4833,-7.4912,-0.19068,-0.083383,0.06689,0.043982,-26.04,30.42,-11.22
6.5105,-7.4231,-0.16344,-0.077274,0.064752,0.037874,-26.16,30.48,-11.28
6.5786,-7.5048,-0.25879,-0.075136,0.059559,0.030849,-25.98,30.36,-11.4
6.6195,-7.4503,-0.1362,-0.085827,0.043982,0.034208,-25.98,30.3,-11.4
6.4833,-7.4231,-0.14982,-0.076969,0.051618,0.020769,-25.8,30.54,-11.28
6.5378,-7.5184,-0.23155,-0.078496,0.056505,0.016799,-25.74,30.54,-11.34
6.5786,-7.4776,-0.19068,-0.09896,0.057727,0.031154,-25.5,30.42,-11.46
6.5105,-7.4367,-0.24517,-0.094379,0.059559,0.028711,-25.62,30.42,-11.28
6.6195,-7.4367,-0.14982,-0.092852,0.061392,0.027794,-25.74,30.48,-11.16
6.6059,-7.4367,-0.16344,-0.08827,0.067806,0.025351,-25.74,30.42,-11.34
6.6876,-7.4912,-0.19068,-0.086743,0.062614,0.018021,-25.74,30.36,-11.4
6.6604,-7.4231,-0.17706,-0.09896,0.029627,0.011301,-25.56,30.54,-11.34
6.6059,-7.4503,-0.21793,-0.087354,0.026267,0.013744,-25.44,30.6,-11.34
6.5786,-7.4231,-0.19068,-0.085827,0.025656,0.01069,-25.5,30.6,-11.34
6.6059,-7.4095,-0.14982,-0.081551,0.025656,0.014966,-25.44,30.54,-11.34
6.6331,-7.3414,-0.14982,-0.083078,0.022907,0.012217,-25.44,30.66,-11.34
6.6331,-7.3141,-0.12258,-0.077274,0.015272,0.0033598,-25.5,30.6,-11.4
6.7012,-7.3141,-0.14982,-0.081245,0.013439,0.0094684,-25.5,30.78,-11.4
6.6331,-7.355,-0.21793,-0.073304,0.0073304,0.0064141,-25.68,30.9,-11.22
6.6331,-7.5457,-0.19068,-0.080329,0.0082467,-0.000916,-25.68,30.9,-11.22
6.565,-7.3822,0.027241,-0.082467,0.032987,0.009163,-25.68,31.08,-11.28
6.565,-7.3958,0.027241,-0.076358,0.045204,0.021686,-25.62,31.14,-11.1
6.7148,-7.4503,-0.14982,-0.062003,0.061392,0.016188,-25.62,31.2,-11.1
6.7557,-7.4776,-0.1362,-0.071471,0.062308,0.020769,-25.8,31.02,-11.04
6.7148,-7.4367,-0.14982,-0.065668,0.039706,0.014966,-25.8,30.96,-11.1
6.674,-7.4503,-0.17706,-0.065363,0.027184,0.010079,-25.68,31.02,-11.22
6.5786,-7.3958,-0.095342,-0.071777,0.020159,0.016188,-25.86,31.14,-11.16
6.4969,-7.4095,-0.17706,-0.061697,0.030543,0.01741,-25.92,31.08,-11.22
6.565,-7.4095,-0.14982,-0.060476,0.030543,0.023213,-26.04,31.14,-11.34
6.5786,-7.3958,-0.1362,-0.051007,0.028405,0.019548,-26.1,31.08,-11.52
6.5105,-7.355,-0.14982,-0.04612,0.0281,0.033292,-26.1,31.08,-11.46
6.5378,-7.4503,-0.14982,-0.018937,0.03543,0.026878,-26.04,31.08,-11.58
6.6059,-7.4776,-0.1362,-0.027184,0.036041,0.041233,-25.92,30.96,-11.58
6.5922,-7.5729,-0.040861,-0.010996,0.020159,0.046731,-25.8,30.9,-11.76
6.5378,-7.5729,-0.16344,-0.01405,0.0079412,0.048258,-25.86,30.9,-11.7
6.5786,-7.5321,-0.095342,-0.030238,0.015577,0.057727,-25.8,30.96,-11.82
6.5241,-7.5321,-0.040861,-0.040928,0.01069,0.057727,-25.92,30.96,-11.88
6.4969,-7.5048,-0.054481,-0.037568,0.015272,0.053145,-25.92,30.96,-11.82
6.3607,-7.4912,-0.20431,-0.045815,0.041233,0.054978,-25.68,31.02,-11.94
6.4833,-7.5048,-0.21793,-0.066584,0.052229,0.062003,-25.62,30.96,-11.94
6.5241,-7.5048,-0.25879,-0.064752,0.044899,0.058032,-25.5,30.84,-11.88
6.5514,-7.5048,-0.25879,-0.072998,0.02474,0.059559,-25.32,30.9,-11.94
6.3743,-7.4095,-0.27241,-0.076053,0.031154,0.065668,-25.2,30.9,-12.0
6.4152,-7.5184,-0.27241,-0.07422,0.029016,0.064446,-25.14,30.9,-11.94
6.6331,-7.5457,-0.21793,-0.076969,0.019853,0.069944,-25.2,30.84,-12.12
6.6195,-7.6546,-0.35413,-0.068111,-0.010996,0.076358,-25.26,31.02,-12.0
6.5514,-7.641,-0.19068,-0.080634,-0.043066,0.073304,-25.32,31.08,-12.12
6.3879,-7.641,-0.14982,-0.071471,-0.057116,0.069333,-25.32,31.2,-12.0
6.3607,-7.6002,-0.10896,-0.067501,-0.055283,0.083689,-25.2,31.2,-11.94
6.2245,-7.6683,-0.19068,-0.071166,-0.049175,0.085216,-25.2,31.14,-11.94
6.2517,-7.7091,-0.28603,-0.07025,-0.041539,0.086743,-25.2,31.08,-11.88
6.2926,-7.7091,-0.23155,-0.065668,-0.032987,0.084299,-25.2,31.14,-11.76
6.2654,-7.7772,-0.34051,-0.055894,-0.019853,0.071777,-25.26,31.26,-11.76
6.17,-7.7636,-0.31327,-0.057727,-0.029322,0.088575,-25.2,31.14,-11.7
6.1564,-7.7227,-0.24517,-0.058948,-0.0064141,0.082467,-25.26,31.14,-11.58
6.1292,-7.7636,-0.28603,-0.062003,0.0073304,0.097433,-25.2,31.2,-11.58
6.1564,-7.8045,-0.47671,-0.0562,-0.0067195,0.092546,-25.08,31.26,-11.52
6.0747,-7.8589,-0.49033,-0.063835,-0.018937,0.097128,-24.96,31.2,-11.58
6.0338,-7.8181,-0.34051,-0.062614,-0.036957,0.10293,-24.96,31.2,-11.52
6.0883,-7.8181,-0.39499,-0.050091,-0.02138,0.094684,-24.96,31.26,-11.52
5.9793,-7.8998,-0.51757,-0.061697,0.007025,0.097128,-24.96,31.32,-11.52
5.993,-7.8998,-0.64016,-0.065363,0.01405,0.097128,-24.84,31.38,-11.4
5.9657,-7.9543,-0.53119,-0.069944,0.018021,0.093462,-24.96,31.38,-11.34
6.0202,-7.9679,-0.53119,-0.063835,0.033292,0.0956,-25.02,31.38,-11.52
6.0474,-8.0632,-0.53119,-0.0562,0.012828,0.10782,-24.96,31.38,-11.52
6.0611,-7.9951,-0.61292,-0.065668,0.035736,0.11362,-25.02,31.5,-11.52
6.1155,-8.1313,-0.65378,-0.072082,0.031154,0.11698,-24.96,31.68,-11.52
6.2109,-8.2403,-0.57205,-0.067195,-0.02474,0.13744,-25.02,31.74,-11.4
6.2109,-8.2539,-0.40861,-0.06689,-0.054062,0.13592,-25.08,31.86,-11.52
5.9657,-8.1313,-0.32689,-0.050091,-0.11301,0.14875,-25.14,31.92,-11.4
5.8295,-8.1722,-0.38137,-0.048258,-0.1127,0.15791,-25.08,31.92,-11.46
5.7342,-8.2131,-0.42223,-0.04612,-0.062003,0.17501,-24.96,31.86,-11.34
5.7478,-8.0905,-0.50395,-0.075136,-0.037263,0.19945,-24.66,31.92,-11.16
5.7478,-8.0224,-0.50395,-0.08827,-0.050396,0.20006,-24.54,31.92,-11.16
5.6797,-8.0769,-0.7355,-0.099571,-0.044288,0.20678,-24.54,31.86,-11.22
5.7614,-7.9679,-0.9398,-0.12523,0.017715,0.197,-24.42,31.8,-11.16
5.7614,-8.0496,-0.95342,-0.13195,0.0281,0.18173,-24.3,31.8,-11.16
5.6388,-8.1177,-0.98067,-0.13775,0.043982,0.18173,-24.12,31.86,-11.16
5.5843,-8.1586,-1.1305,-0.14813,0.09163,0.15821,-23.88,31.86,-11.1
5.7342,-8.0769,-1.1441,-0.15577,0.089797,0.16707,-23.82,31.86,-11.04
5.7614,-8.0224,-1.2531,-0.13561,0.08827,0.15241,-23.76,31.92,-11.04
5.8704,-7.75,-1.3212,-0.13592,0.054978,0.13683,-23.58,32.16,-10.92
5.6797,-7.5865,-1.2258,-0.12828,0.013439,0.13103,-23.52,32.22,-10.98
5.5707,-7.4776,-1.185,-0.1066,-0.0067195,0.11881,-23.4,32.28,-10.92
5.5299,-7.4912,-0.96704,-0.049786,-0.027794,0.1124,-23.58,32.52,-10.98
5.3937,-7.8589,-0.83084,0.020769,-0.11454,0.12339,-23.58,32.64,-10.92
5.2575,-7.8453,-0.64016,0.017715,-0.087048,0.12584,-23.58,32.76,-10.92
5.2983,-8.0632,-0.55843,0.12523,-0.013744,0.1179,-23.4,33.3,-10.74
5.2166,-8.1858,-0.76274,0.14111,0.013744,0.11332,-23.28,33.48,-10.68
5.5435,-8.1858,-0.7355,0.14416,0.010996,0.1127,-23.34,33.48,-10.62
5.6524,-8.1313,-0.84446,0.13042,-0.021075,0.10568,-23.22,33.66,-10.5
5.7342,-8.2267,-0.7355,0.10476,-0.060781,0.085216,-23.22,33.72,-10.56
5.6933,-8.2812,-0.83084,0.078802,-0.078802,0.063225,-23.22,33.72,-10.74
5.5571,-8.1177,-0.7355,0.026878,-0.085827,0.051618,-23.16,33.66,-10.68
5.3392,-8.145,-0.6674,0.014661,-0.069028,0.036957,-23.04,33.6,-10.8
5.2575,-8.322,-0.78998,-0.002138,-0.04612,0.026267,-23.04,33.6,-10.92
5.2575,-8.2948,-0.47671,-0.051924,-0.029322,0.020159,-22.92,33.48,-10.74
5.1621,-8.2676,-0.50395,-0.072998,0.023824,0.025351,-22.92,33.36,-10.68
5.0668,-8.3084,-0.68102,-0.08094,0.034514,0.026573,-22.8,33.42,-10.68
5.1349,-8.322,-0.74912,-0.097433,0.034208,0.026267,-22.92,33.24,-10.68
5.3392,-8.1995,-0.6674,-0.11118,0.025045,0.017715,-22.8,33.24,-10.8
5.4073,-8.2403,-0.6674,-0.1069,0.013744,0.024129,-22.74,33.24,-10.8
5.5707,-8.2812,-0.88532,-0.067195,-0.028405,0.0054978,-22.8,33.24,-10.8
5.7069,-8.7306,-1.0624,-0.057421,-0.053451,0.0054978,-22.86,33.18,-10.86
5.7478,-8.8124,-1.1713,-0.11484,-0.17623,-0.025351,-22.86,33.18,-10.68
5.6524,-8.7579,-1.0488,-0.14813,-0.22052,-0.026267,-22.98,33.12,-10.62
5.0668,-8.2676,-0.92618,-0.22266,-0.22205,-0.021075,-23.16,33.12,-10.14
4.9987,-8.0769,-0.89894,-0.21472,-0.17959,-0.020464,-23.16,33.12,-10.14
4.8897,-8.1177,-0.85808,-0.23274,-0.12614,0.000611,-23.16,33.24,-10.08
4.7126,-7.7908,-0.69464,-0.22419,0.053756,0.0027489,-23.28,33.48,-10.02
4.7126,-7.8998,-0.8036,-0.1741,0.18906,-0.0030543,-23.46,33.48,-9.84
4.6718,-8.0224,-0.98067,-0.13561,0.29413,-0.015272,-23.4,33.66,-9.84
4.699,-8.3765,-1.1441,-0.17104,0.36499,0.009163,-23.46,33.66,-9.78
4.4402,-8.0632,-1.1169,-0.23274,0.36408,0.072388,-23.58,33.54,-9.6
4.2223,-8.0769,-1.1577,-0.23885,0.41417,0.14386,-23.7,33.6,-9.66
4.0589,-7.7364,-1.2667,-0.19212,0.61972,0.28497,-23.64,33.6,-9.6
4.3449,-7.5865,-1.0896,-0.30268,0.43066,0.50396,-23.64,33.54,-9.66
4.0861,-7.0962,0.040861,-0.30238,0.28619,0.61636,-23.52,33.54,-9.72
3.8682,-6.9464,-0.081722,-0.17593,0.036041,0.94195,-23.46,33.66,-9.96
4.1133,-7.6002,0.17706,-0.072388,-0.011606,1.0046,-23.34,33.78,-10.26
3.732,-7.7364,-0.19068,-0.14019,0.037874,1.0162,-23.28,33.78,-10.44
3.8001,-7.6819,-0.51757,-0.15424,0.25504,1.0751,-22.68,34.08,-10.74
3.1463,-7.7364,0.35413,-0.26634,0.62247,1.215,-22.38,34.2,-10.92
2.9829,-7.8862,-0.55843,-0.28375,0.81734,1.2281,-22.02,34.38,-11.04
2.7649,-8.3901,-0.98067,-0.48136,1.5843,1.4022,-21.66,34.56,-11.28
3.2144,-8.8941,0.92618,-0.35766,1.8717,1.4896,-20.64,35.34,-11.7
3.2553,-8.1177,2.5198,-0.18234,1.7804,1.5119,-20.1,35.7,-11.88
2.7513,-9.9429,0.38137,-0.25015,2.2187,1.5614,-18.72,36.42,-12.36
3.5004,-11.223,-0.5993,-0.069333,2.4438,1.4859,-18.0,36.9,-12.72
3.2825,-11.959,-0.83084,-0.33506,2.642,1.1377,-17.04,37.26,-13.08
3.3506,-11.85,-0.92618,-0.52748,2.8286,1.0125,-16.08,37.68,-13.5
3.8954,-11.319,-0.20431,-0.75289,3.4141,0.67989,-14.94,38.1,-13.74
4.9442,-10.474,0.95342,-0.63408,3.2529,0.53939,-12.42,38.82,-14.34
5.1894,-10.174,0.50395,-0.49297,2.7235,0.30543,-11.16,39.0,-14.7
5.2847,-10.297,-0.040861,-0.43127,2.5849,0.2022,-8.82,39.54,-15.18
5.4754,-10.297,-0.19068,-0.28344,1.8237,0.047037,-7.68,39.78,-15.48
5.4618,-10.106,-0.19068,-0.24984,1.1732,0.030238,-6.42,39.96,-15.66
5.3664,-9.793,-0.19068,-0.15241,0.53878,0.034514,-4.32,40.32,-16.08
5.0531,-9.6704,-0.040861,-0.058643,0.011606,0.055589,-3.12,40.38,-16.14
4.6309,-9.4661,-0.01362,-0.0058032,-0.32376,0.039706,-2.22,40.56,-16.32
4.0044,-9.1529,0.081722,0.074526,-0.5397,-0.018937,-0.78,40.62,-16.26
3.732,-9.2346,0.040861,0.10293,-0.55864,-0.064752,-0.24,40.74,-16.14
3.6911,-9.2891,-0.12258,0.12004,-0.52687,-0.12706,0.42,40.8,-16.08
3.7456,-9.3844,-0.19068,0.087048,-0.49419,-0.17501,0.72,40.68,-16.02
3.6094,-9.221,-0.095342,0.08094,-0.46731,-0.23854,0.96,40.74,-15.96
3.5685,-9.2074,0.027241,0.020464,-0.4328,-0.26725,1.14,40.8,-15.9
3.5685,-9.3299,0.095342,-0.018326,-0.41325,-0.26817,1.02,40.98,-16.08
3.5685,-9.3299,0.21793,-0.049786,-0.40653,-0.25259,0.96,41.04,-16.14
3.5685,-9.2891,0.28603,-0.084605,-0.39401,-0.22999,0.72,41.04,-16.08
3.5004,-9.2482,0.28603,-0.085521,-0.39004,-0.19792,0.36,41.1,-15.96
3.5413,-9.2891,0.31327,-0.089492,-0.38515,-0.14142,-0.12,41.16,-15.9
3.6366,-9.3163,0.40861,-0.084299,-0.39126,-0.083689,-0.3,41.16,-15.84
3.7728,-9.2482,0.54481,-0.090713,-0.44929,0.01405,-0.78,41.16,-16.02
3.8137,-9.1256,0.42223,-0.09499,-0.50855,0.082161,-1.02,41.22,-16.02
3.8137,-9.1256,0.42223,-0.09499,-0.50855,0.082161,-1.02,41.22,-16.02
3.9363,-9.3163,0.6674,-0.094684,-0.63866,0.12065,-1.68,41.46,-16.08
3.8818,-9.3436,0.6674,-0.092546,-0.63958,0.10873,-1.98,41.52,-15.96
3.8546,-9.3027,0.64016,-0.090713,-0.62033,0.055283,-2.34,41.4,-15.84
3.8001,-9.3163,0.72188,-0.080023,-0.57024,-0.036652,-2.76,41.28,-15.6
3.7865,-9.2618,0.70826,-0.052229,-0.51068,-0.14752,-3.0,41.4,-15.48
3.7184,-9.221,0.74912,-0.012217,-0.43097,-0.27184,-3.36,41.34,-15.36
3.6366,-9.2346,0.78998,0.057421,-0.30757,-0.46304,-3.9,41.1,-15.36
3.5822,-9.2755,0.57205,0.11423,-0.23182,-0.56352,-4.2,41.16,-15.24
3.5413,-9.3708,0.57205,0.17349,-0.19426,-0.62094,-4.56,41.22,-15.18
3.6094,-9.5479,0.47671,0.20831,-0.18509,-0.64935,-4.8,41.28,-15.06
3.5685,-9.5342,0.38137,0.22907,-0.21289,-0.63377,-5.52,40.98,-14.94
3.4732,-9.3844,0.39499,0.23427,-0.24007,-0.61239,-6.0,40.8,-14.76
3.3506,-9.2482,0.36775,0.24801,-0.24587,-0.56016,-6.3,40.62,-14.64
3.1872,-9.0848,0.24517,0.26176,-0.21319,-0.5174,-7.02,40.62,-14.58
3.1872,-9.0439,0.14982,0.28283,-0.18387,-0.46914,-7.5,40.5,-14.64
3.3097,-9.0848,0.095342,0.32193,-0.15913,-0.34422,-8.34,40.2,-14.7
3.4187,-9.0848,0.040861,0.33353,-0.18112,-0.24618,-8.64,40.2,-14.76
3.4596,-9.0303,0.040861,0.32498,-0.21014,-0.19273,-9.0,40.02,-14.82
3.4868,-8.9349,-0.040861,0.32987,-0.32284,-0.036652,-9.84,39.9,-14.94
3.5549,-8.8805,-0.14982,0.31857,-0.40409,0.054978,-10.14,39.72,-15.12
3.5004,-8.9349,-0.12258,0.3259,-0.45815,0.14691,-10.5,39.72,-15.24
3.5685,-9.1801,-0.24517,0.31734,-0.49663,0.25168,-11.16,39.48,-15.36
3.6094,-9.3844,-0.27241,0.30482,-0.52076,0.28222,-11.34,39.48,-15.66
3.6639,-9.507,-0.31327,0.24343,-0.53634,0.37202,-11.52,39.54,-15.78
3.6775,-9.6023,-0.25879,0.20647,-0.53726,0.3989,-11.88,39.6,-15.78
3.6366,-9.507,-0.31327,0.11118,-0.50305,0.41814,-12.3,39.12,-16.32
3.6366,-9.5479,-0.27241,0.04215,-0.44135,0.42791,-12.36,39.06,-16.38
3.5958,-9.4253,-0.31327,-0.057116,-0.29413,0.39981,-12.42,39.18,-16.62
3.6911,-9.5751,-0.17706,-0.07422,-0.23763,0.38668,-12.36,39.18,-16.68
3.7456,-9.5751,-0.1362,-0.15913,-0.091019,0.34056,-12.3,39.12,-16.8
3.8001,-9.5342,-0.1362,-0.20525,-0.038485,0.30177,-12.3,39.06,-16.8
3.8682,-9.4253,-0.027241,-0.23518,-0.0079412,0.25412,-12.24,39.24,-16.86
3.7728,-9.6023,0.054481,-0.27275,0.022907,0.18601,-12.06,39.06,-16.86
3.6775,-9.7385,0.14982,-0.32101,0.11087,0.10873,-11.82,39.12,-16.92
3.2961,-9.5887,0.12258,-0.42211,0.37171,-0.032681,-11.64,39.18,-16.86
3.1463,-9.4525,0.28603,-0.48167,0.61484,-0.13103,-11.58,39.18,-16.8
3.0646,-9.5479,0.36775,-0.51129,0.85521,-0.19609,-11.34,39.18,-16.86
3.2144,-9.8339,0.44947,-0.58735,1.0663,-0.25687,-11.1,39.48,-16.56
3.228,-9.5615,0.69464,-0.63499,1.2214,-0.28619,-10.98,39.66,-16.44
3.2825,-9.2482,0.7355,-0.60231,1.3103,-0.29199,-10.8,39.72,-16.32
3.4868,-8.9894,0.96704,-0.53054,1.3027,-0.29444,-10.62,39.96,-16.14
3.6094,-8.8124,0.89894,-0.4383,1.2138,-0.26145,-10.44,40.08,-16.02
3.6366,-8.7715,0.83084,-0.38943,1.1371,-0.22938,-10.26,40.2,-15.9
3.7728,-8.7443,0.6674,-0.27061,0.84269,-0.1124,-10.08,40.26,-15.9
3.732,-8.3765,0.5993,-0.17685,0.61178,-0.021075,-10.02,40.38,-15.78
3.7047,-8.322,0.38137,-0.10415,0.35705,0.08491,-9.9,40.5,-15.72
3.7047,-8.4174,0.31327,-0.0562,0.13408,0.18448,-9.72,40.5,-15.78
3.623,-8.6625,0.27241,-0.015882,-0.062614,0.31276,-9.12,40.68,-15.72
3.5004,-8.826,0.24517,-0.020464,-0.10171,0.38057,-8.82,40.74,-15.54
3.4732,-8.9622,0.17706,-0.043371,-0.065363,0.42608,-8.52,40.8,-15.48
3.4187,-9.0848,0.10896,-0.064141,0.033292,0.44379,-8.1,40.86,-15.36
3.5277,-9.0848,0.23155,-0.080329,0.16493,0.43494,-7.98,40.86,-15.36
3.5958,-9.221,0.28603,-0.072693,0.34056,0.37049,-7.56,40.8,-15.36
3.6911,-9.0984,0.25879,-0.063835,0.39034,0.34728,-7.32,40.8,-15.24
4.0316,-9.3299,0.19068,-0.027184,0.44502,0.29566,-6.9,40.86,-15.3
4.1406,-9.398,0.14982,0.019548,0.38423,0.23671,-6.54,40.98,-15.24
4.2223,-9.4525,0.14982,0.030543,0.29047,0.18815,-6.3,40.86,-15.3
4.0316,-9.4117,0.01362,0.043982,0.20892,0.14661,-5.76,40.92,-15.24
3.9635,-9.3299,-0.081722,0.062919,0.16646,0.074526,-5.46,41.04,-15.12
3.8273,-9.2346,-0.17706,0.066584,0.17287,0.047342,-5.22,40.98,-15.18
3.7728,-9.1937,-0.31327,0.088575,0.21594,-0.013439,-4.92,40.8,-15.3
3.8546,-9.221,-0.32689,0.089797,0.22694,-0.037263,-4.68,40.74,-15.36
3.7728,-9.3163,-0.44947,0.048564,0.23763,-0.053451,-4.38,40.74,-15.48
3.7728,-9.2482,-0.76274,0.0048869,0.24771,-0.05681,-3.84,40.68,-15.66
3.8409,-9.2891,-0.72188,-0.025351,0.20861,-0.059865,-3.66,40.68,-15.78
3.7047,-9.3027,-0.76274,-0.039401,0.17898,-0.049175,-3.54,40.62,-15.96
3.6639,-9.3436,-0.88532,-0.055894,0.13073,-0.023824,-3.24,40.5,-16.08
3.6503,-9.3436,-0.83084,-0.064446,0.092852,-0.013134,-3.18,40.38,-16.2
3.6366,-9.2482,-0.89894,-0.087354,0.013744,0.020769,-3.18,40.62,-16.2
3.6366,-9.3708,-0.74912,-0.10476,-0.053145,0.032987,-3.0,40.8,-16.26
3.5549,-9.3436,-0.5993,-0.12798,-0.10812,0.033292,-2.88,40.8,-16.32
3.4732,-9.3708,-0.5993,-0.16005,-0.11087,0.030849,-2.88,40.98,-16.44
3.3642,-9.3708,-0.44947,-0.17196,-0.045815,-0.01741,-2.94,40.98,-16.44
3.4187,-9.4253,-0.32689,-0.19059,0.069028,-0.055283,-3.06,40.98,-16.56
3.4732,-9.3844,-0.24517,-0.20433,0.14172,-0.096822,-3.06,40.98,-16.5
3.6094,-9.3844,-0.23155,-0.20617,0.15974,-0.1292,-3.18,41.22,-16.32
3.5413,-9.3027,-0.12258,-0.21289,0.15547,-0.15577,-3.42,41.28,-16.32
3.514,-9.2074,-0.12258,-0.20464,0.15547,-0.15852,-3.54,41.4,-16.32
3.5413,-9.1801,-0.040861,-0.18876,0.13256,-0.14844,-3.54,41.4,-16.38
3.5413,-8.9894,-0.068102,-0.15577,0.073609,-0.12828,-3.78,41.52,-16.32
3.5413,-9.0167,-0.10896,-0.12248,0.024435,-0.097433,-3.78,41.34,-16.32
3.4187,-8.9077,0.01362,-0.11393,0.0012217,-0.080329,-3.96,41.28,-16.2
3.4187,-8.8941,-0.10896,-0.10354,-0.01069,-0.051924,-4.02,41.1,-15.96
