Ax,Ay,Az,Gx,Gy,Gz,Mx,My,Mz
2.8467,-10.311,1.6481,-0.25717,-0.67623,0.033598,-0.48,38.94,-11.4
2.7649,-10.229,1.6072,-0.27886,-0.41081,-0.081551,-0.3,38.82,-11.46
2.6968,-9.5479,1.58,-0.26909,-0.10446,-0.19884,-0.12,38.76,-11.46
2.7241,-9.3299,1.58,-0.19364,0.28344,-0.37782,-0.12,38.94,-11.4
2.8603,-9.1256,1.6889,-0.16799,0.36316,-0.43524,-0.12,38.94,-11.46
2.9829,-9.221,1.7298,-0.099266,0.43188,-0.53726,-0.06,39.0,-11.34
3.051,-9.5887,1.8115,-0.085216,0.38118,-0.57482,-0.18,39.06,-11.28
2.9965,-9.6704,1.757,-0.088881,0.3207,-0.5846,-0.3,39.12,-11.22
2.7377,-9.8884,1.8932,-0.11881,0.24374,-0.5623,-0.6,39.18,-11.04
2.5334,-10.12,2.0158,-0.14447,0.27733,-0.50702,-0.9,39.18,-10.98
2.6151,-9.9565,1.9886,-0.11454,0.3656,-0.44379,-1.02,39.06,-10.86
2.6423,-9.7385,1.9613,-0.064141,0.4664,-0.39615,-1.26,39.0,-10.92
2.8603,-9.1937,1.7162,0.039401,0.54275,-0.37538,-1.56,39.06,-10.86
3.0237,-8.322,1.5255,0.16616,0.50763,-0.36438,-2.22,39.18,-10.8
3.2553,-8.0769,1.4574,0.30207,0.3204,-0.32284,-2.52,39.24,-10.86
3.5004,-8.5263,1.3893,0.41081,-0.0030543,-0.2587,-3.0,38.88,-10.86
3.5277,-9.0031,1.2258,0.46884,-0.3375,-0.20708,-3.3,38.76,-10.92
3.5413,-9.3844,1.185,0.45173,-0.72296,-0.13592,-3.54,38.64,-10.98
3.3506,-9.6432,1.0896,0.39218,-0.82161,-0.094684,-4.26,38.4,-11.1
3.1735,-9.4661,1.0896,0.33262,-0.77336,-0.078802,-4.56,38.34,-11.16
2.9965,-9.112,0.88532,0.28283,-0.62094,-0.074526,-4.92,38.1,-11.28
2.7649,-8.7715,0.78998,0.23671,-0.30788,-0.08827,-5.16,37.92,-11.52
2.7377,-8.6762,0.77636,0.21869,-0.097738,-0.089492,-5.4,37.8,-11.82
2.7922,-8.717,0.8036,0.22541,-0.0039706,-0.09163,-5.7,37.62,-11.94
2.9556,-8.9486,0.77636,0.21228,0.18509,-0.090408,-5.88,37.44,-12.36
3.1327,-9.0848,0.78998,0.19517,0.21777,-0.04948,-6.24,37.38,-12.66
3.3915,-9.2618,0.76274,0.17593,0.17043,0.012217,-6.48,37.38,-12.78
3.5958,-9.2891,0.69464,0.12065,0.069333,0.10263,-6.9,37.14,-13.44
3.5277,-9.1529,0.61292,0.089492,0.014355,0.15302,-7.08,37.08,-13.62
3.5413,-9.0848,0.6674,0.069028,-0.0082467,0.17776,-7.26,37.02,-13.92
3.5685,-8.9349,0.53119,0.018021,-0.040012,0.24038,-7.14,36.84,-14.4
3.5822,-8.9758,0.44947,-0.012828,0.11637,0.2584,-7.14,36.66,-14.64
3.7592,-9.0303,0.35413,-0.068111,0.43585,0.24465,-7.38,36.6,-15.06
4.2768,-9.1937,0.47671,-0.1518,0.56047,0.20861,-7.2,36.66,-15.12
4.5083,-9.2346,0.7355,-0.22694,0.45601,0.17532,-7.26,36.48,-15.18
4.5356,-9.221,0.81722,-0.26695,0.3259,0.16341,-7.02,36.54,-15.36
4.2495,-9.1937,0.95342,-0.34728,-0.065057,0.12462,-6.96,36.36,-15.18
4.0316,-9.1937,0.92618,-0.36866,-0.22174,0.11606,-6.66,36.42,-15.0
3.6911,-9.0984,0.8717,-0.36224,-0.23427,0.10812,-6.36,36.42,-14.94
3.3097,-8.9894,0.9398,-0.32132,-0.0097738,0.096517,-6.0,36.66,-14.52
3.2416,-9.0439,1.0351,-0.27153,0.13744,0.08491,-5.76,36.72,-14.28
3.2961,-9.0439,1.1169,-0.26542,0.18692,0.08827,-5.64,36.84,-14.1
3.4187,-9.2074,1.1713,-0.24068,0.22113,0.096211,-5.58,36.96,-13.92
3.514,-9.1665,1.2258,-0.23427,0.16066,0.12859,-5.34,37.2,-13.5
3.4732,-9.0712,1.185,-0.22877,0.099571,0.15455,-5.16,37.2,-13.32
3.4868,-8.826,1.1577,-0.20464,0.025351,0.23305,-4.8,37.38,-12.96
3.5413,-8.7715,1.1986,-0.19212,0.0024435,0.2584,-4.62,37.62,-12.84
3.7047,-8.7987,1.2803,-0.17715,-0.059559,0.29108,-4.5,37.8,-12.48
3.732,-8.8941,1.2395,-0.17013,-0.18326,0.32834,-4.2,37.86,-12.48
3.7047,-9.0031,1.2122,-0.15913,-0.24343,0.31307,-3.78,38.1,-12.24
3.6366,-9.0167,1.2258,-0.15363,-0.23702,0.29658,-3.66,38.1,-12.12
3.7047,-9.0303,1.1032,-0.12675,-0.13867,0.21869,-3.36,38.16,-12.06
3.6775,-9.0575,1.2122,-0.087354,-0.073915,0.16096,-3.24,38.34,-12.12
3.6911,-9.1256,1.1169,-0.043677,-0.019548,0.093768,-2.88,38.4,-11.94
3.7047,-9.1937,1.0896,-0.0067195,-0.0018326,0.037874,-2.64,38.46,-11.88
3.7184,-9.2482,1.1305,0.029627,-0.037263,-0.017104,-2.16,38.58,-11.7
3.5822,-9.221,1.0896,0.058338,-0.083078,-0.051007,-1.98,38.7,-11.76
3.5277,-9.2482,1.0624,0.089797,-0.093157,-0.076664,-1.74,38.58,-11.7
3.3915,-9.2891,1.0624,0.12675,-0.043982,-0.092852,-1.8,38.58,-11.52
3.4051,-9.221,1.0624,0.1405,-0.040012,-0.099571,-1.74,38.52,-11.58
3.3915,-9.2074,0.99429,0.15058,-0.048564,-0.10721,-1.8,38.52,-11.52
3.337,-9.1529,1.076,0.16493,-0.10873,-0.09896,-2.04,38.46,-11.64
3.3778,-9.1393,0.99429,0.17807,-0.13958,-0.096211,-2.16,38.52,-11.7
3.4323,-9.1393,0.89894,0.1909,-0.18509,-0.087048,-2.22,38.34,-11.76
3.3097,-9.1393,0.8717,0.18662,-0.21441,-0.092546,-2.34,38.22,-11.94
3.4051,-9.2346,0.99429,0.17807,-0.2361,-0.089186,-2.52,38.1,-12.06
3.3097,-9.2482,0.99429,0.17532,-0.23915,-0.098655,-2.64,38.1,-12.3
3.2144,-9.2482,0.89894,0.15608,-0.20342,-0.12126,-3.18,38.04,-12.6
3.1327,-9.2618,0.84446,0.14447,-0.14111,-0.13928,-3.36,37.92,-12.54
3.0782,-9.3163,0.8717,0.11515,-0.013134,-0.15485,-3.78,37.92,-13.02
3.1191,-9.2891,0.9398,0.10201,0.055283,-0.16493,-3.9,37.8,-13.14
3.0646,-9.2891,0.96704,0.077274,0.095295,-0.15027,-4.02,37.74,-13.26
3.1191,-9.2346,0.91256,0.073304,0.094684,-0.14722,-4.14,37.8,-13.44
3.0918,-9.1256,0.92618,0.045509,0.098655,-0.10385,-4.2,37.8,-13.68
3.1599,-9.112,0.9398,0.034208,0.092546,-0.079718,-4.56,37.68,-14.1
3.1191,-9.1529,0.96704,-0.000611,0.082161,-0.03543,-4.8,37.68,-14.1
3.1735,-9.0439,0.8036,-0.019242,0.061392,-0.016799,-4.98,37.62,-14.28
3.1872,-9.1256,1.0079,-0.065363,0.07025,0.049786,-5.28,37.74,-14.34
3.2553,-9.1529,1.0215,-0.076053,0.073915,0.058338,-5.52,37.5,-14.34
3.2553,-9.1801,0.98067,-0.11515,0.079412,0.095906,-5.52,37.38,-14.52
3.3778,-9.1937,0.99429,-0.12859,0.080634,0.099571,-5.46,37.44,-14.7
3.4459,-9.221,1.0351,-0.14325,0.064141,0.12065,-5.4,37.44,-14.82
3.4459,-9.2482,1.1577,-0.15791,0.045815,0.13195,-5.4,37.32,-14.82
3.4051,-9.1801,0.99429,-0.16799,0.046426,0.13073,-5.34,37.2,-14.82
3.4187,-9.0984,1.185,-0.17196,0.045815,0.13042,-5.16,37.26,-14.76
3.4051,-9.1256,1.0896,-0.17196,0.040928,0.12248,-5.16,37.14,-14.76
3.4459,-9.1529,1.1169,-0.18082,0.048564,0.11698,-4.86,37.08,-14.52
3.4868,-9.1665,1.0488,-0.17685,0.048258,0.11454,-4.8,37.14,-14.46
3.4051,-9.2346,1.1577,-0.18418,0.06017,0.10812,-4.68,37.26,-14.16
3.514,-9.3163,1.185,-0.18418,0.081245,0.10812,-4.32,37.2,-14.16
3.4596,-9.2618,1.1577,-0.19334,0.090713,0.10568,-4.2,37.32,-13.92
3.5004,-9.221,1.185,-0.18784,0.10049,0.095295,-4.08,37.38,-13.68
3.514,-9.112,1.2258,-0.18357,0.094073,0.08491,-4.08,37.26,-13.5
3.514,-9.1801,1.185,-0.17074,0.086132,0.069028,-4.02,37.38,-13.26
3.5413,-9.1529,1.2258,-0.15669,0.070555,0.043982,-3.78,37.38,-13.2
3.5685,-9.1529,1.2531,-0.13531,0.055894,0.016799,-3.66,37.62,-13.02
3.514,-9.1529,1.185,-0.12492,0.061392,0.0048869,-3.6,37.62,-12.9
3.4187,-9.221,1.2531,-0.10171,0.069028,-0.020464,-3.42,37.62,-12.6
3.4459,-9.1529,1.185,-0.089186,0.082772,-0.026573,-3.24,37.74,-12.3
3.3506,-9.1937,1.2258,-0.072998,0.08094,-0.034208,-3.18,37.62,-12.36
3.3506,-9.1665,1.1713,-0.054978,0.06353,-0.043677,-3.12,37.62,-12.24
3.4051,-9.0848,1.2803,-0.029016,0.045204,-0.040012,-3.24,37.68,-12.06
3.4051,-9.0167,1.2939,-0.012828,0.022602,-0.041539,-3.12,37.74,-12.06
3.2825,-9.0575,1.185,0.0045815,0.000611,-0.035736,-3.12,37.8,-11.94
3.3778,-9.0848,1.2122,0.024129,-0.0082467,-0.037568,-3.12,37.92,-11.82
3.3097,-9.1529,1.185,0.014966,0.0027489,-0.031154,-3.0,37.92,-11.76
3.3778,-9.1665,1.1169,0.019853,0.027489,-0.023518,-3.0,38.1,-11.7
3.3778,-9.1393,1.1169,0.010385,0.043066,-0.012828,-3.06,38.04,-11.7
3.4459,-9.1256,1.0079,0.0012217,0.032681,-0.0088575,-3.18,37.98,-11.64
3.4187,-9.1529,1.0896,0.012523,0.015882,-0.007025,-3.3,37.92,-11.94
3.5413,-9.1801,1.0624,0.015272,-0.0058032,-0.0012217,-3.36,38.04,-12.06
3.4868,-9.1665,1.0215,0.016493,-0.03146,0.000916,-3.3,38.22,-12.0
3.4459,-9.0984,0.9398,0.024129,-0.050702,0.0015272,-3.42,38.22,-12.24
3.4187,-9.1529,0.99429,0.031765,-0.072388,-0.0054978,-3.3,38.22,-12.36
3.3915,-9.1529,0.99429,0.023518,-0.069639,-0.01069,-3.36,38.28,-12.48
3.3915,-9.221,0.92618,0.024129,-0.055894,-0.013744,-3.36,38.22,-12.42
3.337,-9.221,0.92618,0.01069,-0.024435,-0.023824,-3.36,38.1,-12.54
3.3778,-9.1937,0.92618,-0.0054978,-0.020159,-0.013439,-3.42,37.98,-12.6
3.3778,-9.1937,0.9398,-0.0082467,-0.022297,-0.0079412,-3.42,37.8,-12.78
3.3778,-9.0848,0.96704,-0.013134,-0.029627,-0.007025,-3.54,37.74,-12.72
3.2553,-9.1529,0.96704,-0.019548,-0.026573,-0.000305,-3.48,37.74,-12.72
3.2961,-9.221,1.0079,-0.025045,-0.02474,0.024435,-3.6,37.68,-12.72
3.3642,-9.1529,1.1577,-0.033598,-0.037568,0.039095,-3.84,37.56,-12.66
3.3097,-9.2074,1.0215,-0.053756,-0.043982,0.047647,-4.02,37.44,-12.72
3.1191,-9.1529,0.99429,-0.051924,-0.025656,0.045815,-4.08,37.5,-12.6
3.1872,-9.2074,1.076,-0.041539,0.053451,0.034208,-4.14,37.44,-12.54
3.3234,-9.1665,1.0488,-0.040012,0.059254,0.032681,-4.2,37.44,-12.6
3.2008,-9.2482,1.0624,-0.029932,0.052229,0.032681,-4.38,37.44,-12.78
3.2825,-9.1529,1.0215,-0.037263,0.039706,0.029322,-4.44,37.68,-12.78
3.2825,-9.1529,0.98067,-0.033292,0.036346,0.032376,-4.44,37.86,-12.78
3.3234,-9.2074,0.99429,-0.0281,0.032681,0.048258,-4.5,37.86,-12.72
3.3506,-9.2618,1.0215,-0.030543,0.040928,0.061697,-4.14,37.92,-12.6
3.4187,-9.0575,0.96704,-0.046426,0.03879,0.073304,-4.08,37.86,-12.66
3.4051,-9.1937,1.0215,-0.05284,0.01405,0.085827,-4.08,37.92,-12.66
3.5549,-9.0303,1.0624,-0.051924,-0.0045815,0.084299,-3.9,37.98,-12.66
3.4459,-9.0848,1.076,-0.058338,-0.038179,0.095295,-3.84,38.04,-12.84
3.4732,-9.0439,1.0624,-0.06689,-0.037874,0.082161,-3.66,37.98,-12.66
3.3778,-9.0439,1.1169,-0.079107,-0.028711,0.086743,-3.6,37.98,-12.72
3.4051,-9.0575,1.0624,-0.10171,-0.0088575,0.083383,-3.66,37.74,-12.54
3.4187,-9.0848,1.0896,-0.094379,-0.0079412,0.081551,-3.48,37.74,-12.48
3.3778,-9.0848,1.1577,-0.10385,-0.0048869,0.091324,-3.42,37.68,-12.42
3.4051,-9.0984,1.1577,-0.1011,-0.0033598,0.084299,-3.36,37.5,-12.42
3.4187,-9.1529,1.1577,-0.091019,0.0051924,0.07758,-3.42,37.5,-12.54
3.4732,-9.3027,1.2258,-0.067195,0.018021,0.058032,-3.48,37.44,-12.48
3.5277,-9.3299,1.185,-0.047037,0.0061087,0.044899,-3.6,37.56,-12.54
3.3778,-9.3572,1.1305,-0.037263,-0.0058032,0.027489,-3.6,37.74,-12.54
3.4459,-9.3844,1.2395,-0.011606,-0.014966,0.0024435,-3.6,37.74,-12.42
3.514,-9.3708,1.185,0.025656,-0.012523,-0.028711,-3.48,37.74,-12.42
3.3778,-9.2482,1.1169,0.051007,-0.026573,-0.050091,-3.42,37.56,-12.6
3.3506,-9.1937,1.0896,0.069944,-0.044288,-0.066279,-3.36,37.62,-12.54
3.2689,-9.1801,1.0624,0.072388,-0.051618,-0.077274,-3.24,37.74,-12.66
3.2144,-9.1529,1.0215,0.07025,-0.041844,-0.078191,-3.3,37.86,-12.72
3.0782,-9.1256,1.0215,0.066279,-0.026573,-0.074831,-3.42,37.8,-12.84
3.0646,-9.1256,0.9398,0.046731,0.022602,-0.045509,-3.6,38.1,-12.84
3.2416,-9.2482,0.9398,0.029322,-0.002138,-0.01741,-3.6,37.98,-12.72
3.2553,-9.2074,0.77636,-0.0079412,-0.083689,0.012828,-3.66,37.98,-12.66
3.1872,-9.221,0.70826,-0.054672,-0.075442,0.038485,-3.9,37.74,-12.72
3.1599,-9.1937,0.8036,-0.064446,-0.035125,0.048869,-3.84,37.56,-12.84
3.3234,-9.1529,0.81722,-0.088575,0.047647,0.058643,-3.96,37.56,-13.02
3.3097,-9.2346,0.88532,-0.09163,0.11606,0.053756,-4.14,37.62,-12.9
3.5413,-9.3163,1.0215,-0.1014,0.064141,0.053451,-4.14,37.8,-12.84
3.4868,-9.3163,1.076,-0.11087,-0.0094684,0.032987,-4.2,37.8,-12.78
3.3097,-9.2346,1.0215,-0.098044,0.045815,0.019242,-4.2,37.8,-12.72
3.3506,-9.0712,0.98067,-0.09499,0.080023,0.013134,-4.14,37.8,-12.78
3.3642,-9.0984,1.1305,-0.07025,0.094073,0.010385,-4.08,37.86,-12.72
3.4187,-9.0303,1.0896,-0.065973,0.044899,0.0018326,-3.96,37.74,-12.78
3.3234,-9.0984,0.95342,-0.064446,0.0012217,0.0015272,-4.02,37.74,-12.84
3.3234,-9.1393,1.0896,-0.058338,-0.029016,0.0051924,-3.96,37.8,-12.9
3.228,-9.1256,1.0896,-0.055894,-0.023213,0.025045,-3.84,37.86,-12.84
3.2008,-9.112,1.1032,-0.040623,-0.0054978,0.051313,-3.96,37.98,-12.96
3.337,-9.1529,1.1577,-0.047342,0.000611,0.076664,-3.9,37.86,-12.96
3.4187,-9.1529,1.0488,-0.031765,-0.017715,0.076664,-3.72,37.8,-12.96
3.3915,-9.0575,1.0215,-0.027489,-0.025351,0.06689,-3.78,37.62,-12.78
3.4187,-9.0575,1.0351,-0.03207,-0.040928,0.064752,-3.84,37.68,-12.9
3.4051,-9.0303,0.9398,-0.037874,-0.097128,0.074831,-3.96,37.74,-12.9
3.3778,-9.1529,0.95342,-0.043982,-0.098655,0.075136,-4.08,37.56,-12.72
3.4868,-9.2618,0.98067,-0.051618,-0.10537,0.07758,-4.02,37.56,-12.72
3.3915,-9.2755,1.0351,-0.059254,-0.062003,0.078496,-4.02,37.62,-12.84
3.3778,-9.2618,0.95342,-0.05284,-0.049175,0.067195,-3.78,37.56,-12.84
3.3642,-9.2618,0.99429,-0.047342,-0.051924,0.05284,-3.9,37.5,-12.9
3.3234,-9.2346,0.99429,-0.029627,-0.050396,0.030543,-3.96,37.5,-12.84
3.3506,-9.1937,0.96704,-0.015272,-0.048564,0.01405,-3.72,37.5,-12.66
3.2553,-9.221,0.92618,-0.012828,-0.051924,0.0073304,-3.66,37.62,-12.54
3.228,-9.2074,0.8036,-0.0061087,-0.042455,-0.0015272,-3.6,37.74,-12.66
3.2144,-9.221,0.81722,-0.017715,-0.017104,0.0094684,-3.54,37.8,-12.66
3.1872,-9.1801,0.8717,-0.021991,0.0051924,0.023824,-3.66,37.68,-12.72
3.2144,-9.1529,0.83084,-0.026267,0.032987,0.036957,-3.6,37.74,-12.84
3.3097,-9.221,0.96704,-0.034208,0.037568,0.042761,-3.48,37.86,-13.08
3.3234,-9.1937,0.9398,-0.035125,0.0036652,0.03879,-3.48,37.8,-13.02
3.2553,-9.1529,0.99429,-0.028711,-0.01069,0.03879,-3.48,37.8,-12.96
3.4051,-9.221,0.99429,-0.028711,-0.019242,0.030849,-3.66,37.98,-13.08
3.3506,-9.2482,1.076,-0.027184,-0.029932,0.019548,-3.6,37.98,-13.14
3.3778,-9.221,1.0079,-0.039095,-0.034819,0.020464,-3.66,38.16,-13.32
3.2825,-9.2755,0.91256,-0.036652,-0.048564,0.018021,-3.66,38.04,-13.44
3.3234,-9.2482,1.0215,-0.037568,-0.040012,0.012523,-3.66,38.1,-13.5
3.2961,-9.2482,0.95342,-0.039706,-0.0085521,-0.012828,-3.72,37.98,-13.5
3.2825,-9.2618,1.0215,-0.040012,0.01741,-0.015577,-3.66,37.98,-13.62
3.2416,-9.2346,0.99429,-0.036346,0.028405,-0.011606,-3.6,38.04,-13.56
3.2553,-9.2346,1.0624,-0.035736,0.015882,-0.010996,-3.54,37.92,-13.56
3.2416,-9.1801,0.98067,-0.037568,0.0064141,-0.009163,-3.54,37.98,-13.38
3.2689,-9.221,0.8717,-0.03146,-0.002138,-0.0067195,-3.54,38.04,-13.32
3.2008,-9.1937,0.96704,-0.031765,-0.0051924,-0.000916,-3.54,38.04,-13.14
3.228,-9.2074,0.96704,-0.035125,-0.0067195,-0.0045815,-3.48,38.04,-13.02
3.2825,-9.221,0.9398,-0.036346,-0.014966,0.0033598,-3.54,38.04,-12.9
3.228,-9.1937,0.98067,-0.034819,0.0033598,0.0064141,-3.54,37.98,-12.84
3.228,-9.2074,0.99429,-0.028711,0.025962,-0.0051924,-3.66,37.98,-12.9
3.2961,-9.1937,0.99429,-0.035125,0.025351,-0.0076358,-3.78,38.1,-12.96
3.3506,-9.1937,1.0079,-0.036652,0.029322,-0.015577,-3.78,38.16,-12.9
3.3097,-9.1937,0.89894,-0.038179,0.040317,-0.020464,-3.84,38.16,-12.84
3.2144,-9.1393,1.076,-0.041844,0.056505,-0.015577,-3.78,38.04,-12.84
3.3506,-9.1665,1.1032,-0.033292,0.065668,-0.012523,-3.78,38.1,-12.66
3.4187,-9.1393,1.0896,-0.028711,0.028711,0.000305,-3.9,38.16,-12.84
3.3778,-9.0984,1.0351,-0.031154,0.016799,0.0030543,-4.14,37.98,-12.9
3.3234,-9.1529,0.91256,-0.033903,-0.0027489,0.011912,-4.02,37.92,-13.02
3.337,-9.1529,1.0351,-0.03146,0.012217,0.0067195,-4.08,37.98,-13.2
3.3506,-9.1393,1.1169,-0.025351,0.026573,0.0036652,-4.02,37.98,-13.2
3.3642,-9.1937,1.0896,-0.030543,0.028711,0.0082467,-4.08,37.8,-13.26
3.3915,-9.1393,0.99429,-0.023213,0.017104,0.0073304,-4.02,38.04,-13.32
3.4051,-9.1801,1.1305,-0.019548,0.010079,0.011606,-4.02,37.86,-13.14
3.2961,-9.112,1.1169,-0.014966,0.000611,0.007025,-4.02,37.86,-13.14
3.3234,-9.1256,1.0896,-0.022297,-0.007025,0.0067195,-4.02,37.92,-13.14
3.4187,-9.1937,1.0624,-0.016188,-0.000611,0.0061087,-4.2,37.74,-13.08
3.2689,-9.112,1.076,-0.011301,-0.002138,-0.0048869,-4.32,37.74,-13.14
3.3097,-9.2074,1.1032,-0.018326,0.0030543,-0.0030543,-4.38,37.62,-13.14
3.337,-9.2618,0.96704,-0.010996,0.0073304,-0.000916,-4.32,37.62,-13.08
3.4187,-9.2482,0.99429,-0.020769,-0.0064141,0.0076358,-4.5,37.56,-13.08
3.4187,-9.2074,1.0624,-0.023213,-0.022602,0.016188,-4.5,37.56,-13.08
3.3234,-9.1393,1.0624,-0.025656,-0.021075,0.026267,-4.5,37.56,-13.02
3.3097,-9.1937,1.0624,-0.025045,0.0073304,0.024129,-4.5,37.56,-12.96
3.3234,-9.1801,0.96704,-0.018631,0.015882,0.014966,-4.68,37.26,-12.9
3.4051,-9.2346,1.0351,-0.025351,0.000916,0.014355,-4.8,37.38,-12.84
3.4187,-9.2755,1.0351,-0.020769,-0.013134,0.015882,-4.74,37.44,-12.96
3.3506,-9.221,0.96704,-0.033903,-0.01069,0.016493,-4.74,37.26,-13.02
3.2553,-9.1937,1.0624,-0.032681,0.010996,0.0067195,-4.74,37.32,-13.08
3.2553,-9.1529,1.1169,-0.033292,0.029932,0.0061087,-4.5,37.26,-13.08
3.3506,-9.1529,1.0624,-0.037568,0.023213,0.007025,-4.38,37.26,-13.02
3.3506,-9.2482,1.1032,-0.037263,0.0051924,0.013134,-4.38,37.26,-13.02
3.3778,-9.2074,1.0624,-0.051924,-0.01405,0.023213,-4.26,37.38,-13.02
3.3097,-9.2346,1.1577,-0.052534,-0.021991,0.024435,-4.38,37.44,-13.02
3.2825,-9.1937,1.0896,-0.053451,-0.01069,0.030238,-4.38,37.44,-12.96
3.2825,-9.1937,1.0079,-0.04612,-0.0015272,0.033598,-4.26,37.44,-13.02
3.3506,-9.1801,1.0896,-0.047953,0.0018326,0.026573,-4.08,37.5,-13.14
3.3506,-9.221,1.1032,-0.053451,-0.0076358,0.030238,-4.14,37.38,-13.2
3.3642,-9.1529,1.0351,-0.059559,-0.0085521,0.038179,-4.2,37.44,-13.2
3.2144,-9.1665,1.0351,-0.054672,-0.020769,0.033292,-4.2,37.5,-13.02
3.4051,-9.1529,0.99429,-0.045204,-0.0097738,0.030849,-4.08,37.62,-12.96
3.3642,-9.2074,1.0896,-0.04215,-0.016188,0.02138,-4.2,37.56,-13.02
3.3778,-9.221,1.0896,-0.036652,-0.0079412,0.018326,-4.2,37.62,-13.14
3.3506,-9.221,1.0624,-0.029932,0.0073304,0.0012217,-4.32,37.86,-12.96
3.4187,-9.1937,0.98067,-0.028711,0.013134,0.0024435,-4.38,37.98,-13.14
3.3778,-9.3299,0.99429,-0.034819,0.01405,0.0094684,-4.26,37.98,-13.08
3.4459,-9.1937,0.95342,-0.039401,0.0018326,0.0033598,-4.26,37.86,-13.2
3.3778,-9.1529,0.96704,-0.036346,0.012217,0.0036652,-4.44,37.86,-13.02
3.3642,-9.0303,0.9398,-0.042761,0.023213,0.0024435,-4.44,37.74,-12.96
3.3506,-9.0848,0.98067,-0.051313,0.010079,0.01405,-4.26,37.92,-12.96
3.4868,-9.1529,0.96704,-0.044899,0.0051924,0.023824,-4.2,37.92,-12.84
3.5004,-9.221,0.91256,-0.065363,-0.034208,0.037568,-4.2,38.04,-12.9
3.4732,-9.2482,0.96704,-0.072998,-0.052534,0.033598,-4.26,38.1,-13.02
3.4459,-9.2482,1.0624,-0.074526,-0.042455,0.021991,-4.2,38.1,-13.02
3.3506,-9.2074,1.0079,-0.069639,-0.024129,0.0061087,-4.2,38.1,-13.08
3.3234,-9.1529,1.0215,-0.044593,-0.0054978,-0.017715,-4.2,38.1,-13.2
3.1463,-9.1665,0.99429,-0.034514,0.0054978,-0.034208,-4.26,37.98,-12.96
3.2553,-9.0848,1.0624,-0.025656,0.01405,-0.031765,-4.26,37.86,-12.96
3.1599,-9.1937,1.0215,-0.030849,0.029016,-0.015272,-4.32,37.92,-12.96
3.0646,-9.1256,0.99429,-0.040623,0.053451,0.011606,-4.38,37.98,-13.02
3.0782,-9.1256,1.0079,-0.043677,0.058338,0.025962,-4.38,38.04,-13.14
3.1872,-9.112,1.0351,-0.048869,0.037263,0.054978,-4.44,37.98,-13.2
3.2144,-9.0848,1.0079,-0.043982,-0.0051924,0.076358,-4.5,37.92,-13.38
3.3097,-9.1256,0.99429,-0.049786,0.000305,0.092852,-4.5,37.8,-13.32
3.4051,-9.1937,0.96704,-0.039095,0.015272,0.086437,-4.5,37.74,-13.32
3.4323,-9.2346,1.0215,-0.032987,0.025962,0.08491,-4.56,37.8,-13.32
3.4732,-9.2074,1.0215,-0.034514,0.026878,0.084299,-4.5,37.92,-13.14
3.5413,-9.1256,1.0079,-0.033598,0.011606,0.071471,-4.5,37.86,-13.08
3.5004,-9.1937,0.9398,-0.034514,0.011606,0.051007,-4.5,37.8,-13.32
3.5277,-9.1665,0.99429,-0.03543,0.029627,0.030238,-4.5,37.8,-13.38
3.514,-9.0984,0.95342,-0.033903,0.040623,0.025351,-4.5,37.8,-13.38
3.5685,-9.0984,1.0215,-0.035125,0.051924,0.0045815,-4.5,37.74,-13.38
3.5413,-9.1256,1.0079,-0.031154,0.025656,-0.0061087,-4.5,37.62,-13.44
3.5549,-9.1801,0.98067,-0.036041,-0.010996,-0.013134,-4.5,37.5,-13.32
3.3915,-9.1393,0.99429,-0.037263,-0.01069,-0.016493,-4.44,37.56,-13.2
3.2553,-9.1256,1.1169,-0.029322,0.019548,-0.028405,-4.44,37.56,-13.26
3.3234,-9.1529,1.0488,-0.027794,0.036652,-0.026878,-4.44,37.44,-13.2
3.3778,-9.1801,1.1713,-0.022297,0.029016,-0.025045,-4.44,37.44,-13.08
3.3234,-9.1529,1.1305,-0.016493,-0.0048869,-0.01741,-4.56,37.5,-13.02
3.3506,-9.1393,1.0215,-0.016493,-0.016493,-0.012523,-4.62,37.44,-13.2
3.3097,-9.1937,1.1305,-0.0042761,-0.01405,-0.0097738,-4.68,37.56,-13.02
3.3506,-9.221,1.1032,-0.009163,-0.0015272,-0.0045815,-4.74,37.56,-13.02
3.3642,-9.1937,1.0215,-0.000305,-0.0012217,-0.0061087,-4.74,37.62,-12.96
3.3778,-9.1665,1.0624,-0.0045815,-0.016493,-0.0054978,-4.44,37.62,-12.72
3.3506,-9.1937,1.0624,-0.000611,-0.019242,-0.0064141,-4.44,37.62,-12.66
3.4323,-9.2346,0.99429,-0.0045815,0.0067195,-0.0097738,-4.5,37.68,-12.66
3.3642,-9.2346,1.0215,-0.011606,0.011301,-0.0076358,-4.44,37.56,-12.84
3.3778,-9.2074,0.95342,-0.014355,-0.0024435,-0.0058032,-4.32,37.62,-13.02
3.4051,-9.1937,1.0215,-0.018021,-0.019548,-0.0085521,-4.38,37.32,-13.32
3.3642,-9.2074,0.85808,-0.025351,-0.016188,-0.0033598,-4.44,37.32,-13.38
3.3097,-9.221,0.95342,-0.032681,0.0033598,0.0018326,-4.32,37.2,-13.44
3.3642,-9.221,0.98067,-0.038179,0.0033598,0.0015272,-4.44,37.14,-13.5
3.3778,-9.2482,1.0351,-0.03879,0.0045815,-0.0045815,-4.5,37.26,-13.56
3.337,-9.2618,1.0896,-0.041844,0.0039706,0.0039706,-4.44,37.2,-13.74
3.3097,-9.1529,1.1032,-0.044593,0.014966,0.0051924,-4.5,37.38,-13.62
3.337,-9.2074,1.0351,-0.03879,0.033598,0.0027489,-4.68,37.5,-13.5
3.337,-9.1529,1.1032,-0.040623,0.033292,0.0058032,-4.74,37.56,-13.62
3.3642,-9.1393,1.1441,-0.042455,0.021686,0.015882,-4.8,37.74,-13.56
3.337,-9.1801,1.076,-0.044899,0.01405,0.018631,-4.62,37.8,-13.5
3.4051,-9.1937,1.076,-0.058948,0.01405,0.033598,-4.62,37.86,-13.5
3.3506,-9.1665,1.1169,-0.054367,0.012523,0.027794,-4.62,37.8,-13.5
3.3915,-9.1256,1.1713,-0.051313,0.015882,0.033292,-4.5,37.92,-13.44
3.3915,-9.1529,1.0215,-0.048258,-0.000611,0.032987,-4.5,37.98,-13.44
3.4323,-9.1801,1.1032,-0.045204,-0.0094684,0.034819,-4.5,37.86,-13.38
3.4459,-9.1801,1.0351,-0.045815,-0.021686,0.041539,-4.62,37.8,-13.32
3.4051,-9.0984,1.0624,-0.048869,-0.022297,0.043066,-4.68,37.62,-13.44
3.3506,-9.0848,1.076,-0.045204,-0.027184,0.03207,-4.68,37.74,-13.38
3.4187,-9.1937,1.0079,-0.053145,-0.012523,0.031154,-4.68,37.62,-13.44
3.4596,-9.1256,0.92618,-0.061392,-0.0033598,0.032987,-4.56,37.56,-13.44
3.4187,-9.1801,1.0079,-0.058338,-0.01069,0.02474,-4.62,37.38,-13.38
3.4459,-9.2346,1.1577,-0.058338,-0.017715,0.019242,-4.68,37.38,-13.38
3.4596,-9.1256,1.0624,-0.055283,-0.013439,0.016493,-4.68,37.44,-13.14
3.4459,-9.1393,0.96704,-0.043371,-0.018631,0.017104,-4.62,37.38,-13.14
3.4459,-9.1801,1.0351,-0.048258,-0.027489,0.021075,-4.8,37.5,-13.08
3.4596,-9.2482,1.0624,-0.05284,-0.058338,0.028405,-4.74,37.5,-13.14
3.3642,-9.1393,0.95342,-0.0562,-0.057421,0.022602,-4.74,37.44,-13.2
3.3506,-9.0712,1.0215,-0.050396,-0.034819,0.024435,-4.68,37.62,-13.14
3.4187,-9.0984,1.076,-0.043677,-0.025656,0.020464,-4.62,37.68,-13.14
3.4187,-9.1256,1.0624,-0.039095,-0.030849,0.016188,-4.62,37.62,-13.08
3.4732,-9.1393,1.076,-0.041539,-0.037874,0.016188,-4.5,37.74,-13.02
3.3097,-9.1529,1.1032,-0.051618,-0.032376,0.0073304,-4.5,37.8,-12.96
3.3097,-9.1256,1.076,-0.043371,-0.01405,0.010996,-4.5,37.74,-13.02
3.337,-9.112,1.0351,-0.039401,-0.01405,0.016188,-4.44,37.74,-12.96
3.3506,-9.0984,1.076,-0.032681,-0.030849,0.014966,-4.44,37.8,-12.9
3.2961,-9.1256,1.0079,-0.028711,-0.029627,0.021075,-4.5,37.74,-12.9
3.228,-9.112,0.99429,-0.029322,-0.022297,0.026878,-4.44,37.8,-12.96
3.3234,-9.1256,1.0896,-0.023213,-0.0082467,0.029016,-4.5,37.68,-13.02
3.2961,-9.112,0.96704,-0.013134,-0.0061087,0.026573,-4.5,37.68,-12.78
3.3234,-9.0848,1.0896,-0.018021,0.0036652,0.022907,-4.56,37.5,-12.66
3.337,-9.1256,1.0896,-0.025962,0.013744,0.029016,-4.5,37.5,-12.66
3.3778,-9.2074,1.0215,-0.014661,0.025045,0.019853,-4.56,37.32,-12.72
3.4051,-9.1529,1.0351,-0.024435,0.033598,0.018326,-4.56,37.38,-12.78
3.4051,-9.112,1.0488,-0.025962,0.04948,0.026878,-4.62,37.26,-12.78
3.4051,-9.0848,1.0488,-0.018937,0.050702,0.025656,-4.62,37.26,-12.72
3.4187,-9.1256,1.0624,-0.0033598,0.040012,0.020159,-4.68,37.14,-12.78
3.4732,-9.1256,1.0624,-0.016493,0.035125,0.026878,-4.68,37.02,-12.96
3.4868,-9.1529,0.99429,-0.017104,0.031765,0.022907,-4.68,37.08,-12.9
3.4868,-9.112,0.98067,-0.018021,0.036957,0.029932,-4.74,36.96,-13.02
3.4732,-9.1801,0.98067,-0.032681,0.056505,0.023824,-4.74,36.96,-13.02
3.6094,-9.1665,1.0624,-0.022602,0.057116,0.017104,-4.56,36.9,-13.08
3.5685,-9.1937,0.98067,-0.034514,0.02138,0.012217,-4.56,36.96,-13.26
3.6094,-9.2346,1.0896,-0.022297,-0.010385,0.010996,-4.5,37.02,-13.2
3.514,-9.2074,1.0215,-0.02474,-0.018937,0.011912,-4.68,36.84,-13.14
3.4732,-9.1801,1.0896,-0.021075,-0.023213,0.0061087,-4.62,36.72,-13.02
3.4459,-9.1529,1.0351,-0.033292,-0.010385,-0.0033598,-4.56,36.9,-12.96
3.3915,-9.1393,1.0215,-0.023213,-0.0079412,-0.0024435,-4.5,37.02,-12.96
3.3642,-9.1256,1.1441,-0.030849,-0.014661,0.000916,-4.56,36.96,-12.9
3.3506,-9.1937,1.0896,-0.0281,-0.018326,0.0051924,-4.44,36.9,-12.84
3.2961,-9.1937,1.1169,-0.03146,-0.017715,0.014355,-4.32,36.96,-12.84
3.2825,-9.1665,1.1032,-0.021686,-0.014355,0.017104,-4.32,37.02,-12.84
3.2825,-9.2074,1.076,-0.021075,-0.010079,0.019853,-4.44,36.96,-12.96
3.2689,-9.1665,1.0896,-0.015577,0.0042761,0.02474,-4.62,36.96,-13.02
3.2553,-9.1937,1.0079,-0.02474,0.0045815,0.036957,-4.56,36.96,-12.9
3.3097,-9.221,1.0488,-0.023824,0.000916,0.039095,-4.56,37.14,-12.9
3.337,-9.2755,0.99429,-0.032987,-0.0042761,0.040012,-4.56,37.26,-12.78
3.4459,-9.2891,1.0215,-0.040928,-0.0073304,0.048869,-4.62,37.32,-12.9
3.3778,-9.1529,1.0624,-0.034819,-0.012217,0.043982,-4.74,37.14,-12.9
3.3915,-9.1529,1.0215,-0.03543,-0.024435,0.043066,-4.74,37.2,-12.96
3.4051,-9.2074,1.0488,-0.036957,-0.029932,0.036041,-4.8,37.38,-13.08
3.4051,-9.2618,1.1169,-0.043677,-0.009163,0.038485,-4.92,37.62,-13.08
3.3506,-9.2074,1.0351,-0.059559,0.0018326,0.035125,-5.1,37.56,-13.2
3.3097,-9.1529,0.99429,-0.064446,0.020159,0.027489,-5.04,37.56,-13.08
3.4051,-9.1256,1.0624,-0.062919,0.025351,0.020464,-4.86,37.56,-12.9
3.3506,-9.1256,1.0896,-0.064446,0.022602,0.01741,-4.68,37.62,-12.84
3.3915,-9.1801,1.0488,-0.056505,0.016188,0.020769,-4.74,37.74,-12.9
3.3778,-9.2482,1.1441,-0.051007,-0.015882,0.02474,-4.68,37.86,-13.02
3.2961,-9.1937,1.0896,-0.052229,-0.028711,0.032987,-4.68,37.74,-13.14
3.3097,-9.221,1.1441,-0.046731,-0.031765,0.037568,-4.8,37.86,-13.08
3.337,-9.1937,1.076,-0.033598,-0.022602,0.023824,-4.74,37.8,-13.02
3.228,-9.112,1.0488,-0.023518,-0.009163,0.023518,-4.86,37.92,-12.9
3.2961,-9.0984,1.076,-0.025656,-0.0024435,0.023213,-4.74,37.86,-12.9
3.3097,-9.0984,1.1577,-0.031765,0.010385,0.018021,-4.74,37.8,-13.08
3.2825,-9.221,1.076,-0.040012,0.025962,0.018937,-4.62,37.68,-13.02
3.337,-9.1801,1.076,-0.051313,0.039706,0.028711,-4.86,37.74,-13.08
3.3506,-9.1665,1.0488,-0.05284,0.046426,0.022602,-4.8,37.74,-12.84
3.3234,-9.1529,1.0624,-0.057727,0.065973,0.029016,-4.98,37.86,-13.08
3.3778,-9.1529,1.1305,-0.044593,0.05681,0.022602,-4.86,37.86,-13.2
3.5004,-9.1256,1.076,-0.030543,0.020769,0.025351,-5.04,37.92,-13.26
3.5004,-9.112,0.98067,-0.034819,-0.0024435,0.025962,-5.04,37.86,-13.26
3.4596,-9.1937,1.0215,-0.031765,-0.013439,0.029322,-4.98,37.8,-13.32
3.3915,-9.1393,1.0351,-0.03879,-0.011606,0.025351,-4.92,37.92,-13.32
3.4732,-9.1529,1.0215,-0.037568,0.0024435,0.026878,-4.74,37.74,-13.32
3.4459,-9.2074,1.1169,-0.040623,-0.0051924,0.015882,-4.74,37.68,-13.32
3.4732,-9.221,1.0624,-0.027184,-0.0088575,0.0061087,-4.56,37.8,-13.2
3.514,-9.0303,1.0896,-0.03146,-0.0079412,0.0015272,-4.68,37.8,-13.14
3.4596,-9.1529,1.0079,-0.033292,-0.014355,0.002138,-4.44,37.86,-13.2
3.3506,-9.1529,1.1169,-0.032376,-0.013439,-0.0076358,-4.38,37.8,-13.26
3.337,-9.0984,1.0624,-0.029016,-0.013439,-0.0033598,-4.38,37.8,-13.26
3.337,-9.0984,1.0896,-0.038485,-0.0082467,-0.0012217,-4.68,37.8,-13.2
3.3506,-9.1665,0.99429,-0.036957,-0.010079,-0.0088575,-4.62,37.8,-13.2
3.4051,-9.1256,0.98067,-0.040623,-0.014355,-0.0042761,-4.44,37.86,-13.08
3.337,-9.1529,1.0896,-0.034208,-0.012523,-0.0051924,-4.44,37.86,-13.26
3.2961,-9.0848,1.0215,-0.039401,-0.0024435,-0.0015272,-4.26,37.74,-13.2
3.3778,-9.1665,1.1441,-0.027489,-0.0039706,0.000305,-4.38,37.8,-13.32
3.3234,-9.1256,1.1577,-0.037263,-0.0015272,0.0064141,-4.44,37.74,-13.32
3.3506,-9.1937,1.1169,-0.028405,-0.0048869,0.000611,-4.62,37.56,-13.26
3.3778,-9.1937,1.0896,-0.04215,-0.011301,0.025045,-4.44,37.56,-13.32
3.3506,-9.221,1.0624,-0.029932,-0.016799,0.016799,-4.5,37.44,-13.32
3.3506,-9.1529,1.0351,-0.0281,-0.01405,0.018937,-4.56,37.38,-13.38
3.3506,-9.2074,1.0624,-0.025962,-0.014966,0.019853,-4.5,37.38,-13.32
3.3642,-9.1665,1.076,-0.025962,-0.0073304,0.017104,-4.44,37.26,-13.38
3.3642,-9.1801,1.1032,-0.022907,-0.0097738,0.020769,-4.5,37.2,-13.38
3.3234,-9.221,1.0215,-0.019242,-0.016188,0.025962,-4.68,37.14,-13.2
3.3506,-9.1665,0.99429,-0.037568,-0.021075,0.031765,-4.74,37.08,-13.14
3.3234,-9.0984,1.0488,-0.041233,-0.014661,0.023824,-4.92,37.26,-13.08
3.3778,-9.1665,1.0215,-0.041539,-0.0076358,0.031765,-4.98,37.26,-13.08
3.4187,-9.221,1.0351,-0.046731,0.0088575,0.031765,-4.86,37.38,-13.26
3.4459,-9.2346,0.99429,-0.051007,-0.0048869,0.023824,-4.86,37.62,-13.14
3.3778,-9.221,1.0215,-0.047647,-0.011606,0.02138,-4.98,37.56,-13.14
3.3506,-9.221,1.0896,-0.045509,-0.0018326,0.02138,-5.04,37.56,-13.14
3.3915,-9.1529,1.0488,-0.048258,-0.0036652,0.017715,-5.04,37.62,-13.08
3.3778,-9.112,0.98067,-0.050091,-0.0033598,0.023213,-5.1,37.62,-13.08
3.3915,-9.1937,1.1305,-0.047647,-0.02138,0.022602,-4.92,37.56,-13.02
3.3642,-9.221,1.076,-0.053145,-0.024435,0.032376,-4.92,37.56,-12.96
3.4187,-9.1801,1.076,-0.050702,-0.011912,0.025962,-4.8,37.5,-13.08
3.3915,-9.0712,1.0624,-0.037568,0.0051924,0.022602,-4.8,37.62,-13.08
3.4051,-9.1256,1.076,-0.035125,-0.018631,0.03146,-4.8,37.5,-13.08
3.4051,-9.1393,1.0351,-0.032376,-0.037568,0.023824,-4.62,37.56,-13.14
3.4187,-9.221,1.0896,-0.050396,-0.039095,0.035125,-4.8,37.44,-12.9
3.3915,-9.1937,1.0624,-0.050396,-0.026573,0.035736,-4.8,37.32,-13.02
3.3506,-9.1529,1.0351,-0.036041,-0.002138,0.032376,-4.92,37.5,-13.14
3.4459,-9.1529,1.0896,-0.027794,-0.011912,0.022907,-4.86,37.44,-12.96
3.4187,-9.1529,1.0351,-0.027184,-0.03146,0.029016,-4.86,37.5,-13.08
3.4459,-9.221,1.0624,-0.029016,-0.0562,0.023824,-4.74,37.56,-13.02
3.3915,-9.1937,1.0215,-0.022602,-0.048869,0.022602,-4.74,37.62,-13.2
3.2961,-9.1801,0.99429,-0.029932,-0.028711,0.014661,-4.86,37.74,-13.5
3.3778,-9.1529,0.96704,-0.023213,-0.010079,0.015882,-4.92,37.92,-13.44
3.3506,-9.1529,1.0488,-0.025656,-0.0054978,0.0048869,-4.86,37.8,-13.5
3.337,-9.1665,0.96704,-0.029322,-0.0079412,0.01069,-4.92,37.92,-13.5
3.3506,-9.1801,0.99429,-0.037263,-0.01069,0.017715,-5.1,37.86,-13.5
3.3234,-9.1937,0.92618,-0.033903,-0.0027489,0.011301,-5.04,37.8,-13.56
3.2553,-9.1393,0.89894,-0.043066,-0.0012217,0.019242,-5.04,37.8,-13.56
3.2416,-9.1801,1.076,-0.041844,0.0061087,0.016493,-4.98,37.74,-13.44
3.2553,-9.1937,0.98067,-0.04215,0.011606,0.022602,-5.04,37.74,-13.44
3.2689,-9.1801,0.96704,-0.043677,0.025962,0.024129,-5.16,37.74,-13.56
3.2689,-9.1665,1.1032,-0.046426,0.030238,0.025351,-5.1,37.68,-13.44
3.2825,-9.1801,1.0215,-0.046426,0.029627,0.030849,-5.04,37.62,-13.32
3.3778,-9.1393,1.0215,-0.043677,0.02138,0.034514,-5.1,37.56,-13.2
3.3234,-9.1937,1.0624,-0.043371,0.012217,0.045509,-5.1,37.44,-13.26
3.3506,-9.1256,1.0351,-0.043982,0.017715,0.032681,-5.1,37.44,-13.26
3.2689,-9.1393,1.0896,-0.03543,0.027489,0.030849,-4.92,37.38,-13.38
3.337,-9.1529,1.2531,-0.034819,0.033598,0.034208,-4.92,37.44,-13.26
3.3915,-9.2074,1.0896,-0.033903,0.029016,0.035736,-4.8,37.5,-13.26
3.4187,-9.0984,1.076,-0.040317,0.014966,0.034819,-4.86,37.56,-13.26
3.3778,-9.1393,1.1032,-0.036041,0.021991,0.034514,-4.86,37.5,-13.26
3.3915,-9.1937,1.0896,-0.026573,0.03543,0.02474,-4.74,37.56,-13.32
3.4459,-9.1937,1.0215,-0.026878,0.036041,0.023518,-4.62,37.56,-13.32
3.4187,-9.1937,1.0624,-0.02474,0.031765,0.018326,-4.74,37.56,-13.38
3.4323,-9.1665,1.0624,-0.019853,0.036041,0.0064141,-4.5,37.56,-13.2
3.4323,-9.1665,1.0488,-0.01741,0.036652,0.011912,-4.56,37.62,-13.14
3.4459,-9.221,0.99429,-0.020159,0.023213,0.0088575,-4.5,37.68,-13.02
3.4459,-9.1256,1.0215,-0.019242,0.011301,0.015272,-4.26,37.62,-13.02
3.3506,-9.1529,1.0215,-0.018631,-0.0042761,0.0015272,-4.44,37.62,-12.9
3.4323,-9.3163,1.0896,-0.022907,0.000916,0.0082467,-4.38,37.5,-12.9
3.3642,-9.1937,1.0079,-0.020159,0.0064141,0.0030543,-4.5,37.5,-12.84
3.4187,-9.1937,1.0215,-0.028405,-0.0024435,0.0039706,-4.38,37.26,-12.96
3.4596,-9.1801,1.0215,-0.038179,-0.0054978,-0.0018326,-4.32,37.2,-13.02
3.2689,-9.2074,1.0215,-0.033903,-0.0033598,-0.0018326,-4.32,37.08,-13.02
3.337,-9.221,1.0896,-0.031765,-0.000611,-0.01069,-4.2,37.14,-12.84
3.3234,-9.1529,0.96704,-0.027794,0.0048869,-0.0033598,-4.14,37.14,-13.02
3.3097,-9.1393,0.98067,-0.035125,0.000305,-0.0033598,-4.38,37.14,-13.14
3.3506,-9.221,0.98067,-0.032987,-0.0067195,0.0018326,-4.32,37.08,-13.14
3.2961,-9.1937,1.1032,-0.036041,-0.0012217,0.012523,-4.32,36.96,-13.32
3.3097,-9.1937,1.0488,-0.026267,-0.0030543,0.012217,-4.26,36.9,-13.32
3.3097,-9.221,1.0215,-0.036041,-0.002138,0.012217,-4.38,36.96,-13.38
3.3097,-9.1529,1.1169,-0.04215,-0.000305,0.014966,-4.32,36.84,-13.44
3.2825,-9.1665,1.0215,-0.033292,0.0054978,0.018631,-4.2,36.84,-13.5
3.2961,-9.221,0.96704,-0.030543,-0.0051924,0.024129,-4.2,36.9,-13.38
3.3506,-9.0848,1.0624,-0.040928,-0.0067195,0.026267,-4.38,37.02,-13.32
3.337,-9.1801,1.0624,-0.035125,-0.0042761,0.026878,-4.68,37.14,-13.26
3.3642,-9.2482,1.0215,-0.035125,-0.0064141,0.03207,-4.74,37.08,-13.14
3.2825,-9.1256,1.0896,-0.027184,-0.0088575,0.028711,-4.8,37.2,-13.2
3.3234,-9.1937,0.99429,-0.030238,-0.000305,0.026267,-4.8,37.26,-13.2
3.3097,-9.1937,1.0079,-0.032681,0.0079412,0.037568,-4.86,37.2,-13.2
3.337,-9.1937,0.98067,-0.043982,0.0085521,0.032987,-4.8,37.38,-13.02
3.3234,-9.1937,1.0624,-0.036652,0.012523,0.031154,-5.1,37.26,-12.96
3.4459,-9.221,1.0488,-0.038179,0.015882,0.030238,-5.22,37.38,-12.96
3.3778,-9.1256,0.99429,-0.03543,0.023824,0.030849,-5.22,37.5,-13.08
3.3778,-9.1801,0.99429,-0.038485,0.018021,0.026878,-5.22,37.56,-13.02
3.3234,-9.1801,1.0624,-0.035736,0.016493,0.023518,-5.16,37.62,-13.08
3.3915,-9.1801,1.0351,-0.054672,0.015882,0.039401,-4.86,37.92,-13.14
3.4596,-9.1529,1.076,-0.04948,0.000305,0.034819,-4.86,37.8,-13.2
3.3642,-9.0848,1.1305,-0.054062,-0.010385,0.043982,-4.74,37.74,-13.26
3.4187,-9.1529,1.185,-0.050091,-0.019853,0.039401,-4.74,37.68,-13.08
3.4187,-9.221,1.0215,-0.051924,-0.011606,0.021991,-4.62,37.74,-13.08
3.3778,-9.221,1.1169,-0.051007,0.0015272,0.020464,-4.5,37.86,-13.08
3.3642,-9.1256,1.0351,-0.034819,0.012217,0.013439,-4.62,37.86,-13.08
3.3778,-9.1665,1.076,-0.029932,0.0094684,0.013439,-4.38,38.04,-13.2
3.3778,-9.0439,1.1305,-0.03207,-0.014661,0.012523,-4.32,37.98,-13.08
3.3778,-9.1256,0.96704,-0.030849,-0.015272,0.016799,-4.14,38.1,-13.02
3.3506,-9.2074,1.0215,-0.03146,-0.012217,0.014661,-4.08,37.98,-12.9
3.3642,-9.1665,1.0215,-0.03146,-0.012523,0.019548,-4.2,37.98,-12.9
3.337,-9.1665,1.0215,-0.032987,0.002138,0.013744,-4.2,37.92,-12.78
3.3506,-9.1937,1.0488,-0.034514,-0.000916,0.013439,-4.44,37.92,-12.84
3.337,-9.1256,1.0624,-0.037568,-0.0064141,0.013439,-4.56,37.92,-12.84
3.3778,-9.1529,1.0351,-0.029932,-0.0027489,0.014661,-4.56,37.8,-12.84
3.337,-9.1665,1.0351,-0.033903,-0.0042761,0.016493,-4.68,37.8,-12.84
3.3778,-9.1529,1.076,-0.031154,-0.01741,0.0097738,-4.74,37.74,-12.84
3.337,-9.1529,0.99429,-0.027489,-0.012523,0.0076358,-4.86,37.74,-12.9
3.337,-9.1665,1.1169,-0.027184,-0.0039706,0.007025,-5.04,37.62,-12.9
3.3234,-9.221,1.0896,-0.027184,0.0018326,0.0073304,-4.92,37.56,-13.02
3.3506,-9.2074,1.0896,-0.030543,0.0033598,0.0048869,-5.04,37.68,-12.9
3.3234,-9.1801,1.076,-0.029932,0.0039706,0.0048869,-4.98,37.68,-13.08
3.3234,-9.1529,1.1441,-0.031765,0.0058032,0.0064141,-5.04,37.56,-13.2
3.337,-9.1937,1.0079,-0.032987,0.015577,0.0061087,-4.86,37.5,-13.32
3.3097,-9.1529,1.0215,-0.040317,0.011606,0.0085521,-4.92,37.56,-13.32
3.3097,-9.1665,1.0624,-0.037568,0.011912,0.01405,-4.86,37.56,-13.32
3.3097,-9.1937,1.0215,-0.040623,0.010996,0.017104,-4.92,37.68,-13.5
3.4051,-9.221,1.0896,-0.045509,0.0082467,0.021686,-4.8,37.62,-13.38
3.3506,-9.221,1.0896,-0.044288,0.013439,0.020464,-4.8,37.74,-13.56
3.3506,-9.1256,1.0624,-0.041539,0.0088575,0.012217,-4.74,37.74,-13.74
3.4051,-9.1256,1.0488,-0.037263,0.014966,0.021991,-4.74,37.74,-13.62
3.4051,-9.1801,1.1169,-0.029322,0.000916,0.0281,-4.74,37.62,-13.68
3.3506,-9.1665,1.1169,-0.036041,-0.0042761,0.02474,-4.92,37.56,-13.8
3.3234,-9.1665,1.0896,-0.034819,-0.010385,0.017715,-4.98,37.68,-13.62
3.3506,-9.2346,1.1713,-0.049786,-0.0036652,0.021686,-4.92,37.68,-13.62
3.3506,-9.1937,1.0896,-0.036652,0.0054978,0.020769,-4.86,37.74,-13.5
3.3506,-9.2074,1.0624,-0.037263,0.011912,0.022602,-4.8,37.68,-13.5
3.3778,-9.1256,1.0624,-0.031154,0.007025,0.012828,-4.86,37.56,-13.5
3.3506,-9.112,1.0896,-0.032376,-0.0048869,0.021686,-4.86,37.62,-13.5
3.3915,-9.221,1.0896,-0.037263,-0.0015272,0.024129,-4.98,37.74,-13.62
3.4187,-9.2482,1.0624,-0.034208,0.000916,0.030238,-4.98,37.56,-13.5
3.3778,-9.0439,1.1169,-0.040928,-0.018326,0.031765,-4.98,37.44,-13.44
3.3506,-9.1256,1.0896,-0.033598,-0.021991,0.025962,-4.98,37.56,-13.56
3.3642,-9.2346,1.0215,-0.037874,-0.0073304,0.027489,-5.1,37.56,-13.5
3.3778,-9.2346,1.0896,-0.031154,0.0033598,0.024435,-5.1,37.56,-13.38
3.3778,-9.221,1.076,-0.037263,0.000916,0.02138,-4.92,37.5,-13.5
3.3915,-9.112,1.2258,-0.036652,0.0067195,0.018326,-5.04,37.62,-13.32
3.4051,-9.1937,1.076,-0.033598,-0.0036652,0.009163,-5.1,37.62,-13.56
3.3506,-9.0848,1.0624,-0.026878,-0.0085521,0.01405,-4.92,37.68,-13.68
3.4187,-9.2074,1.0488,-0.036957,-0.0067195,0.019548,-4.86,37.86,-13.56
3.4187,-9.0712,1.076,-0.034208,-0.01069,0.016799,-4.68,37.74,-13.56
3.3097,-9.112,1.076,-0.040317,-0.000305,0.013744,-4.74,37.8,-13.44
3.3097,-9.1529,1.076,-0.037874,-0.0048869,0.018021,-4.68,37.98,-13.5
3.3778,-9.2074,1.1441,-0.033903,-0.0015272,0.014966,-4.68,38.1,-13.56
3.3097,-9.1801,1.1169,-0.035125,-0.0058032,0.016493,-4.62,38.16,-13.38
3.337,-9.1937,1.076,-0.036957,-0.0067195,0.020464,-4.5,38.1,-13.26
3.337,-9.1256,1.0215,-0.026573,-0.009163,0.0054978,-4.5,37.98,-13.32
3.3642,-9.1256,1.0215,-0.026573,-0.009163,0.0054978,-4.56,38.1,-13.38
3.4732,-9.112,1.0896,-0.034208,0.000611,0.011606,-4.5,37.92,-13.32
3.337,-9.1801,1.1441,-0.034208,-0.0051924,0.018937,-4.5,37.92,-13.2
3.3778,-9.2891,1.0896,-0.031154,-0.0051924,0.018021,-4.68,37.74,-13.08
3.2825,-9.221,1.0215,-0.033903,0.0051924,0.01741,-4.74,37.74,-13.2
3.2825,-9.1529,1.0488,-0.036652,0.011301,0.013744,-4.68,37.74,-13.32
3.3097,-9.1529,1.0488,-0.023213,0.018326,0.0048869,-4.62,37.56,-13.44
3.337,-9.1801,1.0488,-0.029016,0.017715,0.018326,-4.68,37.62,-13.38
3.3506,-9.0303,0.99429,-0.032681,0.0064141,0.016493,-4.5,37.44,-13.38
3.337,-9.1937,1.076,-0.029016,0.011912,0.025962,-4.26,37.5,-13.44
3.3915,-9.221,1.0896,-0.03543,0.023213,0.03207,-4.26,37.56,-13.44
3.4459,-9.1937,1.0896,-0.038179,0.01405,0.029932,-4.38,37.68,-13.38
3.4596,-9.1529,1.0079,-0.036041,-0.002138,0.032681,-4.32,37.68,-13.38
3.4187,-9.1393,1.0896,-0.031765,-0.020159,0.031154,-4.38,37.74,-13.5
3.4732,-9.1393,1.0896,-0.029322,-0.044899,0.025656,-4.44,37.68,-13.8
3.4187,-9.1256,1.0351,-0.023213,-0.04612,0.01741,-4.38,37.8,-13.8
3.3778,-9.1937,1.1169,-0.019853,-0.037568,0.007025,-4.38,37.68,-13.8
3.3642,-9.1937,1.0896,-0.03146,-0.026573,0.015882,-4.38,37.68,-13.8
3.337,-9.1801,1.1441,-0.033598,-0.0097738,0.02138,-4.56,37.62,-13.56
3.3234,-9.2346,1.0488,-0.031765,-0.009163,0.014355,-4.5,37.56,-13.62
3.3097,-9.3163,0.96704,-0.03543,-0.011301,0.015577,-4.56,37.56,-13.68
3.2825,-9.221,1.076,-0.028711,-0.0079412,0.015272,-4.8,37.44,-13.62
3.2553,-9.221,1.0215,-0.026267,-0.000611,0.0064141,-4.8,37.44,-13.74
3.2825,-9.2346,1.0624,-0.036957,0.0085521,0.01405,-4.74,37.32,-13.74
3.3778,-9.1937,1.0624,-0.037874,0.019242,0.025962,-4.92,37.2,-13.8
3.2825,-9.1256,1.0488,-0.046731,0.022907,0.029322,-4.86,37.14,-13.74
3.2961,-9.1256,1.1032,-0.047953,0.020769,0.027489,-4.8,37.2,-13.68
3.337,-9.2346,1.0215,-0.050091,0.034208,0.03146,-4.8,37.14,-13.5
3.3915,-9.2482,1.0215,-0.051313,0.05284,0.028711,-4.74,37.08,-13.32
3.4051,-9.221,1.0079,-0.058643,0.071166,0.022907,-4.8,37.08,-13.26
3.3778,-9.2346,1.1305,-0.053756,0.082161,0.011912,-4.68,37.08,-13.2
3.4323,-9.1393,1.1577,-0.043371,0.047953,0.0082467,-4.74,37.08,-13.14
3.4596,-9.1256,1.1713,-0.048564,0.029016,0.014966,-4.68,37.2,-13.02
3.5004,-9.0984,1.1169,-0.048869,-0.023518,0.028711,-4.68,37.08,-13.08
3.4459,-9.0848,1.0896,-0.046426,-0.018326,0.031154,-4.68,37.08,-13.14
3.3642,-9.0575,1.1305,-0.040317,-0.010079,0.026878,-4.62,37.14,-13.08
3.4459,-9.2074,1.0896,-0.038179,0.011606,0.017104,-4.44,37.14,-13.26
3.4459,-9.221,1.1441,-0.034819,0.0073304,0.012828,-4.38,37.26,-13.26
3.514,-9.1529,1.2122,-0.031154,-0.010385,0.0048869,-4.32,37.26,-13.14
3.4323,-9.1529,1.1986,-0.024435,-0.020464,0.011912,-4.2,37.38,-13.32
3.4051,-9.1937,1.1577,-0.01405,-0.021075,0.0076358,-4.2,37.44,-13.5
3.3642,-9.1529,1.0896,-0.024129,-0.019242,0.0051924,-4.2,37.38,-13.38
3.4051,-9.1529,1.0488,-0.020464,-0.01405,0.0045815,-4.2,37.38,-13.56
3.4323,-9.1665,1.0215,-0.025351,-0.021686,0.0067195,-4.02,37.26,-13.56
3.4323,-9.1529,1.0351,-0.022297,-0.014966,0.0076358,-4.2,37.26,-13.62
3.3506,-9.221,1.0896,-0.030238,-0.0082467,0.007025,-4.14,37.26,-13.68
3.3506,-9.112,1.0624,-0.022297,-0.010079,0.0027489,-4.14,37.26,-13.56
3.3097,-9.1665,1.0624,-0.026267,-0.014661,-0.0030543,-4.14,37.2,-13.68
3.3097,-9.1665,1.0624,-0.027794,-0.011301,0.0064141,-4.08,37.08,-13.5
3.3778,-9.2346,0.99429,-0.026267,-0.0058032,0.0076358,-4.32,37.02,-13.56
3.3506,-9.1665,1.0351,-0.030238,0.0018326,0.0085521,-4.26,37.02,-13.68
3.3097,-9.1529,1.1032,-0.041233,-0.0076358,0.013134,-4.32,36.9,-13.62
3.2553,-9.1529,1.0215,-0.04215,-0.0036652,0.018021,-4.44,37.08,-13.44
3.3506,-9.2074,1.0351,-0.040317,0.000916,0.018326,-4.44,37.14,-13.62
3.3506,-9.1937,1.0488,-0.038179,0.0030543,0.02138,-4.44,37.2,-13.56
3.3642,-9.1937,1.0896,-0.036957,-0.011912,0.029322,-4.56,37.44,-13.62
3.2825,-9.1937,1.0351,-0.043677,-0.013134,0.031765,-4.44,37.32,-13.68
3.2825,-9.1801,1.0351,-0.04612,-0.013744,0.028711,-4.56,37.5,-13.74
3.3097,-9.2074,1.076,-0.047647,-0.0088575,0.031154,-4.68,37.56,-13.74
3.4051,-9.0848,1.0488,-0.05284,0.0058032,0.035736,-4.62,37.8,-13.68
3.2961,-9.1801,1.1713,-0.051924,-0.0051924,0.032987,-4.62,37.86,-13.56
3.3234,-9.1393,1.1169,-0.045204,0.010385,0.036652,-4.74,37.92,-13.68
3.4459,-9.2074,1.1713,-0.051313,-0.0015272,0.04612,-4.86,37.92,-13.62
3.3778,-9.1256,1.1169,-0.050091,-0.0039706,0.036652,-4.74,37.92,-13.68
3.3234,-9.1529,1.1305,-0.041539,-0.0054978,0.036346,-4.68,37.62,-13.68
3.3778,-9.1937,1.1169,-0.040012,0.0015272,0.029627,-4.68,37.5,-13.8
3.3234,-9.221,1.1305,-0.03146,0.0061087,0.020769,-4.74,37.44,-13.86
3.3506,-9.2618,1.1577,-0.033292,0.0082467,0.022602,-4.68,37.5,-13.74
3.4187,-9.1937,1.076,-0.033598,-0.000305,0.022297,-4.68,37.56,-13.74
3.4323,-9.1529,1.0215,-0.032376,0.000916,0.015882,-4.68,37.44,-13.68
3.4187,-9.1529,1.076,-0.030238,-0.0085521,0.023824,-4.62,37.32,-13.74
3.3642,-9.0848,1.0488,-0.034819,-0.013134,0.012523,-4.68,37.26,-13.62
3.2961,-9.0575,1.1577,-0.035125,-0.014661,0.016799,-4.62,37.32,-13.68
3.3506,-9.1937,1.1169,-0.039095,0.0015272,0.016188,-4.62,37.38,-13.68
3.3506,-9.1801,1.0896,-0.034819,0.0036652,0.018326,-4.62,37.38,-13.74
3.2689,-9.1801,1.0351,-0.047647,-0.0024435,0.018326,-4.74,37.44,-13.74
3.337,-9.1529,1.185,-0.034819,-0.009163,0.015272,-4.44,37.68,-13.74
3.2825,-9.0167,1.1169,-0.030543,-0.0079412,0.01741,-4.5,37.68,-13.68
3.3642,-9.1529,1.0624,-0.032376,-0.0039706,0.018021,-4.5,37.74,-13.74
3.2825,-9.1256,1.1577,-0.034819,0.000611,0.016188,-4.5,37.56,-13.98
3.3097,-9.1801,1.1577,-0.037263,-0.0045815,0.01741,-4.56,37.56,-13.8
3.3097,-9.1393,1.1169,-0.037568,-0.0018326,0.019853,-4.62,37.5,-13.74
3.3234,-9.2074,1.0624,-0.035736,0.0054978,0.025045,-4.74,37.38,-13.8
3.4187,-9.1665,1.1169,-0.030238,0.0018326,0.01741,-4.68,37.5,-13.86
3.3234,-9.1529,1.0215,-0.036346,0.000611,0.016493,-4.74,37.5,-13.92
3.2825,-9.1529,1.1305,-0.032987,0.0045815,0.018937,-4.8,37.5,-13.8
3.2553,-9.221,1.0624,-0.030238,0.027489,0.020464,-4.74,37.56,-13.62
3.2825,-9.221,1.1169,-0.038485,0.026573,0.016493,-4.74,37.44,-13.62
3.337,-9.1937,1.076,-0.036041,0.019853,0.0281,-4.92,37.32,-13.62
3.3097,-9.1937,1.0488,-0.032681,0.020159,0.020464,-4.98,37.26,-13.56
3.3506,-9.2346,1.1169,-0.040317,0.024435,0.028711,-4.86,37.26,-13.56
3.3915,-9.221,1.1441,-0.034208,0.020464,0.026878,-4.68,37.26,-13.38
3.3915,-9.1937,1.0624,-0.034819,0.018326,0.032376,-4.62,37.32,-13.38
3.3778,-9.112,0.9398,-0.028405,0.032376,0.025962,-4.5,37.44,-13.38
3.4187,-9.2074,1.0488,-0.041539,0.043066,0.01741,-4.5,37.5,-13.32
3.4459,-9.1937,1.1305,-0.039401,0.040012,0.017715,-4.56,37.44,-13.44
3.4732,-9.221,1.076,-0.049786,0.017715,0.020159,-4.5,37.26,-13.26
3.4323,-9.1529,1.076,-0.043066,-0.0061087,0.017715,-4.5,37.26,-13.44
3.3097,-9.1937,1.1032,-0.041844,-0.002138,0.018021,-4.32,37.2,-13.5
3.3506,-9.1937,0.96704,-0.038485,0.0079412,0.015272,-4.26,37.2,-13.38
3.4323,-9.1937,1.0896,-0.03207,0.0030543,0.012828,-4.38,37.2,-13.5
3.3642,-9.1393,1.185,-0.039095,-0.000305,0.018326,-4.2,37.5,-13.32
3.3778,-9.1256,1.076,-0.032681,-0.011606,0.011606,-4.2,37.44,-13.32
3.3778,-9.1393,1.0624,-0.030238,-0.016493,0.021991,-4.38,37.5,-13.32
3.3506,-9.112,1.0488,-0.025656,-0.023213,0.023213,-4.38,37.56,-13.5
3.3234,-9.1665,1.1032,-0.028405,-0.021686,0.025351,-4.44,37.5,-13.38
3.3506,-9.1256,1.0488,-0.027489,-0.02138,0.019548,-4.44,37.56,-13.32
3.3097,-9.1665,1.0215,-0.02474,0.0039706,0.017104,-4.26,37.56,-13.32
3.3642,-9.1256,1.1441,-0.030238,0.01069,0.016188,-4.32,37.74,-13.5
3.337,-9.1801,1.0896,-0.025656,0.0045815,0.021686,-4.38,37.8,-13.38
3.3778,-9.1256,1.1169,-0.032681,-0.012217,0.019853,-4.44,37.92,-13.38
3.2825,-9.1393,1.1169,-0.025351,-0.0067195,0.016799,-4.56,37.98,-13.32
3.337,-9.1256,1.0624,-0.030849,-0.0027489,0.02474,-4.5,37.98,-13.32
3.2961,-9.1937,0.95342,-0.029322,-0.0054978,0.024435,-4.56,38.04,-13.5
3.3778,-9.221,1.0896,-0.039401,-0.0012217,0.011606,-4.62,38.1,-13.38
3.337,-9.1393,1.1032,-0.041844,-0.0042761,0.01405,-4.56,38.16,-13.32
3.3097,-9.1937,1.1169,-0.033598,0.010079,0.024129,-4.56,38.1,-13.44
3.3097,-9.2891,0.95342,-0.029932,0.0054978,0.018326,-4.5,38.1,-13.44
3.2961,-9.2482,1.0215,-0.029627,0.0067195,0.016493,-4.44,38.1,-13.44
3.2961,-9.221,1.0896,-0.024435,0.012217,0.01405,-4.5,37.98,-13.38
3.3506,-9.1937,1.1169,-0.037874,0.011912,0.017104,-4.56,37.98,-13.26
3.2961,-9.1393,1.0215,-0.037874,0.025351,0.015577,-4.5,37.86,-13.26
3.2825,-9.1801,1.076,-0.036957,0.036652,0.016493,-4.56,37.74,-13.26
3.2825,-9.1937,1.1169,-0.042761,0.036652,0.019548,-4.44,37.62,-13.38
3.337,-9.221,1.1169,-0.040623,0.022297,0.023518,-4.44,37.68,-13.26
3.3915,-9.2346,1.0624,-0.040928,0.019853,0.020159,-4.5,37.56,-13.32
3.3506,-9.1665,1.1169,-0.041844,0.018631,0.022907,-4.56,37.44,-13.38
3.3778,-9.1529,1.0624,-0.039706,0.012523,0.010385,-4.56,37.44,-13.32
3.3778,-9.2482,1.0624,-0.036041,0.016799,0.0094684,-4.44,37.38,-13.38
3.3234,-9.2618,1.0896,-0.043066,0.016493,0.022602,-4.5,37.32,-13.38
3.3778,-9.221,1.0624,-0.039706,0.016799,0.025656,-4.56,37.32,-13.32
3.3642,-9.1665,1.1577,-0.048564,0.002138,0.02474,-4.56,37.26,-13.32
3.4187,-9.0575,1.1577,-0.041844,0.000611,0.015577,-4.56,37.08,-13.32
3.4732,-9.1393,1.076,-0.039095,0.0012217,0.011912,-4.5,37.14,-13.44
3.3506,-9.1937,1.1441,-0.042455,-0.0058032,0.0094684,-4.44,37.2,-13.62
3.337,-9.1256,1.076,-0.041233,-0.011912,0.012217,-4.5,37.26,-13.62
3.3915,-9.1256,1.1032,-0.030543,-0.018326,0.012217,-4.38,37.14,-13.68
3.337,-9.1529,1.1305,-0.031765,-0.022907,0.012217,-4.38,37.08,-13.68
3.3778,-9.1529,1.0624,-0.036346,-0.020464,0.012523,-4.32,37.26,-13.8
3.3778,-9.0712,1.0624,-0.03146,-0.018937,0.012217,-4.26,37.26,-13.74
3.3506,-9.1256,1.1169,-0.041233,-0.019242,0.0054978,-4.38,37.32,-13.62
3.3506,-9.2074,1.0215,-0.035125,-0.0039706,0.0051924,-4.44,37.26,-13.62
3.3915,-9.1665,1.0624,-0.036652,-0.018326,0.013134,-4.44,37.38,-13.8
3.3234,-9.112,1.0351,-0.036957,-0.030543,0.010079,-4.32,37.5,-13.8
3.2961,-9.1393,1.0351,-0.03146,-0.029932,0.016188,-4.26,37.56,-13.98
3.3097,-9.1937,1.1577,-0.032987,-0.028405,0.015577,-4.2,37.44,-13.86
3.2961,-9.1665,1.0624,-0.033598,-0.01069,0.017715,-4.26,37.44,-13.68
3.3778,-9.1393,0.96704,-0.039706,-0.0051924,0.014355,-4.2,37.38,-13.5
3.3234,-9.2346,1.1032,-0.030849,-0.010079,0.015577,-4.2,37.38,-13.44
3.3778,-9.1937,1.076,-0.037263,-0.0097738,0.014355,-4.14,37.38,-13.5
3.2825,-9.1665,1.0351,-0.033903,-0.012217,0.020464,-4.2,37.26,-13.44
3.3097,-9.1529,1.0896,-0.03879,0.0048869,0.010385,-4.26,37.32,-13.74
3.2961,-9.2482,1.0896,-0.035125,0.018326,0.015882,-4.26,37.14,-13.74
3.3778,-9.1256,1.1032,-0.043982,0.025656,0.021686,-4.38,37.2,-13.56
3.4051,-9.1393,1.0896,-0.040012,0.025962,0.016493,-4.56,37.26,-13.62
3.3506,-9.0984,1.0896,-0.041233,0.019242,0.020159,-4.62,37.32,-13.56
3.3642,-9.1801,1.1305,-0.036346,0.025962,0.022907,-4.56,37.2,-13.38
3.3778,-9.1801,1.1305,-0.039706,0.035125,0.025045,-4.62,37.32,-13.38
3.3097,-9.221,1.1032,-0.036652,0.029322,0.019548,-4.68,37.26,-13.5
3.4187,-9.1529,1.1032,-0.043371,0.028405,0.025351,-4.68,37.32,-13.56
3.3506,-9.1665,1.1441,-0.040317,0.019853,0.023518,-4.86,37.32,-13.62
3.4459,-9.1256,1.185,-0.037263,0.021075,0.0067195,-4.8,37.44,-13.62
3.3097,-9.1256,1.1169,-0.033903,0.019548,0.018326,-4.86,37.5,-13.56
3.3506,-9.1801,1.0351,-0.03207,0.023518,0.017715,-4.86,37.32,-13.32
3.337,-9.1937,1.0215,-0.037263,0.022297,0.029322,-4.92,37.5,-13.2
3.4596,-9.1256,1.1305,-0.038179,0.018631,0.027184,-4.74,37.44,-13.44
3.3778,-9.1393,1.1577,-0.033598,0.0058032,0.022907,-4.68,37.38,-13.38
3.3915,-9.1529,1.1169,-0.030238,0.0012217,0.018631,-4.68,37.32,-13.38
3.4187,-9.2074,1.1169,-0.037874,0.0048869,0.020159,-4.98,37.38,-13.5
3.4187,-9.1529,1.076,-0.036652,0.0012217,0.013439,-4.8,37.38,-13.5
3.2961,-9.1256,1.0896,-0.03207,0.0061087,0.009163,-4.8,37.38,-13.44
3.4323,-9.2074,1.1441,-0.044288,0.002138,0.011912,-4.68,37.38,-13.32
3.3642,-9.1801,1.1032,-0.03207,-0.0073304,0.020464,-4.56,37.38,-13.32
3.4323,-9.1801,1.1032,-0.035125,-0.01405,0.014355,-4.62,37.26,-13.2
3.3234,-9.1665,1.076,-0.036957,-0.017715,0.018021,-4.5,37.44,-13.08
3.3234,-9.1529,1.0624,-0.037568,-0.011301,0.025351,-4.44,37.5,-13.14
3.3506,-9.1393,1.1169,-0.037874,-0.010996,0.012523,-4.38,37.5,-13.14
3.3778,-9.2074,1.0896,-0.039401,-0.016799,0.015272,-4.44,37.56,-13.02
3.3778,-9.221,1.1169,-0.043371,-0.025656,0.011912,-4.38,37.5,-13.14
3.2825,-9.1529,1.0488,-0.040623,-0.020464,0.023518,-4.38,37.62,-13.14
3.3778,-9.1937,1.076,-0.040317,-0.018021,0.015882,-4.26,37.74,-13.26
3.4187,-9.3163,1.1169,-0.037568,-0.007025,0.017715,-4.32,37.68,-13.26
3.3506,-9.1801,1.0896,-0.045204,-0.0058032,0.01405,-4.26,37.74,-13.26
3.4187,-9.221,1.0624,-0.046426,-0.0073304,0.0088575,-4.5,37.8,-13.68
3.4323,-9.1937,1.0896,-0.051618,-0.0097738,0.014661,-4.62,37.8,-13.56
3.3642,-9.1529,1.1441,-0.04948,-0.007025,0.018631,-4.68,37.92,-13.56
3.4051,-9.1529,1.0896,-0.044593,-0.0064141,0.0094684,-4.62,37.86,-13.68
3.3506,-9.1256,1.0624,-0.047037,-0.0054978,0.022907,-4.8,37.8,-13.8
3.3506,-9.1937,1.076,-0.045204,-0.0048869,0.019853,-4.86,37.68,-13.86
3.2825,-9.1801,1.0351,-0.04612,-0.010996,0.016799,-4.98,37.56,-13.86
3.3642,-9.1937,1.0896,-0.043982,-0.007025,0.020159,-4.92,37.68,-13.92
3.3778,-9.0712,1.0215,-0.039401,0.0061087,0.012828,-5.04,37.68,-13.92
3.4051,-9.1529,1.0215,-0.037263,0.011912,0.010385,-5.04,37.56,-13.74
3.3915,-9.0848,1.0624,-0.045509,0.0076358,0.014661,-5.16,37.74,-13.8
3.3778,-9.0303,1.0488,-0.036041,-0.0097738,0.01741,-5.16,37.8,-13.86
3.4187,-9.1937,1.076,-0.041539,-0.009163,0.023824,-5.22,37.62,-13.68
3.3778,-9.1665,1.1169,-0.039401,-0.015882,0.022297,-5.1,37.74,-13.62
3.3506,-9.1256,0.99429,-0.039401,-0.018937,0.020769,-5.22,37.62,-13.5
3.3097,-9.1937,1.1577,-0.036346,-0.0082467,0.023824,-5.28,37.5,-13.44
3.3506,-9.1665,1.0488,-0.037263,-0.0012217,0.021686,-5.22,37.68,-13.5
3.4596,-9.1937,1.0896,-0.036041,0.000916,0.029627,-5.16,37.8,-13.44
3.3778,-9.112,1.076,-0.041844,-0.021991,0.036957,-5.1,37.86,-13.44
3.337,-9.0848,1.0624,-0.026267,-0.03146,0.030849,-5.16,37.8,-13.56
3.4187,-9.1937,1.1169,-0.029322,-0.021991,0.03146,-5.16,37.68,-13.5
3.3915,-9.1393,1.0624,-0.03543,-0.012523,0.03543,-5.1,37.56,-13.5
3.3915,-9.1665,1.0624,-0.031765,-0.015577,0.032376,-4.98,37.44,-13.44
3.4187,-9.1801,0.92618,-0.037568,-0.027184,0.030543,-5.04,37.44,-13.2
3.4323,-9.221,1.0351,-0.04215,-0.0281,0.041233,-5.04,37.44,-13.26
3.5413,-9.1937,1.0896,-0.035736,-0.019548,0.026878,-4.92,37.26,-13.2
3.3778,-9.1529,1.0896,-0.037874,-0.016188,0.023213,-5.04,37.38,-13.44
3.3778,-9.1256,1.0896,-0.025351,-0.012828,0.018021,-4.92,37.56,-13.44
3.4459,-9.1393,1.1169,-0.035736,-0.027489,0.025962,-4.98,37.44,-13.38
3.4596,-9.1529,1.0896,-0.04215,-0.046426,0.028711,-4.86,37.56,-13.38
3.4051,-9.1665,1.1441,-0.036346,-0.043371,0.027794,-4.8,37.68,-13.5
3.3642,-9.1665,1.0215,-0.025962,-0.031154,0.016188,-4.86,37.5,-13.32
3.3097,-9.1937,0.99429,-0.027184,-0.026573,0.019853,-4.8,37.62,-13.32
3.4187,-9.1529,1.0896,-0.025045,-0.02138,0.015272,-4.86,37.68,-13.38
3.3915,-9.1665,1.076,-0.023824,-0.021991,0.012828,-4.86,37.68,-13.32
3.3778,-9.1529,0.99429,-0.027794,-0.025962,0.020464,-4.74,37.62,-13.5
3.2553,-9.1529,1.076,-0.026878,-0.029932,0.024129,-4.68,37.74,-13.5
3.3506,-9.1665,1.0624,-0.021991,-0.028711,0.017715,-4.68,37.74,-13.56
3.2961,-9.1937,1.1169,-0.017715,-0.022907,0.015272,-4.5,37.68,-13.62
3.3506,-9.2074,1.0215,-0.031154,-0.020159,0.013439,-4.56,37.56,-13.56
3.3506,-9.0848,0.98067,-0.017715,-0.021991,0.0061087,-4.56,37.56,-13.62
3.337,-9.1529,1.0624,-0.020769,-0.011912,0.015882,-4.5,37.56,-13.56
3.2825,-9.1801,1.0079,-0.0281,-0.0058032,0.017715,-4.8,37.56,-13.5
3.3234,-9.1665,0.99429,-0.021075,-0.016188,0.018937,-4.74,37.62,-13.56
3.3506,-9.1529,0.96704,-0.029322,-0.023518,0.019242,-4.74,37.74,-13.62
3.337,-9.2482,0.95342,-0.032681,-0.018631,0.017715,-4.74,37.74,-13.8
3.2553,-9.1801,1.1169,-0.024129,-0.012217,0.01405,-4.86,37.74,-13.86
3.3234,-9.1393,1.076,-0.029932,0.0067195,0.010079,-4.92,37.86,-13.8
3.2825,-9.1393,1.0896,-0.035736,0.013744,0.011912,-4.98,37.92,-13.86
3.2553,-9.1529,1.0896,-0.036957,0.013744,0.01741,-5.1,37.98,-13.92
3.3915,-9.1529,1.0896,-0.034819,0.002138,0.014966,-5.16,37.92,-13.86
3.3506,-9.1529,1.0896,-0.03146,0.000611,0.015882,-5.28,37.92,-13.86
3.3506,-9.1801,1.1032,-0.041844,0.0036652,0.020464,-5.22,38.04,-13.92
3.3642,-9.221,1.0488,-0.039095,0.009163,0.018326,-5.28,38.04,-13.8
3.3778,-9.2346,1.1305,-0.035736,0.018021,0.0088575,-5.28,37.92,-13.92
3.337,-9.221,1.1305,-0.033598,0.034208,-0.0015272,-5.28,37.98,-13.98
3.228,-9.1937,0.99429,-0.035736,0.05681,0.000305,-5.4,37.98,-13.98
3.3234,-9.1665,1.0351,-0.023518,0.052534,0.0082467,-5.34,37.98,-13.92
3.2961,-9.1937,1.0896,-0.03207,0.026573,0.019242,-5.4,37.92,-13.98
3.3097,-9.1937,1.1169,-0.047647,0.0088575,0.030849,-5.52,37.98,-14.04
3.2144,-9.1665,1.1577,-0.051924,0.011606,0.036041,-5.52,37.8,-13.98
3.228,-9.2482,1.076,-0.046426,0.029322,0.036957,-5.52,37.8,-14.1
3.2961,-9.2346,0.99429,-0.035125,0.058338,0.030849,-5.4,37.8,-14.04
3.3778,-9.2346,0.99429,-0.036652,0.10996,0.017104,-5.34,37.86,-14.04
3.4459,-9.221,0.92618,-0.044288,0.12034,0.0067195,-5.28,37.8,-13.98
3.5549,-9.1937,0.96704,-0.058032,0.086437,0.000916,-5.46,37.74,-13.98
3.4732,-9.1937,0.99429,-0.072998,0.1011,-0.0033598,-5.46,37.86,-13.8
3.5004,-9.112,0.99429,-0.076664,0.07422,-0.0045815,-5.4,37.8,-13.74
3.4187,-9.1801,1.0215,-0.075442,0.054062,-0.0036652,-5.34,37.74,-13.68
3.4868,-9.1529,1.0624,-0.071777,-0.0027489,-0.002138,-5.52,37.86,-13.62
3.4187,-9.1937,1.0215,-0.071777,-0.017104,0.0027489,-5.34,37.86,-13.56
3.4187,-9.2074,1.0896,-0.07025,-0.036652,0.018326,-5.28,37.68,-13.5
3.337,-9.2074,1.1577,-0.069333,-0.018021,0.025656,-5.28,37.68,-13.56
3.3506,-9.0984,1.1032,-0.06689,0.0015272,0.026267,-5.16,37.62,-13.56
3.4187,-9.0303,1.185,-0.064752,0.018021,0.026267,-5.1,37.62,-13.44
3.514,-9.0984,1.1169,-0.053145,0.0097738,0.02138,-5.16,37.56,-13.56
3.5413,-9.1393,1.1713,-0.037568,-0.027184,0.021991,-5.34,37.56,-13.62
3.514,-9.1665,1.1305,-0.037568,-0.036346,0.028405,-5.1,37.5,-13.56
3.4323,-9.1256,1.1169,-0.039706,-0.039095,0.014355,-5.04,37.38,-13.5
3.3778,-9.1937,1.0624,-0.026878,-0.020769,0.007025,-4.92,37.38,-13.62
3.3234,-9.2618,1.0351,-0.024129,0.015882,-0.01405,-5.04,37.44,-13.62
3.4051,-9.1937,0.98067,-0.030849,0.020159,-0.020464,-4.5,37.26,-13.44
3.3915,-9.1256,0.96704,-0.026878,0.019548,-0.020464,-4.5,37.26,-13.44
3.3642,-9.1801,0.92618,-0.026267,0.018631,-0.016493,-4.56,37.32,-13.5
3.3642,-9.1801,0.99429,-0.030238,0.0088575,-0.0045815,-4.56,37.5,-13.44
3.3778,-9.1801,0.99429,-0.038179,-0.0042761,0.0045815,-4.68,37.5,-13.44
3.3097,-9.2074,0.99429,-0.047037,-0.0042761,0.0054978,-4.56,37.44,-13.38
3.1872,-9.2074,1.0351,-0.043066,0.025045,0.000916,-4.62,37.56,-13.44
3.1599,-9.0575,1.1032,-0.044899,0.076053,0.002138,-4.62,37.56,-13.32
3.2144,-9.1529,1.0488,-0.041844,0.098655,0.000916,-4.74,37.62,-13.38
3.2961,-9.112,1.1577,-0.050702,0.12828,-0.000916,-4.68,37.62,-13.38
3.4187,-9.0303,1.0896,-0.050702,0.13622,0.0054978,-4.74,37.44,-13.38
3.3506,-9.0575,1.1169,-0.04948,0.13408,0.018021,-4.74,37.5,-13.44
3.5413,-9.1801,1.1713,-0.045509,0.12339,0.014661,-4.92,37.74,-13.56
3.5413,-9.221,1.2531,-0.03207,0.098655,0.021991,-4.98,37.62,-13.68
3.5685,-9.1393,1.2395,-0.036957,0.081856,0.016493,-4.86,37.8,-13.56
3.5004,-9.0303,1.185,-0.014661,0.07422,0.014966,-4.86,37.8,-13.56
3.5685,-9.1393,1.2122,-0.002138,0.063225,0.026573,-4.8,37.8,-13.5
3.6775,-9.0848,1.2395,-0.009163,0.030849,0.023213,-4.8,37.86,-13.62
3.5004,-9.1529,1.1441,-0.01741,0.0024435,0.015882,-4.68,37.8,-13.68
3.3778,-9.2346,1.0488,-0.028405,0.026267,0.0088575,-4.56,37.8,-13.8
3.4596,-9.2346,1.0215,-0.03146,0.059865,0.000611,-4.56,37.62,-13.86
3.4596,-9.2482,1.0896,-0.025045,0.074526,-0.014355,-4.62,37.74,-13.98
3.4187,-9.1529,1.0624,-0.016493,0.060781,-0.012217,-4.62,37.8,-13.92
3.4459,-9.1393,0.95342,-0.017104,0.050091,-0.0097738,-4.74,37.8,-13.74
3.4187,-9.0984,0.96704,-0.013744,0.023213,0.0036652,-4.86,37.74,-13.92
3.3506,-9.1393,0.95342,-0.016799,0.021991,0.0082467,-4.92,37.8,-13.92
3.3097,-9.1256,1.0215,-0.020159,0.031154,0.018021,-4.98,37.62,-13.98
3.3915,-9.1665,1.0351,-0.028711,0.035125,0.018021,-4.92,37.62,-13.98
3.4051,-9.1529,1.076,-0.030849,0.020464,0.026573,-5.04,37.56,-13.98
3.3642,-9.1665,1.1032,-0.028405,0.01069,0.024129,-5.04,37.5,-13.98
3.4323,-9.1529,1.1441,-0.011606,-0.018937,0.041233,-5.16,37.56,-13.92
3.514,-9.1529,1.0896,-0.000611,-0.051924,0.044288,-5.16,37.56,-13.8
3.4459,-9.0848,1.185,0.0088575,-0.065973,0.051007,-5.16,37.74,-13.8
3.3506,-9.1529,1.0896,0.0076358,-0.082772,0.051007,-5.1,37.8,-13.92
3.2689,-9.112,1.0488,0.012523,-0.080634,0.055894,-5.22,37.74,-13.86
3.337,-9.2074,1.0351,0.0015272,-0.064141,0.045204,-5.1,37.74,-13.98
3.2144,-9.0848,1.0351,0.0064141,-0.0562,0.054062,-4.92,37.62,-13.86
3.2416,-9.1393,1.0896,0.0082467,-0.026573,0.053145,-4.92,37.56,-13.98
3.2553,-9.1256,1.0624,0.010079,-0.027489,0.049175,-4.92,37.68,-13.86
3.3915,-9.112,1.0624,0.000916,-0.045509,0.061697,-4.86,37.62,-13.62
3.3642,-9.1937,1.1441,-0.0076358,-0.054367,0.06689,-4.86,37.62,-13.98
3.2825,-9.0984,1.185,-0.0018326,-0.062614,0.061087,-4.92,37.56,-14.04
3.2553,-9.0848,1.1032,-0.0067195,-0.047647,0.050702,-5.04,37.32,-14.1
3.2961,-9.1529,1.185,-0.0067195,-0.042455,0.056505,-5.1,37.32,-14.16
3.3915,-9.221,1.2531,-0.0039706,-0.032681,0.046731,-5.1,37.2,-13.98
3.3097,-9.221,1.2531,-0.013744,-0.028711,0.042761,-5.28,37.08,-13.86
3.3097,-9.221,1.2531,-0.0045815,-0.018021,0.040928,-5.1,37.2,-13.8
3.2008,-9.1256,1.3076,-0.0058032,-0.002138,0.03207,-5.16,37.26,-13.8
3.3506,-9.1529,1.2667,0.002138,0.013439,0.026878,-5.1,37.32,-13.86
3.3506,-9.1529,1.3348,-0.000916,0.015577,0.029627,-5.04,37.32,-13.92
3.337,-9.1256,1.2803,-0.0033598,0.0027489,0.022907,-5.1,37.26,-13.98
3.2553,-9.0984,1.2803,0.0088575,-0.015272,0.029322,-5.1,37.14,-14.1
3.2553,-9.1529,1.3076,0.013439,-0.023213,0.03146,-4.98,37.26,-14.16
3.2689,-9.1665,1.185,0.007025,-0.02138,0.047953,-5.04,37.2,-14.04
3.2961,-9.0848,1.2258,0.0042761,-0.024129,0.045815,-4.98,37.38,-14.1
3.228,-9.1393,1.2531,-0.0045815,-0.036652,0.049175,-4.74,37.38,-14.22
3.2416,-9.1937,1.2667,-0.013439,-0.014966,0.041233,-4.68,37.38,-14.28
3.2144,-9.2074,1.2803,-0.018631,-0.0064141,0.039401,-4.5,37.5,-14.46
3.228,-9.1529,1.3484,-0.023518,0.019853,0.039706,-4.5,37.38,-14.58
3.2144,-9.1256,1.3348,-0.015272,0.033292,0.025351,-4.32,37.38,-14.76
3.1735,-9.1529,1.2939,-0.010996,0.045815,0.027794,-4.44,37.32,-14.76
3.2553,-9.1937,1.362,-0.012217,0.040623,0.024129,-4.56,37.32,-14.64
3.228,-9.1256,1.4029,-0.0051924,0.040623,0.026267,-4.5,37.5,-14.64
3.2825,-9.1529,1.3212,-0.009163,0.043066,0.032987,-4.5,37.68,-14.76
3.2825,-9.1393,1.3757,0.0018326,0.036957,0.047342,-4.44,37.56,-14.58
3.3097,-9.1937,1.3757,-0.0033598,0.035736,0.046426,-4.44,37.68,-14.64
3.3097,-9.1529,1.3348,-0.0012217,0.025351,0.046426,-4.44,37.68,-14.7
3.2553,-9.1529,1.3484,0.0094684,0.012523,0.051007,-4.5,37.92,-14.7
3.3234,-9.112,1.2531,0.009163,0.009163,0.044288,-4.5,37.98,-14.76
3.3506,-9.1529,1.3484,0.0079412,0.0033598,0.051313,-4.5,37.92,-14.64
3.2825,-9.1529,1.2939,0.0048869,-0.0097738,0.049175,-4.56,37.92,-14.64
3.3234,-9.1529,1.2939,0.0088575,-0.01741,0.049786,-4.74,37.8,-14.46
3.2008,-9.1256,1.3348,0.0048869,-0.020769,0.048258,-4.62,37.8,-14.52
3.2416,-9.1256,1.4029,-0.0015272,-0.012523,0.046426,-4.62,37.62,-14.52
3.2553,-9.1529,1.3757,-0.0036652,-0.025045,0.04948,-4.68,37.56,-14.76
3.1872,-9.1529,1.4438,-0.0036652,-0.026573,0.051313,-4.62,37.44,-14.7
3.1599,-9.1665,1.4165,0.000916,-0.034819,0.062003,-4.5,37.5,-14.64
3.1191,-9.1529,1.471,0.0042761,-0.030238,0.062614,-4.32,37.38,-14.7
3.0918,-9.0984,1.471,0.0012217,-0.042761,0.069028,-4.2,37.38,-14.7
3.0373,-9.112,1.5391,0.011606,-0.038485,0.079718,-4.14,37.02,-14.58
3.0646,-9.0984,1.471,0.011606,-0.04215,0.085827,-4.14,37.02,-14.58
3.1054,-9.1801,1.5119,0.0079412,-0.053756,0.0956,-4.08,36.84,-14.76
3.0918,-9.1937,1.5255,0.0042761,-0.054978,0.10446,-4.02,36.78,-14.88
3.0373,-9.221,1.5391,0.000305,-0.050091,0.11087,-3.78,36.84,-14.76
2.9965,-9.1256,1.5527,0.000916,-0.017104,0.12309,-3.42,36.9,-14.76
3.0782,-9.1393,1.7025,0.011912,-0.0012217,0.12523,-3.36,37.08,-14.76
3.1054,-9.1256,1.6344,0.015272,-0.017715,0.13531,-3.3,36.96,-14.64
3.1327,-9.112,1.6617,0.020159,-0.06689,0.14997,-3.3,36.84,-14.64
3.2144,-9.0984,1.7162,0.021686,-0.085827,0.14997,-3.48,36.9,-14.88
3.1191,-9.1256,1.6753,0.022602,-0.092241,0.14355,-3.36,37.02,-14.88
3.1191,-9.1937,1.7025,0.014966,-0.078496,0.13989,-3.12,37.14,-14.88
3.1735,-9.3027,1.7706,0.0018326,-0.06353,0.13958,-2.94,37.2,-14.94
3.1463,-9.2891,1.7434,-0.016188,-0.065973,0.14416,-3.06,37.08,-15.0
2.9965,-9.221,1.757,-0.014355,-0.063835,0.13531,-2.88,37.26,-14.88
2.9965,-9.2074,1.866,-0.017715,-0.053145,0.13164,-2.7,37.14,-14.82
3.0646,-9.2618,1.8932,-0.015577,-0.061697,0.1237,-2.58,37.32,-14.94
3.051,-9.2482,1.8251,-0.021686,-0.084605,0.1124,-2.58,37.38,-15.18
3.0782,-9.221,1.7434,-0.026878,-0.10812,0.10812,-2.46,37.38,-15.12
2.9556,-9.2346,1.8932,-0.038485,-0.11484,0.099571,-2.34,37.26,-14.94
2.9011,-9.3163,1.866,-0.058032,-0.0956,0.089797,-2.1,37.32,-14.94
2.9556,-9.3436,1.9613,-0.072082,-0.081551,0.072998,-2.16,37.32,-14.88
2.9148,-9.3299,1.8932,-0.086132,-0.068722,0.061392,-2.16,37.5,-14.88
2.9148,-9.2755,1.9477,-0.10446,-0.051007,0.047037,-2.16,37.44,-14.82
2.8603,-9.2891,1.9341,-0.10354,-0.030238,0.029627,-2.1,37.62,-14.76
2.9284,-9.3027,1.9205,-0.10293,-0.023824,0.020769,-2.04,37.44,-14.94
2.9284,-9.221,2.0294,-0.11087,-0.0076358,-0.0073304,-2.04,37.5,-15.06
2.9556,-9.2346,1.9341,-0.11118,-0.0033598,-0.010996,-2.04,37.56,-15.12
2.9011,-9.2891,1.9341,-0.11301,0.016493,-0.034208,-2.04,37.62,-15.0
2.9965,-9.2618,1.8932,-0.11606,0.032987,-0.051924,-1.98,37.74,-14.76
2.9284,-9.3299,1.9205,-0.11729,0.058338,-0.07025,-1.92,37.8,-14.64
2.9829,-9.3572,1.9613,-0.12889,0.10415,-0.077885,-1.86,37.98,-14.76
3.0237,-9.4117,1.9205,-0.12217,0.12095,-0.082161,-1.98,37.98,-14.64
3.0782,-9.3572,1.8932,-0.12034,0.11973,-0.081551,-2.04,38.04,-14.58
3.0918,-9.3844,1.8796,-0.10232,0.096211,-0.066279,-1.92,38.04,-14.58
3.0918,-9.221,1.7706,-0.084605,0.067806,-0.058948,-1.86,38.22,-14.52
3.1599,-9.0848,1.7025,-0.060781,0.031765,-0.054978,-1.86,38.16,-14.4
3.2553,-9.0712,1.7298,-0.03146,-0.02474,-0.043066,-1.86,38.16,-14.34
3.2825,-9.112,1.6072,-0.025045,-0.13317,-0.025962,-1.86,38.1,-14.22
3.2008,-9.112,1.5119,-0.028711,-0.18967,-0.026573,-1.92,38.04,-14.1
3.2416,-9.1256,1.5391,-0.025045,-0.20159,-0.016799,-2.04,38.04,-13.98
3.1735,-9.0848,1.4846,-0.025962,-0.18998,-0.016493,-2.04,37.92,-13.98
3.1872,-9.0575,1.4574,-0.019853,-0.17257,-0.031154,-2.04,37.86,-14.04
3.1735,-9.221,1.4574,-0.018326,-0.16157,-0.031154,-1.92,37.92,-14.04
3.2553,-9.4389,1.5391,-0.015577,-0.17562,-0.029627,-1.92,37.86,-14.1
3.2825,-9.398,1.5391,-0.015882,-0.23091,-0.016493,-1.98,37.86,-14.1
3.2825,-9.1665,1.5119,0.019242,-0.38973,-0.0073304,-2.16,37.8,-13.92
3.1191,-9.112,1.4438,0.060476,-0.51404,0.0094684,-2.34,37.8,-13.98
3.0918,-9.112,1.362,0.087354,-0.58643,0.013439,-2.46,37.86,-13.86
3.1599,-9.0167,1.1441,0.10873,-0.71593,0.036957,-2.76,37.8,-13.86
3.0918,-9.0848,1.0624,0.12492,-0.82192,0.085216,-3.0,37.92,-13.86
3.2008,-9.1529,0.81722,0.11912,-0.84483,0.083689,-3.24,38.1,-13.98
2.9965,-9.3436,0.47671,0.10049,-0.83719,0.085216,-3.48,38.04,-14.28
2.9556,-9.507,0.39499,0.025045,-0.69669,0.061697,-3.9,37.98,-14.34
2.8603,-9.5751,0.34051,-0.04948,-0.55803,0.04612,-4.26,37.98,-14.34
2.833,-9.5479,0.50395,-0.097433,-0.41081,0.037568,-4.92,37.8,-14.46
2.7649,-9.3572,0.62654,-0.12859,-0.080329,0.0088575,-5.22,37.86,-14.46
2.6696,-9.2891,0.76274,-0.11973,0.018631,-0.0018326,-5.28,37.74,-14.34
2.9556,-9.0575,1.2122,-0.080634,0.059865,0.015272,-5.52,37.74,-14.46
3.1599,-9.0848,1.0488,-0.052229,-0.12614,0.052229,-5.58,37.68,-14.58
3.1327,-9.1665,0.81722,-0.044288,-0.30788,0.06353,-5.76,37.62,-14.76
3.0237,-9.3027,0.6674,-0.050091,-0.28924,0.065973,-6.0,37.74,-14.64
3.1054,-9.221,0.6674,-0.058032,-0.17379,0.083078,-6.0,37.44,-14.7
3.2144,-9.1937,0.64016,-0.059254,-0.17257,0.085521,-5.88,37.38,-14.7
3.2825,-9.1256,0.43585,-0.072693,-0.22022,0.049786,-5.76,37.26,-14.52
3.2144,-9.0031,0.78998,-0.063835,-0.25473,0.030849,-6.06,37.38,-14.34
3.2825,-9.0303,0.92618,-0.015577,-0.37629,0.065363,-5.94,37.44,-14.34
3.1872,-9.1801,0.92618,0.030543,-0.61392,0.10018,-5.82,37.5,-14.22
3.228,-9.616,0.70826,0.069028,-0.74159,0.12156,-5.76,37.44,-14.1
3.3642,-9.6977,0.9398,0.068722,-0.70921,0.1124,-6.0,37.5,-14.22
3.3097,-9.7522,0.9398,0.073915,-0.72907,0.12248,-6.06,37.5,-14.22
3.1463,-9.6841,0.89894,0.093768,-0.87232,0.099571,-6.3,37.56,-14.34
2.6287,-9.3844,0.77636,0.10476,-0.80084,0.065363,-6.54,37.5,-14.1
2.5061,-9.0575,0.99429,0.12065,-0.64813,0.065057,-6.66,37.56,-13.92
2.6287,-8.826,0.89894,0.16952,-0.73548,0.15669,-7.02,37.68,-14.16
2.5742,-8.8396,0.34051,0.17807,-0.81276,0.17318,-7.2,37.68,-14.1
2.4925,-9.0167,0.17706,0.16066,-0.81673,0.20739,-7.38,37.74,-14.1
2.5198,-9.2482,0.14982,0.10843,-0.53634,0.23671,-7.56,37.8,-14.16
2.8875,-9.3708,0.21793,0.073609,-0.46731,0.24374,-7.8,37.74,-14.22
2.9011,-9.4253,0.36775,0.03879,-0.35186,0.18265,-8.22,37.8,-14.28
2.8603,-9.616,0.54481,0.000916,-0.14172,0.14203,-8.34,37.92,-14.16
3.0237,-9.5479,0.5993,-0.0094684,0.018937,0.09896,-8.28,37.98,-14.22
3.1463,-9.5479,0.65378,-0.028711,0.060781,0.082772,-8.28,38.1,-14.1
3.0918,-9.4934,0.57205,-0.056505,0.086132,-0.025045,-8.34,38.1,-14.04
2.7649,-9.1801,0.89894,-0.06689,0.13439,-0.075136,-8.34,38.46,-14.1
2.833,-9.112,0.9398,-0.03879,0.10812,-0.059254,-8.4,38.4,-14.16
2.8739,-9.4117,0.61292,-0.024129,0.029016,-0.018021,-8.28,38.58,-13.98
2.8875,-9.7385,0.36775,-0.057421,0.076358,-0.0051924,-8.4,38.64,-14.1
2.9284,-9.793,0.35413,-0.11729,0.30971,-0.048258,-8.4,38.76,-14.22
2.7377,-9.4798,0.72188,-0.13806,0.42852,-0.081245,-8.22,38.76,-14.4
2.5606,-9.2618,0.83084,-0.2248,0.67837,-0.16585,-8.16,38.7,-14.46
2.3836,-9.0575,0.91256,-0.25687,0.85735,-0.19303,-8.1,38.7,-14.52
2.2337,-8.4446,1.6208,-0.2135,0.99449,-0.09896,-7.92,38.7,-14.46
2.9556,-8.7715,1.4165,-0.1295,0.6524,0.087965,-7.98,38.64,-14.4
3.4459,-8.9894,0.89894,-0.1014,0.19028,0.11759,-8.04,38.58,-14.52
2.9692,-9.4798,0.19068,-0.10232,0.09163,0.085216,-8.1,38.28,-14.22
2.8058,-9.7385,-0.054481,-0.14325,0.41508,-0.0097738,-7.86,38.34,-14.28
2.7649,-9.6977,-0.14982,-0.2474,0.91691,-0.16127,-7.74,38.4,-14.28
2.547,-9.2891,0.57205,-0.35277,1.3766,-0.33017,-7.44,38.4,-14.22
2.5879,-9.0575,0.99429,-0.4215,1.7556,-0.35766,-7.38,38.34,-14.04
2.5742,-8.5536,1.3757,-0.41539,1.832,-0.35003,-7.2,38.28,-14.04
3.0101,-8.7034,1.58,-0.37446,2.0992,-0.33414,-6.78,38.1,-13.74
3.3642,-8.8668,1.7298,-0.32406,2.1105,-0.3375,-6.54,38.28,-13.62
3.6775,-9.0031,1.7025,-0.2755,1.9169,-0.31918,-6.18,38.16,-13.68
3.9771,-9.221,1.6208,-0.20403,1.5623,-0.23976,-6.18,38.1,-13.62
4.5764,-9.6023,1.3484,-0.085521,0.8039,-0.058948,-5.52,37.98,-13.68
4.7399,-9.5887,1.3212,-0.013439,0.22541,0.037263,-5.22,37.98,-13.68
4.8897,-9.3708,1.1577,0.034208,-0.079412,0.073609,-4.98,37.98,-13.68
4.2904,-9.0439,1.2395,0.12278,-0.74709,0.1014,-4.62,38.16,-13.74
3.9635,-9.1256,1.2122,0.15821,-0.98044,0.096211,-4.56,38.1,-13.8
3.6503,-9.2482,1.185,0.15913,-1.0544,0.065973,-4.38,38.04,-13.86
3.3097,-9.4389,1.1577,0.11515,-0.87232,0.0051924,-4.26,38.04,-13.92
3.2144,-9.4798,1.1713,0.054672,-0.65821,-0.039706,-4.26,38.16,-13.98
3.1327,-9.3708,1.1441,0.024129,-0.53665,-0.059254,-4.38,38.16,-14.1
2.9829,-9.0712,1.2258,-0.020464,-0.13256,-0.11637,-4.62,38.16,-14.28
3.0237,-8.9077,1.3212,-0.037568,0.058643,-0.12706,-4.8,38.28,-14.28
3.1327,-9.0575,1.3484,-0.039706,0.13042,-0.13867,-4.98,38.46,-14.16
3.2825,-9.2074,1.4438,-0.037874,0.072388,-0.14355,-5.22,38.52,-14.28
3.2144,-9.2618,1.3348,-0.046731,0.027794,-0.13806,-5.46,38.46,-14.22
3.051,-9.2074,1.3348,-0.011606,-0.036041,-0.12675,-5.58,38.52,-14.28
2.9829,-9.1937,1.2395,0.0082467,-0.0048869,-0.10415,-5.94,38.28,-14.4
3.0237,-9.2482,1.1577,0.024129,0.019548,-0.087965,-6.06,38.28,-14.34
3.0918,-9.1665,1.1713,0.024435,0.02474,-0.072998,-6.18,38.28,-14.34
3.0101,-9.0848,1.0896,0.018326,0.05681,-0.047342,-6.48,38.4,-14.58
3.0237,-9.0712,1.0624,0.016493,0.08827,-0.043371,-6.48,38.4,-14.46
3.0918,-9.0575,1.1169,-0.017715,0.19303,-0.012828,-6.48,38.4,-14.4
3.3097,-9.0848,1.0624,-0.03207,0.30513,-0.011301,-6.66,38.46,-14.58
3.4187,-9.1256,1.0624,-0.05681,0.38576,-0.002138,-6.84,38.46,-14.64
3.5413,-9.0712,1.1986,-0.065668,0.41386,-0.0064141,-6.72,38.52,-14.64
3.6366,-9.1665,1.185,-0.065057,0.39981,0.0067195,-6.9,38.46,-15.0
3.6911,-9.1937,1.185,-0.073915,0.35613,0.013439,-6.84,38.4,-15.0
3.8546,-9.1256,1.2803,-0.067806,0.32529,0.0097738,-6.72,38.4,-15.18
3.9635,-9.1937,1.2258,-0.057421,0.20403,0.018937,-6.42,38.4,-15.36
3.9227,-9.0984,1.3757,-0.057727,0.12156,0.023518,-6.42,38.4,-15.48
3.8273,-9.0848,1.471,-0.061697,0.0045815,0.017715,-6.36,38.52,-15.48
3.6094,-9.1256,1.4165,-0.064141,-0.051924,0.0064141,-6.24,38.28,-15.36
3.4732,-9.0848,1.3757,-0.054367,-0.022602,0.018021,-6.18,38.22,-15.36
3.6639,-9.0303,1.3484,-0.048564,-0.044288,0.016799,-6.12,38.16,-15.42
3.4732,-9.0848,1.3757,-0.04215,-0.089797,0.024129,-5.88,38.28,-15.36
3.3642,-9.112,1.362,-0.033903,-0.1066,0.045204,-5.76,38.28,-15.36
3.337,-9.1665,1.2122,-0.039706,-0.090713,0.07025,-5.88,38.28,-15.42
3.4187,-9.221,1.2803,-0.044593,-0.087965,0.089797,-5.82,38.22,-15.18
3.4459,-9.3027,1.185,-0.04948,-0.081551,0.10232,-5.76,38.22,-15.18
3.4459,-9.2346,1.2258,-0.073304,-0.062919,0.11118,-5.88,38.28,-15.12
3.4187,-9.1665,1.1577,-0.072998,-0.053756,0.10476,-5.94,38.34,-15.0
3.4732,-9.2074,1.2395,-0.08094,-0.032987,0.10049,-6.06,38.46,-14.88
3.514,-9.1937,1.2122,-0.10385,-0.064141,0.11148,-5.94,38.52,-14.82
3.4732,-9.1937,1.2395,-0.12126,-0.13622,0.11942,-5.76,38.64,-14.76
3.4596,-9.1529,1.2258,-0.1292,-0.16127,0.1182,-5.88,38.7,-14.76
3.4051,-9.1665,1.2803,-0.12156,-0.14325,0.11393,-5.88,38.7,-14.7
3.3097,-9.1529,1.2667,-0.12065,-0.12309,0.11759,-5.82,38.52,-14.76
3.4051,-9.1529,1.1713,-0.11209,-0.098044,0.10201,-5.76,38.58,-14.64
3.3234,-9.1529,1.2122,-0.11148,-0.064752,0.081551,-5.7,38.7,-14.7
3.4051,-9.0439,1.0215,-0.11148,-0.011606,0.072998,-5.7,38.64,-14.76
3.3778,-9.1256,1.1169,-0.11026,0.044899,0.062003,-5.58,38.64,-14.64
3.3778,-9.1529,1.076,-0.11606,0.060476,0.050702,-5.46,38.7,-14.58
3.5277,-9.2074,1.1577,-0.12492,0.018326,0.045204,-5.34,38.76,-14.58
3.4459,-9.1529,1.0896,-0.12156,-0.0073304,0.04612,-5.34,38.82,-14.16
3.5004,-9.2482,1.1305,-0.11942,-0.018021,0.046731,-5.34,38.7,-14.22
3.4459,-9.221,1.0624,-0.12034,-0.036652,0.052229,-5.52,38.58,-14.04
3.4323,-9.1801,1.0624,-0.11698,-0.075747,0.044593,-5.4,38.52,-13.86
3.2961,-9.1393,1.1169,-0.11087,-0.040928,0.044288,-5.46,38.58,-13.62
3.3097,-9.1937,1.1577,-0.1127,-0.040012,0.044288,-5.52,38.76,-13.5
3.3778,-9.1529,1.1169,-0.10507,-0.03879,0.036957,-5.52,38.7,-13.62
3.2416,-9.1937,1.076,-0.098655,-0.030543,0.034208,-5.52,38.64,-13.38
3.2961,-9.1665,1.1032,-0.098349,-0.015577,0.022907,-5.52,38.76,-13.38
3.2416,-9.1393,1.1032,-0.09499,0.033598,0.014966,-5.52,38.7,-13.2
3.3097,-9.1801,1.1169,-0.094073,0.072693,0.021075,-5.52,38.58,-13.08
3.3506,-9.221,1.0079,-0.09163,0.081856,0.017104,-5.52,38.7,-13.08
3.3915,-9.1665,0.96704,-0.093157,0.072998,0.0082467,-5.34,38.52,-13.14
3.4459,-9.1529,1.0351,-0.089797,0.057421,0.0018326,-5.34,38.64,-13.08
3.4187,-9.1256,1.0079,-0.099571,0.062614,0.0045815,-5.22,38.76,-13.2
3.5277,-9.221,1.1577,-0.093462,0.013439,-0.0073304,-5.34,38.94,-13.2
3.4459,-9.112,1.0351,-0.09163,-0.044593,0.000916,-5.22,39.06,-13.26
3.3097,-9.1256,1.0351,-0.088575,-0.06689,0.000611,-5.22,39.0,-13.26
3.1735,-9.2346,0.96704,-0.065057,-0.078191,0.023518,-5.1,38.82,-13.08
3.2144,-9.2482,0.81722,-0.068722,-0.065363,0.03146,-5.28,38.82,-12.84
3.3097,-9.2346,0.84446,-0.073915,-0.074526,0.033292,-5.4,38.64,-12.78
3.1872,-9.1937,0.68102,-0.085216,-0.083383,0.036957,-5.46,38.7,-12.96
3.1191,-9.221,0.64016,-0.081856,-0.020464,0.027184,-5.52,38.82,-12.96
3.2144,-9.221,0.68102,-0.087965,0.05284,0.021075,-5.52,38.7,-13.08
3.3097,-9.3027,0.58567,-0.10354,0.093768,0.01069,-5.52,39.0,-13.2
3.2553,-9.2891,0.5993,-0.10568,0.096211,0.010996,-5.64,38.88,-13.2
3.3097,-9.3163,0.57205,-0.10721,0.088881,0.0088575,-5.58,38.88,-13.14
3.4459,-9.2482,0.54481,-0.10507,0.058948,0.014966,-5.7,38.94,-12.96
3.4187,-9.1937,0.53119,-0.0956,0.020769,0.020159,-5.76,38.76,-13.08
3.3915,-9.2074,0.54481,-0.09499,-0.019242,0.021686,-5.52,38.76,-13.08
3.337,-9.1256,0.44947,-0.089797,-0.037263,0.033598,-5.46,39.24,-13.02
3.2689,-9.1256,0.44947,-0.076358,-0.032681,0.037874,-5.34,39.3,-13.26
3.2825,-9.112,0.36775,-0.065363,-0.007025,0.050091,-5.16,39.48,-13.26
3.4051,-9.2482,0.51757,-0.059559,0.037568,0.047647,-5.1,39.66,-12.96
3.4051,-9.221,0.50395,-0.045815,0.030849,0.044288,-5.1,39.48,-12.96
3.3915,-9.1937,0.54481,-0.042761,-0.013744,0.036957,-5.1,39.72,-12.84
3.514,-9.1665,0.43585,-0.049175,-0.037263,0.041233,-5.1,39.84,-12.9
3.3642,-9.2755,0.43585,-0.046426,-0.058032,0.036346,-5.16,39.78,-12.78
3.3778,-9.3299,0.35413,-0.040012,-0.053145,0.030238,-5.04,39.78,-12.78
3.3234,-9.2482,0.27241,-0.046731,-0.081551,0.03146,-4.86,39.66,-12.78
3.3097,-9.221,0.21793,-0.044899,-0.13011,0.043677,-4.74,39.72,-12.84
3.2416,-9.2482,0.12258,-0.031765,-0.11454,0.053145,-4.98,39.6,-12.78
3.1872,-9.2482,0.23155,-0.013439,-0.064446,0.048869,-4.92,39.36,-12.9
3.0918,-9.1529,0.27241,-0.014355,-0.0027489,0.053756,-5.04,39.36,-12.84
3.2144,-9.2074,0.23155,0.000611,0.030849,0.041539,-5.04,39.24,-12.72
3.2961,-9.1801,0.34051,-0.0033598,0.029932,0.03207,-5.04,39.24,-12.72
3.2825,-9.1529,0.21793,0.0033598,0.011912,0.013744,-4.92,39.24,-12.66
3.3097,-9.221,0.14982,0.0024435,0.044899,0.0058032,-4.98,39.12,-12.66
3.3506,-9.2891,0.19068,-0.000305,0.088575,-0.023824,-4.92,39.06,-12.66
3.337,-9.2482,0.068102,-0.022297,0.14905,-0.044899,-4.86,39.18,-12.72
3.3234,-9.2618,0.16344,-0.034514,0.19639,-0.059865,-4.86,39.0,-12.84
3.3506,-9.2891,0.27241,-0.045204,0.25443,-0.065057,-4.8,39.12,-12.9
3.4459,-9.2891,0.42223,-0.047647,0.24984,-0.045509,-4.8,39.12,-12.72
3.5413,-9.1937,0.44947,-0.034208,0.16493,-0.033292,-4.62,39.24,-12.78
3.5413,-9.2755,0.50395,-0.032987,0.098349,-0.022297,-4.62,39.36,-12.6
3.4459,-9.0439,0.57205,-0.021686,-0.12462,0.028711,-4.5,39.18,-12.54
3.337,-8.9622,0.42223,0.016188,-0.24465,0.064141,-4.56,39.24,-12.48
3.228,-9.0439,0.42223,0.041844,-0.26542,0.083689,-4.5,39.18,-12.54
3.0373,-9.221,0.53119,0.067501,-0.07025,0.098349,-4.68,39.24,-12.72
3.1054,-9.3436,0.47671,0.077274,0.075136,0.08491,-4.62,39.18,-12.72
3.3097,-9.3572,0.57205,0.051924,0.15547,0.040623,-4.56,39.06,-12.84
3.4732,-9.2482,0.69464,0.042761,0.17318,-0.0012217,-4.44,38.88,-12.78
3.4596,-9.1529,0.7355,0.016188,0.18906,-0.039401,-4.44,39.06,-12.78
3.4187,-9.0848,0.74912,0.01069,0.17929,-0.061697,-4.44,38.94,-12.72
3.4323,-9.2891,0.81722,-0.0094684,0.17165,-0.072693,-4.44,38.88,-12.84
3.3915,-9.3844,0.88532,-0.016188,0.16341,-0.064141,-4.56,38.88,-12.78
3.337,-9.2891,0.84446,-0.013744,0.14019,-0.056505,-4.56,38.94,-12.96
3.3097,-9.2891,0.91256,-0.013744,0.055589,-0.031154,-4.56,38.88,-13.02
3.2416,-9.1937,0.95342,-0.0064141,-0.017104,-0.0067195,-4.56,38.88,-13.14
3.1599,-9.1256,0.92618,0.018021,-0.069639,0.016493,-4.56,38.94,-13.02
3.1191,-8.9894,0.92618,0.029016,-0.12675,0.040928,-4.56,38.76,-13.14
3.051,-9.0984,1.0351,0.053145,-0.17776,0.094073,-4.5,38.7,-13.14
3.0782,-9.1665,1.0896,0.049786,-0.19487,0.12492,-4.5,38.76,-13.02
3.2144,-9.6023,1.1032,0.048258,-0.18387,0.16096,-4.56,38.94,-13.14
3.2825,-9.3708,1.0896,0.023824,-0.18357,0.1631,-4.74,38.88,-13.14
3.2553,-9.3436,1.1305,0.009163,-0.22327,0.14752,-4.74,38.82,-13.02
3.1191,-9.3163,1.1169,0.0045815,-0.24404,0.089492,-4.74,38.76,-13.14
3.0237,-9.3572,1.1169,-0.021991,-0.1127,0.042455,-4.56,38.76,-13.26
3.0237,-9.4934,0.96704,-0.042761,-0.048869,0.027184,-4.5,38.64,-13.2
3.1872,-9.7658,0.95342,-0.095906,0.1408,-0.024129,-4.56,38.7,-13.32
3.1872,-9.4798,1.0488,-0.11362,0.21991,-0.065363,-4.62,38.64,-13.38
3.0237,-9.0984,1.0079,-0.11179,0.29199,-0.069639,-4.62,38.64,-13.38
3.0237,-8.6762,0.99429,-0.072082,0.36988,-0.060781,-4.68,38.64,-13.32
3.3097,-8.7034,1.0215,-0.03146,0.3204,-0.0058032,-4.62,38.94,-13.2
3.3234,-8.6898,1.0896,-0.03146,0.23976,0.042761,-4.56,38.82,-13.2
3.3915,-9.5479,1.2939,-0.065668,0.11729,0.10904,-4.74,38.82,-13.2
3.4187,-9.793,1.4165,-0.10476,0.013439,0.16127,-4.68,38.82,-13.26
3.4459,-9.793,1.4438,-0.12156,-0.0562,0.19578,-4.68,38.82,-13.32
3.3778,-9.616,1.3484,-0.09163,-0.16066,0.20831,-4.62,38.82,-13.38
3.337,-8.7034,1.0079,0.013439,-0.3656,0.197,-4.68,38.88,-13.2
3.2416,-8.6489,0.85808,0.092852,-0.48136,0.1909,-4.68,38.82,-13.2
3.1599,-8.8668,0.62654,0.13347,-0.48686,0.18418,-4.68,38.82,-13.14
2.942,-9.2482,0.43585,0.11515,-0.35552,0.16829,-4.5,38.76,-13.08
2.9965,-9.507,0.57205,0.072388,-0.097738,0.12767,-4.5,38.82,-13.2
3.1463,-9.6023,0.6674,-0.010079,0.090713,0.070555,-4.32,38.82,-13.2
3.1872,-9.4117,1.0624,-0.12859,0.18418,-0.028711,-4.32,38.58,-13.32
3.1872,-9.4117,1.0624,-0.15852,0.30146,-0.080634,-4.32,38.58,-13.32
3.1054,-9.0303,1.1305,-0.14478,0.41692,-0.10537,-4.38,38.76,-13.14
3.1054,-9.0303,1.1305,-0.14478,0.41692,-0.10537,-4.38,38.76,-13.14
3.1054,-9.0303,1.1305,-0.13408,0.4383,-0.10049,-4.38,38.76,-13.14
3.4459,-9.2891,1.2803,-0.05681,0.1967,-0.039095,-4.08,38.88,-13.14
3.4187,-9.2482,1.0896,-0.026267,-0.072082,0.000916,-4.02,38.82,-13.14
3.2553,-9.2891,0.88532,-0.020464,-0.12126,0.0085521,-3.96,38.7,-13.32
3.1872,-9.2346,0.8036,-0.0079412,-0.10782,0.002138,-3.96,38.76,-13.44
3.1599,-9.2891,0.76274,-0.01405,-0.054367,-0.0036652,-3.9,38.82,-13.62
3.1599,-9.2346,0.8036,-0.033903,-0.0012217,-0.016493,-3.9,38.88,-13.56
3.1872,-9.1937,0.92618,-0.04948,0.054978,-0.02138,-3.96,39.0,-13.68
3.1191,-9.1665,0.89894,-0.060476,0.1014,-0.030238,-3.78,38.88,-13.74
3.1191,-9.1529,1.0488,-0.051313,0.14844,-0.036346,-3.84,38.88,-13.62
3.1463,-9.1529,1.1305,-0.043677,0.16707,-0.026573,-3.78,38.7,-13.86
3.1872,-9.1256,1.2395,-0.036346,0.1405,-0.022907,-3.78,38.64,-13.86
3.2961,-9.0848,1.2258,-0.021075,0.081245,-0.010079,-3.96,38.64,-13.92
3.2553,-9.0712,1.1577,-0.0012217,0.037874,-0.0085521,-3.96,38.64,-13.98
3.2825,-9.1256,1.1169,0.0018326,0.0085521,-0.000916,-3.9,38.64,-14.04
3.2008,-9.1665,1.0624,0.0058032,0.0073304,-0.0054978,-3.96,39.06,-14.04
3.2553,-9.2891,1.0351,0.0076358,0.026267,-0.0036652,-4.02,38.94,-14.16
3.2961,-9.3436,0.99429,-0.010996,0.025351,-0.022602,-4.08,38.94,-14.1
3.2144,-9.3844,1.0624,-0.014966,0.041233,-0.029932,-4.02,38.94,-13.86
3.1872,-9.2891,0.9398,-0.013439,0.068111,-0.038485,-3.96,39.06,-13.92
3.1191,-9.2482,0.99429,-0.010079,0.10721,-0.042455,-4.14,39.18,-13.86
3.1327,-9.2618,1.0896,-0.0088575,0.1014,-0.047953,-4.2,39.12,-13.86
3.2689,-9.2891,1.0896,-0.016799,0.08491,-0.029322,-4.2,39.24,-13.92
3.2961,-9.2755,1.0896,-0.02138,0.076969,-0.029627,-4.14,39.24,-14.1
3.2553,-9.1256,1.076,-0.019242,0.065973,-0.018326,-4.2,39.06,-13.98
3.3097,-9.0984,1.1169,-0.023518,0.073304,-0.026267,-4.26,39.06,-13.98
3.337,-9.1801,1.0351,-0.016799,0.074526,-0.024435,-4.44,39.12,-13.98
3.4187,-9.221,1.0624,-0.018021,0.043066,-0.032681,-4.44,38.82,-13.86
3.4323,-9.221,1.1032,-0.025045,0.023824,-0.040928,-4.38,39.0,-13.74
3.4323,-9.1937,1.0896,-0.021991,0.021686,-0.042455,-4.32,39.0,-13.68
3.4323,-9.2346,1.0896,-0.033903,0.016493,-0.051924,-4.5,39.0,-13.98
3.4459,-9.2346,1.1169,-0.03146,0.0042761,-0.051007,-4.62,38.88,-13.92
3.4323,-9.2891,1.0896,-0.043371,0.018937,-0.049786,-4.56,38.94,-13.98
3.4732,-9.2346,0.98067,-0.040928,0.0073304,-0.057421,-4.44,38.94,-14.04
3.4732,-9.2074,0.99429,-0.036346,0.0051924,-0.053145,-4.5,38.82,-13.98
3.4596,-9.2346,1.0896,-0.038179,-0.036346,-0.046731,-4.68,38.7,-13.8
3.3915,-9.1937,1.1169,-0.035125,-0.065363,-0.044593,-4.62,38.76,-13.8
3.3778,-9.1393,1.0488,-0.029016,-0.078802,-0.045204,-4.68,38.7,-13.62
3.2961,-9.1665,1.1577,-0.0281,-0.091324,-0.036652,-4.62,38.7,-13.62
3.2961,-9.1529,1.0896,-0.03146,-0.078191,-0.038179,-4.74,38.58,-13.62
3.3506,-9.1665,1.0896,-0.03207,-0.071471,-0.038485,-4.86,38.46,-13.68
3.337,-9.2346,1.1441,-0.036041,-0.062308,-0.039706,-5.1,38.46,-13.74
3.2825,-9.2482,1.0624,-0.043982,-0.036346,-0.041539,-5.04,38.34,-13.62
3.2825,-9.2074,1.0896,-0.039401,-0.030543,-0.042455,-5.04,38.34,-13.5
3.2825,-9.1937,1.076,-0.043371,-0.025962,-0.040928,-5.34,38.46,-13.68
3.3097,-9.1256,1.0624,-0.039095,-0.013744,-0.034514,-5.52,38.34,-13.68
3.2825,-9.0575,1.0215,-0.033903,-0.0079412,-0.03543,-5.46,38.28,-13.56
3.337,-9.0848,1.1305,-0.044288,0.025962,-0.023824,-5.46,38.28,-13.68
3.3642,-9.0848,1.0896,-0.050091,0.032987,-0.02474,-5.52,38.34,-13.62
3.3778,-9.0303,1.0896,-0.041539,0.045509,-0.018021,-5.58,38.16,-13.74
3.4868,-9.1529,1.185,-0.048869,0.054672,-0.018326,-5.76,38.16,-13.86
3.4732,-9.1256,1.2122,-0.045509,0.059254,-0.010385,-5.94,38.28,-13.86
3.4732,-9.3844,1.185,-0.041233,0.04948,-0.000916,-5.88,38.28,-13.98
3.5277,-9.5206,1.2531,-0.04215,0.019853,0.0082467,-6.0,38.22,-13.98
3.5277,-9.3844,1.2258,-0.032376,-0.020464,0.028405,-6.12,38.34,-13.86
3.5549,-9.2074,1.1032,-0.0076358,-0.10079,0.047953,-6.12,38.46,-13.98
3.4187,-8.826,0.9398,0.012217,-0.17074,0.070555,-6.06,38.22,-13.98
3.3778,-8.7987,0.8717,0.03879,-0.24832,0.083383,-6.0,38.34,-14.04
3.3097,-8.8396,0.81722,0.031765,-0.32101,0.099571,-6.18,38.46,-14.16
3.0237,-9.0848,0.8717,0.024129,-0.30299,0.10354,-6.18,38.58,-13.98
2.9965,-9.2074,0.95342,-0.0042761,-0.22907,0.10568,-6.24,38.58,-14.16
2.9965,-9.2482,0.99429,-0.048564,-0.034819,0.086132,-6.18,38.76,-14.16
3.1872,-9.2346,1.1305,-0.07422,0.099266,0.078191,-6.36,38.88,-14.28
3.3097,-9.1529,1.185,-0.072998,0.21166,0.052229,-6.24,38.76,-14.28
3.5277,-9.1256,1.185,-0.063835,0.21044,0.048258,-6.18,38.76,-14.16
3.6366,-9.0984,1.3484,-0.040623,0.16035,0.037263,-6.12,38.82,-14.1
3.6911,-9.0712,1.2667,-0.0048869,0.039095,0.035125,-6.12,38.76,-14.16
3.8137,-9.221,1.1441,0.01069,-0.025045,0.033292,-6.06,38.76,-14.28
3.6366,-9.1937,1.0079,0.023824,-0.07086,0.029932,-5.88,38.76,-14.28
3.5277,-9.221,0.9398,0.012828,-0.10171,0.019242,-5.94,38.7,-14.16
3.3778,-9.221,0.83084,-0.010996,-0.088575,0.013744,-6.06,38.76,-14.16
3.3642,-9.2482,0.76274,-0.024435,-0.043982,-0.002138,-5.94,38.58,-14.4
3.3642,-9.2346,0.8036,-0.023213,-0.024435,-0.0085521,-6.0,38.58,-14.46
3.337,-9.2482,0.95342,-0.050702,0.048869,-0.016799,-5.88,38.52,-14.46
3.3778,-9.1529,0.9398,-0.059254,0.058032,-0.023213,-5.82,38.4,-14.4
3.3778,-9.1529,1.1169,-0.057421,0.058338,-0.015272,-5.82,38.46,-14.4
3.337,-9.0848,1.1441,-0.054367,0.048869,-0.012523,-5.94,38.52,-14.46
3.337,-9.0984,1.2395,-0.057727,0.044899,-0.01069,-5.94,38.46,-14.64
3.3642,-9.0848,1.3076,-0.040012,0.059865,-0.0036652,-5.88,38.4,-14.76
3.5413,-9.1256,1.2258,-0.037874,0.046426,0.0042761,-5.88,38.4,-14.7
3.4187,-9.1393,1.2531,-0.020769,0.036346,0.0073304,-5.88,38.46,-14.64
3.4323,-9.1529,1.2395,-0.011606,0.036652,0.012523,-5.76,38.46,-14.64
3.4596,-9.1665,1.1169,-0.015272,0.036041,0.0097738,-5.64,38.46,-14.76
3.4187,-9.2618,1.0624,-0.014661,0.040928,0.012828,-5.7,38.58,-14.7
3.5277,-9.3163,1.0215,-0.012828,0.035125,0.013134,-5.58,38.58,-14.64
3.514,-9.1937,0.98067,-0.033903,0.025962,0.016188,-5.64,38.7,-14.58
3.4868,-9.1801,0.99429,-0.039401,0.018631,0.027794,-5.7,38.7,-14.58
3.514,-9.1665,0.91256,-0.043677,0.01741,0.027184,-5.58,38.58,-14.58
3.4323,-9.1665,1.0624,-0.049786,0.014355,0.034514,-5.7,38.52,-14.7
3.4732,-9.1393,1.1986,-0.050702,0.0082467,0.032987,-5.58,38.46,-14.64
3.4732,-9.1801,1.2531,-0.051313,-0.0067195,0.031765,-5.58,38.46,-14.58
3.4732,-9.1529,1.185,-0.044899,-0.021686,0.034208,-5.52,38.52,-14.7
3.4187,-9.1256,1.2395,-0.046426,-0.014661,0.040928,-5.7,38.52,-14.76
3.4732,-9.1665,1.1713,-0.036041,-0.018631,0.038485,-5.76,38.58,-14.82
3.4732,-9.1529,1.1441,-0.038485,-0.01405,0.047342,-5.82,38.4,-14.64
3.3915,-9.1393,1.0351,-0.03543,-0.011606,0.04215,-5.82,38.46,-14.58
3.4187,-9.1801,1.0351,-0.045204,-0.009163,0.044899,-5.88,38.52,-14.58
3.4459,-9.1937,1.0215,-0.043677,-0.013134,0.034819,-5.94,38.22,-14.64
3.4732,-9.112,0.99429,-0.054367,-0.011301,0.033903,-5.88,38.34,-14.46
3.4868,-9.1393,1.1032,-0.051924,-0.014661,0.032987,-5.94,38.52,-14.4
3.4732,-9.1393,1.0488,-0.059559,-0.013439,0.034514,-6.0,38.58,-14.52
3.4459,-9.1256,1.1577,-0.053145,-0.010079,0.034819,-5.88,38.64,-14.4
3.3915,-9.1256,1.0215,-0.047953,-0.0085521,0.030849,-5.88,38.7,-14.46
3.4732,-9.0984,1.1577,-0.053756,-0.015882,0.040928,-5.88,38.58,-14.4
3.4732,-9.1256,1.1305,-0.049175,-0.025962,0.039401,-5.94,38.52,-14.46
3.3778,-9.1529,1.0488,-0.048564,-0.034514,0.043066,-6.0,38.46,-14.34
3.4051,-9.1529,1.0351,-0.045509,-0.044288,0.040623,-6.0,38.4,-14.34
3.4051,-9.1256,0.99429,-0.04612,-0.033903,0.034208,-5.88,38.4,-14.34
3.3097,-9.221,1.0215,-0.053451,-0.032376,0.03543,-5.76,38.22,-14.22
3.3506,-9.2074,0.96704,-0.043982,-0.014966,0.034208,-5.76,38.28,-14.22
3.3642,-9.1937,1.0215,-0.053756,0.0082467,0.031765,-5.76,38.28,-14.28
3.3778,-9.1937,1.1441,-0.060476,0.021686,0.033598,-5.76,38.16,-14.46
3.4187,-9.1256,1.1305,-0.053145,0.029322,0.029322,-5.7,38.04,-14.28
3.3915,-9.1393,1.0624,-0.045509,0.036652,0.029322,-5.64,38.22,-14.1
3.4187,-9.112,1.0215,-0.045815,0.036346,0.026267,-5.7,38.04,-14.16
3.4187,-9.1256,1.0896,-0.03879,0.027184,0.033903,-5.58,38.04,-14.04
3.4051,-9.0984,1.185,-0.045815,0.012523,0.044593,-5.46,38.04,-14.16
3.4051,-9.0848,1.0896,-0.037874,-0.0042761,0.036652,-5.28,38.16,-14.04
3.4187,-9.0848,1.1032,-0.039706,0.0036652,0.037874,-5.28,38.28,-13.98
3.5004,-9.0848,1.185,-0.036957,0.000611,0.033903,-5.4,38.34,-14.16
3.5004,-9.1529,1.076,-0.033292,-0.011912,0.027184,-5.64,38.4,-14.16
3.4732,-9.1529,1.0896,-0.028405,-0.049786,0.026573,-5.46,38.46,-14.16
3.4596,-9.1665,1.0488,-0.027184,-0.066279,0.025045,-5.4,38.4,-14.16
3.4323,-9.1665,0.99429,-0.034514,-0.060476,0.022602,-5.28,38.4,-14.16
3.3915,-9.1801,1.1032,-0.0281,-0.037874,0.021686,-5.34,38.52,-14.16
3.3778,-9.1529,1.076,-0.025962,0.014661,0.015577,-5.52,38.58,-14.16
3.4323,-9.1393,1.0896,-0.029932,0.029932,0.019853,-5.58,38.64,-13.98
3.4459,-9.1529,1.1577,-0.032681,0.035125,0.009163,-5.64,38.7,-13.98
3.4732,-9.1256,1.076,-0.034819,0.01741,0.0054978,-5.64,38.64,-13.68
3.5413,-9.1529,0.83084,-0.045509,0.0015272,-0.000305,-5.64,38.64,-13.86
3.5277,-9.1393,0.98067,-0.041539,-0.018326,-0.002138,-5.7,38.7,-13.62
3.4868,-9.0984,1.0624,-0.028711,-0.039401,0.0054978,-5.64,38.76,-13.74
3.4187,-9.1665,1.0624,-0.031765,-0.06353,-0.0042761,-5.64,38.76,-13.74
3.4323,-9.1937,1.0079,-0.0281,-0.065057,0.0033598,-5.64,38.64,-13.74
3.4051,-9.1937,0.99429,-0.026267,-0.058338,-0.000916,-5.7,38.82,-13.62
3.3778,-9.1256,1.0624,-0.0281,-0.040317,-0.0039706,-5.7,38.82,-13.86
3.3097,-9.1256,1.0215,-0.026573,-0.036957,-0.0064141,-5.52,38.82,-13.92
3.4323,-9.1529,1.0215,-0.030849,-0.026573,0.0079412,-5.22,38.46,-14.1
3.5004,-9.1801,1.0624,-0.026267,-0.040623,0.0051924,-5.1,38.58,-14.16
3.4732,-9.1937,1.0215,-0.029016,-0.049175,0.0042761,-4.98,38.58,-14.22
3.4459,-9.112,0.98067,-0.032681,-0.039706,0.0067195,-5.1,38.58,-14.22
3.4596,-9.0439,1.0896,-0.026878,-0.040928,0.0024435,-4.98,38.76,-14.16
3.3915,-9.2346,1.0215,-0.025962,-0.041844,0.0015272,-4.98,38.64,-14.1
3.3915,-9.0575,0.99429,-0.032987,-0.022602,-0.0030543,-5.04,38.58,-14.28
3.3234,-9.112,0.98067,-0.026573,-0.0076358,0.000305,-4.98,38.4,-14.28
3.4323,-9.1937,0.96704,-0.021991,-0.0058032,0.0030543,-5.1,38.46,-14.22
3.4187,-9.221,0.8717,-0.03879,-0.010079,0.013439,-5.1,38.52,-14.16
3.4051,-9.1529,1.0351,-0.041539,-0.01069,0.0088575,-5.28,38.52,-13.98
3.4323,-9.1256,1.0215,-0.0281,-0.015272,0.0094684,-5.4,38.46,-13.92
3.4323,-9.1801,1.0351,-0.025351,0.0058032,0.010385,-5.46,38.52,-13.68
3.4732,-9.2074,1.0215,-0.027794,0.028405,0.010996,-5.58,38.52,-13.68
3.4187,-9.1665,1.0215,-0.027794,0.037568,0.0079412,-5.7,38.52,-13.62
3.3642,-9.1529,0.9398,-0.033903,0.052229,0.0027489,-5.64,38.4,-13.68
3.4187,-9.1393,1.0215,-0.032376,0.065363,0.0058032,-5.88,38.16,-13.56
3.5004,-9.1529,0.95342,-0.036652,0.057727,0.0064141,-5.94,38.22,-13.62
3.5413,-9.1665,1.0215,-0.031765,0.041539,0.0085521,-5.88,38.16,-13.5
3.5413,-9.1801,1.076,-0.034819,0.034819,0.0079412,-5.82,38.34,-13.74
3.4732,-9.1529,1.0624,-0.033903,0.027794,0.0088575,-5.76,38.34,-13.68
3.5277,-9.2074,1.1305,-0.03543,0.02138,0.0027489,-5.64,38.28,-13.74
3.4732,-9.1665,1.1032,-0.036041,0.002138,0.0097738,-5.52,38.22,-13.86
3.5549,-9.1529,1.0215,-0.038179,-0.018326,0.0073304,-5.52,38.22,-13.98
3.5549,-9.1665,1.0351,-0.034819,-0.018326,0.0094684,-5.64,38.28,-14.04
3.514,-9.0848,1.0624,-0.025962,-0.016799,0.012523,-5.58,38.4,-14.16
3.4323,-9.0848,1.0488,-0.033598,-0.012217,0.016188,-5.52,38.34,-14.22
3.4732,-9.112,1.076,-0.029932,-0.000611,0.016493,-5.34,38.4,-14.28
3.5277,-9.0712,1.1169,-0.032376,-0.0024435,0.017104,-5.34,38.46,-14.34
3.5549,-9.1393,0.9398,-0.028711,-0.009163,0.016188,-5.28,38.46,-14.4
3.514,-9.1256,1.0896,-0.035125,-0.015272,0.017104,-5.28,38.46,-14.4
3.4732,-9.0984,1.1305,-0.037263,-0.015577,0.01741,-5.34,38.46,-14.28
3.4732,-9.1256,1.1577,-0.032681,-0.025962,0.014355,-5.46,38.46,-14.34
3.4732,-9.1393,1.0896,-0.027489,-0.040317,0.013439,-5.52,38.52,-14.34
3.5004,-9.1256,1.1305,-0.019242,-0.036957,0.013744,-5.58,38.52,-14.28
3.5004,-9.0984,0.99429,-0.034819,-0.032987,0.014966,-5.76,38.46,-14.34
3.4459,-9.1529,1.0488,-0.028711,-0.030238,0.014661,-5.76,38.46,-14.34
3.4187,-9.1256,1.0896,-0.03543,-0.019548,0.020769,-5.82,38.46,-14.22
3.4868,-9.1256,1.0215,-0.025351,-0.01741,0.018326,-5.76,38.52,-14.28
3.4596,-9.1529,1.0624,-0.03543,-0.002138,0.016493,-5.94,38.46,-14.34
3.5004,-9.2074,1.1577,-0.036957,-0.002138,0.029322,-5.88,38.4,-14.34
3.4732,-9.1393,1.0624,-0.03207,-0.0058032,0.018631,-5.94,38.46,-14.52
3.4868,-9.0848,1.0488,-0.027794,-0.019853,0.027794,-5.88,38.52,-14.52
3.4596,-9.1256,1.0215,-0.034514,-0.018021,0.018631,-5.88,38.64,-14.58
3.5413,-9.1529,1.1169,-0.025045,-0.007025,0.020464,-5.82,38.64,-14.7
3.5004,-9.1256,1.0624,-0.026878,-0.0045815,0.01405,-5.76,38.52,-14.64
3.5004,-9.1529,1.1032,-0.028405,-0.016799,0.010079,-5.76,38.4,-14.58
3.5004,-9.0575,1.0896,-0.030849,-0.036346,0.015882,-5.7,38.46,-14.52
3.4732,-9.1801,1.0351,-0.03146,-0.061087,0.020464,-5.64,38.46,-14.46
3.4187,-9.1665,1.1032,-0.039095,-0.069028,0.024129,-5.64,38.4,-14.58
3.3915,-9.1937,1.0215,-0.039706,-0.056505,0.025351,-5.7,38.34,-14.7
3.3642,-9.1665,1.0896,-0.026267,-0.023824,0.028711,-5.64,38.46,-14.7
3.3778,-9.1393,1.1169,-0.025351,-0.012217,0.021075,-5.76,38.52,-14.76
3.4732,-9.1937,1.0624,-0.037263,-0.0015272,0.034819,-5.7,38.52,-14.76
3.4187,-9.0848,1.1441,-0.032681,0.0067195,0.033903,-5.76,38.34,-14.7
3.4596,-9.1937,1.076,-0.038179,0.013439,0.036652,-5.64,38.28,-14.82
3.4596,-9.1801,1.0488,-0.038485,0.0045815,0.034514,-5.7,38.28,-14.7
3.4187,-9.0848,1.0351,-0.035125,-0.0030543,0.040317,-5.7,38.34,-14.88
3.4323,-9.1393,1.0215,-0.033598,-0.011301,0.040012,-5.7,38.46,-14.88
3.4596,-9.1393,0.91256,-0.03879,-0.011912,0.043982,-5.64,38.34,-14.82
3.4187,-9.1393,1.0624,-0.044899,-0.015272,0.044288,-5.58,38.34,-14.82
3.4459,-9.112,1.0079,-0.039095,-0.013134,0.048564,-5.64,38.4,-14.76
3.514,-9.1937,1.1441,-0.043982,0.0045815,0.036652,-5.7,38.52,-14.7
3.4459,-9.2074,1.185,-0.03543,0.0045815,0.041844,-5.76,38.52,-14.7
3.4868,-9.1529,1.1032,-0.039095,0.0018326,0.03879,-5.76,38.64,-14.64
3.4187,-9.1801,1.0624,-0.040928,0.0048869,0.041233,-5.82,38.7,-14.7
3.4459,-9.1937,1.0215,-0.034208,0.0036652,0.035125,-5.88,38.82,-14.76
3.4596,-9.1256,1.0624,-0.039401,0.000611,0.03543,-5.82,38.76,-14.64
3.5277,-9.0848,1.0624,-0.037263,0.0033598,0.029016,-5.94,38.88,-14.52
3.4187,-9.1256,1.0215,-0.040623,-0.0027489,0.031765,-6.0,38.88,-14.4
3.4868,-9.1801,1.0351,-0.040623,0.0076358,0.026573,-6.06,38.82,-14.28
3.4868,-9.221,1.1305,-0.045509,-0.0048869,0.030543,-6.12,38.88,-14.22
3.3915,-9.1393,1.0351,-0.048258,-0.021686,0.027184,-6.18,38.94,-14.28
3.4732,-9.1256,0.95342,-0.048258,-0.021686,0.033598,-6.18,38.94,-14.4
3.4187,-9.112,1.0488,-0.039706,-0.018021,0.031154,-6.18,38.94,-14.28
3.3778,-9.1937,1.0896,-0.03207,-0.0082467,0.026573,-5.88,39.0,-14.22
3.4187,-9.1801,1.0351,-0.035736,-0.0048869,0.027794,-5.7,38.88,-14.1
3.3506,-9.1665,1.0215,-0.040623,0.0036652,0.018631,-5.64,38.76,-14.1
3.4187,-9.1801,0.96704,-0.040928,0.010385,0.027794,-5.58,38.88,-14.1
3.3915,-9.1256,0.96704,-0.041233,0.01405,0.027794,-5.58,38.94,-14.16
3.4459,-9.1393,0.9398,-0.039706,0.01741,0.020464,-5.46,38.7,-14.28
3.3915,-9.1937,1.0215,-0.027184,0.029016,0.015272,-5.46,38.76,-14.16
3.3915,-9.2074,1.0351,-0.035125,0.027489,0.02138,-5.4,38.76,-14.34
3.4187,-9.1801,1.1169,-0.050702,0.030238,0.016188,-5.4,38.7,-14.46
3.4323,-9.2074,1.0624,-0.047953,0.022907,0.022907,-5.34,38.58,-14.58
3.3915,-9.1256,1.1169,-0.043371,0.01741,0.01741,-5.28,38.58,-14.4
3.4187,-9.1801,1.0624,-0.035736,0.014661,0.019853,-5.28,38.4,-14.52
3.4323,-9.0575,1.0215,-0.03879,0.014355,0.018631,-5.4,38.4,-14.46
3.4459,-9.1393,1.076,-0.040623,0.016493,0.015882,-5.46,38.4,-14.58
3.3506,-9.1937,1.0624,-0.042761,0.033292,0.018021,-5.46,38.4,-14.58
3.4187,-9.1801,1.0351,-0.043677,0.032376,0.014355,-5.22,38.34,-14.52
3.4732,-9.1529,1.0624,-0.047953,0.024129,0.020159,-5.4,38.28,-14.52
3.4732,-9.1529,1.1032,-0.03543,0.0061087,0.025351,-5.34,38.4,-14.52
3.4459,-9.1256,1.0215,-0.035736,0.000305,0.012523,-5.28,38.58,-14.4
3.3506,-9.1801,0.9398,-0.036652,-0.0048869,0.0079412,-5.22,38.64,-14.4
3.3506,-9.0848,0.99429,-0.038485,-0.0061087,0.010079,-5.22,38.64,-14.46
3.4596,-9.1937,1.0488,-0.036041,-0.0051924,0.0097738,-5.28,38.64,-14.4
3.4187,-9.2755,1.0624,-0.03207,0.0094684,0.014661,-5.28,38.52,-14.46
3.3915,-9.1937,1.1032,-0.041844,0.034514,0.0054978,-5.28,38.52,-14.46
3.3506,-9.221,1.0624,-0.041844,0.054978,0.014966,-5.22,38.46,-14.64
3.4459,-9.2618,0.99429,-0.045204,0.048564,0.015577,-5.46,38.58,-14.52
3.5004,-9.221,1.0624,-0.039706,0.041844,0.011301,-5.46,38.52,-14.46
3.4051,-9.1256,1.076,-0.042761,0.011301,0.0045815,-5.64,38.58,-14.34
3.4459,-9.0848,1.0079,-0.042761,-0.0064141,0.013134,-5.58,38.4,-14.46
3.3778,-9.0848,1.1305,-0.043677,-0.0064141,0.013134,-5.58,38.4,-14.46
3.4323,-9.1529,0.99429,-0.036957,-0.0045815,0.01405,-5.46,37.98,-14.64
3.3778,-9.112,1.0351,-0.029322,0.0048869,0.014661,-5.58,37.92,-14.64
3.5004,-9.1665,1.0079,-0.040317,0.018326,0.014661,-5.58,37.92,-14.64
3.4187,-9.1529,1.0488,-0.046426,0.021075,0.020769,-5.58,37.98,-14.7
3.4459,-9.1937,1.0079,-0.040012,0.020769,0.015882,-5.64,37.92,-14.7
3.5004,-9.1256,1.0215,-0.047037,0.025351,0.015272,-5.76,37.92,-14.7
3.3915,-9.1393,0.96704,-0.040623,0.031154,0.0030543,-5.76,37.92,-14.82
3.4459,-9.1529,1.0351,-0.036957,0.024435,0.0048869,-5.76,37.98,-14.64
3.4732,-9.1529,1.0079,-0.034208,0.021075,0.010996,-5.58,37.92,-14.7
3.5004,-9.221,1.0079,-0.030849,0.019853,-0.0018326,-5.52,37.8,-14.88
3.4459,-9.1937,1.0896,-0.036041,0.014661,0.0054978,-5.52,37.92,-14.82
3.4868,-9.1256,1.1441,-0.032376,0.013134,0.0085521,-5.58,38.1,-14.76
3.4323,-9.1529,1.0896,-0.036041,0.0018326,0.007025,-5.64,38.34,-14.82
3.3778,-9.1801,1.0351,-0.037568,0.0085521,0.0097738,-5.7,38.34,-14.7
3.3506,-9.1529,1.0351,-0.031765,0.011912,0.013744,-5.58,38.4,-14.58
3.4459,-9.1665,1.0624,-0.035736,0.018326,0.013439,-5.64,38.52,-14.58
3.4868,-9.0848,0.98067,-0.031154,0.018937,0.016493,-5.76,38.4,-14.58
3.4187,-9.1256,1.1169,-0.029322,0.010996,0.013134,-5.76,38.64,-14.58
3.4459,-9.112,1.1305,-0.029016,-0.002138,0.015272,-5.76,38.82,-14.4
3.4459,-9.1256,1.1169,-0.036041,-0.011606,0.013134,-5.82,38.82,-14.52
3.3915,-9.1529,1.0079,-0.03207,-0.013744,0.010385,-5.88,38.82,-14.46
3.3778,-9.1256,1.0215,-0.024129,-0.000916,0.01069,-5.64,39.0,-14.4
3.4323,-9.1529,0.99429,-0.028711,0.011606,0.018326,-5.76,38.94,-14.28
3.3915,-9.1529,1.1169,-0.026267,0.0082467,0.022297,-5.7,38.82,-14.28
3.4323,-9.0848,1.1169,-0.028405,-0.0039706,0.020159,-5.82,38.64,-14.22
3.4459,-9.221,1.0624,-0.031765,0.002138,0.025962,-5.94,38.64,-14.28
3.4187,-9.221,1.0351,-0.025045,-0.000611,0.02474,-5.82,38.7,-14.4
3.3915,-9.1256,1.0215,-0.03146,-0.0067195,0.016493,-5.76,38.52,-14.1
3.337,-9.1665,1.0215,-0.032987,-0.0018326,0.015577,-5.7,38.64,-13.98
3.3506,-9.1529,1.1032,-0.026573,0.0054978,0.022907,-5.58,38.58,-13.98
3.4187,-9.0848,0.98067,-0.029016,0.031765,0.023518,-5.58,38.52,-14.04
3.4868,-9.1256,1.0896,-0.036957,0.016799,0.037263,-5.64,38.58,-13.92
3.514,-9.1393,1.2122,-0.029322,0.010079,0.03543,-5.58,38.58,-13.98
3.4187,-9.1529,1.1305,-0.019548,-0.0097738,0.046731,-5.76,38.4,-14.04
3.4051,-9.1256,1.1441,-0.026878,-0.011606,0.04215,-5.7,38.34,-14.16
3.4051,-9.1937,1.185,-0.023518,-0.0012217,0.031765,-5.58,38.34,-14.16
3.4459,-9.1529,1.0215,-0.029932,-0.0051924,0.025962,-5.7,38.46,-14.34
3.4187,-9.1529,1.0488,-0.032376,-0.0042761,0.026573,-5.58,38.52,-14.4
3.4732,-9.1393,1.0896,-0.030849,-0.0054978,0.029932,-5.7,38.46,-14.28
3.4187,-9.1393,1.0896,-0.033903,-0.010996,0.031154,-5.7,38.52,-14.28
3.3506,-9.1801,1.0896,-0.033598,0.0051924,0.026878,-5.64,38.58,-14.52
3.3778,-9.2346,1.0896,-0.036652,0.01405,0.021075,-5.64,38.52,-14.52
3.4323,-9.1937,1.1169,-0.041844,0.014661,0.016493,-5.52,38.64,-14.52
3.4051,-9.1937,1.076,-0.042761,0.0097738,0.025962,-5.52,38.58,-14.52
3.4868,-9.2346,1.0079,-0.044899,0.0067195,0.021075,-5.58,38.64,-14.4
3.3915,-9.1256,1.0624,-0.036652,0.013134,0.018021,-5.46,38.76,-14.4
3.3234,-9.1256,1.1577,-0.040623,0.0085521,0.022297,-5.58,38.7,-14.34
3.4187,-9.1801,1.0215,-0.04215,0.0015272,0.022602,-5.7,38.58,-14.34
3.337,-9.2074,1.076,-0.051618,-0.0024435,0.033292,-5.52,38.4,-14.16
3.2961,-9.1529,1.0488,-0.051313,0.0033598,0.025656,-5.58,38.4,-14.16
3.4323,-9.1529,1.0351,-0.036346,0.0064141,0.021991,-5.46,38.28,-14.1
3.3642,-9.1801,1.0215,-0.041233,0.023518,0.016188,-5.34,38.22,-13.92
3.4187,-9.1529,1.1169,-0.047342,0.018021,0.021686,-5.4,38.28,-13.92
3.4868,-9.1529,1.1713,-0.045204,0.013744,0.012217,-5.46,38.28,-13.98
3.4732,-9.1937,1.1441,-0.048258,0.0067195,0.020464,-5.52,38.22,-13.98
3.5004,-9.1393,1.0624,-0.038179,-0.012217,0.017715,-5.4,38.04,-13.98
3.4732,-9.1937,1.185,-0.040623,-0.022297,0.02138,-5.34,37.98,-14.1
3.3778,-9.1665,0.99429,-0.033292,-0.029016,0.014661,-5.28,38.16,-13.92
3.3506,-9.1801,1.0215,-0.039401,-0.013744,0.018326,-5.16,38.16,-13.92
3.3506,-9.1256,1.0215,-0.044288,0.01069,0.020464,-5.22,38.28,-14.04
3.4459,-9.1256,1.1169,-0.047647,0.014355,0.010996,-5.34,38.64,-14.1
3.3642,-9.1529,0.99429,-0.045204,0.0054978,0.020159,-5.1,38.58,-13.98
3.3778,-9.1801,1.0896,-0.046731,0.0033598,0.016493,-5.28,38.76,-14.1
3.4732,-9.1256,1.0215,-0.035125,-0.01069,0.014661,-5.34,38.7,-14.22
3.3778,-9.1665,1.0896,-0.033292,-0.026573,0.010996,-5.28,38.7,-14.22
3.3642,-9.1529,1.1032,-0.045815,-0.039095,0.018326,-5.28,38.64,-14.22
3.3778,-9.1937,1.1305,-0.034819,-0.028711,0.012523,-5.16,38.64,-14.46
3.2825,-9.0984,0.91256,-0.03879,-0.000305,0.018021,-5.22,38.64,-14.4
3.3097,-9.1801,1.0624,-0.026267,0.010385,0.018631,-5.22,38.64,-14.4
3.3234,-9.1937,1.0351,-0.039401,0.013134,0.026267,-5.16,38.52,-14.4
3.3778,-9.1529,1.0488,-0.041233,0.007025,0.031154,-5.16,38.46,-14.46
3.4323,-9.1393,1.1169,-0.038485,-0.0054978,0.030849,-5.22,38.52,-14.34
3.4323,-9.1665,1.1713,-0.036346,-0.013134,0.022602,-5.04,38.46,-14.22
3.4187,-9.1801,1.0624,-0.032987,-0.017715,0.014661,-5.1,38.28,-14.46
3.4051,-9.1393,1.1169,-0.037874,-0.0079412,0.018326,-5.04,38.34,-14.34
3.4459,-9.1665,1.076,-0.036957,-0.0097738,0.0058032,-4.98,38.4,-14.4
3.3778,-9.1801,1.0215,-0.037263,-0.016188,0.014355,-4.92,38.46,-14.28
3.3642,-9.1256,1.0215,-0.034208,-0.009163,0.015272,-4.92,38.4,-14.34
3.3778,-9.1256,1.0215,-0.038179,-0.009163,0.019548,-4.98,38.28,-14.16
3.4187,-9.1801,1.0488,-0.04215,-0.0036652,0.0067195,-5.1,38.4,-14.1
3.4187,-9.1393,1.0896,-0.032376,0.0012217,0.016188,-5.1,38.46,-14.04
3.3915,-9.1801,1.1032,-0.025962,-0.0039706,0.010996,-5.04,38.52,-13.98
3.4187,-9.1529,1.076,-0.033292,-0.0033598,0.015882,-5.1,38.52,-14.1
3.4187,-9.112,1.0488,-0.036652,0.0015272,0.023213,-5.1,38.52,-14.1
3.3642,-9.0848,1.0351,-0.033903,0.0012217,0.020159,-5.16,38.52,-14.04
3.3778,-9.1529,1.0624,-0.03146,0.0045815,0.018021,-5.28,38.52,-13.86
3.514,-9.1393,1.0215,-0.042761,0.011912,0.0094684,-5.28,38.52,-13.86
3.4187,-9.1937,1.0488,-0.036041,0.013134,0.0039706,-5.34,38.52,-14.04
3.4732,-9.2482,1.0488,-0.048258,0.012828,0.0054978,-5.34,38.58,-14.1
3.3506,-9.1529,0.99429,-0.042761,0.015577,0.011606,-5.4,38.7,-13.98
3.4459,-9.1937,1.0624,-0.040317,0.011301,0.0097738,-5.4,38.82,-14.16
3.4323,-9.1665,0.92618,-0.041539,0.0045815,0.011606,-5.34,38.76,-14.1
3.4459,-9.1529,1.0215,-0.046426,0.000611,0.010079,-5.4,38.76,-14.16
3.4187,-9.1256,0.96704,-0.037874,-0.0064141,0.014355,-5.58,38.64,-14.16
3.4459,-9.1937,1.0624,-0.038485,-0.012828,0.0088575,-5.64,38.64,-14.28
3.337,-9.1937,1.0215,-0.045509,-0.0058032,0.010996,-5.46,38.58,-13.98
3.4596,-9.1393,1.1032,-0.036346,0.0015272,0.013744,-5.58,38.46,-14.1
3.4868,-9.1393,1.0896,-0.046731,0.0012217,0.015882,-5.52,38.64,-14.1
3.4459,-9.2074,1.076,-0.041539,0.0033598,0.0079412,-5.58,38.64,-14.16
3.4323,-9.1529,1.0624,-0.038485,-0.000916,0.010385,-5.46,38.46,-13.92
3.4732,-9.1393,1.076,-0.039401,-0.0067195,0.0012217,-5.46,38.4,-14.16
3.337,-9.1529,1.0215,-0.047647,-0.002138,-0.0024435,-5.46,38.28,-14.28
3.4459,-9.1393,0.99429,-0.038485,0.0079412,0.002138,-5.22,38.34,-14.22
3.4732,-9.1529,0.99429,-0.040317,0.014966,0.011301,-5.22,38.4,-14.22
3.4323,-9.0984,1.0624,-0.045204,0.0015272,0.0030543,-5.22,38.52,-14.04
3.4051,-9.221,0.99429,-0.039401,0.0027489,0.0064141,-5.22,38.46,-14.28
3.4732,-9.1529,1.0351,-0.040928,0.0012217,0.011301,-5.1,38.46,-14.4
3.5277,-9.1937,0.99429,-0.051618,-0.0030543,0.0048869,-5.16,38.52,-14.52
3.4459,-9.0575,1.0488,-0.043677,-0.0048869,0.0051924,-5.28,38.34,-14.34
3.3915,-9.1256,0.96704,-0.037874,0.010079,0.0024435,-5.04,38.4,-14.28
3.4323,-9.1529,1.1169,-0.032987,0.024129,0.014661,-5.28,38.22,-14.1
3.4459,-9.112,1.0896,-0.039401,0.017715,0.026573,-5.34,37.98,-14.04
3.4459,-9.0984,1.076,-0.040317,0.011301,0.030543,-5.28,37.98,-14.1
3.514,-9.0984,1.1169,-0.038485,-0.018021,0.024435,-5.22,37.98,-14.16
3.4459,-9.1393,0.99429,-0.033903,-0.021686,0.027489,-5.22,38.1,-14.04
3.4323,-9.1256,1.0215,-0.02474,-0.0045815,0.018021,-5.28,38.04,-13.86
3.4459,-9.1256,1.076,-0.030238,0.01069,0.01405,-5.4,37.86,-13.92
3.4459,-9.112,0.98067,-0.034819,0.01741,0.022602,-5.4,37.98,-14.04
3.4732,-9.1256,1.0624,-0.033598,0.0073304,0.027489,-5.4,37.8,-14.1
3.514,-9.1256,1.1169,-0.023213,0.0030543,0.027184,-5.52,37.8,-14.16
3.4596,-9.112,1.0351,-0.026267,0.0094684,0.0281,-5.34,37.98,-14.22
3.4732,-9.1256,1.1032,-0.016799,0.0067195,0.022907,-5.22,38.1,-14.22
3.5277,-9.1529,1.1305,-0.012828,0.0012217,0.028711,-5.22,37.98,-14.28
3.4596,-9.1256,1.076,-0.019548,0.002138,0.029322,-5.22,37.92,-14.28
3.4459,-9.1937,1.0896,-0.023824,0.0054978,0.03543,-5.22,38.16,-14.22
3.4732,-9.112,1.0215,-0.036652,-0.0076358,0.028711,-5.16,38.04,-14.04
3.5004,-9.1256,1.1169,-0.032376,-0.019853,0.025962,-5.1,38.04,-14.16
3.4323,-9.112,1.0488,-0.029322,-0.018937,0.03146,-5.1,38.16,-14.04
3.3778,-9.1801,0.99429,-0.027489,-0.013134,0.037874,-5.28,38.28,-13.98
3.3778,-9.1937,1.0079,-0.03207,-0.0067195,0.032681,-5.34,38.28,-13.98
3.4187,-9.1529,1.1169,-0.03543,0.013134,0.043371,-5.28,38.22,-13.98
3.4732,-9.1665,1.0624,-0.040012,0.013439,0.037568,-5.46,38.34,-14.16
3.4732,-9.0984,1.0896,-0.033903,0.012217,0.027794,-5.34,38.28,-14.1
3.4323,-9.1256,1.0624,-0.036346,0.0079412,0.027184,-5.4,38.1,-14.22
3.4732,-9.0984,1.1169,-0.034514,0.0061087,0.029627,-5.46,38.28,-14.22
3.3915,-9.1529,1.0896,-0.040928,0.0082467,0.029322,-5.46,38.4,-14.4
3.3778,-9.1256,1.0215,-0.035125,0.0079412,0.033598,-5.34,38.28,-14.46
3.4596,-9.1801,1.0215,-0.037568,0.009163,0.020769,-5.28,38.22,-14.4
3.3097,-9.1529,1.0488,-0.033598,0.02138,0.02474,-4.92,38.22,-14.28
3.4051,-9.1937,1.0896,-0.033903,0.036957,0.019242,-5.1,38.34,-14.22
3.4459,-9.221,1.0896,-0.038485,0.022602,0.017715,-4.92,38.1,-14.1
3.4732,-9.221,1.1305,-0.039706,0.011606,0.025656,-4.92,38.1,-14.34
3.4459,-9.1393,1.1305,-0.040012,-0.0042761,0.022907,-4.92,38.34,-14.22
3.4323,-9.1529,1.1305,-0.039095,-0.020769,0.018021,-4.74,38.16,-14.34
3.3642,-9.1529,1.0896,-0.040623,-0.019548,0.018631,-4.86,38.16,-14.28
3.4051,-9.1393,1.0896,-0.036041,-0.016188,0.013439,-4.92,38.28,-14.16
3.3234,-9.1256,1.0215,-0.034514,-0.01069,0.011606,-4.92,38.46,-14.28
3.2825,-9.1937,1.1169,-0.037568,-0.0042761,0.018631,-5.1,38.4,-14.28
3.3642,-9.221,1.1032,-0.041539,0.0097738,0.021686,-5.16,38.22,-14.46
3.3234,-9.1256,1.0896,-0.046426,0.016188,0.022907,-5.1,38.34,-14.58
3.3234,-9.1256,1.1169,-0.041233,0.025656,0.022907,-5.16,38.34,-14.64
3.4459,-9.1665,1.0624,-0.032376,0.032681,0.015272,-5.22,38.4,-14.46
3.4732,-9.1393,1.0896,-0.026878,0.036346,0.019548,-5.28,38.34,-14.46
3.4732,-9.1665,1.0896,-0.028405,0.020159,0.009163,-5.34,38.34,-14.34
3.514,-9.1529,1.1169,-0.024435,0.010996,0.014355,-5.34,38.34,-14.22
3.4868,-9.1529,1.1169,-0.040012,-0.0079412,0.0067195,-5.22,38.34,-14.04
3.4187,-9.0303,1.0215,-0.036041,-0.023518,-0.0042761,-5.34,38.34,-14.04
3.3778,-9.0848,1.0896,-0.03879,-0.016188,-0.007025,-5.46,38.52,-13.74
3.3778,-9.1256,1.076,-0.026267,-0.0076358,-0.0082467,-5.46,38.4,-13.5
3.4051,-9.1801,1.0079,-0.029322,0.007025,-0.0042761,-5.46,38.4,-13.56
3.4187,-9.2074,1.0624,-0.041844,0.015882,0.0027489,-5.64,38.46,-13.8
3.3915,-9.1937,1.0624,-0.040928,0.0051924,0.0088575,-5.58,38.34,-13.74
3.4187,-9.1937,1.0624,-0.036346,0.0051924,0.0039706,-5.52,38.4,-13.8
3.4323,-9.1801,1.185,-0.039706,0.0045815,-0.000611,-5.58,38.46,-13.86
3.4187,-9.1393,1.076,-0.040012,-0.0036652,0.0064141,-5.52,38.52,-13.92
3.4187,-9.1393,1.0896,-0.035736,-0.018631,0.010079,-5.52,38.46,-13.86
3.3778,-9.1665,1.0624,-0.045509,-0.027489,0.015272,-5.46,38.4,-13.92
3.337,-9.1937,1.076,-0.038179,-0.02474,0.01069,-5.4,38.4,-14.1
3.4187,-9.1665,1.1441,-0.036957,-0.009163,0.0067195,-5.28,38.4,-14.1
3.3915,-9.1529,1.0488,-0.047647,0.0058032,0.0036652,-5.16,38.34,-14.28
3.4459,-9.1801,1.0215,-0.043677,0.013134,0.0039706,-5.16,38.34,-14.16
3.4459,-9.1529,0.95342,-0.040623,0.011301,0.009163,-5.1,38.46,-14.16
3.514,-9.1665,1.0624,-0.046426,0.0061087,0.019242,-5.1,38.28,-14.16
3.4732,-9.0575,1.0488,-0.045204,-0.014966,0.022602,-4.92,38.28,-14.1
3.3778,-9.1393,1.0624,-0.039095,-0.033903,0.022602,-5.1,38.28,-14.04
3.4187,-9.1665,1.0351,-0.034819,-0.043066,0.01405,-5.04,38.4,-14.04
3.3778,-9.1665,1.0079,-0.031154,-0.040317,0.0051924,-5.16,38.34,-14.22
3.4187,-9.1529,0.96704,-0.041233,-0.027794,0.0076358,-5.52,38.52,-14.28
3.4323,-9.1937,1.0488,-0.045815,-0.0088575,0.011606,-5.58,38.52,-14.16
3.3506,-9.112,1.0488,-0.045815,0.012523,0.017104,-5.64,38.34,-14.16
3.3097,-9.2482,1.0624,-0.044593,0.033903,0.0079412,-5.76,38.34,-14.16
3.4459,-9.221,1.0351,-0.058338,0.044288,0.011912,-5.7,38.22,-14.16
3.3915,-9.1937,1.0351,-0.057421,0.029932,0.0085521,-5.76,38.22,-14.28
3.3778,-9.0984,1.0624,-0.064141,0.023518,0.020159,-5.88,38.22,-14.46
3.4187,-9.1529,0.98067,-0.054062,0.01405,0.024435,-6.0,38.1,-14.58
3.3915,-9.221,0.96704,-0.055283,0.0088575,0.037263,-6.06,38.1,-14.7
3.4187,-9.221,0.99429,-0.049786,0.0012217,0.026267,-6.0,38.16,-14.58
3.337,-9.2074,1.1169,-0.051618,0.020769,0.025656,-5.7,38.1,-14.58
3.3915,-9.221,1.0351,-0.047037,0.041233,0.029932,-5.7,38.16,-14.52
3.4732,-9.1529,1.0896,-0.048564,0.047037,0.027489,-5.76,38.34,-14.58
3.4596,-9.1256,1.0624,-0.057727,0.048258,0.025351,-5.7,38.28,-14.58
3.4187,-9.112,1.0896,-0.054978,0.042761,0.026878,-5.76,38.58,-14.46
3.4596,-9.1256,1.0896,-0.046731,0.054062,0.021075,-5.58,38.52,-14.64
3.4187,-9.1256,0.96704,-0.049175,0.046426,0.018937,-5.64,38.58,-14.46
3.514,-9.1256,1.0896,-0.056505,0.038179,0.024129,-5.4,38.76,-14.34
3.514,-9.2346,1.1169,-0.04215,0.02138,0.023518,-5.28,38.58,-14.22
3.4187,-9.1529,1.0351,-0.042761,0.0054978,0.026878,-5.46,38.58,-14.1
3.4187,-9.1393,1.0624,-0.040928,0.0051924,0.026878,-5.4,38.58,-14.04
3.3506,-9.1529,1.0351,-0.037568,0.016799,0.027184,-5.4,38.52,-14.04
3.3778,-9.1393,1.0488,-0.047342,0.021991,0.026573,-5.4,38.4,-13.98
3.3915,-9.1801,1.0215,-0.029932,0.018937,0.025351,-5.28,38.28,-14.16
3.3778,-9.2074,1.0488,-0.044288,0.026267,0.043371,-5.46,38.04,-13.86
3.3778,-9.1665,1.1032,-0.037874,0.024435,0.040928,-5.34,38.16,-13.8
3.4459,-9.1529,1.0624,-0.036652,0.019548,0.041844,-5.22,38.22,-13.74
3.4051,-9.1937,1.0624,-0.038485,0.0082467,0.044593,-5.34,38.34,-13.8
3.3915,-9.1801,1.0624,-0.026878,-0.0042761,0.036041,-5.34,38.22,-13.92
3.4051,-9.1529,1.0624,-0.021686,-0.01069,0.03146,-5.4,38.4,-14.1
3.4187,-9.2482,1.0215,-0.032376,-0.0039706,0.03207,-5.34,38.34,-14.1
3.3642,-9.1665,1.0351,-0.025045,0.010079,0.041233,-5.46,38.34,-14.1
3.3915,-9.1529,1.0215,-0.028405,0.018631,0.027794,-5.28,38.64,-14.1
3.4459,-9.1529,1.0488,-0.040012,0.018326,0.026573,-5.28,38.64,-14.1
3.4459,-9.1801,1.0896,-0.032376,0.009163,0.023213,-5.28,38.82,-14.04
3.4596,-9.2074,1.0624,-0.042455,0.0030543,0.032987,-5.16,38.94,-14.1
3.4187,-9.1937,1.0215,-0.034514,-0.011301,0.019548,-5.22,38.82,-14.16
3.4051,-9.1256,1.0488,-0.031765,-0.027489,0.032681,-5.34,38.64,-14.16
3.3234,-9.1665,1.0215,-0.037263,-0.040012,0.018631,-5.34,38.46,-14.16
3.3506,-9.2074,0.99429,-0.029322,-0.036957,0.019853,-5.16,38.46,-14.1
3.2825,-9.2074,1.0624,-0.038179,-0.018937,0.022602,-5.1,38.52,-14.04
3.3097,-9.1937,1.0624,-0.043982,0.013439,0.026267,-5.04,38.52,-13.86
3.3642,-9.1665,1.0351,-0.037568,0.0094684,0.029932,-5.1,38.64,-13.98
3.3506,-9.1937,1.0215,-0.034514,0.0051924,0.037874,-5.04,38.58,-14.04
3.4187,-9.1529,0.98067,-0.033598,0.000305,0.028405,-5.28,38.58,-13.98
3.4459,-9.1937,1.0488,-0.037568,0.0012217,0.026878,-5.22,38.58,-13.92
3.3778,-9.1937,1.076,-0.042455,-0.0024435,0.029016,-5.22,38.58,-13.8
3.4051,-9.1937,1.0624,-0.040623,-0.009163,0.025045,-5.1,38.52,-13.74
3.3642,-9.1801,1.0215,-0.039095,-0.009163,0.014966,-5.1,38.58,-13.74
3.3506,-9.1529,1.0215,-0.040012,-0.015882,0.021075,-5.1,38.58,-13.8
3.4187,-9.2074,1.0351,-0.03879,-0.010996,0.025045,-5.22,38.76,-13.8
3.337,-9.1529,1.0351,-0.045509,-0.0030543,0.022907,-5.46,38.88,-13.68
3.337,-9.1801,1.0488,-0.038485,-0.0048869,0.021991,-5.34,38.82,-13.68
3.3506,-9.1937,1.1032,-0.043371,-0.0030543,0.020769,-5.46,38.82,-13.68
3.3778,-9.1256,1.0896,-0.04215,0.002138,0.021991,-5.52,38.82,-13.68
3.3778,-9.1937,1.0624,-0.041233,0.0036652,0.020769,-5.52,38.82,-13.68
3.4323,-9.1393,1.0215,-0.039401,0.0064141,0.023824,-5.34,38.76,-13.92
3.3915,-9.2482,1.0351,-0.039706,0.009163,0.02138,-5.4,38.82,-13.98
3.3506,-9.1665,1.0215,-0.040012,0.0036652,0.024129,-5.34,38.7,-14.04
3.4051,-9.1529,1.0488,-0.034819,-0.0045815,0.021991,-5.4,38.58,-14.1
3.3642,-9.1529,0.99429,-0.032987,-0.011912,0.025656,-5.46,38.7,-14.04
3.3506,-9.221,1.0624,-0.040012,-0.0054978,0.02474,-5.4,38.7,-14.04
3.337,-9.1529,1.1032,-0.027184,-0.0079412,0.025656,-5.46,38.76,-14.16
3.3097,-9.1665,1.0624,-0.025351,0.0042761,0.019242,-5.34,38.82,-14.22
3.2961,-9.221,0.95342,-0.034514,0.011912,0.022907,-5.34,38.88,-14.16
3.3642,-9.221,1.0079,-0.032987,0.01405,0.025656,-5.34,38.94,-14.16
3.3642,-9.0848,0.98067,-0.036652,0.023518,0.025962,-5.16,38.82,-14.28
3.3915,-9.1256,1.1032,-0.034514,0.014355,0.029322,-5.16,38.82,-14.28
3.3642,-9.1801,1.0624,-0.02474,0.01069,0.018326,-5.28,38.76,-14.1
3.3234,-9.1256,1.0624,-0.022602,0.0061087,0.019548,-5.34,38.76,-14.1
3.3915,-9.2074,1.0896,-0.030238,0.01069,0.019242,-5.46,38.82,-14.16
3.3642,-9.1937,1.0079,-0.029932,0.0088575,0.014661,-5.4,38.76,-14.1
3.3778,-9.1801,1.0351,-0.033903,0.002138,0.01069,-5.28,38.76,-14.16
3.337,-9.1529,1.0215,-0.023213,0.010385,0.011912,-5.28,38.88,-14.34
3.3234,-9.1393,1.1169,-0.030238,0.02138,0.016188,-5.16,38.76,-14.58
3.3506,-9.1937,1.0351,-0.018326,0.018631,0.0088575,-5.16,38.64,-14.58
3.3778,-9.1801,1.1305,-0.029932,0.024435,0.010996,-5.16,38.7,-14.64
3.3915,-9.221,1.0488,-0.030849,0.017104,0.017104,-5.1,38.64,-14.7
3.3915,-9.221,1.0488,-0.034514,0.0085521,0.015272,-5.1,38.64,-14.7
3.3097,-9.221,1.0079,-0.036652,0.016799,0.013134,-5.1,38.52,-14.58
3.2553,-9.1801,1.0488,-0.032681,0.032376,0.015272,-5.1,38.58,-14.58
3.3506,-9.1937,1.2122,-0.037874,0.041844,0.010079,-5.04,38.4,-14.58
3.3778,-9.1801,1.0624,-0.037263,0.041539,0.0045815,-5.04,38.4,-14.46
3.3506,-9.1529,1.1169,-0.039706,0.03879,0.0097738,-5.04,38.46,-14.46
3.3778,-9.1801,1.0079,-0.034208,0.034514,0.012828,-5.22,38.52,-14.46
3.3778,-9.2074,1.0215,-0.040317,0.025351,0.014966,-5.34,38.52,-14.34
3.3234,-9.1801,0.9398,-0.041233,0.025351,0.015882,-5.34,38.52,-14.34
3.3506,-9.1801,0.98067,-0.042761,0.033903,0.013134,-5.34,38.58,-14.16
3.4459,-9.1801,1.0624,-0.04948,0.037568,0.0039706,-5.52,38.52,-14.1
3.4732,-9.1801,1.1032,-0.04612,0.036957,0.0082467,-5.52,38.34,-14.1
3.4187,-9.1665,1.0896,-0.054672,0.037568,0.0061087,-5.58,38.52,-13.8
3.3915,-9.1529,1.1305,-0.050396,0.016799,0.0048869,-5.52,38.46,-13.86
3.3642,-9.1393,1.0624,-0.051007,0.0042761,0.010385,-5.4,38.52,-13.86
3.3778,-9.1256,1.0896,-0.051313,-0.013744,0.011606,-5.34,38.64,-13.92
3.3097,-9.1937,1.0624,-0.044899,-0.021991,0.01069,-5.28,38.64,-13.92
3.3915,-9.1665,1.076,-0.048258,-0.023824,0.015577,-5.16,38.52,-13.92
3.4459,-9.2074,1.0624,-0.044593,-0.02474,0.025351,-5.04,38.52,-13.92
3.3097,-9.1393,1.0351,-0.043371,-0.029627,0.020159,-4.92,38.58,-13.98
3.3506,-9.1937,0.99429,-0.04948,-0.016493,0.022297,-4.74,38.58,-13.92
3.4187,-9.1937,1.0624,-0.051618,-0.010996,0.032987,-4.8,38.64,-13.92
3.4596,-9.1393,1.0896,-0.051618,-0.020769,0.025656,-4.74,38.7,-13.92
3.4323,-9.1256,1.1169,-0.056505,-0.023518,0.030543,-4.74,38.64,-13.98
3.4187,-9.1393,1.1032,-0.046731,-0.038179,0.022602,-4.74,38.58,-13.92
3.4323,-9.1529,1.076,-0.039706,-0.048258,0.023213,-4.86,38.7,-13.8
3.3506,-9.112,0.99429,-0.043371,-0.047037,0.018326,-4.98,38.58,-13.8
3.3234,-9.1801,0.99429,-0.034819,-0.043066,0.019242,-5.04,38.58,-13.62
3.3642,-9.1256,1.0624,-0.037263,-0.040928,0.014966,-5.16,38.58,-13.74
3.3642,-9.0984,1.0215,-0.03543,-0.045204,0.018937,-5.1,38.76,-13.8
3.3234,-9.1256,1.0351,-0.034208,-0.034819,0.011301,-5.16,38.76,-13.74
3.3234,-9.1937,0.9398,-0.03543,-0.019242,0.015272,-5.46,38.58,-13.68
3.2553,-9.1937,1.0215,-0.035736,-0.014966,0.024435,-5.52,38.64,-13.68
3.3506,-9.1801,0.99429,-0.038485,-0.016799,0.024435,-5.4,38.52,-13.68
3.3778,-9.2074,1.0351,-0.036957,-0.017104,0.022602,-5.34,38.34,-13.68
3.337,-9.1937,1.1305,-0.028711,-0.0012217,0.025045,-5.34,38.58,-13.68
3.3506,-9.1256,1.0896,-0.034208,-0.0036652,0.020464,-5.4,38.58,-13.68
3.3506,-9.1937,1.0488,-0.028405,-0.011912,0.020159,-5.34,38.7,-13.8
3.3506,-9.1937,0.98067,-0.037568,-0.0088575,0.026878,-5.22,38.7,-13.86
3.3506,-9.221,0.99429,-0.036957,-0.000305,0.030238,-5.4,38.7,-14.04
3.2961,-9.2074,1.0215,-0.034819,-0.0054978,0.021686,-5.22,38.64,-14.04
3.3234,-9.1529,1.076,-0.035736,-0.0039706,0.029932,-5.28,38.64,-13.92
3.3097,-9.1665,1.0079,-0.03543,-0.007025,0.024435,-5.1,38.7,-13.98
3.337,-9.1801,0.96704,-0.03207,-0.0039706,0.0281,-4.98,38.58,-13.86
3.3506,-9.1256,0.99429,-0.038179,-0.0048869,0.033903,-5.1,38.46,-13.86
3.3097,-9.221,0.99429,-0.035125,-0.0018326,0.034514,-5.1,38.46,-13.74
3.3506,-9.1801,0.92618,-0.042455,0.0024435,0.030849,-5.22,38.7,-13.62
3.3778,-9.1937,1.0624,-0.035736,-0.0054978,0.03879,-5.16,38.46,-13.62
3.3506,-9.1665,1.0488,-0.032681,-0.0039706,0.042761,-5.1,38.4,-13.74
3.3506,-9.1801,1.0624,-0.03146,-0.0064141,0.033903,-4.86,38.34,-13.62
3.3506,-9.1937,1.0896,-0.041233,-0.015882,0.043066,-4.86,38.34,-13.68
3.3506,-9.1937,0.95342,-0.038485,-0.0061087,0.041233,-4.8,38.28,-13.68
3.337,-9.221,0.99429,-0.034819,-0.012828,0.034514,-4.8,38.22,-13.68
3.2553,-9.0984,0.92618,-0.037568,-0.007025,0.040623,-4.98,38.22,-13.56
3.2825,-9.1937,0.9398,-0.039095,-0.0058032,0.038179,-4.98,38.4,-13.68
3.3097,-9.2074,1.0079,-0.041233,-0.000916,0.040928,-5.04,38.34,-13.8
3.2825,-9.1665,1.0896,-0.04948,-0.0067195,0.043371,-4.98,38.58,-13.74
3.2825,-9.1256,1.0215,-0.045509,-0.01069,0.040928,-4.92,38.76,-13.8
3.3506,-9.1937,0.96704,-0.041233,-0.0064141,0.034208,-4.98,38.76,-13.98
3.3506,-9.1665,0.99429,-0.041539,-0.01069,0.0281,-4.86,38.7,-14.16
3.4187,-9.2482,1.0215,-0.041233,-0.017104,0.03207,-4.86,38.82,-14.16
3.3506,-9.221,0.99429,-0.034514,-0.017715,0.025045,-5.04,38.88,-14.28
3.2553,-9.2074,0.99429,-0.040317,-0.015272,0.026878,-4.92,38.82,-14.22
3.3506,-9.112,1.0488,-0.040012,-0.0076358,0.02138,-4.8,38.82,-14.04
3.2961,-9.1529,1.0079,-0.040012,0.0079412,0.019853,-4.92,39.0,-14.16
3.3097,-9.1256,1.0215,-0.036957,0.009163,0.014355,-4.74,39.06,-14.16
3.337,-9.1665,0.99429,-0.034819,0.009163,0.017104,-4.74,38.94,-13.98
3.3506,-9.2074,0.99429,-0.03543,0.0015272,0.014966,-4.86,38.88,-13.92
3.337,-9.1937,1.0624,-0.037263,0.0045815,0.022297,-4.86,38.82,-13.92
3.2553,-9.1665,0.98067,-0.039706,0.0048869,0.019548,-4.92,38.7,-13.98
3.3506,-9.1937,1.0215,-0.036957,0.011301,0.015272,-4.8,38.7,-13.98
3.3506,-9.221,0.9398,-0.038485,0.023824,0.010079,-4.86,38.88,-13.86
3.3506,-9.1937,0.95342,-0.036652,0.026878,0.0097738,-4.86,38.88,-13.86
3.3642,-9.2482,0.99429,-0.040317,0.013744,0.0088575,-4.86,38.88,-13.86
3.3234,-9.1937,1.0351,-0.043371,-0.0018326,0.01741,-4.98,38.82,-13.98
3.228,-9.1937,1.0624,-0.040623,0.0012217,0.0097738,-5.04,38.94,-14.04
3.3234,-9.1665,0.99429,-0.036346,0.0018326,0.012828,-4.74,38.76,-14.04
3.2689,-9.1665,1.0079,-0.031765,-0.000611,0.0085521,-4.74,38.76,-13.98
3.2416,-9.1937,0.96704,-0.033598,0.0085521,0.01405,-4.68,38.82,-14.28
3.2825,-9.1937,0.99429,-0.038485,0.012523,0.021686,-4.5,39.0,-14.46
3.2416,-9.1937,1.0215,-0.037874,0.0088575,0.018937,-4.62,38.88,-14.46
3.2825,-9.221,1.0624,-0.040623,0.020159,0.022907,-4.5,38.88,-14.46
3.2008,-9.1937,1.0215,-0.040928,0.019242,0.018326,-4.62,38.94,-14.52
3.3097,-9.221,0.95342,-0.038179,0.016799,0.019548,-4.62,38.88,-14.52
3.2825,-9.1937,0.99429,-0.037568,0.014661,0.012523,-4.68,38.88,-14.58
3.3778,-9.1529,0.9398,-0.036041,0.018326,0.018631,-4.62,38.82,-14.52
3.3506,-9.1529,1.0624,-0.033598,0.019242,0.016493,-4.56,38.76,-14.4
3.3778,-9.1937,0.98067,-0.036346,0.018937,0.014661,-4.56,38.76,-14.46
3.337,-9.221,0.96704,-0.036041,0.011301,0.02138,-4.62,38.94,-14.34
3.3097,-9.1393,0.99429,-0.038485,-0.0036652,0.012523,-4.74,39.0,-14.4
3.2825,-9.1256,0.99429,-0.043982,-0.0051924,0.014966,-4.74,38.94,-14.34
3.3642,-9.1937,0.99429,-0.04215,-0.013439,0.020769,-4.8,38.82,-14.28
3.3778,-9.1256,1.0351,-0.0281,-0.000916,0.012828,-4.92,38.7,-14.34
3.3642,-9.221,1.0215,-0.039706,0.013134,0.019242,-4.98,38.64,-14.22
3.3642,-9.1801,1.0079,-0.03543,0.017104,0.0064141,-4.92,38.64,-14.1
3.3506,-9.1937,1.0624,-0.039401,0.0088575,0.01405,-4.98,38.58,-14.16
3.3642,-9.1529,1.0488,-0.03879,0.0036652,0.01069,-5.04,38.58,-14.04
3.3097,-9.1256,1.0351,-0.036041,-0.014966,0.0079412,-5.34,38.7,-14.04
3.2689,-9.221,0.96704,-0.036041,-0.014966,0.0079412,-5.34,38.7,-14.04
3.2689,-9.221,0.96704,-0.036041,-0.014966,0.0079412,-5.34,38.7,-14.04
3.3097,-9.1801,0.96704,-0.037263,-0.015577,0.020769,-5.28,38.58,-13.98
3.2825,-9.1529,1.0351,-0.035736,-0.019242,0.018021,-5.22,38.52,-13.98
3.2553,-9.1937,1.0079,-0.035125,-0.013439,0.014966,-5.22,38.7,-13.98
3.2144,-9.1937,0.91256,-0.032987,-0.010079,0.020464,-5.22,38.88,-13.92
3.3234,-9.1937,0.9398,-0.040623,0.0088575,0.024129,-5.22,38.94,-13.86
