Ax,Ay,Az,Gx,Gy,Gz,Mx,My,Mz
3.4323,-9.1529,-1.58,-0.022602,-0.014661,-0.000611,20.52,30.18,24.06
3.4051,-9.0575,-1.4846,-0.026573,-0.0024435,-0.0064141,20.64,30.18,24.24
3.4323,-9.0575,-1.5255,-0.027489,-0.011606,-0.0051924,20.64,30.18,24.3
3.4459,-9.1256,-1.3484,-0.01069,-0.026267,-0.010079,20.7,30.42,24.42
3.4187,-9.1937,-1.5255,-0.011301,-0.033292,-0.019242,20.76,30.36,24.36
3.3915,-9.221,-1.471,-0.0073304,-0.030238,-0.016188,20.76,30.36,24.36
3.4187,-9.1937,-1.5255,-0.000305,-0.011912,-0.021686,20.88,30.3,24.42
3.3506,-9.0575,-1.5527,0.0027489,-0.0027489,-0.021075,21.0,30.3,24.72
3.3642,-9.0575,-1.5391,-0.000916,0.0042761,-0.022602,20.88,30.3,24.72
3.3097,-9.1256,-1.4846,0.000916,-0.0054978,-0.019548,21.0,30.36,24.84
3.4187,-9.1937,-1.471,-0.014661,-0.01405,-0.0048869,20.82,30.06,24.84
3.337,-9.2346,-1.5119,-0.016188,-0.0073304,-0.0045815,20.64,30.06,24.72
3.3097,-9.1801,-1.6072,-0.019853,0.010996,0.0042761,20.64,30.06,24.6
3.4187,-9.0303,-1.6208,-0.01405,0.030543,0.011912,20.46,29.94,24.36
3.4187,-9.1256,-1.5391,-0.010079,0.016493,0.018631,20.4,29.88,24.36
3.3778,-9.0848,-1.58,-0.0085521,-0.0088575,0.031765,20.4,29.76,24.3
3.3778,-9.1937,-1.5663,-0.0094684,-0.014661,0.033292,20.16,29.64,24.36
3.3778,-9.1665,-1.6208,-0.019548,0.0030543,0.029322,20.22,29.7,24.36
3.3642,-9.1393,-1.4982,-0.027184,0.01069,0.025045,20.04,29.64,24.24
3.4459,-9.112,-1.4982,-0.0281,0.021075,0.0281,19.86,29.88,24.24
3.4187,-9.1256,-1.5119,-0.024435,0.0064141,0.026573,19.86,29.94,24.18
3.4459,-9.0848,-1.4982,-0.014966,-0.0082467,0.022297,19.86,29.7,24.12
3.3234,-9.1529,-1.4846,-0.011912,-0.014661,0.035125,19.92,29.88,24.0
3.3234,-9.1529,-1.4982,-0.018326,0.0051924,0.025045,19.98,29.94,24.0
3.3915,-9.0984,-1.4438,-0.021991,0.016188,0.02138,19.98,29.88,24.06
3.4459,-9.1393,-1.5391,-0.017104,0.0073304,0.02138,19.98,30.0,24.06
3.4323,-9.1256,-1.4982,-0.014661,0.0030543,0.0281,20.04,29.94,23.76
3.4459,-9.1801,-1.471,-0.0030543,-0.0042761,0.026878,20.04,29.94,23.7
3.4187,-9.1529,-1.471,-0.010079,-0.01069,0.036652,20.22,30.12,23.64
3.4596,-9.1665,-1.471,-0.0067195,-0.0076358,0.026573,20.16,30.18,23.64
3.3506,-9.1529,-1.5119,-0.025962,0.0088575,0.023213,20.22,30.06,23.7
3.3506,-9.1393,-1.5663,-0.029322,0.016188,0.01405,20.34,29.88,23.52
3.3915,-9.112,-1.5527,-0.030238,0.0067195,0.012217,20.34,29.88,23.58
3.4187,-9.221,-1.5119,-0.026267,-0.010079,0.018937,20.4,30.0,23.52
3.4051,-9.112,-1.4574,-0.027794,-0.016493,0.0082467,20.46,30.0,23.52
3.4187,-9.1529,-1.5391,-0.039706,0.0027489,0.011912,20.34,29.82,23.58
3.3915,-9.221,-1.6072,-0.043982,0.0094684,0.009163,20.34,29.76,23.76
3.4323,-9.2074,-1.5391,-0.037263,0.013134,0.010385,20.4,29.76,23.76
3.3778,-9.0984,-1.5391,-0.053145,0.022907,0.0079412,20.4,29.82,23.94
3.4187,-9.1529,-1.471,-0.052229,0.027184,-0.002138,20.46,29.76,23.94
3.3234,-9.0575,-1.5936,-0.055589,0.022297,-0.0064141,20.4,29.7,23.94
3.4051,-9.0848,-1.5119,-0.054367,0.015882,0.0030543,20.34,29.64,24.0
3.3097,-9.112,-1.4438,-0.059254,0.0094684,0.002138,20.34,29.58,24.0
3.3778,-9.1529,-1.471,-0.062308,0.011912,0.013439,20.22,29.76,24.06
3.3234,-9.1393,-1.471,-0.065668,0.028711,0.03207,20.34,29.76,23.94
3.4459,-9.1256,-1.4438,-0.057421,0.037263,0.030849,20.34,29.76,24.18
3.4459,-9.0712,-1.4438,-0.054672,0.03207,0.022297,20.28,29.76,24.18
3.4051,-9.0848,-1.4165,-0.038179,0.0073304,0.035736,20.52,29.88,24.12
3.3778,-9.0848,-1.4029,-0.036346,0.0039706,0.040012,20.58,30.12,23.94
3.4323,-9.112,-1.4846,-0.038179,0.0036652,0.041539,20.46,30.12,23.88
3.4732,-9.1529,-1.4846,-0.036346,0.0033598,0.039095,20.4,30.12,24.06
3.4732,-9.1937,-1.4165,-0.029322,-0.0024435,0.03879,20.4,30.24,24.12
3.4323,-9.1937,-1.5119,-0.028711,0.0082467,0.026878,20.46,30.12,24.3
3.3915,-9.1256,-1.471,-0.03543,0.013134,0.018631,20.58,30.12,24.18
3.4051,-9.0848,-1.5391,-0.034819,0.018631,0.0082467,20.76,30.18,24.06
3.3915,-9.1801,-1.5936,-0.030849,0.014661,0.0030543,20.82,30.12,24.12
3.4459,-9.221,-1.6072,-0.025351,0.012523,0.0045815,20.76,30.12,24.12
3.3778,-9.1529,-1.5255,-0.031154,-0.0039706,0.014355,20.7,30.12,24.18
3.3234,-9.0984,-1.471,-0.032681,0.0033598,0.018937,20.52,30.12,24.18
3.4323,-9.0848,-1.58,-0.034819,0.01405,0.027489,20.58,29.88,24.06
3.5004,-9.0984,-1.5527,-0.040012,0.010996,0.03543,20.82,29.88,23.88
3.4187,-9.1393,-1.5119,-0.025045,-0.0094684,0.025962,20.88,29.94,23.88
3.4459,-9.1937,-1.5255,-0.03543,-0.007025,0.02474,20.7,29.94,23.82
3.4596,-9.1937,-1.5119,-0.033598,-0.0024435,0.027794,20.58,29.82,23.94
3.4596,-9.1801,-1.471,-0.037568,0.007025,0.028405,20.64,29.88,23.88
3.4596,-9.1256,-1.4846,-0.030238,0.011301,0.023518,20.7,29.88,24.0
3.4732,-9.0848,-1.4982,-0.034514,0.012523,0.023213,20.82,29.82,24.06
3.3915,-9.112,-1.5119,-0.032376,0.007025,0.012828,20.64,29.64,24.12
3.4051,-9.0712,-1.4846,-0.037263,0.014355,0.012828,20.76,29.82,24.3
3.4459,-9.1393,-1.4574,-0.030543,0.0085521,0.014355,20.58,29.7,24.18
3.4323,-9.1801,-1.471,-0.025351,0.007025,0.022297,20.58,29.82,24.3
3.4187,-9.1256,-1.4438,-0.030238,0.0015272,0.015577,20.58,29.94,24.18
3.3778,-9.112,-1.5119,-0.031154,0.0094684,0.0076358,20.4,30.12,24.3
3.4187,-9.0712,-1.4438,-0.036041,0.007025,0.0048869,20.46,30.12,24.42
3.4051,-9.1256,-1.4846,-0.031154,0.0027489,0.0012217,20.4,30.24,24.54
3.4459,-9.2755,-1.471,-0.03146,0.0058032,0.0097738,20.22,30.12,24.24
3.3778,-9.1665,-1.4846,-0.024435,-0.000611,0.018021,20.1,30.18,24.12
3.337,-9.1937,-1.471,-0.024129,-0.0036652,0.011606,20.16,30.06,24.0
3.3097,-9.1256,-1.4846,-0.02474,0.014661,0.021075,20.16,30.0,24.18
3.3234,-9.1665,-1.58,-0.017104,0.013439,0.020769,20.22,30.06,24.12
3.3778,-9.1529,-1.5936,-0.019242,-0.000611,0.02474,20.22,29.94,24.0
3.3778,-9.1529,-1.6481,-0.018021,-0.0061087,0.026573,20.34,29.94,24.0
3.3642,-9.0848,-1.5119,-0.022907,-0.0036652,0.018326,20.4,29.94,23.94
3.4323,-9.221,-1.5527,-0.02474,-0.0015272,0.020159,20.34,29.82,23.88
3.4187,-9.221,-1.5391,-0.026573,-0.0045815,0.01741,20.52,29.82,23.88
3.4051,-9.1665,-1.6072,-0.03146,-0.002138,0.019853,20.58,29.82,23.88
3.3642,-9.0984,-1.471,-0.020769,-0.0024435,0.014966,20.7,29.82,23.88
3.4051,-9.1801,-1.4846,-0.036652,0.009163,0.01405,21.0,29.64,23.94
3.4187,-9.1256,-1.4438,-0.039401,0.0082467,0.014355,21.0,29.7,23.88
3.4187,-9.1529,-1.5119,-0.039401,0.0054978,0.0094684,20.88,29.76,23.88
3.3915,-9.1393,-1.3893,-0.043371,0.0097738,0.012217,20.94,29.94,23.94
3.3642,-9.1937,-1.4438,-0.030543,0.010385,0.016493,20.88,30.0,24.0
3.4187,-9.1801,-1.5119,-0.038179,0.011912,0.018631,20.88,30.12,24.06
3.3778,-9.1256,-1.4301,-0.037874,0.0036652,0.012217,20.82,30.18,24.12
3.4187,-9.0848,-1.5391,-0.026878,0.0094684,0.01069,20.82,30.06,24.3
3.337,-8.9622,-1.4982,-0.037568,0.025045,0.0061087,20.82,30.0,24.42
3.3234,-9.1393,-1.471,-0.028405,0.044899,0.0097738,20.88,30.06,24.42
3.3506,-9.1529,-1.5527,-0.039095,0.046426,0.018021,20.82,30.0,24.24
3.3915,-9.1256,-1.5391,-0.038485,0.043066,0.022602,20.7,29.94,24.24
3.3506,-9.112,-1.4438,-0.037874,0.024435,0.018326,20.76,29.94,24.3
3.3778,-9.1256,-1.4301,-0.024435,0.025045,0.026267,20.94,29.88,24.36
3.3778,-9.0575,-1.4574,-0.032376,0.030238,0.023518,20.94,29.94,24.36
3.4187,-9.2074,-1.4438,-0.03207,0.047647,0.023824,21.0,29.88,24.3
3.4596,-9.1801,-1.4438,-0.029016,0.048869,0.023824,21.06,29.82,24.36
3.4187,-9.0984,-1.4846,-0.035125,0.036652,0.030849,21.12,29.64,24.36
3.4459,-9.0848,-1.471,-0.032681,0.027794,0.023824,21.12,29.46,24.42
3.3778,-9.2891,-1.4438,-0.020464,0.023824,0.023824,21.06,29.46,24.3
3.337,-9.1665,-1.4846,-0.020464,0.038485,0.035736,21.0,29.52,24.24
3.4596,-9.2074,-1.5119,-0.025962,0.03207,0.045509,20.88,29.58,24.3
3.3506,-9.1529,-1.471,-0.01069,0.0076358,0.046731,20.94,29.58,24.36
3.3506,-9.0984,-1.4846,-0.010079,-0.0024435,0.033903,20.94,29.58,24.54
3.4187,-9.2074,-1.4438,-0.011912,0.0015272,0.041844,20.76,29.7,24.66
3.4323,-9.1937,-1.5391,-0.022602,0.0015272,0.040317,20.58,29.76,24.66
3.4732,-9.2074,-1.5663,-0.024435,0.0030543,0.037568,20.64,29.76,24.84
3.4732,-9.1256,-1.58,-0.022297,0.011301,0.021075,20.7,29.58,24.72
3.5004,-9.1937,-1.4982,-0.03207,-0.000305,0.012523,20.7,29.58,24.54
3.4732,-9.1801,-1.5119,-0.04215,0.000611,0.0061087,20.52,29.76,24.54
3.4323,-9.1937,-1.4438,-0.041539,0.0079412,-0.0054978,20.7,29.76,24.42
3.3778,-9.2074,-1.5119,-0.059559,0.018631,-0.01069,20.76,29.82,24.48
3.337,-9.2074,-1.4301,-0.062003,0.034208,-0.024129,20.88,30.0,24.48
3.3506,-9.1937,-1.5119,-0.07025,0.033598,-0.026267,20.76,29.76,24.42
3.3506,-9.1393,-1.4301,-0.060781,0.027489,-0.016188,20.76,29.76,24.42
3.2825,-9.1256,-1.471,-0.046731,0.011606,-0.0018326,20.7,29.82,24.36
3.2689,-9.0712,-1.4574,-0.051007,0.013744,0.014355,20.76,29.88,24.3
3.2553,-9.0167,-1.4165,-0.054062,0.019242,0.023518,20.82,29.88,24.18
3.3234,-9.1256,-1.3757,-0.060781,0.027489,0.016188,20.64,29.88,24.06
3.3778,-9.1529,-1.3757,-0.070555,0.043371,0.015882,20.58,30.06,24.06
3.3642,-9.1529,-1.3484,-0.054062,0.043066,0.01069,20.64,30.0,24.12
3.4323,-9.1937,-1.3484,-0.03207,0.037568,0.020464,20.7,29.82,24.24
3.4187,-9.1801,-1.4301,-0.014355,0.013134,0.03207,20.58,29.94,24.3
3.4323,-9.1937,-1.4301,-0.020769,0.0027489,0.034208,20.34,29.94,24.24
3.4187,-9.1393,-1.362,-0.01741,0.0067195,0.027794,20.52,29.82,24.06
3.3915,-9.0984,-1.471,-0.022907,0.019548,0.02474,20.64,29.94,24.06
3.4459,-9.0712,-1.5527,-0.023518,0.0061087,0.021686,20.7,30.0,23.94
3.4459,-9.1256,-1.4438,-0.020159,-0.0097738,0.021991,20.88,29.94,23.82
3.4187,-9.2482,-1.5119,-0.022297,-0.0018326,0.020159,20.82,29.82,23.82
3.4459,-9.221,-1.5391,-0.043066,0.025045,0.010079,20.82,29.82,23.82
3.5004,-9.2074,-1.5119,-0.051618,0.03543,-0.0024435,20.94,29.94,23.76
3.4187,-9.1256,-1.4982,-0.045204,0.034208,-0.0027489,21.12,29.88,23.88
3.4732,-9.1256,-1.5119,-0.043371,0.01405,-0.0085521,21.0,30.0,23.82
3.4596,-9.1937,-1.471,-0.047953,0.015577,-0.0042761,21.06,30.0,23.94
3.3506,-9.1801,-1.4574,-0.041233,0.0076358,0.007025,21.0,30.06,23.88
3.3506,-9.1937,-1.471,-0.04215,0.013439,-0.0024435,21.24,29.94,23.82
3.3778,-9.1937,-1.4301,-0.037568,0.012828,0.010385,21.12,29.88,23.82
3.3642,-9.1256,-1.4846,-0.035125,0.0030543,0.016188,21.12,29.82,24.06
3.4323,-9.1529,-1.471,-0.034208,-0.000611,0.020159,21.06,29.76,24.18
3.4459,-9.0575,-1.4165,-0.032681,-0.0036652,0.016188,21.0,29.7,24.24
3.3778,-9.0984,-1.3076,-0.029627,0.000916,0.010996,20.88,29.76,24.24
3.4596,-9.1393,-1.471,-0.034208,0.0018326,0.0054978,20.88,29.88,24.36
3.4187,-9.2074,-1.471,-0.032681,-0.0018326,0.009163,20.88,29.82,24.54
3.4596,-9.1256,-1.471,-0.036346,-0.0085521,0.0058032,20.76,29.94,24.48
3.4051,-9.1801,-1.4165,-0.027184,-0.0027489,-0.000611,20.76,29.88,24.48
3.4187,-9.1665,-1.4029,-0.043066,0.015577,0.000305,20.76,30.06,24.36
3.4459,-9.1937,-1.4574,-0.038179,0.0088575,0.000916,20.64,30.12,24.3
3.4187,-9.1256,-1.5391,-0.028711,-0.0097738,-0.000305,20.64,30.06,24.48
3.3915,-9.1256,-1.471,-0.030543,-0.01741,0.014661,20.7,30.12,24.36
3.4323,-9.1665,-1.4574,-0.032376,-0.019548,0.011912,20.76,30.06,24.48
3.4596,-9.1937,-1.4301,-0.03543,-0.0024435,0.012828,20.52,30.18,24.42
3.4051,-9.1393,-1.5255,-0.034819,0.0036652,0.0061087,20.58,30.3,24.48
3.4323,-9.1801,-1.471,-0.040012,-0.0030543,0.013134,20.82,30.36,24.48
3.4051,-9.1529,-1.3893,-0.029932,-0.0094684,0.0058032,20.82,30.3,24.54
3.514,-9.1529,-1.4301,-0.030238,-0.0061087,0.0088575,20.76,30.18,24.42
3.3778,-9.1529,-1.471,-0.029932,0.0033598,0.0076358,20.82,30.18,24.54
3.4459,-9.1665,-1.4982,-0.043982,0.0094684,0.007025,20.76,30.0,24.6
3.4187,-9.1393,-1.3484,-0.03146,0.000916,0.0048869,20.82,30.06,24.78
3.4323,-9.1256,-1.5391,-0.022602,-0.0012217,0.0082467,20.88,29.94,24.84
3.4051,-9.0848,-1.4574,-0.021075,-0.011606,0.010385,20.82,30.0,24.78
3.4187,-9.0575,-1.471,-0.019242,-0.0012217,0.021991,20.7,30.18,24.96
3.4051,-9.0984,-1.4301,-0.018326,-0.0067195,0.025045,20.7,30.18,24.78
3.4596,-9.1529,-1.3484,-0.018021,-0.016188,0.017104,20.76,30.12,24.84
3.4732,-9.1937,-1.4301,-0.020464,-0.020464,0.016799,20.64,30.06,24.78
3.4187,-9.0984,-1.4846,-0.020464,-0.022907,0.015882,20.52,30.06,24.72
3.514,-9.1801,-1.4574,-0.029627,-0.018021,0.0045815,20.58,30.12,24.78
3.514,-9.1801,-1.4574,-0.025351,-0.022297,0.0036652,20.7,30.06,24.84
3.4732,-9.1801,-1.4438,-0.025351,-0.024129,0.01069,20.76,30.06,24.72
3.514,-9.1256,-1.4165,-0.022297,-0.023824,0.0012217,20.58,30.12,24.6
3.4596,-9.0303,-1.4438,-0.026573,-0.027184,0.0033598,20.52,30.12,24.42
3.4459,-9.0984,-1.5119,-0.023518,-0.021991,0.0073304,20.58,30.18,24.48
3.4732,-9.1529,-1.4574,-0.022907,-0.023518,0.0088575,20.46,30.06,24.36
3.4732,-9.1801,-1.5119,-0.024129,-0.016188,0.015882,20.64,30.18,24.36
3.4868,-9.1529,-1.4165,-0.03146,-0.016188,0.01069,20.64,30.12,24.42
3.4459,-9.112,-1.4029,-0.034208,-0.015882,0.002138,20.58,30.18,24.42
3.3642,-9.0303,-1.3757,-0.019548,-0.0024435,-0.013134,20.58,30.12,24.42
3.3506,-9.1256,-1.4301,-0.025045,0.000916,-0.0082467,20.46,30.06,24.42
3.337,-9.0031,-1.4438,-0.020769,0.0067195,0.0012217,20.46,30.06,24.36
3.2553,-9.0303,-1.471,-0.013744,-0.0012217,0.021075,20.4,30.18,24.36
3.2825,-9.0575,-1.2531,-0.0067195,0.0024435,0.032376,20.28,30.18,24.42
3.3234,-9.1529,-1.4438,0.012523,0.018937,0.06017,20.52,30.24,24.54
3.3642,-9.1665,-1.4574,0.06017,0.0079412,0.12248,20.58,30.12,24.54
3.4459,-9.1801,-1.5663,0.065668,-0.0088575,0.1405,20.64,30.18,24.42
3.4732,-9.1937,-1.5936,0.078191,-0.058032,0.1854,20.82,30.06,24.54
3.514,-9.1529,-1.6753,0.064446,-0.076664,0.18601,20.82,29.94,24.54
3.514,-9.1665,-1.7025,0.037874,-0.079107,0.17532,20.7,29.94,24.42
3.623,-9.1529,-1.7979,0.0067195,-0.065973,0.1405,20.94,29.88,24.36
3.6366,-9.0984,-1.6753,-0.047037,-0.033598,0.04215,20.94,29.94,24.36
3.6094,-9.2482,-1.471,-0.064141,-0.025656,0.016799,21.06,29.94,24.24
3.623,-9.3708,-1.4982,-0.083689,-0.0082467,-0.041233,21.06,29.94,24.3
3.6503,-9.3027,-1.5936,-0.097738,-0.023518,-0.05681,21.06,30.0,24.24
3.5277,-9.2891,-1.4029,-0.11087,-0.060781,-0.099266,21.18,29.88,24.18
3.4459,-9.3299,-1.2258,-0.10476,-0.054978,-0.13561,21.12,29.88,24.24
3.4596,-9.3299,-1.3348,-0.10629,-0.043677,-0.14875,21.12,30.0,24.3
3.4187,-9.0984,-1.2803,-0.098655,-0.046731,-0.1518,21.24,30.06,24.36
3.2961,-9.1256,-1.1713,-0.09163,-0.065363,-0.16646,21.24,30.18,24.48
3.228,-9.1937,-1.1986,-0.08827,-0.0562,-0.18173,21.24,30.24,24.3
3.1463,-9.1256,-1.2939,-0.087354,-0.025351,-0.16432,21.3,30.3,24.36
3.1872,-9.1256,-1.1713,-0.077274,-0.019242,-0.15516,21.12,30.36,24.36
3.1872,-9.0575,-1.185,-0.057727,-0.0281,-0.12339,21.06,30.36,24.42
3.1599,-9.1529,-1.4301,-0.041844,-0.031765,-0.090713,20.82,30.36,24.36
3.2008,-9.1256,-1.4301,-0.0281,-0.022297,-0.041844,20.7,30.36,24.42
3.2144,-9.0848,-1.4982,-0.021686,-0.018021,0.0039706,20.7,30.36,24.42
3.1463,-9.1393,-1.5119,-0.023213,-0.002138,0.018937,20.46,30.42,24.36
3.2416,-9.0303,-1.5663,-0.013744,0.0042761,0.041233,20.22,30.48,24.24
3.2961,-9.0303,-1.7706,-0.0073304,-0.0030543,0.067806,20.16,30.42,24.3
3.3506,-8.9894,-1.5936,-0.011606,-0.011301,0.082161,19.68,30.24,24.12
3.2961,-9.0303,-1.5255,-0.025656,-0.0051924,0.087659,19.62,30.18,24.06
3.4051,-9.0984,-1.6889,-0.03207,0.015272,0.090103,19.44,30.24,24.18
3.4732,-9.1801,-1.7298,-0.043371,0.033598,0.10201,19.32,30.24,24.18
3.514,-9.112,-1.58,-0.055589,0.023518,0.1014,19.38,30.12,24.48
3.5004,-8.9894,-1.5527,-0.059559,0.021075,0.081245,19.38,30.3,24.48
3.4459,-9.0439,-1.5391,-0.052534,0.044288,0.060781,19.32,30.24,24.48
3.6366,-9.112,-1.5391,-0.043371,0.062919,0.054367,19.44,30.12,24.36
3.7592,-9.0984,-1.6753,-0.036957,0.053451,0.060476,19.38,30.06,24.48
3.6503,-9.0848,-1.6481,-0.038179,0.0058032,0.057727,19.32,30.06,24.48
3.5685,-9.0167,-1.4846,-0.043371,0.014355,0.049175,19.5,30.0,24.54
3.5549,-9.0303,-1.4574,-0.043371,0.033903,0.029627,19.56,30.12,24.48
3.6639,-9.1256,-1.58,-0.026878,0.03146,0.029932,19.8,30.12,24.54
3.6775,-9.1393,-1.6481,-0.018021,0.0058032,0.030543,19.92,30.06,24.54
3.6639,-9.1256,-1.5527,-0.010996,-0.034208,0.022907,19.98,30.0,24.54
3.6503,-9.2074,-1.5255,-0.0073304,-0.037874,0.010996,20.04,29.94,24.54
3.6775,-9.2346,-1.6344,-0.01405,-0.05284,0.019548,20.04,29.94,24.42
3.6503,-9.2891,-1.6753,-0.018326,-0.07025,0.0064141,20.04,29.88,24.48
3.5549,-9.1665,-1.58,-0.050091,-0.051313,-0.019853,20.16,30.0,24.48
3.4732,-9.1937,-1.6481,-0.066279,-0.0281,-0.032681,20.16,30.12,24.54
3.4051,-9.1529,-1.7025,-0.08491,0.030238,-0.057727,20.28,30.18,24.48
3.4596,-9.0575,-1.6481,-0.10049,0.019548,-0.075442,20.4,30.3,24.54
3.4051,-8.9622,-1.6072,-0.097128,0.011912,-0.083689,20.46,30.18,24.6
3.3097,-8.9486,-1.5391,-0.10415,0.03146,-0.076969,20.46,30.12,24.6
3.2825,-8.9213,-1.5119,-0.097433,0.064752,-0.055589,20.28,30.24,24.66
3.2553,-8.9349,-1.4438,-0.083078,0.057421,-0.021686,20.22,30.36,24.6
3.2825,-8.9349,-1.471,-0.065668,0.049175,0.0064141,20.16,30.24,24.66
3.2825,-8.9622,-1.362,-0.055589,0.041233,0.020464,20.16,30.24,24.66
3.2825,-9.0439,-1.3484,-0.03543,0.03543,0.054672,19.98,30.42,24.66
3.4187,-9.0575,-1.4438,-0.0030543,0.013134,0.067195,19.98,30.36,24.72
3.4187,-8.9894,-1.5391,0.021991,-0.011912,0.073915,19.92,30.36,24.84
3.4459,-9.1937,-1.5391,0.030543,-0.031765,0.080634,19.86,30.48,24.78
3.4187,-9.2618,-1.5663,0.015272,-0.020159,0.083078,19.74,30.48,24.78
3.4459,-9.2755,-1.5663,-0.0051924,0.0027489,0.07422,19.68,30.42,24.78
3.4732,-9.2346,-1.4846,-0.024129,0.027184,0.059254,19.68,30.48,24.84
3.5004,-9.1937,-1.5391,-0.023824,0.039401,0.038179,19.68,30.3,24.78
3.4732,-9.221,-1.5527,-0.014355,0.047342,0.021686,19.74,30.3,24.78
3.4732,-9.1529,-1.5527,-0.031154,0.034819,0.0097738,19.8,30.3,24.9
3.3915,-9.0984,-1.4846,-0.029016,0.040317,-0.010385,19.86,30.48,24.84
3.3642,-9.1256,-1.4165,-0.03146,0.068111,-0.0048869,19.92,30.48,24.84
3.4459,-9.2346,-1.6072,-0.010996,0.060476,0.037263,19.92,30.42,24.84
3.5413,-9.2755,-1.6889,-0.0030543,0.018021,0.069639,19.92,30.36,24.72
3.5685,-9.3163,-1.7298,-0.0079412,-0.029322,0.098655,19.98,30.18,24.66
3.4323,-9.0848,-1.7162,-0.073609,0.000916,0.086437,20.1,29.94,24.66
3.3778,-9.1529,-1.5936,-0.097433,0.032987,0.059865,20.04,30.0,24.72
3.3915,-9.1665,-1.5391,-0.13775,0.10446,-0.010079,20.04,29.94,24.72
3.5413,-9.2482,-1.6208,-0.146,0.17104,-0.073915,19.98,29.88,24.72
3.5958,-9.1937,-1.58,-0.12767,0.14691,-0.081245,19.98,30.12,24.6
3.4868,-9.0848,-1.3757,-0.10599,0.10629,-0.066584,19.92,30.06,24.6
3.3506,-8.8396,-1.2803,-0.1014,0.10476,-0.05681,19.8,30.12,24.54
3.3097,-8.9077,-1.2939,-0.096517,0.15241,-0.042761,19.8,30.12,24.66
3.2961,-8.8941,-1.3893,-0.08094,0.15485,-0.0064141,19.74,30.24,24.72
3.4596,-8.7443,-1.4438,-0.043066,0.10751,0.019548,19.86,30.24,24.66
3.4323,-8.7306,-1.3484,-0.002138,0.039401,0.039401,19.92,30.3,24.72
3.4051,-8.7987,-1.4165,0.024129,0.014661,0.042455,19.86,30.3,24.66
3.5413,-9.112,-1.4438,0.045815,0.026573,0.093157,19.74,30.12,24.66
3.5413,-9.0575,-1.6344,0.068417,-0.0064141,0.1408,19.74,30.0,24.72
3.5549,-9.0303,-1.6344,0.058032,-0.031154,0.15302,19.8,30.0,24.66
3.3778,-9.0303,-1.2939,0.039401,0.010385,0.12401,19.92,30.06,24.66
3.3506,-9.1529,-1.2803,0.01741,0.097738,0.082467,19.8,30.06,24.78
3.5413,-9.3436,-1.4846,0.032681,0.13347,0.07758,19.8,30.06,24.72
3.8954,-9.4117,-1.7025,0.095295,0.007025,0.12462,20.1,29.76,24.72
3.8818,-9.3436,-1.7025,0.11698,-0.12095,0.15577,20.1,29.64,24.6
3.623,-9.3163,-1.757,0.10507,-0.16218,0.14722,20.16,29.52,24.54
3.4596,-9.221,-1.5527,0.03879,-0.09896,0.080023,20.04,29.52,24.54
3.5004,-9.2074,-1.7298,-0.0015272,-0.0039706,0.036041,20.34,29.46,24.54
3.6911,-9.2755,-1.7025,-0.021686,0.012523,0.0073304,20.4,29.52,24.54
3.7592,-9.2618,-1.6753,-0.024435,-0.047037,0.012523,20.52,29.64,24.66
3.5822,-9.1937,-1.6617,-0.034514,-0.15119,-0.017104,20.58,29.7,24.6
3.4187,-9.1937,-1.4438,-0.081856,-0.1066,-0.045815,20.7,29.88,24.54
3.2825,-9.3163,-1.4574,-0.095906,-0.068111,-0.067501,20.76,29.88,24.6
3.4187,-9.2891,-1.4982,-0.13775,0.045815,-0.094684,20.88,29.82,24.36
3.4868,-9.1256,-1.471,-0.135,0.038485,-0.10934,21.0,29.76,24.36
3.3506,-9.0712,-1.3757,-0.11912,-0.0030543,-0.12614,20.94,29.82,24.54
3.2553,-9.0712,-1.1169,-0.11576,-0.015272,-0.14813,21.06,29.76,24.48
3.1735,-9.0848,-1.1441,-0.099571,0.019548,-0.13806,21.12,29.76,24.48
3.1872,-9.1256,-1.2258,-0.097433,0.032376,-0.11545,21.06,29.64,24.48
3.2416,-9.0439,-1.2258,-0.059254,-0.0030543,-0.046731,20.88,29.58,24.42
3.2144,-9.0167,-1.2667,-0.029627,-0.031765,-0.012217,20.82,29.46,24.54
3.1735,-8.9486,-1.1986,-0.0033598,-0.023213,0.013744,20.7,29.52,24.54
3.2144,-9.0575,-1.2803,0.023824,0.0012217,0.073915,20.76,29.64,24.48
3.337,-9.0848,-1.3757,0.049175,-0.017104,0.12095,20.76,29.58,24.6
3.3778,-9.1256,-1.4438,0.054978,-0.028405,0.13958,20.7,29.52,24.54
3.4187,-9.112,-1.6072,0.069028,-0.048258,0.1744,20.64,29.4,24.84
3.4732,-9.1256,-1.5936,0.06017,-0.032681,0.18143,20.64,29.52,24.84
3.4732,-9.1256,-1.5119,0.028711,-0.013439,0.16554,20.64,29.46,24.66
3.5958,-9.221,-1.6753,0.0039706,-0.0058032,0.13042,20.46,29.64,24.6
3.6366,-9.2891,-1.6753,0.0061087,-0.0079412,0.11606,20.52,29.64,24.6
3.623,-9.2891,-1.7025,-0.01741,-0.002138,0.075747,20.7,29.64,24.48
3.6366,-9.2346,-1.7025,-0.032681,0.0018326,0.054978,20.7,29.64,24.6
3.623,-9.1801,-1.6481,-0.054062,0.0088575,0.034514,20.7,29.64,24.48
3.6094,-9.1665,-1.5391,-0.074831,0.022602,-0.0064141,20.88,29.64,24.48
3.514,-9.1529,-1.5119,-0.091019,0.035125,-0.047037,20.94,29.64,24.36
3.514,-9.1529,-1.471,-0.089797,0.023824,-0.046426,20.94,29.58,24.3
3.4732,-9.1393,-1.5663,-0.086132,0.022907,-0.05284,21.0,29.46,24.36
3.4459,-9.112,-1.4165,-0.076358,0.018021,-0.043982,20.94,29.52,24.3
3.4187,-8.9894,-1.4165,-0.067806,-0.0045815,-0.028405,20.94,29.58,24.24
3.4187,-8.9894,-1.4165,-0.067806,-0.0045815,-0.028405,20.94,29.58,24.24
3.3506,-9.0303,-1.4438,-0.05284,-0.000611,-0.029016,21.18,29.52,24.42
3.4187,-9.0984,-1.4165,-0.034819,-0.010079,-0.014661,21.12,29.52,24.48
3.337,-9.0712,-1.4301,-0.033292,-0.012217,0.0036652,21.06,29.58,24.66
3.3506,-9.1256,-1.4438,-0.020464,-0.024129,0.0076358,20.94,29.7,24.42
3.3778,-9.0575,-1.471,-0.013439,-0.025962,0.009163,20.94,29.76,24.54
3.3506,-9.1937,-1.3893,-0.018937,-0.022907,0.015272,20.7,29.88,24.54
3.3778,-9.1393,-1.4165,-0.010079,-0.011912,0.016493,20.7,29.88,24.66
3.3234,-9.112,-1.4301,-0.020769,-0.0079412,0.016799,20.64,30.06,24.42
3.3506,-9.1256,-1.2803,-0.009163,0.0042761,0.016493,20.64,29.94,24.42
3.3097,-9.112,-1.3757,-0.010385,0.0067195,0.021686,20.58,29.82,24.3
3.3097,-9.1529,-1.3757,-0.015272,0.0067195,0.038179,20.46,29.82,24.3
3.2825,-9.1665,-1.3076,-0.013439,0.0082467,0.037263,20.46,29.7,24.12
3.2553,-9.0848,-1.3893,-0.0061087,0.015577,0.042761,20.4,29.76,24.12
3.2825,-9.1393,-1.4574,-0.0079412,0.025962,0.054367,20.34,29.64,24.06
3.3097,-9.0712,-1.4846,0.011606,0.026573,0.055589,20.46,29.58,24.18
3.3506,-9.0575,-1.4438,0.0058032,0.020464,0.065057,20.46,29.58,24.18
3.2144,-9.1665,-1.3484,0.016493,0.033903,0.069944,20.46,29.4,24.12
3.2961,-9.0984,-1.2395,0.010996,0.03879,0.084299,20.46,29.4,24.3
3.2553,-8.9349,-1.362,0.036041,0.051007,0.086743,20.52,29.22,24.54
3.2416,-8.8941,-1.2531,0.055894,0.047647,0.093768,20.58,29.28,24.54
3.3778,-8.9758,-1.3076,0.081856,0.043066,0.11332,20.64,29.28,24.54
3.3097,-9.0848,-1.3212,0.094684,0.024435,0.14569,20.7,29.4,24.54
3.2961,-9.1529,-1.3212,0.10018,0.026573,0.16463,20.7,29.4,24.6
3.3234,-9.1256,-1.2803,0.0956,0.039706,0.16371,20.88,29.46,24.66
3.2961,-8.9894,-1.3212,0.11362,0.054672,0.15394,21.0,29.4,24.66
3.4187,-9.0303,-1.3076,0.13378,0.029016,0.15547,21.12,29.58,24.48
3.4187,-9.0712,-1.5255,0.14447,0.01069,0.15547,21.18,29.46,24.3
3.3506,-9.1801,-1.4165,0.16066,-0.009163,0.15211,21.3,29.46,24.3
3.3506,-9.2482,-1.2395,0.13531,-0.0015272,0.14508,21.42,29.4,24.18
3.3915,-9.3163,-1.2531,0.11576,0.031765,0.13653,21.66,29.28,24.06
3.4596,-9.2891,-1.2803,0.1014,0.054978,0.10812,21.9,29.34,23.88
3.4596,-9.3163,-1.3757,0.096822,0.042455,0.062919,22.08,29.28,23.58
3.4732,-9.3436,-1.2258,0.089797,0.03543,0.045815,22.2,29.28,23.52
3.4459,-9.3572,-1.2803,0.089492,0.019242,0.020159,22.32,29.22,23.58
3.3915,-9.4117,-1.3212,0.044593,0.051313,-0.013134,22.32,29.4,23.1
3.3506,-9.4798,-1.3212,0.014661,0.064752,-0.036652,22.44,29.28,23.04
3.3778,-9.507,-1.362,-0.009163,0.060781,-0.045509,22.38,29.34,22.98
3.3506,-9.4934,-1.2258,-0.034208,0.039095,-0.065363,22.62,29.28,22.74
3.3915,-9.4389,-1.2258,-0.069639,0.043371,-0.09499,22.8,29.34,22.86
3.2825,-9.4389,-1.2531,-0.087659,0.051618,-0.12126,22.92,29.4,22.68
3.337,-9.6023,-1.185,-0.11545,0.062308,-0.13683,23.16,29.52,22.44
3.4732,-9.5751,-1.2803,-0.12156,0.045204,-0.14111,23.04,29.46,22.38
3.4187,-9.5887,-1.3212,-0.135,0.01069,-0.13958,22.86,29.4,22.38
3.2689,-9.4661,-1.2122,-0.15882,-0.017715,-0.14997,22.86,29.4,22.5
3.3097,-9.3436,-1.2803,-0.16738,0.0024435,-0.1741,22.68,29.52,22.56
3.2144,-9.3027,-1.2803,-0.17318,0.015882,-0.17776,22.68,29.46,22.5
3.2553,-9.2482,-1.3212,-0.21258,0.061697,-0.19548,22.5,29.28,22.68
3.2008,-9.1529,-1.2258,-0.22449,0.072693,-0.197,22.44,29.4,22.86
3.228,-9.0575,-1.2258,-0.23091,0.076358,-0.19487,22.44,29.4,23.1
3.2553,-9.0439,-1.2258,-0.21838,0.062003,-0.16157,22.26,29.22,23.16
3.2961,-9.0984,-1.2122,-0.21686,0.049175,-0.14416,21.9,29.22,23.34
3.3778,-9.0984,-1.3484,-0.20495,0.01741,-0.11393,21.78,29.16,23.52
3.3642,-9.1937,-1.2531,-0.19212,-0.023824,-0.076053,21.6,29.28,23.52
3.4051,-9.2482,-1.2939,-0.20769,-0.023213,-0.047037,21.36,29.34,23.94
3.3097,-9.1665,-1.3076,-0.21533,-0.012523,-0.039095,21.3,29.52,24.06
3.3778,-9.1801,-1.2667,-0.21319,0.0039706,-0.036652,21.0,29.7,24.42
3.6094,-9.0848,-1.4165,-0.20433,-0.018631,-0.054367,20.88,29.7,24.48
3.623,-9.0575,-1.2258,-0.2025,-0.032376,-0.055589,20.82,29.7,24.54
3.6503,-9.0575,-1.3348,-0.18723,-0.072693,-0.073915,20.64,29.7,24.6
3.623,-8.9894,-1.3757,-0.18937,-0.076969,-0.078496,20.52,29.76,24.96
3.6503,-8.9622,-1.4438,-0.18784,-0.0562,-0.086437,20.46,29.82,24.84
3.6775,-9.0575,-1.3757,-0.18448,-0.04612,-0.087659,20.52,29.88,25.02
3.732,-9.0303,-1.4165,-0.18418,-0.063225,-0.085827,20.4,30.12,25.2
3.8137,-9.0303,-1.362,-0.17257,-0.078191,-0.085521,20.22,30.18,25.44
3.7592,-9.0575,-1.4438,-0.16616,-0.084605,-0.086743,20.16,30.24,25.56
3.8546,-8.9894,-1.6072,-0.15211,-0.084605,-0.087659,19.98,30.18,25.8
3.8682,-9.0575,-1.5119,-0.15944,-0.077885,-0.095295,19.98,30.18,25.8
3.8137,-8.8941,-1.58,-0.14783,-0.078191,-0.099266,19.92,30.18,25.86
3.8546,-8.9213,-1.6344,-0.12889,-0.10293,-0.10629,19.98,30.18,26.04
3.8682,-8.8805,-1.7979,-0.11698,-0.11698,-0.10385,19.92,30.24,26.34
3.9227,-8.826,-1.6344,-0.10934,-0.13653,-0.1014,19.98,30.24,26.52
3.8818,-8.7715,-1.6753,-0.10263,-0.15272,-0.10415,19.98,30.3,26.58
3.8001,-8.7715,-1.757,-0.086132,-0.15516,-0.11362,19.98,30.24,26.76
3.8409,-8.717,-1.757,-0.095295,-0.15302,-0.1124,19.8,30.42,26.88
3.8546,-8.7034,-1.6889,-0.077274,-0.12828,-0.11668,19.74,30.48,26.82
3.9227,-8.7987,-1.6753,-0.072082,-0.1295,-0.10476,19.8,30.42,26.76
3.9227,-8.8124,-1.7162,-0.054672,-0.14875,-0.087659,19.86,30.3,26.88
3.909,-8.8532,-1.7298,-0.036041,-0.16921,-0.08094,19.68,30.54,26.88
3.8954,-8.826,-1.7979,-0.020464,-0.18143,-0.068722,19.62,30.42,27.06
3.8546,-8.7034,-1.8387,-0.016799,-0.15058,-0.05284,19.44,30.36,27.06
3.8409,-8.6489,-1.7434,-0.011912,-0.13164,-0.048564,19.38,30.24,27.0
3.909,-8.6353,-1.7843,-0.0018326,-0.12034,-0.041539,19.44,30.18,26.94
3.9363,-8.6762,-1.757,0.011606,-0.12553,-0.033903,19.44,30.12,26.88
4.018,-8.6762,-1.9068,0.027489,-0.14997,-0.029627,19.32,30.0,26.88
3.9771,-8.7306,-1.9341,0.040623,-0.15363,-0.010385,19.26,30.06,26.82
3.9771,-8.9894,-1.9477,0.035736,-0.12065,0.0064141,19.14,30.12,26.76
3.9635,-8.8941,-2.0022,0.011912,-0.082161,0.0281,19.2,30.0,26.82
3.9908,-8.8532,-1.9886,0.018326,-0.07422,0.015577,19.08,30.06,26.88
4.0997,-8.8805,-2.152,0.025351,-0.073304,0.011606,18.84,30.24,26.76
4.127,-8.9077,-2.1384,0.015577,-0.074831,0.0082467,18.72,30.18,26.76
4.1133,-8.9622,-2.2201,0.0061087,-0.072082,0.014966,18.9,30.18,26.76
4.127,-8.8941,-2.152,-0.0033598,-0.079412,0.016799,18.9,30.42,26.76
4.1542,-8.8941,-2.2065,-0.026573,-0.089492,0.0018326,18.96,30.42,26.7
4.0589,-8.7987,-2.1248,-0.040317,-0.088575,-0.0045815,18.9,30.54,26.76
4.0589,-8.9622,-2.152,-0.057727,-0.078191,-0.030849,18.9,30.6,26.76
3.9908,-8.9486,-2.0703,-0.073915,-0.064752,-0.022297,18.96,30.6,26.76
4.0452,-8.7851,-2.0294,-0.097433,-0.021075,-0.058338,18.9,30.6,26.7
3.9227,-8.826,-1.975,-0.10934,-0.0082467,-0.069944,18.96,30.6,26.64
3.9908,-8.9077,-1.9341,-0.10782,0.013439,-0.072388,18.9,30.66,26.7
3.9635,-9.0575,-1.9477,-0.083383,0.0054978,-0.066584,18.9,30.48,26.64
3.9635,-9.0031,-1.9205,-0.081245,-0.014661,-0.051313,18.96,30.3,26.76
3.8682,-8.9758,-1.9205,-0.075136,-0.014966,-0.043066,18.96,30.36,26.76
3.8682,-8.9486,-1.866,-0.077274,-0.0024435,-0.025045,18.96,30.36,26.82
3.8818,-8.9622,-1.975,-0.05681,-0.000611,-0.022907,18.9,30.24,26.76
3.8273,-8.8805,-1.9341,-0.062003,0.0085521,-0.0051924,18.9,30.3,26.88
3.8137,-8.826,-1.9613,-0.054367,-0.0045815,0.021075,18.84,30.42,26.88
3.7728,-8.717,-1.866,-0.047953,0.000305,0.034208,18.66,30.54,26.94
3.7865,-8.7987,-1.8524,-0.041233,0.0012217,0.041233,18.66,30.6,26.88
3.8001,-8.7306,-2.0022,-0.032681,0.0048869,0.063835,18.72,30.48,26.76
3.8682,-8.8668,-1.9477,-0.021991,-0.012523,0.091324,18.66,30.48,26.82
3.8818,-8.8668,-1.9341,-0.0042761,-0.035736,0.10568,18.66,30.66,27.0
3.8682,-8.9758,-1.9068,-0.011912,-0.034514,0.12187,18.66,30.72,26.94
3.8137,-8.9622,-1.866,0.0058032,-0.027184,0.12675,18.78,30.66,26.94
3.8682,-8.9077,-1.9886,0.0076358,-0.010385,0.12798,18.78,30.66,27.0
3.9908,-8.7715,-2.0294,0.015272,-0.046731,0.12767,18.84,30.54,26.94
3.8954,-8.7715,-1.975,0.020159,-0.077274,0.12401,18.84,30.6,26.94
3.8682,-8.7579,-1.8932,0.033903,-0.092546,0.1124,18.9,30.42,26.88
3.8137,-8.7579,-1.8932,0.03207,-0.065973,0.1066,18.9,30.3,26.88
3.8818,-8.7851,-1.9477,0.025351,-0.042455,0.11179,19.02,30.24,26.88
3.8546,-8.7987,-1.9341,0.03543,-0.027794,0.12309,19.14,30.24,26.94
3.8273,-8.717,-1.8932,0.041539,-0.03146,0.14142,19.32,30.3,26.94
3.9227,-8.6762,-1.8115,0.058338,-0.04612,0.13806,19.38,30.36,26.94
3.909,-8.7443,-1.9068,0.076969,-0.083383,0.13622,19.56,30.18,26.7
4.0316,-8.7579,-1.9205,0.09896,-0.12187,0.13622,19.8,30.12,26.64
3.9908,-8.8532,-2.1248,0.094379,-0.1347,0.11545,19.86,30.12,26.7
4.0044,-8.9349,-1.9068,0.10873,-0.13103,0.10507,19.98,30.18,26.64
3.8273,-8.8941,-1.9205,0.095906,-0.10599,0.043371,20.1,30.3,26.64
3.8954,-8.8668,-1.8932,0.11118,-0.10843,0.000916,20.22,30.3,26.58
3.9227,-8.8668,-1.8932,0.11057,-0.13592,-0.014966,20.04,30.54,26.52
3.7047,-8.8396,-1.9613,0.12309,-0.1628,-0.023824,20.28,30.66,26.28
3.5685,-8.7306,-1.9341,0.1069,-0.10446,-0.027794,20.34,30.54,26.22
3.5549,-8.7715,-1.9341,0.098349,-0.057727,-0.029016,20.28,30.72,26.16
3.6639,-8.8805,-1.8796,0.069944,0.025045,-0.037874,20.34,30.66,26.04
3.7184,-8.9758,-1.9205,0.065973,0.013134,-0.035125,20.52,30.54,25.92
3.7592,-9.0712,-2.0431,0.076664,-0.027794,-0.029016,20.58,30.66,25.86
3.7728,-9.0712,-2.0431,0.072693,-0.059865,-0.02474,20.76,30.66,25.74
3.6366,-9.0575,-2.0567,0.061697,-0.04948,-0.020159,20.82,30.9,25.44
3.5958,-9.0712,-1.9886,0.054367,-0.026878,-0.027184,20.82,30.84,25.44
3.6094,-9.112,-1.9886,0.041539,-0.010079,-0.035125,20.88,30.72,25.32
3.6366,-9.0984,-1.9886,0.013744,-0.0033598,-0.057116,21.06,30.72,25.14
3.6775,-9.0848,-2.0158,0.0012217,-0.0094684,-0.055283,21.06,30.66,25.08
3.5958,-8.9894,-2.0022,-0.007025,-0.050091,-0.031765,20.94,30.54,25.08
3.6503,-9.0575,-1.8387,-0.011912,-0.055283,-0.038485,21.0,30.72,24.96
3.5685,-9.0984,-1.8387,-0.018326,-0.05284,-0.036041,21.0,30.6,24.9
3.5958,-9.0575,-1.7434,-0.015882,-0.0562,-0.027184,21.0,30.72,24.78
3.6775,-9.0167,-1.7025,-0.0094684,-0.086132,-0.0042761,20.7,30.72,24.72
3.6094,-8.9349,-1.8387,0.0024435,-0.12339,0.0012217,20.7,30.66,24.72
3.5685,-8.9894,-1.6753,0.009163,-0.15608,0.031765,20.58,30.6,24.72
3.5685,-8.9894,-1.6889,0.020464,-0.17379,0.062919,20.58,30.48,24.9
3.5549,-8.9486,-1.6481,0.029322,-0.17135,0.064446,20.58,30.48,24.84
3.5822,-8.8941,-1.6753,0.025656,-0.1741,0.072388,20.58,30.6,24.84
3.4596,-9.0167,-1.7298,0.020769,-0.13714,0.072693,20.46,30.72,24.72
3.4459,-9.0303,-1.7162,0.000611,-0.050091,0.079718,20.64,30.72,24.6
3.5413,-9.0303,-1.7843,-0.017104,0.02138,0.079107,20.76,30.78,24.66
3.7184,-8.9894,-1.8387,-0.01741,0.043982,0.086743,20.88,30.6,24.48
3.623,-9.0167,-1.9341,-0.012217,0.011606,0.084299,20.94,30.48,24.48
3.623,-9.112,-1.9886,-0.011606,0.029627,0.083994,21.06,30.42,24.48
3.6094,-9.0439,-1.866,-0.03879,0.082772,0.06017,21.18,30.54,24.3
3.6775,-8.8532,-1.8387,-0.042761,0.093462,0.055283,21.18,30.72,24.36
3.8001,-8.8668,-1.9613,-0.04612,0.053451,0.034208,21.3,30.78,24.3
3.7184,-8.9758,-1.7979,-0.03879,-0.002138,0.021075,21.3,30.84,24.24
3.623,-9.1256,-1.8387,-0.037874,-0.033598,0.016493,21.18,30.84,24.18
3.6094,-9.0848,-1.866,-0.041844,-0.022602,0.016493,21.3,30.84,24.24
3.7047,-9.0303,-1.8387,-0.047953,0.019242,0.012217,21.3,30.9,24.3
3.732,-8.8396,-1.7298,-0.057116,0.018937,0.0036652,21.24,30.66,24.36
3.6911,-8.8668,-1.7298,-0.050091,0.0012217,-0.02474,21.12,30.66,24.3
3.6775,-8.9349,-1.7025,-0.047342,-0.000916,-0.040317,20.94,30.9,24.36
3.6639,-9.0031,-1.7162,-0.042455,0.000611,-0.04215,21.0,31.02,24.42
3.6911,-9.0303,-1.7843,-0.03879,-0.033903,-0.026267,20.82,31.14,24.54
3.6366,-9.0303,-1.7979,-0.043066,-0.044593,-0.018631,20.76,31.02,24.6
3.6094,-9.0712,-1.7706,-0.032681,-0.03146,-0.031154,20.7,31.08,24.6
3.5549,-9.0712,-1.6753,-0.051007,0.015577,-0.036957,20.4,31.02,24.84
3.5413,-9.0575,-1.7162,-0.049175,0.04612,-0.057116,20.4,31.02,24.78
3.7047,-9.0575,-1.7162,-0.047647,0.041233,-0.060781,20.28,31.2,24.9
3.5685,-8.8941,-1.7025,-0.038179,-0.011301,-0.072082,20.22,31.14,24.96
3.4732,-8.9349,-1.6753,-0.030543,-0.0097738,-0.075442,20.22,31.08,24.9
3.4459,-8.9894,-1.5936,-0.024435,0.018937,-0.083994,20.22,31.32,24.96
3.5549,-8.9894,-1.6481,-0.017104,0.041233,-0.065973,20.22,31.38,25.02
3.6366,-8.9622,-1.6208,-0.007025,0.014661,-0.032681,20.16,31.26,25.2
3.514,-8.9894,-1.7706,0.012828,-0.050396,0.0048869,20.1,31.14,25.14
3.5413,-8.9622,-1.7162,0.022297,-0.07758,0.027489,20.04,31.02,25.08
3.4732,-8.9894,-1.757,0.032376,-0.062003,0.053756,20.04,31.08,25.02
3.5822,-9.0848,-1.7706,0.011606,-0.022602,0.058338,20.22,31.14,24.96
3.7047,-9.0303,-1.8524,0.0054978,-0.0015272,0.04612,20.22,31.02,25.02
3.6094,-9.0303,-1.7843,-0.0051924,-0.0076358,0.044593,20.28,30.84,25.02
3.6366,-9.0303,-1.7979,-0.011606,-0.0073304,0.029016,20.4,30.84,24.78
3.6911,-9.0848,-1.8387,-0.0064141,-0.0076358,0.022297,20.4,30.78,24.78
3.7456,-9.0984,-1.7706,-0.012523,-0.022297,0.03879,20.28,30.84,24.78
3.732,-9.0575,-1.7162,0.000305,-0.050702,0.062614,20.28,30.96,24.72
3.5822,-9.0575,-1.6889,-0.011301,-0.05681,0.074831,20.22,30.6,24.6
3.6366,-9.0031,-1.7434,-0.02474,-0.029016,0.068111,20.34,30.72,24.48
3.6094,-9.0575,-1.7162,-0.040012,0.016799,0.064141,20.16,30.9,24.48
3.6775,-8.9894,-1.7025,-0.036346,0.03146,0.058032,20.4,30.96,24.42
3.6911,-8.9894,-1.7298,-0.03207,0.01405,0.054367,20.52,30.9,24.48
3.6775,-8.9758,-1.7979,-0.029627,-0.0073304,0.061392,20.46,30.72,24.54
3.6503,-9.0439,-1.7979,-0.039401,-0.0079412,0.050091,20.46,30.84,24.42
3.6366,-8.9486,-1.7025,-0.052229,0.014966,0.036346,20.4,30.84,24.42
3.6094,-9.0031,-1.7979,-0.05681,0.044899,0.02138,20.4,30.72,24.48
3.6366,-8.9622,-1.7706,-0.067806,0.075136,0.0085521,20.28,30.78,24.48
3.7592,-8.9486,-1.6889,-0.058643,0.069944,0.011912,20.4,30.6,24.54
3.732,-8.8941,-1.7298,-0.050702,0.038485,0.019242,20.46,30.42,24.3
3.732,-8.9486,-1.6753,-0.033292,0.020769,0.011912,20.58,30.42,24.36
3.7728,-8.9758,-1.7706,-0.038179,0.014661,0.018631,20.64,30.36,24.42
3.7047,-9.0439,-1.7706,-0.03207,0.023213,0.02138,20.76,30.12,24.42
3.732,-9.0303,-1.7706,-0.033598,0.023824,0.026573,20.64,29.88,24.42
3.7184,-9.0439,-1.7298,-0.034514,0.026878,0.021991,20.58,29.88,24.3
3.6366,-8.9894,-1.7298,-0.036041,0.037874,0.012217,20.88,30.06,24.24
3.6366,-8.9213,-1.7843,-0.043371,0.039706,0.0094684,20.82,30.0,24.24
3.5958,-8.9622,-1.7843,-0.040928,0.054978,0.012523,20.88,30.0,24.18
3.6094,-8.826,-1.7025,-0.046426,0.069028,0.023824,20.82,30.06,24.3
3.5822,-8.7987,-1.6889,-0.046731,0.083383,0.034819,20.94,30.12,24.36
3.6094,-8.8396,-1.6481,-0.034208,0.083689,0.032376,21.0,30.24,24.42
3.7047,-8.9894,-1.7025,-0.013744,0.058338,0.04948,20.94,30.3,24.48
3.7865,-8.9622,-1.6753,0.0058032,0.029016,0.069944,20.64,30.42,24.42
3.732,-8.9894,-1.6753,0.021686,0.0036652,0.071471,20.64,30.66,24.36
3.732,-9.0303,-1.7025,0.0281,-0.0039706,0.06353,20.64,30.78,24.42
3.7184,-9.0303,-1.757,0.010996,0.0281,0.033598,20.82,31.02,24.42
3.7592,-9.0303,-1.757,0.0024435,0.049175,0.011301,20.88,30.96,24.54
3.8001,-9.0575,-1.7025,-0.011912,0.0562,-0.0018326,20.88,30.9,24.54
3.8001,-8.9894,-1.7025,-0.0051924,0.047647,-0.0042761,20.94,30.84,24.6
3.8682,-9.0303,-1.6889,-0.000611,0.010996,0.0051924,21.0,30.84,24.54
3.8546,-9.0167,-1.7434,0.0051924,-0.044593,0.01405,21.0,30.96,24.54
3.8001,-9.0575,-1.7298,0.0097738,-0.0562,0.0088575,21.06,30.9,24.36
3.732,-9.0712,-1.7298,-0.0024435,-0.043677,-0.0061087,21.06,30.9,24.36
3.8001,-9.0031,-1.7298,-0.0058032,-0.030849,-0.031765,21.12,30.9,24.36
3.8273,-9.1256,-1.8524,-0.012828,-0.047037,-0.044899,21.24,30.96,24.48
3.7728,-9.112,-1.7706,-0.01741,-0.077885,-0.039706,21.18,30.66,24.42
3.6775,-8.8805,-1.6753,-0.025962,-0.087354,-0.05284,21.06,30.6,24.36
3.6366,-9.0439,-1.7706,-0.040317,-0.05284,-0.067195,20.88,30.42,24.24
3.7047,-9.0031,-1.6617,-0.054062,-0.030849,-0.058032,20.82,30.48,24.36
3.7865,-8.9758,-1.6344,-0.05284,-0.030849,-0.060781,20.76,30.48,24.3
3.6911,-9.0712,-1.4574,-0.053451,-0.058948,-0.058032,20.64,30.54,24.36
3.6366,-9.0575,-1.471,-0.036346,-0.07086,-0.057421,20.46,30.66,24.48
3.6094,-9.1256,-1.5936,-0.041233,-0.061087,-0.044593,20.46,30.6,24.42
3.7728,-9.0984,-1.4982,-0.025656,-0.083689,-0.02138,20.46,30.54,24.3
3.7592,-8.9894,-1.5255,-0.016188,-0.10293,-0.021991,20.4,30.6,24.3
3.6094,-8.9894,-1.5391,-0.0048869,-0.1127,-0.027489,20.4,30.54,24.24
3.6366,-9.0303,-1.5527,0.0018326,-0.10751,-0.035125,20.4,30.54,24.12
3.7047,-9.1529,-1.6072,0.0082467,-0.10415,-0.0067195,20.46,30.72,24.18
3.7184,-9.0848,-1.6481,0.007025,-0.12217,0.0027489,20.46,30.66,24.18
3.6366,-9.0848,-1.58,0.0088575,-0.13103,0.0061087,20.34,30.66,24.24
3.5822,-8.9894,-1.7025,0.0042761,-0.10415,-0.007025,20.34,30.66,24.06
3.5685,-9.0575,-1.6753,0.0015272,-0.087965,0.0012217,20.28,30.78,23.82
3.6911,-9.0167,-1.6481,0.0064141,-0.076358,0.0064141,20.28,30.84,23.7
3.6639,-8.8941,-1.5936,-0.014661,-0.078191,0.01405,20.34,30.72,23.64
3.6775,-8.9894,-1.5255,-0.010079,-0.071166,0.0048869,20.4,30.72,23.52
3.6503,-9.0712,-1.58,-0.021686,-0.03543,0.0012217,20.16,30.84,23.58
3.7047,-8.9894,-1.6481,-0.03207,-0.025045,0.0012217,20.1,30.84,23.64
3.7047,-8.9758,-1.6753,-0.028711,-0.025045,0.000611,20.04,30.84,23.7
3.6775,-9.0303,-1.5255,-0.022907,-0.023518,0.0033598,19.98,30.78,23.64
3.6911,-9.0575,-1.5936,-0.025962,-0.018937,0.0033598,19.8,30.6,23.46
3.7047,-9.0575,-1.5663,-0.011301,-0.019548,0.018021,19.8,30.66,23.4
3.732,-8.8941,-1.5527,-0.0036652,-0.036346,0.029627,19.74,30.6,23.46
3.623,-8.9622,-1.58,-0.0058032,-0.044899,0.03543,19.5,30.66,23.34
3.6094,-8.9349,-1.5663,-0.022297,0.0064141,0.017715,19.44,30.6,23.52
3.5822,-8.9213,-1.6481,-0.031765,0.025656,0.014355,19.56,30.66,23.4
3.8682,-8.9758,-1.6072,-0.022907,0.026573,0.017104,19.5,30.54,23.34
3.8273,-8.9894,-1.6344,-0.011301,-0.0030543,0.024129,19.44,30.48,23.28
3.7728,-8.9622,-1.6208,0.002138,-0.022297,0.030849,19.38,30.48,23.34
3.6639,-8.8668,-1.5663,-0.0018326,-0.011606,0.029932,19.38,30.42,23.1
3.7456,-9.0031,-1.5391,-0.0085521,-0.000305,0.035125,19.38,30.24,23.22
3.732,-9.0575,-1.6208,-0.010079,0.0027489,0.036041,19.5,30.3,23.28
3.8001,-9.0303,-1.6072,-0.015577,-0.0088575,0.03146,19.56,30.3,23.22
3.7728,-9.0303,-1.6344,-0.023213,-0.0082467,0.01741,19.62,30.42,23.46
3.7456,-9.0848,-1.6889,-0.035125,0.020159,0.010996,19.68,30.36,23.4
3.732,-8.9894,-1.6344,-0.062614,0.062003,-0.0085521,19.74,30.42,23.46
3.7047,-8.9758,-1.6753,-0.068722,0.067501,-0.016799,19.8,30.24,23.34
3.732,-8.9758,-1.6481,-0.069333,0.068111,-0.023824,19.68,30.12,23.46
3.7592,-9.0031,-1.6617,-0.062308,0.043371,-0.021686,19.62,30.18,23.52
3.7592,-8.9894,-1.6753,-0.058948,0.026878,-0.014966,19.74,30.3,23.64
3.7592,-8.9622,-1.58,-0.064752,0.028405,-0.0067195,19.68,30.18,23.58
3.7728,-9.0303,-1.5936,-0.070555,0.023824,0.000305,19.68,30.18,23.58
3.7865,-9.0031,-1.6481,-0.062308,0.026573,-0.000916,19.68,30.3,23.46
3.7456,-8.9894,-1.6889,-0.066279,0.01741,0.01069,19.56,30.36,23.52
3.8273,-8.9486,-1.58,-0.056505,0.010385,0.020159,19.5,30.54,23.7
3.8273,-8.9213,-1.6344,-0.053451,-0.0097738,0.025656,19.5,30.48,23.58
3.8546,-8.9349,-1.8251,-0.050396,-0.027794,0.023213,19.44,30.42,23.7
3.9363,-9.0031,-1.6889,-0.061392,-0.055283,0.021075,19.5,30.54,23.7
3.8818,-9.0575,-1.7706,-0.076664,-0.065363,-0.0015272,19.5,30.6,23.88
3.8954,-9.0439,-1.7162,-0.0956,-0.050091,-0.036652,19.5,30.72,23.88
3.8954,-9.0575,-1.5663,-0.089186,-0.038179,-0.07086,19.56,30.78,23.94
3.8954,-9.0848,-1.58,-0.08491,-0.050091,-0.083994,19.38,30.72,23.88
3.9499,-9.0303,-1.7025,-0.060781,-0.096517,-0.082772,19.44,30.78,23.82
3.7184,-9.0848,-1.58,-0.055894,-0.12187,-0.069333,19.5,30.78,23.94
3.6094,-9.0167,-1.4574,-0.07086,-0.065363,-0.08491,19.62,30.72,24.0
3.5822,-9.0984,-1.4301,-0.065973,-0.033598,-0.081856,19.68,30.72,23.82
3.732,-9.0848,-1.6753,-0.058338,0.0097738,-0.071777,19.68,30.6,23.82
3.7728,-9.0848,-1.7162,-0.036957,-0.019853,-0.041844,19.68,30.6,23.7
3.7184,-9.0439,-1.6072,-0.0036652,-0.085521,-0.011912,19.62,30.6,23.58
3.6094,-8.9894,-1.58,0.0088575,-0.10751,0.016493,19.56,30.48,23.82
3.4596,-8.9622,-1.6889,0.0088575,-0.082772,0.039401,19.56,30.6,23.76
3.514,-8.9622,-1.7162,0.018326,-0.072693,0.050702,19.62,30.66,23.76
3.6366,-8.8805,-1.866,0.025045,-0.076358,0.10293,19.5,30.84,23.58
3.6366,-8.7715,-1.7706,0.012523,-0.07422,0.11759,19.62,30.78,23.64
3.5277,-8.7987,-1.7298,0.0039706,-0.049786,0.10629,19.5,30.72,23.82
3.623,-8.9894,-1.8251,-0.01069,0.0048869,0.1066,19.62,30.78,23.82
3.6775,-9.0439,-1.8387,-0.011301,0.023518,0.1182,19.62,30.96,23.88
3.6366,-8.9349,-1.8796,-0.014966,0.018631,0.13164,19.56,30.9,23.94
3.6366,-8.8396,-1.7706,-0.014661,0.034514,0.13897,19.56,30.72,24.0
3.6775,-8.9213,-1.757,-0.0082467,0.050396,0.1408,19.62,30.78,24.24
3.7728,-8.9894,-1.7298,-0.01405,0.062308,0.1405,19.68,30.66,24.24
3.8273,-8.9349,-1.866,-0.0027489,0.045509,0.1463,19.8,30.84,23.88
3.7728,-8.8668,-1.7979,0.0058032,0.028711,0.15699,19.8,30.72,23.76
3.6503,-8.7987,-1.7979,0.0079412,0.038179,0.15088,19.74,30.54,23.64
3.8682,-8.9486,-1.6753,-0.0045815,0.08827,0.11606,19.86,30.12,23.88
3.9363,-8.9486,-1.6617,-0.002138,0.086132,0.10476,20.04,30.18,23.82
3.8954,-8.9894,-1.7979,0.0079412,0.054062,0.094684,20.04,30.12,23.76
3.8954,-9.0031,-1.8387,0.022297,0.018937,0.087965,20.1,30.18,23.64
3.8273,-9.0439,-1.8524,0.017104,0.019548,0.071471,20.1,30.06,23.7
3.8273,-9.0303,-1.8387,-0.000916,0.037568,0.044593,20.22,30.0,23.76
3.8546,-8.9894,-1.9205,-0.014355,0.041844,0.023518,20.46,30.0,23.58
3.8409,-8.9622,-1.9068,-0.02474,0.0281,0.0033598,20.4,30.12,23.46
3.8682,-8.9622,-1.8251,-0.03207,0.015272,-0.025962,20.52,30.12,23.52
3.732,-9.0712,-1.9341,-0.046731,0.0097738,-0.040317,20.52,29.82,23.52
3.7728,-9.0848,-1.866,-0.06017,0.011606,-0.053756,20.52,29.76,23.76
3.6911,-9.0303,-1.8932,-0.058643,0.0058032,-0.056505,20.58,29.88,23.82
3.6366,-8.9894,-1.7979,-0.066279,0.0027489,-0.054978,20.64,29.94,23.88
3.5958,-9.0439,-1.7706,-0.065363,-0.0033598,-0.054367,20.64,29.94,23.76
3.623,-9.0167,-1.7025,-0.056505,-0.014355,-0.05284,20.64,30.06,23.76
3.5685,-9.0031,-1.7706,-0.044899,-0.031765,-0.039706,20.64,29.94,23.7
3.5685,-9.0167,-1.7025,-0.041844,-0.039401,-0.021075,20.64,29.94,23.58
3.5822,-9.0575,-1.6617,-0.037568,-0.033903,-0.018937,20.52,29.88,23.46
3.5413,-9.0167,-1.757,-0.036957,-0.02138,-0.013439,20.34,30.0,23.58
3.5413,-9.0439,-1.7706,-0.045204,-0.014355,-0.018631,20.4,29.94,23.64
3.5549,-9.0575,-1.5663,-0.044899,-0.010385,-0.010385,20.28,30.3,23.76
3.5685,-9.0575,-1.6344,-0.040317,-0.013744,-0.0094684,20.22,30.24,23.76
3.514,-9.0167,-1.7025,-0.027794,-0.014355,0.0064141,20.16,30.3,23.58
3.4868,-9.0031,-1.7025,-0.022602,-0.016493,0.0079412,20.22,30.42,23.7
3.5413,-9.0303,-1.7025,-0.0085521,-0.0045815,0.014355,20.28,30.42,23.64
3.5413,-9.112,-1.6753,-0.0097738,0.0045815,0.028711,20.22,30.36,23.76
3.514,-9.0984,-1.7706,-0.017715,0.0094684,0.044593,20.34,30.42,23.76
3.6094,-9.0439,-1.6753,-0.014966,0.000305,0.055589,20.28,30.42,24.0
3.5822,-9.0712,-1.7843,-0.012828,-0.0067195,0.054978,20.1,30.48,24.06
3.5413,-9.0575,-1.8251,-0.0281,-0.0012217,0.048258,20.4,30.42,24.06
3.5413,-9.0575,-1.8251,-0.029322,0.0048869,0.048258,20.4,30.42,24.06
3.5549,-9.0031,-1.8387,-0.027184,0.0073304,0.03879,20.4,30.42,23.88
3.5958,-9.0575,-1.8115,-0.043371,0.012523,0.037263,20.46,30.24,23.82
3.6911,-9.0575,-1.7979,-0.047647,0.0085521,0.036346,20.4,30.12,23.7
3.6911,-9.0575,-1.6889,-0.059254,0.012523,0.036957,20.58,30.24,23.82
3.5822,-9.0439,-1.6889,-0.064752,0.029932,0.029627,20.52,30.18,23.64
3.6503,-8.9894,-1.7706,-0.069944,0.034819,0.016799,20.52,30.18,23.64
3.6366,-9.0167,-1.7979,-0.062308,0.037568,0.014355,20.58,30.12,23.64
3.5958,-9.0303,-1.7706,-0.064141,0.033292,0.014966,20.52,30.18,23.7
3.5549,-8.9622,-1.7025,-0.06353,0.024129,0.023213,20.4,30.0,23.46
3.5958,-8.9894,-1.7298,-0.060781,0.023518,0.022602,20.46,30.0,23.4
3.5958,-9.0303,-1.757,-0.06017,0.024129,0.017104,20.7,30.06,23.34
3.514,-8.9894,-1.757,-0.071777,0.042761,0.0082467,20.7,30.18,23.52
3.5277,-9.0031,-1.6753,-0.074831,0.061392,0.0033598,20.82,30.12,23.64
3.514,-9.0167,-1.7025,-0.067195,0.065973,0.0024435,20.88,30.24,23.64
3.5549,-8.9622,-1.7706,-0.072998,0.063835,0.0048869,21.12,30.36,23.76
3.5413,-9.0439,-1.7706,-0.055283,0.047037,0.014661,21.36,30.42,23.7
3.5277,-9.0303,-1.7162,-0.061087,0.050702,0.0281,21.48,30.42,23.76
3.5958,-9.0439,-1.757,-0.058643,0.050091,0.025656,21.36,30.36,23.82
3.5685,-9.0575,-1.7706,-0.055894,0.051924,0.025045,21.6,30.36,24.18
3.5822,-8.9894,-1.7706,-0.0562,0.048258,0.02138,21.66,30.24,24.36
3.5958,-9.0303,-1.8524,-0.045509,0.046731,0.015272,21.54,30.36,24.36
3.5549,-9.0575,-1.8115,-0.04612,0.048564,0.018021,21.48,30.36,24.42
3.6503,-8.9894,-1.8387,-0.059254,0.051618,0.02474,21.48,30.42,24.54
3.6503,-8.9758,-1.8115,-0.058032,0.036346,0.020464,21.42,30.3,24.48
3.6094,-9.0167,-1.866,-0.061697,0.02474,0.030543,21.24,30.24,24.72
3.623,-8.9894,-1.757,-0.049175,0.017104,0.033903,21.3,30.18,24.6
3.6639,-8.9894,-1.8387,-0.05681,0.013744,0.023213,21.24,30.18,24.6
3.6503,-9.0303,-1.7706,-0.055589,0.015272,0.02474,21.12,30.24,24.36
3.6775,-9.0303,-1.6889,-0.061392,0.025045,0.014355,21.18,30.24,24.48
3.5685,-8.9349,-1.7979,-0.055283,0.021991,0.0067195,21.24,30.24,24.42
3.6911,-9.0303,-1.7706,-0.055283,0.023518,0.0079412,21.18,30.18,24.6
3.6366,-9.0303,-1.7434,-0.037568,0.0054978,0.0042761,21.0,30.06,24.54
3.623,-9.0439,-1.8524,-0.03879,0.000305,0.0094684,20.94,30.06,24.48
3.5549,-9.0167,-1.8115,-0.043677,0.0015272,0.010385,20.94,30.06,24.42
3.5685,-9.0439,-1.7025,-0.040623,0.009163,0.012217,20.94,29.94,24.36
3.6366,-9.0848,-1.8524,-0.032376,0.0079412,0.013744,20.88,30.06,24.3
3.5958,-9.0031,-1.8115,-0.032376,-0.0012217,0.016188,20.88,30.12,24.36
3.6094,-8.9486,-1.7434,-0.032987,-0.009163,0.012523,20.64,30.18,24.3
3.6366,-8.9758,-1.8387,-0.036957,-0.0058032,0.018937,20.58,30.24,24.3
3.6094,-8.9758,-1.8251,-0.042761,0.002138,0.015882,20.58,30.3,24.12
3.5822,-9.0439,-1.8387,-0.033598,0.0054978,0.021686,20.58,30.48,24.24
3.5413,-9.0712,-1.7434,-0.037263,0.000611,0.019548,20.58,30.54,24.24
3.514,-9.0167,-1.7843,-0.034819,-0.0027489,0.029627,20.7,30.36,24.18
3.5958,-9.0167,-1.8251,-0.025351,0.000916,0.021686,20.82,30.66,24.24
3.6094,-8.9894,-1.7843,-0.0281,0.0097738,0.023213,20.76,30.84,24.18
3.6094,-8.9758,-1.7298,-0.028711,0.0061087,0.01741,20.76,30.84,24.18
3.6094,-9.0167,-1.7979,-0.024435,0.0036652,0.019548,20.76,30.9,24.12
3.5958,-9.0031,-1.8387,-0.014966,-0.0051924,0.020464,20.7,30.9,24.24
3.5685,-9.0167,-1.7706,-0.015882,0.007025,0.022297,20.7,30.9,24.36
3.5549,-9.0031,-1.7706,-0.029322,0.025045,0.0094684,20.76,31.02,24.48
3.5822,-8.9894,-1.7706,-0.025656,0.038485,0.0079412,20.82,31.02,24.3
3.6366,-8.9894,-1.7434,-0.036346,0.041539,0.0088575,20.82,30.96,24.54
3.5958,-8.9622,-1.8115,-0.02138,0.025656,0.0027489,20.94,30.9,24.48
3.6094,-8.9622,-1.8251,-0.019548,0.011606,0.013134,20.7,30.9,24.54
3.5958,-9.0575,-1.9477,-0.020769,0.0082467,0.019242,20.7,30.9,24.48
3.5413,-9.0167,-1.8115,-0.030238,0.018937,0.015272,20.7,30.9,24.42
3.5413,-9.0712,-1.8524,-0.032376,0.027489,0.012828,20.76,30.84,24.54
3.5413,-9.0575,-1.8932,-0.031765,0.035125,0.01069,20.7,30.72,24.42
3.514,-9.0575,-1.8387,-0.029322,0.031154,0.020464,20.64,30.78,24.48
3.5413,-9.0439,-1.7979,-0.033598,0.033292,0.021991,20.64,30.78,24.42
3.5685,-9.0439,-1.8387,-0.026878,0.038485,0.02138,20.7,30.72,24.42
3.5549,-8.9894,-1.7979,-0.034208,0.036041,0.029322,20.7,30.78,24.42
3.5822,-9.0167,-1.8251,-0.031765,0.033598,0.027794,20.64,30.72,24.42
3.5822,-9.0575,-1.8115,-0.034208,0.023824,0.034208,20.52,30.72,24.36
3.5413,-9.0303,-1.8387,-0.025656,0.021991,0.035736,20.52,30.66,24.36
3.5549,-9.0031,-1.7979,-0.037568,0.03207,0.033292,20.64,30.72,24.42
3.6094,-8.9486,-1.7979,-0.052229,0.042761,0.038485,20.64,30.78,24.54
3.623,-8.9622,-1.866,-0.044899,0.036652,0.030543,20.7,30.78,24.6
3.6775,-8.9758,-1.7706,-0.048869,0.028405,0.035736,20.7,30.66,24.72
3.6911,-9.0031,-1.8115,-0.044899,0.024435,0.03543,20.82,30.48,24.9
3.623,-8.9894,-1.7706,-0.044593,0.018021,0.03543,20.88,30.54,24.84
3.6911,-8.9622,-1.8115,-0.047342,0.024129,0.034514,21.0,30.42,25.02
3.6366,-8.9622,-1.7298,-0.049786,0.026573,0.025045,20.94,30.42,25.08
3.6639,-9.0167,-1.8387,-0.055283,0.036652,0.021686,21.06,30.36,25.08
3.7047,-9.0303,-1.8115,-0.047037,0.022907,0.021075,21.24,30.36,25.14
3.6366,-8.9758,-1.866,-0.050091,0.011912,0.018937,21.24,30.42,25.2
3.6775,-8.9349,-1.7843,-0.040928,0.01405,0.016799,21.18,30.6,25.2
3.6366,-8.9758,-1.7025,-0.046426,0.019242,0.020464,21.18,30.54,25.2
3.6094,-9.0303,-1.7298,-0.047342,0.025962,0.017104,21.18,30.42,25.08
3.6366,-9.112,-1.7298,-0.039706,0.025351,0.020769,21.06,30.48,24.96
3.6094,-9.0167,-1.7434,-0.035125,0.018631,0.019548,21.18,30.54,25.02
3.6366,-8.9894,-1.7979,-0.026878,0.0015272,0.019242,21.12,30.78,24.84
3.5958,-8.9349,-1.7434,-0.025351,0.000916,0.025351,21.12,30.72,24.9
3.6366,-9.0167,-1.866,-0.039401,0.011912,0.015272,20.88,30.84,24.78
3.6775,-9.0575,-1.866,-0.039706,0.022297,0.014355,21.0,30.84,24.72
3.7184,-9.0575,-1.8387,-0.042455,0.019853,0.010385,21.0,30.84,24.78
3.6639,-8.9894,-1.9205,-0.042455,0.0082467,0.013744,21.0,30.9,24.66
3.6366,-9.0031,-1.8387,-0.033598,0.000916,0.010385,21.18,30.84,24.66
3.6094,-8.9758,-1.7843,-0.033292,0.002138,0.0051924,21.12,30.6,24.6
3.5685,-9.0303,-1.7162,-0.039401,0.0012217,0.0039706,21.12,30.6,24.42
3.6366,-9.0303,-1.757,-0.03879,0.0012217,0.0082467,21.12,30.66,24.6
3.623,-9.0303,-1.8251,-0.024129,-0.020769,0.023518,21.24,30.54,24.66
3.6503,-9.0439,-1.7298,-0.02474,-0.025656,0.026267,20.94,30.48,24.6
3.5822,-8.9894,-1.7434,-0.025656,-0.026573,0.023824,20.88,30.24,24.6
3.5822,-9.0439,-1.7979,-0.030849,-0.012523,0.014355,20.94,30.24,24.66
3.6366,-9.0439,-1.8251,-0.033292,0.0033598,0.0064141,21.06,30.18,24.6
3.5549,-9.0303,-1.7979,-0.029322,0.0015272,0.0039706,21.12,29.94,24.6
3.6366,-9.0167,-1.757,-0.028711,-0.0024435,0.0051924,21.06,29.94,24.6
3.5549,-9.0031,-1.7298,-0.033292,0.000611,0.015882,20.94,29.88,24.66
3.5958,-8.9622,-1.7298,-0.03146,-0.000916,0.018631,20.82,30.06,24.48
3.5822,-9.0303,-1.7979,-0.032987,-0.0024435,0.018937,20.94,30.06,24.72
3.6366,-9.0712,-1.7025,-0.033292,0.002138,0.017715,20.88,30.06,24.72
3.6503,-9.0439,-1.8387,-0.034208,-0.0027489,0.019242,20.82,30.0,24.72
3.5413,-8.9758,-1.8796,-0.033903,-0.0024435,0.021991,20.7,30.0,24.84
3.5549,-8.9486,-1.7706,-0.041539,-0.0030543,0.022602,20.94,30.0,24.78
3.6366,-9.0439,-1.7298,-0.043371,0.009163,0.0039706,21.06,30.12,24.78
3.6094,-8.9894,-1.7979,-0.042761,0.01069,0.010079,21.18,30.24,24.6
3.6366,-9.0303,-1.7298,-0.043371,0.0079412,0.015272,21.18,30.24,24.72
3.6639,-9.0303,-1.7706,-0.033903,-0.0033598,0.017715,21.12,30.48,24.6
3.6366,-8.9349,-1.7979,-0.041539,-0.0079412,0.015272,21.12,30.42,24.6
3.6094,-8.9622,-1.7706,-0.047953,-0.002138,0.0024435,21.12,30.48,24.48
3.5958,-8.9758,-1.7979,-0.055283,0.01405,0.0012217,21.12,30.48,24.48
3.5549,-9.0167,-1.8251,-0.048564,0.007025,-0.000305,20.94,30.48,24.36
3.6366,-9.0167,-1.7298,-0.045509,0.0042761,0.0030543,21.0,30.48,24.48
3.5822,-9.0303,-1.7706,-0.043677,-0.013744,0.023824,21.0,30.54,24.42
3.5549,-9.0031,-1.7434,-0.029627,-0.014355,0.010996,21.0,30.54,24.3
3.5685,-8.9894,-1.866,-0.031154,-0.0082467,0.0058032,21.0,30.54,24.36
3.5413,-8.9622,-1.7979,-0.030543,0.0082467,0.014355,20.88,30.66,24.36
3.5413,-8.9894,-1.9613,-0.03543,0.014966,0.013134,20.94,30.66,24.48
3.6503,-8.9894,-1.866,-0.038179,0.0067195,0.025962,20.88,30.72,24.42
3.6094,-9.0031,-1.8524,-0.029322,-0.0012217,0.017715,21.06,30.66,24.36
3.5685,-8.9894,-1.7979,-0.030543,0.012523,0.01069,21.18,30.66,24.3
3.5685,-8.9622,-1.7843,-0.041539,0.025351,0.020769,21.18,30.72,24.3
3.6094,-8.9349,-1.8251,-0.033292,0.021075,0.018631,21.24,30.84,24.36
3.6366,-8.9077,-1.7843,-0.032376,0.0064141,0.018937,21.36,30.84,24.42
3.6366,-8.9894,-1.866,-0.024129,-0.0079412,0.022907,21.18,30.84,24.36
3.6639,-9.0303,-1.8932,-0.018631,0.012217,0.013134,21.12,30.96,24.3
3.6639,-9.0575,-1.8387,-0.02138,0.015882,0.0088575,21.18,30.9,24.24
3.623,-9.0439,-1.9341,-0.020159,0.018937,0.01405,21.18,31.02,24.3
3.623,-8.9894,-1.8251,-0.025656,-0.0015272,0.010385,21.12,30.84,24.18
3.623,-8.9758,-1.9886,-0.033292,-0.0012217,0.0054978,20.94,30.78,24.24
3.6366,-8.9622,-1.975,-0.040317,0.0064141,0.0024435,21.0,30.84,24.36
3.6503,-8.9486,-1.9477,-0.044288,-0.0012217,-0.0015272,21.06,30.9,24.48
3.6775,-9.0167,-1.8932,-0.042455,-0.0097738,0.000611,20.82,30.84,24.54
3.6366,-9.0167,-1.866,-0.044593,-0.012828,0.009163,20.88,30.84,24.72
3.6366,-8.9758,-1.7979,-0.037263,-0.017104,0.0094684,20.94,30.54,24.66
3.623,-8.9622,-1.7706,-0.036652,-0.017104,0.0042761,20.94,30.54,24.78
3.514,-9.0303,-1.8115,-0.032376,-0.0079412,0.0076358,21.12,30.66,24.84
3.5822,-8.9622,-1.7979,-0.040623,-0.0027489,0.0097738,21.3,30.36,24.96
3.6094,-8.9894,-1.8524,-0.037874,-0.0012217,0.0061087,21.3,30.36,25.02
3.6094,-9.0031,-1.7706,-0.031765,0.0012217,0.0073304,21.42,30.24,24.84
3.6094,-8.9758,-1.757,-0.021075,-0.000916,0.012828,21.36,30.24,25.2
3.5549,-8.9486,-1.7298,-0.019853,-0.0015272,0.017104,21.36,30.3,25.2
3.5958,-9.0439,-1.7706,-0.011301,-0.0064141,0.021075,21.3,30.36,25.2
3.623,-8.9622,-1.8524,-0.0076358,0.0015272,0.018021,21.06,30.24,25.02
3.6366,-8.9894,-1.866,-0.013134,0.0085521,0.018631,21.12,30.24,25.02
3.5958,-8.9486,-1.9341,-0.0097738,0.012523,0.017104,21.12,30.24,24.84
3.623,-9.0167,-1.8115,-0.022907,0.015272,0.014661,21.06,30.24,24.84
3.6775,-9.0303,-1.8387,-0.016188,0.0036652,0.022297,20.94,30.36,24.84
3.732,-9.0712,-1.9205,-0.025045,-0.000305,0.022602,20.94,30.24,24.84
3.6366,-9.0303,-1.7979,-0.019853,0.0033598,0.025656,20.82,30.42,24.78
3.6503,-9.0167,-1.8387,-0.021075,0.010079,0.01405,20.76,30.6,24.6
3.7047,-9.0575,-1.8387,-0.03879,0.0088575,0.020159,20.7,30.72,24.72
3.7047,-9.0303,-1.8796,-0.029932,-0.000916,0.0082467,20.7,30.72,24.72
3.6503,-9.0303,-1.7843,-0.043066,0.0076358,0.0079412,20.64,30.6,24.72
3.6094,-8.9894,-1.7706,-0.048258,0.015272,0.000916,20.58,30.54,24.72
3.6503,-8.9349,-1.7843,-0.033598,0.018326,0.0061087,20.7,30.66,24.72
3.6366,-8.9622,-1.7843,-0.024129,-0.0030543,-0.000611,20.76,30.54,24.54
3.6094,-8.9758,-1.757,-0.030238,0.0054978,0.015272,20.82,30.6,24.78
3.514,-8.9622,-1.7025,-0.020769,0.011301,0.009163,21.0,30.6,24.78
3.5958,-9.0303,-1.7706,-0.030543,0.021991,0.016799,21.12,30.48,24.78
3.5958,-9.0303,-1.7706,-0.028711,0.011912,0.013439,21.12,30.48,24.78
3.6366,-8.9622,-1.7843,-0.023824,0.0067195,0.013134,21.06,30.42,24.9
3.5685,-9.0303,-1.7979,-0.016493,-0.007025,0.013744,21.0,30.48,24.9
3.5685,-9.0575,-1.8932,-0.012217,0.000305,0.013744,21.06,30.36,24.96
3.6639,-9.0848,-1.757,-0.01741,0.009163,0.015882,21.06,30.3,25.02
3.6366,-8.9758,-1.7979,-0.015882,0.01741,0.021686,21.0,30.24,25.02
3.623,-9.0031,-1.7025,-0.016188,0.002138,0.022907,21.06,30.24,24.96
3.6775,-9.0439,-1.7298,-0.014966,-0.0079412,0.038485,21.12,30.48,24.78
3.7047,-9.0575,-1.8387,-0.014355,-0.022297,0.037568,21.3,30.36,24.72
3.6094,-9.0575,-1.866,-0.011606,-0.026267,0.041233,21.18,30.54,24.9
3.6639,-9.0303,-1.8115,-0.021686,-0.014355,0.036652,21.3,30.72,24.9
3.7456,-9.0303,-1.7979,-0.03543,0.0061087,0.020769,21.24,30.48,24.84
3.6775,-8.9622,-1.8387,-0.042761,0.0094684,0.018326,21.06,30.6,24.9
3.6503,-8.9622,-1.7843,-0.040623,0.0012217,0.0012217,21.18,30.72,24.78
3.623,-9.0031,-1.7843,-0.037568,-0.0097738,0.013439,21.24,30.54,24.66
3.6366,-9.0167,-1.7025,-0.030543,-0.0079412,0.015272,21.18,30.42,24.66
3.6366,-9.0031,-1.6889,-0.034514,-0.009163,0.01069,21.24,30.3,24.72
3.6639,-8.9622,-1.6481,-0.039095,-0.0030543,0.0015272,21.12,30.36,24.84
3.5822,-8.9894,-1.7843,-0.041844,0.000305,0.011912,21.24,30.42,24.72
3.623,-9.0303,-1.7298,-0.032681,0.0039706,0.0082467,21.3,30.18,24.9
3.6094,-9.0303,-1.7298,-0.0281,-0.007025,0.009163,21.0,30.18,24.84
3.623,-8.9894,-1.6889,-0.028405,-0.011301,0.016188,21.0,30.06,24.72
3.6639,-9.0575,-1.757,-0.026267,-0.0045815,0.016188,20.94,30.0,24.84
3.6094,-8.9894,-1.7706,-0.027489,0.016799,0.013744,21.0,30.0,24.72
3.6775,-9.0031,-1.7025,-0.031154,0.027184,0.010385,21.0,30.0,24.66
3.623,-9.0167,-1.7843,-0.026573,0.012217,0.01069,20.82,30.12,24.72
3.6366,-8.9894,-1.8387,-0.022602,-0.009163,0.020769,20.76,30.3,24.72
3.623,-9.0303,-1.8251,-0.023824,-0.0067195,0.01741,20.7,30.48,24.78
3.6366,-9.0575,-1.7162,-0.036041,0.012217,0.017715,20.7,30.54,24.78
3.5685,-9.0303,-1.7434,-0.029627,0.015577,0.016188,20.76,30.66,24.78
3.7047,-9.0031,-1.757,-0.030849,0.011606,0.011301,20.76,30.72,24.72
3.6366,-9.0439,-1.8387,-0.032987,0.0015272,0.009163,20.64,30.78,24.6
3.6366,-9.0167,-1.757,-0.028405,-0.0073304,0.013134,20.7,30.84,24.78
3.623,-9.0031,-1.6753,-0.037568,0.002138,0.010996,20.88,30.96,24.78
3.6911,-9.0303,-1.7025,-0.026267,0.0024435,0.0076358,20.88,30.84,24.78
3.6366,-9.0439,-1.7298,-0.022907,-0.0064141,0.0082467,20.82,30.9,24.66
3.5822,-9.0303,-1.7706,-0.015577,-0.01405,0.0079412,20.58,30.9,24.78
3.5958,-9.0575,-1.7434,-0.0097738,-0.017104,0.0097738,20.64,30.72,24.78
3.514,-9.0575,-1.7706,-0.022602,-0.0079412,0.0079412,20.7,30.72,24.72
3.5958,-9.0303,-1.8387,-0.023518,0.007025,0.0079412,20.7,30.66,24.6
3.5958,-9.0439,-1.8387,-0.024435,0.0085521,0.010996,20.7,30.66,24.48
3.6094,-9.0303,-1.757,-0.028405,0.0045815,0.016493,20.7,30.6,24.36
3.5822,-9.0575,-1.7298,-0.022907,-0.009163,0.019853,20.82,30.6,24.48
3.5822,-9.0167,-1.8387,-0.024435,-0.0061087,0.026267,20.88,30.54,24.42
3.5822,-9.0167,-1.7434,-0.026573,-0.0048869,0.032681,20.82,30.54,24.42
3.6094,-9.0303,-1.7434,-0.017715,0.0045815,0.029016,20.76,30.48,24.42
3.6094,-9.0712,-1.8387,-0.025962,0.011606,0.03543,20.7,30.6,24.42
3.6366,-9.0439,-1.6889,-0.019853,0.0061087,0.026878,20.76,30.72,24.48
3.6366,-9.0575,-1.7298,-0.023518,0.000305,0.021991,21.0,30.84,24.36
3.5822,-9.0303,-1.7706,-0.0281,-0.011301,0.02474,21.0,30.9,24.24
3.6503,-9.0303,-1.8251,-0.030849,0.0030543,0.019548,21.0,30.84,24.36
3.6094,-9.0031,-1.8115,-0.040928,0.011301,0.0061087,21.12,30.84,24.48
3.6094,-9.0303,-1.8387,-0.03543,0.0073304,0.0094684,21.12,30.72,24.54
3.623,-9.0031,-1.7843,-0.034819,-0.0058032,0.015272,21.18,30.6,24.48
3.623,-9.0031,-1.7298,-0.036957,-0.01069,0.012217,21.18,30.48,24.48
3.6503,-9.1256,-1.7706,-0.043066,-0.0054978,0.021075,21.12,30.42,24.42
3.5822,-9.0575,-1.7979,-0.031765,0.0064141,0.0039706,21.06,30.66,24.48
3.5958,-8.9622,-1.7298,-0.040317,0.014355,0.002138,21.0,30.78,24.48
3.623,-8.9349,-1.7979,-0.030849,0.0048869,0.014355,21.24,30.66,24.36
3.5685,-9.0031,-1.7434,-0.032681,-0.0085521,0.027489,21.18,30.54,24.42
3.5549,-8.9486,-1.6481,-0.041844,-0.0042761,0.026878,21.12,30.54,24.36
3.5685,-9.0303,-1.7979,-0.037263,-0.000305,0.025656,21.18,30.48,24.54
3.6366,-9.0303,-1.7298,-0.028711,0.0027489,0.019242,21.18,30.54,24.6
3.6775,-9.0848,-1.8251,-0.039706,0.0042761,0.011606,21.06,30.6,24.6
3.5685,-8.9758,-1.8387,-0.03207,0.011301,0.0051924,21.0,30.66,24.48
3.6775,-8.9349,-1.7979,-0.030238,0.01405,0.0076358,20.88,30.72,24.54
3.6366,-9.0031,-1.7162,-0.039401,0.0018326,0.0088575,20.82,30.72,24.54
3.6503,-9.0167,-1.7843,-0.033903,-0.0088575,0.012828,20.82,30.54,24.6
3.623,-8.9894,-1.7025,-0.035125,-0.018326,0.0076358,21.06,30.42,24.48
3.6775,-8.9894,-1.757,-0.030849,-0.012217,-0.000611,20.88,30.36,24.54
3.6366,-9.0303,-1.7843,-0.038485,-0.0082467,0.0058032,20.82,30.42,24.78
3.623,-8.9758,-1.7162,-0.030849,0.0012217,0.002138,20.88,30.42,24.84
3.5958,-8.9758,-1.6481,-0.034208,0.0012217,0.000611,20.94,30.48,24.9
3.6094,-9.0439,-1.6889,-0.028405,0.0015272,-0.011301,20.94,30.48,24.66
3.5685,-9.0303,-1.7979,-0.018021,-0.0064141,0.0033598,20.88,30.42,24.48
3.6366,-9.0303,-1.7979,-0.027184,-0.011301,0.0094684,21.12,30.36,24.48
3.6366,-9.0031,-1.7025,-0.019853,-0.015882,0.0097738,21.12,30.42,24.42
3.623,-8.9622,-1.6753,-0.021686,-0.0054978,-0.000916,21.12,30.48,24.48
3.5549,-8.9894,-1.7979,-0.028405,0.000611,0.000916,21.18,30.48,24.42
3.732,-9.0031,-1.8115,-0.029322,-0.0018326,0.007025,21.06,30.48,24.36
3.7047,-8.9894,-1.8115,-0.026878,-0.0097738,0.0094684,21.0,30.42,24.42
3.6639,-8.9622,-1.8251,-0.028405,-0.022297,0.0085521,21.06,30.36,24.36
3.623,-9.0031,-1.8387,-0.0281,0.002138,-0.0039706,21.3,30.12,24.24
3.6094,-8.9486,-1.7298,-0.033903,0.0045815,-0.000916,21.42,30.18,24.12
3.6503,-9.0031,-1.757,-0.028405,-0.0024435,-0.0045815,21.3,30.18,24.12
3.6503,-8.9894,-1.7434,-0.021991,-0.0085521,0.0048869,21.36,30.24,24.42
3.6094,-9.0031,-1.8115,-0.032987,-0.017104,0.010079,21.3,30.18,24.48
3.7047,-9.0575,-1.7979,-0.026267,-0.014966,0.012828,21.12,30.24,24.48
3.6366,-8.9894,-1.8115,-0.024435,-0.012828,0.017104,21.18,30.3,24.48
3.7047,-8.9622,-1.8387,-0.025351,-0.017715,0.013744,21.18,30.24,24.48
3.6775,-8.9486,-1.7979,-0.024129,-0.023824,0.0097738,21.3,30.18,24.66
3.6775,-8.9486,-1.7706,-0.023518,-0.026878,-0.0024435,21.24,30.24,24.72
3.7047,-9.0439,-1.7979,-0.040012,-0.015577,0.000916,21.12,30.36,24.84
3.7184,-8.9349,-1.8524,-0.04215,-0.014355,-0.0076358,20.94,30.6,24.84
3.6911,-9.0303,-1.7843,-0.040317,-0.012523,-0.0073304,20.94,30.66,24.9
3.6639,-8.9758,-1.8115,-0.041844,-0.0097738,-0.0024435,20.76,30.72,24.96
3.6094,-9.0303,-1.7298,-0.047037,-0.0088575,-0.0079412,20.7,30.66,24.9
3.6639,-9.0303,-1.7298,-0.048564,-0.0045815,-0.011912,20.7,30.48,24.84
3.6639,-9.0575,-1.7025,-0.040317,-0.0064141,-0.0085521,20.76,30.48,24.78
3.7184,-9.0031,-1.7843,-0.032376,-0.017715,-0.002138,20.7,30.48,24.72
3.6775,-9.0031,-1.7162,-0.022297,-0.040012,0.0048869,20.58,30.24,24.72
3.623,-8.9349,-1.7025,-0.0281,-0.031154,0.0064141,20.46,30.24,24.72
3.6503,-9.0167,-1.7706,-0.036346,-0.019548,0.000916,20.28,30.3,24.66
3.623,-9.0575,-1.7434,-0.030543,-0.009163,0.0015272,20.4,30.3,24.6
3.7047,-8.9894,-1.8387,-0.033903,-0.0064141,0.0012217,20.64,30.3,24.54
3.6366,-8.9894,-1.6753,-0.021686,-0.01405,-0.0058032,20.58,30.18,24.54
3.6366,-9.0031,-1.6753,-0.015272,-0.017715,0.0012217,20.52,30.06,24.36
3.732,-8.9894,-1.7979,-0.022297,-0.018326,0.0082467,20.58,30.24,24.24
3.732,-8.9894,-1.7979,-0.022297,-0.018326,0.0082467,20.58,30.24,24.24
3.6775,-8.9894,-1.8115,-0.031765,-0.01741,0.0085521,20.52,30.3,24.18
3.732,-8.9622,-1.8932,-0.028711,-0.01741,0.0082467,20.52,30.36,24.12
3.7047,-8.9622,-1.7979,-0.035125,-0.015272,0.0045815,20.46,30.48,24.06
3.7184,-8.9758,-1.7979,-0.037263,-0.0030543,0.0054978,20.52,30.48,24.06
3.732,-8.9894,-1.8387,-0.043982,-0.0073304,0.0045815,20.52,30.72,24.12
3.7047,-8.9894,-1.7706,-0.044288,-0.0064141,0.0012217,20.52,30.84,24.3
3.7047,-9.0031,-1.7979,-0.040012,-0.010079,-0.0033598,20.64,30.72,24.24
3.5685,-8.9894,-1.8251,-0.030238,-0.018631,0.0061087,20.52,30.72,24.18
3.6366,-8.9758,-1.7162,-0.038485,-0.0094684,0.012523,20.34,30.66,24.12
3.5822,-9.0303,-1.7979,-0.04948,0.0018326,0.016188,20.34,30.66,23.94
3.6639,-8.9894,-1.6889,-0.037263,0.0076358,0.018937,20.28,30.6,24.12
3.6775,-8.9486,-1.7979,-0.039095,0.0051924,0.016188,20.34,30.66,24.06
3.6639,-8.9349,-1.7706,-0.030238,-0.007025,0.0094684,20.34,30.6,24.12
3.6366,-8.9758,-1.7979,-0.026573,-0.010996,0.018937,20.34,30.48,24.36
3.732,-9.0303,-1.8115,-0.018326,-0.013439,0.018021,20.34,30.36,24.48
3.6775,-8.9622,-1.6889,-0.030238,-0.000305,0.018937,20.4,30.3,24.54
3.6775,-8.9486,-1.7979,-0.027794,0.010996,0.018326,20.22,30.3,24.36
3.6911,-8.9486,-1.8251,-0.036652,0.010996,0.015882,20.28,30.3,24.24
3.7184,-8.9622,-1.757,-0.023518,0.022602,0.0088575,20.22,30.36,24.3
3.6775,-8.9213,-1.7434,-0.037568,0.022907,0.015272,20.22,30.24,24.36
3.6775,-8.9894,-1.7843,-0.03146,0.015272,0.0018326,20.4,30.12,24.48
3.6775,-8.9349,-1.7979,-0.035125,0.007025,0.009163,20.4,30.24,24.66
3.6775,-9.0031,-1.8251,-0.02474,0.0027489,0.012217,20.64,30.18,24.6
3.732,-8.9758,-1.8115,-0.016799,0.0039706,0.014355,20.82,30.3,24.72
3.7047,-9.0303,-1.7979,-0.031154,0.0076358,0.010385,20.76,30.24,24.84
3.7047,-9.0031,-1.8251,-0.036041,0.0045815,0.0042761,20.82,30.3,24.84
3.7184,-9.0303,-1.8251,-0.032987,0.0073304,0.0067195,20.7,30.48,24.6
3.732,-8.9894,-1.866,-0.036041,0.0094684,0.0079412,20.64,30.42,24.6
3.7184,-8.9894,-1.8387,-0.035736,-0.0067195,0.009163,20.76,30.36,24.72
3.7456,-8.9622,-1.7979,-0.032987,-0.0036652,0.007025,20.7,30.42,24.84
3.7047,-9.0167,-1.7434,-0.040012,-0.0033598,0.0076358,20.7,30.36,24.84
3.7047,-9.0303,-1.7434,-0.041233,0.0064141,0.018631,20.7,30.48,24.72
3.7047,-8.9758,-1.8115,-0.038485,0.013744,0.0076358,20.52,30.42,24.72
3.7047,-9.0439,-1.7843,-0.032987,-0.0015272,0.014966,20.46,30.36,24.6
3.6639,-8.9622,-1.7162,-0.037263,-0.012523,0.018631,20.34,30.36,24.6
3.6639,-8.9213,-1.6617,-0.03879,-0.012217,0.016799,20.16,30.3,24.6
3.7047,-8.8941,-1.7706,-0.037263,-0.0097738,0.01405,20.04,30.24,24.66
3.6775,-8.9349,-1.7025,-0.027489,-0.0097738,0.015272,20.04,30.24,24.78
3.7047,-9.0712,-1.8115,-0.027794,-0.0027489,0.02138,20.04,30.06,24.96
3.6775,-9.0167,-1.7979,-0.03207,-0.0051924,0.019548,19.86,30.24,24.96
3.6775,-8.9077,-1.6481,-0.031765,0.0061087,0.011606,19.86,30.3,24.9
3.732,-8.9349,-1.7298,-0.029322,0.011301,0.019242,19.92,30.42,24.78
3.732,-8.9349,-1.7979,-0.023213,-0.0039706,0.015882,20.04,30.54,24.72
3.7184,-8.8941,-1.7979,-0.025656,-0.000916,0.013744,20.04,30.48,24.84
3.6775,-8.9349,-1.7706,-0.032987,-0.0048869,0.025656,20.16,30.54,24.72
3.7047,-8.9486,-1.6617,-0.034514,-0.0015272,0.022297,20.34,30.72,24.78
3.6366,-8.9349,-1.7843,-0.026573,0.000611,0.018021,20.34,30.66,24.84
3.732,-8.9622,-1.7706,-0.019853,-0.012828,0.019242,20.22,30.78,24.78
3.7184,-8.9622,-1.7843,-0.024435,-0.0027489,0.019548,20.4,30.84,24.72
3.6775,-8.9622,-1.7298,-0.032987,0.0094684,0.010385,20.46,30.78,24.6
3.7184,-9.0167,-1.7298,-0.032987,0.018631,0.0054978,20.46,30.66,24.54
3.732,-8.9622,-1.7706,-0.035736,0.0082467,0.016493,20.58,30.66,24.6
3.6775,-8.9894,-1.8251,-0.017715,-0.010385,0.011301,20.64,30.6,24.72
3.623,-8.9894,-1.7843,-0.02138,-0.011912,0.022907,20.64,30.48,24.72
3.623,-9.0167,-1.7706,-0.021991,-0.000611,0.018326,20.46,30.36,24.66
3.6639,-9.0303,-1.866,-0.032376,0.015272,0.016799,20.46,30.36,24.6
3.7047,-8.9894,-1.7979,-0.02474,0.02138,0.020769,20.4,30.3,24.72
3.7047,-8.9622,-1.7434,-0.017104,-0.007025,0.025962,20.28,30.18,24.78
3.623,-8.9486,-1.8251,-0.0058032,-0.022602,0.035125,20.28,30.12,24.72
3.6639,-8.9758,-1.7025,-0.015882,-0.01069,0.03543,20.4,30.06,24.48
3.623,-9.0031,-1.7162,-0.029932,0.016188,0.027489,20.28,30.0,24.36
3.6775,-8.9622,-1.757,-0.034819,0.025656,0.020769,20.22,30.06,24.36
3.732,-9.0031,-1.7979,-0.030849,0.020159,0.014355,20.64,30.24,24.24
3.7184,-9.1393,-1.7706,-0.021686,-0.0054978,0.018021,20.58,30.36,24.36
3.6639,-9.0031,-1.6072,-0.019853,-0.015882,0.029932,20.58,30.36,24.3
3.6503,-8.9622,-1.7025,-0.023824,-0.000611,0.021075,20.58,30.42,24.42
3.6366,-8.9486,-1.7025,-0.028711,0.012828,0.019242,20.64,30.54,24.48
3.6911,-8.9758,-1.7162,-0.022297,0.013134,0.013744,20.64,30.48,24.54
3.6775,-9.0575,-1.7025,-0.018021,-0.000916,0.036957,20.88,30.48,24.54
3.623,-9.0303,-1.7979,0.0048869,-0.022907,0.037263,20.94,30.66,24.54
3.6366,-8.9486,-1.7298,-0.0018326,-0.022907,0.036652,20.94,30.6,24.6
3.6094,-8.9894,-1.8387,-0.0045815,-0.0030543,0.037874,20.82,30.66,24.78
3.623,-9.0303,-1.9205,-0.016188,0.0015272,0.027184,20.88,30.66,24.9
3.6503,-9.0303,-1.8387,-0.019242,-0.0012217,0.016799,21.0,30.66,24.9
3.5958,-8.9894,-1.8387,-0.032681,-0.0051924,0.014661,20.76,30.54,24.9
3.6775,-9.0712,-1.6889,-0.027184,0.0061087,0.0094684,20.82,30.54,24.9
3.5958,-9.0303,-1.7298,-0.032376,0.0042761,0.019242,20.88,30.48,24.84
3.6911,-9.1529,-1.7843,-0.024129,-0.014661,0.03207,21.06,30.48,24.72
3.5822,-9.0303,-1.7843,-0.01069,-0.030849,0.041233,21.0,30.42,24.72
3.6094,-9.0167,-1.6617,-0.011912,-0.029932,0.043371,21.06,30.54,24.66
3.6366,-9.0303,-1.6753,-0.018021,-0.018326,0.034514,20.88,30.66,24.48
3.6094,-9.0575,-1.757,-0.02138,-0.011301,0.028711,20.88,30.48,24.54
3.6911,-9.0167,-1.7843,-0.012523,-0.020159,0.031765,20.76,30.48,24.36
3.5958,-8.9486,-1.7706,-0.0064141,-0.034514,0.029016,20.94,30.24,24.24
3.5822,-8.9758,-1.6753,-0.0033598,-0.032681,0.033292,21.06,30.24,24.18
3.6639,-8.9758,-1.6889,-0.019548,-0.002138,0.028405,20.82,30.18,24.12
3.5958,-9.0303,-1.7025,-0.023213,0.012523,0.021686,20.88,30.24,24.06
3.6775,-9.0439,-1.7025,-0.022602,0.010996,0.012217,20.82,30.12,24.18
3.732,-8.9894,-1.6344,-0.014355,0.0018326,0.012217,20.7,30.12,24.18
3.6366,-9.0167,-1.7025,-0.010079,-0.014966,0.011606,20.76,30.12,24.24
3.623,-9.0848,-1.8524,-0.0073304,-0.025351,0.020159,20.64,30.18,24.24
3.6639,-9.0303,-1.7979,-0.017104,-0.015272,0.020464,20.64,30.06,24.24
3.5413,-9.0848,-1.7706,-0.015272,-0.014966,0.019548,20.76,29.88,24.24
3.5685,-8.9894,-1.6753,-0.025962,0.0018326,0.014966,20.7,30.12,24.3
3.5685,-9.0575,-1.7706,-0.016493,0.0045815,0.0082467,20.88,30.3,24.24
3.5277,-9.0303,-1.8251,-0.020769,0.0036652,0.011301,20.88,30.36,24.3
3.5413,-9.0303,-1.7025,-0.013134,0.0012217,0.017104,20.82,30.78,24.48
3.5413,-9.0575,-1.6753,-0.018631,0.000611,0.025351,20.94,30.78,24.54
3.5413,-9.0575,-1.757,-0.0281,-0.0015272,0.026878,20.88,30.84,24.54
3.5822,-9.0303,-1.7298,-0.023213,-0.0036652,0.035125,20.88,30.84,24.48
3.623,-9.0167,-1.7843,-0.015272,-0.018937,0.038179,20.82,30.72,24.24
3.5822,-9.0848,-1.6889,-0.0058032,-0.030238,0.03879,20.88,30.6,24.24
3.623,-9.0439,-1.7162,-0.017104,-0.018937,0.034819,20.82,30.48,24.3
3.6366,-9.0575,-1.7025,-0.029322,0.0018326,0.018937,20.94,30.48,24.3
3.6094,-9.0439,-1.7025,-0.027794,0.018631,0.0048869,20.82,30.48,24.36
3.6366,-8.9622,-1.6344,-0.019242,0.011606,0.01069,20.88,30.3,24.48
3.6094,-9.0031,-1.7025,-0.019853,0.0012217,0.011912,20.76,30.24,24.3
3.5958,-9.0031,-1.6481,-0.015882,-0.0012217,0.016188,20.7,30.3,24.36
3.5822,-9.0712,-1.6344,-0.015577,-0.0058032,0.019548,20.64,30.0,24.0
3.5685,-9.1393,-1.6072,-0.019548,-0.0051924,0.021075,20.7,30.12,24.06
3.5685,-9.0712,-1.6753,-0.013439,-0.0015272,0.022297,20.76,30.12,24.06
3.623,-9.0575,-1.6753,-0.000305,-0.01069,0.02474,21.0,30.06,24.24
3.5822,-9.0575,-1.7025,-0.011301,-0.020769,0.026267,21.0,30.06,24.24
3.6094,-9.0575,-1.7298,-0.0097738,-0.01741,0.024435,20.88,30.12,24.3
3.5685,-9.0439,-1.7025,-0.023518,-0.0012217,0.025351,20.94,30.3,24.18
3.5685,-9.0575,-1.7298,-0.024435,0.0036652,0.015882,20.88,30.24,24.18
3.5277,-9.0031,-1.6889,-0.021686,0.000916,0.0097738,20.94,30.24,24.18
3.4868,-9.0848,-1.7025,-0.011606,-0.010079,0.020769,20.82,30.3,24.06
3.5549,-9.0575,-1.6889,-0.010996,-0.013134,0.027489,20.76,30.3,24.18
3.5413,-9.0848,-1.7434,-0.023213,-0.0097738,0.029016,20.94,30.18,24.24
3.5413,-9.0439,-1.6753,-0.021991,-0.0015272,0.020769,20.94,30.24,24.36
3.5413,-9.0031,-1.757,-0.028405,-0.000916,0.021686,20.94,30.18,24.3
3.6094,-9.0303,-1.6753,-0.017104,-0.000305,0.018937,20.88,30.12,24.24
3.6366,-9.0848,-1.6344,-0.025045,-0.017715,0.025045,20.7,30.18,23.94
3.5413,-9.0303,-1.6753,-0.027794,-0.020159,0.025351,20.88,30.18,23.88
3.5413,-9.0575,-1.7706,-0.023213,-0.011606,0.018631,20.94,30.18,23.88
3.5685,-9.0031,-1.6344,-0.033598,-0.0015272,0.016188,20.88,30.12,23.76
3.5685,-9.0303,-1.6344,-0.033903,-0.0033598,0.0061087,20.88,30.18,23.64
3.6094,-9.0031,-1.6072,-0.022602,-0.011606,0.01405,20.76,30.24,23.64
3.5413,-9.1393,-1.6208,-0.028711,-0.010079,0.013134,20.88,30.24,23.64
3.514,-9.0848,-1.7025,-0.031765,0.0024435,0.011301,21.06,30.24,23.64
3.4732,-9.0575,-1.6481,-0.027184,0.011606,0.010996,20.94,30.36,23.64
3.4596,-9.0575,-1.6481,-0.021686,0.0033598,0.019242,20.94,30.3,23.76
3.5413,-9.0575,-1.6072,-0.03146,-0.018937,0.023824,20.88,30.36,23.76
3.4596,-9.0712,-1.6889,-0.018937,-0.018326,0.020159,20.82,30.42,23.76
3.514,-9.0303,-1.6072,-0.028405,0.0085521,0.026267,20.88,30.3,23.88
3.4868,-9.0167,-1.6344,-0.028405,0.020159,0.025962,20.82,30.3,23.76
3.5549,-9.0575,-1.58,-0.022297,0.0045815,0.033903,20.76,30.24,23.88
3.5413,-9.0575,-1.6481,-0.021991,-0.017104,0.04215,20.76,30.18,23.94
3.5413,-9.0575,-1.5936,-0.016188,-0.025045,0.03207,20.82,30.18,23.94
3.514,-9.0712,-1.6208,-0.020769,-0.0085521,0.03207,20.94,30.12,24.06
3.5685,-9.0848,-1.6208,-0.021991,0.0030543,0.017104,20.94,30.18,23.94
3.6503,-9.0303,-1.6344,-0.025351,-0.013439,0.023213,20.94,30.36,23.88
3.5958,-9.0984,-1.6889,-0.021686,-0.0281,0.024435,21.0,30.3,23.76
3.5822,-9.0712,-1.6344,-0.026878,-0.021686,0.012523,21.0,30.24,23.76
3.5958,-9.0439,-1.7025,-0.034819,0.002138,0.007025,21.06,30.3,23.7
3.6366,-9.0575,-1.6617,-0.037568,0.002138,-0.000611,21.06,30.3,23.76
3.5685,-9.1256,-1.6753,-0.033903,-0.0042761,0.000916,21.12,30.24,23.88
3.4596,-9.1393,-1.6753,-0.039095,-0.013439,0.000916,21.0,30.42,23.82
3.4732,-9.112,-1.6753,-0.037263,0.0082467,-0.0018326,21.06,30.48,23.58
3.4459,-9.0984,-1.6617,-0.0562,0.028711,-0.0027489,21.0,30.42,23.58
3.4732,-9.0167,-1.6617,-0.045509,0.02138,0.0036652,21.12,30.6,23.64
3.4868,-9.0303,-1.6617,-0.025351,-0.027489,0.018631,21.12,30.54,23.64
3.6094,-9.0303,-1.6753,-0.022907,-0.037263,0.026267,21.06,30.54,23.7
3.5004,-9.1529,-1.6481,-0.040012,-0.013744,0.018021,21.12,30.3,23.82
3.4323,-9.1937,-1.6344,-0.052534,0.026573,0.0064141,21.06,30.36,23.76
3.5549,-9.1393,-1.7025,-0.069944,0.049786,-0.0018326,21.0,30.36,23.82
3.5004,-9.0303,-1.6617,-0.058643,0.039401,-0.0076358,21.0,30.24,23.82
3.4868,-9.0303,-1.7298,-0.047037,0.023518,0.000305,21.06,30.24,23.88
3.4732,-8.9894,-1.7025,-0.034819,0.010385,0.0024435,20.88,30.3,23.88
3.4459,-9.0575,-1.6889,-0.041233,-0.0033598,0.026573,20.88,30.36,24.0
3.4732,-9.0848,-1.6753,-0.059559,0.0039706,0.030238,20.94,30.36,24.12
3.4732,-9.1256,-1.6072,-0.04948,0.012828,0.019548,21.0,30.36,24.12
3.5413,-9.0712,-1.6344,-0.055283,0.024129,0.01405,20.88,30.3,24.24
3.4732,-9.1256,-1.58,-0.032681,0.0015272,0.018631,20.82,30.24,24.06
3.5277,-9.0848,-1.6344,-0.028405,-0.0042761,0.025962,20.7,30.24,24.06
3.5685,-9.0848,-1.6889,-0.033598,-0.023213,0.036652,20.7,30.3,24.06
3.5685,-9.0167,-1.6753,-0.032987,-0.012217,0.033292,20.58,30.24,24.24
3.4459,-9.0575,-1.7298,-0.038485,-0.0015272,0.023213,20.7,30.48,24.12
3.5277,-9.0303,-1.7162,-0.034514,0.0015272,0.015272,20.76,30.6,24.18
3.5685,-9.0712,-1.7162,-0.028711,-0.022602,0.010385,20.64,30.6,24.18
3.6775,-9.0439,-1.7706,-0.031765,-0.029932,0.0088575,20.82,30.48,24.18
3.6094,-9.1256,-1.9068,-0.028405,-0.031765,0.0064141,20.88,30.42,24.18
3.6094,-9.0575,-1.7162,-0.039401,-0.018021,-0.0064141,20.88,30.36,23.94
3.5822,-8.9894,-1.6753,-0.038485,-0.018021,-0.0088575,20.94,30.36,24.0
3.6094,-9.0439,-1.7298,-0.041844,-0.029932,-0.013439,21.0,30.36,23.88
3.5685,-9.112,-1.8387,-0.031765,-0.039095,-0.0045815,21.12,30.42,24.06
3.6094,-9.0575,-1.7979,-0.034208,-0.047953,-0.002138,21.3,30.42,24.12
3.5413,-9.0575,-1.7298,-0.039706,-0.039706,-0.0073304,21.36,30.3,24.18
3.5277,-9.0984,-1.6481,-0.040928,-0.026573,-0.013439,21.54,30.18,24.24
3.5549,-9.0575,-1.7025,-0.051313,-0.011912,-0.015272,21.42,30.06,24.42
3.5685,-8.9622,-1.7434,-0.049175,-0.0094684,-0.013134,21.36,30.06,24.42
3.5277,-9.0439,-1.6889,-0.044593,-0.029016,-0.014966,21.42,30.18,24.36
3.5413,-9.0848,-1.7706,-0.048869,-0.029932,-0.015577,21.36,30.3,24.36
3.4868,-9.0848,-1.6344,-0.048869,-0.020464,-0.0067195,21.3,30.48,24.48
3.5549,-9.0575,-1.7298,-0.048564,-0.007025,-0.002138,21.3,30.54,24.78
3.5413,-9.0848,-1.7025,-0.050396,-0.009163,-0.0012217,21.24,30.6,24.78
3.5413,-9.0439,-1.757,-0.041233,-0.0094684,0.000916,21.24,30.54,24.66
3.514,-8.9622,-1.7434,-0.041539,-0.016493,0.0030543,21.18,30.36,24.72
3.5822,-9.0303,-1.7706,-0.037568,-0.014661,0.01069,21.06,30.48,24.72
3.6366,-8.9894,-1.7298,-0.041539,-0.011912,0.012217,21.06,30.48,24.78
3.5822,-9.0303,-1.7706,-0.03207,-0.016188,0.019548,21.12,30.54,24.84
3.623,-9.0575,-1.7025,-0.033598,-0.010996,0.016493,20.94,30.54,24.66
3.5413,-8.9622,-1.6753,-0.030238,-0.0073304,0.010385,20.94,30.48,24.72
3.5958,-9.0167,-1.7025,-0.029932,0.0024435,0.0033598,20.94,30.42,24.72
3.5413,-8.9758,-1.7025,-0.029016,0.0058032,0.0054978,20.82,30.3,24.66
3.6094,-9.0575,-1.7298,-0.034208,0.011606,0.020464,20.82,30.06,24.78
3.5685,-9.0575,-1.7298,-0.034819,0.007025,0.014966,20.76,29.94,24.66
3.623,-9.0303,-1.7843,-0.03879,0.0058032,0.01405,20.82,30.0,24.6
3.514,-8.9894,-1.7162,-0.035736,0.0064141,0.0042761,20.82,30.12,24.78
3.5685,-8.9894,-1.7434,-0.033903,0.024435,0.0067195,20.82,30.42,24.78
3.5685,-9.0031,-1.7843,-0.040012,0.027489,0.0094684,20.76,30.48,24.72
3.6639,-9.0439,-1.7979,-0.043371,0.012217,0.018021,20.64,30.6,24.6
3.6094,-8.9894,-1.7706,-0.03543,0.0036652,0.0281,20.7,30.48,24.54
3.6775,-8.9894,-1.7979,-0.036346,0.002138,0.030238,20.76,30.54,24.54
3.6094,-8.9758,-1.8115,-0.036652,0.010996,0.0094684,20.58,30.54,24.42
3.6775,-9.0031,-1.7706,-0.035736,0.022297,0.010996,20.64,30.6,24.42
3.6775,-9.0303,-1.866,-0.040623,0.029627,0.0030543,20.76,30.66,24.48
3.6775,-8.9894,-1.8115,-0.047647,0.029016,0.0036652,20.76,30.66,24.24
3.6775,-8.9622,-1.7298,-0.046426,0.027489,0.007025,20.82,30.66,24.42
3.6366,-8.9349,-1.8251,-0.04612,0.035125,-0.0097738,20.76,30.72,24.48
3.6366,-8.9349,-1.7979,-0.047647,0.045509,-0.0097738,20.7,30.66,24.36
3.7456,-9.0167,-1.7025,-0.038485,0.043371,-0.022907,20.76,30.54,24.36
3.6639,-9.0575,-1.8251,-0.041539,0.037568,-0.014355,20.88,30.42,24.24
3.6775,-9.0303,-1.757,-0.038485,0.042455,-0.015272,20.88,30.48,24.3
3.6366,-9.0439,-1.6753,-0.048869,0.06017,-0.011301,20.88,30.66,24.24
3.5822,-8.9213,-1.8251,-0.042761,0.075747,-0.013744,20.88,30.66,24.36
3.5685,-8.9349,-1.8932,-0.034514,0.071166,-0.0012217,21.0,30.66,24.3
3.5685,-8.8805,-1.7979,-0.025351,0.060781,0.0051924,20.88,30.66,24.24
3.5549,-8.9894,-1.7979,-0.015577,0.061087,0.019242,21.0,30.72,24.24
3.623,-8.9622,-1.8387,-0.024129,0.06689,0.026878,21.06,30.72,24.3
3.6639,-9.0303,-1.866,-0.021991,0.072693,0.032681,21.0,30.9,24.24
3.5958,-8.9077,-1.7706,-0.020769,0.080634,0.031154,21.0,30.66,24.36
3.6775,-9.0303,-1.7979,-0.025962,0.088575,0.033903,21.0,30.72,24.3
3.7184,-8.9213,-1.6753,-0.020464,0.090408,0.034208,21.06,30.78,24.3
3.8001,-8.8941,-1.6617,0.0064141,0.051618,0.054367,20.94,30.84,24.3
3.732,-8.8941,-1.6889,0.018631,0.018631,0.069944,21.0,30.78,24.3
3.8273,-8.8668,-1.6208,0.020464,-0.0054978,0.082161,21.12,30.72,24.36
3.8001,-8.9213,-1.7025,0.03207,-0.007025,0.072998,21.18,30.48,24.36
3.8001,-8.9213,-1.7025,0.036346,-0.011912,0.069944,21.18,30.48,24.36
3.8954,-8.9894,-1.7843,0.031154,-0.030238,0.072998,21.36,30.54,24.36
3.8954,-8.8668,-1.757,0.033292,-0.068722,0.051313,21.3,30.48,24.48
3.9635,-8.9077,-1.7025,0.039401,-0.080634,0.043982,21.42,30.48,24.42
3.9499,-8.8805,-1.7298,0.036957,-0.10843,0.013134,21.42,30.36,24.3
4.0044,-9.0303,-1.7979,0.045204,-0.13439,0.013744,21.48,30.48,24.36
3.9363,-9.0031,-1.8387,0.033598,-0.14905,0.0085521,21.42,30.42,24.36
3.909,-8.9486,-1.6753,0.026267,-0.15638,-0.016493,21.48,30.3,24.18
3.8409,-8.9349,-1.5936,0.015882,-0.14905,-0.059559,21.54,30.3,24.12
3.8954,-8.9622,-1.7434,0.016188,-0.14294,-0.073609,21.48,30.24,24.12
3.8409,-8.9622,-1.7434,0.018326,-0.16005,-0.08827,21.3,30.18,24.0
3.7728,-8.9077,-1.6889,0.019548,-0.16646,-0.09163,21.24,30.36,23.94
3.7592,-8.9349,-1.58,0.01405,-0.16157,-0.12034,21.3,30.42,23.94
3.6775,-9.0303,-1.6344,0.0076358,-0.13928,-0.13073,21.18,30.36,24.0
3.7592,-8.9758,-1.58,-0.0012217,-0.12126,-0.12828,21.0,30.36,23.88
3.6639,-8.8532,-1.4438,0.0079412,-0.11606,-0.13011,20.82,30.3,23.76
3.6366,-8.8532,-1.4165,0.033292,-0.15547,-0.12523,20.76,30.54,23.64
3.7047,-8.9349,-1.5663,0.03879,-0.16799,-0.12187,20.64,30.54,23.46
3.6775,-9.0303,-1.5936,0.049786,-0.1857,-0.096822,20.64,30.6,23.46
3.6639,-9.2618,-1.5391,0.043066,-0.18204,-0.086132,20.28,30.66,23.58
3.6094,-9.3299,-1.58,0.042455,-0.16585,-0.090408,20.28,30.72,23.52
3.6503,-9.4253,-1.6344,0.017715,-0.12462,-0.11057,20.16,30.9,23.58
3.5549,-9.4117,-1.7706,-0.000305,-0.087965,-0.12981,19.98,31.02,23.52
3.5549,-9.3027,-1.757,-0.029627,-0.048869,-0.14966,19.92,30.84,23.58
3.4323,-9.1665,-1.7025,-0.053451,-0.02474,-0.14447,19.74,30.9,23.52
3.3778,-8.9213,-1.7298,-0.076664,0.0015272,-0.1295,19.44,31.02,23.4
3.2689,-8.7987,-1.58,-0.085521,0.014355,-0.10721,19.5,31.08,23.46
3.3097,-8.7306,-1.4574,-0.072388,0.037263,-0.025656,19.5,31.02,23.46
3.3506,-8.7579,-1.4029,-0.05284,0.030543,0.0064141,19.32,30.9,23.58
3.5549,-8.7851,-1.4165,0.0039706,-0.059559,0.13714,19.32,30.84,23.76
3.5549,-8.7987,-1.4301,0.045204,-0.13164,0.21625,19.26,30.9,23.76
3.5413,-8.826,-1.4574,0.076358,-0.15424,0.25351,19.26,30.78,23.76
3.8409,-8.9758,-1.5119,0.08094,-0.1295,0.27336,19.14,30.96,23.82
4.018,-9.0303,-1.58,0.11148,-0.1463,0.2587,19.2,30.9,23.76
4.127,-9.0848,-1.7025,0.11087,-0.16157,0.24893,19.32,30.9,23.82
4.0589,-9.1393,-1.8387,0.10934,-0.19059,0.20097,19.38,31.08,23.64
4.0997,-9.1529,-1.8115,0.092546,-0.1628,0.16463,19.44,31.14,23.64
4.0997,-9.1801,-1.7706,0.062003,-0.12248,0.12645,19.62,31.08,23.58
4.1814,-9.2891,-1.8115,0.041844,-0.12889,0.085827,19.8,31.2,23.34
4.1814,-9.3027,-1.8524,0.0073304,-0.15516,0.0281,19.98,31.26,23.34
4.0997,-9.1256,-1.8251,0.0051924,-0.16157,0.002138,20.1,31.32,23.22
3.9635,-9.0848,-1.7706,-0.0042761,-0.15821,-0.030543,20.28,31.2,23.1
3.9227,-9.0303,-1.7843,-0.035736,-0.16585,-0.079107,20.46,31.2,22.86
3.7865,-8.9894,-1.6617,-0.060476,-0.16005,-0.09163,20.46,31.2,22.86
3.7047,-8.9894,-1.6072,-0.081856,-0.13958,-0.11484,20.58,31.14,22.8
3.6366,-8.9894,-1.5527,-0.10324,-0.098349,-0.13378,20.64,31.14,22.74
3.5822,-9.0303,-1.4301,-0.12095,-0.053451,-0.1518,20.52,31.14,22.74
3.6094,-9.0575,-1.4438,-0.12004,-0.024435,-0.17501,20.58,31.02,22.68
3.5549,-9.0848,-1.4165,-0.12614,-0.0036652,-0.19364,20.52,30.9,22.68
3.514,-9.1256,-1.3348,-0.13103,0.03879,-0.20892,20.34,30.84,22.68
3.4459,-9.0848,-1.3076,-0.13775,0.099876,-0.20556,20.1,30.78,22.92
3.3778,-8.9486,-1.3757,-0.12126,0.11087,-0.20403,19.92,30.66,22.98
3.3642,-8.9622,-1.3757,-0.11423,0.098655,-0.18937,19.86,30.6,22.92
3.2825,-8.9894,-1.362,-0.098044,0.092852,-0.17226,19.56,30.78,23.16
3.1872,-9.0031,-1.58,-0.072693,0.097738,-0.11454,19.2,30.72,23.4
3.228,-8.9758,-1.471,-0.058643,0.11576,-0.070555,19.14,30.78,23.52
3.2008,-8.9894,-1.5119,-0.059254,0.13897,-0.023824,18.96,30.72,23.52
3.2416,-8.9213,-1.7298,-0.05681,0.14936,0.028405,18.54,30.72,23.58
3.2961,-8.9622,-1.7162,-0.053756,0.15913,0.087965,18.66,30.66,23.64
3.4051,-8.9349,-1.7298,-0.051924,0.16066,0.11118,18.54,30.78,23.7
3.4459,-9.0031,-1.7979,-0.038179,0.15424,0.1576,18.42,30.84,23.94
3.5277,-8.9077,-1.757,-0.041844,0.14997,0.19334,18.42,30.72,24.0
3.6094,-8.9622,-1.7843,-0.03146,0.13653,0.22235,18.42,30.54,24.06
3.6911,-8.9213,-1.7434,-0.032376,0.12492,0.24954,18.42,30.84,24.12
3.7865,-8.8941,-1.7025,-0.034208,0.1066,0.27,18.48,30.84,24.12
3.8273,-8.9213,-1.757,-0.03207,0.0956,0.27,18.66,30.84,24.0
3.8409,-8.9622,-1.7025,-0.032681,0.092241,0.27184,18.78,30.9,24.06
4.018,-8.9213,-1.6481,-0.030849,0.087659,0.25565,18.96,30.96,23.76
4.0452,-8.9349,-1.58,-0.019242,0.078191,0.23824,19.14,30.9,23.7
4.127,-9.0848,-1.7025,-0.019242,0.061392,0.22419,19.44,30.9,23.7
4.1678,-8.9758,-1.6208,-0.0076358,0.025656,0.20372,19.56,30.84,23.52
4.1542,-8.9758,-1.5391,-0.0033598,-0.0076358,0.15669,19.74,30.84,23.64
4.0861,-8.9349,-1.5391,-0.0058032,0.0036652,0.11881,19.86,30.72,23.52
4.127,-9.0439,-1.5936,-0.0073304,0.010385,0.082161,20.4,30.9,23.4
4.1814,-9.0303,-1.6617,-0.000611,-0.0088575,0.05284,20.46,30.84,23.34
4.2087,-9.0031,-1.7162,0.01069,-0.04612,0.018631,20.76,30.78,23.34
4.127,-8.9622,-1.757,0.018631,-0.096822,-0.026267,20.88,30.72,23.34
3.9771,-8.9758,-1.6344,0.0094684,-0.10507,-0.057727,20.94,30.6,23.28
3.9363,-9.0712,-1.6208,-0.0061087,-0.087048,-0.082161,20.88,30.54,23.16
3.8954,-9.0712,-1.6481,-0.020769,-0.075136,-0.10201,20.94,30.66,22.98
3.8001,-9.0575,-1.6208,-0.01741,-0.066584,-0.1292,21.12,30.66,23.16
3.7865,-9.0575,-1.5663,-0.022602,-0.065973,-0.15241,21.12,30.66,23.22
3.6775,-9.0984,-1.58,-0.018937,-0.080023,-0.16371,21.36,30.72,23.28
3.5685,-8.9894,-1.6072,-0.027489,-0.07758,-0.15699,21.3,30.6,23.22
3.5958,-9.0303,-1.6344,-0.030238,-0.072388,-0.14386,21.12,30.66,23.22
3.5413,-8.9758,-1.5391,-0.027184,-0.064752,-0.14172,20.94,30.72,23.1
3.5004,-9.0712,-1.5663,-0.025656,-0.058032,-0.13286,20.58,30.66,23.04
3.5277,-9.0712,-1.6072,-0.024129,-0.063835,-0.1179,20.64,30.72,22.92
3.4596,-9.1665,-1.6481,-0.023213,-0.065973,-0.088575,20.58,30.72,22.98
3.4187,-9.0439,-1.4438,-0.027489,-0.061392,-0.076969,20.34,30.78,22.98
3.3778,-9.0303,-1.5663,-0.026878,-0.031765,-0.059254,20.16,30.84,22.98
3.4323,-9.0575,-1.5391,-0.022907,-0.025656,-0.044593,20.16,30.66,23.16
3.514,-9.0575,-1.6481,-0.02474,-0.029932,-0.016799,19.86,30.66,23.22
3.4868,-9.1256,-1.471,-0.032376,-0.034208,0.0061087,19.74,30.78,23.16
3.4323,-9.1256,-1.471,-0.039706,-0.0097738,0.019242,19.56,30.78,23.04
3.4868,-9.0848,-1.5527,-0.047953,0.029322,0.020769,19.38,30.96,23.1
3.5004,-9.0848,-1.5391,-0.038485,0.041844,0.033598,19.44,30.96,22.98
3.6366,-9.0031,-1.6481,-0.029932,0.030543,0.048258,19.38,30.96,23.16
3.6366,-9.0439,-1.6753,-0.033598,0.018631,0.07086,19.32,31.02,23.04
3.5822,-8.9486,-1.5391,-0.041233,0.032681,0.073609,19.32,30.9,23.1
3.6503,-9.0439,-1.58,-0.052534,0.062308,0.07025,19.38,31.02,23.34
3.8001,-9.0167,-1.5936,-0.052229,0.08094,0.079107,19.62,31.14,23.34
3.8273,-9.0848,-1.58,-0.047647,0.068111,0.085521,19.62,31.2,23.28
3.732,-9.0303,-1.7025,-0.040623,0.052534,0.089797,19.74,31.02,23.34
3.7456,-8.9894,-1.6072,-0.042455,0.051924,0.076358,19.74,30.84,23.4
3.7728,-9.0167,-1.7434,-0.048258,0.068722,0.077274,19.8,30.9,23.64
3.732,-9.112,-1.6072,-0.060476,0.073304,0.07758,19.86,30.66,23.76
3.8682,-9.0031,-1.7025,-0.05681,0.06689,0.07025,19.74,30.66,23.76
3.8273,-8.9622,-1.7025,-0.051924,0.053451,0.068111,19.98,30.84,23.76
3.7865,-8.9077,-1.6072,-0.053451,0.062003,0.054672,19.98,30.54,23.88
3.7728,-8.8805,-1.5119,-0.054062,0.068722,0.040317,19.86,30.66,23.82
3.8273,-8.9349,-1.5391,-0.062308,0.07086,0.042455,19.86,30.6,23.76
3.8409,-8.9622,-1.5527,-0.046426,0.040012,0.051618,19.68,30.48,23.76
3.8682,-8.9349,-1.58,-0.030238,0.016799,0.053756,19.62,30.54,23.76
3.8818,-8.9758,-1.5663,-0.021991,0.012828,0.052534,19.62,30.6,23.7
3.8137,-8.9349,-1.6208,-0.009163,0.0033598,0.050702,19.62,30.6,23.58
3.7865,-8.9622,-1.4574,-0.0051924,0.0039706,0.038485,19.68,30.72,23.52
3.8954,-8.9077,-1.5391,-0.0015272,-0.009163,0.038485,19.8,30.78,23.52
3.8409,-8.9622,-1.6072,-0.0024435,-0.018937,0.023213,19.98,30.72,23.52
3.8273,-8.9349,-1.6208,0.0015272,-0.0097738,0.000916,19.98,30.78,23.58
3.8273,-8.9894,-1.5936,0.0067195,-0.014355,0.0027489,19.86,30.66,23.52
3.9499,-8.9758,-1.7025,0.0036652,-0.025962,0.0097738,19.86,30.66,23.28
3.8273,-9.1256,-1.7025,0.010079,-0.035736,0.0076358,19.92,30.54,23.4
3.8273,-9.221,-1.7298,-0.0042761,-0.036652,0.0036652,19.98,30.48,23.46
3.8001,-9.3708,-1.7843,-0.0054978,-0.016799,-0.0042761,20.04,30.54,23.46
3.7865,-9.3299,-1.8115,-0.019242,0.0094684,-0.018631,20.16,30.54,23.34
3.8001,-9.1256,-1.8387,-0.01741,0.021991,-0.035125,20.1,30.54,23.34
3.732,-8.6625,-1.9205,0.0067195,-0.0088575,-0.058338,20.1,30.54,23.46
3.7592,-8.4446,-1.8932,0.050702,-0.12492,-0.073609,20.04,30.42,23.4
3.7865,-8.4038,-1.8524,0.070555,-0.26267,-0.047647,19.98,30.54,23.4
3.7047,-8.4719,-1.8115,0.057116,-0.35369,-0.021991,19.98,30.48,23.22
3.4459,-8.9894,-1.6208,0.018326,-0.31093,0.023518,20.1,30.48,23.16
3.4323,-9.0575,-1.6481,-0.015577,-0.19853,0.03543,20.1,30.48,23.22
3.5685,-9.1937,-1.6072,-0.03146,-0.14019,0.029016,19.98,30.54,23.28
3.6775,-9.3163,-1.3484,-0.059865,-0.035125,-0.011606,20.04,30.6,23.16
3.6911,-9.3844,-1.2531,-0.07086,-0.025962,-0.054672,19.92,30.6,23.04
3.6775,-9.4389,-1.3076,-0.051924,-0.022907,-0.098655,19.86,30.66,23.16
3.4732,-9.2618,-1.471,-0.036041,0.034208,-0.13653,19.62,30.72,23.22
3.4323,-9.221,-1.6072,-0.04612,0.10324,-0.1408,19.62,30.72,23.1
3.4596,-9.221,-1.4982,-0.076053,0.13989,-0.12798,19.56,30.72,23.04
3.4596,-9.221,-1.6072,-0.10507,0.13256,-0.090713,19.32,30.54,23.16
3.4323,-9.1937,-1.6617,-0.12645,0.11698,-0.041233,19.26,30.54,23.1
3.3506,-9.0303,-1.7298,-0.13225,0.11118,0.0097738,19.26,30.42,23.22
3.2825,-8.826,-1.6753,-0.15944,0.14936,0.050702,18.78,30.54,23.04
3.2825,-8.7715,-1.5527,-0.17593,0.17837,0.081551,18.72,30.42,23.04
3.337,-8.8396,-1.4846,-0.18906,0.20159,0.11668,18.72,30.42,23.04
3.4323,-8.826,-1.5527,-0.19792,0.21044,0.16554,18.3,30.54,23.22
3.5685,-8.7987,-1.4029,-0.16768,0.21014,0.21411,18.24,30.66,23.34
3.5685,-8.717,-1.3212,-0.14661,0.20647,0.25198,18.3,30.6,23.4
3.7865,-8.826,-1.2803,-0.098349,0.1967,0.26848,18.42,30.42,23.46
3.8409,-8.826,-1.2803,-0.072998,0.16799,0.28008,18.42,30.48,23.7
3.8818,-8.826,-1.3212,-0.069028,0.15974,0.28375,18.42,30.36,23.7
4.0452,-8.6489,-1.2667,-0.043066,0.13867,0.27764,18.6,30.42,23.64
4.0725,-8.6489,-1.2939,0.010385,0.12034,0.23793,18.84,30.48,23.58
4.1542,-8.7715,-1.3076,0.048564,0.10354,0.21258,18.9,30.48,23.46
4.2495,-8.8668,-1.4165,0.074831,0.073609,0.18998,19.14,30.36,23.58
4.3313,-8.9758,-1.6072,0.092546,0.013439,0.15852,19.32,30.54,23.64
4.2359,-8.9758,-1.5936,0.1179,-0.030238,0.10721,19.62,30.36,23.76
4.2632,-8.9622,-1.6344,0.12034,-0.032987,0.041844,19.8,30.36,23.64
4.2087,-8.9894,-1.7298,0.10782,-0.015882,-0.062003,20.34,30.24,23.34
4.1406,-9.0848,-1.7025,0.086132,0.0027489,-0.12278,20.52,30.36,23.22
4.127,-9.0848,-1.6889,0.050396,0.016799,-0.20006,20.76,30.42,23.1
4.0316,-9.0575,-1.6344,0.040012,-0.0094684,-0.23885,20.94,30.42,22.86
3.9227,-9.1801,-1.6072,0.037874,-0.020464,-0.25626,21.12,30.72,22.98
3.9227,-9.2346,-1.5255,0.035125,-0.036957,-0.28924,21.12,30.54,23.1
3.7728,-9.3163,-1.5391,0.035736,-0.03879,-0.31276,21.06,30.54,23.04
3.6094,-9.3163,-1.5936,0.024129,-0.017715,-0.30849,21.0,30.66,22.74
3.5685,-9.3163,-1.6481,0.0067195,0.0082467,-0.30299,20.88,30.72,22.56
3.4459,-9.2755,-1.5391,-0.019548,0.024435,-0.2926,20.88,30.66,22.5
3.4459,-9.3436,-1.4165,-0.022907,0.025045,-0.2587,20.76,30.84,22.2
3.4459,-9.3708,-1.6481,-0.018937,0.0073304,-0.22022,20.76,30.78,22.26
3.3642,-9.2482,-1.6889,-0.026267,-0.0085521,-0.17226,20.52,30.84,22.26
3.2825,-8.9758,-1.3484,-0.015272,-0.01405,-0.13622,20.04,30.72,22.26
3.3642,-9.2755,-1.471,-0.0051924,-0.013744,-0.06689,19.92,30.78,22.32
3.4323,-9.4389,-1.4982,-0.053145,-0.014966,0.082161,19.56,30.72,22.26
3.3778,-9.112,-1.5119,-0.05284,-0.037263,0.14508,19.32,30.54,22.08
3.3642,-8.9486,-1.2939,-0.030849,-0.021686,0.16585,19.26,30.66,22.02
3.4459,-9.2482,-1.3757,-0.000611,-0.018326,0.20586,19.14,30.72,22.02
3.8273,-9.4525,-1.5119,-0.009163,-0.054672,0.27122,18.78,30.78,22.14
3.7728,-9.3027,-1.5663,-0.026878,-0.12584,0.32895,18.72,30.9,22.14
3.5958,-8.9213,-1.5527,-0.063225,-0.090103,0.31307,18.72,30.84,22.44
3.5549,-9.0848,-1.471,-0.079412,0.011301,0.29077,18.54,30.96,22.38
3.8546,-9.2891,-1.5119,-0.11118,0.070555,0.2868,18.6,31.02,22.38
3.9635,-9.2618,-1.5391,-0.1463,0.053756,0.28955,18.66,30.96,22.38
3.9635,-9.112,-1.6753,-0.12553,-0.012217,0.27611,18.84,31.08,22.2
3.8273,-9.0575,-1.5527,-0.10934,-0.015272,0.2364,18.96,31.14,22.2
3.8001,-9.1801,-1.5119,-0.12095,0.02474,0.19792,19.2,31.26,22.2
3.8001,-9.2074,-1.5119,-0.17746,0.055283,0.15485,19.32,31.32,22.5
3.7184,-9.0575,-1.6344,-0.19487,0.064446,0.14355,19.5,31.32,22.62
3.5822,-8.7715,-1.7162,-0.20525,0.11026,0.091935,19.68,31.26,22.68
3.5822,-8.7306,-1.5663,-0.22358,0.21228,0.037263,19.92,31.14,22.8
3.6366,-8.6489,-1.3757,-0.23824,0.25809,0.023824,20.46,31.14,22.92
3.6094,-8.6762,-1.3212,-0.24129,0.25259,0.037874,20.52,31.08,22.98
3.623,-8.7034,-1.2395,-0.23305,0.23213,0.046426,20.64,31.14,22.98
3.6639,-8.6625,-1.1713,-0.19273,0.20769,0.053756,20.88,30.84,23.22
3.6775,-8.6625,-1.2803,-0.1292,0.15363,0.069028,21.0,30.9,23.34
3.732,-8.6762,-1.185,-0.027489,0.0281,0.075442,21.0,30.78,23.46
3.6775,-8.6762,-1.3212,0.039095,-0.047647,0.084605,21.3,30.78,23.52
3.5549,-8.8124,-1.3484,0.081551,-0.10843,0.071471,21.3,30.6,23.64
3.5004,-8.9077,-1.4301,0.096211,-0.12126,0.057727,21.42,30.66,23.76
3.4596,-8.9758,-1.5391,0.084299,-0.048869,0.04215,21.54,30.6,23.76
3.5413,-8.9622,-1.4982,0.068417,0.014966,0.040317,21.48,30.6,23.88
3.6094,-8.9213,-1.471,0.085216,0.040317,0.040012,21.54,30.54,23.94
3.7456,-8.9486,-1.471,0.10171,0.013744,0.038179,21.54,30.6,23.94
3.7456,-8.9894,-1.5391,0.11118,-0.037874,0.047647,21.72,30.48,23.94
3.7047,-9.0575,-1.6344,0.1069,-0.051924,0.046426,21.72,30.66,23.88
3.7456,-9.0984,-1.6344,0.097128,-0.051618,0.042455,21.78,30.66,23.76
3.7728,-9.221,-1.6889,0.090713,-0.036346,0.027794,21.9,30.6,23.76
3.8409,-9.3436,-1.7162,0.075136,-0.035736,-0.0097738,21.96,30.6,23.82
3.7728,-9.3027,-1.7706,0.054367,-0.06353,-0.029016,21.9,30.66,23.76
3.7865,-9.2618,-1.6753,0.029016,-0.079107,-0.054672,22.02,30.78,23.7
3.5958,-9.221,-1.6481,0.0061087,-0.076358,-0.092241,22.14,30.66,23.52
3.5685,-9.221,-1.7025,-0.0073304,-0.057421,-0.10537,22.14,30.6,23.34
3.5004,-9.1937,-1.7843,-0.018937,-0.04612,-0.10049,22.26,30.6,23.16
3.4732,-9.3163,-1.6481,-0.053756,-0.030849,-0.098044,22.2,30.54,22.98
3.4459,-9.2346,-1.58,-0.078191,-0.01741,-0.073915,22.14,30.54,22.8
3.3778,-9.221,-1.5527,-0.084299,-0.0079412,-0.082772,21.96,30.6,22.74
3.4051,-9.1529,-1.58,-0.090408,-0.000916,-0.072082,22.02,30.54,22.56
3.3915,-9.1801,-1.5255,-0.078496,-0.01069,-0.065973,21.9,30.66,22.62
3.4596,-9.1393,-1.7025,-0.064446,-0.055894,-0.025962,21.72,30.72,22.74
3.3778,-9.1937,-1.58,-0.064141,-0.069333,-0.0079412,21.72,30.72,22.68
3.3778,-9.1393,-1.5391,-0.077274,-0.07422,0.0064141,21.78,30.66,22.86
3.3097,-9.0575,-1.58,-0.085827,-0.048564,0.016799,21.6,30.48,22.92
3.3778,-9.0984,-1.5255,-0.098044,-0.0030543,0.025045,21.6,30.48,22.86
3.3915,-9.221,-1.7025,-0.092852,-0.0042761,0.022907,21.48,30.6,22.86
3.5004,-9.2346,-1.6753,-0.078802,-0.022602,0.034208,21.24,30.66,22.92
3.4732,-9.2346,-1.6344,-0.076053,-0.051313,0.042455,21.36,30.66,23.1
3.4732,-9.112,-1.7298,-0.071471,-0.06689,0.051313,21.3,30.66,23.1
3.4051,-9.1529,-1.7162,-0.076053,-0.059865,0.06017,21.24,30.84,23.34
3.3506,-9.0984,-1.6072,-0.10721,-0.022907,0.054367,21.3,30.84,23.4
3.3778,-8.9894,-1.5255,-0.12798,0.013439,0.046731,21.24,30.66,23.46
3.4323,-8.9894,-1.5119,-0.13714,0.048258,0.03543,21.3,30.66,23.52
3.6639,-9.0303,-1.5119,-0.12339,0.046731,0.027184,21.24,30.66,23.64
3.5685,-9.0712,-1.471,-0.096822,0.012523,0.053756,21.12,30.9,23.52
3.514,-9.112,-1.4982,-0.078802,0.0015272,0.05681,21.12,30.96,23.52
3.5004,-9.0848,-1.4029,-0.079412,0.034208,0.064141,21.24,30.9,23.64
3.4732,-9.0575,-1.5119,-0.079107,0.082467,0.041844,21.3,30.72,23.76
3.5685,-9.0167,-1.5391,-0.080329,0.09163,0.027184,21.24,30.78,23.88
3.5822,-8.9894,-1.5936,-0.072082,0.083994,0.033292,21.24,30.78,23.82
3.5685,-9.0439,-1.7162,-0.039095,0.040623,0.04948,21.18,30.78,24.0
3.514,-9.0439,-1.6481,-0.041233,0.016493,0.04948,21.24,30.66,24.0
3.4187,-9.0031,-1.4301,-0.040928,0.034208,0.055283,21.18,30.66,24.06
3.4459,-9.0303,-1.7025,-0.039706,0.041233,0.044899,21.12,30.72,24.06
3.514,-9.0303,-1.7979,-0.012828,0.016188,0.076053,21.18,30.72,24.06
3.5685,-9.0031,-1.7298,-0.012828,-0.016493,0.094684,21.18,30.54,23.94
3.5685,-8.9894,-1.6344,-0.007025,-0.026267,0.10263,21.24,30.48,23.94
3.514,-9.0712,-1.5936,-0.015272,-0.013134,0.075442,21.36,30.6,24.0
3.514,-9.112,-1.7162,-0.040012,0.037263,0.043677,21.3,30.54,23.82
3.5822,-9.1529,-1.7298,-0.03207,0.065973,0.032376,21.3,30.72,24.0
3.623,-9.1256,-1.7434,-0.023213,0.045509,0.038485,21.36,30.78,23.88
3.623,-9.1256,-1.7434,-0.0048869,0.0079412,0.044899,21.36,30.78,23.88
3.5413,-8.9213,-1.7434,-0.0039706,-0.018021,0.047647,21.48,30.72,23.88
3.4732,-9.0303,-1.7843,-0.013134,-0.020769,0.044593,21.48,30.48,23.76
3.4596,-9.0575,-1.7979,-0.018326,0.0073304,0.043066,21.54,30.48,23.7
3.5413,-9.1256,-1.7706,-0.030238,-0.0015272,0.038179,21.66,30.54,23.64
3.514,-9.1256,-1.9341,-0.018021,-0.0281,0.031765,21.72,30.54,23.82
3.4868,-9.1529,-1.8524,-0.023213,-0.059559,0.040012,21.78,30.54,23.82
3.514,-9.0848,-1.9341,-0.025351,-0.069333,0.041233,21.84,30.78,23.58
3.5958,-9.1529,-1.8524,-0.029627,-0.072998,0.050396,21.96,30.72,23.64
3.5004,-9.2482,-1.8524,-0.040317,-0.062919,0.041539,21.9,30.6,23.46
3.4596,-9.1529,-1.9068,-0.068417,-0.053451,0.032987,21.9,30.72,23.52
3.4732,-9.1256,-1.9341,-0.076358,-0.048869,0.029016,22.14,30.72,23.4
3.4187,-9.0167,-1.8932,-0.08094,-0.044288,0.017715,22.14,30.72,23.46
3.4187,-9.0575,-1.8387,-0.10232,-0.019548,0.0048869,22.14,30.84,23.46
3.4459,-9.1256,-1.8251,-0.096211,-0.01405,-0.0024435,22.08,30.78,23.58
3.4323,-9.1529,-1.7434,-0.11057,-0.0012217,-0.0076358,22.14,30.9,23.52
3.3915,-9.0303,-1.7706,-0.11484,0.0033598,-0.0051924,22.32,30.72,23.52
3.3778,-8.9894,-1.6889,-0.099571,0.0015272,-0.0045815,22.08,30.66,23.46
3.3778,-8.9894,-1.7706,-0.092852,0.000305,-0.0042761,22.02,30.66,23.52
3.3915,-8.9894,-1.6481,-0.095906,0.0018326,-0.0015272,21.96,30.66,23.82
3.2961,-9.0031,-1.5255,-0.097128,0.034208,-0.012523,21.96,30.66,23.94
3.3506,-9.0167,-1.6208,-0.095906,0.053145,-0.014355,21.9,30.66,24.06
3.3778,-8.9622,-1.6344,-0.07758,0.048564,-0.0064141,21.84,30.72,24.18
3.2825,-8.9213,-1.6344,-0.036957,0.022297,0.0082467,21.72,30.54,24.3
3.2961,-9.0031,-1.5663,-0.029627,0.031765,0.012523,21.78,30.48,24.42
3.3506,-9.0439,-1.6344,-0.021075,0.040928,0.01069,21.78,30.48,24.6
3.4459,-9.0575,-1.757,-0.013439,0.057421,0.020769,21.84,30.48,24.54
3.4187,-8.9758,-1.7706,-0.0048869,0.051924,0.025045,21.84,30.48,24.66
3.4459,-9.0303,-1.8932,0.000305,0.037874,0.027794,21.72,30.54,24.78
3.4459,-9.0575,-1.9205,-0.0012217,0.039401,0.018937,21.72,30.54,24.9
3.4732,-9.0984,-1.9068,-0.010079,0.04215,0.020464,21.84,30.54,24.96
3.4732,-9.0848,-1.9068,-0.010996,0.034208,0.017104,21.78,30.42,24.84
3.5549,-9.1665,-1.8932,-0.019242,0.018631,0.019548,21.72,30.54,24.78
3.4596,-9.1256,-1.9613,-0.019548,0.0042761,0.024129,21.66,30.42,24.6
3.514,-9.0848,-1.9341,-0.022907,-0.0061087,0.016799,21.72,30.42,24.72
3.5277,-9.1529,-1.9613,-0.024129,-0.021075,0.020769,21.72,30.36,24.6
3.5277,-9.1801,-1.9341,-0.021075,-0.022907,0.027489,21.72,30.42,24.66
3.6094,-9.221,-1.8932,-0.040012,-0.024435,0.030238,21.6,30.48,24.6
3.4051,-9.1529,-1.8524,-0.0562,-0.011301,0.0058032,21.54,30.42,24.66
3.4051,-9.0848,-1.9341,-0.065057,0.011301,-0.0067195,21.48,30.54,24.54
3.3778,-9.1256,-1.9341,-0.072082,0.019853,-0.018326,21.54,30.54,24.54
3.3915,-9.1256,-1.8524,-0.07422,0.014966,-0.010079,21.54,30.66,24.48
3.3506,-9.112,-1.8387,-0.075136,0.016799,0.0012217,21.54,30.72,24.54
3.3097,-9.0984,-1.866,-0.09499,0.023824,0.0012217,21.6,30.84,24.6
3.2553,-9.0712,-1.8387,-0.084605,0.033903,0.0051924,21.66,30.78,24.48
3.2825,-9.0575,-1.8524,-0.078802,0.038485,0.013439,21.78,30.9,24.54
3.3506,-9.0575,-1.7706,-0.082772,0.036041,0.019242,21.9,30.84,24.48
3.3506,-8.9894,-1.7298,-0.069944,0.029932,0.019548,21.9,30.9,24.6
3.3506,-9.0303,-1.6889,-0.06689,0.027184,0.027184,21.78,30.72,24.48
3.4187,-9.0167,-1.9341,-0.058643,0.017104,0.050396,21.84,30.72,24.48
3.4323,-9.0031,-1.8932,-0.0562,0.0051924,0.060781,21.78,30.9,24.42
3.3915,-9.0575,-1.7298,-0.051313,0.0039706,0.055894,21.96,30.96,24.72
3.3915,-9.0303,-1.8387,-0.057421,0.034819,0.043066,22.08,30.9,24.72
3.3915,-9.0848,-1.7979,-0.057421,0.05284,0.042761,22.08,30.78,24.66
3.4732,-9.0439,-1.8932,-0.048258,0.035125,0.046731,22.02,30.84,24.42
3.5004,-8.9894,-1.866,-0.044899,0.021075,0.050396,22.02,30.84,24.48
3.4596,-8.9349,-1.8387,-0.042455,0.000611,0.043677,21.96,30.84,24.72
3.514,-8.9758,-1.8387,-0.03879,0.022602,0.036041,22.02,30.84,24.72
3.5413,-9.0303,-1.9341,-0.034208,0.027794,0.028405,21.9,30.78,24.72
3.5277,-9.0439,-1.8524,-0.034819,0.013744,0.023213,21.84,30.84,24.66
3.4187,-9.0303,-1.8796,-0.033598,0.0076358,0.013134,21.84,31.02,24.72
3.3642,-9.0303,-1.866,-0.05284,0.037568,-0.0051924,21.84,30.9,24.78
3.4187,-9.0167,-1.8387,-0.055894,0.056505,-0.0073304,21.78,30.9,24.78
3.514,-9.0575,-1.9068,-0.035125,0.052534,-0.013134,21.72,30.72,24.72
3.5277,-9.0848,-1.9068,-0.024129,0.012523,0.011606,21.66,30.72,24.66
3.4459,-9.0575,-1.9477,-0.02474,-0.013439,0.012828,21.72,30.78,24.72
3.3778,-9.0303,-1.9341,-0.036652,0.025045,0.000916,21.78,30.6,24.84
3.3778,-9.0303,-1.9341,-0.038485,0.045204,0.0051924,21.84,30.66,24.84
3.4868,-9.0984,-1.9886,-0.043371,0.044899,0.0097738,22.02,30.6,24.78
3.4868,-9.0848,-1.9613,-0.043677,0.012828,0.010385,22.02,30.6,24.9
3.4187,-9.0303,-1.9341,-0.040928,-0.014355,0.012828,21.84,30.6,24.84
3.4187,-9.0575,-1.9477,-0.039706,-0.002138,0.01405,21.9,30.66,24.84
3.4868,-9.1256,-1.9341,-0.049786,-0.0024435,0.013744,21.78,30.6,24.96
3.4732,-9.1256,-2.0294,-0.053451,0.0030543,0.0281,21.72,30.6,24.9
3.514,-9.112,-1.9477,-0.055283,-0.013744,0.02474,21.96,30.6,24.96
3.4187,-9.0848,-1.9341,-0.0562,-0.014966,0.02138,22.02,30.66,24.84
3.4459,-9.1393,-2.0294,-0.054367,-0.0058032,0.020769,22.02,30.6,24.9
3.514,-9.0575,-1.9341,-0.063835,-0.012828,0.013439,21.84,30.72,24.9
3.3915,-9.0848,-1.9886,-0.069944,-0.023518,0.012523,21.9,30.84,24.78
3.4323,-9.0848,-1.9613,-0.090713,-0.0048869,-0.0073304,21.84,30.78,24.96
3.3506,-9.0439,-1.9205,-0.087354,0.0085521,-0.011912,21.66,30.78,25.02
3.4051,-9.1393,-2.0022,-0.090713,0.011606,-0.0079412,21.96,30.72,24.96
3.3778,-9.0712,-1.9613,-0.078191,-0.0054978,-0.0042761,21.9,30.72,25.02
3.3506,-9.0712,-1.9205,-0.076358,-0.014966,0.0048869,21.78,30.72,24.84
3.3097,-9.0575,-1.8796,-0.085827,0.0018326,0.0064141,21.96,30.66,24.78
3.2825,-9.0575,-1.9341,-0.082772,0.012828,0.0073304,22.08,30.6,24.84
3.3234,-9.0712,-1.9205,-0.089797,0.018937,0.014966,21.96,30.54,24.84
3.2144,-9.0167,-1.8932,-0.091935,0.024129,0.020769,22.02,30.48,25.14
3.3097,-9.0439,-1.975,-0.087048,0.034514,0.025962,21.96,30.54,25.26
3.3097,-9.0575,-1.9341,-0.092241,0.044593,0.037568,21.96,30.54,25.32
3.3097,-9.0167,-1.9205,-0.091935,0.047953,0.042761,21.96,30.48,25.5
3.3506,-9.0439,-1.8251,-0.078802,0.050702,0.043677,22.08,30.42,25.44
3.3642,-8.9622,-1.7979,-0.083078,0.056505,0.048869,22.14,30.48,25.44
3.3642,-8.9758,-1.9205,-0.070555,0.071166,0.043677,21.9,30.54,25.68
3.3506,-9.0031,-1.8932,-0.072693,0.067501,0.052229,21.96,30.6,25.74
3.5004,-8.9894,-1.9477,-0.058643,0.07086,0.045509,21.96,30.6,25.86
3.4459,-9.0303,-1.9613,-0.048258,0.07758,0.047953,21.78,30.66,25.92
3.4596,-9.0439,-2.0431,-0.032376,0.061087,0.057727,21.84,30.66,25.92
3.4459,-9.0303,-1.9477,-0.032987,0.059865,0.05681,21.78,30.72,25.98
3.4459,-8.9349,-1.9341,-0.035125,0.080634,0.042761,21.84,30.78,26.04
3.4459,-8.9349,-1.9341,-0.035125,0.080634,0.042761,21.84,30.78,26.04
3.5004,-9.0303,-2.1112,-0.022602,0.074526,0.043066,21.96,30.66,25.86
3.4596,-9.0575,-2.0839,-0.026573,0.050702,0.053145,22.02,30.6,25.86
3.514,-9.1393,-2.0567,-0.02474,0.025045,0.047647,22.14,30.6,26.04
3.4187,-9.1665,-2.1384,-0.041539,0.039401,0.042455,22.02,30.54,26.04
3.514,-9.0303,-2.1248,-0.053451,0.076053,0.030543,22.02,30.42,26.04
3.5413,-9.0575,-2.1929,-0.058948,0.06353,0.032987,21.96,30.42,25.92
3.6094,-9.0575,-2.152,-0.053451,0.030849,0.033292,22.02,30.48,25.98
3.4732,-8.9894,-2.1112,-0.06689,0.0036652,0.022907,22.2,30.36,26.04
3.3778,-9.0439,-2.1384,-0.074831,0.023213,0.011606,22.14,30.3,26.1
3.4187,-9.0031,-1.9613,-0.084299,0.055283,0.0018326,22.08,30.3,26.16
3.5685,-8.9894,-1.9477,-0.080634,0.043982,-0.000611,22.14,30.3,26.16
3.4459,-8.9894,-1.9613,-0.060781,0.01741,-0.0054978,21.96,30.42,26.22
3.3778,-8.9622,-1.866,-0.04948,0.0058032,-0.0030543,22.02,30.48,26.1
3.4459,-9.0712,-1.9613,-0.043677,0.022297,-0.0051924,22.08,30.54,26.1
3.4187,-9.0712,-1.9341,-0.038485,0.03207,0.0036652,22.08,30.6,26.1
3.3915,-8.9758,-2.0022,-0.040928,0.021991,0.010079,22.2,30.66,26.1
3.4051,-8.9622,-2.1384,-0.018326,-0.0015272,0.014661,22.26,30.54,26.28
3.4187,-9.0575,-1.9886,-0.015272,-0.002138,0.017715,22.38,30.72,26.46
3.4459,-9.0575,-2.1248,-0.01741,-0.0024435,0.020159,22.32,30.54,26.46
3.514,-9.0439,-2.0839,-0.022297,-0.0082467,0.024129,22.38,30.66,26.52
3.4051,-8.9622,-2.0431,-0.037874,-0.002138,0.015272,22.32,30.84,26.46
3.337,-8.9894,-1.9613,-0.043677,0.0061087,0.010996,22.44,30.96,26.34
3.4187,-9.0303,-2.0567,-0.041539,0.034208,-0.0015272,22.44,30.96,26.28
3.514,-9.0712,-2.1248,-0.03879,0.025045,0.0036652,22.32,30.9,26.16
3.4732,-9.0984,-2.1248,-0.037568,-0.0097738,0.0048869,22.38,30.78,26.16
3.3642,-9.0303,-2.0158,-0.039095,-0.019853,0.013134,22.44,30.9,26.1
3.3506,-8.9349,-2.0294,-0.04215,0.0036652,0.010079,22.14,30.9,26.22
3.3915,-8.9486,-2.0567,-0.038179,0.025962,0.0073304,21.9,30.9,26.22
3.4187,-8.9894,-2.1112,-0.035125,0.0012217,0.0079412,21.9,31.08,26.22
3.4051,-9.0303,-2.0158,-0.036346,-0.022602,0.020464,21.96,30.78,26.1
3.3097,-9.0303,-2.0567,-0.038485,-0.014966,0.012828,22.02,30.9,26.04
3.337,-8.9894,-1.9341,-0.040317,0.015577,0.013744,22.08,30.84,26.1
3.3778,-8.9894,-1.9477,-0.039401,0.032987,0.012828,22.14,30.9,26.16
3.4187,-8.9622,-2.0567,-0.029932,0.011606,0.017104,22.08,30.78,26.28
3.3915,-9.0303,-2.0294,-0.033598,-0.010079,0.026573,22.14,30.78,26.46
3.3506,-9.0575,-2.0022,-0.03207,0.0061087,0.021991,22.2,30.78,26.7
3.3642,-9.0167,-1.9886,-0.027184,0.042761,0.012217,22.2,30.9,26.88
3.3778,-8.9622,-2.0294,-0.027489,0.045509,0.013439,22.2,30.78,26.94
3.4596,-8.9622,-1.9886,-0.018021,0.013439,0.018326,22.44,30.72,27.0
3.3915,-8.9894,-2.0703,-0.0076358,-0.0073304,0.031765,22.5,30.66,27.0
3.3778,-9.0303,-2.0703,-0.011606,-0.0027489,0.023213,22.62,30.48,27.0
3.4459,-9.0439,-2.0022,-0.023824,0.015882,0.020464,22.56,30.6,27.0
3.5004,-9.0848,-2.0839,-0.018021,0.023824,0.010079,22.68,30.54,26.88
3.5413,-9.0712,-2.152,-0.020464,-0.0030543,0.013134,22.68,30.66,26.76
3.4459,-8.9486,-2.1112,-0.021686,-0.017715,0.019548,22.86,30.48,26.64
3.4459,-9.0167,-2.1656,-0.032681,-0.010996,0.0082467,22.8,30.48,26.64
3.5004,-9.1256,-2.1112,-0.027794,-0.0076358,0.0027489,22.8,30.42,26.46
3.5413,-9.0575,-2.1112,-0.046731,-0.0085521,-0.000305,22.74,30.54,26.34
3.4459,-9.0167,-2.0158,-0.053451,-0.018937,-0.012828,22.8,30.42,26.34
3.3642,-8.9894,-1.9341,-0.051313,-0.012828,-0.024435,22.86,30.36,26.34
3.4459,-9.0439,-1.9477,-0.040623,0.0039706,-0.012828,22.68,30.54,26.34
3.4187,-9.0712,-2.0158,-0.029322,-0.014966,0.0039706,22.56,30.6,26.46
3.4187,-9.112,-2.0022,-0.031765,-0.03207,0.0097738,22.56,30.66,26.28
3.3506,-9.0303,-1.9886,-0.015272,-0.023213,0.007025,22.62,30.84,26.46
3.3234,-9.0303,-1.9613,-0.022602,0.0088575,0.0064141,22.44,30.96,26.46
3.337,-8.9894,-1.9886,-0.02474,0.021991,0.000916,22.44,30.9,26.52
3.3778,-9.0575,-2.0158,-0.022297,-0.0033598,0.015882,22.26,30.9,26.4
3.4187,-9.0303,-2.1248,-0.016188,-0.021686,0.031154,22.2,30.72,26.4
3.3778,-9.0575,-2.0294,-0.015577,-0.02138,0.029932,22.26,30.78,26.46
3.3506,-9.0848,-1.9613,-0.017104,-0.0039706,0.032376,22.2,30.78,26.28
3.4323,-9.0303,-2.0294,-0.024129,0.014661,0.018021,21.96,30.6,26.28
3.4732,-9.0303,-2.0567,-0.03146,0.0076358,0.026267,21.78,30.66,26.16
3.4187,-8.9894,-2.1112,-0.027184,-0.0067195,0.023518,21.9,30.66,26.16
3.4596,-9.0303,-2.0294,-0.037874,0.0036652,0.022297,22.2,30.54,25.86
3.3915,-9.0303,-2.0431,-0.029627,0.002138,0.020159,22.26,30.54,25.98
3.4868,-8.9894,-2.0158,-0.03207,-0.0039706,0.022907,22.14,30.54,25.92
3.514,-9.0303,-1.9341,-0.030849,-0.028405,0.032376,22.2,30.36,26.04
3.4459,-9.0439,-1.9886,-0.017104,-0.033903,0.022907,22.2,30.36,25.92
3.3915,-9.0575,-2.0158,-0.014966,-0.02474,0.021075,22.26,30.3,26.04
3.514,-9.0575,-2.0294,-0.0036652,-0.021991,0.013744,22.32,30.54,26.1
3.5004,-9.0575,-2.0567,-0.012523,-0.036346,0.018631,22.26,30.54,26.16
3.4732,-9.0303,-2.0158,-0.014661,-0.040012,0.019548,22.38,30.6,26.16
3.3778,-9.0848,-2.0294,-0.023518,-0.029627,0.010996,22.38,30.72,26.1
3.4051,-9.0575,-1.9613,-0.030238,-0.0094684,-0.000305,22.56,30.78,26.1
3.4459,-9.0303,-1.9886,-0.026878,-0.0036652,-0.000611,22.44,30.72,26.1
3.5004,-9.0167,-2.0703,-0.029016,-0.025045,-0.002138,22.5,30.78,26.4
3.3915,-9.0031,-2.0567,-0.020769,-0.041233,0.0033598,22.44,30.66,26.28
3.4459,-9.0575,-2.0839,-0.020769,-0.043371,0.0033598,22.44,30.54,26.1
3.4187,-9.0439,-2.0294,-0.030543,-0.028405,0.0073304,22.5,30.54,26.34
3.4459,-9.0167,-1.866,-0.024435,-0.029627,0.0051924,22.56,30.54,26.4
3.4187,-9.0303,-1.9613,-0.013744,-0.046426,0.0088575,22.38,30.54,26.34
3.3915,-9.0303,-2.0294,-0.009163,-0.059559,0.012217,22.32,30.42,26.4
3.4051,-9.0031,-1.975,-0.011606,-0.054367,0.0082467,22.38,30.36,26.28
3.3778,-9.0303,-1.9886,-0.010079,-0.037568,0.0073304,22.32,30.36,26.34
3.4596,-9.0575,-2.0567,-0.017104,-0.017715,0.0027489,22.38,30.42,26.34
3.514,-9.0303,-2.0294,-0.013439,-0.0281,-0.0012217,22.32,30.42,26.34
3.4868,-9.0712,-1.9886,-0.011912,-0.043982,0.0051924,22.26,30.54,26.16
3.3778,-9.0303,-2.0158,-0.012217,-0.038485,0.0012217,22.32,30.54,25.8
3.3506,-9.0712,-2.0022,-0.012828,-0.02474,0.0088575,22.26,30.48,25.92
3.3097,-9.0575,-1.975,-0.010079,-0.030543,0.0018326,22.26,30.48,25.86
3.4051,-9.0303,-1.9613,-0.01405,-0.03146,0.009163,22.32,30.54,25.68
3.3915,-9.0712,-2.0022,-0.025656,-0.027794,0.0058032,22.14,30.6,25.74
3.3778,-9.0031,-1.9477,-0.020159,-0.02138,-0.000916,22.32,30.6,25.74
3.4187,-8.9758,-2.0294,-0.030543,-0.0094684,0.002138,22.32,30.6,25.68
3.3778,-9.0575,-1.975,-0.023518,0.0015272,0.000305,22.14,30.66,25.74
3.3778,-9.0167,-1.9068,-0.019853,0.0024435,0.0048869,22.26,30.54,25.8
3.3642,-8.9758,-1.9341,-0.026573,-0.010079,0.0085521,22.2,30.42,25.8
3.4187,-8.9894,-1.9341,-0.026573,-0.010996,0.0015272,22.32,30.36,25.8
3.3778,-8.9894,-1.9886,-0.020769,-0.0088575,0.0015272,22.44,30.36,25.98
3.4459,-9.0575,-1.9613,-0.018021,0.01069,0.0082467,22.2,30.48,26.1
3.4187,-9.0575,-1.9613,-0.01069,0.0079412,0.021075,22.2,30.72,26.1
3.4868,-9.0031,-1.9886,-0.010996,-0.0045815,0.023213,22.26,30.84,26.22
3.4459,-9.0575,-2.0158,-0.0042761,-0.014661,0.020769,22.08,30.84,26.28
3.3642,-9.0167,-2.0294,-0.0097738,-0.000305,0.009163,22.2,30.78,26.22
3.4732,-9.0031,-2.0431,-0.018021,0.022602,0.0012217,22.08,30.84,26.16
3.514,-8.9758,-1.9886,-0.027184,0.034514,-0.0018326,22.02,30.78,26.22
3.514,-9.0031,-2.0703,-0.019853,0.000916,0.0054978,22.08,30.84,26.22
3.4459,-9.0031,-2.0022,-0.018937,-0.0088575,0.0088575,22.02,30.84,26.16
3.4187,-9.0031,-2.0158,-0.018021,-0.011912,0.0073304,21.84,31.14,26.1
3.3778,-8.9894,-2.0022,-0.024435,0.012828,-0.0042761,21.72,31.14,26.16
3.4732,-9.0575,-2.0158,-0.018937,0.028711,-0.0058032,21.6,31.26,25.92
3.4732,-9.0303,-2.0294,-0.012523,0.0045815,0.0033598,21.6,31.26,25.92
3.4323,-8.9622,-1.9886,-0.0094684,-0.011912,0.0097738,21.54,31.14,25.8
3.3642,-8.9622,-1.8796,-0.011912,-0.000611,0.010385,21.48,30.96,25.74
3.3097,-9.0031,-1.866,-0.018021,0.042761,0.000611,21.48,31.02,25.74
3.4051,-9.0575,-1.9613,-0.01405,0.039706,0.002138,21.36,31.08,25.74
3.4051,-8.9622,-2.0158,-0.0079412,0.027489,0.010996,21.3,31.14,25.68
3.2961,-8.9622,-1.866,0.0058032,0.025045,0.014661,21.42,31.14,25.5
3.2961,-8.9894,-1.7979,0.000611,0.057116,0.021075,21.48,31.14,25.5
3.4187,-9.0575,-1.8796,0.007025,0.068722,0.014966,21.48,31.08,25.56
3.4051,-9.0167,-1.975,0.016188,0.054978,0.039706,21.6,30.9,25.56
3.4051,-9.0303,-1.9613,0.026878,0.044288,0.042455,21.54,30.84,25.5
3.3778,-9.0303,-1.8524,0.018937,0.048564,0.047647,21.66,30.6,25.5
3.4732,-9.0303,-1.8796,0.019853,0.066279,0.036957,21.84,30.48,25.44
3.4732,-9.0575,-1.9613,0.028711,0.03207,0.046731,21.9,30.48,25.5
3.6094,-9.0031,-2.0158,0.047342,-0.0067195,0.061392,21.84,30.36,25.56
3.5413,-8.9894,-1.9886,0.03207,-0.036346,0.054062,21.9,30.36,25.62
3.5685,-9.0575,-1.9613,0.017715,-0.018937,0.044899,21.96,30.24,25.44
3.5277,-9.0848,-2.0703,-0.0030543,0.0067195,0.025656,21.9,30.24,25.44
3.6366,-9.0439,-2.0022,-0.016493,0.0076358,0.024129,22.02,30.24,25.44
3.6639,-9.0712,-1.8932,-0.025656,-0.027794,-0.0027489,22.2,30.3,25.26
3.5685,-9.0848,-1.9477,-0.029932,-0.03543,-0.013439,22.26,30.48,25.14
3.5685,-9.0303,-1.866,-0.029932,-0.02138,-0.036346,22.32,30.48,25.14
3.5413,-9.0848,-1.7979,-0.040928,0.013134,-0.058338,22.44,30.54,25.08
3.5277,-9.0984,-1.6208,-0.03879,0.031765,-0.070555,22.44,30.54,25.14
3.5413,-9.112,-1.6208,-0.030543,0.022907,-0.077885,22.38,30.78,25.08
3.5413,-9.0303,-1.6344,-0.0012217,-0.016493,-0.067195,22.38,30.84,25.02
3.3915,-8.9894,-1.7162,0.026267,-0.055283,-0.0562,22.2,30.9,25.08
3.3506,-9.0167,-1.6617,0.047647,-0.09163,-0.019853,22.14,30.9,24.9
3.3097,-9.0031,-1.7162,0.057116,-0.085216,-0.000611,22.14,30.84,25.02
3.3234,-9.1393,-1.7979,0.03207,-0.043677,0.0082467,22.14,30.72,24.9
3.4187,-9.1529,-1.9068,0.017715,-0.026573,0.012523,22.08,30.84,24.84
3.4868,-9.1937,-1.9613,0.0082467,-0.027794,0.011912,22.08,30.9,24.78
3.4187,-9.1529,-1.9886,-0.0097738,-0.037874,0.010996,21.78,30.66,24.84
3.3234,-9.0712,-1.9341,-0.033598,-0.020769,0.01405,21.72,30.66,24.72
3.3506,-9.0575,-1.8387,-0.057116,0.016493,0.0024435,21.6,30.66,24.72
3.514,-9.0712,-1.7979,-0.059559,0.029627,0.0027489,21.54,30.6,24.72
3.5685,-9.0984,-1.7843,-0.050702,0.015882,0.018937,21.54,30.36,24.9
3.5277,-9.0848,-1.757,-0.042455,-0.026267,0.027184,21.6,30.36,24.9
3.5685,-9.0575,-1.7434,-0.041539,-0.023824,0.023213,21.72,30.36,24.9
3.4323,-9.0848,-1.6344,-0.047342,-0.010079,0.017715,21.84,30.36,24.84
3.5277,-9.112,-1.6344,-0.053451,0.051313,0.0048869,21.84,30.54,24.96
3.5413,-9.0984,-1.6344,-0.04612,0.049175,0.0012217,21.78,30.48,25.14
3.5958,-9.112,-1.6344,-0.024129,0.0042761,0.0088575,21.84,30.66,25.08
3.5277,-9.0712,-1.8932,-0.019853,-0.025045,0.012217,21.72,30.36,25.2
3.4596,-9.0575,-1.7706,-0.03543,0.018937,-0.0039706,21.9,30.24,25.14
3.514,-9.1529,-1.7979,-0.054672,0.041539,-0.002138,21.9,30.36,25.2
3.6094,-9.1256,-1.9068,-0.06017,0.047037,0.0027489,21.84,30.48,25.14
3.5822,-8.9894,-1.9341,-0.05284,-0.0015272,0.0082467,21.84,30.54,25.32
3.5958,-9.0031,-1.9205,-0.052229,-0.037568,0.019548,21.9,30.6,25.32
3.4051,-9.0712,-1.7298,-0.069333,-0.017715,0.013439,21.72,30.42,25.02
3.337,-9.0439,-1.6344,-0.081856,0.04948,-0.0061087,21.66,30.48,25.08
3.5549,-9.0439,-1.7706,-0.087048,0.059254,0.0054978,21.6,30.36,25.02
3.623,-8.9349,-1.8115,-0.07086,0.03146,0.01405,21.48,30.24,25.08
3.5685,-8.9622,-1.7298,-0.049175,-0.027489,0.036957,21.6,30.3,25.08
3.5004,-8.9894,-1.7706,-0.043371,-0.030543,0.020464,21.48,30.3,25.02
3.5004,-8.9894,-1.6753,-0.06017,0.02474,0.012217,21.42,30.48,25.08
3.6094,-9.0303,-1.7025,-0.047037,0.057421,0.0030543,21.36,30.66,25.14
3.6503,-9.0031,-1.7298,-0.039401,0.038179,0.0030543,21.54,30.6,25.14
3.6094,-8.9894,-1.7706,-0.019853,-0.018631,0.020769,21.72,30.6,25.2
3.5958,-8.9894,-1.8387,-0.014355,-0.030238,0.023824,21.66,30.66,25.02
3.4459,-9.0031,-1.757,-0.018021,0.016188,0.016799,21.66,30.6,25.2
3.5958,-9.0303,-1.7706,-0.020769,0.03146,0.016493,21.78,30.66,25.2
3.6503,-9.0031,-1.9205,-0.021991,0.0073304,0.013439,21.84,30.6,25.14
3.623,-9.0303,-1.8932,-0.011912,-0.032376,0.012217,22.02,30.78,25.02
3.5413,-9.0031,-1.7979,-0.012523,-0.031154,0.0036652,22.08,30.84,25.08
3.5549,-9.0439,-1.8115,-0.027489,-0.016493,0.0033598,22.08,30.84,25.02
3.6094,-9.0031,-1.8932,-0.039706,0.0042761,-0.0085521,22.2,30.84,25.02
3.5685,-9.0303,-1.8524,-0.036041,-0.014661,0.0027489,22.2,30.78,24.9
3.6094,-9.0303,-1.7706,-0.027794,-0.033903,-0.000305,22.08,30.66,24.84
3.4732,-9.0031,-1.7298,-0.023213,-0.017104,-0.0076358,21.96,30.78,24.9
3.514,-9.0712,-1.7162,-0.022602,-0.010079,-0.007025,21.9,30.66,24.84
3.5277,-8.9894,-1.757,-0.026878,0.002138,-0.009163,21.9,30.66,24.84
3.5549,-8.9622,-1.7979,-0.027489,-0.000916,-0.000305,21.66,30.6,24.78
3.514,-8.9894,-1.757,-0.021686,-0.000611,-0.0076358,21.6,31.08,24.78
3.514,-9.0439,-1.7298,-0.017104,0.0073304,-0.011301,21.54,31.14,24.78
3.5549,-9.0984,-1.757,-0.014661,0.014355,-0.012523,21.6,31.08,24.96
3.5685,-9.0439,-1.7162,-0.0027489,0.0061087,-0.0024435,21.54,31.14,24.9
3.623,-9.0848,-1.8251,0.0064141,-0.01405,0.0012217,21.6,31.26,24.96
3.5004,-8.9894,-1.9341,0.000611,-0.025351,0.012217,21.48,31.14,24.96
3.5413,-9.1393,-1.8524,-0.0085521,-0.018631,0.0088575,21.54,31.02,25.02
3.4868,-9.1256,-1.8387,-0.018937,-0.0048869,0.02138,21.66,31.02,25.14
3.5822,-9.112,-1.9613,-0.033292,0.0012217,0.027489,21.66,31.02,24.96
3.6094,-9.0303,-1.9205,-0.029627,-0.025045,0.0281,21.6,31.14,25.02
3.5413,-9.0848,-1.8932,-0.028405,-0.025656,0.023213,21.54,31.02,25.14
3.5685,-9.0303,-1.9477,-0.041233,-0.033292,0.030849,21.72,31.14,25.2
3.6094,-9.0848,-1.866,-0.053756,-0.027184,0.033903,21.6,30.96,25.2
3.5549,-8.9894,-1.8387,-0.058948,-0.030238,0.025656,21.66,30.96,25.26
3.5277,-8.9349,-1.7025,-0.062308,-0.010079,0.025045,21.66,30.96,25.38
3.5549,-8.9622,-1.6344,-0.061087,0.018937,-0.000611,21.6,30.9,25.32
3.5685,-8.9622,-1.7025,-0.048564,0.027794,0.0024435,21.6,30.78,25.38
3.5822,-8.9622,-1.6617,-0.046731,0.0064141,0.010385,21.72,30.72,25.44
3.5685,-8.9622,-1.6208,-0.02474,-0.009163,0.011301,21.72,30.72,25.38
3.514,-8.9486,-1.6753,-0.032681,0.0030543,0.015272,21.6,30.72,25.32
3.5413,-9.0303,-1.7298,-0.026573,0.02138,0.009163,21.48,30.72,25.56
3.5822,-9.0167,-1.8251,-0.019548,0.011606,0.0097738,21.42,30.78,25.5
3.6094,-9.0303,-1.8115,-0.01405,-0.0051924,0.0088575,21.48,30.72,25.44
3.6366,-8.9894,-1.8796,-0.015577,-0.022907,0.011301,21.3,30.54,25.44
3.5413,-9.0303,-1.8524,-0.025656,-0.012523,0.0061087,21.3,30.48,25.5
3.5413,-9.0303,-1.9341,-0.033598,-0.0024435,0.0061087,21.3,30.54,25.44
3.6094,-9.0848,-1.8932,-0.033292,0.0012217,0.0015272,21.18,30.66,25.32
3.6503,-9.0712,-1.8251,-0.03207,-0.014966,0.0076358,21.12,30.48,25.32
3.6775,-8.9894,-1.8796,-0.032681,-0.025656,0.010079,21.0,30.42,25.08
3.5822,-8.9758,-1.8251,-0.045204,-0.019853,0.0064141,20.94,30.54,25.08
3.5413,-9.0167,-1.7298,-0.048869,0.0018326,-0.007025,21.0,30.54,25.2
3.5685,-8.9894,-1.8251,-0.051007,0.014966,-0.010079,21.06,30.66,25.14
3.6366,-9.0303,-1.8115,-0.043371,0.0054978,-0.0067195,21.06,30.72,25.02
3.5685,-9.0031,-1.6753,-0.029627,-0.0097738,-0.0058032,21.24,30.66,25.08
3.5413,-9.0167,-1.757,-0.03207,-0.011606,-0.0024435,21.3,30.9,25.2
3.5277,-8.9622,-1.757,-0.024129,-0.0036652,-0.0076358,21.48,31.02,25.08
3.5685,-8.9622,-1.6344,-0.032376,0.015577,-0.0082467,21.6,31.02,25.02
3.5822,-9.0303,-1.6617,-0.018326,0.007025,0.0048869,21.66,30.96,24.96
3.5685,-9.0848,-1.6344,-0.019853,-0.0085521,0.0097738,21.66,30.9,24.96
3.5958,-9.0303,-1.9068,-0.013134,-0.013744,0.007025,21.6,31.02,24.9
3.5277,-9.0167,-1.8932,-0.017104,-0.0039706,0.015577,21.66,31.14,25.14
3.5549,-8.9622,-1.8115,-0.022602,0.007025,0.0054978,21.66,31.02,25.2
3.6094,-9.0303,-1.8796,-0.025962,0.013744,0.0033598,21.48,31.02,25.14
3.6094,-8.8941,-1.8387,-0.029627,0.0018326,0.011912,21.48,31.08,25.2
3.6639,-9.0575,-1.866,-0.028405,-0.011301,0.0067195,21.48,31.02,25.2
3.6366,-8.9486,-1.7843,-0.034819,-0.0076358,0.012523,21.42,30.72,25.14
3.5685,-9.0303,-1.7434,-0.034819,-0.0027489,0.0058032,21.36,30.66,25.02
3.6094,-9.0167,-1.7979,-0.034514,0.000916,0.0058032,21.18,30.72,25.08
3.6366,-8.9622,-1.7706,-0.029932,-0.01405,0.010385,21.18,30.66,25.14
3.6775,-9.0167,-1.7706,-0.032376,-0.02138,0.010079,21.18,30.66,25.2
3.5822,-9.0712,-1.7843,-0.0281,-0.023213,0.0082467,21.12,30.72,25.32
3.5822,-9.0575,-1.7706,-0.02474,-0.018631,0.000916,21.06,30.78,25.26
3.5685,-8.9894,-1.7025,-0.031765,-0.014355,0.000916,21.06,30.84,25.08
3.6094,-8.9758,-1.8387,-0.019853,-0.01405,0.0045815,21.0,30.9,25.14
3.5958,-9.0303,-1.7298,-0.021075,-0.02138,0.0079412,21.18,31.02,25.08
3.5413,-9.0031,-1.7843,-0.020159,-0.02474,0.011301,21.06,30.9,25.08
3.5685,-9.0575,-1.7025,-0.020464,-0.018021,0.014355,21.06,31.02,25.2
3.5822,-9.0303,-1.8387,-0.026267,-0.0058032,0.011912,21.06,31.38,25.2
3.6775,-9.0439,-1.8387,-0.019242,-0.010079,0.018937,21.24,31.26,25.14
3.6503,-9.0575,-1.8251,-0.010996,-0.030849,0.028405,21.3,31.14,25.14
3.6094,-9.0167,-1.7979,-0.015272,-0.044593,0.038179,21.3,31.14,25.2
3.5685,-8.9894,-1.7979,-0.02138,-0.037874,0.030849,21.24,31.08,25.2
3.5685,-8.9894,-1.8251,-0.030849,-0.017104,0.012828,21.3,31.08,25.08
3.6911,-9.0167,-1.7979,-0.029016,-0.015882,0.011606,21.3,31.02,25.2
3.6775,-8.9758,-1.7434,-0.029932,-0.020464,0.020464,21.3,30.96,25.26
